instructionsLoop.thisRepN,instructionsLoop.thisTrialN,instructionsLoop.thisN,instructionsLoop.thisIndex,instructionsLoop.ran,participant,date,expName,psychopyVersion,OS,frameRate,browser,xResolution,yResolution,fix_onset,tprac,practiceKey.keys,practiceKey.rt,pracitem_chosen_name,acc_practice,P1_onsetPrac,P2_onsetPrac,onsetFeedbPrac,practiceTrials.thisRepN,practiceTrials.thisTrialN,practiceTrials.thisN,practiceTrials.thisIndex,practiceTrials.ran,P1,P2,Block,LocItem1,LocItem2,NameItem1,NameItem2,key_respAC_prac.keys,key_respAC_prac.corr,key_respAC_prac.rt,AC_acc,Attentions.thisRepN,Attentions.thisTrialN,Attentions.thisN,Attentions.thisIndex,Attentions.ran,Stim,Loc1,Loc2,Loc3,Loc4,CorrAns,keyDisturbed.keys,keyDisturbed.rt,repPractice.thisRepN,repPractice.thisTrialN,repPractice.thisN,repPractice.thisIndex,repPractice.ran,fixcross_onsetMain,trialNumber,key_resp.keys,key_resp.rt,item_chosen_name,item_chosen_value,item_chosen_ID,diff_chosen_minus_reject,acc_real,acc_feedback,P1_onset,P2_onset,feedb_onset,trials.thisRepN,trials.thisTrialN,trials.thisN,trials.thisIndex,trials.ran,Trial,ValueP1,ValueP2,P1name,P2name,P1Loc,P2Loc,P1id,P2id,Micro_categoryP1,Macro_categoryP1,Micro_categoryP2,Macro_categoryP2,ID_sequenceP1,ID_sequenceP2,InverseFb,pNumber,repBlocks.thisRepN,repBlocks.thisTrialN,repBlocks.thisN,repBlocks.thisIndex,repBlocks.ran,key_respAC.keys,key_respAC.corr,key_respAC.rt,trials_AC.thisRepN,trials_AC.thisTrialN,trials_AC.thisN,trials_AC.thisIndex,trials_AC.ran,Bonus,BonusLoop.thisRepN,BonusLoop.thisTrialN,BonusLoop.thisN,BonusLoop.thisIndex,BonusLoop.ran,comments
0,0,0,0,1,11,2020-07-01_09h33.09.409,retriever_ti,2020.1.3,MacIntel,60,Chrome,1440,900,,,,,,,,,,,,,,,,,,,,,,,,,,,,,,,,,,,,,,,,,,,,,,,,,,,,,,,,,,,,,,,,,,,,,,,,,,,,,,,,,,,,,,,,,,,,,,,,,,
1,0,1,0,1,11,2020-07-01_09h33.09.409,retriever_ti,2020.1.3,MacIntel,60,Chrome,1440,900,,,,,,,,,,,,,,,,,,,,,,,,,,,,,,,,,,,,,,,,,,,,,,,,,,,,,,,,,,,,,,,,,,,,,,,,,,,,,,,,,,,,,,,,,,,,,,,,,,
2,0,2,0,1,11,2020-07-01_09h33.09.409,retriever_ti,2020.1.3,MacIntel,60,Chrome,1440,900,,,,,,,,,,,,,,,,,,,,,,,,,,,,,,,,,,,,,,,,,,,,,,,,,,,,,,,,,,,,,,,,,,,,,,,,,,,,,,,,,,,,,,,,,,,,,,,,,,
3,0,3,0,1,11,2020-07-01_09h33.09.409,retriever_ti,2020.1.3,MacIntel,60,Chrome,1440,900,,,,,,,,,,,,,,,,,,,,,,,,,,,,,,,,,,,,,,,,,,,,,,,,,,,,,,,,,,,,,,,,,,,,,,,,,,,,,,,,,,,,,,,,,,,,,,,,,,
4,0,4,0,1,11,2020-07-01_09h33.09.409,retriever_ti,2020.1.3,MacIntel,60,Chrome,1440,900,,,,,,,,,,,,,,,,,,,,,,,,,,,,,,,,,,,,,,,,,,,,,,,,,,,,,,,,,,,,,,,,,,,,,,,,,,,,,,,,,,,,,,,,,,,,,,,,,,
5,0,5,0,1,11,2020-07-01_09h33.09.409,retriever_ti,2020.1.3,MacIntel,60,Chrome,1440,900,,,,,,,,,,,,,,,,,,,,,,,,,,,,,,,,,,,,,,,,,,,,,,,,,,,,,,,,,,,,,,,,,,,,,,,,,,,,,,,,,,,,,,,,,,,,,,,,,,
6,0,6,0,1,11,2020-07-01_09h33.09.409,retriever_ti,2020.1.3,MacIntel,60,Chrome,1440,900,,,,,,,,,,,,,,,,,,,,,,,,,,,,,,,,,,,,,,,,,,,,,,,,,,,,,,,,,,,,,,,,,,,,,,,,,,,,,,,,,,,,,,,,,,,,,,,,,,
7,0,7,0,1,11,2020-07-01_09h33.09.409,retriever_ti,2020.1.3,MacIntel,60,Chrome,1440,900,,,,,,,,,,,,,,,,,,,,,,,,,,,,,,,,,,,,,,,,,,,,,,,,,,,,,,,,,,,,,,,,,,,,,,,,,,,,,,,,,,,,,,,,,,,,,,,,,,
8,0,8,0,1,11,2020-07-01_09h33.09.409,retriever_ti,2020.1.3,MacIntel,60,Chrome,1440,900,,,,,,,,,,,,,,,,,,,,,,,,,,,,,,,,,,,,,,,,,,,,,,,,,,,,,,,,,,,,,,,,,,,,,,,,,,,,,,,,,,,,,,,,,,,,,,,,,,
9,0,9,0,1,11,2020-07-01_09h33.09.409,retriever_ti,2020.1.3,MacIntel,60,Chrome,1440,900,,,,,,,,,,,,,,,,,,,,,,,,,,,,,,,,,,,,,,,,,,,,,,,,,,,,,,,,,,,,,,,,,,,,,,,,,,,,,,,,,,,,,,,,,,,,,,,,,,
10,0,10,0,1,11,2020-07-01_09h33.09.409,retriever_ti,2020.1.3,MacIntel,60,Chrome,1440,900,,,,,,,,,,,,,,,,,,,,,,,,,,,,,,,,,,,,,,,,,,,,,,,,,,,,,,,,,,,,,,,,,,,,,,,,,,,,,,,,,,,,,,,,,,,,,,,,,,
11,0,11,0,1,11,2020-07-01_09h33.09.409,retriever_ti,2020.1.3,MacIntel,60,Chrome,1440,900,,,,,,,,,,,,,,,,,,,,,,,,,,,,,,,,,,,,,,,,,,,,,,,,,,,,,,,,,,,,,,,,,,,,,,,,,,,,,,,,,,,,,,,,,,,,,,,,,,
12,0,12,0,1,11,2020-07-01_09h33.09.409,retriever_ti,2020.1.3,MacIntel,60,Chrome,1440,900,,,,,,,,,,,,,,,,,,,,,,,,,,,,,,,,,,,,,,,,,,,,,,,,,,,,,,,,,,,,,,,,,,,,,,,,,,,,,,,,,,,,,,,,,,,,,,,,,,
13,0,13,0,1,11,2020-07-01_09h33.09.409,retriever_ti,2020.1.3,MacIntel,60,Chrome,1440,900,,,,,,,,,,,,,,,,,,,,,,,,,,,,,,,,,,,,,,,,,,,,,,,,,,,,,,,,,,,,,,,,,,,,,,,,,,,,,,,,,,,,,,,,,,,,,,,,,,
14,0,14,0,1,11,2020-07-01_09h33.09.409,retriever_ti,2020.1.3,MacIntel,60,Chrome,1440,900,,,,,,,,,,,,,,,,,,,,,,,,,,,,,,,,,,,,,,,,,,,,,,,,,,,,,,,,,,,,,,,,,,,,,,,,,,,,,,,,,,,,,,,,,,,,,,,,,,
15,0,15,0,1,11,2020-07-01_09h33.09.409,retriever_ti,2020.1.3,MacIntel,60,Chrome,1440,900,,,,,,,,,,,,,,,,,,,,,,,,,,,,,,,,,,,,,,,,,,,,,,,,,,,,,,,,,,,,,,,,,,,,,,,,,,,,,,,,,,,,,,,,,,,,,,,,,,
16,0,16,0,1,11,2020-07-01_09h33.09.409,retriever_ti,2020.1.3,MacIntel,60,Chrome,1440,900,,,,,,,,,,,,,,,,,,,,,,,,,,,,,,,,,,,,,,,,,,,,,,,,,,,,,,,,,,,,,,,,,,,,,,,,,,,,,,,,,,,,,,,,,,,,,,,,,,
,,,,,11,2020-07-01_09h33.09.409,retriever_ti,2020.1.3,MacIntel,60,Chrome,1440,900,1423.893145,1,right,1.020095,canary,1,1423.934765,1423.934765,1426.432465,0,0,0,0,1,2,5,1,html/resources/stimuli_practice_decision/04_beetle.jpg,html/resources/stimuli_practice_decision/02_canary.jpg,beetle,canary,,,,,,,,,,,,,,,,,,,,,,,,,,,,,,,,,,,,,,,,,,,,,,,,,,,,,,,,,,,,,,,,,,,,,,,,,,,,,
,,,,,11,2020-07-01_09h33.09.409,retriever_ti,2020.1.3,MacIntel,60,Chrome,1440,900,1426.987445,2,left,0.84692,rabbit,1,1427.000305,1427.000305,1429.49829,0,1,1,1,1,4,3,1,html/resources/stimuli_practice_decision/01_rabbit.jpg,html/resources/stimuli_practice_decision/07_sock.jpg,rabbit,sock,,,,,,,,,,,,,,,,,,,,,,,,,,,,,,,,,,,,,,,,,,,,,,,,,,,,,,,,,,,,,,,,,,,,,,,,,,,,,
,,,,,11,2020-07-01_09h33.09.409,retriever_ti,2020.1.3,MacIntel,60,Chrome,1440,900,1430.500345,3,left,1.03126,pullover,1,1430.534535,1430.534535,1433.03238,0,2,2,2,1,6,2,1,html/resources/stimuli_practice_decision/06_pullover.jpg,html/resources/stimuli_practice_decision/04_beetle.jpg,pullover,beetle,,,,,,,,,,,,,,,,,,,,,,,,,,,,,,,,,,,,,,,,,,,,,,,,,,,,,,,,,,,,,,,,,,,,,,,,,,,,,
,,,,,11,2020-07-01_09h33.09.409,retriever_ti,2020.1.3,MacIntel,60,Chrome,1440,900,1433.54945,4,right,1.080825,handmixer,0,1433.56786,1433.56786,1436.06587,0,3,3,3,1,7,1,1,html/resources/stimuli_practice_decision/05_glasses.jpg,html/resources/stimuli_practice_decision/08_handmixer.jpg,glasses,handmixer,,,,,,,,,,,,,,,,,,,,,,,,,,,,,,,,,,,,,,,,,,,,,,,,,,,,,,,,,,,,,,,,,,,,,,,,,,,,,
,,,,,11,2020-07-01_09h33.09.409,retriever_ti,2020.1.3,MacIntel,60,Chrome,1440,900,1436.58386,5,left,1.625285,glasses,1,1436.60174,1436.60174,1439.0991,0,4,4,4,1,7,6,1,html/resources/stimuli_practice_decision/05_glasses.jpg,html/resources/stimuli_practice_decision/06_pullover.jpg,glasses,pullover,,,,,,,,,,,,,,,,,,,,,,,,,,,,,,,,,,,,,,,,,,,,,,,,,,,,,,,,,,,,,,,,,,,,,,,,,,,,,
,,,,,11,2020-07-01_09h33.09.409,retriever_ti,2020.1.3,MacIntel,60,Chrome,1440,900,1440.10037,6,right,1.54021,glasses,1,1440.134725,1440.134725,1442.633445,0,5,5,5,1,4,7,1,html/resources/stimuli_practice_decision/01_rabbit.jpg,html/resources/stimuli_practice_decision/05_glasses.jpg,rabbit,glasses,,,,,,,,,,,,,,,,,,,,,,,,,,,,,,,,,,,,,,,,,,,,,,,,,,,,,,,,,,,,,,,,,,,,,,,,,,,,,
,,,,,11,2020-07-01_09h33.09.409,retriever_ti,2020.1.3,MacIntel,60,Chrome,1440,900,1443.151345,7,right,1.321035,beetle,1,1443.168375,1443.168375,1445.6662,0,6,6,6,1,1,2,1,html/resources/stimuli_practice_decision/08_handmixer.jpg,html/resources/stimuli_practice_decision/04_beetle.jpg,handmixer,beetle,,,,,,,,,,,,,,,,,,,,,,,,,,,,,,,,,,,,,,,,,,,,,,,,,,,,,,,,,,,,,,,,,,,,,,,,,,,,,
,,,,,11,2020-07-01_09h33.09.409,retriever_ti,2020.1.3,MacIntel,60,Chrome,1440,900,1446.667685,8,right,2.2928,sock,0,1446.68667,1446.68667,1449.18317,0,7,7,7,1,4,3,1,html/resources/stimuli_practice_decision/01_rabbit.jpg,html/resources/stimuli_practice_decision/07_sock.jpg,rabbit,sock,,,,,,,,,,,,,,,,,,,,,,,,,,,,,,,,,,,,,,,,,,,,,,,,,,,,,,,,,,,,,,,,,,,,,,,,,,,,,
,,,,,11,2020-07-01_09h33.09.409,retriever_ti,2020.1.3,MacIntel,60,Chrome,1440,900,,,,,,,,,,,,,,,,,,,,,,down,1,2.89542,1,0,0,0,3,1,html/resources/sequences_IDs/triangle.png,star ↑,square →,triangle ↓,← circle,down,,,,,,,,,,,,,,,,,,,,,,,,,,,,,,,,,,,,,,,,,,,,,,,,,,,,,,,,,,,,,,
,,,,,11,2020-07-01_09h33.09.409,retriever_ti,2020.1.3,MacIntel,60,Chrome,1440,900,,,,,,,,,,,,,,,,,,,,,,up,1,2.286755,1,0,1,1,0,1,html/resources/sequences_IDs/circle.png,circle ↑,square →,triangle ↓,← star ,up,,,,,,,,,,,,,,,,,,,,,,,,,,,,,,,,,,,,,,,,,,,,,,,,,,,,,,,,,,,,,,
,,,,,11,2020-07-01_09h33.09.409,retriever_ti,2020.1.3,MacIntel,60,Chrome,1440,900,,,,,,,,,,,,,,,,,,,,,,down,1,1.889015,1,0,2,2,1,1,html/resources/sequences_IDs/star.png,square ↑,circle →,star ↓,← triangle,down,,,,,,,,,,,,,,,,,,,,,,,,,,,,,,,,,,,,,,,,,,,,,,,,,,,,,,,,,,,,,,
,,,,,11,2020-07-01_09h33.09.409,retriever_ti,2020.1.3,MacIntel,60,Chrome,1440,900,,,,,,,,,,,,,,,,,,,,,,left,1,1.555785,1,0,3,3,2,1,html/resources/sequences_IDs/square1.png,star ↑,triangle →,circle ↓,← square,left,,,,,,,,,,,,,,,,,,,,,,,,,,,,,,,,,,,,,,,,,,,,,,,,,,,,,,,,,,,,,,
,,,,,11,2020-07-01_09h33.09.409,retriever_ti,2020.1.3,MacIntel,60,Chrome,1440,900,,,,,,,,,,,,,,,,,,,,,,,,,,,,,,,,,,,,,0,11.340925,0,0,0,0,1,,,,,,,,,,,,,,,,,,,,,,,,,,,,,,,,,,,,,,,,,,,,,,,,,,,,,,,
,,,,,11,2020-07-01_09h33.09.409,retriever_ti,2020.1.3,MacIntel,60,Chrome,1440,900,1473.53503,9,right,1.089535,glasses,1,1473.57104,1473.57104,1476.0681,0,0,0,0,1,6,7,1,html/resources/stimuli_practice_decision/06_pullover.jpg,html/resources/stimuli_practice_decision/05_glasses.jpg,pullover,glasses,,,,,,,,,,,,,,,,,,,,,,,,,,,,,,,,,,,,,,,,,,,,,,,,,,,,,,,,,,,,,,,,,,,,,,,,,,,,,
,,,,,11,2020-07-01_09h33.09.409,retriever_ti,2020.1.3,MacIntel,60,Chrome,1440,900,1477.070295,10,right,1.397555,beetle,0,1477.08723,1477.08723,1479.585005,0,1,1,1,1,6,2,1,html/resources/stimuli_practice_decision/06_pullover.jpg,html/resources/stimuli_practice_decision/04_beetle.jpg,pullover,beetle,,,,,,,,,,,,,,,,,,,,,,,,,,,,,,,,,,,,,,,,,,,,,,,,,,,,,,,,,,,,,,,,,,,,,,,,,,,,,
,,,,,11,2020-07-01_09h33.09.409,retriever_ti,2020.1.3,MacIntel,60,Chrome,1440,900,1480.087115,11,right,2.076405,pullover,1,1480.12127,1480.12127,1482.61902,0,2,2,2,1,5,6,1,html/resources/stimuli_practice_decision/02_canary.jpg,html/resources/stimuli_practice_decision/06_pullover.jpg,canary,pullover,,,,,,,,,,,,,,,,,,,,,,,,,,,,,,,,,,,,,,,,,,,,,,,,,,,,,,,,,,,,,,,,,,,,,,,,,,,,,
,,,,,11,2020-07-01_09h33.09.409,retriever_ti,2020.1.3,MacIntel,60,Chrome,1440,900,1483.620795,12,right,2.118025,glasses,0,1483.637745,1483.637745,1486.136295,0,3,3,3,1,8,7,1,html/resources/stimuli_practice_decision/03_squirrel.jpg,html/resources/stimuli_practice_decision/05_glasses.jpg,squirrel,glasses,,,,,,,,,,,,,,,,,,,,,,,,,,,,,,,,,,,,,,,,,,,,,,,,,,,,,,,,,,,,,,,,,,,,,,,,,,,,,
,,,,,11,2020-07-01_09h33.09.409,retriever_ti,2020.1.3,MacIntel,60,Chrome,1440,900,1487.13673,13,left,1.245585,canary,1,1487.154185,1487.154185,1489.65259,0,4,4,4,1,5,3,1,html/resources/stimuli_practice_decision/02_canary.jpg,html/resources/stimuli_practice_decision/07_sock.jpg,canary,sock,,,,,,,,,,,,,,,,,,,,,,,,,,,,,,,,,,,,,,,,,,,,,,,,,,,,,,,,,,,,,,,,,,,,,,,,,,,,,
,,,,,11,2020-07-01_09h33.09.409,retriever_ti,2020.1.3,MacIntel,60,Chrome,1440,900,1490.155375,14,right,1.20949,squirrel,1,1490.171915,1490.171915,1492.67074,0,5,5,5,1,7,8,1,html/resources/stimuli_practice_decision/05_glasses.jpg,html/resources/stimuli_practice_decision/03_squirrel.jpg,glasses,squirrel,,,,,,,,,,,,,,,,,,,,,,,,,,,,,,,,,,,,,,,,,,,,,,,,,,,,,,,,,,,,,,,,,,,,,,,,,,,,,
,,,,,11,2020-07-01_09h33.09.409,retriever_ti,2020.1.3,MacIntel,60,Chrome,1440,900,1493.670665,15,right,1.902545,rabbit,0,1493.689035,1493.689035,1496.186275,0,6,6,6,1,5,4,1,html/resources/stimuli_practice_decision/02_canary.jpg,html/resources/stimuli_practice_decision/01_rabbit.jpg,canary,rabbit,,,,,,,,,,,,,,,,,,,,,,,,,,,,,,,,,,,,,,,,,,,,,,,,,,,,,,,,,,,,,,,,,,,,,,,,,,,,,
,,,,,11,2020-07-01_09h33.09.409,retriever_ti,2020.1.3,MacIntel,60,Chrome,1440,900,1497.18824,16,right,0.9557,sock,0,1497.205285,1497.205285,1499.703025,0,7,7,7,1,5,3,1,html/resources/stimuli_practice_decision/02_canary.jpg,html/resources/stimuli_practice_decision/07_sock.jpg,canary,sock,,,,,,,,,,,,,,,,,,,,,,,,,,,,,,,,,,,,,,,,,,,,,,,,,,,,,,,,,,,,,,,,,,,,,,,,,,,,,
,,,,,11,2020-07-01_09h33.09.409,retriever_ti,2020.1.3,MacIntel,60,Chrome,1440,900,,,,,,,,,,,,,,,,,,,,,,down,1,1.87854,1,0,0,0,3,1,html/resources/sequences_IDs/triangle.png,star ↑,square →,triangle ↓,← circle,down,,,,,,,,,,,,,,,,,,,,,,,,,,,,,,,,,,,,,,,,,,,,,,,,,,,,,,,,,,,,,,
,,,,,11,2020-07-01_09h33.09.409,retriever_ti,2020.1.3,MacIntel,60,Chrome,1440,900,,,,,,,,,,,,,,,,,,,,,,left,1,1.10264,1,0,1,1,2,1,html/resources/sequences_IDs/square1.png,star ↑,triangle →,circle ↓,← square,left,,,,,,,,,,,,,,,,,,,,,,,,,,,,,,,,,,,,,,,,,,,,,,,,,,,,,,,,,,,,,,
,,,,,11,2020-07-01_09h33.09.409,retriever_ti,2020.1.3,MacIntel,60,Chrome,1440,900,,,,,,,,,,,,,,,,,,,,,,down,1,1.298255,1,0,2,2,1,1,html/resources/sequences_IDs/star.png,square ↑,circle →,star ↓,← triangle,down,,,,,,,,,,,,,,,,,,,,,,,,,,,,,,,,,,,,,,,,,,,,,,,,,,,,,,,,,,,,,,
,,,,,11,2020-07-01_09h33.09.409,retriever_ti,2020.1.3,MacIntel,60,Chrome,1440,900,,,,,,,,,,,,,,,,,,,,,,up,1,1.166605,1,0,3,3,0,1,html/resources/sequences_IDs/circle.png,circle ↑,square →,triangle ↓,← star ,up,,,,,,,,,,,,,,,,,,,,,,,,,,,,,,,,,,,,,,,,,,,,,,,,,,,,,,,,,,,,,,
,,,,,11,2020-07-01_09h33.09.409,retriever_ti,2020.1.3,MacIntel,60,Chrome,1440,900,,,,,,,,,,,,,,,,,,,,,,,,,,,,,,,,,,,,,0,1.6826,1,0,1,0,1,,,,,,,,,,,,,,,,,,,,,,,,,,,,,,,,,,,,,,,,,,,,,,,,,,,,,,,
,,,,,11,2020-07-01_09h33.09.409,retriever_ti,2020.1.3,MacIntel,60,Chrome,1440,900,,,,,,,,,,,,,,,,,1,,,,,,,,,,,,,,,,,,,,,,,,,,,1515.146485,1,right,0.86707,holdfast    ,4,4,2,1,3,1515.157355,1515.157355,1517.65564,0,0,0,0,1,1,2,4,phone       ,holdfast    ,html/resources/sequences_IDs/B/09_phone.jpg,html/resources/sequences_IDs/B/04_holdfast.jpg,9,4,4,2,2,1,7,3,0,11,,,,,,,,,,,,,,,,,,,,
,,,,,11,2020-07-01_09h33.09.409,retriever_ti,2020.1.3,MacIntel,60,Chrome,1440,900,,,,,,,,,,,,,,,,,1,,,,,,,,,,,,,,,,,,,,,,,,,,,1518.274305,2,left,0.861195,satellite_dish,1,10,-7,0,3,1518.290335,1518.290335,1520.789275,0,1,1,1,1,2,1,8,satellite_dish,dolphin     ,html/resources/sequences_IDs/A/10_satellite_dish.jpg,html/resources/sequences_IDs/B/02_dolphin.jpg,10,2,4,2,1,1,8,1,0,11,,,,,,,,,,,,,,,,,,,,
,,,,,11,2020-07-01_09h33.09.409,retriever_ti,2020.1.3,MacIntel,60,Chrome,1440,900,,,,,,,,,,,,,,,,,1,,,,,,,,,,,,,,,,,,,,,,,,,,,1521.40618,3,left,0.903005,holdfast    ,4,4,-1,0,0,1521.44034,1521.44034,1523.938405,0,2,2,2,1,3,4,5,holdfast    ,hat           ,html/resources/sequences_IDs/B/04_holdfast.jpg,html/resources/sequences_IDs/A/08_hat.jpg,4,8,2,1,3,2,3,6,0,11,,,,,,,,,,,,,,,,,,,,
,,,,,11,2020-07-01_09h33.09.409,retriever_ti,2020.1.3,MacIntel,60,Chrome,1440,900,,,,,,,,,,,,,,,,,1,,,,,,,,,,,,,,,,,,,,,,,,,,,1525.040475,4,right,0.840425,phone       ,2,9,-2,0,3,1525.074045,1525.074045,1527.571695,0,3,3,3,1,4,4,2,holdfast    ,phone       ,html/resources/sequences_IDs/B/04_holdfast.jpg,html/resources/sequences_IDs/B/09_phone.jpg,4,9,2,1,4,2,3,7,0,11,,,,,,,,,,,,,,,,,,,,
,,,,,11,2020-07-01_09h33.09.409,retriever_ti,2020.1.3,MacIntel,60,Chrome,1440,900,,,,,,,,,,,,,,,,,1,,,,,,,,,,,,,,,,,,,,,,,,,,,1528.172465,5,right,0.93982,phone       ,2,9,1,1,1,1528.191385,1528.191385,1530.6886,0,4,4,4,1,5,1,2,satellite_dish,phone       ,html/resources/sequences_IDs/A/10_satellite_dish.jpg,html/resources/sequences_IDs/B/09_phone.jpg,10,9,4,2,4,2,8,7,0,11,,,,,,,,,,,,,,,,,,,,
,,,,,11,2020-07-01_09h33.09.409,retriever_ti,2020.1.3,MacIntel,60,Chrome,1440,900,,,,,,,,,,,,,,,,,1,,,,,,,,,,,,,,,,,,,,,,,,,,,1531.79079,6,right,1.46771,peacock       ,3,5,1,1,1,1531.824895,1531.824895,1534.32682,0,5,5,5,1,6,2,3,phone       ,peacock       ,html/resources/sequences_IDs/B/09_phone.jpg,html/resources/sequences_IDs/A/05_peacock.jpg,9,5,4,2,2,1,7,4,0,11,,,,,,,,,,,,,,,,,,,,
,,,,,11,2020-07-01_09h33.09.409,retriever_ti,2020.1.3,MacIntel,60,Chrome,1440,900,,,,,,,,,,,,,,,,,1,,,,,,,,,,,,,,,,,,,,,,,,,,,1535.42294,7,left,1.811435,holdfast    ,4,4,-3,0,3,1535.458255,1535.458255,1537.955705,0,6,6,6,1,7,4,7,holdfast    ,camel         ,html/resources/sequences_IDs/B/04_holdfast.jpg,html/resources/sequences_IDs/A/03_camel.jpg,4,3,2,1,1,1,3,2,0,11,,,,,,,,,,,,,,,,,,,,
,,,,,11,2020-07-01_09h33.09.409,retriever_ti,2020.1.3,MacIntel,60,Chrome,1440,900,,,,,,,,,,,,,,,,,1,,,,,,,,,,,,,,,,,,,,,,,,,,,1538.55701,8,right,0.93021,dolphin     ,8,2,4,1,3,1538.591785,1538.591785,1541.090665,0,7,7,7,1,8,4,8,holdfast    ,dolphin     ,html/resources/sequences_IDs/B/04_holdfast.jpg,html/resources/sequences_IDs/B/02_dolphin.jpg,4,2,2,1,1,1,3,1,0,11,,,,,,,,,,,,,,,,,,,,
,,,,,11,2020-07-01_09h33.09.409,retriever_ti,2020.1.3,MacIntel,60,Chrome,1440,900,,,,,,,,,,,,,,,,,1,,,,,,,,,,,,,,,,,,,,,,,,,,,1541.70678,9,left,0.97776,holdfast    ,4,4,-2,0,3,1541.725725,1541.725725,1544.223335,0,8,8,8,1,9,4,6,holdfast    ,sport_tshirt,html/resources/sequences_IDs/B/04_holdfast.jpg,html/resources/sequences_IDs/B/07_sport_tshirt.jpg,4,7,2,1,3,2,3,5,0,11,,,,,,,,,,,,,,,,,,,,
,,,,,11,2020-07-01_09h33.09.409,retriever_ti,2020.1.3,MacIntel,60,Chrome,1440,900,,,,,,,,,,,,,,,,,1,,,,,,,,,,,,,,,,,,,,,,,,,,,1544.841125,10,right,1.4503,phone       ,2,9,-1,0,1,1544.8581,1544.8581,1547.356345,0,9,9,9,1,10,3,2,peacock       ,phone       ,html/resources/sequences_IDs/A/05_peacock.jpg,html/resources/sequences_IDs/B/09_phone.jpg,5,9,2,1,4,2,4,7,1,11,,,,,,,,,,,,,,,,,,,,
,,,,,11,2020-07-01_09h33.09.409,retriever_ti,2020.1.3,MacIntel,60,Chrome,1440,900,,,,,,,,,,,,,,,,,1,,,,,,,,,,,,,,,,,,,,,,,,,,,1548.457515,11,right,1.194095,peacock       ,3,5,-1,0,0,1548.49181,1548.49181,1550.98994,0,10,10,10,1,11,4,3,holdfast    ,peacock       ,html/resources/sequences_IDs/B/04_holdfast.jpg,html/resources/sequences_IDs/A/05_peacock.jpg,4,5,2,1,2,1,3,4,0,11,,,,,,,,,,,,,,,,,,,,
,,,,,11,2020-07-01_09h33.09.409,retriever_ti,2020.1.3,MacIntel,60,Chrome,1440,900,,,,,,,,,,,,,,,,,1,,,,,,,,,,,,,,,,,,,,,,,,,,,1552.0915,12,right,0.967675,satellite_dish,1,10,-1,0,0,1552.10929,1552.10929,1554.60792,0,11,11,11,1,12,2,1,phone       ,satellite_dish,html/resources/sequences_IDs/B/09_phone.jpg,html/resources/sequences_IDs/A/10_satellite_dish.jpg,9,10,4,2,4,2,7,8,0,11,,,,,,,,,,,,,,,,,,,,
,,,,,11,2020-07-01_09h33.09.409,retriever_ti,2020.1.3,MacIntel,60,Chrome,1440,900,,,,,,,,,,,,,,,,,1,,,,,,,,,,,,,,,,,,,,,,,,,,,1555.708305,13,right,1.025745,holdfast    ,4,4,-1,0,0,1555.74313,1555.74313,1558.240315,0,12,12,12,1,13,5,4,hat           ,holdfast    ,html/resources/sequences_IDs/A/08_hat.jpg,html/resources/sequences_IDs/B/04_holdfast.jpg,8,4,3,2,2,1,6,3,0,11,,,,,,,,,,,,,,,,,,,,
,,,,,11,2020-07-01_09h33.09.409,retriever_ti,2020.1.3,MacIntel,60,Chrome,1440,900,,,,,,,,,,,,,,,,,1,,,,,,,,,,,,,,,,,,,,,,,,,,,1559.342155,14,left,0.586085,hat           ,5,8,1,1,1,1559.376855,1559.376855,1561.878675,0,13,13,13,1,14,5,4,hat           ,holdfast    ,html/resources/sequences_IDs/A/08_hat.jpg,html/resources/sequences_IDs/B/04_holdfast.jpg,8,4,3,2,2,1,6,3,0,11,,,,,,,,,,,,,,,,,,,,
,,,,,11,2020-07-01_09h33.09.409,retriever_ti,2020.1.3,MacIntel,60,Chrome,1440,900,,,,,,,,,,,,,,,,,1,,,,,,,,,,,,,,,,,,,,,,,,,,,1562.974825,15,left,1.31183,peacock       ,3,5,-2,0,3,1562.99363,1562.99363,1565.490925,0,14,14,14,1,15,3,5,peacock       ,hat           ,html/resources/sequences_IDs/A/05_peacock.jpg,html/resources/sequences_IDs/A/08_hat.jpg,5,8,2,1,3,2,4,6,0,11,,,,,,,,,,,,,,,,,,,,
,,,,,11,2020-07-01_09h33.09.409,retriever_ti,2020.1.3,MacIntel,60,Chrome,1440,900,,,,,,,,,,,,,,,,,1,,,,,,,,,,,,,,,,,,,,,,,,,,,1566.092555,16,right,1.21155,satellite_dish,1,10,-5,0,3,1566.10998,1566.10998,1568.60859,0,15,15,15,1,16,6,1,sport_tshirt,satellite_dish,html/resources/sequences_IDs/B/07_sport_tshirt.jpg,html/resources/sequences_IDs/A/10_satellite_dish.jpg,7,10,3,2,4,2,5,8,0,11,,,,,,,,,,,,,,,,,,,,
,,,,,11,2020-07-01_09h33.09.409,retriever_ti,2020.1.3,MacIntel,60,Chrome,1440,900,,,,,,,,,,,,,,,,,1,,,,,,,,,,,,,,,,,,,,,,,,,,,1569.22531,17,left,0.823245,camel         ,7,3,1,1,1,1569.261,1569.261,1571.75853,0,16,16,16,1,17,7,6,camel         ,sport_tshirt,html/resources/sequences_IDs/A/03_camel.jpg,html/resources/sequences_IDs/B/07_sport_tshirt.jpg,3,7,1,1,3,2,2,5,0,11,,,,,,,,,,,,,,,,,,,,
,,,,,11,2020-07-01_09h33.09.409,retriever_ti,2020.1.3,MacIntel,60,Chrome,1440,900,,,,,,,,,,,,,,,,,1,,,,,,,,,,,,,,,,,,,,,,,,,,,1572.849475,18,left,1.074335,peacock       ,3,5,2,1,3,1572.876685,1572.876685,1575.37673,0,17,17,17,1,18,3,1,peacock       ,satellite_dish,html/resources/sequences_IDs/A/05_peacock.jpg,html/resources/sequences_IDs/A/10_satellite_dish.jpg,5,10,2,1,4,2,4,8,0,11,,,,,,,,,,,,,,,,,,,,
,,,,,11,2020-07-01_09h33.09.409,retriever_ti,2020.1.3,MacIntel,60,Chrome,1440,900,,,,,,,,,,,,,,,,,1,,,,,,,,,,,,,,,,,,,,,,,,,,,1575.992425,19,right,0.790635,phone       ,2,9,-1,0,0,1576.010965,1576.010965,1578.50859,0,18,18,18,1,19,3,2,peacock       ,phone       ,html/resources/sequences_IDs/A/05_peacock.jpg,html/resources/sequences_IDs/B/09_phone.jpg,5,9,2,1,4,2,4,7,0,11,,,,,,,,,,,,,,,,,,,,
,,,,,11,2020-07-01_09h33.09.409,retriever_ti,2020.1.3,MacIntel,60,Chrome,1440,900,,,,,,,,,,,,,,,,,1,,,,,,,,,,,,,,,,,,,,,,,,,,,1579.610245,20,right,0.95123,sport_tshirt,6,7,5,1,3,1579.64425,1579.64425,1582.17665,0,19,19,19,1,20,1,6,satellite_dish,sport_tshirt,html/resources/sequences_IDs/A/10_satellite_dish.jpg,html/resources/sequences_IDs/B/07_sport_tshirt.jpg,10,7,4,2,3,2,8,5,0,11,,,,,,,,,,,,,,,,,,,,
,,,,,11,2020-07-01_09h33.09.409,retriever_ti,2020.1.3,MacIntel,60,Chrome,1440,900,,,,,,,,,,,,,,,,,1,,,,,,,,,,,,,,,,,,,,,,,,,,,1582.777685,21,right,0.91821,hat           ,5,8,-2,0,3,1582.81205,1582.81205,1585.31023,0,20,20,20,1,21,7,5,camel         ,hat           ,html/resources/sequences_IDs/A/03_camel.jpg,html/resources/sequences_IDs/A/08_hat.jpg,3,8,1,1,3,2,2,6,0,11,,,,,,,,,,,,,,,,,,,,
,,,,,11,2020-07-01_09h33.09.409,retriever_ti,2020.1.3,MacIntel,60,Chrome,1440,900,,,,,,,,,,,,,,,,,1,,,,,,,,,,,,,,,,,,,,,,,,,,,1585.92723,22,left,1.072185,satellite_dish,1,10,-4,0,3,1585.94472,1585.94472,1588.44364,0,21,21,21,1,22,1,5,satellite_dish,hat           ,html/resources/sequences_IDs/A/10_satellite_dish.jpg,html/resources/sequences_IDs/A/08_hat.jpg,10,8,4,2,3,2,8,6,0,11,,,,,,,,,,,,,,,,,,,,
,,,,,11,2020-07-01_09h33.09.409,retriever_ti,2020.1.3,MacIntel,60,Chrome,1440,900,,,,,,,,,,,,,,,,,1,,,,,,,,,,,,,,,,,,,,,,,,,,,1589.061605,23,left,0.859935,phone       ,2,9,-5,0,3,1589.09514,1589.09514,1591.594265,0,22,22,22,1,23,2,7,phone       ,camel         ,html/resources/sequences_IDs/B/09_phone.jpg,html/resources/sequences_IDs/A/03_camel.jpg,9,3,4,2,1,1,7,2,0,11,,,,,,,,,,,,,,,,,,,,
,,,,,11,2020-07-01_09h33.09.409,retriever_ti,2020.1.3,MacIntel,60,Chrome,1440,900,,,,,,,,,,,,,,,,,1,,,,,,,,,,,,,,,,,,,,,,,,,,,1592.211015,24,right,0.687835,dolphin     ,8,2,2,1,3,1592.24562,1592.24562,1594.74314,0,23,23,23,1,24,6,8,sport_tshirt,dolphin     ,html/resources/sequences_IDs/B/07_sport_tshirt.jpg,html/resources/sequences_IDs/B/02_dolphin.jpg,7,2,3,2,1,1,5,1,0,11,,,,,,,,,,,,,,,,,,,,
,,,,,11,2020-07-01_09h33.09.409,retriever_ti,2020.1.3,MacIntel,60,Chrome,1440,900,,,,,,,,,,,,,,,,,1,,,,,,,,,,,,,,,,,,,,,,,,,,,1595.360425,25,right,0.783245,dolphin     ,8,2,1,1,1,1595.37947,1595.37947,1597.877,0,24,24,24,1,25,7,8,camel         ,dolphin     ,html/resources/sequences_IDs/A/03_camel.jpg,html/resources/sequences_IDs/B/02_dolphin.jpg,3,2,1,1,1,1,2,1,0,11,,,,,,,,,,,,,,,,,,,,
,,,,,11,2020-07-01_09h33.09.409,retriever_ti,2020.1.3,MacIntel,60,Chrome,1440,900,,,,,,,,,,,,,,,,,1,,,,,,,,,,,,,,,,,,,,,,,,,,,1598.978745,26,left,1.88137,dolphin     ,8,2,7,1,3,1599.012475,1599.012475,1601.510495,0,25,25,25,1,26,8,1,dolphin     ,satellite_dish,html/resources/sequences_IDs/B/02_dolphin.jpg,html/resources/sequences_IDs/A/10_satellite_dish.jpg,2,10,1,1,4,2,1,8,0,11,,,,,,,,,,,,,,,,,,,,
,,,,,11,2020-07-01_09h33.09.409,retriever_ti,2020.1.3,MacIntel,60,Chrome,1440,900,,,,,,,,,,,,,,,,,1,,,,,,,,,,,,,,,,,,,,,,,,,,,1602.1276,27,left,1.253465,hat           ,5,8,-1,0,0,1602.162855,1602.162855,1604.66081,0,26,26,26,1,27,5,6,hat           ,sport_tshirt,html/resources/sequences_IDs/A/08_hat.jpg,html/resources/sequences_IDs/B/07_sport_tshirt.jpg,8,7,3,2,3,2,6,5,0,11,,,,,,,,,,,,,,,,,,,,
,,,,,11,2020-07-01_09h33.09.409,retriever_ti,2020.1.3,MacIntel,60,Chrome,1440,900,,,,,,,,,,,,,,,,,1,,,,,,,,,,,,,,,,,,,,,,,,,,,1605.76289,28,right,1.302655,peacock       ,3,5,-1,0,1,1605.779955,1605.779955,1608.277235,0,27,27,27,1,28,4,3,holdfast    ,peacock       ,html/resources/sequences_IDs/B/04_holdfast.jpg,html/resources/sequences_IDs/A/05_peacock.jpg,4,5,2,1,2,1,3,4,1,11,,,,,,,,,,,,,,,,,,,,
,,,,,11,2020-07-01_09h33.09.409,retriever_ti,2020.1.3,MacIntel,60,Chrome,1440,900,,,,,,,,,,,,,,,,,1,,,,,,,,,,,,,,,,,,,,,,,,,,,1609.37926,29,left,1.503425,sport_tshirt,6,7,3,1,3,1609.39489,1609.39489,1611.894125,0,28,28,28,1,29,6,3,sport_tshirt,peacock       ,html/resources/sequences_IDs/B/07_sport_tshirt.jpg,html/resources/sequences_IDs/A/05_peacock.jpg,7,5,3,2,2,1,5,4,0,11,,,,,,,,,,,,,,,,,,,,
,,,,,11,2020-07-01_09h33.09.409,retriever_ti,2020.1.3,MacIntel,60,Chrome,1440,900,,,,,,,,,,,,,,,,,1,,,,,,,,,,,,,,,,,,,,,,,,,,,1612.49688,30,right,1.51223,phone       ,2,9,-6,0,3,1612.53065,1612.53065,1615.027655,0,29,29,29,1,30,8,2,dolphin     ,phone       ,html/resources/sequences_IDs/B/02_dolphin.jpg,html/resources/sequences_IDs/B/09_phone.jpg,2,9,1,1,4,2,1,7,0,11,,,,,,,,,,,,,,,,,,,,
,,,,,11,2020-07-01_09h33.09.409,retriever_ti,2020.1.3,MacIntel,60,Chrome,1440,900,,,,,,,,,,,,,,,,,1,,,,,,,,,,,,,,,,,,,,,,,,,,,1615.628745,31,right,0.937555,peacock       ,3,5,1,1,1,1615.66371,1615.66371,1618.1612,0,30,30,30,1,31,2,3,phone       ,peacock       ,html/resources/sequences_IDs/B/09_phone.jpg,html/resources/sequences_IDs/A/05_peacock.jpg,9,5,4,2,2,1,7,4,0,11,,,,,,,,,,,,,,,,,,,,
,,,,,11,2020-07-01_09h33.09.409,retriever_ti,2020.1.3,MacIntel,60,Chrome,1440,900,,,,,,,,,,,,,,,,,1,,,,,,,,,,,,,,,,,,,,,,,,,,,1619.263515,32,right,1.97939,camel         ,7,3,-1,0,0,1619.2971,1619.2971,1621.79478,0,31,31,31,1,32,8,7,dolphin     ,camel         ,html/resources/sequences_IDs/B/02_dolphin.jpg,html/resources/sequences_IDs/A/03_camel.jpg,2,3,1,1,1,1,1,2,0,11,,,,,,,,,,,,,,,,,,,,
,,,,,11,2020-07-01_09h33.09.409,retriever_ti,2020.1.3,MacIntel,60,Chrome,1440,900,,,,,,,,,,,,,,,,,1,,,,,,,,,,,,,,,,,,,,,,,,,,,1622.896405,33,left,1.073545,holdfast    ,4,4,3,1,3,1622.91326,1622.91326,1625.411705,0,32,32,32,1,33,4,1,holdfast    ,satellite_dish,html/resources/sequences_IDs/B/04_holdfast.jpg,html/resources/sequences_IDs/A/10_satellite_dish.jpg,4,10,2,1,4,2,3,8,0,11,,,,,,,,,,,,,,,,,,,,
,,,,,11,2020-07-01_09h33.09.409,retriever_ti,2020.1.3,MacIntel,60,Chrome,1440,900,,,,,,,,,,,,,,,,,1,,,,,,,,,,,,,,,,,,,,,,,,,,,1626.01339,34,right,0.65536,camel         ,7,3,6,1,3,1626.030395,1626.030395,1628.529105,0,33,33,33,1,34,1,7,satellite_dish,camel         ,html/resources/sequences_IDs/A/10_satellite_dish.jpg,html/resources/sequences_IDs/A/03_camel.jpg,10,3,4,2,1,1,8,2,0,11,,,,,,,,,,,,,,,,,,,,
,,,,,11,2020-07-01_09h33.09.409,retriever_ti,2020.1.3,MacIntel,60,Chrome,1440,900,,,,,,,,,,,,,,,,,1,,,,,,,,,,,,,,,,,,,,,,,,,,,1629.12997,35,left,0.675815,hat           ,5,8,-2,0,3,1629.14705,1629.14705,1631.647105,0,34,34,34,1,35,5,7,hat           ,camel         ,html/resources/sequences_IDs/A/08_hat.jpg,html/resources/sequences_IDs/A/03_camel.jpg,8,3,3,2,1,1,6,2,0,11,,,,,,,,,,,,,,,,,,,,
,,,,,11,2020-07-01_09h33.09.409,retriever_ti,2020.1.3,MacIntel,60,Chrome,1440,900,,,,,,,,,,,,,,,,,1,,,,,,,,,,,,,,,,,,,,,,,,,,,1632.263795,36,left,0.823025,sport_tshirt,6,7,-1,0,0,1632.29735,1632.29735,1634.795345,0,35,35,35,1,36,6,7,sport_tshirt,camel         ,html/resources/sequences_IDs/B/07_sport_tshirt.jpg,html/resources/sequences_IDs/A/03_camel.jpg,7,3,3,2,1,1,5,2,0,11,,,,,,,,,,,,,,,,,,,,
,,,,,11,2020-07-01_09h33.09.409,retriever_ti,2020.1.3,MacIntel,60,Chrome,1440,900,,,,,,,,,,,,,,,,,1,,,,,,,,,,,,,,,,,,,,,,,,,,,1635.896735,37,left,0.996125,phone       ,2,9,-6,0,3,1635.93239,1635.93239,1638.429895,0,36,36,36,1,37,2,8,phone       ,dolphin     ,html/resources/sequences_IDs/B/09_phone.jpg,html/resources/sequences_IDs/B/02_dolphin.jpg,9,2,4,2,1,1,7,1,0,11,,,,,,,,,,,,,,,,,,,,
,,,,,11,2020-07-01_09h33.09.409,retriever_ti,2020.1.3,MacIntel,60,Chrome,1440,900,,,,,,,,,,,,,,,,,1,,,,,,,,,,,,,,,,,,,,,,,,,,,1639.047615,38,right,0.640415,sport_tshirt,6,7,-2,0,3,1639.082455,1639.082455,1641.58056,0,37,37,37,1,38,8,6,dolphin     ,sport_tshirt,html/resources/sequences_IDs/B/02_dolphin.jpg,html/resources/sequences_IDs/B/07_sport_tshirt.jpg,2,7,1,1,3,2,1,5,0,11,,,,,,,,,,,,,,,,,,,,
,,,,,11,2020-07-01_09h33.09.409,retriever_ti,2020.1.3,MacIntel,60,Chrome,1440,900,,,,,,,,,,,,,,,,,1,,,,,,,,,,,,,,,,,,,,,,,,,,,1642.197265,39,right,1.086055,peacock       ,3,5,-1,0,0,1642.23252,1642.23252,1644.731115,0,38,38,38,1,39,4,3,holdfast    ,peacock       ,html/resources/sequences_IDs/B/04_holdfast.jpg,html/resources/sequences_IDs/A/05_peacock.jpg,4,5,2,1,2,1,3,4,0,11,,,,,,,,,,,,,,,,,,,,
,,,,,11,2020-07-01_09h33.09.409,retriever_ti,2020.1.3,MacIntel,60,Chrome,1440,900,,,,,,,,,,,,,,,,,1,,,,,,,,,,,,,,,,,,,,,,,,,,,1645.83193,40,right,1.01112,holdfast    ,4,4,1,1,1,1645.86573,1645.86573,1648.364815,0,39,39,39,1,40,3,4,peacock       ,holdfast    ,html/resources/sequences_IDs/A/05_peacock.jpg,html/resources/sequences_IDs/B/04_holdfast.jpg,5,4,2,1,2,1,4,3,0,11,,,,,,,,,,,,,,,,,,,,
,,,,,11,2020-07-01_09h33.09.409,retriever_ti,2020.1.3,MacIntel,60,Chrome,1440,900,,,,,,,,,,,,,,,,,1,,,,,,,,,,,,,,,,,,,,,,,,,,,1649.464395,41,left,1.188625,sport_tshirt,6,7,1,1,0,1649.4826,1649.4826,1651.981715,0,40,40,40,1,41,6,5,sport_tshirt,hat           ,html/resources/sequences_IDs/B/07_sport_tshirt.jpg,html/resources/sequences_IDs/A/08_hat.jpg,7,8,3,2,3,2,5,6,1,11,,,,,,,,,,,,,,,,,,,,
,,,,,11,2020-07-01_09h33.09.409,retriever_ti,2020.1.3,MacIntel,60,Chrome,1440,900,,,,,,,,,,,,,,,,,1,,,,,,,,,,,,,,,,,,,,,,,,,,,1653.08251,42,right,1.34567,peacock       ,3,5,-2,0,3,1653.09953,1653.09953,1655.59855,0,41,41,41,1,42,5,3,hat           ,peacock       ,html/resources/sequences_IDs/A/08_hat.jpg,html/resources/sequences_IDs/A/05_peacock.jpg,8,5,3,2,2,1,6,4,0,11,,,,,,,,,,,,,,,,,,,,
,,,,,11,2020-07-01_09h33.09.409,retriever_ti,2020.1.3,MacIntel,60,Chrome,1440,900,,,,,,,,,,,,,,,,,1,,,,,,,,,,,,,,,,,,,,,,,,,,,1656.21528,43,left,0.99249,dolphin     ,8,2,3,1,3,1656.232955,1656.232955,1658.730665,0,42,42,42,1,43,8,5,dolphin     ,hat           ,html/resources/sequences_IDs/B/02_dolphin.jpg,html/resources/sequences_IDs/A/08_hat.jpg,2,8,1,1,3,2,1,6,0,11,,,,,,,,,,,,,,,,,,,,
,,,,,11,2020-07-01_09h33.09.409,retriever_ti,2020.1.3,MacIntel,60,Chrome,1440,900,,,,,,,,,,,,,,,,,1,,,,,,,,,,,,,,,,,,,,,,,,,,,1659.33263,44,right,1.85706,peacock       ,3,5,-5,0,3,1659.365765,1659.365765,1661.86422,0,43,43,43,1,44,8,3,dolphin     ,peacock       ,html/resources/sequences_IDs/B/02_dolphin.jpg,html/resources/sequences_IDs/A/05_peacock.jpg,2,5,1,1,2,1,1,4,0,11,,,,,,,,,,,,,,,,,,,,
,,,,,11,2020-07-01_09h33.09.409,retriever_ti,2020.1.3,MacIntel,60,Chrome,1440,900,,,,,,,,,,,,,,,,,1,,,,,,,,,,,,,,,,,,,,,,,,,,,1662.465925,45,left,0.79721,peacock       ,3,5,-5,0,3,1662.483095,1662.483095,1664.981175,0,44,44,44,1,45,3,8,peacock       ,dolphin     ,html/resources/sequences_IDs/A/05_peacock.jpg,html/resources/sequences_IDs/B/02_dolphin.jpg,5,2,2,1,1,1,4,1,0,11,,,,,,,,,,,,,,,,,,,,
,,,,,11,2020-07-01_09h33.09.409,retriever_ti,2020.1.3,MacIntel,60,Chrome,1440,900,,,,,,,,,,,,,,,,,1,,,,,,,,,,,,,,,,,,,,,,,,,,,1665.58281,46,left,0.86851,phone       ,2,9,1,1,1,1665.616955,1665.616955,1668.114655,0,45,45,45,1,46,2,1,phone       ,satellite_dish,html/resources/sequences_IDs/B/09_phone.jpg,html/resources/sequences_IDs/A/10_satellite_dish.jpg,9,10,4,2,4,2,7,8,0,11,,,,,,,,,,,,,,,,,,,,
,,,,,11,2020-07-01_09h33.09.409,retriever_ti,2020.1.3,MacIntel,60,Chrome,1440,900,,,,,,,,,,,,,,,,,1,,,,,,,,,,,,,,,,,,,,,,,,,,,1669.216115,47,right,1.66051,holdfast    ,4,4,-3,0,3,1669.25094,1669.25094,1671.749735,0,46,46,46,1,47,7,4,camel         ,holdfast    ,html/resources/sequences_IDs/A/03_camel.jpg,html/resources/sequences_IDs/B/04_holdfast.jpg,3,4,1,1,2,1,2,3,0,11,,,,,,,,,,,,,,,,,,,,
,,,,,11,2020-07-01_09h33.09.409,retriever_ti,2020.1.3,MacIntel,60,Chrome,1440,900,,,,,,,,,,,,,,,,,1,,,,,,,,,,,,,,,,,,,,,,,,,,,1672.366645,48,right,1.331625,peacock       ,3,5,2,1,3,1672.38494,1672.38494,1674.88309,0,47,47,47,1,48,1,3,satellite_dish,peacock       ,html/resources/sequences_IDs/A/10_satellite_dish.jpg,html/resources/sequences_IDs/A/05_peacock.jpg,10,5,4,2,2,1,8,4,0,11,,,,,,,,,,,,,,,,,,,,
,,,,,11,2020-07-01_09h33.09.409,retriever_ti,2020.1.3,MacIntel,60,Chrome,1440,900,,,,,,,,,,,,,,,,,1,,,,,,,,,,,,,,,,,,,,,,,,,,,1675.499215,49,left,0.75413,sport_tshirt,6,7,1,1,1,1675.5349,1675.5349,1678.032055,0,48,48,48,1,49,6,5,sport_tshirt,hat           ,html/resources/sequences_IDs/B/07_sport_tshirt.jpg,html/resources/sequences_IDs/A/08_hat.jpg,7,8,3,2,3,2,5,6,0,11,,,,,,,,,,,,,,,,,,,,
,,,,,11,2020-07-01_09h33.09.409,retriever_ti,2020.1.3,MacIntel,60,Chrome,1440,900,,,,,,,,,,,,,,,,,1,,,,,,,,,,,,,,,,,,,,,,,,,,,1679.133925,50,right,1.34314,phone       ,2,9,-1,0,0,1679.168,1679.168,1681.666995,0,49,49,49,1,50,3,2,peacock       ,phone       ,html/resources/sequences_IDs/A/05_peacock.jpg,html/resources/sequences_IDs/B/09_phone.jpg,5,9,2,1,4,2,4,7,0,11,,,,,,,,,,,,,,,,,,,,
,,,,,11,2020-07-01_09h33.09.409,retriever_ti,2020.1.3,MacIntel,60,Chrome,1440,900,,,,,,,,,,,,,,,,,1,,,,,,,,,,,,,,,,,,,,,,,,,,,1682.76638,51,right,2.106815,sport_tshirt,6,7,1,1,1,1682.78503,1682.78503,1685.282775,0,50,50,50,1,51,5,6,hat           ,sport_tshirt,html/resources/sequences_IDs/A/08_hat.jpg,html/resources/sequences_IDs/B/07_sport_tshirt.jpg,8,7,3,2,3,2,6,5,0,11,,,,,,,,,,,,,,,,,,,,
,,,,,11,2020-07-01_09h33.09.409,retriever_ti,2020.1.3,MacIntel,60,Chrome,1440,900,,,,,,,,,,,,,,,,,1,,,,,,,,,,,,,,,,,,,,,,,,,,,1686.384955,52,right,1.069565,satellite_dish,1,10,-6,0,3,1686.418965,1686.418965,1688.916225,0,51,51,51,1,52,7,1,camel         ,satellite_dish,html/resources/sequences_IDs/A/03_camel.jpg,html/resources/sequences_IDs/A/10_satellite_dish.jpg,3,10,1,1,4,2,2,8,0,11,,,,,,,,,,,,,,,,,,,,
,,,,,11,2020-07-01_09h33.09.409,retriever_ti,2020.1.3,MacIntel,60,Chrome,1440,900,,,,,,,,,,,,,,,,,1,,,,,,,,,,,,,,,,,,,,,,,,,,,1689.517565,53,NaN,NaN,No_response,NaN,NaN,NaN,2,2,1689.535785,1689.535785,1692.03451,0,52,52,52,1,53,8,4,dolphin     ,holdfast    ,html/resources/sequences_IDs/B/02_dolphin.jpg,html/resources/sequences_IDs/B/04_holdfast.jpg,2,4,1,1,2,1,1,3,0,11,,,,,,,,,,,,,,,,,,,,
,,,,,11,2020-07-01_09h33.09.409,retriever_ti,2020.1.3,MacIntel,60,Chrome,1440,900,,,,,,,,,,,,,,,,,1,,,,,,,,,,,,,,,,,,,,,,,,,,,1693.135335,54,right,0.83603,hat           ,5,8,-1,0,0,1693.168845,1693.168845,1695.66794,0,53,53,53,1,54,6,5,sport_tshirt,hat           ,html/resources/sequences_IDs/B/07_sport_tshirt.jpg,html/resources/sequences_IDs/A/08_hat.jpg,7,8,3,2,3,2,5,6,0,11,,,,,,,,,,,,,,,,,,,,
,,,,,11,2020-07-01_09h33.09.409,retriever_ti,2020.1.3,MacIntel,60,Chrome,1440,900,,,,,,,,,,,,,,,,,1,,,,,,,,,,,,,,,,,,,,,,,,,,,1696.76811,55,left,0.974685,peacock       ,3,5,-1,0,0,1696.802535,1696.802535,1699.30075,0,54,54,54,1,55,3,4,peacock       ,holdfast    ,html/resources/sequences_IDs/A/05_peacock.jpg,html/resources/sequences_IDs/B/04_holdfast.jpg,5,4,2,1,2,1,4,3,0,11,,,,,,,,,,,,,,,,,,,,
,,,,,11,2020-07-01_09h33.09.409,retriever_ti,2020.1.3,MacIntel,60,Chrome,1440,900,,,,,,,,,,,,,,,,,1,,,,,,,,,,,,,,,,,,,,,,,,,,,1700.4024,56,right,0.662305,phone       ,2,9,1,1,1,1700.41985,1700.41985,1702.91706,0,55,55,55,1,56,1,2,satellite_dish,phone       ,html/resources/sequences_IDs/A/10_satellite_dish.jpg,html/resources/sequences_IDs/B/09_phone.jpg,10,9,4,2,4,2,8,7,0,11,,,,,,,,,,,,,,,,,,,,
,,,,,11,2020-07-01_09h33.09.409,retriever_ti,2020.1.3,MacIntel,60,Chrome,1440,900,,,,,,,,,,,,,,,,,1,,,,,,,,,,,,,,,,,,,,,,,,,,,1704.01816,57,right,1.718415,hat           ,5,8,3,1,3,1704.03564,1704.03564,1706.534105,0,56,56,56,1,57,2,5,phone       ,hat           ,html/resources/sequences_IDs/B/09_phone.jpg,html/resources/sequences_IDs/A/08_hat.jpg,9,8,4,2,3,2,7,6,0,11,,,,,,,,,,,,,,,,,,,,
,,,,,11,2020-07-01_09h33.09.409,retriever_ti,2020.1.3,MacIntel,60,Chrome,1440,900,,,,,,,,,,,,,,,,,1,,,,,,,,,,,,,,,,,,,,,,,,,,,1707.135875,58,left,0.788455,hat           ,5,8,4,1,3,1707.153215,1707.153215,1709.65091,0,57,57,57,1,58,5,1,hat           ,satellite_dish,html/resources/sequences_IDs/A/08_hat.jpg,html/resources/sequences_IDs/A/10_satellite_dish.jpg,8,10,3,2,4,2,6,8,0,11,,,,,,,,,,,,,,,,,,,,
,,,,,11,2020-07-01_09h33.09.409,retriever_ti,2020.1.3,MacIntel,60,Chrome,1440,900,,,,,,,,,,,,,,,,,1,,,,,,,,,,,,,,,,,,,,,,,,,,,1710.251675,59,right,0.687825,phone       ,2,9,-3,0,3,1710.28667,1710.28667,1712.78581,0,58,58,58,1,59,5,2,hat           ,phone       ,html/resources/sequences_IDs/A/08_hat.jpg,html/resources/sequences_IDs/B/09_phone.jpg,8,9,3,2,4,2,6,7,0,11,,,,,,,,,,,,,,,,,,,,
,,,,,11,2020-07-01_09h33.09.409,retriever_ti,2020.1.3,MacIntel,60,Chrome,1440,900,,,,,,,,,,,,,,,,,1,,,,,,,,,,,,,,,,,,,,,,,,,,,1713.40342,60,left,0.82968,dolphin     ,8,2,1,1,0,1713.43737,1713.43737,1715.934665,0,59,59,59,1,60,8,7,dolphin     ,camel         ,html/resources/sequences_IDs/B/02_dolphin.jpg,html/resources/sequences_IDs/A/03_camel.jpg,2,3,1,1,1,1,1,2,1,11,,,,,,,,,,,,,,,,,,,,
,,,,,11,2020-07-01_09h33.09.409,retriever_ti,2020.1.3,MacIntel,60,Chrome,1440,900,,,,,,,,,,,,,,,,,1,,,,,,,,,,,,,,,,,,,,,,,,,,,1717.035435,61,right,0.619225,satellite_dish,1,10,-1,0,1,1717.07063,1717.07063,1719.5687,0,60,60,60,1,61,2,1,phone       ,satellite_dish,html/resources/sequences_IDs/B/09_phone.jpg,html/resources/sequences_IDs/A/10_satellite_dish.jpg,9,10,4,2,4,2,7,8,1,11,,,,,,,,,,,,,,,,,,,,
,,,,,11,2020-07-01_09h33.09.409,retriever_ti,2020.1.3,MacIntel,60,Chrome,1440,900,,,,,,,,,,,,,,,,,1,,,,,,,,,,,,,,,,,,,,,,,,,,,1720.67108,62,right,0.691875,sport_tshirt,6,7,4,1,3,1720.70466,1720.70466,1723.203105,0,61,61,61,1,62,2,6,phone       ,sport_tshirt,html/resources/sequences_IDs/B/09_phone.jpg,html/resources/sequences_IDs/B/07_sport_tshirt.jpg,9,7,4,2,3,2,7,5,0,11,,,,,,,,,,,,,,,,,,,,
,,,,,11,2020-07-01_09h33.09.409,retriever_ti,2020.1.3,MacIntel,60,Chrome,1440,900,,,,,,,,,,,,,,,,,1,,,,,,,,,,,,,,,,,,,,,,,,,,,1723.81931,63,left,0.56128,sport_tshirt,6,7,-1,0,0,1723.85436,1723.85436,1726.35328,0,62,62,62,1,63,6,7,sport_tshirt,camel         ,html/resources/sequences_IDs/B/07_sport_tshirt.jpg,html/resources/sequences_IDs/A/03_camel.jpg,7,3,3,2,1,1,5,2,0,11,,,,,,,,,,,,,,,,,,,,
,,,,,11,2020-07-01_09h33.09.409,retriever_ti,2020.1.3,MacIntel,60,Chrome,1440,900,,,,,,,,,,,,,,,,,1,,,,,,,,,,,,,,,,,,,,,,,,,,,1727.454005,64,right,0.572195,peacock       ,3,5,-4,0,3,1727.471435,1727.471435,1729.969005,0,63,63,63,1,64,7,3,camel         ,peacock       ,html/resources/sequences_IDs/A/03_camel.jpg,html/resources/sequences_IDs/A/05_peacock.jpg,3,5,1,1,2,1,2,4,0,11,,,,,,,,,,,,,,,,,,,,
,,,,,11,2020-07-01_09h33.09.409,retriever_ti,2020.1.3,MacIntel,60,Chrome,1440,900,,,,,,,,,,,,,,,,,1,,,,,,,,,,,,,,,,,,,,,,,,,,,1730.571015,65,right,0.65855,phone       ,2,9,-5,0,3,1730.588525,1730.588525,1733.0873,0,64,64,64,1,65,7,2,camel         ,phone       ,html/resources/sequences_IDs/A/03_camel.jpg,html/resources/sequences_IDs/B/09_phone.jpg,3,9,1,1,4,2,2,7,0,11,,,,,,,,,,,,,,,,,,,,
,,,,,11,2020-07-01_09h33.09.409,retriever_ti,2020.1.3,MacIntel,60,Chrome,1440,900,,,,,,,,,,,,,,,,,1,,,,,,,,,,,,,,,,,,,,,,,,,,,1733.704315,66,left,0.458235,holdfast    ,4,4,-1,0,0,1733.7217,1733.7217,1736.21949,0,65,65,65,1,66,4,5,holdfast    ,hat           ,html/resources/sequences_IDs/B/04_holdfast.jpg,html/resources/sequences_IDs/A/08_hat.jpg,4,8,2,1,3,2,3,6,0,11,,,,,,,,,,,,,,,,,,,,
,,,,,11,2020-07-01_09h33.09.409,retriever_ti,2020.1.3,MacIntel,60,Chrome,1440,900,,,,,,,,,,,,,,,,,1,,,,,,,,,,,,,,,,,,,,,,,,,,,1737.32177,67,left,0.80028,sport_tshirt,6,7,2,1,3,1737.338565,1737.338565,1739.83683,0,66,66,66,1,67,6,4,sport_tshirt,holdfast    ,html/resources/sequences_IDs/B/07_sport_tshirt.jpg,html/resources/sequences_IDs/B/04_holdfast.jpg,7,4,3,2,2,1,5,3,0,11,,,,,,,,,,,,,,,,,,,,
,,,,,11,2020-07-01_09h33.09.409,retriever_ti,2020.1.3,MacIntel,60,Chrome,1440,900,,,,,,,,,,,,,,,,,1,,,,,,,,,,,,,,,,,,,,,,,,,,,1740.454655,68,right,0.704905,holdfast    ,4,4,3,1,3,1740.488975,1740.488975,1742.987935,0,67,67,67,1,68,1,4,satellite_dish,holdfast    ,html/resources/sequences_IDs/A/10_satellite_dish.jpg,html/resources/sequences_IDs/B/04_holdfast.jpg,10,4,4,2,2,1,8,3,0,11,,,,,,,,,,,,,,,,,,,,
,,,,,11,2020-07-01_09h33.09.409,retriever_ti,2020.1.3,MacIntel,60,Chrome,1440,900,,,,,,,,,,,,,,,,,1,,,,,,,,,,,,,,,,,,,,,,,,,,,1743.605085,69,left,1.02457,dolphin     ,8,2,1,1,1,1743.63922,1743.63922,1746.138045,0,68,68,68,1,69,8,7,dolphin     ,camel         ,html/resources/sequences_IDs/B/02_dolphin.jpg,html/resources/sequences_IDs/A/03_camel.jpg,2,3,1,1,1,1,1,2,0,11,,,,,,,,,,,,,,,,,,,,
,,,,,11,2020-07-01_09h33.09.409,retriever_ti,2020.1.3,MacIntel,60,Chrome,1440,900,,,,,,,,,,,,,,,,,1,,,,,,,,,,,,,,,,,,,,,,,,,,,1747.23846,70,right,1.00363,sport_tshirt,6,7,-1,0,1,1747.25591,1747.25591,1749.753635,0,69,69,69,1,70,7,6,camel         ,sport_tshirt,html/resources/sequences_IDs/A/03_camel.jpg,html/resources/sequences_IDs/B/07_sport_tshirt.jpg,3,7,1,1,3,2,2,5,1,11,,,,,,,,,,,,,,,,,,,,
,,,,,11,2020-07-01_09h33.09.409,retriever_ti,2020.1.3,MacIntel,60,Chrome,1440,900,,,,,,,,,,,,,,,,,1,,,,,,,,,,,,,,,,,,,,,,,,,,,1750.855585,71,right,0.725835,sport_tshirt,6,7,-1,0,0,1750.872795,1750.872795,1753.37104,0,70,70,70,1,71,7,6,camel         ,sport_tshirt,html/resources/sequences_IDs/A/03_camel.jpg,html/resources/sequences_IDs/B/07_sport_tshirt.jpg,3,7,1,1,3,2,2,5,0,11,,,,,,,,,,,,,,,,,,,,
,,,,,11,2020-07-01_09h33.09.409,retriever_ti,2020.1.3,MacIntel,60,Chrome,1440,900,,,,,,,,,,,,,,,,,1,,,,,,,,,,,,,,,,,,,,,,,,,,,1754.47268,72,NaN,NaN,No_response,NaN,NaN,NaN,2,2,1754.489785,1754.489785,1756.987575,0,71,71,71,1,72,7,8,camel         ,dolphin     ,html/resources/sequences_IDs/A/03_camel.jpg,html/resources/sequences_IDs/B/02_dolphin.jpg,3,2,1,1,1,1,2,1,0,11,,,,,,,,,,,,,,,,,,,,
,,,,,11,2020-07-01_09h33.09.409,retriever_ti,2020.1.3,MacIntel,60,Chrome,1440,900,,,,,,,,,,,,,,,,,1,,,,,,,,,,,,,,,,,,,,,,,,,,,1758.088295,73,left,0.6592,hat           ,5,8,-3,0,3,1758.12368,1758.12368,1760.62261,0,72,72,72,1,73,5,8,hat           ,dolphin     ,html/resources/sequences_IDs/A/08_hat.jpg,html/resources/sequences_IDs/B/02_dolphin.jpg,8,2,3,2,1,1,6,1,0,11,,,,,,,,,,,,,,,,,,,,
,,,,,11,2020-07-01_09h33.09.409,retriever_ti,2020.1.3,MacIntel,60,Chrome,1440,900,,,,,,,,,,,,,,,,,1,,,,,,,,,,,,,,,,,,,,,,,,,,,1761.23925,74,right,0.799885,sport_tshirt,6,7,3,1,3,1761.274005,1761.274005,1763.77128,0,73,73,73,1,74,3,6,peacock       ,sport_tshirt,html/resources/sequences_IDs/A/05_peacock.jpg,html/resources/sequences_IDs/B/07_sport_tshirt.jpg,5,7,2,1,3,2,4,5,0,11,,,,,,,,,,,,,,,,,,,,
,,,,,11,2020-07-01_09h33.09.409,retriever_ti,2020.1.3,MacIntel,60,Chrome,1440,900,,,,,,,,,,,,,,,,,1,,,,,,,,,,,,,,,,,,,,,,,,,,,1764.371975,75,right,0.95007,phone       ,2,9,-4,0,3,1764.39042,1764.39042,1766.88891,0,74,74,74,1,75,6,2,sport_tshirt,phone       ,html/resources/sequences_IDs/B/07_sport_tshirt.jpg,html/resources/sequences_IDs/B/09_phone.jpg,7,9,3,2,4,2,5,7,0,11,,,,,,,,,,,,,,,,,,,,
,,,,,11,2020-07-01_09h33.09.409,retriever_ti,2020.1.3,MacIntel,60,Chrome,1440,900,,,,,,,,,,,,,,,,,1,,,,,,,,,,,,,,,,,,,,,,,,,,,1767.5065,76,right,0.80518,camel         ,7,3,4,1,3,1767.52388,1767.52388,1770.021855,0,75,75,75,1,76,3,7,peacock       ,camel         ,html/resources/sequences_IDs/A/05_peacock.jpg,html/resources/sequences_IDs/A/03_camel.jpg,5,3,2,1,1,1,4,2,0,11,,,,,,,,,,,,,,,,,,,,
,,,,,11,2020-07-01_09h33.09.409,retriever_ti,2020.1.3,MacIntel,60,Chrome,1440,900,,,,,,,,,,,,,,,,,1,,,,,,,,,,,,,,,,,,,,,,,,,,,1770.640665,77,right,0.69024,hat           ,5,8,1,1,0,1770.657925,1770.657925,1773.15669,0,76,76,76,1,77,4,5,holdfast    ,hat           ,html/resources/sequences_IDs/B/04_holdfast.jpg,html/resources/sequences_IDs/A/08_hat.jpg,4,8,2,1,3,2,3,6,1,11,,,,,,,,,,,,,,,,,,,,
,,,,,11,2020-07-01_09h33.09.409,retriever_ti,2020.1.3,MacIntel,60,Chrome,1440,900,,,,,,,,,,,,,,,,,,,,,,,,,,,,,,,,,,,,,0,1.60034,,,,,,,,,,,,,,,,,,,,,,,,,,,,,,,,,,,,,,,,,0,0,0,0,1,,,,,,,,,,,,,,,
,,,,,11,2020-07-01_09h33.09.409,retriever_ti,2020.1.3,MacIntel,60,Chrome,1440,900,,,,,,,,,,,,,,,,,2,,,,,,,,,,,,,,,,,,,,,,,,,,,1806.167575,78,left,0.65939,phone       ,2,9,-1,0,0,1806.194545,1806.194545,1808.691135,0,0,0,0,1,78,2,3,phone       ,peacock       ,html/resources/sequences_IDs/B/09_phone.jpg,html/resources/sequences_IDs/A/05_peacock.jpg,9,5,4,2,2,1,7,4,0,11,,,,,,,,,,,,,,,,,,,,
,,,,,11,2020-07-01_09h33.09.409,retriever_ti,2020.1.3,MacIntel,60,Chrome,1440,900,,,,,,,,,,,,,,,,,2,,,,,,,,,,,,,,,,,,,,,,,,,,,1809.79172,79,left,0.711165,sport_tshirt,6,7,-1,0,0,1809.810385,1809.810385,1812.308965,0,1,1,1,1,79,6,7,sport_tshirt,camel         ,html/resources/sequences_IDs/B/07_sport_tshirt.jpg,html/resources/sequences_IDs/A/03_camel.jpg,7,3,3,2,1,1,5,2,0,11,,,,,,,,,,,,,,,,,,,,
,,,,,11,2020-07-01_09h33.09.409,retriever_ti,2020.1.3,MacIntel,60,Chrome,1440,900,,,,,,,,,,,,,,,,,2,,,,,,,,,,,,,,,,,,,,,,,,,,,1813.409725,80,left,0.97474,camel         ,7,3,1,1,0,1813.42664,1813.42664,1815.926365,0,2,2,2,1,80,7,6,camel         ,sport_tshirt,html/resources/sequences_IDs/A/03_camel.jpg,html/resources/sequences_IDs/B/07_sport_tshirt.jpg,3,7,1,1,3,2,2,5,1,11,,,,,,,,,,,,,,,,,,,,
,,,,,11,2020-07-01_09h33.09.409,retriever_ti,2020.1.3,MacIntel,60,Chrome,1440,900,,,,,,,,,,,,,,,,,2,,,,,,,,,,,,,,,,,,,,,,,,,,,1817.02633,81,right,0.80178,camel         ,7,3,2,1,3,1817.04469,1817.04469,1819.541795,0,3,3,3,1,81,5,7,hat           ,camel         ,html/resources/sequences_IDs/A/08_hat.jpg,html/resources/sequences_IDs/A/03_camel.jpg,8,3,3,2,1,1,6,2,0,11,,,,,,,,,,,,,,,,,,,,
,,,,,11,2020-07-01_09h33.09.409,retriever_ti,2020.1.3,MacIntel,60,Chrome,1440,900,,,,,,,,,,,,,,,,,2,,,,,,,,,,,,,,,,,,,,,,,,,,,1820.14372,82,left,0.83584,satellite_dish,1,10,-4,0,3,1820.17745,1820.17745,1822.67669,0,4,4,4,1,82,1,5,satellite_dish,hat           ,html/resources/sequences_IDs/A/10_satellite_dish.jpg,html/resources/sequences_IDs/A/08_hat.jpg,10,8,4,2,3,2,8,6,0,11,,,,,,,,,,,,,,,,,,,,
,,,,,11,2020-07-01_09h33.09.409,retriever_ti,2020.1.3,MacIntel,60,Chrome,1440,900,,,,,,,,,,,,,,,,,2,,,,,,,,,,,,,,,,,,,,,,,,,,,1823.2935,83,right,1.281545,satellite_dish,1,10,-7,0,3,1823.32802,1823.32802,1825.82607,0,5,5,5,1,83,8,1,dolphin     ,satellite_dish,html/resources/sequences_IDs/B/02_dolphin.jpg,html/resources/sequences_IDs/A/10_satellite_dish.jpg,2,10,1,1,4,2,1,8,0,11,,,,,,,,,,,,,,,,,,,,
,,,,,11,2020-07-01_09h33.09.409,retriever_ti,2020.1.3,MacIntel,60,Chrome,1440,900,,,,,,,,,,,,,,,,,2,,,,,,,,,,,,,,,,,,,,,,,,,,,1826.42853,84,right,0.832775,dolphin     ,8,2,1,1,1,1826.443745,1826.443745,1828.94266,0,6,6,6,1,84,7,8,camel         ,dolphin     ,html/resources/sequences_IDs/A/03_camel.jpg,html/resources/sequences_IDs/B/02_dolphin.jpg,3,2,1,1,1,1,2,1,0,11,,,,,,,,,,,,,,,,,,,,
,,,,,11,2020-07-01_09h33.09.409,retriever_ti,2020.1.3,MacIntel,60,Chrome,1440,900,,,,,,,,,,,,,,,,,2,,,,,,,,,,,,,,,,,,,,,,,,,,,1830.043325,85,left,0.97096,hat           ,5,8,-3,0,3,1830.06152,1830.06152,1832.560705,0,7,7,7,1,85,5,8,hat           ,dolphin     ,html/resources/sequences_IDs/A/08_hat.jpg,html/resources/sequences_IDs/B/02_dolphin.jpg,8,2,3,2,1,1,6,1,0,11,,,,,,,,,,,,,,,,,,,,
,,,,,11,2020-07-01_09h33.09.409,retriever_ti,2020.1.3,MacIntel,60,Chrome,1440,900,,,,,,,,,,,,,,,,,2,,,,,,,,,,,,,,,,,,,,,,,,,,,1833.1777,86,right,0.8889,sport_tshirt,6,7,5,1,3,1833.211375,1833.211375,1835.71148,0,8,8,8,1,86,1,6,satellite_dish,sport_tshirt,html/resources/sequences_IDs/A/10_satellite_dish.jpg,html/resources/sequences_IDs/B/07_sport_tshirt.jpg,10,7,4,2,3,2,8,5,0,11,,,,,,,,,,,,,,,,,,,,
,,,,,11,2020-07-01_09h33.09.409,retriever_ti,2020.1.3,MacIntel,60,Chrome,1440,900,,,,,,,,,,,,,,,,,2,,,,,,,,,,,,,,,,,,,,,,,,,,,1836.32723,87,left,0.847275,camel         ,7,3,1,1,1,1836.362095,1836.362095,1838.85988,0,9,9,9,1,87,7,6,camel         ,sport_tshirt,html/resources/sequences_IDs/A/03_camel.jpg,html/resources/sequences_IDs/B/07_sport_tshirt.jpg,3,7,1,1,3,2,2,5,0,11,,,,,,,,,,,,,,,,,,,,
,,,,,11,2020-07-01_09h33.09.409,retriever_ti,2020.1.3,MacIntel,60,Chrome,1440,900,,,,,,,,,,,,,,,,,2,,,,,,,,,,,,,,,,,,,,,,,,,,,1839.96182,88,left,1.23236,dolphin     ,8,2,1,1,0,1839.97903,1839.97903,1842.47811,0,10,10,10,1,88,8,7,dolphin     ,camel         ,html/resources/sequences_IDs/B/02_dolphin.jpg,html/resources/sequences_IDs/A/03_camel.jpg,2,3,1,1,1,1,1,2,1,11,,,,,,,,,,,,,,,,,,,,
,,,,,11,2020-07-01_09h33.09.409,retriever_ti,2020.1.3,MacIntel,60,Chrome,1440,900,,,,,,,,,,,,,,,,,2,,,,,,,,,,,,,,,,,,,,,,,,,,,1843.578225,89,right,0.84581,peacock       ,3,5,-1,0,0,1843.61259,1843.61259,1846.11028,0,11,11,11,1,89,4,3,holdfast    ,peacock       ,html/resources/sequences_IDs/B/04_holdfast.jpg,html/resources/sequences_IDs/A/05_peacock.jpg,4,5,2,1,2,1,3,4,0,11,,,,,,,,,,,,,,,,,,,,
,,,,,11,2020-07-01_09h33.09.409,retriever_ti,2020.1.3,MacIntel,60,Chrome,1440,900,,,,,,,,,,,,,,,,,2,,,,,,,,,,,,,,,,,,,,,,,,,,,1847.212285,90,left,1.009985,phone       ,2,9,-2,0,3,1847.229535,1847.229535,1849.72725,0,12,12,12,1,90,2,4,phone       ,holdfast    ,html/resources/sequences_IDs/B/09_phone.jpg,html/resources/sequences_IDs/B/04_holdfast.jpg,9,4,4,2,2,1,7,3,0,11,,,,,,,,,,,,,,,,,,,,
,,,,,11,2020-07-01_09h33.09.409,retriever_ti,2020.1.3,MacIntel,60,Chrome,1440,900,,,,,,,,,,,,,,,,,2,,,,,,,,,,,,,,,,,,,,,,,,,,,1850.344945,91,right,0.976285,camel         ,7,3,-1,0,0,1850.36303,1850.36303,1852.8612,0,13,13,13,1,91,8,7,dolphin     ,camel         ,html/resources/sequences_IDs/B/02_dolphin.jpg,html/resources/sequences_IDs/A/03_camel.jpg,2,3,1,1,1,1,1,2,0,11,,,,,,,,,,,,,,,,,,,,
,,,,,11,2020-07-01_09h33.09.409,retriever_ti,2020.1.3,MacIntel,60,Chrome,1440,900,,,,,,,,,,,,,,,,,2,,,,,,,,,,,,,,,,,,,,,,,,,,,1853.96292,92,right,1.23578,holdfast    ,4,4,-3,0,3,1853.996605,1853.996605,1856.494335,0,14,14,14,1,92,7,4,camel         ,holdfast    ,html/resources/sequences_IDs/A/03_camel.jpg,html/resources/sequences_IDs/B/04_holdfast.jpg,3,4,1,1,2,1,2,3,0,11,,,,,,,,,,,,,,,,,,,,
,,,,,11,2020-07-01_09h33.09.409,retriever_ti,2020.1.3,MacIntel,60,Chrome,1440,900,,,,,,,,,,,,,,,,,2,,,,,,,,,,,,,,,,,,,,,,,,,,,1857.095915,93,right,0.827875,camel         ,7,3,3,1,3,1857.11342,1857.11342,1859.611885,0,15,15,15,1,93,4,7,holdfast    ,camel         ,html/resources/sequences_IDs/B/04_holdfast.jpg,html/resources/sequences_IDs/A/03_camel.jpg,4,3,2,1,1,1,3,2,0,11,,,,,,,,,,,,,,,,,,,,
,,,,,11,2020-07-01_09h33.09.409,retriever_ti,2020.1.3,MacIntel,60,Chrome,1440,900,,,,,,,,,,,,,,,,,2,,,,,,,,,,,,,,,,,,,,,,,,,,,1860.229855,94,left,0.784425,peacock       ,3,5,1,1,0,1860.246975,1860.246975,1862.74602,0,16,16,16,1,94,3,2,peacock       ,phone       ,html/resources/sequences_IDs/A/05_peacock.jpg,html/resources/sequences_IDs/B/09_phone.jpg,5,9,2,1,4,2,4,7,1,11,,,,,,,,,,,,,,,,,,,,
,,,,,11,2020-07-01_09h33.09.409,retriever_ti,2020.1.3,MacIntel,60,Chrome,1440,900,,,,,,,,,,,,,,,,,2,,,,,,,,,,,,,,,,,,,,,,,,,,,1863.845625,95,right,0.65172,camel         ,7,3,6,1,3,1863.881125,1863.881125,1866.378375,0,17,17,17,1,95,1,7,satellite_dish,camel         ,html/resources/sequences_IDs/A/10_satellite_dish.jpg,html/resources/sequences_IDs/A/03_camel.jpg,10,3,4,2,1,1,8,2,0,11,,,,,,,,,,,,,,,,,,,,
,,,,,11,2020-07-01_09h33.09.409,retriever_ti,2020.1.3,MacIntel,60,Chrome,1440,900,,,,,,,,,,,,,,,,,2,,,,,,,,,,,,,,,,,,,,,,,,,,,1866.98,96,left,1.085615,holdfast    ,4,4,-1,0,1,1867.014725,1867.014725,1869.512155,0,18,18,18,1,96,4,5,holdfast    ,hat           ,html/resources/sequences_IDs/B/04_holdfast.jpg,html/resources/sequences_IDs/A/08_hat.jpg,4,8,2,1,3,2,3,6,1,11,,,,,,,,,,,,,,,,,,,,
,,,,,11,2020-07-01_09h33.09.409,retriever_ti,2020.1.3,MacIntel,60,Chrome,1440,900,,,,,,,,,,,,,,,,,2,,,,,,,,,,,,,,,,,,,,,,,,,,,1870.61348,97,right,1.40125,satellite_dish,1,10,-2,0,3,1870.64751,1870.64751,1873.14698,0,19,19,19,1,97,3,1,peacock       ,satellite_dish,html/resources/sequences_IDs/A/05_peacock.jpg,html/resources/sequences_IDs/A/10_satellite_dish.jpg,5,10,2,1,4,2,4,8,0,11,,,,,,,,,,,,,,,,,,,,
,,,,,11,2020-07-01_09h33.09.409,retriever_ti,2020.1.3,MacIntel,60,Chrome,1440,900,,,,,,,,,,,,,,,,,2,,,,,,,,,,,,,,,,,,,,,,,,,,,1873.76491,98,right,1.0967,holdfast    ,4,4,1,1,1,1873.79803,1873.79803,1876.295755,0,20,20,20,1,98,3,4,peacock       ,holdfast    ,html/resources/sequences_IDs/A/05_peacock.jpg,html/resources/sequences_IDs/B/04_holdfast.jpg,5,4,2,1,2,1,4,3,0,11,,,,,,,,,,,,,,,,,,,,
,,,,,11,2020-07-01_09h33.09.409,retriever_ti,2020.1.3,MacIntel,60,Chrome,1440,900,,,,,,,,,,,,,,,,,2,,,,,,,,,,,,,,,,,,,,,,,,,,,1877.39737,99,left,1.02245,phone       ,2,9,1,1,0,1877.431575,1877.431575,1879.92935,0,21,21,21,1,99,2,1,phone       ,satellite_dish,html/resources/sequences_IDs/B/09_phone.jpg,html/resources/sequences_IDs/A/10_satellite_dish.jpg,9,10,4,2,4,2,7,8,1,11,,,,,,,,,,,,,,,,,,,,
,,,,,11,2020-07-01_09h33.09.409,retriever_ti,2020.1.3,MacIntel,60,Chrome,1440,900,,,,,,,,,,,,,,,,,2,,,,,,,,,,,,,,,,,,,,,,,,,,,1881.031,100,left,0.694355,sport_tshirt,6,7,4,1,3,1881.048665,1881.048665,1883.546375,0,22,22,22,1,100,6,2,sport_tshirt,phone       ,html/resources/sequences_IDs/B/07_sport_tshirt.jpg,html/resources/sequences_IDs/B/09_phone.jpg,7,9,3,2,4,2,5,7,0,11,,,,,,,,,,,,,,,,,,,,
,,,,,11,2020-07-01_09h33.09.409,retriever_ti,2020.1.3,MacIntel,60,Chrome,1440,900,,,,,,,,,,,,,,,,,2,,,,,,,,,,,,,,,,,,,,,,,,,,,1884.16343,101,left,0.883995,sport_tshirt,6,7,1,1,0,1884.182055,1884.182055,1886.684975,0,23,23,23,1,101,6,5,sport_tshirt,hat           ,html/resources/sequences_IDs/B/07_sport_tshirt.jpg,html/resources/sequences_IDs/A/08_hat.jpg,7,8,3,2,3,2,5,6,1,11,,,,,,,,,,,,,,,,,,,,
,,,,,11,2020-07-01_09h33.09.409,retriever_ti,2020.1.3,MacIntel,60,Chrome,1440,900,,,,,,,,,,,,,,,,,2,,,,,,,,,,,,,,,,,,,,,,,,,,,1887.782035,102,left,0.766065,peacock       ,3,5,1,1,1,1887.81571,1887.81571,1890.315825,0,24,24,24,1,102,3,2,peacock       ,phone       ,html/resources/sequences_IDs/A/05_peacock.jpg,html/resources/sequences_IDs/B/09_phone.jpg,5,9,2,1,4,2,4,7,0,11,,,,,,,,,,,,,,,,,,,,
,,,,,11,2020-07-01_09h33.09.409,retriever_ti,2020.1.3,MacIntel,60,Chrome,1440,900,,,,,,,,,,,,,,,,,2,,,,,,,,,,,,,,,,,,,,,,,,,,,1891.414925,103,right,0.68357,sport_tshirt,6,7,1,1,1,1891.44959,1891.44959,1893.94825,0,25,25,25,1,103,5,6,hat           ,sport_tshirt,html/resources/sequences_IDs/A/08_hat.jpg,html/resources/sequences_IDs/B/07_sport_tshirt.jpg,8,7,3,2,3,2,6,5,0,11,,,,,,,,,,,,,,,,,,,,
,,,,,11,2020-07-01_09h33.09.409,retriever_ti,2020.1.3,MacIntel,60,Chrome,1440,900,,,,,,,,,,,,,,,,,2,,,,,,,,,,,,,,,,,,,,,,,,,,,1895.04859,104,right,0.86421,camel         ,7,3,5,1,3,1895.06654,1895.06654,1897.563945,0,26,26,26,1,104,2,7,phone       ,camel         ,html/resources/sequences_IDs/B/09_phone.jpg,html/resources/sequences_IDs/A/03_camel.jpg,9,3,4,2,1,1,7,2,0,11,,,,,,,,,,,,,,,,,,,,
,,,,,11,2020-07-01_09h33.09.409,retriever_ti,2020.1.3,MacIntel,60,Chrome,1440,900,,,,,,,,,,,,,,,,,2,,,,,,,,,,,,,,,,,,,,,,,,,,,1898.164825,105,left,0.379435,satellite_dish,1,10,-3,0,3,1898.19965,1898.19965,1900.69729,0,27,27,27,1,105,1,4,satellite_dish,holdfast    ,html/resources/sequences_IDs/A/10_satellite_dish.jpg,html/resources/sequences_IDs/B/04_holdfast.jpg,10,4,4,2,2,1,8,3,0,11,,,,,,,,,,,,,,,,,,,,
,,,,,11,2020-07-01_09h33.09.409,retriever_ti,2020.1.3,MacIntel,60,Chrome,1440,900,,,,,,,,,,,,,,,,,2,,,,,,,,,,,,,,,,,,,,,,,,,,,1901.308395,106,left,1.20374,peacock       ,3,5,-2,0,3,1901.350185,1901.350185,1903.84762,0,28,28,28,1,106,3,5,peacock       ,hat           ,html/resources/sequences_IDs/A/05_peacock.jpg,html/resources/sequences_IDs/A/08_hat.jpg,5,8,2,1,3,2,4,6,0,11,,,,,,,,,,,,,,,,,,,,
,,,,,11,2020-07-01_09h33.09.409,retriever_ti,2020.1.3,MacIntel,60,Chrome,1440,900,,,,,,,,,,,,,,,,,2,,,,,,,,,,,,,,,,,,,,,,,,,,,1904.449205,107,right,0.539545,phone       ,2,9,1,1,1,1904.48413,1904.48413,1906.98135,0,29,29,29,1,107,1,2,satellite_dish,phone       ,html/resources/sequences_IDs/A/10_satellite_dish.jpg,html/resources/sequences_IDs/B/09_phone.jpg,10,9,4,2,4,2,8,7,0,11,,,,,,,,,,,,,,,,,,,,
,,,,,11,2020-07-01_09h33.09.409,retriever_ti,2020.1.3,MacIntel,60,Chrome,1440,900,,,,,,,,,,,,,,,,,2,,,,,,,,,,,,,,,,,,,,,,,,,,,1908.08336,108,right,1.263955,holdfast    ,4,4,1,1,1,1908.100495,1908.100495,1910.598175,0,30,30,30,1,108,3,4,peacock       ,holdfast    ,html/resources/sequences_IDs/A/05_peacock.jpg,html/resources/sequences_IDs/B/04_holdfast.jpg,5,4,2,1,2,1,4,3,0,11,,,,,,,,,,,,,,,,,,,,
,,,,,11,2020-07-01_09h33.09.409,retriever_ti,2020.1.3,MacIntel,60,Chrome,1440,900,,,,,,,,,,,,,,,,,2,,,,,,,,,,,,,,,,,,,,,,,,,,,1911.69954,109,left,1.272655,dolphin     ,8,2,5,1,3,1911.7175,1911.7175,1914.21513,0,31,31,31,1,109,8,3,dolphin     ,peacock       ,html/resources/sequences_IDs/B/02_dolphin.jpg,html/resources/sequences_IDs/A/05_peacock.jpg,2,5,1,1,2,1,1,4,0,11,,,,,,,,,,,,,,,,,,,,
,,,,,11,2020-07-01_09h33.09.409,retriever_ti,2020.1.3,MacIntel,60,Chrome,1440,900,,,,,,,,,,,,,,,,,2,,,,,,,,,,,,,,,,,,,,,,,,,,,1914.833815,110,right,1.103165,satellite_dish,1,10,-4,0,3,1914.851015,1914.851015,1917.348535,0,32,32,32,1,110,5,1,hat           ,satellite_dish,html/resources/sequences_IDs/A/08_hat.jpg,html/resources/sequences_IDs/A/10_satellite_dish.jpg,8,10,3,2,4,2,6,8,0,11,,,,,,,,,,,,,,,,,,,,
,,,,,11,2020-07-01_09h33.09.409,retriever_ti,2020.1.3,MacIntel,60,Chrome,1440,900,,,,,,,,,,,,,,,,,2,,,,,,,,,,,,,,,,,,,,,,,,,,,1917.949725,111,right,0.46826,sport_tshirt,6,7,1,1,1,1917.984675,1917.984675,1920.48233,0,33,33,33,1,111,5,6,hat           ,sport_tshirt,html/resources/sequences_IDs/A/08_hat.jpg,html/resources/sequences_IDs/B/07_sport_tshirt.jpg,8,7,3,2,3,2,6,5,0,11,,,,,,,,,,,,,,,,,,,,
,,,,,11,2020-07-01_09h33.09.409,retriever_ti,2020.1.3,MacIntel,60,Chrome,1440,900,,,,,,,,,,,,,,,,,2,,,,,,,,,,,,,,,,,,,,,,,,,,,1921.584,112,left,0.798105,peacock       ,3,5,-5,0,3,1921.60164,1921.60164,1924.09909,0,34,34,34,1,112,3,8,peacock       ,dolphin     ,html/resources/sequences_IDs/A/05_peacock.jpg,html/resources/sequences_IDs/B/02_dolphin.jpg,5,2,2,1,1,1,4,1,0,11,,,,,,,,,,,,,,,,,,,,
,,,,,11,2020-07-01_09h33.09.409,retriever_ti,2020.1.3,MacIntel,60,Chrome,1440,900,,,,,,,,,,,,,,,,,2,,,,,,,,,,,,,,,,,,,,,,,,,,,1924.700475,113,left,0.824805,phone       ,2,9,-6,0,3,1924.71837,1924.71837,1927.21593,0,35,35,35,1,113,2,8,phone       ,dolphin     ,html/resources/sequences_IDs/B/09_phone.jpg,html/resources/sequences_IDs/B/02_dolphin.jpg,9,2,4,2,1,1,7,1,0,11,,,,,,,,,,,,,,,,,,,,
,,,,,11,2020-07-01_09h33.09.409,retriever_ti,2020.1.3,MacIntel,60,Chrome,1440,900,,,,,,,,,,,,,,,,,2,,,,,,,,,,,,,,,,,,,,,,,,,,,1927.834485,114,left,1.899255,dolphin     ,8,2,6,1,3,1927.868585,1927.868585,1930.366815,0,36,36,36,1,114,8,2,dolphin     ,phone       ,html/resources/sequences_IDs/B/02_dolphin.jpg,html/resources/sequences_IDs/B/09_phone.jpg,2,9,1,1,4,2,1,7,0,11,,,,,,,,,,,,,,,,,,,,
,,,,,11,2020-07-01_09h33.09.409,retriever_ti,2020.1.3,MacIntel,60,Chrome,1440,900,,,,,,,,,,,,,,,,,2,,,,,,,,,,,,,,,,,,,,,,,,,,,1930.96819,115,left,0.69075,holdfast    ,4,4,-1,0,0,1930.98593,1930.98593,1933.482985,0,37,37,37,1,115,4,5,holdfast    ,hat           ,html/resources/sequences_IDs/B/04_holdfast.jpg,html/resources/sequences_IDs/A/08_hat.jpg,4,8,2,1,3,2,3,6,0,11,,,,,,,,,,,,,,,,,,,,
,,,,,11,2020-07-01_09h33.09.409,retriever_ti,2020.1.3,MacIntel,60,Chrome,1440,900,,,,,,,,,,,,,,,,,2,,,,,,,,,,,,,,,,,,,,,,,,,,,1934.584655,116,right,0.87123,sport_tshirt,6,7,2,1,3,1934.602215,1934.602215,1937.10003,0,38,38,38,1,116,4,6,holdfast    ,sport_tshirt,html/resources/sequences_IDs/B/04_holdfast.jpg,html/resources/sequences_IDs/B/07_sport_tshirt.jpg,4,7,2,1,3,2,3,5,0,11,,,,,,,,,,,,,,,,,,,,
,,,,,11,2020-07-01_09h33.09.409,retriever_ti,2020.1.3,MacIntel,60,Chrome,1440,900,,,,,,,,,,,,,,,,,2,,,,,,,,,,,,,,,,,,,,,,,,,,,1937.717835,117,left,1.066585,phone       ,2,9,1,1,1,1937.734915,1937.734915,1940.233845,0,39,39,39,1,117,2,1,phone       ,satellite_dish,html/resources/sequences_IDs/B/09_phone.jpg,html/resources/sequences_IDs/A/10_satellite_dish.jpg,9,10,4,2,4,2,7,8,0,11,,,,,,,,,,,,,,,,,,,,
,,,,,11,2020-07-01_09h33.09.409,retriever_ti,2020.1.3,MacIntel,60,Chrome,1440,900,,,,,,,,,,,,,,,,,2,,,,,,,,,,,,,,,,,,,,,,,,,,,1941.336105,118,right,1.304515,dolphin     ,8,2,4,1,3,1941.353015,1941.353015,1943.851705,0,40,40,40,1,118,4,8,holdfast    ,dolphin     ,html/resources/sequences_IDs/B/04_holdfast.jpg,html/resources/sequences_IDs/B/02_dolphin.jpg,4,2,2,1,1,1,3,1,0,11,,,,,,,,,,,,,,,,,,,,
,,,,,11,2020-07-01_09h33.09.409,retriever_ti,2020.1.3,MacIntel,60,Chrome,1440,900,,,,,,,,,,,,,,,,,2,,,,,,,,,,,,,,,,,,,,,,,,,,,1944.45614,119,right,0.84352,peacock       ,3,5,-4,0,3,1944.486395,1944.486395,1946.984005,0,41,41,41,1,119,7,3,camel         ,peacock       ,html/resources/sequences_IDs/A/03_camel.jpg,html/resources/sequences_IDs/A/05_peacock.jpg,3,5,1,1,2,1,2,4,0,11,,,,,,,,,,,,,,,,,,,,
,,,,,11,2020-07-01_09h33.09.409,retriever_ti,2020.1.3,MacIntel,60,Chrome,1440,900,,,,,,,,,,,,,,,,,2,,,,,,,,,,,,,,,,,,,,,,,,,,,1947.594345,120,right,1.02587,sport_tshirt,6,7,4,1,3,1947.636755,1947.636755,1950.13416,0,42,42,42,1,120,2,6,phone       ,sport_tshirt,html/resources/sequences_IDs/B/09_phone.jpg,html/resources/sequences_IDs/B/07_sport_tshirt.jpg,9,7,4,2,3,2,7,5,0,11,,,,,,,,,,,,,,,,,,,,
,,,,,11,2020-07-01_09h33.09.409,retriever_ti,2020.1.3,MacIntel,60,Chrome,1440,900,,,,,,,,,,,,,,,,,2,,,,,,,,,,,,,,,,,,,,,,,,,,,1950.735745,121,right,0.839065,peacock       ,3,5,-1,0,1,1950.75347,1950.75347,1953.251005,0,43,43,43,1,121,4,3,holdfast    ,peacock       ,html/resources/sequences_IDs/B/04_holdfast.jpg,html/resources/sequences_IDs/A/05_peacock.jpg,4,5,2,1,2,1,3,4,1,11,,,,,,,,,,,,,,,,,,,,
,,,,,11,2020-07-01_09h33.09.409,retriever_ti,2020.1.3,MacIntel,60,Chrome,1440,900,,,,,,,,,,,,,,,,,2,,,,,,,,,,,,,,,,,,,,,,,,,,,1954.35254,122,left,1.37481,sport_tshirt,6,7,1,1,1,1954.3869,1954.3869,1956.884605,0,44,44,44,1,122,6,5,sport_tshirt,hat           ,html/resources/sequences_IDs/B/07_sport_tshirt.jpg,html/resources/sequences_IDs/A/08_hat.jpg,7,8,3,2,3,2,5,6,0,11,,,,,,,,,,,,,,,,,,,,
,,,,,11,2020-07-01_09h33.09.409,retriever_ti,2020.1.3,MacIntel,60,Chrome,1440,900,,,,,,,,,,,,,,,,,2,,,,,,,,,,,,,,,,,,,,,,,,,,,1957.985975,123,right,1.18424,camel         ,7,3,-1,0,0,1958.020535,1958.020535,1960.51819,0,45,45,45,1,123,8,7,dolphin     ,camel         ,html/resources/sequences_IDs/B/02_dolphin.jpg,html/resources/sequences_IDs/A/03_camel.jpg,2,3,1,1,1,1,1,2,0,11,,,,,,,,,,,,,,,,,,,,
,,,,,11,2020-07-01_09h33.09.409,retriever_ti,2020.1.3,MacIntel,60,Chrome,1440,900,,,,,,,,,,,,,,,,,2,,,,,,,,,,,,,,,,,,,,,,,,,,,1961.6208,124,left,0.974845,sport_tshirt,6,7,-1,0,0,1961.653745,1961.653745,1964.15316,0,46,46,46,1,124,6,7,sport_tshirt,camel         ,html/resources/sequences_IDs/B/07_sport_tshirt.jpg,html/resources/sequences_IDs/A/03_camel.jpg,7,3,3,2,1,1,5,2,0,11,,,,,,,,,,,,,,,,,,,,
,,,,,11,2020-07-01_09h33.09.409,retriever_ti,2020.1.3,MacIntel,60,Chrome,1440,900,,,,,,,,,,,,,,,,,2,,,,,,,,,,,,,,,,,,,,,,,,,,,1965.25331,125,right,1.95005,hat           ,5,8,-3,0,3,1965.271225,1965.271225,1967.76963,0,47,47,47,1,125,8,5,dolphin     ,hat           ,html/resources/sequences_IDs/B/02_dolphin.jpg,html/resources/sequences_IDs/A/08_hat.jpg,2,8,1,1,3,2,1,6,0,11,,,,,,,,,,,,,,,,,,,,
,,,,,11,2020-07-01_09h33.09.409,retriever_ti,2020.1.3,MacIntel,60,Chrome,1440,900,,,,,,,,,,,,,,,,,2,,,,,,,,,,,,,,,,,,,,,,,,,,,1968.3872,126,right,1.10746,sport_tshirt,6,7,-1,0,0,1968.42137,1968.42137,1970.9195,0,48,48,48,1,126,7,6,camel         ,sport_tshirt,html/resources/sequences_IDs/A/03_camel.jpg,html/resources/sequences_IDs/B/07_sport_tshirt.jpg,3,7,1,1,3,2,2,5,0,11,,,,,,,,,,,,,,,,,,,,
,,,,,11,2020-07-01_09h33.09.409,retriever_ti,2020.1.3,MacIntel,60,Chrome,1440,900,,,,,,,,,,,,,,,,,2,,,,,,,,,,,,,,,,,,,,,,,,,,,1972.02036,127,left,1.304085,sport_tshirt,6,7,1,1,1,1972.055435,1972.055435,1974.55253,0,49,49,49,1,127,6,5,sport_tshirt,hat           ,html/resources/sequences_IDs/B/07_sport_tshirt.jpg,html/resources/sequences_IDs/A/08_hat.jpg,7,8,3,2,3,2,5,6,0,11,,,,,,,,,,,,,,,,,,,,
,,,,,11,2020-07-01_09h33.09.409,retriever_ti,2020.1.3,MacIntel,60,Chrome,1440,900,,,,,,,,,,,,,,,,,2,,,,,,,,,,,,,,,,,,,,,,,,,,,1975.65498,128,right,1.46402,holdfast    ,4,4,-1,0,0,1975.68869,1975.68869,1978.18612,0,50,50,50,1,128,5,4,hat           ,holdfast    ,html/resources/sequences_IDs/A/08_hat.jpg,html/resources/sequences_IDs/B/04_holdfast.jpg,8,4,3,2,2,1,6,3,0,11,,,,,,,,,,,,,,,,,,,,
,,,,,11,2020-07-01_09h33.09.409,retriever_ti,2020.1.3,MacIntel,60,Chrome,1440,900,,,,,,,,,,,,,,,,,2,,,,,,,,,,,,,,,,,,,,,,,,,,,1979.287385,129,right,1.28321,hat           ,5,8,3,1,3,1979.30579,1979.30579,1981.8043,0,51,51,51,1,129,2,5,phone       ,hat           ,html/resources/sequences_IDs/B/09_phone.jpg,html/resources/sequences_IDs/A/08_hat.jpg,9,8,4,2,3,2,7,6,0,11,,,,,,,,,,,,,,,,,,,,
,,,,,11,2020-07-01_09h33.09.409,retriever_ti,2020.1.3,MacIntel,60,Chrome,1440,900,,,,,,,,,,,,,,,,,2,,,,,,,,,,,,,,,,,,,,,,,,,,,1982.421415,130,right,1.37003,peacock       ,3,5,-1,0,0,1982.455695,1982.455695,1984.953505,0,52,52,52,1,130,4,3,holdfast    ,peacock       ,html/resources/sequences_IDs/B/04_holdfast.jpg,html/resources/sequences_IDs/A/05_peacock.jpg,4,5,2,1,2,1,3,4,0,11,,,,,,,,,,,,,,,,,,,,
,,,,,11,2020-07-01_09h33.09.409,retriever_ti,2020.1.3,MacIntel,60,Chrome,1440,900,,,,,,,,,,,,,,,,,2,,,,,,,,,,,,,,,,,,,,,,,,,,,1986.054845,131,left,0.948265,sport_tshirt,6,7,2,1,3,1986.089495,1986.089495,1988.586765,0,53,53,53,1,131,6,4,sport_tshirt,holdfast    ,html/resources/sequences_IDs/B/07_sport_tshirt.jpg,html/resources/sequences_IDs/B/04_holdfast.jpg,7,4,3,2,2,1,5,3,0,11,,,,,,,,,,,,,,,,,,,,
,,,,,11,2020-07-01_09h33.09.409,retriever_ti,2020.1.3,MacIntel,60,Chrome,1440,900,,,,,,,,,,,,,,,,,2,,,,,,,,,,,,,,,,,,,,,,,,,,,1989.188865,132,right,1.036235,phone       ,2,9,-1,0,0,1989.20604,1989.20604,1991.704945,0,54,54,54,1,132,3,2,peacock       ,phone       ,html/resources/sequences_IDs/A/05_peacock.jpg,html/resources/sequences_IDs/B/09_phone.jpg,5,9,2,1,4,2,4,7,0,11,,,,,,,,,,,,,,,,,,,,
,,,,,11,2020-07-01_09h33.09.409,retriever_ti,2020.1.3,MacIntel,60,Chrome,1440,900,,,,,,,,,,,,,,,,,2,,,,,,,,,,,,,,,,,,,,,,,,,,,1992.804475,133,right,1.6147,dolphin     ,8,2,7,1,3,1992.82348,1992.82348,1995.321985,0,55,55,55,1,133,1,8,satellite_dish,dolphin     ,html/resources/sequences_IDs/A/10_satellite_dish.jpg,html/resources/sequences_IDs/B/02_dolphin.jpg,10,2,4,2,1,1,8,1,0,11,,,,,,,,,,,,,,,,,,,,
,,,,,11,2020-07-01_09h33.09.409,retriever_ti,2020.1.3,MacIntel,60,Chrome,1440,900,,,,,,,,,,,,,,,,,2,,,,,,,,,,,,,,,,,,,,,,,,,,,1995.938965,134,left,1.04134,satellite_dish,1,10,-1,0,0,1995.97317,1995.97317,1998.47098,0,56,56,56,1,134,1,2,satellite_dish,phone       ,html/resources/sequences_IDs/A/10_satellite_dish.jpg,html/resources/sequences_IDs/B/09_phone.jpg,10,9,4,2,4,2,8,7,0,11,,,,,,,,,,,,,,,,,,,,
,,,,,11,2020-07-01_09h33.09.409,retriever_ti,2020.1.3,MacIntel,60,Chrome,1440,900,,,,,,,,,,,,,,,,,2,,,,,,,,,,,,,,,,,,,,,,,,,,,1999.57245,135,right,1.605965,dolphin     ,8,2,2,1,3,1999.590075,1999.590075,2002.088415,0,57,57,57,1,135,6,8,sport_tshirt,dolphin     ,html/resources/sequences_IDs/B/07_sport_tshirt.jpg,html/resources/sequences_IDs/B/02_dolphin.jpg,7,2,3,2,1,1,5,1,0,11,,,,,,,,,,,,,,,,,,,,
,,,,,11,2020-07-01_09h33.09.409,retriever_ti,2020.1.3,MacIntel,60,Chrome,1440,900,,,,,,,,,,,,,,,,,2,,,,,,,,,,,,,,,,,,,,,,,,,,,2002.690405,136,right,1.406645,satellite_dish,1,10,-6,0,3,2002.723665,2002.723665,2005.221355,0,58,58,58,1,136,7,1,camel         ,satellite_dish,html/resources/sequences_IDs/A/03_camel.jpg,html/resources/sequences_IDs/A/10_satellite_dish.jpg,3,10,1,1,4,2,2,8,0,11,,,,,,,,,,,,,,,,,,,,
,,,,,11,2020-07-01_09h33.09.409,retriever_ti,2020.1.3,MacIntel,60,Chrome,1440,900,,,,,,,,,,,,,,,,,2,,,,,,,,,,,,,,,,,,,,,,,,,,,2005.82368,137,right,1.070145,satellite_dish,1,10,-3,0,3,2005.839025,2005.839025,2008.338215,0,59,59,59,1,137,4,1,holdfast    ,satellite_dish,html/resources/sequences_IDs/B/04_holdfast.jpg,html/resources/sequences_IDs/A/10_satellite_dish.jpg,4,10,2,1,4,2,3,8,0,11,,,,,,,,,,,,,,,,,,,,
,,,,,11,2020-07-01_09h33.09.409,retriever_ti,2020.1.3,MacIntel,60,Chrome,1440,900,,,,,,,,,,,,,,,,,2,,,,,,,,,,,,,,,,,,,,,,,,,,,2008.9398,138,right,0.97281,satellite_dish,1,10,-5,0,3,2008.974115,2008.974115,2011.473075,0,60,60,60,1,138,6,1,sport_tshirt,satellite_dish,html/resources/sequences_IDs/B/07_sport_tshirt.jpg,html/resources/sequences_IDs/A/10_satellite_dish.jpg,7,10,3,2,4,2,5,8,0,11,,,,,,,,,,,,,,,,,,,,
,,,,,11,2020-07-01_09h33.09.409,retriever_ti,2020.1.3,MacIntel,60,Chrome,1440,900,,,,,,,,,,,,,,,,,2,,,,,,,,,,,,,,,,,,,,,,,,,,,2012.0896,139,right,0.953775,dolphin     ,8,2,1,1,1,2012.12465,2012.12465,2014.623285,0,61,61,61,1,139,7,8,camel         ,dolphin     ,html/resources/sequences_IDs/A/03_camel.jpg,html/resources/sequences_IDs/B/02_dolphin.jpg,3,2,1,1,1,1,2,1,0,11,,,,,,,,,,,,,,,,,,,,
,,,,,11,2020-07-01_09h33.09.409,retriever_ti,2020.1.3,MacIntel,60,Chrome,1440,900,,,,,,,,,,,,,,,,,2,,,,,,,,,,,,,,,,,,,,,,,,,,,2015.72362,140,left,1.322695,dolphin     ,8,2,2,1,3,2015.741345,2015.741345,2018.23892,0,62,62,62,1,140,8,6,dolphin     ,sport_tshirt,html/resources/sequences_IDs/B/02_dolphin.jpg,html/resources/sequences_IDs/B/07_sport_tshirt.jpg,2,7,1,1,3,2,1,5,0,11,,,,,,,,,,,,,,,,,,,,
,,,,,11,2020-07-01_09h33.09.409,retriever_ti,2020.1.3,MacIntel,60,Chrome,1440,900,,,,,,,,,,,,,,,,,2,,,,,,,,,,,,,,,,,,,,,,,,,,,2018.83976,141,right,1.246705,camel         ,7,3,4,1,3,2018.858005,2018.858005,2021.35737,0,63,63,63,1,141,3,7,peacock       ,camel         ,html/resources/sequences_IDs/A/05_peacock.jpg,html/resources/sequences_IDs/A/03_camel.jpg,5,3,2,1,1,1,4,2,0,11,,,,,,,,,,,,,,,,,,,,
,,,,,11,2020-07-01_09h33.09.409,retriever_ti,2020.1.3,MacIntel,60,Chrome,1440,900,,,,,,,,,,,,,,,,,2,,,,,,,,,,,,,,,,,,,,,,,,,,,2021.975225,142,left,1.03747,hat           ,5,8,3,1,3,2021.991635,2021.991635,2024.49057,0,64,64,64,1,142,5,2,hat           ,phone       ,html/resources/sequences_IDs/A/08_hat.jpg,html/resources/sequences_IDs/B/09_phone.jpg,8,9,3,2,4,2,6,7,0,11,,,,,,,,,,,,,,,,,,,,
,,,,,11,2020-07-01_09h33.09.409,retriever_ti,2020.1.3,MacIntel,60,Chrome,1440,900,,,,,,,,,,,,,,,,,2,,,,,,,,,,,,,,,,,,,,,,,,,,,2025.10744,143,left,1.05599,camel         ,7,3,2,1,3,2025.141765,2025.141765,2027.6395,0,65,65,65,1,143,7,5,camel         ,hat           ,html/resources/sequences_IDs/A/03_camel.jpg,html/resources/sequences_IDs/A/08_hat.jpg,3,8,1,1,3,2,2,6,0,11,,,,,,,,,,,,,,,,,,,,
,,,,,11,2020-07-01_09h33.09.409,retriever_ti,2020.1.3,MacIntel,60,Chrome,1440,900,,,,,,,,,,,,,,,,,2,,,,,,,,,,,,,,,,,,,,,,,,,,,2028.241235,144,right,1.530025,peacock       ,3,5,1,1,1,2028.27596,2028.27596,2030.77302,0,66,66,66,1,144,2,3,phone       ,peacock       ,html/resources/sequences_IDs/B/09_phone.jpg,html/resources/sequences_IDs/A/05_peacock.jpg,9,5,4,2,2,1,7,4,0,11,,,,,,,,,,,,,,,,,,,,
,,,,,11,2020-07-01_09h33.09.409,retriever_ti,2020.1.3,MacIntel,60,Chrome,1440,900,,,,,,,,,,,,,,,,,2,,,,,,,,,,,,,,,,,,,,,,,,,,,2031.873835,145,left,1.48499,dolphin     ,8,2,4,1,3,2031.909595,2031.909595,2034.40796,0,67,67,67,1,145,8,4,dolphin     ,holdfast    ,html/resources/sequences_IDs/B/02_dolphin.jpg,html/resources/sequences_IDs/B/04_holdfast.jpg,2,4,1,1,2,1,1,3,0,11,,,,,,,,,,,,,,,,,,,,
,,,,,11,2020-07-01_09h33.09.409,retriever_ti,2020.1.3,MacIntel,60,Chrome,1440,900,,,,,,,,,,,,,,,,,2,,,,,,,,,,,,,,,,,,,,,,,,,,,2035.025665,146,right,0.986305,peacock       ,3,5,2,1,3,2035.043025,2035.043025,2037.54156,0,68,68,68,1,146,1,3,satellite_dish,peacock       ,html/resources/sequences_IDs/A/10_satellite_dish.jpg,html/resources/sequences_IDs/A/05_peacock.jpg,10,5,4,2,2,1,8,4,0,11,,,,,,,,,,,,,,,,,,,,
,,,,,11,2020-07-01_09h33.09.409,retriever_ti,2020.1.3,MacIntel,60,Chrome,1440,900,,,,,,,,,,,,,,,,,2,,,,,,,,,,,,,,,,,,,,,,,,,,,2038.15766,147,left,0.989445,peacock       ,3,5,-3,0,3,2038.176815,2038.176815,2040.67377,0,69,69,69,1,147,3,6,peacock       ,sport_tshirt,html/resources/sequences_IDs/A/05_peacock.jpg,html/resources/sequences_IDs/B/07_sport_tshirt.jpg,5,7,2,1,3,2,4,5,0,11,,,,,,,,,,,,,,,,,,,,
,,,,,11,2020-07-01_09h33.09.409,retriever_ti,2020.1.3,MacIntel,60,Chrome,1440,900,,,,,,,,,,,,,,,,,2,,,,,,,,,,,,,,,,,,,,,,,,,,,2041.275665,148,right,1.157475,hat           ,5,8,1,1,1,2041.29297,2041.29297,2043.79169,0,70,70,70,1,148,4,5,holdfast    ,hat           ,html/resources/sequences_IDs/B/04_holdfast.jpg,html/resources/sequences_IDs/A/08_hat.jpg,4,8,2,1,3,2,3,6,0,11,,,,,,,,,,,,,,,,,,,,
,,,,,11,2020-07-01_09h33.09.409,retriever_ti,2020.1.3,MacIntel,60,Chrome,1440,900,,,,,,,,,,,,,,,,,2,,,,,,,,,,,,,,,,,,,,,,,,,,,2044.891555,149,right,1.235275,phone       ,2,9,-2,0,3,2044.92706,2044.92706,2047.42422,0,71,71,71,1,149,4,2,holdfast    ,phone       ,html/resources/sequences_IDs/B/04_holdfast.jpg,html/resources/sequences_IDs/B/09_phone.jpg,4,9,2,1,4,2,3,7,0,11,,,,,,,,,,,,,,,,,,,,
,,,,,11,2020-07-01_09h33.09.409,retriever_ti,2020.1.3,MacIntel,60,Chrome,1440,900,,,,,,,,,,,,,,,,,2,,,,,,,,,,,,,,,,,,,,,,,,,,,2048.025855,150,left,1.02178,hat           ,5,8,1,1,1,2048.06002,2048.06002,2050.557725,0,72,72,72,1,150,5,4,hat           ,holdfast    ,html/resources/sequences_IDs/A/08_hat.jpg,html/resources/sequences_IDs/B/04_holdfast.jpg,8,4,3,2,2,1,6,3,0,11,,,,,,,,,,,,,,,,,,,,
,,,,,11,2020-07-01_09h33.09.409,retriever_ti,2020.1.3,MacIntel,60,Chrome,1440,900,,,,,,,,,,,,,,,,,2,,,,,,,,,,,,,,,,,,,,,,,,,,,2051.658355,151,right,1.25312,peacock       ,3,5,-2,0,3,2051.693935,2051.693935,2054.19169,0,73,73,73,1,151,5,3,hat           ,peacock       ,html/resources/sequences_IDs/A/08_hat.jpg,html/resources/sequences_IDs/A/05_peacock.jpg,8,5,3,2,2,1,6,4,0,11,,,,,,,,,,,,,,,,,,,,
,,,,,11,2020-07-01_09h33.09.409,retriever_ti,2020.1.3,MacIntel,60,Chrome,1440,900,,,,,,,,,,,,,,,,,2,,,,,,,,,,,,,,,,,,,,,,,,,,,2054.794005,152,left,1.16046,phone       ,2,9,1,1,1,2054.81078,2054.81078,2057.30837,0,74,74,74,1,152,2,1,phone       ,satellite_dish,html/resources/sequences_IDs/B/09_phone.jpg,html/resources/sequences_IDs/A/10_satellite_dish.jpg,9,10,4,2,4,2,7,8,0,11,,,,,,,,,,,,,,,,,,,,
,,,,,11,2020-07-01_09h33.09.409,retriever_ti,2020.1.3,MacIntel,60,Chrome,1440,900,,,,,,,,,,,,,,,,,2,,,,,,,,,,,,,,,,,,,,,,,,,,,2058.40951,153,left,1.339625,sport_tshirt,6,7,3,1,3,2058.44415,2058.44415,2060.94225,0,75,75,75,1,153,6,3,sport_tshirt,peacock       ,html/resources/sequences_IDs/B/07_sport_tshirt.jpg,html/resources/sequences_IDs/A/05_peacock.jpg,7,5,3,2,2,1,5,4,0,11,,,,,,,,,,,,,,,,,,,,
,,,,,11,2020-07-01_09h33.09.409,retriever_ti,2020.1.3,MacIntel,60,Chrome,1440,900,,,,,,,,,,,,,,,,,2,,,,,,,,,,,,,,,,,,,,,,,,,,,2061.544485,154,left,1.52452,camel         ,7,3,5,1,3,2061.577575,2061.577575,2064.076085,0,76,76,76,1,154,7,2,camel         ,phone       ,html/resources/sequences_IDs/A/03_camel.jpg,html/resources/sequences_IDs/B/09_phone.jpg,3,9,1,1,4,2,2,7,0,11,,,,,,,,,,,,,,,,,,,,
,,,,,11,2020-07-01_09h33.09.409,retriever_ti,2020.1.3,MacIntel,60,Chrome,1440,900,,,,,,,,,,,,,,,,,,,,,,,,,,,,,,,,,,,,,0,1.27524,,,,,,,,,,,,,,,,,,,,,,,,,,,,,,,,,,,,,,,,,1,0,1,0,1,,,,,,,,,,,,,,,
,,,,,11,2020-07-01_09h33.09.409,retriever_ti,2020.1.3,MacIntel,60,Chrome,1440,900,,,,,,,,,,,,,,,,,3,,,,,,,,,,,,,,,,,,,,,,,,,,,2077.321315,155,left,0.82185,satellite_dish,1,10,-4,0,3,2077.36263,2077.36263,2079.859825,0,0,0,0,1,155,1,5,satellite_dish,hat           ,html/resources/sequences_IDs/A/10_satellite_dish.jpg,html/resources/sequences_IDs/A/08_hat.jpg,10,8,4,2,3,2,8,6,0,11,,,,,,,,,,,,,,,,,,,,
,,,,,11,2020-07-01_09h33.09.409,retriever_ti,2020.1.3,MacIntel,60,Chrome,1440,900,,,,,,,,,,,,,,,,,3,,,,,,,,,,,,,,,,,,,,,,,,,,,2080.46108,156,left,0.976885,dolphin     ,8,2,4,1,3,2080.495625,2080.495625,2082.994635,0,1,1,1,1,156,8,4,dolphin     ,holdfast    ,html/resources/sequences_IDs/B/02_dolphin.jpg,html/resources/sequences_IDs/B/04_holdfast.jpg,2,4,1,1,2,1,1,3,0,11,,,,,,,,,,,,,,,,,,,,
,,,,,11,2020-07-01_09h33.09.409,retriever_ti,2020.1.3,MacIntel,60,Chrome,1440,900,,,,,,,,,,,,,,,,,3,,,,,,,,,,,,,,,,,,,,,,,,,,,2083.612955,157,left,0.690075,holdfast    ,4,4,-1,0,0,2083.62917,2083.62917,2086.128085,0,2,2,2,1,157,4,5,holdfast    ,hat           ,html/resources/sequences_IDs/B/04_holdfast.jpg,html/resources/sequences_IDs/A/08_hat.jpg,4,8,2,1,3,2,3,6,0,11,,,,,,,,,,,,,,,,,,,,
,,,,,11,2020-07-01_09h33.09.409,retriever_ti,2020.1.3,MacIntel,60,Chrome,1440,900,,,,,,,,,,,,,,,,,3,,,,,,,,,,,,,,,,,,,,,,,,,,,2087.22829,158,right,0.904055,peacock       ,3,5,-1,0,0,2087.246395,2087.246395,2089.74378,0,3,3,3,1,158,4,3,holdfast    ,peacock       ,html/resources/sequences_IDs/B/04_holdfast.jpg,html/resources/sequences_IDs/A/05_peacock.jpg,4,5,2,1,2,1,3,4,0,11,,,,,,,,,,,,,,,,,,,,
,,,,,11,2020-07-01_09h33.09.409,retriever_ti,2020.1.3,MacIntel,60,Chrome,1440,900,,,,,,,,,,,,,,,,,3,,,,,,,,,,,,,,,,,,,,,,,,,,,2090.845845,159,right,1.667735,sport_tshirt,6,7,-1,0,0,2090.879735,2090.879735,2093.37856,0,4,4,4,1,159,7,6,camel         ,sport_tshirt,html/resources/sequences_IDs/A/03_camel.jpg,html/resources/sequences_IDs/B/07_sport_tshirt.jpg,3,7,1,1,3,2,2,5,0,11,,,,,,,,,,,,,,,,,,,,
,,,,,11,2020-07-01_09h33.09.409,retriever_ti,2020.1.3,MacIntel,60,Chrome,1440,900,,,,,,,,,,,,,,,,,3,,,,,,,,,,,,,,,,,,,,,,,,,,,2094.47811,160,left,0.84723,holdfast    ,4,4,1,1,1,2094.513365,2094.513365,2097.010945,0,5,5,5,1,160,4,3,holdfast    ,peacock       ,html/resources/sequences_IDs/B/04_holdfast.jpg,html/resources/sequences_IDs/A/05_peacock.jpg,4,5,2,1,2,1,3,4,0,11,,,,,,,,,,,,,,,,,,,,
,,,,,11,2020-07-01_09h33.09.409,retriever_ti,2020.1.3,MacIntel,60,Chrome,1440,900,,,,,,,,,,,,,,,,,3,,,,,,,,,,,,,,,,,,,,,,,,,,,2098.113015,161,left,0.80219,hat           ,5,8,3,1,3,2098.1303,2098.1303,2100.627965,0,6,6,6,1,161,5,2,hat           ,phone       ,html/resources/sequences_IDs/A/08_hat.jpg,html/resources/sequences_IDs/B/09_phone.jpg,8,9,3,2,4,2,6,7,0,11,,,,,,,,,,,,,,,,,,,,
,,,,,11,2020-07-01_09h33.09.409,retriever_ti,2020.1.3,MacIntel,60,Chrome,1440,900,,,,,,,,,,,,,,,,,3,,,,,,,,,,,,,,,,,,,,,,,,,,,2101.24516,162,left,0.83482,peacock       ,3,5,-2,0,3,2101.280525,2101.280525,2103.779495,0,7,7,7,1,162,3,5,peacock       ,hat           ,html/resources/sequences_IDs/A/05_peacock.jpg,html/resources/sequences_IDs/A/08_hat.jpg,5,8,2,1,3,2,4,6,0,11,,,,,,,,,,,,,,,,,,,,
,,,,,11,2020-07-01_09h33.09.409,retriever_ti,2020.1.3,MacIntel,60,Chrome,1440,900,,,,,,,,,,,,,,,,,3,,,,,,,,,,,,,,,,,,,,,,,,,,,2104.396435,163,right,0.89195,dolphin     ,8,2,3,1,3,2104.413655,2104.413655,2106.913055,0,8,8,8,1,163,5,8,hat           ,dolphin     ,html/resources/sequences_IDs/A/08_hat.jpg,html/resources/sequences_IDs/B/02_dolphin.jpg,8,2,3,2,1,1,6,1,0,11,,,,,,,,,,,,,,,,,,,,
,,,,,11,2020-07-01_09h33.09.409,retriever_ti,2020.1.3,MacIntel,60,Chrome,1440,900,,,,,,,,,,,,,,,,,3,,,,,,,,,,,,,,,,,,,,,,,,,,,2107.53001,164,left,0.723965,sport_tshirt,6,7,4,1,3,2107.564205,2107.564205,2110.062205,0,9,9,9,1,164,6,2,sport_tshirt,phone       ,html/resources/sequences_IDs/B/07_sport_tshirt.jpg,html/resources/sequences_IDs/B/09_phone.jpg,7,9,3,2,4,2,5,7,0,11,,,,,,,,,,,,,,,,,,,,
,,,,,11,2020-07-01_09h33.09.409,retriever_ti,2020.1.3,MacIntel,60,Chrome,1440,900,,,,,,,,,,,,,,,,,3,,,,,,,,,,,,,,,,,,,,,,,,,,,2110.680485,165,right,0.75018,sport_tshirt,6,7,5,1,3,2110.69775,2110.69775,2113.19678,0,10,10,10,1,165,1,6,satellite_dish,sport_tshirt,html/resources/sequences_IDs/A/10_satellite_dish.jpg,html/resources/sequences_IDs/B/07_sport_tshirt.jpg,10,7,4,2,3,2,8,5,0,11,,,,,,,,,,,,,,,,,,,,
,,,,,11,2020-07-01_09h33.09.409,retriever_ti,2020.1.3,MacIntel,60,Chrome,1440,900,,,,,,,,,,,,,,,,,3,,,,,,,,,,,,,,,,,,,,,,,,,,,2113.79769,166,left,0.65477,dolphin     ,8,2,1,1,1,2113.831805,2113.831805,2116.32978,0,11,11,11,1,166,8,7,dolphin     ,camel         ,html/resources/sequences_IDs/B/02_dolphin.jpg,html/resources/sequences_IDs/A/03_camel.jpg,2,3,1,1,1,1,1,2,0,11,,,,,,,,,,,,,,,,,,,,
,,,,,11,2020-07-01_09h33.09.409,retriever_ti,2020.1.3,MacIntel,60,Chrome,1440,900,,,,,,,,,,,,,,,,,3,,,,,,,,,,,,,,,,,,,,,,,,,,,2117.430955,167,left,1.441615,camel         ,7,3,2,1,3,2117.464815,2117.464815,2119.963045,0,12,12,12,1,167,7,5,camel         ,hat           ,html/resources/sequences_IDs/A/03_camel.jpg,html/resources/sequences_IDs/A/08_hat.jpg,3,8,1,1,3,2,2,6,0,11,,,,,,,,,,,,,,,,,,,,
,,,,,11,2020-07-01_09h33.09.409,retriever_ti,2020.1.3,MacIntel,60,Chrome,1440,900,,,,,,,,,,,,,,,,,3,,,,,,,,,,,,,,,,,,,,,,,,,,,2120.580005,168,left,0.75869,camel         ,7,3,1,1,1,2120.59823,2120.59823,2123.09622,0,13,13,13,1,168,7,6,camel         ,sport_tshirt,html/resources/sequences_IDs/A/03_camel.jpg,html/resources/sequences_IDs/B/07_sport_tshirt.jpg,3,7,1,1,3,2,2,5,0,11,,,,,,,,,,,,,,,,,,,,
,,,,,11,2020-07-01_09h33.09.409,retriever_ti,2020.1.3,MacIntel,60,Chrome,1440,900,,,,,,,,,,,,,,,,,3,,,,,,,,,,,,,,,,,,,,,,,,,,,2124.197915,169,right,1.62099,peacock       ,3,5,-3,0,3,2124.23211,2124.23211,2126.729715,0,14,14,14,1,169,6,3,sport_tshirt,peacock       ,html/resources/sequences_IDs/B/07_sport_tshirt.jpg,html/resources/sequences_IDs/A/05_peacock.jpg,7,5,3,2,2,1,5,4,0,11,,,,,,,,,,,,,,,,,,,,
,,,,,11,2020-07-01_09h33.09.409,retriever_ti,2020.1.3,MacIntel,60,Chrome,1440,900,,,,,,,,,,,,,,,,,3,,,,,,,,,,,,,,,,,,,,,,,,,,,2127.330445,170,left,1.20502,holdfast    ,4,4,-1,0,1,2127.36576,2127.36576,2129.86327,0,15,15,15,1,170,4,5,holdfast    ,hat           ,html/resources/sequences_IDs/B/04_holdfast.jpg,html/resources/sequences_IDs/A/08_hat.jpg,4,8,2,1,3,2,3,6,1,11,,,,,,,,,,,,,,,,,,,,
,,,,,11,2020-07-01_09h33.09.409,retriever_ti,2020.1.3,MacIntel,60,Chrome,1440,900,,,,,,,,,,,,,,,,,3,,,,,,,,,,,,,,,,,,,,,,,,,,,2130.96651,171,left,0.783305,sport_tshirt,6,7,1,1,1,2130.999415,2130.999415,2133.498055,0,16,16,16,1,171,6,5,sport_tshirt,hat           ,html/resources/sequences_IDs/B/07_sport_tshirt.jpg,html/resources/sequences_IDs/A/08_hat.jpg,7,8,3,2,3,2,5,6,0,11,,,,,,,,,,,,,,,,,,,,
,,,,,11,2020-07-01_09h33.09.409,retriever_ti,2020.1.3,MacIntel,60,Chrome,1440,900,,,,,,,,,,,,,,,,,3,,,,,,,,,,,,,,,,,,,,,,,,,,,2134.59922,172,left,0.75792,dolphin     ,8,2,3,1,3,2134.616575,2134.616575,2137.113685,0,17,17,17,1,172,8,5,dolphin     ,hat           ,html/resources/sequences_IDs/B/02_dolphin.jpg,html/resources/sequences_IDs/A/08_hat.jpg,2,8,1,1,3,2,1,6,0,11,,,,,,,,,,,,,,,,,,,,
,,,,,11,2020-07-01_09h33.09.409,retriever_ti,2020.1.3,MacIntel,60,Chrome,1440,900,,,,,,,,,,,,,,,,,3,,,,,,,,,,,,,,,,,,,,,,,,,,,2137.716165,173,left,0.83348,dolphin     ,8,2,7,1,3,2137.750045,2137.750045,2140.24778,0,18,18,18,1,173,8,1,dolphin     ,satellite_dish,html/resources/sequences_IDs/B/02_dolphin.jpg,html/resources/sequences_IDs/A/10_satellite_dish.jpg,2,10,1,1,4,2,1,8,0,11,,,,,,,,,,,,,,,,,,,,
,,,,,11,2020-07-01_09h33.09.409,retriever_ti,2020.1.3,MacIntel,60,Chrome,1440,900,,,,,,,,,,,,,,,,,3,,,,,,,,,,,,,,,,,,,,,,,,,,,2140.865745,174,right,0.75477,peacock       ,3,5,2,1,3,2140.883055,2140.883055,2143.381685,0,19,19,19,1,174,1,3,satellite_dish,peacock       ,html/resources/sequences_IDs/A/10_satellite_dish.jpg,html/resources/sequences_IDs/A/05_peacock.jpg,10,5,4,2,2,1,8,4,0,11,,,,,,,,,,,,,,,,,,,,
,,,,,11,2020-07-01_09h33.09.409,retriever_ti,2020.1.3,MacIntel,60,Chrome,1440,900,,,,,,,,,,,,,,,,,3,,,,,,,,,,,,,,,,,,,,,,,,,,,2143.999195,175,left,0.87231,holdfast    ,4,4,-1,0,0,2144.01708,2144.01708,2146.51554,0,20,20,20,1,175,4,5,holdfast    ,hat           ,html/resources/sequences_IDs/B/04_holdfast.jpg,html/resources/sequences_IDs/A/08_hat.jpg,4,8,2,1,3,2,3,6,0,11,,,,,,,,,,,,,,,,,,,,
,,,,,11,2020-07-01_09h33.09.409,retriever_ti,2020.1.3,MacIntel,60,Chrome,1440,900,,,,,,,,,,,,,,,,,3,,,,,,,,,,,,,,,,,,,,,,,,,,,2147.615985,176,left,0.694775,phone       ,2,9,-2,0,3,2147.65011,2147.65011,2150.147925,0,21,21,21,1,176,2,4,phone       ,holdfast    ,html/resources/sequences_IDs/B/09_phone.jpg,html/resources/sequences_IDs/B/04_holdfast.jpg,9,4,4,2,2,1,7,3,0,11,,,,,,,,,,,,,,,,,,,,
,,,,,11,2020-07-01_09h33.09.409,retriever_ti,2020.1.3,MacIntel,60,Chrome,1440,900,,,,,,,,,,,,,,,,,3,,,,,,,,,,,,,,,,,,,,,,,,,,,2150.74966,177,left,0.877005,sport_tshirt,6,7,5,1,3,2150.767205,2150.767205,2153.265715,0,22,22,22,1,177,6,1,sport_tshirt,satellite_dish,html/resources/sequences_IDs/B/07_sport_tshirt.jpg,html/resources/sequences_IDs/A/10_satellite_dish.jpg,7,10,3,2,4,2,5,8,0,11,,,,,,,,,,,,,,,,,,,,
,,,,,11,2020-07-01_09h33.09.409,retriever_ti,2020.1.3,MacIntel,60,Chrome,1440,900,,,,,,,,,,,,,,,,,3,,,,,,,,,,,,,,,,,,,,,,,,,,,2153.883895,178,left,1.45784,phone       ,2,9,-1,0,0,2153.9013,2153.9013,2156.39839,0,23,23,23,1,178,2,3,phone       ,peacock       ,html/resources/sequences_IDs/B/09_phone.jpg,html/resources/sequences_IDs/A/05_peacock.jpg,9,5,4,2,2,1,7,4,0,11,,,,,,,,,,,,,,,,,,,,
,,,,,11,2020-07-01_09h33.09.409,retriever_ti,2020.1.3,MacIntel,60,Chrome,1440,900,,,,,,,,,,,,,,,,,3,,,,,,,,,,,,,,,,,,,,,,,,,,,2157.5007,179,left,1.00235,peacock       ,3,5,-1,0,0,2157.53438,2157.53438,2160.032125,0,24,24,24,1,179,3,4,peacock       ,holdfast    ,html/resources/sequences_IDs/A/05_peacock.jpg,html/resources/sequences_IDs/B/04_holdfast.jpg,5,4,2,1,2,1,4,3,0,11,,,,,,,,,,,,,,,,,,,,
,,,,,11,2020-07-01_09h33.09.409,retriever_ti,2020.1.3,MacIntel,60,Chrome,1440,900,,,,,,,,,,,,,,,,,3,,,,,,,,,,,,,,,,,,,,,,,,,,,2161.13283,180,left,1.40797,sport_tshirt,6,7,1,1,1,2161.151105,2161.151105,2163.64959,0,25,25,25,1,180,6,5,sport_tshirt,hat           ,html/resources/sequences_IDs/B/07_sport_tshirt.jpg,html/resources/sequences_IDs/A/08_hat.jpg,7,8,3,2,3,2,5,6,0,11,,,,,,,,,,,,,,,,,,,,
,,,,,11,2020-07-01_09h33.09.409,retriever_ti,2020.1.3,MacIntel,60,Chrome,1440,900,,,,,,,,,,,,,,,,,3,,,,,,,,,,,,,,,,,,,,,,,,,,,2164.75059,181,right,1.29057,camel         ,7,3,2,1,3,2164.78504,2164.78504,2167.282445,0,26,26,26,1,181,5,7,hat           ,camel         ,html/resources/sequences_IDs/A/08_hat.jpg,html/resources/sequences_IDs/A/03_camel.jpg,8,3,3,2,1,1,6,2,0,11,,,,,,,,,,,,,,,,,,,,
,,,,,11,2020-07-01_09h33.09.409,retriever_ti,2020.1.3,MacIntel,60,Chrome,1440,900,,,,,,,,,,,,,,,,,3,,,,,,,,,,,,,,,,,,,,,,,,,,,2167.883245,182,right,1.52157,holdfast    ,4,4,-1,0,0,2167.90212,2167.90212,2170.399505,0,27,27,27,1,182,5,4,hat           ,holdfast    ,html/resources/sequences_IDs/A/08_hat.jpg,html/resources/sequences_IDs/B/04_holdfast.jpg,8,4,3,2,2,1,6,3,0,11,,,,,,,,,,,,,,,,,,,,
,,,,,11,2020-07-01_09h33.09.409,retriever_ti,2020.1.3,MacIntel,60,Chrome,1440,900,,,,,,,,,,,,,,,,,3,,,,,,,,,,,,,,,,,,,,,,,,,,,2171.50138,183,right,1.166245,peacock       ,3,5,-2,0,3,2171.51916,2171.51916,2174.0163,0,28,28,28,1,183,5,3,hat           ,peacock       ,html/resources/sequences_IDs/A/08_hat.jpg,html/resources/sequences_IDs/A/05_peacock.jpg,8,5,3,2,2,1,6,4,0,11,,,,,,,,,,,,,,,,,,,,
,,,,,11,2020-07-01_09h33.09.409,retriever_ti,2020.1.3,MacIntel,60,Chrome,1440,900,,,,,,,,,,,,,,,,,3,,,,,,,,,,,,,,,,,,,,,,,,,,,2174.617825,184,left,0.97418,camel         ,7,3,5,1,3,2174.652095,2174.652095,2177.151315,0,29,29,29,1,184,7,2,camel         ,phone       ,html/resources/sequences_IDs/A/03_camel.jpg,html/resources/sequences_IDs/B/09_phone.jpg,3,9,1,1,4,2,2,7,0,11,,,,,,,,,,,,,,,,,,,,
,,,,,11,2020-07-01_09h33.09.409,retriever_ti,2020.1.3,MacIntel,60,Chrome,1440,900,,,,,,,,,,,,,,,,,3,,,,,,,,,,,,,,,,,,,,,,,,,,,2177.76911,185,right,0.92332,sport_tshirt,6,7,-1,0,1,2177.7857,2177.7857,2180.28346,0,30,30,30,1,185,7,6,camel         ,sport_tshirt,html/resources/sequences_IDs/A/03_camel.jpg,html/resources/sequences_IDs/B/07_sport_tshirt.jpg,3,7,1,1,3,2,2,5,1,11,,,,,,,,,,,,,,,,,,,,
,,,,,11,2020-07-01_09h33.09.409,retriever_ti,2020.1.3,MacIntel,60,Chrome,1440,900,,,,,,,,,,,,,,,,,3,,,,,,,,,,,,,,,,,,,,,,,,,,,2181.38476,186,right,0.622305,sport_tshirt,6,7,3,1,3,2181.419285,2181.419285,2183.918465,0,31,31,31,1,186,3,6,peacock       ,sport_tshirt,html/resources/sequences_IDs/A/05_peacock.jpg,html/resources/sequences_IDs/B/07_sport_tshirt.jpg,5,7,2,1,3,2,4,5,0,11,,,,,,,,,,,,,,,,,,,,
,,,,,11,2020-07-01_09h33.09.409,retriever_ti,2020.1.3,MacIntel,60,Chrome,1440,900,,,,,,,,,,,,,,,,,3,,,,,,,,,,,,,,,,,,,,,,,,,,,2184.535865,187,left,1.31787,satellite_dish,1,10,-6,0,3,2184.55289,2184.55289,2187.05079,0,32,32,32,1,187,1,7,satellite_dish,camel         ,html/resources/sequences_IDs/A/10_satellite_dish.jpg,html/resources/sequences_IDs/A/03_camel.jpg,10,3,4,2,1,1,8,2,0,11,,,,,,,,,,,,,,,,,,,,
,,,,,11,2020-07-01_09h33.09.409,retriever_ti,2020.1.3,MacIntel,60,Chrome,1440,900,,,,,,,,,,,,,,,,,3,,,,,,,,,,,,,,,,,,,,,,,,,,,2187.654845,188,left,0.669295,sport_tshirt,6,7,-1,0,0,2187.68639,2187.68639,2190.184055,0,33,33,33,1,188,6,7,sport_tshirt,camel         ,html/resources/sequences_IDs/B/07_sport_tshirt.jpg,html/resources/sequences_IDs/A/03_camel.jpg,7,3,3,2,1,1,5,2,0,11,,,,,,,,,,,,,,,,,,,,
,,,,,11,2020-07-01_09h33.09.409,retriever_ti,2020.1.3,MacIntel,60,Chrome,1440,900,,,,,,,,,,,,,,,,,3,,,,,,,,,,,,,,,,,,,,,,,,,,,2191.286245,189,right,0.93929,sport_tshirt,6,7,4,1,3,2191.31998,2191.31998,2193.81835,0,34,34,34,1,189,2,6,phone       ,sport_tshirt,html/resources/sequences_IDs/B/09_phone.jpg,html/resources/sequences_IDs/B/07_sport_tshirt.jpg,9,7,4,2,3,2,7,5,0,11,,,,,,,,,,,,,,,,,,,,
,,,,,11,2020-07-01_09h33.09.409,retriever_ti,2020.1.3,MacIntel,60,Chrome,1440,900,,,,,,,,,,,,,,,,,3,,,,,,,,,,,,,,,,,,,,,,,,,,,2194.4351,190,right,1.24322,dolphin     ,8,2,2,1,3,2194.454025,2194.454025,2196.95123,0,35,35,35,1,190,6,8,sport_tshirt,dolphin     ,html/resources/sequences_IDs/B/07_sport_tshirt.jpg,html/resources/sequences_IDs/B/02_dolphin.jpg,7,2,3,2,1,1,5,1,0,11,,,,,,,,,,,,,,,,,,,,
,,,,,11,2020-07-01_09h33.09.409,retriever_ti,2020.1.3,MacIntel,60,Chrome,1440,900,,,,,,,,,,,,,,,,,3,,,,,,,,,,,,,,,,,,,,,,,,,,,2197.553155,191,right,0.756215,dolphin     ,8,2,6,1,3,2197.586375,2197.586375,2200.08475,0,36,36,36,1,191,2,8,phone       ,dolphin     ,html/resources/sequences_IDs/B/09_phone.jpg,html/resources/sequences_IDs/B/02_dolphin.jpg,9,2,4,2,1,1,7,1,0,11,,,,,,,,,,,,,,,,,,,,
,,,,,11,2020-07-01_09h33.09.409,retriever_ti,2020.1.3,MacIntel,60,Chrome,1440,900,,,,,,,,,,,,,,,,,3,,,,,,,,,,,,,,,,,,,,,,,,,,,2200.686,192,left,0.73776,phone       ,2,9,-5,0,3,2200.720575,2200.720575,2203.21972,0,37,37,37,1,192,2,7,phone       ,camel         ,html/resources/sequences_IDs/B/09_phone.jpg,html/resources/sequences_IDs/A/03_camel.jpg,9,3,4,2,1,1,7,2,0,11,,,,,,,,,,,,,,,,,,,,
,,,,,11,2020-07-01_09h33.09.409,retriever_ti,2020.1.3,MacIntel,60,Chrome,1440,900,,,,,,,,,,,,,,,,,3,,,,,,,,,,,,,,,,,,,,,,,,,,,2203.836905,193,right,0.888575,peacock       ,3,5,1,1,1,2203.87083,2203.87083,2206.369735,0,38,38,38,1,193,2,3,phone       ,peacock       ,html/resources/sequences_IDs/B/09_phone.jpg,html/resources/sequences_IDs/A/05_peacock.jpg,9,5,4,2,2,1,7,4,0,11,,,,,,,,,,,,,,,,,,,,
,,,,,11,2020-07-01_09h33.09.409,retriever_ti,2020.1.3,MacIntel,60,Chrome,1440,900,,,,,,,,,,,,,,,,,3,,,,,,,,,,,,,,,,,,,,,,,,,,,2207.46938,194,left,1.08205,satellite_dish,1,10,-3,0,3,2207.504545,2207.504545,2210.002545,0,39,39,39,1,194,1,4,satellite_dish,holdfast    ,html/resources/sequences_IDs/A/10_satellite_dish.jpg,html/resources/sequences_IDs/B/04_holdfast.jpg,10,4,4,2,2,1,8,3,0,11,,,,,,,,,,,,,,,,,,,,
,,,,,11,2020-07-01_09h33.09.409,retriever_ti,2020.1.3,MacIntel,60,Chrome,1440,900,,,,,,,,,,,,,,,,,3,,,,,,,,,,,,,,,,,,,,,,,,,,,2210.62039,195,left,1.03286,holdfast    ,4,4,-4,0,3,2210.638005,2210.638005,2213.136935,0,40,40,40,1,195,4,8,holdfast    ,dolphin     ,html/resources/sequences_IDs/B/04_holdfast.jpg,html/resources/sequences_IDs/B/02_dolphin.jpg,4,2,2,1,1,1,3,1,0,11,,,,,,,,,,,,,,,,,,,,
,,,,,11,2020-07-01_09h33.09.409,retriever_ti,2020.1.3,MacIntel,60,Chrome,1440,900,,,,,,,,,,,,,,,,,3,,,,,,,,,,,,,,,,,,,,,,,,,,,2213.754365,196,left,0.691705,peacock       ,3,5,1,1,0,2213.771955,2213.771955,2216.269235,0,41,41,41,1,196,3,2,peacock       ,phone       ,html/resources/sequences_IDs/A/05_peacock.jpg,html/resources/sequences_IDs/B/09_phone.jpg,5,9,2,1,4,2,4,7,1,11,,,,,,,,,,,,,,,,,,,,
,,,,,11,2020-07-01_09h33.09.409,retriever_ti,2020.1.3,MacIntel,60,Chrome,1440,900,,,,,,,,,,,,,,,,,3,,,,,,,,,,,,,,,,,,,,,,,,,,,2217.371555,197,right,0.827125,hat           ,5,8,3,1,3,2217.405105,2217.405105,2219.90284,0,42,42,42,1,197,2,5,phone       ,hat           ,html/resources/sequences_IDs/B/09_phone.jpg,html/resources/sequences_IDs/A/08_hat.jpg,9,8,4,2,3,2,7,6,0,11,,,,,,,,,,,,,,,,,,,,
,,,,,11,2020-07-01_09h33.09.409,retriever_ti,2020.1.3,MacIntel,60,Chrome,1440,900,,,,,,,,,,,,,,,,,3,,,,,,,,,,,,,,,,,,,,,,,,,,,2220.50359,198,right,0.67072,satellite_dish,1,10,-4,0,3,2220.521945,2220.521945,2223.021145,0,43,43,43,1,198,5,1,hat           ,satellite_dish,html/resources/sequences_IDs/A/08_hat.jpg,html/resources/sequences_IDs/A/10_satellite_dish.jpg,8,10,3,2,4,2,6,8,0,11,,,,,,,,,,,,,,,,,,,,
,,,,,11,2020-07-01_09h33.09.409,retriever_ti,2020.1.3,MacIntel,60,Chrome,1440,900,,,,,,,,,,,,,,,,,3,,,,,,,,,,,,,,,,,,,,,,,,,,,2223.637915,199,right,0.841235,dolphin     ,8,2,1,1,1,2223.655655,2223.655655,2226.1534,0,44,44,44,1,199,7,8,camel         ,dolphin     ,html/resources/sequences_IDs/A/03_camel.jpg,html/resources/sequences_IDs/B/02_dolphin.jpg,3,2,1,1,1,1,2,1,0,11,,,,,,,,,,,,,,,,,,,,
,,,,,11,2020-07-01_09h33.09.409,retriever_ti,2020.1.3,MacIntel,60,Chrome,1440,900,,,,,,,,,,,,,,,,,3,,,,,,,,,,,,,,,,,,,,,,,,,,,2227.25471,200,left,0.63704,sport_tshirt,6,7,-1,0,0,2227.271915,2227.271915,2229.77017,0,45,45,45,1,200,6,7,sport_tshirt,camel         ,html/resources/sequences_IDs/B/07_sport_tshirt.jpg,html/resources/sequences_IDs/A/03_camel.jpg,7,3,3,2,1,1,5,2,0,11,,,,,,,,,,,,,,,,,,,,
,,,,,11,2020-07-01_09h33.09.409,retriever_ti,2020.1.3,MacIntel,60,Chrome,1440,900,,,,,,,,,,,,,,,,,3,,,,,,,,,,,,,,,,,,,,,,,,,,,2230.8723,201,right,0.587595,phone       ,2,9,1,1,1,2230.889635,2230.889635,2233.388365,0,46,46,46,1,201,1,2,satellite_dish,phone       ,html/resources/sequences_IDs/A/10_satellite_dish.jpg,html/resources/sequences_IDs/B/09_phone.jpg,10,9,4,2,4,2,8,7,0,11,,,,,,,,,,,,,,,,,,,,
,,,,,11,2020-07-01_09h33.09.409,retriever_ti,2020.1.3,MacIntel,60,Chrome,1440,900,,,,,,,,,,,,,,,,,3,,,,,,,,,,,,,,,,,,,,,,,,,,,2234.488725,202,right,1.08743,holdfast    ,4,4,-1,0,0,2234.523145,2234.523145,2237.02171,0,47,47,47,1,202,5,4,hat           ,holdfast    ,html/resources/sequences_IDs/A/08_hat.jpg,html/resources/sequences_IDs/B/04_holdfast.jpg,8,4,3,2,2,1,6,3,0,11,,,,,,,,,,,,,,,,,,,,
,,,,,11,2020-07-01_09h33.09.409,retriever_ti,2020.1.3,MacIntel,60,Chrome,1440,900,,,,,,,,,,,,,,,,,3,,,,,,,,,,,,,,,,,,,,,,,,,,,2238.122375,203,right,0.75349,peacock       ,3,5,-4,0,3,2238.139805,2238.139805,2240.63758,0,48,48,48,1,203,7,3,camel         ,peacock       ,html/resources/sequences_IDs/A/03_camel.jpg,html/resources/sequences_IDs/A/05_peacock.jpg,3,5,1,1,2,1,2,4,0,11,,,,,,,,,,,,,,,,,,,,
,,,,,11,2020-07-01_09h33.09.409,retriever_ti,2020.1.3,MacIntel,60,Chrome,1440,900,,,,,,,,,,,,,,,,,3,,,,,,,,,,,,,,,,,,,,,,,,,,,2241.23839,204,right,0.771605,sport_tshirt,6,7,2,1,3,2241.273455,2241.273455,2243.772295,0,49,49,49,1,204,4,6,holdfast    ,sport_tshirt,html/resources/sequences_IDs/B/04_holdfast.jpg,html/resources/sequences_IDs/B/07_sport_tshirt.jpg,4,7,2,1,3,2,3,5,0,11,,,,,,,,,,,,,,,,,,,,
,,,,,11,2020-07-01_09h33.09.409,retriever_ti,2020.1.3,MacIntel,60,Chrome,1440,900,,,,,,,,,,,,,,,,,3,,,,,,,,,,,,,,,,,,,,,,,,,,,2244.38969,205,left,0.9671,dolphin     ,8,2,2,1,3,2244.4239,2244.4239,2246.92263,0,50,50,50,1,205,8,6,dolphin     ,sport_tshirt,html/resources/sequences_IDs/B/02_dolphin.jpg,html/resources/sequences_IDs/B/07_sport_tshirt.jpg,2,7,1,1,3,2,1,5,0,11,,,,,,,,,,,,,,,,,,,,
,,,,,11,2020-07-01_09h33.09.409,retriever_ti,2020.1.3,MacIntel,60,Chrome,1440,900,,,,,,,,,,,,,,,,,3,,,,,,,,,,,,,,,,,,,,,,,,,,,2247.53873,206,left,1.50781,camel         ,7,3,3,1,3,2247.573885,2247.573885,2250.071735,0,51,51,51,1,206,7,4,camel         ,holdfast    ,html/resources/sequences_IDs/A/03_camel.jpg,html/resources/sequences_IDs/B/04_holdfast.jpg,3,4,1,1,2,1,2,3,0,11,,,,,,,,,,,,,,,,,,,,
,,,,,11,2020-07-01_09h33.09.409,retriever_ti,2020.1.3,MacIntel,60,Chrome,1440,900,,,,,,,,,,,,,,,,,3,,,,,,,,,,,,,,,,,,,,,,,,,,,2250.689945,207,left,1.234605,phone       ,2,9,1,1,0,2250.707445,2250.707445,2253.20656,0,52,52,52,1,207,2,1,phone       ,satellite_dish,html/resources/sequences_IDs/B/09_phone.jpg,html/resources/sequences_IDs/A/10_satellite_dish.jpg,9,10,4,2,4,2,7,8,1,11,,,,,,,,,,,,,,,,,,,,
,,,,,11,2020-07-01_09h33.09.409,retriever_ti,2020.1.3,MacIntel,60,Chrome,1440,900,,,,,,,,,,,,,,,,,3,,,,,,,,,,,,,,,,,,,,,,,,,,,2254.305875,208,right,0.61022,sport_tshirt,6,7,1,1,1,2254.324105,2254.324105,2256.82198,0,53,53,53,1,208,5,6,hat           ,sport_tshirt,html/resources/sequences_IDs/A/08_hat.jpg,html/resources/sequences_IDs/B/07_sport_tshirt.jpg,8,7,3,2,3,2,6,5,0,11,,,,,,,,,,,,,,,,,,,,
,,,,,11,2020-07-01_09h33.09.409,retriever_ti,2020.1.3,MacIntel,60,Chrome,1440,900,,,,,,,,,,,,,,,,,3,,,,,,,,,,,,,,,,,,,,,,,,,,,2257.92362,209,right,0.907795,peacock       ,3,5,-1,0,1,2257.95772,2257.95772,2260.455945,0,54,54,54,1,209,4,3,holdfast    ,peacock       ,html/resources/sequences_IDs/B/04_holdfast.jpg,html/resources/sequences_IDs/A/05_peacock.jpg,4,5,2,1,2,1,3,4,1,11,,,,,,,,,,,,,,,,,,,,
,,,,,11,2020-07-01_09h33.09.409,retriever_ti,2020.1.3,MacIntel,60,Chrome,1440,900,,,,,,,,,,,,,,,,,3,,,,,,,,,,,,,,,,,,,,,,,,,,,2261.556325,210,left,1.226475,peacock       ,3,5,-4,0,3,2261.591695,2261.591695,2264.0903,0,55,55,55,1,210,3,7,peacock       ,camel         ,html/resources/sequences_IDs/A/05_peacock.jpg,html/resources/sequences_IDs/A/03_camel.jpg,5,3,2,1,1,1,4,2,0,11,,,,,,,,,,,,,,,,,,,,
,,,,,11,2020-07-01_09h33.09.409,retriever_ti,2020.1.3,MacIntel,60,Chrome,1440,900,,,,,,,,,,,,,,,,,3,,,,,,,,,,,,,,,,,,,,,,,,,,,2264.707385,211,right,1.51987,satellite_dish,1,10,-1,0,0,2264.741785,2264.741785,2267.239335,0,56,56,56,1,211,2,1,phone       ,satellite_dish,html/resources/sequences_IDs/B/09_phone.jpg,html/resources/sequences_IDs/A/10_satellite_dish.jpg,9,10,4,2,4,2,7,8,0,11,,,,,,,,,,,,,,,,,,,,
,,,,,11,2020-07-01_09h33.09.409,retriever_ti,2020.1.3,MacIntel,60,Chrome,1440,900,,,,,,,,,,,,,,,,,3,,,,,,,,,,,,,,,,,,,,,,,,,,,2268.340865,212,right,1.278995,phone       ,2,9,-1,0,0,2268.359285,2268.359285,2270.85624,0,57,57,57,1,212,3,2,peacock       ,phone       ,html/resources/sequences_IDs/A/05_peacock.jpg,html/resources/sequences_IDs/B/09_phone.jpg,5,9,2,1,4,2,4,7,0,11,,,,,,,,,,,,,,,,,,,,
,,,,,11,2020-07-01_09h33.09.409,retriever_ti,2020.1.3,MacIntel,60,Chrome,1440,900,,,,,,,,,,,,,,,,,3,,,,,,,,,,,,,,,,,,,,,,,,,,,2271.957995,213,left,0.88609,peacock       ,3,5,1,1,1,2271.976355,2271.976355,2274.473915,0,58,58,58,1,213,3,2,peacock       ,phone       ,html/resources/sequences_IDs/A/05_peacock.jpg,html/resources/sequences_IDs/B/09_phone.jpg,5,9,2,1,4,2,4,7,0,11,,,,,,,,,,,,,,,,,,,,
,,,,,11,2020-07-01_09h33.09.409,retriever_ti,2020.1.3,MacIntel,60,Chrome,1440,900,,,,,,,,,,,,,,,,,3,,,,,,,,,,,,,,,,,,,,,,,,,,,2275.574035,214,right,1.299835,dolphin     ,8,2,7,1,3,2275.60892,2275.60892,2278.107015,0,59,59,59,1,214,1,8,satellite_dish,dolphin     ,html/resources/sequences_IDs/A/10_satellite_dish.jpg,html/resources/sequences_IDs/B/02_dolphin.jpg,10,2,4,2,1,1,8,1,0,11,,,,,,,,,,,,,,,,,,,,
,,,,,11,2020-07-01_09h33.09.409,retriever_ti,2020.1.3,MacIntel,60,Chrome,1440,900,,,,,,,,,,,,,,,,,3,,,,,,,,,,,,,,,,,,,,,,,,,,,2278.7262,215,left,0.815165,satellite_dish,1,10,-1,0,0,2278.742595,2278.742595,2281.240325,0,60,60,60,1,215,1,2,satellite_dish,phone       ,html/resources/sequences_IDs/A/10_satellite_dish.jpg,html/resources/sequences_IDs/B/09_phone.jpg,10,9,4,2,4,2,8,7,0,11,,,,,,,,,,,,,,,,,,,,
,,,,,11,2020-07-01_09h33.09.409,retriever_ti,2020.1.3,MacIntel,60,Chrome,1440,900,,,,,,,,,,,,,,,,,3,,,,,,,,,,,,,,,,,,,,,,,,,,,2282.341265,216,right,0.61484,dolphin     ,8,2,5,1,3,2282.376155,2282.376155,2284.875285,0,61,61,61,1,216,3,8,peacock       ,dolphin     ,html/resources/sequences_IDs/A/05_peacock.jpg,html/resources/sequences_IDs/B/02_dolphin.jpg,5,2,2,1,1,1,4,1,0,11,,,,,,,,,,,,,,,,,,,,
,,,,,11,2020-07-01_09h33.09.409,retriever_ti,2020.1.3,MacIntel,60,Chrome,1440,900,,,,,,,,,,,,,,,,,3,,,,,,,,,,,,,,,,,,,,,,,,,,,2285.49213,217,right,0.706305,phone       ,2,9,-2,0,3,2285.52672,2285.52672,2288.02416,0,62,62,62,1,217,4,2,holdfast    ,phone       ,html/resources/sequences_IDs/B/04_holdfast.jpg,html/resources/sequences_IDs/B/09_phone.jpg,4,9,2,1,4,2,3,7,0,11,,,,,,,,,,,,,,,,,,,,
