instructionsLoop.thisRepN,instructionsLoop.thisTrialN,instructionsLoop.thisN,instructionsLoop.thisIndex,instructionsLoop.ran,participant,date,expName,psychopyVersion,OS,frameRate,browser,xResolution,yResolution,fix_onset,tprac,practiceKey.keys,practiceKey.rt,pracitem_chosen_name,acc_practice,P1_onsetPrac,P2_onsetPrac,onsetFeedbPrac,practiceTrials.thisRepN,practiceTrials.thisTrialN,practiceTrials.thisN,practiceTrials.thisIndex,practiceTrials.ran,P1,P2,Block,LocItem1,LocItem2,NameItem1,NameItem2,key_respAC_prac.keys,key_respAC_prac.corr,key_respAC_prac.rt,AC_acc,Attentions.thisRepN,Attentions.thisTrialN,Attentions.thisN,Attentions.thisIndex,Attentions.ran,Stim,Loc1,Loc2,Loc3,Loc4,CorrAns,keyDisturbed.keys,keyDisturbed.rt,repPractice.thisRepN,repPractice.thisTrialN,repPractice.thisN,repPractice.thisIndex,repPractice.ran,fixcross_onsetMain,trialNumber,key_resp.keys,key_resp.rt,item_chosen_name,item_chosen_value,item_chosen_ID,diff_chosen_minus_reject,acc_real,acc_feedback,P1_onset,P2_onset,feedb_onset,trials.thisRepN,trials.thisTrialN,trials.thisN,trials.thisIndex,trials.ran,Trial,ValueP1,ValueP2,P1name,P2name,P1Loc,P2Loc,P1id,P2id,Micro_categoryP1,Macro_categoryP1,Micro_categoryP2,Macro_categoryP2,ID_sequenceP1,ID_sequenceP2,InverseFb,pNumber,repBlocks.thisRepN,repBlocks.thisTrialN,repBlocks.thisN,repBlocks.thisIndex,repBlocks.ran,key_respAC.keys,key_respAC.corr,key_respAC.rt,trials_AC.thisRepN,trials_AC.thisTrialN,trials_AC.thisN,trials_AC.thisIndex,trials_AC.ran,Bonus,BonusLoop.thisRepN,BonusLoop.thisTrialN,BonusLoop.thisN,BonusLoop.thisIndex,BonusLoop.ran,comments
0,0,0,0,1,12,2020-07-01_09h32.38.916,retriever_ti,2020.1.3,Win32,60,Chrome,1366,768,,,,,,,,,,,,,,,,,,,,,,,,,,,,,,,,,,,,,,,,,,,,,,,,,,,,,,,,,,,,,,,,,,,,,,,,,,,,,,,,,,,,,,,,,,,,,,,,,,
1,0,1,0,1,12,2020-07-01_09h32.38.916,retriever_ti,2020.1.3,Win32,60,Chrome,1366,768,,,,,,,,,,,,,,,,,,,,,,,,,,,,,,,,,,,,,,,,,,,,,,,,,,,,,,,,,,,,,,,,,,,,,,,,,,,,,,,,,,,,,,,,,,,,,,,,,,
2,0,2,0,1,12,2020-07-01_09h32.38.916,retriever_ti,2020.1.3,Win32,60,Chrome,1366,768,,,,,,,,,,,,,,,,,,,,,,,,,,,,,,,,,,,,,,,,,,,,,,,,,,,,,,,,,,,,,,,,,,,,,,,,,,,,,,,,,,,,,,,,,,,,,,,,,,
3,0,3,0,1,12,2020-07-01_09h32.38.916,retriever_ti,2020.1.3,Win32,60,Chrome,1366,768,,,,,,,,,,,,,,,,,,,,,,,,,,,,,,,,,,,,,,,,,,,,,,,,,,,,,,,,,,,,,,,,,,,,,,,,,,,,,,,,,,,,,,,,,,,,,,,,,,
4,0,4,0,1,12,2020-07-01_09h32.38.916,retriever_ti,2020.1.3,Win32,60,Chrome,1366,768,,,,,,,,,,,,,,,,,,,,,,,,,,,,,,,,,,,,,,,,,,,,,,,,,,,,,,,,,,,,,,,,,,,,,,,,,,,,,,,,,,,,,,,,,,,,,,,,,,
5,0,5,0,1,12,2020-07-01_09h32.38.916,retriever_ti,2020.1.3,Win32,60,Chrome,1366,768,,,,,,,,,,,,,,,,,,,,,,,,,,,,,,,,,,,,,,,,,,,,,,,,,,,,,,,,,,,,,,,,,,,,,,,,,,,,,,,,,,,,,,,,,,,,,,,,,,
6,0,6,0,1,12,2020-07-01_09h32.38.916,retriever_ti,2020.1.3,Win32,60,Chrome,1366,768,,,,,,,,,,,,,,,,,,,,,,,,,,,,,,,,,,,,,,,,,,,,,,,,,,,,,,,,,,,,,,,,,,,,,,,,,,,,,,,,,,,,,,,,,,,,,,,,,,
7,0,7,0,1,12,2020-07-01_09h32.38.916,retriever_ti,2020.1.3,Win32,60,Chrome,1366,768,,,,,,,,,,,,,,,,,,,,,,,,,,,,,,,,,,,,,,,,,,,,,,,,,,,,,,,,,,,,,,,,,,,,,,,,,,,,,,,,,,,,,,,,,,,,,,,,,,
8,0,8,0,1,12,2020-07-01_09h32.38.916,retriever_ti,2020.1.3,Win32,60,Chrome,1366,768,,,,,,,,,,,,,,,,,,,,,,,,,,,,,,,,,,,,,,,,,,,,,,,,,,,,,,,,,,,,,,,,,,,,,,,,,,,,,,,,,,,,,,,,,,,,,,,,,,
9,0,9,0,1,12,2020-07-01_09h32.38.916,retriever_ti,2020.1.3,Win32,60,Chrome,1366,768,,,,,,,,,,,,,,,,,,,,,,,,,,,,,,,,,,,,,,,,,,,,,,,,,,,,,,,,,,,,,,,,,,,,,,,,,,,,,,,,,,,,,,,,,,,,,,,,,,
10,0,10,0,1,12,2020-07-01_09h32.38.916,retriever_ti,2020.1.3,Win32,60,Chrome,1366,768,,,,,,,,,,,,,,,,,,,,,,,,,,,,,,,,,,,,,,,,,,,,,,,,,,,,,,,,,,,,,,,,,,,,,,,,,,,,,,,,,,,,,,,,,,,,,,,,,,
11,0,11,0,1,12,2020-07-01_09h32.38.916,retriever_ti,2020.1.3,Win32,60,Chrome,1366,768,,,,,,,,,,,,,,,,,,,,,,,,,,,,,,,,,,,,,,,,,,,,,,,,,,,,,,,,,,,,,,,,,,,,,,,,,,,,,,,,,,,,,,,,,,,,,,,,,,
12,0,12,0,1,12,2020-07-01_09h32.38.916,retriever_ti,2020.1.3,Win32,60,Chrome,1366,768,,,,,,,,,,,,,,,,,,,,,,,,,,,,,,,,,,,,,,,,,,,,,,,,,,,,,,,,,,,,,,,,,,,,,,,,,,,,,,,,,,,,,,,,,,,,,,,,,,
13,0,13,0,1,12,2020-07-01_09h32.38.916,retriever_ti,2020.1.3,Win32,60,Chrome,1366,768,,,,,,,,,,,,,,,,,,,,,,,,,,,,,,,,,,,,,,,,,,,,,,,,,,,,,,,,,,,,,,,,,,,,,,,,,,,,,,,,,,,,,,,,,,,,,,,,,,
14,0,14,0,1,12,2020-07-01_09h32.38.916,retriever_ti,2020.1.3,Win32,60,Chrome,1366,768,,,,,,,,,,,,,,,,,,,,,,,,,,,,,,,,,,,,,,,,,,,,,,,,,,,,,,,,,,,,,,,,,,,,,,,,,,,,,,,,,,,,,,,,,,,,,,,,,,
,,,,,12,2020-07-01_09h32.38.916,retriever_ti,2020.1.3,Win32,60,Chrome,1366,768,161.025045,1,NaN,NaN,No_response,2,161.05614,161.05614,163.614415,0,0,0,0,1,2,5,1,html/resources/stimuli_practice_decision/04_beetle.jpg,html/resources/stimuli_practice_decision/02_canary.jpg,beetle,canary,,,,,,,,,,,,,,,,,,,,,,,,,,,,,,,,,,,,,,,,,,,,,,,,,,,,,,,,,,,,,,,,,,,,,,,,,,,,,
,,,,,12,2020-07-01_09h32.38.916,retriever_ti,2020.1.3,Win32,60,Chrome,1366,768,165.520685,2,left,1.715465,rabbit,1,165.545255,165.545255,168.03539,0,1,1,1,1,4,3,1,html/resources/stimuli_practice_decision/01_rabbit.jpg,html/resources/stimuli_practice_decision/07_sock.jpg,rabbit,sock,,,,,,,,,,,,,,,,,,,,,,,,,,,,,,,,,,,,,,,,,,,,,,,,,,,,,,,,,,,,,,,,,,,,,,,,,,,,,
,,,,,12,2020-07-01_09h32.38.916,retriever_ti,2020.1.3,Win32,60,Chrome,1366,768,169.037875,3,right,0.98291,beetle,0,169.07307,169.07307,171.55734,0,2,2,2,1,6,2,1,html/resources/stimuli_practice_decision/06_pullover.jpg,html/resources/stimuli_practice_decision/04_beetle.jpg,pullover,beetle,,,,,,,,,,,,,,,,,,,,,,,,,,,,,,,,,,,,,,,,,,,,,,,,,,,,,,,,,,,,,,,,,,,,,,,,,,,,,
,,,,,12,2020-07-01_09h32.38.916,retriever_ti,2020.1.3,Win32,60,Chrome,1366,768,172.076205,4,right,1.00733,handmixer,0,172.11085,172.11085,174.601585,0,3,3,3,1,7,1,1,html/resources/stimuli_practice_decision/05_glasses.jpg,html/resources/stimuli_practice_decision/08_handmixer.jpg,glasses,handmixer,,,,,,,,,,,,,,,,,,,,,,,,,,,,,,,,,,,,,,,,,,,,,,,,,,,,,,,,,,,,,,,,,,,,,,,,,,,,,
,,,,,12,2020-07-01_09h32.38.916,retriever_ti,2020.1.3,Win32,60,Chrome,1366,768,175.119125,5,left,0.962315,glasses,1,175.158175,175.158175,177.641375,0,4,4,4,1,7,6,1,html/resources/stimuli_practice_decision/05_glasses.jpg,html/resources/stimuli_practice_decision/06_pullover.jpg,glasses,pullover,,,,,,,,,,,,,,,,,,,,,,,,,,,,,,,,,,,,,,,,,,,,,,,,,,,,,,,,,,,,,,,,,,,,,,,,,,,,,
,,,,,12,2020-07-01_09h32.38.916,retriever_ti,2020.1.3,Win32,60,Chrome,1366,768,178.638865,6,right,0.81737,glasses,1,178.66247,178.66247,181.229565,0,5,5,5,1,4,7,1,html/resources/stimuli_practice_decision/01_rabbit.jpg,html/resources/stimuli_practice_decision/05_glasses.jpg,rabbit,glasses,,,,,,,,,,,,,,,,,,,,,,,,,,,,,,,,,,,,,,,,,,,,,,,,,,,,,,,,,,,,,,,,,,,,,,,,,,,,,
,,,,,12,2020-07-01_09h32.38.916,retriever_ti,2020.1.3,Win32,60,Chrome,1366,768,181.736485,7,left,1.026955,handmixer,0,181.776035,181.776035,184.85791,0,6,6,6,1,1,2,1,html/resources/stimuli_practice_decision/08_handmixer.jpg,html/resources/stimuli_practice_decision/04_beetle.jpg,handmixer,beetle,,,,,,,,,,,,,,,,,,,,,,,,,,,,,,,,,,,,,,,,,,,,,,,,,,,,,,,,,,,,,,,,,,,,,,,,,,,,,
,,,,,12,2020-07-01_09h32.38.916,retriever_ti,2020.1.3,Win32,60,Chrome,1366,768,185.854535,8,left,0.876705,rabbit,1,185.88823,185.88823,188.37361,0,7,7,7,1,4,3,1,html/resources/stimuli_practice_decision/01_rabbit.jpg,html/resources/stimuli_practice_decision/07_sock.jpg,rabbit,sock,,,,,,,,,,,,,,,,,,,,,,,,,,,,,,,,,,,,,,,,,,,,,,,,,,,,,,,,,,,,,,,,,,,,,,,,,,,,,
,,,,,12,2020-07-01_09h32.38.916,retriever_ti,2020.1.3,Win32,60,Chrome,1366,768,,,,,,,,,,,,,,,,,,,,,,down,1,1.93066,1,0,0,0,1,1,html/resources/sequences_IDs/star.png,square ↑,circle →,star ↓,← triangle,down,,,,,,,,,,,,,,,,,,,,,,,,,,,,,,,,,,,,,,,,,,,,,,,,,,,,,,,,,,,,,,
,,,,,12,2020-07-01_09h32.38.916,retriever_ti,2020.1.3,Win32,60,Chrome,1366,768,,,,,,,,,,,,,,,,,,,,,,up,1,1.474275,1,0,1,1,0,1,html/resources/sequences_IDs/circle.png,circle ↑,square →,triangle ↓,← star ,up,,,,,,,,,,,,,,,,,,,,,,,,,,,,,,,,,,,,,,,,,,,,,,,,,,,,,,,,,,,,,,
,,,,,12,2020-07-01_09h32.38.916,retriever_ti,2020.1.3,Win32,60,Chrome,1366,768,,,,,,,,,,,,,,,,,,,,,,down,1,1.798365,1,0,2,2,3,1,html/resources/sequences_IDs/triangle.png,star ↑,square →,triangle ↓,← circle,down,,,,,,,,,,,,,,,,,,,,,,,,,,,,,,,,,,,,,,,,,,,,,,,,,,,,,,,,,,,,,,
,,,,,12,2020-07-01_09h32.38.916,retriever_ti,2020.1.3,Win32,60,Chrome,1366,768,,,,,,,,,,,,,,,,,,,,,,left,1,2.332015,1,0,3,3,2,1,html/resources/sequences_IDs/square1.png,star ↑,triangle →,circle ↓,← square,left,,,,,,,,,,,,,,,,,,,,,,,,,,,,,,,,,,,,,,,,,,,,,,,,,,,,,,,,,,,,,,
,,,,,12,2020-07-01_09h32.38.916,retriever_ti,2020.1.3,Win32,60,Chrome,1366,768,,,,,,,,,,,,,,,,,,,,,,,,,,,,,,,,,,,,,0,8.330645,0,0,0,0,1,,,,,,,,,,,,,,,,,,,,,,,,,,,,,,,,,,,,,,,,,,,,,,,,,,,,,,,
,,,,,12,2020-07-01_09h32.38.916,retriever_ti,2020.1.3,Win32,60,Chrome,1366,768,211.78602,9,right,0.83776,glasses,1,211.817175,211.817175,214.31621,0,0,0,0,1,6,7,1,html/resources/stimuli_practice_decision/06_pullover.jpg,html/resources/stimuli_practice_decision/05_glasses.jpg,pullover,glasses,,,,,,,,,,,,,,,,,,,,,,,,,,,,,,,,,,,,,,,,,,,,,,,,,,,,,,,,,,,,,,,,,,,,,,,,,,,,,
,,,,,12,2020-07-01_09h32.38.916,retriever_ti,2020.1.3,Win32,60,Chrome,1366,768,215.319875,10,left,0.808325,pullover,1,215.353495,215.353495,217.848945,0,1,1,1,1,6,2,1,html/resources/stimuli_practice_decision/06_pullover.jpg,html/resources/stimuli_practice_decision/04_beetle.jpg,pullover,beetle,,,,,,,,,,,,,,,,,,,,,,,,,,,,,,,,,,,,,,,,,,,,,,,,,,,,,,,,,,,,,,,,,,,,,,,,,,,,,
,,,,,12,2020-07-01_09h32.38.916,retriever_ti,2020.1.3,Win32,60,Chrome,1366,768,218.36768,11,left,0.821365,canary,0,218.385265,218.385265,220.882325,0,2,2,2,1,5,6,1,html/resources/stimuli_practice_decision/02_canary.jpg,html/resources/stimuli_practice_decision/06_pullover.jpg,canary,pullover,,,,,,,,,,,,,,,,,,,,,,,,,,,,,,,,,,,,,,,,,,,,,,,,,,,,,,,,,,,,,,,,,,,,,,,,,,,,,
,,,,,12,2020-07-01_09h32.38.916,retriever_ti,2020.1.3,Win32,60,Chrome,1366,768,221.88401,12,right,0.689285,glasses,0,221.904335,221.904335,224.398935,0,3,3,3,1,8,7,1,html/resources/stimuli_practice_decision/03_squirrel.jpg,html/resources/stimuli_practice_decision/05_glasses.jpg,squirrel,glasses,,,,,,,,,,,,,,,,,,,,,,,,,,,,,,,,,,,,,,,,,,,,,,,,,,,,,,,,,,,,,,,,,,,,,,,,,,,,,
,,,,,12,2020-07-01_09h32.38.916,retriever_ti,2020.1.3,Win32,60,Chrome,1366,768,225.401635,13,left,1.15256,canary,1,225.435315,225.435315,227.931625,0,4,4,4,1,5,3,1,html/resources/stimuli_practice_decision/02_canary.jpg,html/resources/stimuli_practice_decision/07_sock.jpg,canary,sock,,,,,,,,,,,,,,,,,,,,,,,,,,,,,,,,,,,,,,,,,,,,,,,,,,,,,,,,,,,,,,,,,,,,,,,,,,,,,
,,,,,12,2020-07-01_09h32.38.916,retriever_ti,2020.1.3,Win32,60,Chrome,1366,768,228.43467,14,right,1.030375,squirrel,1,228.454835,228.454835,230.96498,0,5,5,5,1,7,8,1,html/resources/stimuli_practice_decision/05_glasses.jpg,html/resources/stimuli_practice_decision/03_squirrel.jpg,glasses,squirrel,,,,,,,,,,,,,,,,,,,,,,,,,,,,,,,,,,,,,,,,,,,,,,,,,,,,,,,,,,,,,,,,,,,,,,,,,,,,,
,,,,,12,2020-07-01_09h32.38.916,retriever_ti,2020.1.3,Win32,60,Chrome,1366,768,231.967305,15,right,0.77114,rabbit,0,231.99239,231.99239,234.48128,0,6,6,6,1,5,4,1,html/resources/stimuli_practice_decision/02_canary.jpg,html/resources/stimuli_practice_decision/01_rabbit.jpg,canary,rabbit,,,,,,,,,,,,,,,,,,,,,,,,,,,,,,,,,,,,,,,,,,,,,,,,,,,,,,,,,,,,,,,,,,,,,,,,,,,,,
,,,,,12,2020-07-01_09h32.38.916,retriever_ti,2020.1.3,Win32,60,Chrome,1366,768,235.483945,16,left,0.96686,canary,1,235.51821,235.51821,238.07369,0,7,7,7,1,5,3,1,html/resources/stimuli_practice_decision/02_canary.jpg,html/resources/stimuli_practice_decision/07_sock.jpg,canary,sock,,,,,,,,,,,,,,,,,,,,,,,,,,,,,,,,,,,,,,,,,,,,,,,,,,,,,,,,,,,,,,,,,,,,,,,,,,,,,
,,,,,12,2020-07-01_09h32.38.916,retriever_ti,2020.1.3,Win32,60,Chrome,1366,768,,,,,,,,,,,,,,,,,,,,,,down,1,1.55916,1,0,0,0,1,1,html/resources/sequences_IDs/star.png,square ↑,circle →,star ↓,← triangle,down,,,,,,,,,,,,,,,,,,,,,,,,,,,,,,,,,,,,,,,,,,,,,,,,,,,,,,,,,,,,,,
,,,,,12,2020-07-01_09h32.38.916,retriever_ti,2020.1.3,Win32,60,Chrome,1366,768,,,,,,,,,,,,,,,,,,,,,,down,1,1.542045,1,0,1,1,3,1,html/resources/sequences_IDs/triangle.png,star ↑,square →,triangle ↓,← circle,down,,,,,,,,,,,,,,,,,,,,,,,,,,,,,,,,,,,,,,,,,,,,,,,,,,,,,,,,,,,,,,
,,,,,12,2020-07-01_09h32.38.916,retriever_ti,2020.1.3,Win32,60,Chrome,1366,768,,,,,,,,,,,,,,,,,,,,,,up,1,1.511345,1,0,2,2,0,1,html/resources/sequences_IDs/circle.png,circle ↑,square →,triangle ↓,← star ,up,,,,,,,,,,,,,,,,,,,,,,,,,,,,,,,,,,,,,,,,,,,,,,,,,,,,,,,,,,,,,,
,,,,,12,2020-07-01_09h32.38.916,retriever_ti,2020.1.3,Win32,60,Chrome,1366,768,,,,,,,,,,,,,,,,,,,,,,left,1,1.70548,1,0,3,3,2,1,html/resources/sequences_IDs/square1.png,star ↑,triangle →,circle ↓,← square,left,,,,,,,,,,,,,,,,,,,,,,,,,,,,,,,,,,,,,,,,,,,,,,,,,,,,,,,,,,,,,,
,,,,,12,2020-07-01_09h32.38.916,retriever_ti,2020.1.3,Win32,60,Chrome,1366,768,,,,,,,,,,,,,,,,,,,,,,,,,,,,,,,,,,,,,0,4.573995,1,0,1,0,1,,,,,,,,,,,,,,,,,,,,,,,,,,,,,,,,,,,,,,,,,,,,,,,,,,,,,,,
,,,,,12,2020-07-01_09h32.38.916,retriever_ti,2020.1.3,Win32,60,Chrome,1366,768,,,,,,,,,,,,,,,,,1,,,,,,,,,,,,,,,,,,,,,,,,,,,259.245815,1,left,0.615095,clownfish     ,3,4,-4,0,3,259.281435,259.281435,261.783115,0,0,0,0,1,1,3,7,clownfish     ,hat           ,html/resources/sequences_IDs/A/04_clownfish.jpg,html/resources/sequences_IDs/A/08_hat.jpg,4,8,2,1,3,2,3,6,0,12,,,,,,,,,,,,,,,,,,,,
,,,,,12,2020-07-01_09h32.38.916,retriever_ti,2020.1.3,Win32,60,Chrome,1366,768,,,,,,,,,,,,,,,,,1,,,,,,,,,,,,,,,,,,,,,,,,,,,262.403865,2,right,0.96449,radio       ,2,10,1,1,1,262.435115,262.435115,264.9296,0,1,1,1,1,2,1,2,calculator    ,radio       ,html/resources/sequences_IDs/A/09_calculator.jpg,html/resources/sequences_IDs/B/10_radio.jpg,9,10,4,2,4,2,7,8,0,12,,,,,,,,,,,,,,,,,,,,
,,,,,12,2020-07-01_09h32.38.916,retriever_ti,2020.1.3,Win32,60,Chrome,1366,768,,,,,,,,,,,,,,,,,1,,,,,,,,,,,,,,,,,,,,,,,,,,,266.03277,3,left,1.015555,calculator    ,1,9,-7,0,3,266.05081,266.05081,268.54681,0,2,2,2,1,3,1,8,calculator    ,redfox      ,html/resources/sequences_IDs/A/09_calculator.jpg,html/resources/sequences_IDs/B/01_redfox.jpg,9,1,4,2,1,1,7,1,0,12,,,,,,,,,,,,,,,,,,,,
,,,,,12,2020-07-01_09h32.38.916,retriever_ti,2020.1.3,Win32,60,Chrome,1366,768,,,,,,,,,,,,,,,,,1,,,,,,,,,,,,,,,,,,,,,,,,,,,269.16444,4,left,1.49576,giraffe     ,6,3,5,1,3,269.184155,269.184155,271.696305,0,3,3,3,1,4,6,1,giraffe     ,calculator    ,html/resources/sequences_IDs/B/03_giraffe.jpg,html/resources/sequences_IDs/A/09_calculator.jpg,3,9,1,1,4,2,2,7,0,12,,,,,,,,,,,,,,,,,,,,
,,,,,12,2020-07-01_09h32.38.916,retriever_ti,2020.1.3,Win32,60,Chrome,1366,768,,,,,,,,,,,,,,,,,1,,,,,,,,,,,,,,,,,,,,,,,,,,,272.315385,5,right,1.169365,calculator    ,1,9,-7,0,3,272.33238,272.33238,274.829225,0,4,4,4,1,5,8,1,redfox      ,calculator    ,html/resources/sequences_IDs/B/01_redfox.jpg,html/resources/sequences_IDs/A/09_calculator.jpg,1,9,1,1,4,2,1,7,0,12,,,,,,,,,,,,,,,,,,,,
,,,,,12,2020-07-01_09h32.38.916,retriever_ti,2020.1.3,Win32,60,Chrome,1366,768,,,,,,,,,,,,,,,,,1,,,,,,,,,,,,,,,,,,,,,,,,,,,275.44758,6,left,1.495315,redfox      ,8,1,6,1,3,275.48379,275.48379,277.97948,0,5,5,5,1,6,8,2,redfox      ,radio       ,html/resources/sequences_IDs/B/01_redfox.jpg,html/resources/sequences_IDs/B/10_radio.jpg,1,10,1,1,4,2,1,8,0,12,,,,,,,,,,,,,,,,,,,,
,,,,,12,2020-07-01_09h32.38.916,retriever_ti,2020.1.3,Win32,60,Chrome,1366,768,,,,,,,,,,,,,,,,,1,,,,,,,,,,,,,,,,,,,,,,,,,,,278.60153,7,right,1.89868,parrot      ,4,5,1,1,0,278.621215,278.621215,281.105035,0,6,6,6,1,7,3,4,clownfish     ,parrot      ,html/resources/sequences_IDs/A/04_clownfish.jpg,html/resources/sequences_IDs/B/05_parrot.jpg,4,5,2,1,2,1,3,4,1,12,,,,,,,,,,,,,,,,,,,,
,,,,,12,2020-07-01_09h32.38.916,retriever_ti,2020.1.3,Win32,60,Chrome,1366,768,,,,,,,,,,,,,,,,,1,,,,,,,,,,,,,,,,,,,,,,,,,,,282.215505,8,right,0.98609,clownfish     ,3,4,1,1,1,282.23078,282.23078,284.712755,0,7,7,7,1,8,2,3,radio       ,clownfish     ,html/resources/sequences_IDs/B/10_radio.jpg,html/resources/sequences_IDs/A/04_clownfish.jpg,10,4,4,2,2,1,8,3,0,12,,,,,,,,,,,,,,,,,,,,
,,,,,12,2020-07-01_09h32.38.916,retriever_ti,2020.1.3,Win32,60,Chrome,1366,768,,,,,,,,,,,,,,,,,1,,,,,,,,,,,,,,,,,,,,,,,,,,,285.80565,9,left,0.836245,clownfish     ,3,4,-5,0,3,285.82306,285.82306,288.31231,0,8,8,8,1,9,3,8,clownfish     ,redfox      ,html/resources/sequences_IDs/A/04_clownfish.jpg,html/resources/sequences_IDs/B/01_redfox.jpg,4,1,2,1,1,1,3,1,0,12,,,,,,,,,,,,,,,,,,,,
,,,,,12,2020-07-01_09h32.38.916,retriever_ti,2020.1.3,Win32,60,Chrome,1366,768,,,,,,,,,,,,,,,,,1,,,,,,,,,,,,,,,,,,,,,,,,,,,288.931035,10,right,1.061555,radio       ,2,10,-1,0,0,288.950655,288.950655,291.483665,0,9,9,9,1,10,3,2,clownfish     ,radio       ,html/resources/sequences_IDs/A/04_clownfish.jpg,html/resources/sequences_IDs/B/10_radio.jpg,4,10,2,1,4,2,3,8,0,12,,,,,,,,,,,,,,,,,,,,
,,,,,12,2020-07-01_09h32.38.916,retriever_ti,2020.1.3,Win32,60,Chrome,1366,768,,,,,,,,,,,,,,,,,1,,,,,,,,,,,,,,,,,,,,,,,,,,,292.58238,11,left,0.861385,radio       ,2,10,-5,0,3,292.60216,292.60216,295.095325,0,10,10,10,1,11,2,7,radio       ,hat           ,html/resources/sequences_IDs/B/10_radio.jpg,html/resources/sequences_IDs/A/08_hat.jpg,10,8,4,2,3,2,8,6,0,12,,,,,,,,,,,,,,,,,,,,
,,,,,12,2020-07-01_09h32.38.916,retriever_ti,2020.1.3,Win32,60,Chrome,1366,768,,,,,,,,,,,,,,,,,1,,,,,,,,,,,,,,,,,,,,,,,,,,,295.714455,12,left,1.26255,clownfish     ,3,4,-2,0,3,295.735325,295.735325,298.21869,0,11,11,11,1,12,3,5,clownfish     ,dress         ,html/resources/sequences_IDs/A/04_clownfish.jpg,html/resources/sequences_IDs/A/07_dress.jpg,4,7,2,1,3,2,3,5,0,12,,,,,,,,,,,,,,,,,,,,
,,,,,12,2020-07-01_09h32.38.916,retriever_ti,2020.1.3,Win32,60,Chrome,1366,768,,,,,,,,,,,,,,,,,1,,,,,,,,,,,,,,,,,,,,,,,,,,,298.833575,13,right,1.322855,hat           ,7,8,2,1,3,298.85723,298.85723,301.342205,0,12,12,12,1,13,5,7,dress         ,hat           ,html/resources/sequences_IDs/A/07_dress.jpg,html/resources/sequences_IDs/A/08_hat.jpg,7,8,3,2,3,2,5,6,0,12,,,,,,,,,,,,,,,,,,,,
,,,,,12,2020-07-01_09h32.38.916,retriever_ti,2020.1.3,Win32,60,Chrome,1366,768,,,,,,,,,,,,,,,,,1,,,,,,,,,,,,,,,,,,,,,,,,,,,302.419975,14,left,1.50442,dress         ,5,7,4,1,3,302.45445,302.45445,304.94557,0,13,13,13,1,14,5,1,dress         ,calculator    ,html/resources/sequences_IDs/A/07_dress.jpg,html/resources/sequences_IDs/A/09_calculator.jpg,7,9,3,2,4,2,5,7,0,12,,,,,,,,,,,,,,,,,,,,
,,,,,12,2020-07-01_09h32.38.916,retriever_ti,2020.1.3,Win32,60,Chrome,1366,768,,,,,,,,,,,,,,,,,1,,,,,,,,,,,,,,,,,,,,,,,,,,,305.562535,15,NaN,NaN,No_response,NaN,NaN,NaN,2,2,305.581225,305.581225,308.886955,0,14,14,14,1,15,2,1,radio       ,calculator    ,html/resources/sequences_IDs/B/10_radio.jpg,html/resources/sequences_IDs/A/09_calculator.jpg,10,9,4,2,4,2,8,7,0,12,,,,,,,,,,,,,,,,,,,,
,,,,,12,2020-07-01_09h32.38.916,retriever_ti,2020.1.3,Win32,60,Chrome,1366,768,,,,,,,,,,,,,,,,,1,,,,,,,,,,,,,,,,,,,,,,,,,,,309.981515,16,right,0.91729,radio       ,2,10,-2,0,3,310.01745,310.01745,312.877465,0,15,15,15,1,16,4,2,parrot      ,radio       ,html/resources/sequences_IDs/B/05_parrot.jpg,html/resources/sequences_IDs/B/10_radio.jpg,5,10,2,1,4,2,4,8,0,12,,,,,,,,,,,,,,,,,,,,
,,,,,12,2020-07-01_09h32.38.916,retriever_ti,2020.1.3,Win32,60,Chrome,1366,768,,,,,,,,,,,,,,,,,1,,,,,,,,,,,,,,,,,,,,,,,,,,,313.48053,17,NaN,NaN,No_response,NaN,NaN,NaN,2,2,313.49704,313.49704,315.99416,0,16,16,16,1,17,7,2,hat           ,radio       ,html/resources/sequences_IDs/A/08_hat.jpg,html/resources/sequences_IDs/B/10_radio.jpg,8,10,3,2,4,2,6,8,0,12,,,,,,,,,,,,,,,,,,,,
,,,,,12,2020-07-01_09h32.38.916,retriever_ti,2020.1.3,Win32,60,Chrome,1366,768,,,,,,,,,,,,,,,,,1,,,,,,,,,,,,,,,,,,,,,,,,,,,317.120155,18,left,0.605995,hat           ,7,8,1,1,1,317.137765,317.137765,319.62792,0,17,17,17,1,18,7,6,hat           ,giraffe     ,html/resources/sequences_IDs/A/08_hat.jpg,html/resources/sequences_IDs/B/03_giraffe.jpg,8,3,3,2,1,1,6,2,0,12,,,,,,,,,,,,,,,,,,,,
,,,,,12,2020-07-01_09h32.38.916,retriever_ti,2020.1.3,Win32,60,Chrome,1366,768,,,,,,,,,,,,,,,,,1,,,,,,,,,,,,,,,,,,,,,,,,,,,320.92458,19,right,0.58802,hat           ,7,8,-1,0,0,320.953795,320.953795,323.44395,0,18,18,18,1,19,8,7,redfox      ,hat           ,html/resources/sequences_IDs/B/01_redfox.jpg,html/resources/sequences_IDs/A/08_hat.jpg,1,8,1,1,3,2,1,6,0,12,,,,,,,,,,,,,,,,,,,,
,,,,,12,2020-07-01_09h32.38.916,retriever_ti,2020.1.3,Win32,60,Chrome,1366,768,,,,,,,,,,,,,,,,,1,,,,,,,,,,,,,,,,,,,,,,,,,,,324.544995,20,left,0.62074,radio       ,2,10,1,1,1,324.581915,324.581915,327.078025,0,19,19,19,1,20,2,1,radio       ,calculator    ,html/resources/sequences_IDs/B/10_radio.jpg,html/resources/sequences_IDs/A/09_calculator.jpg,10,9,4,2,4,2,8,7,0,12,,,,,,,,,,,,,,,,,,,,
,,,,,12,2020-07-01_09h32.38.916,retriever_ti,2020.1.3,Win32,60,Chrome,1366,768,,,,,,,,,,,,,,,,,1,,,,,,,,,,,,,,,,,,,,,,,,,,,328.1808,21,left,0.55487,giraffe     ,6,3,-1,0,1,328.198925,328.198925,330.69385,0,20,20,20,1,21,6,7,giraffe     ,hat           ,html/resources/sequences_IDs/B/03_giraffe.jpg,html/resources/sequences_IDs/A/08_hat.jpg,3,8,1,1,3,2,2,6,1,12,,,,,,,,,,,,,,,,,,,,
,,,,,12,2020-07-01_09h32.38.916,retriever_ti,2020.1.3,Win32,60,Chrome,1366,768,,,,,,,,,,,,,,,,,1,,,,,,,,,,,,,,,,,,,,,,,,,,,331.798085,22,right,0.49203,parrot      ,4,5,-3,0,3,331.81523,331.81523,334.30984,0,21,21,21,1,22,7,4,hat           ,parrot      ,html/resources/sequences_IDs/A/08_hat.jpg,html/resources/sequences_IDs/B/05_parrot.jpg,8,5,3,2,2,1,6,4,0,12,,,,,,,,,,,,,,,,,,,,
,,,,,12,2020-07-01_09h32.38.916,retriever_ti,2020.1.3,Win32,60,Chrome,1366,768,,,,,,,,,,,,,,,,,1,,,,,,,,,,,,,,,,,,,,,,,,,,,334.91151,23,left,0.44372,hat           ,7,8,-1,0,0,334.929435,334.929435,337.42613,0,22,22,22,1,23,7,8,hat           ,redfox      ,html/resources/sequences_IDs/A/08_hat.jpg,html/resources/sequences_IDs/B/01_redfox.jpg,8,1,3,2,1,1,6,1,0,12,,,,,,,,,,,,,,,,,,,,
,,,,,12,2020-07-01_09h32.38.916,retriever_ti,2020.1.3,Win32,60,Chrome,1366,768,,,,,,,,,,,,,,,,,1,,,,,,,,,,,,,,,,,,,,,,,,,,,338.529365,24,right,0.402035,clownfish     ,3,4,-2,0,3,338.56304,338.56304,341.060145,0,23,23,23,1,24,5,3,dress         ,clownfish     ,html/resources/sequences_IDs/A/07_dress.jpg,html/resources/sequences_IDs/A/04_clownfish.jpg,7,4,3,2,2,1,5,3,0,12,,,,,,,,,,,,,,,,,,,,
,,,,,12,2020-07-01_09h32.38.916,retriever_ti,2020.1.3,Win32,60,Chrome,1366,768,,,,,,,,,,,,,,,,,1,,,,,,,,,,,,,,,,,,,,,,,,,,,341.67971,25,right,0.515995,dress         ,5,7,-3,0,3,341.69719,341.69719,344.192605,0,24,24,24,1,25,8,5,redfox      ,dress         ,html/resources/sequences_IDs/B/01_redfox.jpg,html/resources/sequences_IDs/A/07_dress.jpg,1,7,1,1,3,2,1,5,0,12,,,,,,,,,,,,,,,,,,,,
,,,,,12,2020-07-01_09h32.38.916,retriever_ti,2020.1.3,Win32,60,Chrome,1366,768,,,,,,,,,,,,,,,,,1,,,,,,,,,,,,,,,,,,,,,,,,,,,344.79464,26,right,0.48593,clownfish     ,3,4,1,1,1,344.815445,344.815445,347.309295,0,25,25,25,1,26,2,3,radio       ,clownfish     ,html/resources/sequences_IDs/B/10_radio.jpg,html/resources/sequences_IDs/A/04_clownfish.jpg,10,4,4,2,2,1,8,3,0,12,,,,,,,,,,,,,,,,,,,,
,,,,,12,2020-07-01_09h32.38.916,retriever_ti,2020.1.3,Win32,60,Chrome,1366,768,,,,,,,,,,,,,,,,,1,,,,,,,,,,,,,,,,,,,,,,,,,,,348.413815,27,left,0.54106,calculator    ,1,9,-1,0,1,348.447125,348.447125,350.94278,0,26,26,26,1,27,1,2,calculator    ,radio       ,html/resources/sequences_IDs/A/09_calculator.jpg,html/resources/sequences_IDs/B/10_radio.jpg,9,10,4,2,4,2,7,8,1,12,,,,,,,,,,,,,,,,,,,,
,,,,,12,2020-07-01_09h32.38.916,retriever_ti,2020.1.3,Win32,60,Chrome,1366,768,,,,,,,,,,,,,,,,,1,,,,,,,,,,,,,,,,,,,,,,,,,,,352.04578,28,NaN,NaN,No_response,NaN,NaN,NaN,2,2,352.115455,352.115455,354.69307,0,27,27,27,1,28,3,2,clownfish     ,radio       ,html/resources/sequences_IDs/A/04_clownfish.jpg,html/resources/sequences_IDs/B/10_radio.jpg,4,10,2,1,4,2,3,8,0,12,,,,,,,,,,,,,,,,,,,,
,,,,,12,2020-07-01_09h32.38.916,retriever_ti,2020.1.3,Win32,60,Chrome,1366,768,,,,,,,,,,,,,,,,,1,,,,,,,,,,,,,,,,,,,,,,,,,,,355.829325,29,left,0.512085,radio       ,2,10,-6,0,3,355.85638,355.85638,358.34213,0,28,28,28,1,29,2,8,radio       ,redfox      ,html/resources/sequences_IDs/B/10_radio.jpg,html/resources/sequences_IDs/B/01_redfox.jpg,10,1,4,2,1,1,8,1,0,12,,,,,,,,,,,,,,,,,,,,
,,,,,12,2020-07-01_09h32.38.916,retriever_ti,2020.1.3,Win32,60,Chrome,1366,768,,,,,,,,,,,,,,,,,1,,,,,,,,,,,,,,,,,,,,,,,,,,,358.96115,30,right,0.514365,dress         ,5,7,1,1,1,359.00365,359.00365,361.492385,0,29,29,29,1,30,4,5,parrot      ,dress         ,html/resources/sequences_IDs/B/05_parrot.jpg,html/resources/sequences_IDs/A/07_dress.jpg,5,7,2,1,3,2,4,5,0,12,,,,,,,,,,,,,,,,,,,,
,,,,,12,2020-07-01_09h32.38.916,retriever_ti,2020.1.3,Win32,60,Chrome,1366,768,,,,,,,,,,,,,,,,,1,,,,,,,,,,,,,,,,,,,,,,,,,,,362.62514,31,left,0.652885,parrot      ,4,5,-2,0,3,362.663275,362.663275,365.158715,0,30,30,30,1,31,4,6,parrot      ,giraffe     ,html/resources/sequences_IDs/B/05_parrot.jpg,html/resources/sequences_IDs/B/03_giraffe.jpg,5,3,2,1,1,1,4,2,0,12,,,,,,,,,,,,,,,,,,,,
,,,,,12,2020-07-01_09h32.38.916,retriever_ti,2020.1.3,Win32,60,Chrome,1366,768,,,,,,,,,,,,,,,,,1,,,,,,,,,,,,,,,,,,,,,,,,,,,365.77632,32,right,0.43497,hat           ,7,8,-1,0,0,365.795035,365.795035,368.34135,0,31,31,31,1,32,8,7,redfox      ,hat           ,html/resources/sequences_IDs/B/01_redfox.jpg,html/resources/sequences_IDs/A/08_hat.jpg,1,8,1,1,3,2,1,6,0,12,,,,,,,,,,,,,,,,,,,,
,,,,,12,2020-07-01_09h32.38.916,retriever_ti,2020.1.3,Win32,60,Chrome,1366,768,,,,,,,,,,,,,,,,,1,,,,,,,,,,,,,,,,,,,,,,,,,,,369.44524,33,left,0.527865,giraffe     ,6,3,1,1,1,369.462195,369.462195,371.97481,0,32,32,32,1,33,6,5,giraffe     ,dress         ,html/resources/sequences_IDs/B/03_giraffe.jpg,html/resources/sequences_IDs/A/07_dress.jpg,3,7,1,1,3,2,2,5,0,12,,,,,,,,,,,,,,,,,,,,
,,,,,12,2020-07-01_09h32.38.916,retriever_ti,2020.1.3,Win32,60,Chrome,1366,768,,,,,,,,,,,,,,,,,1,,,,,,,,,,,,,,,,,,,,,,,,,,,373.078115,34,left,0.467655,giraffe     ,6,3,1,1,1,373.0947,373.0947,376.52483,0,33,33,33,1,34,6,5,giraffe     ,dress         ,html/resources/sequences_IDs/B/03_giraffe.jpg,html/resources/sequences_IDs/A/07_dress.jpg,3,7,1,1,3,2,2,5,0,12,,,,,,,,,,,,,,,,,,,,
,,,,,12,2020-07-01_09h32.38.916,retriever_ti,2020.1.3,Win32,60,Chrome,1366,768,,,,,,,,,,,,,,,,,1,,,,,,,,,,,,,,,,,,,,,,,,,,,378.0081,35,right,0.309995,radio       ,2,10,-4,0,3,378.182105,378.182105,380.778285,0,34,34,34,1,35,6,2,giraffe     ,radio       ,html/resources/sequences_IDs/B/03_giraffe.jpg,html/resources/sequences_IDs/B/10_radio.jpg,3,10,1,1,4,2,2,8,0,12,,,,,,,,,,,,,,,,,,,,
,,,,,12,2020-07-01_09h32.38.916,retriever_ti,2020.1.3,Win32,60,Chrome,1366,768,,,,,,,,,,,,,,,,,1,,,,,,,,,,,,,,,,,,,,,,,,,,,381.90033,36,left,0.461255,giraffe     ,6,3,-2,0,3,381.97063,381.97063,385.14445,0,35,35,35,1,36,6,8,giraffe     ,redfox      ,html/resources/sequences_IDs/B/03_giraffe.jpg,html/resources/sequences_IDs/B/01_redfox.jpg,3,1,1,1,1,1,2,1,0,12,,,,,,,,,,,,,,,,,,,,
,,,,,12,2020-07-01_09h32.38.916,retriever_ti,2020.1.3,Win32,60,Chrome,1366,768,,,,,,,,,,,,,,,,,1,,,,,,,,,,,,,,,,,,,,,,,,,,,385.76246,37,right,0.600925,dress         ,5,7,-1,0,1,385.79853,385.79853,388.292875,0,36,36,36,1,37,6,5,giraffe     ,dress         ,html/resources/sequences_IDs/B/03_giraffe.jpg,html/resources/sequences_IDs/A/07_dress.jpg,3,7,1,1,3,2,2,5,1,12,,,,,,,,,,,,,,,,,,,,
,,,,,12,2020-07-01_09h32.38.916,retriever_ti,2020.1.3,Win32,60,Chrome,1366,768,,,,,,,,,,,,,,,,,1,,,,,,,,,,,,,,,,,,,,,,,,,,,389.416735,38,right,0.535065,parrot      ,4,5,1,1,1,390.276325,390.276325,392.77552,0,37,37,37,1,38,3,4,clownfish     ,parrot      ,html/resources/sequences_IDs/A/04_clownfish.jpg,html/resources/sequences_IDs/B/05_parrot.jpg,4,5,2,1,2,1,3,4,0,12,,,,,,,,,,,,,,,,,,,,
,,,,,12,2020-07-01_09h32.38.916,retriever_ti,2020.1.3,Win32,60,Chrome,1366,768,,,,,,,,,,,,,,,,,1,,,,,,,,,,,,,,,,,,,,,,,,,,,393.87591,39,left,0.514485,redfox      ,8,1,4,1,3,393.89428,393.89428,396.379535,0,38,38,38,1,39,8,4,redfox      ,parrot      ,html/resources/sequences_IDs/B/01_redfox.jpg,html/resources/sequences_IDs/B/05_parrot.jpg,1,5,1,1,2,1,1,4,0,12,,,,,,,,,,,,,,,,,,,,
,,,,,12,2020-07-01_09h32.38.916,retriever_ti,2020.1.3,Win32,60,Chrome,1366,768,,,,,,,,,,,,,,,,,1,,,,,,,,,,,,,,,,,,,,,,,,,,,397.00099,40,left,0.31176,calculator    ,1,9,-4,0,3,397.035765,397.035765,399.52401,0,39,39,39,1,40,1,5,calculator    ,dress         ,html/resources/sequences_IDs/A/09_calculator.jpg,html/resources/sequences_IDs/A/07_dress.jpg,9,7,4,2,3,2,7,5,0,12,,,,,,,,,,,,,,,,,,,,
,,,,,12,2020-07-01_09h32.38.916,retriever_ti,2020.1.3,Win32,60,Chrome,1366,768,,,,,,,,,,,,,,,,,1,,,,,,,,,,,,,,,,,,,,,,,,,,,400.17451,41,right,0.44847,hat           ,7,8,1,1,1,400.21591,400.21591,402.706195,0,40,40,40,1,41,6,7,giraffe     ,hat           ,html/resources/sequences_IDs/B/03_giraffe.jpg,html/resources/sequences_IDs/A/08_hat.jpg,3,8,1,1,3,2,2,6,0,12,,,,,,,,,,,,,,,,,,,,
,,,,,12,2020-07-01_09h32.38.916,retriever_ti,2020.1.3,Win32,60,Chrome,1366,768,,,,,,,,,,,,,,,,,1,,,,,,,,,,,,,,,,,,,,,,,,,,,403.81871,42,right,0.71323,calculator    ,1,9,-3,0,3,403.831995,403.831995,406.32976,0,41,41,41,1,42,4,1,parrot      ,calculator    ,html/resources/sequences_IDs/B/05_parrot.jpg,html/resources/sequences_IDs/A/09_calculator.jpg,5,9,2,1,4,2,4,7,0,12,,,,,,,,,,,,,,,,,,,,
,,,,,12,2020-07-01_09h32.38.916,retriever_ti,2020.1.3,Win32,60,Chrome,1366,768,,,,,,,,,,,,,,,,,1,,,,,,,,,,,,,,,,,,,,,,,,,,,406.944085,43,left,0.79776,clownfish     ,3,4,1,1,0,406.97968,406.97968,409.472385,0,42,42,42,1,43,3,2,clownfish     ,radio       ,html/resources/sequences_IDs/A/04_clownfish.jpg,html/resources/sequences_IDs/B/10_radio.jpg,4,10,2,1,4,2,3,8,1,12,,,,,,,,,,,,,,,,,,,,
,,,,,12,2020-07-01_09h32.38.916,retriever_ti,2020.1.3,Win32,60,Chrome,1366,768,,,,,,,,,,,,,,,,,1,,,,,,,,,,,,,,,,,,,,,,,,,,,410.578835,44,right,0.33671,calculator    ,1,9,-6,0,3,410.61905,410.61905,413.102945,0,43,43,43,1,44,7,1,hat           ,calculator    ,html/resources/sequences_IDs/A/08_hat.jpg,html/resources/sequences_IDs/A/09_calculator.jpg,8,9,3,2,4,2,6,7,0,12,,,,,,,,,,,,,,,,,,,,
,,,,,12,2020-07-01_09h32.38.916,retriever_ti,2020.1.3,Win32,60,Chrome,1366,768,,,,,,,,,,,,,,,,,1,,,,,,,,,,,,,,,,,,,,,,,,,,,413.7111,45,right,0.608495,dress         ,5,7,1,1,1,413.7284,413.7284,416.21354,0,44,44,44,1,45,4,5,parrot      ,dress         ,html/resources/sequences_IDs/B/05_parrot.jpg,html/resources/sequences_IDs/A/07_dress.jpg,5,7,2,1,3,2,4,5,0,12,,,,,,,,,,,,,,,,,,,,
,,,,,12,2020-07-01_09h32.38.916,retriever_ti,2020.1.3,Win32,60,Chrome,1366,768,,,,,,,,,,,,,,,,,1,,,,,,,,,,,,,,,,,,,,,,,,,,,417.32694,46,left,0.58327,hat           ,7,8,4,1,3,417.34412,417.34412,419.842205,0,45,45,45,1,46,7,3,hat           ,clownfish     ,html/resources/sequences_IDs/A/08_hat.jpg,html/resources/sequences_IDs/A/04_clownfish.jpg,8,4,3,2,2,1,6,3,0,12,,,,,,,,,,,,,,,,,,,,
,,,,,12,2020-07-01_09h32.38.916,retriever_ti,2020.1.3,Win32,60,Chrome,1366,768,,,,,,,,,,,,,,,,,1,,,,,,,,,,,,,,,,,,,,,,,,,,,420.49817,47,right,0.982735,clownfish     ,3,4,2,1,3,420.64346,420.64346,423.00589,0,46,46,46,1,47,1,3,calculator    ,clownfish     ,html/resources/sequences_IDs/A/09_calculator.jpg,html/resources/sequences_IDs/A/04_clownfish.jpg,9,4,4,2,2,1,7,3,0,12,,,,,,,,,,,,,,,,,,,,
,,,,,12,2020-07-01_09h32.38.916,retriever_ti,2020.1.3,Win32,60,Chrome,1366,768,,,,,,,,,,,,,,,,,1,,,,,,,,,,,,,,,,,,,,,,,,,,,423.62659,48,right,1.070895,dress         ,5,7,3,1,3,423.6424,423.6424,426.139145,0,47,47,47,1,48,2,5,radio       ,dress         ,html/resources/sequences_IDs/B/10_radio.jpg,html/resources/sequences_IDs/A/07_dress.jpg,10,7,4,2,3,2,8,5,0,12,,,,,,,,,,,,,,,,,,,,
,,,,,12,2020-07-01_09h32.38.916,retriever_ti,2020.1.3,Win32,60,Chrome,1366,768,,,,,,,,,,,,,,,,,1,,,,,,,,,,,,,,,,,,,,,,,,,,,427.172785,49,left,1.059855,dress         ,5,7,-1,0,0,427.242295,427.242295,429.73201,0,48,48,48,1,49,5,6,dress         ,giraffe     ,html/resources/sequences_IDs/A/07_dress.jpg,html/resources/sequences_IDs/B/03_giraffe.jpg,7,3,3,2,1,1,5,2,0,12,,,,,,,,,,,,,,,,,,,,
,,,,,12,2020-07-01_09h32.38.916,retriever_ti,2020.1.3,Win32,60,Chrome,1366,768,,,,,,,,,,,,,,,,,1,,,,,,,,,,,,,,,,,,,,,,,,,,,430.832055,50,right,0.562495,giraffe     ,6,3,-2,0,3,430.850295,430.850295,433.33982,0,49,49,49,1,50,8,6,redfox      ,giraffe     ,html/resources/sequences_IDs/B/01_redfox.jpg,html/resources/sequences_IDs/B/03_giraffe.jpg,1,3,1,1,1,1,1,2,0,12,,,,,,,,,,,,,,,,,,,,
,,,,,12,2020-07-01_09h32.38.916,retriever_ti,2020.1.3,Win32,60,Chrome,1366,768,,,,,,,,,,,,,,,,,1,,,,,,,,,,,,,,,,,,,,,,,,,,,433.959965,51,right,0.47475,hat           ,7,8,1,1,1,433.992305,433.992305,436.489075,0,50,50,50,1,51,6,7,giraffe     ,hat           ,html/resources/sequences_IDs/B/03_giraffe.jpg,html/resources/sequences_IDs/A/08_hat.jpg,3,8,1,1,3,2,2,6,0,12,,,,,,,,,,,,,,,,,,,,
,,,,,12,2020-07-01_09h32.38.916,retriever_ti,2020.1.3,Win32,60,Chrome,1366,768,,,,,,,,,,,,,,,,,1,,,,,,,,,,,,,,,,,,,,,,,,,,,437.59193,52,right,0.54698,parrot      ,4,5,3,1,3,437.62743,437.62743,440.12173,0,51,51,51,1,52,1,4,calculator    ,parrot      ,html/resources/sequences_IDs/A/09_calculator.jpg,html/resources/sequences_IDs/B/05_parrot.jpg,9,5,4,2,2,1,7,4,0,12,,,,,,,,,,,,,,,,,,,,
,,,,,12,2020-07-01_09h32.38.916,retriever_ti,2020.1.3,Win32,60,Chrome,1366,768,,,,,,,,,,,,,,,,,1,,,,,,,,,,,,,,,,,,,,,,,,,,,440.740345,53,left,0.47082,hat           ,7,8,-1,0,0,440.759825,440.759825,443.2552,0,52,52,52,1,53,7,8,hat           ,redfox      ,html/resources/sequences_IDs/A/08_hat.jpg,html/resources/sequences_IDs/B/01_redfox.jpg,8,1,3,2,1,1,6,1,0,12,,,,,,,,,,,,,,,,,,,,
,,,,,12,2020-07-01_09h32.38.916,retriever_ti,2020.1.3,Win32,60,Chrome,1366,768,,,,,,,,,,,,,,,,,1,,,,,,,,,,,,,,,,,,,,,,,,,,,444.359205,54,right,0.40891,parrot      ,4,5,-2,0,3,444.392755,444.392755,446.87797,0,53,53,53,1,54,6,4,giraffe     ,parrot      ,html/resources/sequences_IDs/B/03_giraffe.jpg,html/resources/sequences_IDs/B/05_parrot.jpg,3,5,1,1,2,1,2,4,0,12,,,,,,,,,,,,,,,,,,,,
,,,,,12,2020-07-01_09h32.38.916,retriever_ti,2020.1.3,Win32,60,Chrome,1366,768,,,,,,,,,,,,,,,,,1,,,,,,,,,,,,,,,,,,,,,,,,,,,447.497555,55,left,0.50975,parrot      ,4,5,1,1,1,447.516375,447.516375,450.014685,0,54,54,54,1,55,4,3,parrot      ,clownfish     ,html/resources/sequences_IDs/B/05_parrot.jpg,html/resources/sequences_IDs/A/04_clownfish.jpg,5,4,2,1,2,1,4,3,0,12,,,,,,,,,,,,,,,,,,,,
,,,,,12,2020-07-01_09h32.38.916,retriever_ti,2020.1.3,Win32,60,Chrome,1366,768,,,,,,,,,,,,,,,,,1,,,,,,,,,,,,,,,,,,,,,,,,,,,451.107785,56,right,0.4539,giraffe     ,6,3,3,1,3,451.133925,451.133925,453.621065,0,55,55,55,1,56,3,6,clownfish     ,giraffe     ,html/resources/sequences_IDs/A/04_clownfish.jpg,html/resources/sequences_IDs/B/03_giraffe.jpg,4,3,2,1,1,1,3,2,0,12,,,,,,,,,,,,,,,,,,,,
,,,,,12,2020-07-01_09h32.38.916,retriever_ti,2020.1.3,Win32,60,Chrome,1366,768,,,,,,,,,,,,,,,,,1,,,,,,,,,,,,,,,,,,,,,,,,,,,454.24292,57,left,0.577945,radio       ,2,10,-4,0,3,454.28202,454.28202,456.77103,0,56,56,56,1,57,2,6,radio       ,giraffe     ,html/resources/sequences_IDs/B/10_radio.jpg,html/resources/sequences_IDs/B/03_giraffe.jpg,10,3,4,2,1,1,8,2,0,12,,,,,,,,,,,,,,,,,,,,
,,,,,12,2020-07-01_09h32.38.916,retriever_ti,2020.1.3,Win32,60,Chrome,1366,768,,,,,,,,,,,,,,,,,1,,,,,,,,,,,,,,,,,,,,,,,,,,,457.390405,58,left,0.3952,redfox      ,8,1,1,1,0,457.412015,457.412015,459.90383,0,57,57,57,1,58,8,7,redfox      ,hat           ,html/resources/sequences_IDs/B/01_redfox.jpg,html/resources/sequences_IDs/A/08_hat.jpg,1,8,1,1,3,2,1,6,1,12,,,,,,,,,,,,,,,,,,,,
,,,,,12,2020-07-01_09h32.38.916,retriever_ti,2020.1.3,Win32,60,Chrome,1366,768,,,,,,,,,,,,,,,,,1,,,,,,,,,,,,,,,,,,,,,,,,,,,461.006455,59,left,0.004015,hat           ,7,8,2,1,3,461.023625,461.023625,463.52054,0,58,58,58,1,59,7,5,hat           ,dress         ,html/resources/sequences_IDs/A/08_hat.jpg,html/resources/sequences_IDs/A/07_dress.jpg,8,7,3,2,3,2,6,5,0,12,,,,,,,,,,,,,,,,,,,,
,,,,,12,2020-07-01_09h32.38.916,retriever_ti,2020.1.3,Win32,60,Chrome,1366,768,,,,,,,,,,,,,,,,,1,,,,,,,,,,,,,,,,,,,,,,,,,,,464.140505,60,right,2.039655,clownfish     ,3,4,-1,0,0,464.17539,464.17539,466.70268,0,59,59,59,1,60,4,3,parrot      ,clownfish     ,html/resources/sequences_IDs/B/05_parrot.jpg,html/resources/sequences_IDs/A/04_clownfish.jpg,5,4,2,1,2,1,4,3,0,12,,,,,,,,,,,,,,,,,,,,
,,,,,12,2020-07-01_09h32.38.916,retriever_ti,2020.1.3,Win32,60,Chrome,1366,768,,,,,,,,,,,,,,,,,1,,,,,,,,,,,,,,,,,,,,,,,,,,,467.805115,61,right,1.189025,clownfish     ,3,4,-3,0,3,467.82498,467.82498,470.337275,0,60,60,60,1,61,6,3,giraffe     ,clownfish     ,html/resources/sequences_IDs/B/03_giraffe.jpg,html/resources/sequences_IDs/A/04_clownfish.jpg,3,4,1,1,2,1,2,3,0,12,,,,,,,,,,,,,,,,,,,,
,,,,,12,2020-07-01_09h32.38.916,retriever_ti,2020.1.3,Win32,60,Chrome,1366,768,,,,,,,,,,,,,,,,,1,,,,,,,,,,,,,,,,,,,,,,,,,,,470.957875,62,right,1.83978,giraffe     ,6,3,5,1,3,470.99178,470.99178,473.482765,0,61,61,61,1,62,1,6,calculator    ,giraffe     ,html/resources/sequences_IDs/A/09_calculator.jpg,html/resources/sequences_IDs/B/03_giraffe.jpg,9,3,4,2,1,1,7,2,0,12,,,,,,,,,,,,,,,,,,,,
,,,,,12,2020-07-01_09h32.38.916,retriever_ti,2020.1.3,Win32,60,Chrome,1366,768,,,,,,,,,,,,,,,,,1,,,,,,,,,,,,,,,,,,,,,,,,,,,474.089105,63,left,0.755425,parrot      ,4,5,-3,0,3,474.114195,474.114195,476.607825,0,62,62,62,1,63,4,7,parrot      ,hat           ,html/resources/sequences_IDs/B/05_parrot.jpg,html/resources/sequences_IDs/A/08_hat.jpg,5,8,2,1,3,2,4,6,0,12,,,,,,,,,,,,,,,,,,,,
,,,,,12,2020-07-01_09h32.38.916,retriever_ti,2020.1.3,Win32,60,Chrome,1366,768,,,,,,,,,,,,,,,,,1,,,,,,,,,,,,,,,,,,,,,,,,,,,477.22557,64,left,0.64484,dress         ,5,7,1,1,1,477.24743,477.24743,479.802225,0,63,63,63,1,64,5,4,dress         ,parrot      ,html/resources/sequences_IDs/A/07_dress.jpg,html/resources/sequences_IDs/B/05_parrot.jpg,7,5,3,2,2,1,5,4,0,12,,,,,,,,,,,,,,,,,,,,
,,,,,12,2020-07-01_09h32.38.916,retriever_ti,2020.1.3,Win32,60,Chrome,1366,768,,,,,,,,,,,,,,,,,1,,,,,,,,,,,,,,,,,,,,,,,,,,,480.90524,65,right,0.628215,calculator    ,1,9,-2,0,3,480.946845,480.946845,483.44818,0,64,64,64,1,65,3,1,clownfish     ,calculator    ,html/resources/sequences_IDs/A/04_clownfish.jpg,html/resources/sequences_IDs/A/09_calculator.jpg,4,9,2,1,4,2,3,7,0,12,,,,,,,,,,,,,,,,,,,,
,,,,,12,2020-07-01_09h32.38.916,retriever_ti,2020.1.3,Win32,60,Chrome,1366,768,,,,,,,,,,,,,,,,,1,,,,,,,,,,,,,,,,,,,,,,,,,,,484.4172,66,left,0.411235,dress         ,5,7,3,1,3,484.43467,484.43467,486.91881,0,65,65,65,1,66,5,2,dress         ,radio       ,html/resources/sequences_IDs/A/07_dress.jpg,html/resources/sequences_IDs/B/10_radio.jpg,7,10,3,2,4,2,5,8,0,12,,,,,,,,,,,,,,,,,,,,
,,,,,12,2020-07-01_09h32.38.916,retriever_ti,2020.1.3,Win32,60,Chrome,1366,768,,,,,,,,,,,,,,,,,1,,,,,,,,,,,,,,,,,,,,,,,,,,,487.539375,67,right,0.983875,dress         ,5,7,1,1,0,487.57354,487.57354,490.176385,0,66,66,66,1,67,4,5,parrot      ,dress         ,html/resources/sequences_IDs/B/05_parrot.jpg,html/resources/sequences_IDs/A/07_dress.jpg,5,7,2,1,3,2,4,5,1,12,,,,,,,,,,,,,,,,,,,,
,,,,,12,2020-07-01_09h32.38.916,retriever_ti,2020.1.3,Win32,60,Chrome,1366,768,,,,,,,,,,,,,,,,,1,,,,,,,,,,,,,,,,,,,,,,,,,,,491.2706,68,right,0.5677,clownfish     ,3,4,-5,0,3,491.289825,491.289825,493.7753,0,67,67,67,1,68,8,3,redfox      ,clownfish     ,html/resources/sequences_IDs/B/01_redfox.jpg,html/resources/sequences_IDs/A/04_clownfish.jpg,1,4,1,1,2,1,1,3,0,12,,,,,,,,,,,,,,,,,,,,
,,,,,12,2020-07-01_09h32.38.916,retriever_ti,2020.1.3,Win32,60,Chrome,1366,768,,,,,,,,,,,,,,,,,1,,,,,,,,,,,,,,,,,,,,,,,,,,,494.39038,69,left,1.717335,calculator    ,1,9,-1,0,0,494.429645,494.429645,496.918615,0,68,68,68,1,69,1,2,calculator    ,radio       ,html/resources/sequences_IDs/A/09_calculator.jpg,html/resources/sequences_IDs/B/10_radio.jpg,9,10,4,2,4,2,7,8,0,12,,,,,,,,,,,,,,,,,,,,
,,,,,12,2020-07-01_09h32.38.916,retriever_ti,2020.1.3,Win32,60,Chrome,1366,768,,,,,,,,,,,,,,,,,1,,,,,,,,,,,,,,,,,,,,,,,,,,,498.02184,70,right,0.653205,giraffe     ,6,3,-1,0,0,498.05675,498.05675,500.644385,0,69,69,69,1,70,7,6,hat           ,giraffe     ,html/resources/sequences_IDs/A/08_hat.jpg,html/resources/sequences_IDs/B/03_giraffe.jpg,8,3,3,2,1,1,6,2,0,12,,,,,,,,,,,,,,,,,,,,
,,,,,12,2020-07-01_09h32.38.916,retriever_ti,2020.1.3,Win32,60,Chrome,1366,768,,,,,,,,,,,,,,,,,1,,,,,,,,,,,,,,,,,,,,,,,,,,,501.737865,71,left,0.6578,parrot      ,4,5,-4,0,3,501.78075,501.78075,504.355295,0,70,70,70,1,71,4,8,parrot      ,redfox      ,html/resources/sequences_IDs/B/05_parrot.jpg,html/resources/sequences_IDs/B/01_redfox.jpg,5,1,2,1,1,1,4,1,0,12,,,,,,,,,,,,,,,,,,,,
,,,,,12,2020-07-01_09h32.38.916,retriever_ti,2020.1.3,Win32,60,Chrome,1366,768,,,,,,,,,,,,,,,,,1,,,,,,,,,,,,,,,,,,,,,,,,,,,504.970545,72,left,0.00188,dress         ,5,7,1,1,1,505.0062,505.0062,507.501205,0,71,71,71,1,72,5,4,dress         ,parrot      ,html/resources/sequences_IDs/A/07_dress.jpg,html/resources/sequences_IDs/B/05_parrot.jpg,7,5,3,2,2,1,5,4,0,12,,,,,,,,,,,,,,,,,,,,
,,,,,12,2020-07-01_09h32.38.916,retriever_ti,2020.1.3,Win32,60,Chrome,1366,768,,,,,,,,,,,,,,,,,1,,,,,,,,,,,,,,,,,,,,,,,,,,,508.60567,73,left,0.774575,dress         ,5,7,-1,0,0,508.6399,508.6399,511.35764,0,72,72,72,1,73,5,6,dress         ,giraffe     ,html/resources/sequences_IDs/A/07_dress.jpg,html/resources/sequences_IDs/B/03_giraffe.jpg,7,3,3,2,1,1,5,2,0,12,,,,,,,,,,,,,,,,,,,,
,,,,,12,2020-07-01_09h32.38.916,retriever_ti,2020.1.3,Win32,60,Chrome,1366,768,,,,,,,,,,,,,,,,,1,,,,,,,,,,,,,,,,,,,,,,,,,,,512.45545,74,left,1.06315,clownfish     ,3,4,-1,0,0,512.489635,512.489635,514.98463,0,73,73,73,1,74,3,4,clownfish     ,parrot      ,html/resources/sequences_IDs/A/04_clownfish.jpg,html/resources/sequences_IDs/B/05_parrot.jpg,4,5,2,1,2,1,3,4,0,12,,,,,,,,,,,,,,,,,,,,
,,,,,12,2020-07-01_09h32.38.916,retriever_ti,2020.1.3,Win32,60,Chrome,1366,768,,,,,,,,,,,,,,,,,1,,,,,,,,,,,,,,,,,,,,,,,,,,,516.08732,75,left,0.991615,dress         ,5,7,-3,0,3,516.121825,516.121825,518.62751,0,74,74,74,1,75,5,8,dress         ,redfox      ,html/resources/sequences_IDs/A/07_dress.jpg,html/resources/sequences_IDs/B/01_redfox.jpg,7,1,3,2,1,1,5,1,0,12,,,,,,,,,,,,,,,,,,,,
,,,,,12,2020-07-01_09h32.38.916,retriever_ti,2020.1.3,Win32,60,Chrome,1366,768,,,,,,,,,,,,,,,,,1,,,,,,,,,,,,,,,,,,,,,,,,,,,519.2367,76,left,1.21886,radio       ,2,10,-2,0,3,519.259745,519.259745,521.885285,0,75,75,75,1,76,2,4,radio       ,parrot      ,html/resources/sequences_IDs/B/10_radio.jpg,html/resources/sequences_IDs/B/05_parrot.jpg,10,5,4,2,2,1,8,4,0,12,,,,,,,,,,,,,,,,,,,,
,,,,,12,2020-07-01_09h32.38.916,retriever_ti,2020.1.3,Win32,60,Chrome,1366,768,,,,,,,,,,,,,,,,,1,,,,,,,,,,,,,,,,,,,,,,,,,,,522.508375,77,left,0.851165,calculator    ,1,9,-6,0,3,522.52833,522.52833,525.018425,0,76,76,76,1,77,1,7,calculator    ,hat           ,html/resources/sequences_IDs/A/09_calculator.jpg,html/resources/sequences_IDs/A/08_hat.jpg,9,8,4,2,3,2,7,6,0,12,,,,,,,,,,,,,,,,,,,,
,,,,,12,2020-07-01_09h32.38.916,retriever_ti,2020.1.3,Win32,60,Chrome,1366,768,,,,,,,,,,,,,,,,,,,,,,,,,,,,,,,,,,,,,0,4.51825,,,,,,,,,,,,,,,,,,,,,,,,,,,,,,,,,,,,,,,,,0,0,0,0,1,,,,,,,,,,,,,,,
,,,,,12,2020-07-01_09h32.38.916,retriever_ti,2020.1.3,Win32,60,Chrome,1366,768,,,,,,,,,,,,,,,,,2,,,,,,,,,,,,,,,,,,,,,,,,,,,556.1537,78,left,0.88166,clownfish     ,3,4,-1,0,0,556.165565,556.165565,558.666015,0,0,0,0,1,78,3,4,clownfish     ,parrot      ,html/resources/sequences_IDs/A/04_clownfish.jpg,html/resources/sequences_IDs/B/05_parrot.jpg,4,5,2,1,2,1,3,4,0,12,,,,,,,,,,,,,,,,,,,,
,,,,,12,2020-07-01_09h32.38.916,retriever_ti,2020.1.3,Win32,60,Chrome,1366,768,,,,,,,,,,,,,,,,,2,,,,,,,,,,,,,,,,,,,,,,,,,,,559.768345,79,right,0.43956,redfox      ,8,1,3,1,3,559.787505,559.787505,562.28296,0,1,1,1,1,79,5,8,dress         ,redfox      ,html/resources/sequences_IDs/A/07_dress.jpg,html/resources/sequences_IDs/B/01_redfox.jpg,7,1,3,2,1,1,5,1,0,12,,,,,,,,,,,,,,,,,,,,
,,,,,12,2020-07-01_09h32.38.916,retriever_ti,2020.1.3,Win32,60,Chrome,1366,768,,,,,,,,,,,,,,,,,2,,,,,,,,,,,,,,,,,,,,,,,,,,,562.90354,80,left,0.564145,giraffe     ,6,3,-1,0,0,562.919865,562.919865,565.415655,0,2,2,2,1,80,6,7,giraffe     ,hat           ,html/resources/sequences_IDs/B/03_giraffe.jpg,html/resources/sequences_IDs/A/08_hat.jpg,3,8,1,1,3,2,2,6,0,12,,,,,,,,,,,,,,,,,,,,
,,,,,12,2020-07-01_09h32.38.916,retriever_ti,2020.1.3,Win32,60,Chrome,1366,768,,,,,,,,,,,,,,,,,2,,,,,,,,,,,,,,,,,,,,,,,,,,,566.519465,81,left,0.97402,calculator    ,1,9,-1,0,0,566.55156,566.55156,569.048945,0,3,3,3,1,81,1,2,calculator    ,radio       ,html/resources/sequences_IDs/A/09_calculator.jpg,html/resources/sequences_IDs/B/10_radio.jpg,9,10,4,2,4,2,7,8,0,12,,,,,,,,,,,,,,,,,,,,
,,,,,12,2020-07-01_09h32.38.916,retriever_ti,2020.1.3,Win32,60,Chrome,1366,768,,,,,,,,,,,,,,,,,2,,,,,,,,,,,,,,,,,,,,,,,,,,,570.15097,82,right,0.45603,dress         ,5,7,-1,0,0,570.1694,570.1694,572.66599,0,4,4,4,1,82,6,5,giraffe     ,dress         ,html/resources/sequences_IDs/B/03_giraffe.jpg,html/resources/sequences_IDs/A/07_dress.jpg,3,7,1,1,3,2,2,5,0,12,,,,,,,,,,,,,,,,,,,,
,,,,,12,2020-07-01_09h32.38.916,retriever_ti,2020.1.3,Win32,60,Chrome,1366,768,,,,,,,,,,,,,,,,,2,,,,,,,,,,,,,,,,,,,,,,,,,,,573.769305,83,left,0.43813,redfox      ,8,1,2,1,3,573.803175,573.803175,576.29815,0,5,5,5,1,83,8,6,redfox      ,giraffe     ,html/resources/sequences_IDs/B/01_redfox.jpg,html/resources/sequences_IDs/B/03_giraffe.jpg,1,3,1,1,1,1,1,2,0,12,,,,,,,,,,,,,,,,,,,,
,,,,,12,2020-07-01_09h32.38.916,retriever_ti,2020.1.3,Win32,60,Chrome,1366,768,,,,,,,,,,,,,,,,,2,,,,,,,,,,,,,,,,,,,,,,,,,,,576.90196,84,left,0.489275,calculator    ,1,9,-5,0,3,576.919515,576.919515,579.94835,0,6,6,6,1,84,1,6,calculator    ,giraffe     ,html/resources/sequences_IDs/A/09_calculator.jpg,html/resources/sequences_IDs/B/03_giraffe.jpg,9,3,4,2,1,1,7,2,0,12,,,,,,,,,,,,,,,,,,,,
,,,,,12,2020-07-01_09h32.38.916,retriever_ti,2020.1.3,Win32,60,Chrome,1366,768,,,,,,,,,,,,,,,,,2,,,,,,,,,,,,,,,,,,,,,,,,,,,580.55247,85,right,0.53247,dress         ,5,7,1,1,0,580.58551,580.58551,583.63593,0,7,7,7,1,85,4,5,parrot      ,dress         ,html/resources/sequences_IDs/B/05_parrot.jpg,html/resources/sequences_IDs/A/07_dress.jpg,5,7,2,1,3,2,4,5,1,12,,,,,,,,,,,,,,,,,,,,
,,,,,12,2020-07-01_09h32.38.916,retriever_ti,2020.1.3,Win32,60,Chrome,1366,768,,,,,,,,,,,,,,,,,2,,,,,,,,,,,,,,,,,,,,,,,,,,,584.736965,86,left,0.603385,radio       ,2,10,-3,0,3,584.75478,584.75478,587.24888,0,8,8,8,1,86,2,5,radio       ,dress         ,html/resources/sequences_IDs/B/10_radio.jpg,html/resources/sequences_IDs/A/07_dress.jpg,10,7,4,2,3,2,8,5,0,12,,,,,,,,,,,,,,,,,,,,
,,,,,12,2020-07-01_09h32.38.916,retriever_ti,2020.1.3,Win32,60,Chrome,1366,768,,,,,,,,,,,,,,,,,2,,,,,,,,,,,,,,,,,,,,,,,,,,,587.865395,87,right,0.735635,parrot      ,4,5,-2,0,3,587.90205,587.90205,590.39883,0,9,9,9,1,87,6,4,giraffe     ,parrot      ,html/resources/sequences_IDs/B/03_giraffe.jpg,html/resources/sequences_IDs/B/05_parrot.jpg,3,5,1,1,2,1,2,4,0,12,,,,,,,,,,,,,,,,,,,,
,,,,,12,2020-07-01_09h32.38.916,retriever_ti,2020.1.3,Win32,60,Chrome,1366,768,,,,,,,,,,,,,,,,,2,,,,,,,,,,,,,,,,,,,,,,,,,,,591.0209,88,left,0.481075,hat           ,7,8,-1,0,0,591.05202,591.05202,593.547815,0,10,10,10,1,88,7,8,hat           ,redfox      ,html/resources/sequences_IDs/A/08_hat.jpg,html/resources/sequences_IDs/B/01_redfox.jpg,8,1,3,2,1,1,6,1,0,12,,,,,,,,,,,,,,,,,,,,
,,,,,12,2020-07-01_09h32.38.916,retriever_ti,2020.1.3,Win32,60,Chrome,1366,768,,,,,,,,,,,,,,,,,2,,,,,,,,,,,,,,,,,,,,,,,,,,,594.6508,89,right,0.60368,giraffe     ,6,3,-1,0,0,594.667735,594.667735,597.16464,0,11,11,11,1,89,7,6,hat           ,giraffe     ,html/resources/sequences_IDs/A/08_hat.jpg,html/resources/sequences_IDs/B/03_giraffe.jpg,8,3,3,2,1,1,6,2,0,12,,,,,,,,,,,,,,,,,,,,
,,,,,12,2020-07-01_09h32.38.916,retriever_ti,2020.1.3,Win32,60,Chrome,1366,768,,,,,,,,,,,,,,,,,2,,,,,,,,,,,,,,,,,,,,,,,,,,,598.265825,90,left,0.39307,dress         ,5,7,-1,0,0,598.285275,598.285275,600.78237,0,12,12,12,1,90,5,6,dress         ,giraffe     ,html/resources/sequences_IDs/A/07_dress.jpg,html/resources/sequences_IDs/B/03_giraffe.jpg,7,3,3,2,1,1,5,2,0,12,,,,,,,,,,,,,,,,,,,,
,,,,,12,2020-07-01_09h32.38.916,retriever_ti,2020.1.3,Win32,60,Chrome,1366,768,,,,,,,,,,,,,,,,,2,,,,,,,,,,,,,,,,,,,,,,,,,,,601.884215,91,left,0.647445,clownfish     ,3,4,-4,0,3,601.901965,601.901965,604.397645,0,13,13,13,1,91,3,7,clownfish     ,hat           ,html/resources/sequences_IDs/A/04_clownfish.jpg,html/resources/sequences_IDs/A/08_hat.jpg,4,8,2,1,3,2,3,6,0,12,,,,,,,,,,,,,,,,,,,,
,,,,,12,2020-07-01_09h32.38.916,retriever_ti,2020.1.3,Win32,60,Chrome,1366,768,,,,,,,,,,,,,,,,,2,,,,,,,,,,,,,,,,,,,,,,,,,,,605.019415,92,right,0.858265,clownfish     ,3,4,1,1,1,605.053125,605.053125,607.5473,0,14,14,14,1,92,2,3,radio       ,clownfish     ,html/resources/sequences_IDs/B/10_radio.jpg,html/resources/sequences_IDs/A/04_clownfish.jpg,10,4,4,2,2,1,8,3,0,12,,,,,,,,,,,,,,,,,,,,
,,,,,12,2020-07-01_09h32.38.916,retriever_ti,2020.1.3,Win32,60,Chrome,1366,768,,,,,,,,,,,,,,,,,2,,,,,,,,,,,,,,,,,,,,,,,,,,,608.650785,93,left,0.46939,giraffe     ,6,3,1,1,1,608.6675,608.6675,611.163525,0,15,15,15,1,93,6,5,giraffe     ,dress         ,html/resources/sequences_IDs/B/03_giraffe.jpg,html/resources/sequences_IDs/A/07_dress.jpg,3,7,1,1,3,2,2,5,0,12,,,,,,,,,,,,,,,,,,,,
,,,,,12,2020-07-01_09h32.38.916,retriever_ti,2020.1.3,Win32,60,Chrome,1366,768,,,,,,,,,,,,,,,,,2,,,,,,,,,,,,,,,,,,,,,,,,,,,612.268055,94,right,0.84772,calculator    ,1,9,-7,0,3,612.28396,612.28396,614.780055,0,16,16,16,1,94,8,1,redfox      ,calculator    ,html/resources/sequences_IDs/B/01_redfox.jpg,html/resources/sequences_IDs/A/09_calculator.jpg,1,9,1,1,4,2,1,7,0,12,,,,,,,,,,,,,,,,,,,,
,,,,,12,2020-07-01_09h32.38.916,retriever_ti,2020.1.3,Win32,60,Chrome,1366,768,,,,,,,,,,,,,,,,,2,,,,,,,,,,,,,,,,,,,,,,,,,,,615.400695,95,right,0.760815,redfox      ,8,1,1,1,1,615.416945,615.416945,617.91344,0,17,17,17,1,95,7,8,hat           ,redfox      ,html/resources/sequences_IDs/A/08_hat.jpg,html/resources/sequences_IDs/B/01_redfox.jpg,8,1,3,2,1,1,6,1,0,12,,,,,,,,,,,,,,,,,,,,
,,,,,12,2020-07-01_09h32.38.916,retriever_ti,2020.1.3,Win32,60,Chrome,1366,768,,,,,,,,,,,,,,,,,2,,,,,,,,,,,,,,,,,,,,,,,,,,,619.01653,96,left,0.57635,calculator    ,1,9,-7,0,3,619.033755,619.033755,621.5296,0,18,18,18,1,96,1,8,calculator    ,redfox      ,html/resources/sequences_IDs/A/09_calculator.jpg,html/resources/sequences_IDs/B/01_redfox.jpg,9,1,4,2,1,1,7,1,0,12,,,,,,,,,,,,,,,,,,,,
,,,,,12,2020-07-01_09h32.38.916,retriever_ti,2020.1.3,Win32,60,Chrome,1366,768,,,,,,,,,,,,,,,,,2,,,,,,,,,,,,,,,,,,,,,,,,,,,622.131595,97,right,0.729725,calculator    ,1,9,-3,0,3,622.149985,622.149985,624.645805,0,19,19,19,1,97,4,1,parrot      ,calculator    ,html/resources/sequences_IDs/B/05_parrot.jpg,html/resources/sequences_IDs/A/09_calculator.jpg,5,9,2,1,4,2,4,7,0,12,,,,,,,,,,,,,,,,,,,,
,,,,,12,2020-07-01_09h32.38.916,retriever_ti,2020.1.3,Win32,60,Chrome,1366,768,,,,,,,,,,,,,,,,,2,,,,,,,,,,,,,,,,,,,,,,,,,,,625.2653,98,right,0.61124,dress         ,5,7,2,1,3,625.28328,625.28328,627.780315,0,20,20,20,1,98,3,5,clownfish     ,dress         ,html/resources/sequences_IDs/A/04_clownfish.jpg,html/resources/sequences_IDs/A/07_dress.jpg,4,7,2,1,3,2,3,5,0,12,,,,,,,,,,,,,,,,,,,,
,,,,,12,2020-07-01_09h32.38.916,retriever_ti,2020.1.3,Win32,60,Chrome,1366,768,,,,,,,,,,,,,,,,,2,,,,,,,,,,,,,,,,,,,,,,,,,,,628.39712,99,left,0.49074,dress         ,5,7,1,1,1,628.41629,628.41629,630.91306,0,21,21,21,1,99,5,4,dress         ,parrot      ,html/resources/sequences_IDs/A/07_dress.jpg,html/resources/sequences_IDs/B/05_parrot.jpg,7,5,3,2,2,1,5,4,0,12,,,,,,,,,,,,,,,,,,,,
,,,,,12,2020-07-01_09h32.38.916,retriever_ti,2020.1.3,Win32,60,Chrome,1366,768,,,,,,,,,,,,,,,,,2,,,,,,,,,,,,,,,,,,,,,,,,,,,632.01658,100,right,0.42422,dress         ,5,7,-2,0,3,632.05099,632.05099,634.546275,0,22,22,22,1,100,7,5,hat           ,dress         ,html/resources/sequences_IDs/A/08_hat.jpg,html/resources/sequences_IDs/A/07_dress.jpg,8,7,3,2,3,2,6,5,0,12,,,,,,,,,,,,,,,,,,,,
,,,,,12,2020-07-01_09h32.38.916,retriever_ti,2020.1.3,Win32,60,Chrome,1366,768,,,,,,,,,,,,,,,,,2,,,,,,,,,,,,,,,,,,,,,,,,,,,635.166595,101,left,0.447585,redfox      ,8,1,1,1,1,635.183575,635.183575,637.679025,0,23,23,23,1,101,8,7,redfox      ,hat           ,html/resources/sequences_IDs/B/01_redfox.jpg,html/resources/sequences_IDs/A/08_hat.jpg,1,8,1,1,3,2,1,6,0,12,,,,,,,,,,,,,,,,,,,,
,,,,,12,2020-07-01_09h32.38.916,retriever_ti,2020.1.3,Win32,60,Chrome,1366,768,,,,,,,,,,,,,,,,,2,,,,,,,,,,,,,,,,,,,,,,,,,,,638.78257,102,left,0.42183,parrot      ,4,5,1,1,1,638.817175,638.817175,641.31188,0,24,24,24,1,102,4,3,parrot      ,clownfish     ,html/resources/sequences_IDs/B/05_parrot.jpg,html/resources/sequences_IDs/A/04_clownfish.jpg,5,4,2,1,2,1,4,3,0,12,,,,,,,,,,,,,,,,,,,,
,,,,,12,2020-07-01_09h32.38.916,retriever_ti,2020.1.3,Win32,60,Chrome,1366,768,,,,,,,,,,,,,,,,,2,,,,,,,,,,,,,,,,,,,,,,,,,,,642.415325,103,right,0.48229,radio       ,2,10,-1,0,0,642.43332,642.43332,644.92892,0,25,25,25,1,103,3,2,clownfish     ,radio       ,html/resources/sequences_IDs/A/04_clownfish.jpg,html/resources/sequences_IDs/B/10_radio.jpg,4,10,2,1,4,2,3,8,0,12,,,,,,,,,,,,,,,,,,,,
,,,,,12,2020-07-01_09h32.38.916,retriever_ti,2020.1.3,Win32,60,Chrome,1366,768,,,,,,,,,,,,,,,,,2,,,,,,,,,,,,,,,,,,,,,,,,,,,646.03152,104,left,0.37553,parrot      ,4,5,-1,0,0,646.049695,646.049695,648.545165,0,26,26,26,1,104,4,5,parrot      ,dress         ,html/resources/sequences_IDs/B/05_parrot.jpg,html/resources/sequences_IDs/A/07_dress.jpg,5,7,2,1,3,2,4,5,0,12,,,,,,,,,,,,,,,,,,,,
,,,,,12,2020-07-01_09h32.38.916,retriever_ti,2020.1.3,Win32,60,Chrome,1366,768,,,,,,,,,,,,,,,,,2,,,,,,,,,,,,,,,,,,,,,,,,,,,649.64907,105,left,0.698375,redfox      ,8,1,1,1,0,649.66703,649.66703,652.167645,0,27,27,27,1,105,8,7,redfox      ,hat           ,html/resources/sequences_IDs/B/01_redfox.jpg,html/resources/sequences_IDs/A/08_hat.jpg,1,8,1,1,3,2,1,6,1,12,,,,,,,,,,,,,,,,,,,,
,,,,,12,2020-07-01_09h32.38.916,retriever_ti,2020.1.3,Win32,60,Chrome,1366,768,,,,,,,,,,,,,,,,,2,,,,,,,,,,,,,,,,,,,,,,,,,,,653.264925,106,left,0.922955,dress         ,5,7,3,1,3,653.30039,653.30039,655.861565,0,28,28,28,1,106,5,2,dress         ,radio       ,html/resources/sequences_IDs/A/07_dress.jpg,html/resources/sequences_IDs/B/10_radio.jpg,7,10,3,2,4,2,5,8,0,12,,,,,,,,,,,,,,,,,,,,
,,,,,12,2020-07-01_09h32.38.916,retriever_ti,2020.1.3,Win32,60,Chrome,1366,768,,,,,,,,,,,,,,,,,2,,,,,,,,,,,,,,,,,,,,,,,,,,,656.482295,107,left,0.56496,radio       ,2,10,-2,0,3,656.501465,656.501465,659.374285,0,29,29,29,1,107,2,4,radio       ,parrot      ,html/resources/sequences_IDs/B/10_radio.jpg,html/resources/sequences_IDs/B/05_parrot.jpg,10,5,4,2,2,1,8,4,0,12,,,,,,,,,,,,,,,,,,,,
,,,,,12,2020-07-01_09h32.38.916,retriever_ti,2020.1.3,Win32,60,Chrome,1366,768,,,,,,,,,,,,,,,,,2,,,,,,,,,,,,,,,,,,,,,,,,,,,660.578065,108,right,0.673175,clownfish     ,3,4,-4,0,3,660.60943,660.60943,663.094865,0,30,30,30,1,108,7,3,hat           ,clownfish     ,html/resources/sequences_IDs/A/08_hat.jpg,html/resources/sequences_IDs/A/04_clownfish.jpg,8,4,3,2,2,1,6,3,0,12,,,,,,,,,,,,,,,,,,,,
,,,,,12,2020-07-01_09h32.38.916,retriever_ti,2020.1.3,Win32,60,Chrome,1366,768,,,,,,,,,,,,,,,,,2,,,,,,,,,,,,,,,,,,,,,,,,,,,663.715,109,left,0.4441,parrot      ,4,5,-4,0,3,663.73128,663.73128,666.227205,0,31,31,31,1,109,4,8,parrot      ,redfox      ,html/resources/sequences_IDs/B/05_parrot.jpg,html/resources/sequences_IDs/B/01_redfox.jpg,5,1,2,1,1,1,4,1,0,12,,,,,,,,,,,,,,,,,,,,
,,,,,12,2020-07-01_09h32.38.916,retriever_ti,2020.1.3,Win32,60,Chrome,1366,768,,,,,,,,,,,,,,,,,2,,,,,,,,,,,,,,,,,,,,,,,,,,,666.828955,110,left,0.648585,redfox      ,8,1,4,1,3,666.86491,666.86491,669.359935,0,32,32,32,1,110,8,4,redfox      ,parrot      ,html/resources/sequences_IDs/B/01_redfox.jpg,html/resources/sequences_IDs/B/05_parrot.jpg,1,5,1,1,2,1,1,4,0,12,,,,,,,,,,,,,,,,,,,,
,,,,,12,2020-07-01_09h32.38.916,retriever_ti,2020.1.3,Win32,60,Chrome,1366,768,,,,,,,,,,,,,,,,,2,,,,,,,,,,,,,,,,,,,,,,,,,,,669.979275,111,right,0.698305,redfox      ,8,1,2,1,3,670.013545,670.013545,672.51065,0,33,33,33,1,111,6,8,giraffe     ,redfox      ,html/resources/sequences_IDs/B/03_giraffe.jpg,html/resources/sequences_IDs/B/01_redfox.jpg,3,1,1,1,1,1,2,1,0,12,,,,,,,,,,,,,,,,,,,,
,,,,,12,2020-07-01_09h32.38.916,retriever_ti,2020.1.3,Win32,60,Chrome,1366,768,,,,,,,,,,,,,,,,,2,,,,,,,,,,,,,,,,,,,,,,,,,,,673.129115,112,left,0.58821,giraffe     ,6,3,5,1,3,673.14823,673.14823,675.64295,0,34,34,34,1,112,6,1,giraffe     ,calculator    ,html/resources/sequences_IDs/B/03_giraffe.jpg,html/resources/sequences_IDs/A/09_calculator.jpg,3,9,1,1,4,2,2,7,0,12,,,,,,,,,,,,,,,,,,,,
,,,,,12,2020-07-01_09h32.38.916,retriever_ti,2020.1.3,Win32,60,Chrome,1366,768,,,,,,,,,,,,,,,,,2,,,,,,,,,,,,,,,,,,,,,,,,,,,676.246115,113,right,0.453185,radio       ,2,10,1,1,1,676.279555,676.279555,678.776695,0,35,35,35,1,113,1,2,calculator    ,radio       ,html/resources/sequences_IDs/A/09_calculator.jpg,html/resources/sequences_IDs/B/10_radio.jpg,9,10,4,2,4,2,7,8,0,12,,,,,,,,,,,,,,,,,,,,
,,,,,12,2020-07-01_09h32.38.916,retriever_ti,2020.1.3,Win32,60,Chrome,1366,768,,,,,,,,,,,,,,,,,2,,,,,,,,,,,,,,,,,,,,,,,,,,,679.879655,114,right,0.52367,hat           ,7,8,5,1,3,679.914555,679.914555,682.409935,0,36,36,36,1,114,2,7,radio       ,hat           ,html/resources/sequences_IDs/B/10_radio.jpg,html/resources/sequences_IDs/A/08_hat.jpg,10,8,4,2,3,2,8,6,0,12,,,,,,,,,,,,,,,,,,,,
,,,,,12,2020-07-01_09h32.38.916,retriever_ti,2020.1.3,Win32,60,Chrome,1366,768,,,,,,,,,,,,,,,,,2,,,,,,,,,,,,,,,,,,,,,,,,,,,683.028105,115,right,0.734355,radio       ,2,10,-1,0,0,683.065265,683.065265,685.55988,0,37,37,37,1,115,3,2,clownfish     ,radio       ,html/resources/sequences_IDs/A/04_clownfish.jpg,html/resources/sequences_IDs/B/10_radio.jpg,4,10,2,1,4,2,3,8,0,12,,,,,,,,,,,,,,,,,,,,
,,,,,12,2020-07-01_09h32.38.916,retriever_ti,2020.1.3,Win32,60,Chrome,1366,768,,,,,,,,,,,,,,,,,2,,,,,,,,,,,,,,,,,,,,,,,,,,,686.66248,116,left,0.47628,calculator    ,1,9,-2,0,3,686.69627,686.69627,689.192725,0,38,38,38,1,116,1,3,calculator    ,clownfish     ,html/resources/sequences_IDs/A/09_calculator.jpg,html/resources/sequences_IDs/A/04_clownfish.jpg,9,4,4,2,2,1,7,3,0,12,,,,,,,,,,,,,,,,,,,,
,,,,,12,2020-07-01_09h32.38.916,retriever_ti,2020.1.3,Win32,60,Chrome,1366,768,,,,,,,,,,,,,,,,,2,,,,,,,,,,,,,,,,,,,,,,,,,,,689.812325,117,right,0.61846,hat           ,7,8,-1,0,0,689.84616,689.84616,692.3515,0,39,39,39,1,117,8,7,redfox      ,hat           ,html/resources/sequences_IDs/B/01_redfox.jpg,html/resources/sequences_IDs/A/08_hat.jpg,1,8,1,1,3,2,1,6,0,12,,,,,,,,,,,,,,,,,,,,
,,,,,12,2020-07-01_09h32.38.916,retriever_ti,2020.1.3,Win32,60,Chrome,1366,768,,,,,,,,,,,,,,,,,2,,,,,,,,,,,,,,,,,,,,,,,,,,,693.4458,118,left,0.55581,hat           ,7,8,3,1,3,693.46332,693.46332,695.960055,0,40,40,40,1,118,7,4,hat           ,parrot      ,html/resources/sequences_IDs/A/08_hat.jpg,html/resources/sequences_IDs/B/05_parrot.jpg,8,5,3,2,2,1,6,4,0,12,,,,,,,,,,,,,,,,,,,,
,,,,,12,2020-07-01_09h32.38.916,retriever_ti,2020.1.3,Win32,60,Chrome,1366,768,,,,,,,,,,,,,,,,,2,,,,,,,,,,,,,,,,,,,,,,,,,,,696.57837,119,right,0.538605,hat           ,7,8,1,1,1,696.597125,696.597125,699.09276,0,41,41,41,1,119,6,7,giraffe     ,hat           ,html/resources/sequences_IDs/B/03_giraffe.jpg,html/resources/sequences_IDs/A/08_hat.jpg,3,8,1,1,3,2,2,6,0,12,,,,,,,,,,,,,,,,,,,,
,,,,,12,2020-07-01_09h32.38.916,retriever_ti,2020.1.3,Win32,60,Chrome,1366,768,,,,,,,,,,,,,,,,,2,,,,,,,,,,,,,,,,,,,,,,,,,,,700.19564,120,right,0.43374,clownfish     ,3,4,-5,0,3,700.212395,700.212395,702.70952,0,42,42,42,1,120,8,3,redfox      ,clownfish     ,html/resources/sequences_IDs/B/01_redfox.jpg,html/resources/sequences_IDs/A/04_clownfish.jpg,1,4,1,1,2,1,1,3,0,12,,,,,,,,,,,,,,,,,,,,
,,,,,12,2020-07-01_09h32.38.916,retriever_ti,2020.1.3,Win32,60,Chrome,1366,768,,,,,,,,,,,,,,,,,2,,,,,,,,,,,,,,,,,,,,,,,,,,,703.32838,121,right,0.39194,clownfish     ,3,4,-1,0,0,703.34673,703.34673,705.842015,0,43,43,43,1,121,4,3,parrot      ,clownfish     ,html/resources/sequences_IDs/B/05_parrot.jpg,html/resources/sequences_IDs/A/04_clownfish.jpg,5,4,2,1,2,1,4,3,0,12,,,,,,,,,,,,,,,,,,,,
,,,,,12,2020-07-01_09h32.38.916,retriever_ti,2020.1.3,Win32,60,Chrome,1366,768,,,,,,,,,,,,,,,,,2,,,,,,,,,,,,,,,,,,,,,,,,,,,706.94456,122,left,0.570175,dress         ,5,7,-1,0,0,706.96198,706.96198,709.459055,0,44,44,44,1,122,5,6,dress         ,giraffe     ,html/resources/sequences_IDs/A/07_dress.jpg,html/resources/sequences_IDs/B/03_giraffe.jpg,7,3,3,2,1,1,5,2,0,12,,,,,,,,,,,,,,,,,,,,
,,,,,12,2020-07-01_09h32.38.916,retriever_ti,2020.1.3,Win32,60,Chrome,1366,768,,,,,,,,,,,,,,,,,2,,,,,,,,,,,,,,,,,,,,,,,,,,,710.56242,123,left,0.54431,hat           ,7,8,6,1,3,710.5801,710.5801,713.075735,0,45,45,45,1,123,7,1,hat           ,calculator    ,html/resources/sequences_IDs/A/08_hat.jpg,html/resources/sequences_IDs/A/09_calculator.jpg,8,9,3,2,4,2,6,7,0,12,,,,,,,,,,,,,,,,,,,,
,,,,,12,2020-07-01_09h32.38.916,retriever_ti,2020.1.3,Win32,60,Chrome,1366,768,,,,,,,,,,,,,,,,,2,,,,,,,,,,,,,,,,,,,,,,,,,,,713.69673,124,right,0.535275,giraffe     ,6,3,4,1,3,713.71361,713.71361,716.208745,0,46,46,46,1,124,2,6,radio       ,giraffe     ,html/resources/sequences_IDs/B/10_radio.jpg,html/resources/sequences_IDs/B/03_giraffe.jpg,10,3,4,2,1,1,8,2,0,12,,,,,,,,,,,,,,,,,,,,
,,,,,12,2020-07-01_09h32.38.916,retriever_ti,2020.1.3,Win32,60,Chrome,1366,768,,,,,,,,,,,,,,,,,2,,,,,,,,,,,,,,,,,,,,,,,,,,,716.82625,125,right,0.43736,hat           ,7,8,1,1,0,716.845545,716.845545,719.342305,0,47,47,47,1,125,6,7,giraffe     ,hat           ,html/resources/sequences_IDs/B/03_giraffe.jpg,html/resources/sequences_IDs/A/08_hat.jpg,3,8,1,1,3,2,2,6,1,12,,,,,,,,,,,,,,,,,,,,
,,,,,12,2020-07-01_09h32.38.916,retriever_ti,2020.1.3,Win32,60,Chrome,1366,768,,,,,,,,,,,,,,,,,2,,,,,,,,,,,,,,,,,,,,,,,,,,,720.44627,126,left,0.68192,calculator    ,1,9,-3,0,3,720.46278,720.46278,722.957885,0,48,48,48,1,126,1,4,calculator    ,parrot      ,html/resources/sequences_IDs/A/09_calculator.jpg,html/resources/sequences_IDs/B/05_parrot.jpg,9,5,4,2,2,1,7,4,0,12,,,,,,,,,,,,,,,,,,,,
,,,,,12,2020-07-01_09h32.38.916,retriever_ti,2020.1.3,Win32,60,Chrome,1366,768,,,,,,,,,,,,,,,,,2,,,,,,,,,,,,,,,,,,,,,,,,,,,723.562335,127,left,0.454315,dress         ,5,7,1,1,1,723.59513,723.59513,726.090915,0,49,49,49,1,127,5,4,dress         ,parrot      ,html/resources/sequences_IDs/A/07_dress.jpg,html/resources/sequences_IDs/B/05_parrot.jpg,7,5,3,2,2,1,5,4,0,12,,,,,,,,,,,,,,,,,,,,
,,,,,12,2020-07-01_09h32.38.916,retriever_ti,2020.1.3,Win32,60,Chrome,1366,768,,,,,,,,,,,,,,,,,2,,,,,,,,,,,,,,,,,,,,,,,,,,,727.192935,128,left,0.337755,giraffe     ,6,3,3,1,3,727.405335,727.405335,729.70819,0,50,50,50,1,128,6,3,giraffe     ,clownfish     ,html/resources/sequences_IDs/B/03_giraffe.jpg,html/resources/sequences_IDs/A/04_clownfish.jpg,3,4,1,1,2,1,2,3,0,12,,,,,,,,,,,,,,,,,,,,
,,,,,12,2020-07-01_09h32.38.916,retriever_ti,2020.1.3,Win32,60,Chrome,1366,768,,,,,,,,,,,,,,,,,2,,,,,,,,,,,,,,,,,,,,,,,,,,,730.3284,129,left,0.417895,radio       ,2,10,1,1,1,730.345625,730.345625,732.83138,0,51,51,51,1,129,2,1,radio       ,calculator    ,html/resources/sequences_IDs/B/10_radio.jpg,html/resources/sequences_IDs/A/09_calculator.jpg,10,9,4,2,4,2,8,7,0,12,,,,,,,,,,,,,,,,,,,,
,,,,,12,2020-07-01_09h32.38.916,retriever_ti,2020.1.3,Win32,60,Chrome,1366,768,,,,,,,,,,,,,,,,,2,,,,,,,,,,,,,,,,,,,,,,,,,,,734.31449,130,right,0.44069,dress         ,5,7,1,1,1,734.353715,734.353715,736.84749,0,52,52,52,1,130,4,5,parrot      ,dress         ,html/resources/sequences_IDs/B/05_parrot.jpg,html/resources/sequences_IDs/A/07_dress.jpg,5,7,2,1,3,2,4,5,0,12,,,,,,,,,,,,,,,,,,,,
,,,,,12,2020-07-01_09h32.38.916,retriever_ti,2020.1.3,Win32,60,Chrome,1366,768,,,,,,,,,,,,,,,,,2,,,,,,,,,,,,,,,,,,,,,,,,,,,737.94919,131,left,0.66622,clownfish     ,3,4,2,1,3,737.98533,737.98533,740.474265,0,53,53,53,1,131,3,1,clownfish     ,calculator    ,html/resources/sequences_IDs/A/04_clownfish.jpg,html/resources/sequences_IDs/A/09_calculator.jpg,4,9,2,1,4,2,3,7,0,12,,,,,,,,,,,,,,,,,,,,
,,,,,12,2020-07-01_09h32.38.916,retriever_ti,2020.1.3,Win32,60,Chrome,1366,768,,,,,,,,,,,,,,,,,2,,,,,,,,,,,,,,,,,,,,,,,,,,,741.09413,132,left,0.575395,hat           ,7,8,1,1,1,741.200535,741.200535,743.607635,0,54,54,54,1,132,7,6,hat           ,giraffe     ,html/resources/sequences_IDs/A/08_hat.jpg,html/resources/sequences_IDs/B/03_giraffe.jpg,8,3,3,2,1,1,6,2,0,12,,,,,,,,,,,,,,,,,,,,
,,,,,12,2020-07-01_09h32.38.916,retriever_ti,2020.1.3,Win32,60,Chrome,1366,768,,,,,,,,,,,,,,,,,2,,,,,,,,,,,,,,,,,,,,,,,,,,,744.71099,133,right,0.493585,hat           ,7,8,6,1,3,744.72852,744.72852,747.22372,0,55,55,55,1,133,1,7,calculator    ,hat           ,html/resources/sequences_IDs/A/09_calculator.jpg,html/resources/sequences_IDs/A/08_hat.jpg,9,8,4,2,3,2,7,6,0,12,,,,,,,,,,,,,,,,,,,,
,,,,,12,2020-07-01_09h32.38.916,retriever_ti,2020.1.3,Win32,60,Chrome,1366,768,,,,,,,,,,,,,,,,,2,,,,,,,,,,,,,,,,,,,,,,,,,,,747.984805,134,right,0.706605,redfox      ,8,1,5,1,3,748.02782,748.02782,750.523755,0,56,56,56,1,134,3,8,clownfish     ,redfox      ,html/resources/sequences_IDs/A/04_clownfish.jpg,html/resources/sequences_IDs/B/01_redfox.jpg,4,1,2,1,1,1,3,1,0,12,,,,,,,,,,,,,,,,,,,,
,,,,,12,2020-07-01_09h32.38.916,retriever_ti,2020.1.3,Win32,60,Chrome,1366,768,,,,,,,,,,,,,,,,,2,,,,,,,,,,,,,,,,,,,,,,,,,,,751.14407,135,left,0.61707,parrot      ,4,5,2,1,3,751.177935,751.177935,753.674165,0,57,57,57,1,135,4,2,parrot      ,radio       ,html/resources/sequences_IDs/B/05_parrot.jpg,html/resources/sequences_IDs/B/10_radio.jpg,5,10,2,1,4,2,4,8,0,12,,,,,,,,,,,,,,,,,,,,
,,,,,12,2020-07-01_09h32.38.916,retriever_ti,2020.1.3,Win32,60,Chrome,1366,768,,,,,,,,,,,,,,,,,2,,,,,,,,,,,,,,,,,,,,,,,,,,,754.29171,136,left,0.54963,clownfish     ,3,4,-1,0,0,754.31133,754.31133,756.806735,0,58,58,58,1,136,3,4,clownfish     ,parrot      ,html/resources/sequences_IDs/A/04_clownfish.jpg,html/resources/sequences_IDs/B/05_parrot.jpg,4,5,2,1,2,1,3,4,0,12,,,,,,,,,,,,,,,,,,,,
,,,,,12,2020-07-01_09h32.38.916,retriever_ti,2020.1.3,Win32,60,Chrome,1366,768,,,,,,,,,,,,,,,,,2,,,,,,,,,,,,,,,,,,,,,,,,,,,757.9104,137,left,0.668995,radio       ,2,10,1,1,1,757.9445,757.9445,760.43983,0,59,59,59,1,137,2,1,radio       ,calculator    ,html/resources/sequences_IDs/B/10_radio.jpg,html/resources/sequences_IDs/A/09_calculator.jpg,10,9,4,2,4,2,8,7,0,12,,,,,,,,,,,,,,,,,,,,
,,,,,12,2020-07-01_09h32.38.916,retriever_ti,2020.1.3,Win32,60,Chrome,1366,768,,,,,,,,,,,,,,,,,2,,,,,,,,,,,,,,,,,,,,,,,,,,,761.53973,138,left,0.509105,giraffe     ,6,3,4,1,3,761.55704,761.55704,764.05624,0,60,60,60,1,138,6,2,giraffe     ,radio       ,html/resources/sequences_IDs/B/03_giraffe.jpg,html/resources/sequences_IDs/B/10_radio.jpg,3,10,1,1,4,2,2,8,0,12,,,,,,,,,,,,,,,,,,,,
,,,,,12,2020-07-01_09h32.38.916,retriever_ti,2020.1.3,Win32,60,Chrome,1366,768,,,,,,,,,,,,,,,,,2,,,,,,,,,,,,,,,,,,,,,,,,,,,764.67643,139,right,0.49646,radio       ,2,10,-5,0,3,764.71065,764.71065,767.206525,0,61,61,61,1,139,7,2,hat           ,radio       ,html/resources/sequences_IDs/A/08_hat.jpg,html/resources/sequences_IDs/B/10_radio.jpg,8,10,3,2,4,2,6,8,0,12,,,,,,,,,,,,,,,,,,,,
,,,,,12,2020-07-01_09h32.38.916,retriever_ti,2020.1.3,Win32,60,Chrome,1366,768,,,,,,,,,,,,,,,,,2,,,,,,,,,,,,,,,,,,,,,,,,,,,767.824585,140,left,0.48257,calculator    ,1,9,-4,0,3,767.860925,767.860925,770.35613,0,62,62,62,1,140,1,5,calculator    ,dress         ,html/resources/sequences_IDs/A/09_calculator.jpg,html/resources/sequences_IDs/A/07_dress.jpg,9,7,4,2,3,2,7,5,0,12,,,,,,,,,,,,,,,,,,,,
,,,,,12,2020-07-01_09h32.38.916,retriever_ti,2020.1.3,Win32,60,Chrome,1366,768,,,,,,,,,,,,,,,,,2,,,,,,,,,,,,,,,,,,,,,,,,,,,770.960735,141,right,0.509725,calculator    ,1,9,-4,0,3,770.99445,770.99445,773.48917,0,63,63,63,1,141,5,1,dress         ,calculator    ,html/resources/sequences_IDs/A/07_dress.jpg,html/resources/sequences_IDs/A/09_calculator.jpg,7,9,3,2,4,2,5,7,0,12,,,,,,,,,,,,,,,,,,,,
,,,,,12,2020-07-01_09h32.38.916,retriever_ti,2020.1.3,Win32,60,Chrome,1366,768,,,,,,,,,,,,,,,,,2,,,,,,,,,,,,,,,,,,,,,,,,,,,774.107575,142,right,0.51305,giraffe     ,6,3,3,1,3,774.126135,774.126135,776.622265,0,64,64,64,1,142,3,6,clownfish     ,giraffe     ,html/resources/sequences_IDs/A/04_clownfish.jpg,html/resources/sequences_IDs/B/03_giraffe.jpg,4,3,2,1,1,1,3,2,0,12,,,,,,,,,,,,,,,,,,,,
,,,,,12,2020-07-01_09h32.38.916,retriever_ti,2020.1.3,Win32,60,Chrome,1366,768,,,,,,,,,,,,,,,,,2,,,,,,,,,,,,,,,,,,,,,,,,,,,777.22633,143,right,0.57812,redfox      ,8,1,6,1,3,777.24641,777.24641,779.738745,0,65,65,65,1,143,2,8,radio       ,redfox      ,html/resources/sequences_IDs/B/10_radio.jpg,html/resources/sequences_IDs/B/01_redfox.jpg,10,1,4,2,1,1,8,1,0,12,,,,,,,,,,,,,,,,,,,,
,,,,,12,2020-07-01_09h32.38.916,retriever_ti,2020.1.3,Win32,60,Chrome,1366,768,,,,,,,,,,,,,,,,,2,,,,,,,,,,,,,,,,,,,,,,,,,,,780.341255,144,left,0.54203,redfox      ,8,1,6,1,3,780.377015,780.377015,782.871945,0,66,66,66,1,144,8,2,redfox      ,radio       ,html/resources/sequences_IDs/B/01_redfox.jpg,html/resources/sequences_IDs/B/10_radio.jpg,1,10,1,1,4,2,1,8,0,12,,,,,,,,,,,,,,,,,,,,
,,,,,12,2020-07-01_09h32.38.916,retriever_ti,2020.1.3,Win32,60,Chrome,1366,768,,,,,,,,,,,,,,,,,2,,,,,,,,,,,,,,,,,,,,,,,,,,,783.49227,145,right,1.83593,giraffe     ,6,3,2,1,3,783.527035,783.527035,786.02212,0,67,67,67,1,145,4,6,parrot      ,giraffe     ,html/resources/sequences_IDs/B/05_parrot.jpg,html/resources/sequences_IDs/B/03_giraffe.jpg,5,3,2,1,1,1,4,2,0,12,,,,,,,,,,,,,,,,,,,,
,,,,,12,2020-07-01_09h32.38.916,retriever_ti,2020.1.3,Win32,60,Chrome,1366,768,,,,,,,,,,,,,,,,,2,,,,,,,,,,,,,,,,,,,,,,,,,,,786.641485,146,right,0.98558,clownfish     ,3,4,1,1,1,786.67521,786.67521,789.17221,0,68,68,68,1,146,2,3,radio       ,clownfish     ,html/resources/sequences_IDs/B/10_radio.jpg,html/resources/sequences_IDs/A/04_clownfish.jpg,10,4,4,2,2,1,8,3,0,12,,,,,,,,,,,,,,,,,,,,
,,,,,12,2020-07-01_09h32.38.916,retriever_ti,2020.1.3,Win32,60,Chrome,1366,768,,,,,,,,,,,,,,,,,2,,,,,,,,,,,,,,,,,,,,,,,,,,,790.2736,147,right,0.500075,clownfish     ,3,4,-2,0,3,790.293545,790.293545,792.788425,0,69,69,69,1,147,5,3,dress         ,clownfish     ,html/resources/sequences_IDs/A/07_dress.jpg,html/resources/sequences_IDs/A/04_clownfish.jpg,7,4,3,2,2,1,5,3,0,12,,,,,,,,,,,,,,,,,,,,
,,,,,12,2020-07-01_09h32.38.916,retriever_ti,2020.1.3,Win32,60,Chrome,1366,768,,,,,,,,,,,,,,,,,2,,,,,,,,,,,,,,,,,,,,,,,,,,,793.39273,148,left,0.47376,dress         ,5,7,-2,0,3,793.426025,793.426025,795.920835,0,70,70,70,1,148,5,7,dress         ,hat           ,html/resources/sequences_IDs/A/07_dress.jpg,html/resources/sequences_IDs/A/08_hat.jpg,7,8,3,2,3,2,5,6,0,12,,,,,,,,,,,,,,,,,,,,
,,,,,12,2020-07-01_09h32.38.916,retriever_ti,2020.1.3,Win32,60,Chrome,1366,768,,,,,,,,,,,,,,,,,2,,,,,,,,,,,,,,,,,,,,,,,,,,,796.522995,149,right,0.455335,dress         ,5,7,-3,0,3,796.54227,796.54227,799.03827,0,71,71,71,1,149,8,5,redfox      ,dress         ,html/resources/sequences_IDs/B/01_redfox.jpg,html/resources/sequences_IDs/A/07_dress.jpg,1,7,1,1,3,2,1,5,0,12,,,,,,,,,,,,,,,,,,,,
,,,,,12,2020-07-01_09h32.38.916,retriever_ti,2020.1.3,Win32,60,Chrome,1366,768,,,,,,,,,,,,,,,,,2,,,,,,,,,,,,,,,,,,,,,,,,,,,799.64231,150,right,0.401905,dress         ,5,7,-1,0,1,799.657865,799.657865,802.472295,0,72,72,72,1,150,6,5,giraffe     ,dress         ,html/resources/sequences_IDs/B/03_giraffe.jpg,html/resources/sequences_IDs/A/07_dress.jpg,3,7,1,1,3,2,2,5,1,12,,,,,,,,,,,,,,,,,,,,
,,,,,12,2020-07-01_09h32.38.916,retriever_ti,2020.1.3,Win32,60,Chrome,1366,768,,,,,,,,,,,,,,,,,2,,,,,,,,,,,,,,,,,,,,,,,,,,,803.59747,151,left,0.66213,clownfish     ,3,4,-1,0,1,803.641675,803.641675,806.24506,0,73,73,73,1,151,3,4,clownfish     ,parrot      ,html/resources/sequences_IDs/A/04_clownfish.jpg,html/resources/sequences_IDs/B/05_parrot.jpg,4,5,2,1,2,1,3,4,1,12,,,,,,,,,,,,,,,,,,,,
,,,,,12,2020-07-01_09h32.38.916,retriever_ti,2020.1.3,Win32,60,Chrome,1366,768,,,,,,,,,,,,,,,,,2,,,,,,,,,,,,,,,,,,,,,,,,,,,807.340855,152,right,0.43284,radio       ,2,10,1,1,0,807.373825,807.373825,809.871265,0,74,74,74,1,152,1,2,calculator    ,radio       ,html/resources/sequences_IDs/A/09_calculator.jpg,html/resources/sequences_IDs/B/10_radio.jpg,9,10,4,2,4,2,7,8,1,12,,,,,,,,,,,,,,,,,,,,
,,,,,12,2020-07-01_09h32.38.916,retriever_ti,2020.1.3,Win32,60,Chrome,1366,768,,,,,,,,,,,,,,,,,2,,,,,,,,,,,,,,,,,,,,,,,,,,,810.9736,153,left,0.60541,clownfish     ,3,4,1,1,0,810.99108,810.99108,813.48733,0,75,75,75,1,153,3,2,clownfish     ,radio       ,html/resources/sequences_IDs/A/04_clownfish.jpg,html/resources/sequences_IDs/B/10_radio.jpg,4,10,2,1,4,2,3,8,1,12,,,,,,,,,,,,,,,,,,,,
,,,,,12,2020-07-01_09h32.38.916,retriever_ti,2020.1.3,Win32,60,Chrome,1366,768,,,,,,,,,,,,,,,,,2,,,,,,,,,,,,,,,,,,,,,,,,,,,814.586995,154,right,0.4734,hat           ,7,8,3,1,3,815.753515,815.753515,817.120925,0,76,76,76,1,154,4,7,parrot      ,hat           ,html/resources/sequences_IDs/B/05_parrot.jpg,html/resources/sequences_IDs/A/08_hat.jpg,5,8,2,1,3,2,4,6,0,12,,,,,,,,,,,,,,,,,,,,
,,,,,12,2020-07-01_09h32.38.916,retriever_ti,2020.1.3,Win32,60,Chrome,1366,768,,,,,,,,,,,,,,,,,,,,,,,,,,,,,,,,,,,,,0,3.62914,,,,,,,,,,,,,,,,,,,,,,,,,,,,,,,,,,,,,,,,,1,0,1,0,1,,,,,,,,,,,,,,,
,,,,,12,2020-07-01_09h32.38.916,retriever_ti,2020.1.3,Win32,60,Chrome,1366,768,,,,,,,,,,,,,,,,,3,,,,,,,,,,,,,,,,,,,,,,,,,,,831.748565,155,right,0.79598,parrot      ,4,5,-3,0,3,831.828905,831.828905,834.286725,0,0,0,0,1,155,7,4,hat           ,parrot      ,html/resources/sequences_IDs/A/08_hat.jpg,html/resources/sequences_IDs/B/05_parrot.jpg,8,5,3,2,2,1,6,4,0,12,,,,,,,,,,,,,,,,,,,,
,,,,,12,2020-07-01_09h32.38.916,retriever_ti,2020.1.3,Win32,60,Chrome,1366,768,,,,,,,,,,,,,,,,,3,,,,,,,,,,,,,,,,,,,,,,,,,,,834.90555,156,right,0.5714,dress         ,5,7,-1,0,0,834.92497,834.92497,837.419565,0,1,1,1,1,156,6,5,giraffe     ,dress         ,html/resources/sequences_IDs/B/03_giraffe.jpg,html/resources/sequences_IDs/A/07_dress.jpg,3,7,1,1,3,2,2,5,0,12,,,,,,,,,,,,,,,,,,,,
,,,,,12,2020-07-01_09h32.38.916,retriever_ti,2020.1.3,Win32,60,Chrome,1366,768,,,,,,,,,,,,,,,,,3,,,,,,,,,,,,,,,,,,,,,,,,,,,838.52324,157,right,0.70832,calculator    ,1,9,-7,0,3,838.540365,838.540365,841.036305,0,2,2,2,1,157,8,1,redfox      ,calculator    ,html/resources/sequences_IDs/B/01_redfox.jpg,html/resources/sequences_IDs/A/09_calculator.jpg,1,9,1,1,4,2,1,7,0,12,,,,,,,,,,,,,,,,,,,,
,,,,,12,2020-07-01_09h32.38.916,retriever_ti,2020.1.3,Win32,60,Chrome,1366,768,,,,,,,,,,,,,,,,,3,,,,,,,,,,,,,,,,,,,,,,,,,,,841.65639,158,right,0.97665,dress         ,5,7,3,1,3,841.69001,841.69001,844.186885,0,3,3,3,1,158,2,5,radio       ,dress         ,html/resources/sequences_IDs/B/10_radio.jpg,html/resources/sequences_IDs/A/07_dress.jpg,10,7,4,2,3,2,8,5,0,12,,,,,,,,,,,,,,,,,,,,
,,,,,12,2020-07-01_09h32.38.916,retriever_ti,2020.1.3,Win32,60,Chrome,1366,768,,,,,,,,,,,,,,,,,3,,,,,,,,,,,,,,,,,,,,,,,,,,,844.803905,159,left,0.626055,giraffe     ,6,3,-2,0,3,844.840405,844.840405,847.33555,0,4,4,4,1,159,6,8,giraffe     ,redfox      ,html/resources/sequences_IDs/B/03_giraffe.jpg,html/resources/sequences_IDs/B/01_redfox.jpg,3,1,1,1,1,1,2,1,0,12,,,,,,,,,,,,,,,,,,,,
,,,,,12,2020-07-01_09h32.38.916,retriever_ti,2020.1.3,Win32,60,Chrome,1366,768,,,,,,,,,,,,,,,,,3,,,,,,,,,,,,,,,,,,,,,,,,,,,847.93955,160,left,1.042965,dress         ,5,7,2,1,3,847.97423,847.97423,850.46923,0,5,5,5,1,160,5,3,dress         ,clownfish     ,html/resources/sequences_IDs/A/07_dress.jpg,html/resources/sequences_IDs/A/04_clownfish.jpg,7,4,3,2,2,1,5,3,0,12,,,,,,,,,,,,,,,,,,,,
,,,,,12,2020-07-01_09h32.38.916,retriever_ti,2020.1.3,Win32,60,Chrome,1366,768,,,,,,,,,,,,,,,,,3,,,,,,,,,,,,,,,,,,,,,,,,,,,851.087665,161,left,0.588765,redfox      ,8,1,1,1,1,851.10633,851.10633,853.59326,0,6,6,6,1,161,8,7,redfox      ,hat           ,html/resources/sequences_IDs/B/01_redfox.jpg,html/resources/sequences_IDs/A/08_hat.jpg,1,8,1,1,3,2,1,6,0,12,,,,,,,,,,,,,,,,,,,,
,,,,,12,2020-07-01_09h32.38.916,retriever_ti,2020.1.3,Win32,60,Chrome,1366,768,,,,,,,,,,,,,,,,,3,,,,,,,,,,,,,,,,,,,,,,,,,,,854.68886,162,right,0.473125,redfox      ,8,1,6,1,3,854.707505,854.707505,857.202085,0,7,7,7,1,162,2,8,radio       ,redfox      ,html/resources/sequences_IDs/B/10_radio.jpg,html/resources/sequences_IDs/B/01_redfox.jpg,10,1,4,2,1,1,8,1,0,12,,,,,,,,,,,,,,,,,,,,
,,,,,12,2020-07-01_09h32.38.916,retriever_ti,2020.1.3,Win32,60,Chrome,1366,768,,,,,,,,,,,,,,,,,3,,,,,,,,,,,,,,,,,,,,,,,,,,,857.822425,163,left,0.45795,clownfish     ,3,4,-5,0,3,857.85692,857.85692,860.351855,0,8,8,8,1,163,3,8,clownfish     ,redfox      ,html/resources/sequences_IDs/A/04_clownfish.jpg,html/resources/sequences_IDs/B/01_redfox.jpg,4,1,2,1,1,1,3,1,0,12,,,,,,,,,,,,,,,,,,,,
,,,,,12,2020-07-01_09h32.38.916,retriever_ti,2020.1.3,Win32,60,Chrome,1366,768,,,,,,,,,,,,,,,,,3,,,,,,,,,,,,,,,,,,,,,,,,,,,860.971035,164,right,0.97813,clownfish     ,3,4,-4,0,3,860.99004,860.99004,863.48491,0,9,9,9,1,164,7,3,hat           ,clownfish     ,html/resources/sequences_IDs/A/08_hat.jpg,html/resources/sequences_IDs/A/04_clownfish.jpg,8,4,3,2,2,1,6,3,0,12,,,,,,,,,,,,,,,,,,,,
,,,,,12,2020-07-01_09h32.38.916,retriever_ti,2020.1.3,Win32,60,Chrome,1366,768,,,,,,,,,,,,,,,,,3,,,,,,,,,,,,,,,,,,,,,,,,,,,864.104955,165,left,0.5837,parrot      ,4,5,2,1,3,864.139165,864.139165,866.633925,0,10,10,10,1,165,4,2,parrot      ,radio       ,html/resources/sequences_IDs/B/05_parrot.jpg,html/resources/sequences_IDs/B/10_radio.jpg,5,10,2,1,4,2,4,8,0,12,,,,,,,,,,,,,,,,,,,,
,,,,,12,2020-07-01_09h32.38.916,retriever_ti,2020.1.3,Win32,60,Chrome,1366,768,,,,,,,,,,,,,,,,,3,,,,,,,,,,,,,,,,,,,,,,,,,,,867.252815,166,left,0.472935,hat           ,7,8,-1,0,0,867.30271,867.30271,869.767855,0,11,11,11,1,166,7,8,hat           ,redfox      ,html/resources/sequences_IDs/A/08_hat.jpg,html/resources/sequences_IDs/B/01_redfox.jpg,8,1,3,2,1,1,6,1,0,12,,,,,,,,,,,,,,,,,,,,
,,,,,12,2020-07-01_09h32.38.916,retriever_ti,2020.1.3,Win32,60,Chrome,1366,768,,,,,,,,,,,,,,,,,3,,,,,,,,,,,,,,,,,,,,,,,,,,,870.87113,167,right,0.38326,giraffe     ,6,3,-1,0,0,870.905485,870.905485,873.4007,0,12,12,12,1,167,7,6,hat           ,giraffe     ,html/resources/sequences_IDs/A/08_hat.jpg,html/resources/sequences_IDs/B/03_giraffe.jpg,8,3,3,2,1,1,6,2,0,12,,,,,,,,,,,,,,,,,,,,
,,,,,12,2020-07-01_09h32.38.916,retriever_ti,2020.1.3,Win32,60,Chrome,1366,768,,,,,,,,,,,,,,,,,3,,,,,,,,,,,,,,,,,,,,,,,,,,,874.50475,168,left,0.56722,redfox      ,8,1,1,1,1,874.53977,874.53977,877.033775,0,13,13,13,1,168,8,7,redfox      ,hat           ,html/resources/sequences_IDs/B/01_redfox.jpg,html/resources/sequences_IDs/A/08_hat.jpg,1,8,1,1,3,2,1,6,0,12,,,,,,,,,,,,,,,,,,,,
,,,,,12,2020-07-01_09h32.38.916,retriever_ti,2020.1.3,Win32,60,Chrome,1366,768,,,,,,,,,,,,,,,,,3,,,,,,,,,,,,,,,,,,,,,,,,,,,878.136955,169,left,0.83618,dress         ,5,7,-1,0,1,878.154865,878.154865,880.65068,0,14,14,14,1,169,5,6,dress         ,giraffe     ,html/resources/sequences_IDs/A/07_dress.jpg,html/resources/sequences_IDs/B/03_giraffe.jpg,7,3,3,2,1,1,5,2,1,12,,,,,,,,,,,,,,,,,,,,
,,,,,12,2020-07-01_09h32.38.916,retriever_ti,2020.1.3,Win32,60,Chrome,1366,768,,,,,,,,,,,,,,,,,3,,,,,,,,,,,,,,,,,,,,,,,,,,,881.75564,170,right,0.65383,dress         ,5,7,-3,0,3,881.79123,881.79123,884.28386,0,15,15,15,1,170,8,5,redfox      ,dress         ,html/resources/sequences_IDs/B/01_redfox.jpg,html/resources/sequences_IDs/A/07_dress.jpg,1,7,1,1,3,2,1,5,0,12,,,,,,,,,,,,,,,,,,,,
,,,,,12,2020-07-01_09h32.38.916,retriever_ti,2020.1.3,Win32,60,Chrome,1366,768,,,,,,,,,,,,,,,,,3,,,,,,,,,,,,,,,,,,,,,,,,,,,884.885875,171,right,0.74922,giraffe     ,6,3,-1,0,1,884.92148,884.92148,887.41681,0,16,16,16,1,171,7,6,hat           ,giraffe     ,html/resources/sequences_IDs/A/08_hat.jpg,html/resources/sequences_IDs/B/03_giraffe.jpg,8,3,3,2,1,1,6,2,1,12,,,,,,,,,,,,,,,,,,,,
,,,,,12,2020-07-01_09h32.38.916,retriever_ti,2020.1.3,Win32,60,Chrome,1366,768,,,,,,,,,,,,,,,,,3,,,,,,,,,,,,,,,,,,,,,,,,,,,888.521425,172,right,0.818585,dress         ,5,7,1,1,1,888.555715,888.555715,891.05012,0,17,17,17,1,172,4,5,parrot      ,dress         ,html/resources/sequences_IDs/B/05_parrot.jpg,html/resources/sequences_IDs/A/07_dress.jpg,5,7,2,1,3,2,4,5,0,12,,,,,,,,,,,,,,,,,,,,
,,,,,12,2020-07-01_09h32.38.916,retriever_ti,2020.1.3,Win32,60,Chrome,1366,768,,,,,,,,,,,,,,,,,3,,,,,,,,,,,,,,,,,,,,,,,,,,,892.15372,173,left,0.60976,giraffe     ,6,3,5,1,3,892.171605,892.171605,894.666325,0,18,18,18,1,173,6,1,giraffe     ,calculator    ,html/resources/sequences_IDs/B/03_giraffe.jpg,html/resources/sequences_IDs/A/09_calculator.jpg,3,9,1,1,4,2,2,7,0,12,,,,,,,,,,,,,,,,,,,,
,,,,,12,2020-07-01_09h32.38.916,retriever_ti,2020.1.3,Win32,60,Chrome,1366,768,,,,,,,,,,,,,,,,,3,,,,,,,,,,,,,,,,,,,,,,,,,,,895.269105,174,right,0.5774,redfox      ,8,1,4,1,3,895.2878,895.2878,897.78328,0,19,19,19,1,174,4,8,parrot      ,redfox      ,html/resources/sequences_IDs/B/05_parrot.jpg,html/resources/sequences_IDs/B/01_redfox.jpg,5,1,2,1,1,1,4,1,0,12,,,,,,,,,,,,,,,,,,,,
,,,,,12,2020-07-01_09h32.38.916,retriever_ti,2020.1.3,Win32,60,Chrome,1366,768,,,,,,,,,,,,,,,,,3,,,,,,,,,,,,,,,,,,,,,,,,,,,898.402935,175,left,0.46394,clownfish     ,3,4,1,1,1,898.43667,898.43667,900.932445,0,20,20,20,1,175,3,2,clownfish     ,radio       ,html/resources/sequences_IDs/A/04_clownfish.jpg,html/resources/sequences_IDs/B/10_radio.jpg,4,10,2,1,4,2,3,8,0,12,,,,,,,,,,,,,,,,,,,,
,,,,,12,2020-07-01_09h32.38.916,retriever_ti,2020.1.3,Win32,60,Chrome,1366,768,,,,,,,,,,,,,,,,,3,,,,,,,,,,,,,,,,,,,,,,,,,,,902.036655,176,right,0.461715,radio       ,2,10,1,1,1,902.07379,902.07379,904.5666,0,21,21,21,1,176,1,2,calculator    ,radio       ,html/resources/sequences_IDs/A/09_calculator.jpg,html/resources/sequences_IDs/B/10_radio.jpg,9,10,4,2,4,2,7,8,0,12,,,,,,,,,,,,,,,,,,,,
,,,,,12,2020-07-01_09h32.38.916,retriever_ti,2020.1.3,Win32,60,Chrome,1366,768,,,,,,,,,,,,,,,,,3,,,,,,,,,,,,,,,,,,,,,,,,,,,905.67009,177,left,0.495365,parrot      ,4,5,1,1,1,905.687825,905.687825,908.18271,0,22,22,22,1,177,4,3,parrot      ,clownfish     ,html/resources/sequences_IDs/B/05_parrot.jpg,html/resources/sequences_IDs/A/04_clownfish.jpg,5,4,2,1,2,1,4,3,0,12,,,,,,,,,,,,,,,,,,,,
,,,,,12,2020-07-01_09h32.38.916,retriever_ti,2020.1.3,Win32,60,Chrome,1366,768,,,,,,,,,,,,,,,,,3,,,,,,,,,,,,,,,,,,,,,,,,,,,909.284775,178,left,0.414055,radio       ,2,10,-1,0,0,909.303605,909.303605,911.7981,0,23,23,23,1,178,2,3,radio       ,clownfish     ,html/resources/sequences_IDs/B/10_radio.jpg,html/resources/sequences_IDs/A/04_clownfish.jpg,10,4,4,2,2,1,8,3,0,12,,,,,,,,,,,,,,,,,,,,
,,,,,12,2020-07-01_09h32.38.916,retriever_ti,2020.1.3,Win32,60,Chrome,1366,768,,,,,,,,,,,,,,,,,3,,,,,,,,,,,,,,,,,,,,,,,,,,,912.90298,179,left,0.50598,hat           ,7,8,-1,0,0,912.92154,912.92154,915.41544,0,24,24,24,1,179,7,8,hat           ,redfox      ,html/resources/sequences_IDs/A/08_hat.jpg,html/resources/sequences_IDs/B/01_redfox.jpg,8,1,3,2,1,1,6,1,0,12,,,,,,,,,,,,,,,,,,,,
,,,,,12,2020-07-01_09h32.38.916,retriever_ti,2020.1.3,Win32,60,Chrome,1366,768,,,,,,,,,,,,,,,,,3,,,,,,,,,,,,,,,,,,,,,,,,,,,916.519025,180,left,1.00729,hat           ,7,8,-1,0,1,916.53659,916.53659,919.03266,0,25,25,25,1,180,7,8,hat           ,redfox      ,html/resources/sequences_IDs/A/08_hat.jpg,html/resources/sequences_IDs/B/01_redfox.jpg,8,1,3,2,1,1,6,1,1,12,,,,,,,,,,,,,,,,,,,,
,,,,,12,2020-07-01_09h32.38.916,retriever_ti,2020.1.3,Win32,60,Chrome,1366,768,,,,,,,,,,,,,,,,,3,,,,,,,,,,,,,,,,,,,,,,,,,,,920.13568,181,left,1.051535,calculator    ,1,9,-5,0,3,920.170075,920.170075,922.66489,0,26,26,26,1,181,1,6,calculator    ,giraffe     ,html/resources/sequences_IDs/A/09_calculator.jpg,html/resources/sequences_IDs/B/03_giraffe.jpg,9,3,4,2,1,1,7,2,0,12,,,,,,,,,,,,,,,,,,,,
,,,,,12,2020-07-01_09h32.38.916,retriever_ti,2020.1.3,Win32,60,Chrome,1366,768,,,,,,,,,,,,,,,,,3,,,,,,,,,,,,,,,,,,,,,,,,,,,923.26696,182,left,0.769445,parrot      ,4,5,-3,0,3,923.302895,923.302895,925.79841,0,27,27,27,1,182,4,7,parrot      ,hat           ,html/resources/sequences_IDs/B/05_parrot.jpg,html/resources/sequences_IDs/A/08_hat.jpg,5,8,2,1,3,2,4,6,0,12,,,,,,,,,,,,,,,,,,,,
,,,,,12,2020-07-01_09h32.38.916,retriever_ti,2020.1.3,Win32,60,Chrome,1366,768,,,,,,,,,,,,,,,,,3,,,,,,,,,,,,,,,,,,,,,,,,,,,926.420125,183,right,0.508875,giraffe     ,6,3,3,1,3,926.436515,926.436515,928.931755,0,28,28,28,1,183,3,6,clownfish     ,giraffe     ,html/resources/sequences_IDs/A/04_clownfish.jpg,html/resources/sequences_IDs/B/03_giraffe.jpg,4,3,2,1,1,1,3,2,0,12,,,,,,,,,,,,,,,,,,,,
,,,,,12,2020-07-01_09h32.38.916,retriever_ti,2020.1.3,Win32,60,Chrome,1366,768,,,,,,,,,,,,,,,,,3,,,,,,,,,,,,,,,,,,,,,,,,,,,929.550565,184,left,0.56775,radio       ,2,10,-4,0,3,929.58675,929.58675,932.08131,0,29,29,29,1,184,2,6,radio       ,giraffe     ,html/resources/sequences_IDs/B/10_radio.jpg,html/resources/sequences_IDs/B/03_giraffe.jpg,10,3,4,2,1,1,8,2,0,12,,,,,,,,,,,,,,,,,,,,
,,,,,12,2020-07-01_09h32.38.916,retriever_ti,2020.1.3,Win32,60,Chrome,1366,768,,,,,,,,,,,,,,,,,3,,,,,,,,,,,,,,,,,,,,,,,,,,,932.701705,185,left,0.60292,dress         ,5,7,-2,0,3,932.73572,932.73572,935.231465,0,30,30,30,1,185,5,7,dress         ,hat           ,html/resources/sequences_IDs/A/07_dress.jpg,html/resources/sequences_IDs/A/08_hat.jpg,7,8,3,2,3,2,5,6,0,12,,,,,,,,,,,,,,,,,,,,
,,,,,12,2020-07-01_09h32.38.916,retriever_ti,2020.1.3,Win32,60,Chrome,1366,768,,,,,,,,,,,,,,,,,3,,,,,,,,,,,,,,,,,,,,,,,,,,,935.84994,186,right,0.475555,parrot      ,4,5,1,1,1,935.917525,935.917525,938.3647,0,31,31,31,1,186,3,4,clownfish     ,parrot      ,html/resources/sequences_IDs/A/04_clownfish.jpg,html/resources/sequences_IDs/B/05_parrot.jpg,4,5,2,1,2,1,3,4,0,12,,,,,,,,,,,,,,,,,,,,
,,,,,12,2020-07-01_09h32.38.916,retriever_ti,2020.1.3,Win32,60,Chrome,1366,768,,,,,,,,,,,,,,,,,3,,,,,,,,,,,,,,,,,,,,,,,,,,,939.46826,187,right,0.61297,clownfish     ,3,4,1,1,0,939.486955,939.486955,941.981005,0,32,32,32,1,187,2,3,radio       ,clownfish     ,html/resources/sequences_IDs/B/10_radio.jpg,html/resources/sequences_IDs/A/04_clownfish.jpg,10,4,4,2,2,1,8,3,1,12,,,,,,,,,,,,,,,,,,,,
,,,,,12,2020-07-01_09h32.38.916,retriever_ti,2020.1.3,Win32,60,Chrome,1366,768,,,,,,,,,,,,,,,,,3,,,,,,,,,,,,,,,,,,,,,,,,,,,943.083965,188,right,0.682755,giraffe     ,6,3,-1,0,0,943.102005,943.102005,945.59708,0,33,33,33,1,188,7,6,hat           ,giraffe     ,html/resources/sequences_IDs/A/08_hat.jpg,html/resources/sequences_IDs/B/03_giraffe.jpg,8,3,3,2,1,1,6,2,0,12,,,,,,,,,,,,,,,,,,,,
,,,,,12,2020-07-01_09h32.38.916,retriever_ti,2020.1.3,Win32,60,Chrome,1366,768,,,,,,,,,,,,,,,,,3,,,,,,,,,,,,,,,,,,,,,,,,,,,946.700925,189,right,0.537305,clownfish     ,3,4,-1,0,1,946.73544,946.73544,949.22994,0,34,34,34,1,189,4,3,parrot      ,clownfish     ,html/resources/sequences_IDs/B/05_parrot.jpg,html/resources/sequences_IDs/A/04_clownfish.jpg,5,4,2,1,2,1,4,3,1,12,,,,,,,,,,,,,,,,,,,,
,,,,,12,2020-07-01_09h32.38.916,retriever_ti,2020.1.3,Win32,60,Chrome,1366,768,,,,,,,,,,,,,,,,,3,,,,,,,,,,,,,,,,,,,,,,,,,,,950.332635,190,right,1.40615,hat           ,7,8,1,1,1,950.350555,950.350555,952.84673,0,35,35,35,1,190,6,7,giraffe     ,hat           ,html/resources/sequences_IDs/B/03_giraffe.jpg,html/resources/sequences_IDs/A/08_hat.jpg,3,8,1,1,3,2,2,6,0,12,,,,,,,,,,,,,,,,,,,,
,,,,,12,2020-07-01_09h32.38.916,retriever_ti,2020.1.3,Win32,60,Chrome,1366,768,,,,,,,,,,,,,,,,,3,,,,,,,,,,,,,,,,,,,,,,,,,,,954.05228,191,right,0.92344,calculator    ,1,9,-1,0,0,954.11256,954.11256,956.580085,0,36,36,36,1,191,2,1,radio       ,calculator    ,html/resources/sequences_IDs/B/10_radio.jpg,html/resources/sequences_IDs/A/09_calculator.jpg,10,9,4,2,4,2,8,7,0,12,,,,,,,,,,,,,,,,,,,,
,,,,,12,2020-07-01_09h32.38.916,retriever_ti,2020.1.3,Win32,60,Chrome,1366,768,,,,,,,,,,,,,,,,,3,,,,,,,,,,,,,,,,,,,,,,,,,,,957.706465,192,left,0.60371,clownfish     ,3,4,1,1,1,957.75108,957.75108,960.2466,0,37,37,37,1,192,3,2,clownfish     ,radio       ,html/resources/sequences_IDs/A/04_clownfish.jpg,html/resources/sequences_IDs/B/10_radio.jpg,4,10,2,1,4,2,3,8,0,12,,,,,,,,,,,,,,,,,,,,
,,,,,12,2020-07-01_09h32.38.916,retriever_ti,2020.1.3,Win32,60,Chrome,1366,768,,,,,,,,,,,,,,,,,3,,,,,,,,,,,,,,,,,,,,,,,,,,,961.349675,193,right,0.83189,dress         ,5,7,4,1,3,961.38453,961.38453,963.87966,0,38,38,38,1,193,1,5,calculator    ,dress         ,html/resources/sequences_IDs/A/09_calculator.jpg,html/resources/sequences_IDs/A/07_dress.jpg,9,7,4,2,3,2,7,5,0,12,,,,,,,,,,,,,,,,,,,,
,,,,,12,2020-07-01_09h32.38.916,retriever_ti,2020.1.3,Win32,60,Chrome,1366,768,,,,,,,,,,,,,,,,,3,,,,,,,,,,,,,,,,,,,,,,,,,,,964.48353,194,right,0.740605,calculator    ,1,9,-1,0,1,964.501,964.501,966.996185,0,39,39,39,1,194,2,1,radio       ,calculator    ,html/resources/sequences_IDs/B/10_radio.jpg,html/resources/sequences_IDs/A/09_calculator.jpg,10,9,4,2,4,2,8,7,1,12,,,,,,,,,,,,,,,,,,,,
,,,,,12,2020-07-01_09h32.38.916,retriever_ti,2020.1.3,Win32,60,Chrome,1366,768,,,,,,,,,,,,,,,,,3,,,,,,,,,,,,,,,,,,,,,,,,,,,968.09778,195,right,0.440505,dress         ,5,7,-2,0,3,968.133575,968.133575,970.629565,0,40,40,40,1,195,7,5,hat           ,dress         ,html/resources/sequences_IDs/A/08_hat.jpg,html/resources/sequences_IDs/A/07_dress.jpg,8,7,3,2,3,2,6,5,0,12,,,,,,,,,,,,,,,,,,,,
,,,,,12,2020-07-01_09h32.38.916,retriever_ti,2020.1.3,Win32,60,Chrome,1366,768,,,,,,,,,,,,,,,,,3,,,,,,,,,,,,,,,,,,,,,,,,,,,971.23406,196,right,0.68899,calculator    ,1,9,-3,0,3,971.25139,971.25139,973.74631,0,41,41,41,1,196,4,1,parrot      ,calculator    ,html/resources/sequences_IDs/B/05_parrot.jpg,html/resources/sequences_IDs/A/09_calculator.jpg,5,9,2,1,4,2,4,7,0,12,,,,,,,,,,,,,,,,,,,,
,,,,,12,2020-07-01_09h32.38.916,retriever_ti,2020.1.3,Win32,60,Chrome,1366,768,,,,,,,,,,,,,,,,,3,,,,,,,,,,,,,,,,,,,,,,,,,,,974.367685,197,right,0.608095,dress         ,5,7,2,1,3,974.402345,974.402345,976.89516,0,42,42,42,1,197,3,5,clownfish     ,dress         ,html/resources/sequences_IDs/A/04_clownfish.jpg,html/resources/sequences_IDs/A/07_dress.jpg,4,7,2,1,3,2,3,5,0,12,,,,,,,,,,,,,,,,,,,,
,,,,,12,2020-07-01_09h32.38.916,retriever_ti,2020.1.3,Win32,60,Chrome,1366,768,,,,,,,,,,,,,,,,,3,,,,,,,,,,,,,,,,,,,,,,,,,,,977.497915,198,left,0.6809,calculator    ,1,9,-1,0,0,977.517295,977.517295,980.012145,0,43,43,43,1,198,1,2,calculator    ,radio       ,html/resources/sequences_IDs/A/09_calculator.jpg,html/resources/sequences_IDs/B/10_radio.jpg,9,10,4,2,4,2,7,8,0,12,,,,,,,,,,,,,,,,,,,,
,,,,,12,2020-07-01_09h32.38.916,retriever_ti,2020.1.3,Win32,60,Chrome,1366,768,,,,,,,,,,,,,,,,,3,,,,,,,,,,,,,,,,,,,,,,,,,,,981.108895,199,right,0.595505,giraffe     ,6,3,2,1,3,981.13603,981.13603,983.62871,0,44,44,44,1,199,4,6,parrot      ,giraffe     ,html/resources/sequences_IDs/B/05_parrot.jpg,html/resources/sequences_IDs/B/03_giraffe.jpg,5,3,2,1,1,1,4,2,0,12,,,,,,,,,,,,,,,,,,,,
,,,,,12,2020-07-01_09h32.38.916,retriever_ti,2020.1.3,Win32,60,Chrome,1366,768,,,,,,,,,,,,,,,,,3,,,,,,,,,,,,,,,,,,,,,,,,,,,984.246795,200,left,0.72663,dress         ,5,7,-1,0,0,984.331515,984.331515,986.779505,0,45,45,45,1,200,5,6,dress         ,giraffe     ,html/resources/sequences_IDs/A/07_dress.jpg,html/resources/sequences_IDs/B/03_giraffe.jpg,7,3,3,2,1,1,5,2,0,12,,,,,,,,,,,,,,,,,,,,
,,,,,12,2020-07-01_09h32.38.916,retriever_ti,2020.1.3,Win32,60,Chrome,1366,768,,,,,,,,,,,,,,,,,3,,,,,,,,,,,,,,,,,,,,,,,,,,,987.88193,201,right,0.48985,parrot      ,4,5,2,1,3,987.917035,987.917035,990.411665,0,46,46,46,1,201,2,4,radio       ,parrot      ,html/resources/sequences_IDs/B/10_radio.jpg,html/resources/sequences_IDs/B/05_parrot.jpg,10,5,4,2,2,1,8,4,0,12,,,,,,,,,,,,,,,,,,,,
,,,,,12,2020-07-01_09h32.38.916,retriever_ti,2020.1.3,Win32,60,Chrome,1366,768,,,,,,,,,,,,,,,,,3,,,,,,,,,,,,,,,,,,,,,,,,,,,991.03145,202,right,0.949645,giraffe     ,6,3,1,1,1,991.065215,991.065215,993.56125,0,47,47,47,1,202,5,6,dress         ,giraffe     ,html/resources/sequences_IDs/A/07_dress.jpg,html/resources/sequences_IDs/B/03_giraffe.jpg,7,3,3,2,1,1,5,2,0,12,,,,,,,,,,,,,,,,,,,,
,,,,,12,2020-07-01_09h32.38.916,retriever_ti,2020.1.3,Win32,60,Chrome,1366,768,,,,,,,,,,,,,,,,,3,,,,,,,,,,,,,,,,,,,,,,,,,,,994.664455,203,right,0.90018,parrot      ,4,5,-1,0,1,994.69958,994.69958,997.194965,0,48,48,48,1,203,5,4,dress         ,parrot      ,html/resources/sequences_IDs/A/07_dress.jpg,html/resources/sequences_IDs/B/05_parrot.jpg,7,5,3,2,2,1,5,4,1,12,,,,,,,,,,,,,,,,,,,,
,,,,,12,2020-07-01_09h32.38.916,retriever_ti,2020.1.3,Win32,60,Chrome,1366,768,,,,,,,,,,,,,,,,,3,,,,,,,,,,,,,,,,,,,,,,,,,,,998.29766,204,left,0.969275,giraffe     ,6,3,2,1,3,998.316515,998.316515,1000.812295,0,49,49,49,1,204,6,4,giraffe     ,parrot      ,html/resources/sequences_IDs/B/03_giraffe.jpg,html/resources/sequences_IDs/B/05_parrot.jpg,3,5,1,1,2,1,2,4,0,12,,,,,,,,,,,,,,,,,,,,
,,,,,12,2020-07-01_09h32.38.916,retriever_ti,2020.1.3,Win32,60,Chrome,1366,768,,,,,,,,,,,,,,,,,3,,,,,,,,,,,,,,,,,,,,,,,,,,,1001.4315,205,right,0.63489,hat           ,7,8,6,1,3,1001.466105,1001.466105,1003.96135,0,50,50,50,1,205,1,7,calculator    ,hat           ,html/resources/sequences_IDs/A/09_calculator.jpg,html/resources/sequences_IDs/A/08_hat.jpg,9,8,4,2,3,2,7,6,0,12,,,,,,,,,,,,,,,,,,,,
,,,,,12,2020-07-01_09h32.38.916,retriever_ti,2020.1.3,Win32,60,Chrome,1366,768,,,,,,,,,,,,,,,,,3,,,,,,,,,,,,,,,,,,,,,,,,,,,1004.885155,206,right,1.06378,dress         ,5,7,1,1,1,1004.93294,1004.93294,1007.428285,0,51,51,51,1,206,4,5,parrot      ,dress         ,html/resources/sequences_IDs/B/05_parrot.jpg,html/resources/sequences_IDs/A/07_dress.jpg,5,7,2,1,3,2,4,5,0,12,,,,,,,,,,,,,,,,,,,,
,,,,,12,2020-07-01_09h32.38.916,retriever_ti,2020.1.3,Win32,60,Chrome,1366,768,,,,,,,,,,,,,,,,,3,,,,,,,,,,,,,,,,,,,,,,,,,,,1008.52914,207,left,0.71349,giraffe     ,6,3,-1,0,0,1008.54942,1008.54942,1011.044695,0,52,52,52,1,207,6,7,giraffe     ,hat           ,html/resources/sequences_IDs/B/03_giraffe.jpg,html/resources/sequences_IDs/A/08_hat.jpg,3,8,1,1,3,2,2,6,0,12,,,,,,,,,,,,,,,,,,,,
,,,,,12,2020-07-01_09h32.38.916,retriever_ti,2020.1.3,Win32,60,Chrome,1366,768,,,,,,,,,,,,,,,,,3,,,,,,,,,,,,,,,,,,,,,,,,,,,1012.145685,208,left,0.62423,dress         ,5,7,4,1,3,1012.16599,1012.16599,1014.660555,0,53,53,53,1,208,5,1,dress         ,calculator    ,html/resources/sequences_IDs/A/07_dress.jpg,html/resources/sequences_IDs/A/09_calculator.jpg,7,9,3,2,4,2,5,7,0,12,,,,,,,,,,,,,,,,,,,,
,,,,,12,2020-07-01_09h32.38.916,retriever_ti,2020.1.3,Win32,60,Chrome,1366,768,,,,,,,,,,,,,,,,,3,,,,,,,,,,,,,,,,,,,,,,,,,,,1015.26475,209,right,0.621505,clownfish     ,3,4,2,1,3,1015.57434,1015.57434,1017.79386,0,54,54,54,1,209,1,3,calculator    ,clownfish     ,html/resources/sequences_IDs/A/09_calculator.jpg,html/resources/sequences_IDs/A/04_clownfish.jpg,9,4,4,2,2,1,7,3,0,12,,,,,,,,,,,,,,,,,,,,
,,,,,12,2020-07-01_09h32.38.916,retriever_ti,2020.1.3,Win32,60,Chrome,1366,768,,,,,,,,,,,,,,,,,3,,,,,,,,,,,,,,,,,,,,,,,,,,,1018.410885,210,right,0.64534,giraffe     ,6,3,-2,0,3,1018.4304,1018.4304,1020.92707,0,55,55,55,1,210,8,6,redfox      ,giraffe     ,html/resources/sequences_IDs/B/01_redfox.jpg,html/resources/sequences_IDs/B/03_giraffe.jpg,1,3,1,1,1,1,1,2,0,12,,,,,,,,,,,,,,,,,,,,
,,,,,12,2020-07-01_09h32.38.916,retriever_ti,2020.1.3,Win32,60,Chrome,1366,768,,,,,,,,,,,,,,,,,3,,,,,,,,,,,,,,,,,,,,,,,,,,,1021.5464,211,right,1.11973,redfox      ,8,1,3,1,3,1021.56392,1021.56392,1024.06063,0,56,56,56,1,211,5,8,dress         ,redfox      ,html/resources/sequences_IDs/A/07_dress.jpg,html/resources/sequences_IDs/B/01_redfox.jpg,7,1,3,2,1,1,5,1,0,12,,,,,,,,,,,,,,,,,,,,
,,,,,12,2020-07-01_09h32.38.916,retriever_ti,2020.1.3,Win32,60,Chrome,1366,768,,,,,,,,,,,,,,,,,3,,,,,,,,,,,,,,,,,,,,,,,,,,,1024.68069,212,right,0.7269,clownfish     ,3,4,1,1,1,1024.700585,1024.700585,1027.19313,0,57,57,57,1,212,2,3,radio       ,clownfish     ,html/resources/sequences_IDs/B/10_radio.jpg,html/resources/sequences_IDs/A/04_clownfish.jpg,10,4,4,2,2,1,8,3,0,12,,,,,,,,,,,,,,,,,,,,
,,,,,12,2020-07-01_09h32.38.916,retriever_ti,2020.1.3,Win32,60,Chrome,1366,768,,,,,,,,,,,,,,,,,3,,,,,,,,,,,,,,,,,,,,,,,,,,,1028.295195,213,left,0.66077,giraffe     ,6,3,4,1,3,1028.331645,1028.331645,1030.826085,0,58,58,58,1,213,6,2,giraffe     ,radio       ,html/resources/sequences_IDs/B/03_giraffe.jpg,html/resources/sequences_IDs/B/10_radio.jpg,3,10,1,1,4,2,2,8,0,12,,,,,,,,,,,,,,,,,,,,
,,,,,12,2020-07-01_09h32.38.916,retriever_ti,2020.1.3,Win32,60,Chrome,1366,768,,,,,,,,,,,,,,,,,3,,,,,,,,,,,,,,,,,,,,,,,,,,,1031.44624,214,right,0.72903,dress         ,5,7,-1,0,0,1031.57263,1031.57263,1033.976585,0,59,59,59,1,214,6,5,giraffe     ,dress         ,html/resources/sequences_IDs/B/03_giraffe.jpg,html/resources/sequences_IDs/A/07_dress.jpg,3,7,1,1,3,2,2,5,0,12,,,,,,,,,,,,,,,,,,,,
,,,,,12,2020-07-01_09h32.38.916,retriever_ti,2020.1.3,Win32,60,Chrome,1366,768,,,,,,,,,,,,,,,,,3,,,,,,,,,,,,,,,,,,,,,,,,,,,1035.080095,215,left,0.501115,hat           ,7,8,6,1,3,1035.097535,1035.097535,1037.59285,0,60,60,60,1,215,7,1,hat           ,calculator    ,html/resources/sequences_IDs/A/08_hat.jpg,html/resources/sequences_IDs/A/09_calculator.jpg,8,9,3,2,4,2,6,7,0,12,,,,,,,,,,,,,,,,,,,,
,,,,,12,2020-07-01_09h32.38.916,retriever_ti,2020.1.3,Win32,60,Chrome,1366,768,,,,,,,,,,,,,,,,,3,,,,,,,,,,,,,,,,,,,,,,,,,,,1038.195085,216,left,0.91362,dress         ,5,7,3,1,3,1038.21443,1038.21443,1040.709075,0,61,61,61,1,216,5,2,dress         ,radio       ,html/resources/sequences_IDs/A/07_dress.jpg,html/resources/sequences_IDs/B/10_radio.jpg,7,10,3,2,4,2,5,8,0,12,,,,,,,,,,,,,,,,,,,,
,,,,,12,2020-07-01_09h32.38.916,retriever_ti,2020.1.3,Win32,60,Chrome,1366,768,,,,,,,,,,,,,,,,,3,,,,,,,,,,,,,,,,,,,,,,,,,,,1041.329935,217,right,0.55675,redfox      ,8,1,7,1,3,1041.363935,1041.363935,1043.859845,0,62,62,62,1,217,1,8,calculator    ,redfox      ,html/resources/sequences_IDs/A/09_calculator.jpg,html/resources/sequences_IDs/B/01_redfox.jpg,9,1,4,2,1,1,7,1,0,12,,,,,,,,,,,,,,,,,,,,
,,,,,12,2020-07-01_09h32.38.916,retriever_ti,2020.1.3,Win32,60,Chrome,1366,768,,,,,,,,,,,,,,,,,3,,,,,,,,,,,,,,,,,,,,,,,,,,,1044.47839,218,left,0.66687,hat           ,7,8,5,1,3,1044.49807,1044.49807,1046.992785,0,63,63,63,1,218,7,2,hat           ,radio       ,html/resources/sequences_IDs/A/08_hat.jpg,html/resources/sequences_IDs/B/10_radio.jpg,8,10,3,2,4,2,6,8,0,12,,,,,,,,,,,,,,,,,,,,
,,,,,12,2020-07-01_09h32.38.916,retriever_ti,2020.1.3,Win32,60,Chrome,1366,768,,,,,,,,,,,,,,,,,3,,,,,,,,,,,,,,,,,,,,,,,,,,,1047.613025,219,left,0.87932,dress         ,5,7,1,1,1,1047.63034,1047.63034,1050.125175,0,64,64,64,1,219,5,4,dress         ,parrot      ,html/resources/sequences_IDs/A/07_dress.jpg,html/resources/sequences_IDs/B/05_parrot.jpg,7,5,3,2,2,1,5,4,0,12,,,,,,,,,,,,,,,,,,,,
,,,,,12,2020-07-01_09h32.38.916,retriever_ti,2020.1.3,Win32,60,Chrome,1366,768,,,,,,,,,,,,,,,,,3,,,,,,,,,,,,,,,,,,,,,,,,,,,1051.228575,220,right,0.42447,clownfish     ,3,4,-5,0,3,1051.246325,1051.246325,1053.7417,0,65,65,65,1,220,8,3,redfox      ,clownfish     ,html/resources/sequences_IDs/B/01_redfox.jpg,html/resources/sequences_IDs/A/04_clownfish.jpg,1,4,1,1,2,1,1,3,0,12,,,,,,,,,,,,,,,,,,,,
,,,,,12,2020-07-01_09h32.38.916,retriever_ti,2020.1.3,Win32,60,Chrome,1366,768,,,,,,,,,,,,,,,,,3,,,,,,,,,,,,,,,,,,,,,,,,,,,1054.36019,221,right,0.439305,calculator    ,1,9,-2,0,3,1054.39709,1054.39709,1056.891895,0,66,66,66,1,221,3,1,clownfish     ,calculator    ,html/resources/sequences_IDs/A/04_clownfish.jpg,html/resources/sequences_IDs/A/09_calculator.jpg,4,9,2,1,4,2,3,7,0,12,,,,,,,,,,,,,,,,,,,,
,,,,,12,2020-07-01_09h32.38.916,retriever_ti,2020.1.3,Win32,60,Chrome,1366,768,,,,,,,,,,,,,,,,,3,,,,,,,,,,,,,,,,,,,,,,,,,,,1057.495635,222,left,1.01823,dress         ,5,7,1,1,1,1057.53143,1057.53143,1060.025125,0,67,67,67,1,222,5,4,dress         ,parrot      ,html/resources/sequences_IDs/A/07_dress.jpg,html/resources/sequences_IDs/B/05_parrot.jpg,7,5,3,2,2,1,5,4,0,12,,,,,,,,,,,,,,,,,,,,
,,,,,12,2020-07-01_09h32.38.916,retriever_ti,2020.1.3,Win32,60,Chrome,1366,768,,,,,,,,,,,,,,,,,3,,,,,,,,,,,,,,,,,,,,,,,,,,,1061.128735,223,right,0.549695,hat           ,7,8,5,1,3,1061.14617,1061.14617,1063.6418,0,68,68,68,1,223,2,7,radio       ,hat           ,html/resources/sequences_IDs/B/10_radio.jpg,html/resources/sequences_IDs/A/08_hat.jpg,10,8,4,2,3,2,8,6,0,12,,,,,,,,,,,,,,,,,,,,
,,,,,12,2020-07-01_09h32.38.916,retriever_ti,2020.1.3,Win32,60,Chrome,1366,768,,,,,,,,,,,,,,,,,3,,,,,,,,,,,,,,,,,,,,,,,,,,,1064.259845,224,right,0.76635,parrot      ,4,5,-4,0,3,1064.279975,1064.279975,1066.774725,0,69,69,69,1,224,8,4,redfox      ,parrot      ,html/resources/sequences_IDs/B/01_redfox.jpg,html/resources/sequences_IDs/B/05_parrot.jpg,1,5,1,1,2,1,1,4,0,12,,,,,,,,,,,,,,,,,,,,
