instructionsLoop.thisRepN,instructionsLoop.thisTrialN,instructionsLoop.thisN,instructionsLoop.thisIndex,instructionsLoop.ran,participant,date,expName,psychopyVersion,OS,frameRate,browser,xResolution,yResolution,fix_onset,tprac,practiceKey.keys,practiceKey.rt,pracitem_chosen_name,acc_practice,P1_onsetPrac,P2_onsetPrac,onsetFeedbPrac,practiceTrials.thisRepN,practiceTrials.thisTrialN,practiceTrials.thisN,practiceTrials.thisIndex,practiceTrials.ran,P1,P2,Block,LocItem1,LocItem2,NameItem1,NameItem2,key_respAC_prac.keys,key_respAC_prac.corr,key_respAC_prac.rt,AC_acc,Attentions.thisRepN,Attentions.thisTrialN,Attentions.thisN,Attentions.thisIndex,Attentions.ran,Stim,Loc1,Loc2,Loc3,Loc4,CorrAns,keyDisturbed.keys,keyDisturbed.rt,repPractice.thisRepN,repPractice.thisTrialN,repPractice.thisN,repPractice.thisIndex,repPractice.ran,fixcross_onsetMain,trialNumber,key_resp.keys,key_resp.rt,item_chosen_name,item_chosen_value,item_chosen_ID,diff_chosen_minus_reject,acc_real,acc_feedback,P1_onset,P2_onset,feedb_onset,trials.thisRepN,trials.thisTrialN,trials.thisN,trials.thisIndex,trials.ran,Trial,ValueP1,ValueP2,P1name,P2name,P1Loc,P2Loc,P1id,P2id,Micro_categoryP1,Macro_categoryP1,Micro_categoryP2,Macro_categoryP2,ID_sequenceP1,ID_sequenceP2,InverseFb,pNumber,repBlocks.thisRepN,repBlocks.thisTrialN,repBlocks.thisN,repBlocks.thisIndex,repBlocks.ran,key_respAC.keys,key_respAC.corr,key_respAC.rt,trials_AC.thisRepN,trials_AC.thisTrialN,trials_AC.thisN,trials_AC.thisIndex,trials_AC.ran,Bonus,BonusLoop.thisRepN,BonusLoop.thisTrialN,BonusLoop.thisN,BonusLoop.thisIndex,BonusLoop.ran,comments
0,0,0,0,1,13,2020-07-01_10h32.11.342,retriever_ti,2020.1.3,Win32,60,Chrome,1366,768,,,,,,,,,,,,,,,,,,,,,,,,,,,,,,,,,,,,,,,,,,,,,,,,,,,,,,,,,,,,,,,,,,,,,,,,,,,,,,,,,,,,,,,,,,,,,,,,,,
1,0,1,0,1,13,2020-07-01_10h32.11.342,retriever_ti,2020.1.3,Win32,60,Chrome,1366,768,,,,,,,,,,,,,,,,,,,,,,,,,,,,,,,,,,,,,,,,,,,,,,,,,,,,,,,,,,,,,,,,,,,,,,,,,,,,,,,,,,,,,,,,,,,,,,,,,,
2,0,2,0,1,13,2020-07-01_10h32.11.342,retriever_ti,2020.1.3,Win32,60,Chrome,1366,768,,,,,,,,,,,,,,,,,,,,,,,,,,,,,,,,,,,,,,,,,,,,,,,,,,,,,,,,,,,,,,,,,,,,,,,,,,,,,,,,,,,,,,,,,,,,,,,,,,
3,0,3,0,1,13,2020-07-01_10h32.11.342,retriever_ti,2020.1.3,Win32,60,Chrome,1366,768,,,,,,,,,,,,,,,,,,,,,,,,,,,,,,,,,,,,,,,,,,,,,,,,,,,,,,,,,,,,,,,,,,,,,,,,,,,,,,,,,,,,,,,,,,,,,,,,,,
4,0,4,0,1,13,2020-07-01_10h32.11.342,retriever_ti,2020.1.3,Win32,60,Chrome,1366,768,,,,,,,,,,,,,,,,,,,,,,,,,,,,,,,,,,,,,,,,,,,,,,,,,,,,,,,,,,,,,,,,,,,,,,,,,,,,,,,,,,,,,,,,,,,,,,,,,,
5,0,5,0,1,13,2020-07-01_10h32.11.342,retriever_ti,2020.1.3,Win32,60,Chrome,1366,768,,,,,,,,,,,,,,,,,,,,,,,,,,,,,,,,,,,,,,,,,,,,,,,,,,,,,,,,,,,,,,,,,,,,,,,,,,,,,,,,,,,,,,,,,,,,,,,,,,
6,0,6,0,1,13,2020-07-01_10h32.11.342,retriever_ti,2020.1.3,Win32,60,Chrome,1366,768,,,,,,,,,,,,,,,,,,,,,,,,,,,,,,,,,,,,,,,,,,,,,,,,,,,,,,,,,,,,,,,,,,,,,,,,,,,,,,,,,,,,,,,,,,,,,,,,,,
7,0,7,0,1,13,2020-07-01_10h32.11.342,retriever_ti,2020.1.3,Win32,60,Chrome,1366,768,,,,,,,,,,,,,,,,,,,,,,,,,,,,,,,,,,,,,,,,,,,,,,,,,,,,,,,,,,,,,,,,,,,,,,,,,,,,,,,,,,,,,,,,,,,,,,,,,,
8,0,8,0,1,13,2020-07-01_10h32.11.342,retriever_ti,2020.1.3,Win32,60,Chrome,1366,768,,,,,,,,,,,,,,,,,,,,,,,,,,,,,,,,,,,,,,,,,,,,,,,,,,,,,,,,,,,,,,,,,,,,,,,,,,,,,,,,,,,,,,,,,,,,,,,,,,
9,0,9,0,1,13,2020-07-01_10h32.11.342,retriever_ti,2020.1.3,Win32,60,Chrome,1366,768,,,,,,,,,,,,,,,,,,,,,,,,,,,,,,,,,,,,,,,,,,,,,,,,,,,,,,,,,,,,,,,,,,,,,,,,,,,,,,,,,,,,,,,,,,,,,,,,,,
10,0,10,0,1,13,2020-07-01_10h32.11.342,retriever_ti,2020.1.3,Win32,60,Chrome,1366,768,,,,,,,,,,,,,,,,,,,,,,,,,,,,,,,,,,,,,,,,,,,,,,,,,,,,,,,,,,,,,,,,,,,,,,,,,,,,,,,,,,,,,,,,,,,,,,,,,,
11,0,11,0,1,13,2020-07-01_10h32.11.342,retriever_ti,2020.1.3,Win32,60,Chrome,1366,768,,,,,,,,,,,,,,,,,,,,,,,,,,,,,,,,,,,,,,,,,,,,,,,,,,,,,,,,,,,,,,,,,,,,,,,,,,,,,,,,,,,,,,,,,,,,,,,,,,
12,0,12,0,1,13,2020-07-01_10h32.11.342,retriever_ti,2020.1.3,Win32,60,Chrome,1366,768,,,,,,,,,,,,,,,,,,,,,,,,,,,,,,,,,,,,,,,,,,,,,,,,,,,,,,,,,,,,,,,,,,,,,,,,,,,,,,,,,,,,,,,,,,,,,,,,,,
13,0,13,0,1,13,2020-07-01_10h32.11.342,retriever_ti,2020.1.3,Win32,60,Chrome,1366,768,,,,,,,,,,,,,,,,,,,,,,,,,,,,,,,,,,,,,,,,,,,,,,,,,,,,,,,,,,,,,,,,,,,,,,,,,,,,,,,,,,,,,,,,,,,,,,,,,,
14,0,14,0,1,13,2020-07-01_10h32.11.342,retriever_ti,2020.1.3,Win32,60,Chrome,1366,768,,,,,,,,,,,,,,,,,,,,,,,,,,,,,,,,,,,,,,,,,,,,,,,,,,,,,,,,,,,,,,,,,,,,,,,,,,,,,,,,,,,,,,,,,,,,,,,,,,
,,,,,13,2020-07-01_10h32.11.342,retriever_ti,2020.1.3,Win32,60,Chrome,1366,768,254.73444,1,right,1.48902,canary,1,254.76907,254.76907,257.26677,0,0,0,0,1,2,5,1,html/resources/stimuli_practice_decision/04_beetle.jpg,html/resources/stimuli_practice_decision/02_canary.jpg,beetle,canary,,,,,,,,,,,,,,,,,,,,,,,,,,,,,,,,,,,,,,,,,,,,,,,,,,,,,,,,,,,,,,,,,,,,,,,,,,,,,
,,,,,13,2020-07-01_10h32.11.342,retriever_ti,2020.1.3,Win32,60,Chrome,1366,768,257.817485,2,left,1.29017,rabbit,1,257.851085,257.851085,260.34945,0,1,1,1,1,4,3,1,html/resources/stimuli_practice_decision/01_rabbit.jpg,html/resources/stimuli_practice_decision/07_sock.jpg,rabbit,sock,,,,,,,,,,,,,,,,,,,,,,,,,,,,,,,,,,,,,,,,,,,,,,,,,,,,,,,,,,,,,,,,,,,,,,,,,,,,,
,,,,,13,2020-07-01_10h32.11.342,retriever_ti,2020.1.3,Win32,60,Chrome,1366,768,261.35035,3,left,1.318205,pullover,1,261.367585,261.367585,263.865925,0,2,2,2,1,6,2,1,html/resources/stimuli_practice_decision/06_pullover.jpg,html/resources/stimuli_practice_decision/04_beetle.jpg,pullover,beetle,,,,,,,,,,,,,,,,,,,,,,,,,,,,,,,,,,,,,,,,,,,,,,,,,,,,,,,,,,,,,,,,,,,,,,,,,,,,,
,,,,,13,2020-07-01_10h32.11.342,retriever_ti,2020.1.3,Win32,60,Chrome,1366,768,264.3832,4,right,2.171635,handmixer,0,264.417345,264.417345,266.91645,0,3,3,3,1,7,1,1,html/resources/stimuli_practice_decision/05_glasses.jpg,html/resources/stimuli_practice_decision/08_handmixer.jpg,glasses,handmixer,,,,,,,,,,,,,,,,,,,,,,,,,,,,,,,,,,,,,,,,,,,,,,,,,,,,,,,,,,,,,,,,,,,,,,,,,,,,,
,,,,,13,2020-07-01_10h32.11.342,retriever_ti,2020.1.3,Win32,60,Chrome,1366,768,267.43391,5,NaN,NaN,No_response,2,267.4679,267.4679,269.965985,0,4,4,4,1,7,6,1,html/resources/stimuli_practice_decision/05_glasses.jpg,html/resources/stimuli_practice_decision/06_pullover.jpg,glasses,pullover,,,,,,,,,,,,,,,,,,,,,,,,,,,,,,,,,,,,,,,,,,,,,,,,,,,,,,,,,,,,,,,,,,,,,,,,,,,,,
,,,,,13,2020-07-01_10h32.11.342,retriever_ti,2020.1.3,Win32,60,Chrome,1366,768,270.466855,6,left,1.55915,rabbit,0,270.484155,270.484155,272.982605,0,5,5,5,1,4,7,1,html/resources/stimuli_practice_decision/01_rabbit.jpg,html/resources/stimuli_practice_decision/05_glasses.jpg,rabbit,glasses,,,,,,,,,,,,,,,,,,,,,,,,,,,,,,,,,,,,,,,,,,,,,,,,,,,,,,,,,,,,,,,,,,,,,,,,,,,,,
,,,,,13,2020-07-01_10h32.11.342,retriever_ti,2020.1.3,Win32,60,Chrome,1366,768,273.48378,7,left,0.806075,handmixer,0,273.50103,273.50103,275.999095,0,6,6,6,1,1,2,1,html/resources/stimuli_practice_decision/08_handmixer.jpg,html/resources/stimuli_practice_decision/04_beetle.jpg,handmixer,beetle,,,,,,,,,,,,,,,,,,,,,,,,,,,,,,,,,,,,,,,,,,,,,,,,,,,,,,,,,,,,,,,,,,,,,,,,,,,,,
,,,,,13,2020-07-01_10h32.11.342,retriever_ti,2020.1.3,Win32,60,Chrome,1366,768,276.999795,8,left,0.868,rabbit,1,277.01794,277.01794,279.51585,0,7,7,7,1,4,3,1,html/resources/stimuli_practice_decision/01_rabbit.jpg,html/resources/stimuli_practice_decision/07_sock.jpg,rabbit,sock,,,,,,,,,,,,,,,,,,,,,,,,,,,,,,,,,,,,,,,,,,,,,,,,,,,,,,,,,,,,,,,,,,,,,,,,,,,,,
,,,,,13,2020-07-01_10h32.11.342,retriever_ti,2020.1.3,Win32,60,Chrome,1366,768,,,,,,,,,,,,,,,,,,,,,,left,1,2.629825,1,0,0,0,2,1,html/resources/sequences_IDs/square1.png,star ↑,triangle →,circle ↓,← square,left,,,,,,,,,,,,,,,,,,,,,,,,,,,,,,,,,,,,,,,,,,,,,,,,,,,,,,,,,,,,,,
,,,,,13,2020-07-01_10h32.11.342,retriever_ti,2020.1.3,Win32,60,Chrome,1366,768,,,,,,,,,,,,,,,,,,,,,,down,1,2.4015,1,0,1,1,3,1,html/resources/sequences_IDs/triangle.png,star ↑,square →,triangle ↓,← circle,down,,,,,,,,,,,,,,,,,,,,,,,,,,,,,,,,,,,,,,,,,,,,,,,,,,,,,,,,,,,,,,
,,,,,13,2020-07-01_10h32.11.342,retriever_ti,2020.1.3,Win32,60,Chrome,1366,768,,,,,,,,,,,,,,,,,,,,,,down,1,2.064125,1,0,2,2,1,1,html/resources/sequences_IDs/star.png,square ↑,circle →,star ↓,← triangle,down,,,,,,,,,,,,,,,,,,,,,,,,,,,,,,,,,,,,,,,,,,,,,,,,,,,,,,,,,,,,,,
,,,,,13,2020-07-01_10h32.11.342,retriever_ti,2020.1.3,Win32,60,Chrome,1366,768,,,,,,,,,,,,,,,,,,,,,,up,1,1.29455,1,0,3,3,0,1,html/resources/sequences_IDs/circle.png,circle ↑,square →,triangle ↓,← star ,up,,,,,,,,,,,,,,,,,,,,,,,,,,,,,,,,,,,,,,,,,,,,,,,,,,,,,,,,,,,,,,
,,,,,13,2020-07-01_10h32.11.342,retriever_ti,2020.1.3,Win32,60,Chrome,1366,768,,,,,,,,,,,,,,,,,,,,,,,,,,,,,,,,,,,,,1,11.283275,0,0,0,0,1,,,,,,,,,,,,,,,,,,,,,,,,,,,,,,,,,,,,,,,,,,,,,,,,,,,,,,,
,,,,,13,2020-07-01_10h32.11.342,retriever_ti,2020.1.3,Win32,60,Chrome,1366,768,306.59063,9,right,2.013225,glasses,1,306.600885,306.600885,309.099535,0,0,0,0,1,6,7,1,html/resources/stimuli_practice_decision/06_pullover.jpg,html/resources/stimuli_practice_decision/05_glasses.jpg,pullover,glasses,,,,,,,,,,,,,,,,,,,,,,,,,,,,,,,,,,,,,,,,,,,,,,,,,,,,,,,,,,,,,,,,,,,,,,,,,,,,,
,,,,,13,2020-07-01_10h32.11.342,retriever_ti,2020.1.3,Win32,60,Chrome,1366,768,310.100215,10,left,0.822405,pullover,1,310.13497,310.13497,312.632725,0,1,1,1,1,6,2,1,html/resources/stimuli_practice_decision/06_pullover.jpg,html/resources/stimuli_practice_decision/04_beetle.jpg,pullover,beetle,,,,,,,,,,,,,,,,,,,,,,,,,,,,,,,,,,,,,,,,,,,,,,,,,,,,,,,,,,,,,,,,,,,,,,,,,,,,,
,,,,,13,2020-07-01_10h32.11.342,retriever_ti,2020.1.3,Win32,60,Chrome,1366,768,313.134075,11,right,1.013685,pullover,1,313.168095,313.168095,315.666375,0,2,2,2,1,5,6,1,html/resources/stimuli_practice_decision/02_canary.jpg,html/resources/stimuli_practice_decision/06_pullover.jpg,canary,pullover,,,,,,,,,,,,,,,,,,,,,,,,,,,,,,,,,,,,,,,,,,,,,,,,,,,,,,,,,,,,,,,,,,,,,,,,,,,,,
,,,,,13,2020-07-01_10h32.11.342,retriever_ti,2020.1.3,Win32,60,Chrome,1366,768,316.666835,12,right,0.93127,glasses,0,316.701675,316.701675,319.19976,0,3,3,3,1,8,7,1,html/resources/stimuli_practice_decision/03_squirrel.jpg,html/resources/stimuli_practice_decision/05_glasses.jpg,squirrel,glasses,,,,,,,,,,,,,,,,,,,,,,,,,,,,,,,,,,,,,,,,,,,,,,,,,,,,,,,,,,,,,,,,,,,,,,,,,,,,,
,,,,,13,2020-07-01_10h32.11.342,retriever_ti,2020.1.3,Win32,60,Chrome,1366,768,320.20046,13,left,1.028695,canary,1,320.21823,320.21823,322.7164,0,4,4,4,1,5,3,1,html/resources/stimuli_practice_decision/02_canary.jpg,html/resources/stimuli_practice_decision/07_sock.jpg,canary,sock,,,,,,,,,,,,,,,,,,,,,,,,,,,,,,,,,,,,,,,,,,,,,,,,,,,,,,,,,,,,,,,,,,,,,,,,,,,,,
,,,,,13,2020-07-01_10h32.11.342,retriever_ti,2020.1.3,Win32,60,Chrome,1366,768,323.23345,14,left,1.655085,glasses,0,323.268035,323.268035,325.766035,0,5,5,5,1,7,8,1,html/resources/stimuli_practice_decision/05_glasses.jpg,html/resources/stimuli_practice_decision/03_squirrel.jpg,glasses,squirrel,,,,,,,,,,,,,,,,,,,,,,,,,,,,,,,,,,,,,,,,,,,,,,,,,,,,,,,,,,,,,,,,,,,,,,,,,,,,,
,,,,,13,2020-07-01_10h32.11.342,retriever_ti,2020.1.3,Win32,60,Chrome,1366,768,326.7673,15,right,1.407345,rabbit,0,326.78441,326.78441,329.28311,0,6,6,6,1,5,4,1,html/resources/stimuli_practice_decision/02_canary.jpg,html/resources/stimuli_practice_decision/01_rabbit.jpg,canary,rabbit,,,,,,,,,,,,,,,,,,,,,,,,,,,,,,,,,,,,,,,,,,,,,,,,,,,,,,,,,,,,,,,,,,,,,,,,,,,,,
,,,,,13,2020-07-01_10h32.11.342,retriever_ti,2020.1.3,Win32,60,Chrome,1366,768,330.283415,16,left,0.99659,canary,1,330.30146,330.30146,332.799825,0,7,7,7,1,5,3,1,html/resources/stimuli_practice_decision/02_canary.jpg,html/resources/stimuli_practice_decision/07_sock.jpg,canary,sock,,,,,,,,,,,,,,,,,,,,,,,,,,,,,,,,,,,,,,,,,,,,,,,,,,,,,,,,,,,,,,,,,,,,,,,,,,,,,
,,,,,13,2020-07-01_10h32.11.342,retriever_ti,2020.1.3,Win32,60,Chrome,1366,768,,,,,,,,,,,,,,,,,,,,,,left,1,2.22675,1,0,0,0,2,1,html/resources/sequences_IDs/square1.png,star ↑,triangle →,circle ↓,← square,left,,,,,,,,,,,,,,,,,,,,,,,,,,,,,,,,,,,,,,,,,,,,,,,,,,,,,,,,,,,,,,
,,,,,13,2020-07-01_10h32.11.342,retriever_ti,2020.1.3,Win32,60,Chrome,1366,768,,,,,,,,,,,,,,,,,,,,,,up,1,1.424435,1,0,1,1,0,1,html/resources/sequences_IDs/circle.png,circle ↑,square →,triangle ↓,← star ,up,,,,,,,,,,,,,,,,,,,,,,,,,,,,,,,,,,,,,,,,,,,,,,,,,,,,,,,,,,,,,,
,,,,,13,2020-07-01_10h32.11.342,retriever_ti,2020.1.3,Win32,60,Chrome,1366,768,,,,,,,,,,,,,,,,,,,,,,down,1,2.09066,1,0,2,2,3,1,html/resources/sequences_IDs/triangle.png,star ↑,square →,triangle ↓,← circle,down,,,,,,,,,,,,,,,,,,,,,,,,,,,,,,,,,,,,,,,,,,,,,,,,,,,,,,,,,,,,,,
,,,,,13,2020-07-01_10h32.11.342,retriever_ti,2020.1.3,Win32,60,Chrome,1366,768,,,,,,,,,,,,,,,,,,,,,,down,1,1.24987,1,0,3,3,1,1,html/resources/sequences_IDs/star.png,square ↑,circle →,star ↓,← triangle,down,,,,,,,,,,,,,,,,,,,,,,,,,,,,,,,,,,,,,,,,,,,,,,,,,,,,,,,,,,,,,,
,,,,,13,2020-07-01_10h32.11.342,retriever_ti,2020.1.3,Win32,60,Chrome,1366,768,,,,,,,,,,,,,,,,,,,,,,,,,,,,,,,,,,,,,1,4.02021,1,0,1,0,1,,,,,,,,,,,,,,,,,,,,,,,,,,,,,,,,,,,,,,,,,,,,,,,,,,,,,,,
,,,,,13,2020-07-01_10h32.11.342,retriever_ti,2020.1.3,Win32,60,Chrome,1366,768,,,,,,,,,,,,,,,,,1,,,,,,,,,,,,,,,,,,,,,,,,,,,352.15328,1,right,1.224905,gloves      ,6,6,5,1,3,352.16837,352.16837,354.66737,0,0,0,0,1,1,1,6,hat           ,gloves      ,html/resources/sequences_IDs/A/08_hat.jpg,html/resources/sequences_IDs/B/06_gloves.jpg,8,6,3,2,3,2,7,5,0,13,,,,,,,,,,,,,,,,,,,,
,,,,,13,2020-07-01_10h32.11.342,retriever_ti,2020.1.3,Win32,60,Chrome,1366,768,,,,,,,,,,,,,,,,,1,,,,,,,,,,,,,,,,,,,,,,,,,,,355.284935,2,right,0.867215,gloves      ,6,6,-2,0,3,355.301925,355.301925,357.799715,0,1,1,1,1,2,8,6,holdfast    ,gloves      ,html/resources/sequences_IDs/B/04_holdfast.jpg,html/resources/sequences_IDs/B/06_gloves.jpg,4,6,2,1,3,2,3,5,0,13,,,,,,,,,,,,,,,,,,,,
,,,,,13,2020-07-01_10h32.11.342,retriever_ti,2020.1.3,Win32,60,Chrome,1366,768,,,,,,,,,,,,,,,,,1,,,,,,,,,,,,,,,,,,,,,,,,,,,358.41732,3,right,1.1724,camel         ,3,3,1,1,0,358.43493,358.43493,360.932735,0,2,2,2,1,3,2,3,sport_tshirt,camel         ,html/resources/sequences_IDs/B/07_sport_tshirt.jpg,html/resources/sequences_IDs/A/03_camel.jpg,7,3,3,2,1,1,6,2,1,13,,,,,,,,,,,,,,,,,,,,
,,,,,13,2020-07-01_10h32.11.342,retriever_ti,2020.1.3,Win32,60,Chrome,1366,768,,,,,,,,,,,,,,,,,1,,,,,,,,,,,,,,,,,,,,,,,,,,,362.033585,4,right,1.62157,sport_tshirt,2,7,1,1,1,362.0512,362.0512,364.549475,0,3,3,3,1,4,1,2,hat           ,sport_tshirt,html/resources/sequences_IDs/A/08_hat.jpg,html/resources/sequences_IDs/B/07_sport_tshirt.jpg,8,7,3,2,3,2,7,6,0,13,,,,,,,,,,,,,,,,,,,,
,,,,,13,2020-07-01_10h32.11.342,retriever_ti,2020.1.3,Win32,60,Chrome,1366,768,,,,,,,,,,,,,,,,,1,,,,,,,,,,,,,,,,,,,,,,,,,,,365.65043,5,left,0.891865,hat           ,1,8,-7,0,3,365.684885,365.684885,368.182965,0,4,4,4,1,5,1,8,hat           ,holdfast    ,html/resources/sequences_IDs/A/08_hat.jpg,html/resources/sequences_IDs/B/04_holdfast.jpg,8,4,3,2,2,1,7,3,0,13,,,,,,,,,,,,,,,,,,,,
,,,,,13,2020-07-01_10h32.11.342,retriever_ti,2020.1.3,Win32,60,Chrome,1366,768,,,,,,,,,,,,,,,,,1,,,,,,,,,,,,,,,,,,,,,,,,,,,368.784125,6,left,2.044355,dolphin     ,4,2,1,1,1,368.817885,368.817885,371.316645,0,5,5,5,1,6,4,3,dolphin     ,camel         ,html/resources/sequences_IDs/B/02_dolphin.jpg,html/resources/sequences_IDs/A/03_camel.jpg,2,3,1,1,1,1,1,2,0,13,,,,,,,,,,,,,,,,,,,,
,,,,,13,2020-07-01_10h32.11.342,retriever_ti,2020.1.3,Win32,60,Chrome,1366,768,,,,,,,,,,,,,,,,,1,,,,,,,,,,,,,,,,,,,,,,,,,,,372.417295,7,left,0.952595,dolphin     ,4,2,-2,0,3,372.45058,372.45058,374.949295,0,6,6,6,1,7,4,6,dolphin     ,gloves      ,html/resources/sequences_IDs/B/02_dolphin.jpg,html/resources/sequences_IDs/B/06_gloves.jpg,2,6,1,1,3,2,1,5,0,13,,,,,,,,,,,,,,,,,,,,
,,,,,13,2020-07-01_10h32.11.342,retriever_ti,2020.1.3,Win32,60,Chrome,1366,768,,,,,,,,,,,,,,,,,1,,,,,,,,,,,,,,,,,,,,,,,,,,,375.567025,8,left,1.636195,peacock       ,7,5,-1,0,0,375.600985,375.600985,378.09933,0,7,7,7,1,8,7,8,peacock       ,holdfast    ,html/resources/sequences_IDs/A/05_peacock.jpg,html/resources/sequences_IDs/B/04_holdfast.jpg,5,4,2,1,2,1,4,3,0,13,,,,,,,,,,,,,,,,,,,,
,,,,,13,2020-07-01_10h32.11.342,retriever_ti,2020.1.3,Win32,60,Chrome,1366,768,,,,,,,,,,,,,,,,,1,,,,,,,,,,,,,,,,,,,,,,,,,,,379.20077,9,left,1.621245,camel         ,3,3,2,1,3,379.21777,379.21777,381.716465,0,8,8,8,1,9,3,1,camel         ,hat           ,html/resources/sequences_IDs/A/03_camel.jpg,html/resources/sequences_IDs/A/08_hat.jpg,3,8,1,1,3,2,2,7,0,13,,,,,,,,,,,,,,,,,,,,
,,,,,13,2020-07-01_10h32.11.342,retriever_ti,2020.1.3,Win32,60,Chrome,1366,768,,,,,,,,,,,,,,,,,1,,,,,,,,,,,,,,,,,,,,,,,,,,,382.33399,10,right,1.266675,dolphin     ,4,2,2,1,3,382.36818,382.36818,384.866205,0,9,9,9,1,10,2,4,sport_tshirt,dolphin     ,html/resources/sequences_IDs/B/07_sport_tshirt.jpg,html/resources/sequences_IDs/B/02_dolphin.jpg,7,2,3,2,1,1,6,1,0,13,,,,,,,,,,,,,,,,,,,,
,,,,,13,2020-07-01_10h32.11.342,retriever_ti,2020.1.3,Win32,60,Chrome,1366,768,,,,,,,,,,,,,,,,,1,,,,,,,,,,,,,,,,,,,,,,,,,,,385.4845,11,left,1.22906,dolphin     ,4,2,-3,0,3,385.518025,385.518025,388.01647,0,10,10,10,1,11,4,7,dolphin     ,peacock       ,html/resources/sequences_IDs/B/02_dolphin.jpg,html/resources/sequences_IDs/A/05_peacock.jpg,2,5,1,1,2,1,1,4,0,13,,,,,,,,,,,,,,,,,,,,
,,,,,13,2020-07-01_10h32.11.342,retriever_ti,2020.1.3,Win32,60,Chrome,1366,768,,,,,,,,,,,,,,,,,1,,,,,,,,,,,,,,,,,,,,,,,,,,,388.63374,12,left,1.032295,peacock       ,7,5,-1,0,0,388.651155,388.651155,391.14967,0,11,11,11,1,12,7,8,peacock       ,holdfast    ,html/resources/sequences_IDs/A/05_peacock.jpg,html/resources/sequences_IDs/B/04_holdfast.jpg,5,4,2,1,2,1,4,3,0,13,,,,,,,,,,,,,,,,,,,,
,,,,,13,2020-07-01_10h32.11.342,retriever_ti,2020.1.3,Win32,60,Chrome,1366,768,,,,,,,,,,,,,,,,,1,,,,,,,,,,,,,,,,,,,,,,,,,,,392.250975,13,left,1.03284,satellite_dish,5,10,4,1,3,392.2853,392.2853,394.782815,0,12,12,12,1,13,5,1,satellite_dish,hat           ,html/resources/sequences_IDs/A/10_satellite_dish.jpg,html/resources/sequences_IDs/A/08_hat.jpg,10,8,4,2,3,2,8,7,0,13,,,,,,,,,,,,,,,,,,,,
,,,,,13,2020-07-01_10h32.11.342,retriever_ti,2020.1.3,Win32,60,Chrome,1366,768,,,,,,,,,,,,,,,,,1,,,,,,,,,,,,,,,,,,,,,,,,,,,395.38391,14,left,0.901615,sport_tshirt,2,7,-4,0,3,395.418255,395.418255,397.916915,0,13,13,13,1,14,2,6,sport_tshirt,gloves      ,html/resources/sequences_IDs/B/07_sport_tshirt.jpg,html/resources/sequences_IDs/B/06_gloves.jpg,7,6,3,2,3,2,6,5,0,13,,,,,,,,,,,,,,,,,,,,
,,,,,13,2020-07-01_10h32.11.342,retriever_ti,2020.1.3,Win32,60,Chrome,1366,768,,,,,,,,,,,,,,,,,1,,,,,,,,,,,,,,,,,,,,,,,,,,,398.518365,15,left,0.71696,dolphin     ,4,2,-1,0,0,398.55143,398.55143,401.05011,0,14,14,14,1,15,4,5,dolphin     ,satellite_dish,html/resources/sequences_IDs/B/02_dolphin.jpg,html/resources/sequences_IDs/A/10_satellite_dish.jpg,2,10,1,1,4,2,1,8,0,13,,,,,,,,,,,,,,,,,,,,
,,,,,13,2020-07-01_10h32.11.342,retriever_ti,2020.1.3,Win32,60,Chrome,1366,768,,,,,,,,,,,,,,,,,1,,,,,,,,,,,,,,,,,,,,,,,,,,,402.15033,16,right,0.97713,satellite_dish,5,10,1,1,1,402.16821,402.16821,404.666215,0,15,15,15,1,16,4,5,dolphin     ,satellite_dish,html/resources/sequences_IDs/B/02_dolphin.jpg,html/resources/sequences_IDs/A/10_satellite_dish.jpg,2,10,1,1,4,2,1,8,0,13,,,,,,,,,,,,,,,,,,,,
,,,,,13,2020-07-01_10h32.11.342,retriever_ti,2020.1.3,Win32,60,Chrome,1366,768,,,,,,,,,,,,,,,,,1,,,,,,,,,,,,,,,,,,,,,,,,,,,405.76744,17,right,0.88301,satellite_dish,5,10,-3,0,3,405.80094,405.80094,408.29918,0,16,16,16,1,17,8,5,holdfast    ,satellite_dish,html/resources/sequences_IDs/B/04_holdfast.jpg,html/resources/sequences_IDs/A/10_satellite_dish.jpg,4,10,2,1,4,2,3,8,0,13,,,,,,,,,,,,,,,,,,,,
,,,,,13,2020-07-01_10h32.11.342,retriever_ti,2020.1.3,Win32,60,Chrome,1366,768,,,,,,,,,,,,,,,,,1,,,,,,,,,,,,,,,,,,,,,,,,,,,408.899985,18,left,0.718495,satellite_dish,5,10,1,1,1,408.934635,408.934635,411.43296,0,17,17,17,1,18,5,4,satellite_dish,dolphin     ,html/resources/sequences_IDs/A/10_satellite_dish.jpg,html/resources/sequences_IDs/B/02_dolphin.jpg,10,2,4,2,1,1,8,1,0,13,,,,,,,,,,,,,,,,,,,,
,,,,,13,2020-07-01_10h32.11.342,retriever_ti,2020.1.3,Win32,60,Chrome,1366,768,,,,,,,,,,,,,,,,,1,,,,,,,,,,,,,,,,,,,,,,,,,,,412.534075,19,left,0.777315,sport_tshirt,2,7,-6,0,3,412.56764,412.56764,415.06631,0,18,18,18,1,19,2,8,sport_tshirt,holdfast    ,html/resources/sequences_IDs/B/07_sport_tshirt.jpg,html/resources/sequences_IDs/B/04_holdfast.jpg,7,4,3,2,2,1,6,3,0,13,,,,,,,,,,,,,,,,,,,,
,,,,,13,2020-07-01_10h32.11.342,retriever_ti,2020.1.3,Win32,60,Chrome,1366,768,,,,,,,,,,,,,,,,,1,,,,,,,,,,,,,,,,,,,,,,,,,,,415.683955,20,left,0.630625,peacock       ,7,5,-1,0,1,415.70125,415.70125,418.199375,0,19,19,19,1,20,7,8,peacock       ,holdfast    ,html/resources/sequences_IDs/A/05_peacock.jpg,html/resources/sequences_IDs/B/04_holdfast.jpg,5,4,2,1,2,1,4,3,1,13,,,,,,,,,,,,,,,,,,,,
,,,,,13,2020-07-01_10h32.11.342,retriever_ti,2020.1.3,Win32,60,Chrome,1366,768,,,,,,,,,,,,,,,,,1,,,,,,,,,,,,,,,,,,,,,,,,,,,419.300585,21,right,0.68255,camel         ,3,3,2,1,3,419.334595,419.334595,421.832975,0,20,20,20,1,21,1,3,hat           ,camel         ,html/resources/sequences_IDs/A/08_hat.jpg,html/resources/sequences_IDs/A/03_camel.jpg,8,3,3,2,1,1,7,2,0,13,,,,,,,,,,,,,,,,,,,,
,,,,,13,2020-07-01_10h32.11.342,retriever_ti,2020.1.3,Win32,60,Chrome,1366,768,,,,,,,,,,,,,,,,,1,,,,,,,,,,,,,,,,,,,,,,,,,,,422.45018,22,left,1.76237,satellite_dish,5,10,3,1,3,422.48507,422.48507,424.98294,0,21,21,21,1,22,5,2,satellite_dish,sport_tshirt,html/resources/sequences_IDs/A/10_satellite_dish.jpg,html/resources/sequences_IDs/B/07_sport_tshirt.jpg,10,7,4,2,3,2,8,6,0,13,,,,,,,,,,,,,,,,,,,,
,,,,,13,2020-07-01_10h32.11.342,retriever_ti,2020.1.3,Win32,60,Chrome,1366,768,,,,,,,,,,,,,,,,,1,,,,,,,,,,,,,,,,,,,,,,,,,,,425.5843,23,right,2.07872,camel         ,3,3,-2,0,3,425.601435,425.601435,428.0998,0,22,22,22,1,23,5,3,satellite_dish,camel         ,html/resources/sequences_IDs/A/10_satellite_dish.jpg,html/resources/sequences_IDs/A/03_camel.jpg,10,3,4,2,1,1,8,2,0,13,,,,,,,,,,,,,,,,,,,,
,,,,,13,2020-07-01_10h32.11.342,retriever_ti,2020.1.3,Win32,60,Chrome,1366,768,,,,,,,,,,,,,,,,,1,,,,,,,,,,,,,,,,,,,,,,,,,,,428.717135,24,right,0.92607,peacock       ,7,5,1,1,1,428.75131,428.75131,431.249455,0,23,23,23,1,24,6,7,gloves      ,peacock       ,html/resources/sequences_IDs/B/06_gloves.jpg,html/resources/sequences_IDs/A/05_peacock.jpg,6,5,3,2,2,1,5,4,0,13,,,,,,,,,,,,,,,,,,,,
,,,,,13,2020-07-01_10h32.11.342,retriever_ti,2020.1.3,Win32,60,Chrome,1366,768,,,,,,,,,,,,,,,,,1,,,,,,,,,,,,,,,,,,,,,,,,,,,432.350345,25,right,0.74579,sport_tshirt,2,7,1,1,1,432.36816,432.36816,434.866235,0,24,24,24,1,25,1,2,hat           ,sport_tshirt,html/resources/sequences_IDs/A/08_hat.jpg,html/resources/sequences_IDs/B/07_sport_tshirt.jpg,8,7,3,2,3,2,7,6,0,13,,,,,,,,,,,,,,,,,,,,
,,,,,13,2020-07-01_10h32.11.342,retriever_ti,2020.1.3,Win32,60,Chrome,1366,768,,,,,,,,,,,,,,,,,1,,,,,,,,,,,,,,,,,,,,,,,,,,,435.966965,26,right,0.95583,dolphin     ,4,2,1,1,0,436.001165,436.001165,438.49958,0,25,25,25,1,26,3,4,camel         ,dolphin     ,html/resources/sequences_IDs/A/03_camel.jpg,html/resources/sequences_IDs/B/02_dolphin.jpg,3,2,1,1,1,1,2,1,1,13,,,,,,,,,,,,,,,,,,,,
,,,,,13,2020-07-01_10h32.11.342,retriever_ti,2020.1.3,Win32,60,Chrome,1366,768,,,,,,,,,,,,,,,,,1,,,,,,,,,,,,,,,,,,,,,,,,,,,439.60047,27,left,1.05789,sport_tshirt,2,7,-5,0,3,439.63416,439.63416,442.132805,0,26,26,26,1,27,2,7,sport_tshirt,peacock       ,html/resources/sequences_IDs/B/07_sport_tshirt.jpg,html/resources/sequences_IDs/A/05_peacock.jpg,7,5,3,2,2,1,6,4,0,13,,,,,,,,,,,,,,,,,,,,
,,,,,13,2020-07-01_10h32.11.342,retriever_ti,2020.1.3,Win32,60,Chrome,1366,768,,,,,,,,,,,,,,,,,1,,,,,,,,,,,,,,,,,,,,,,,,,,,442.75042,28,right,0.49625,sport_tshirt,2,7,-4,0,3,442.767955,442.767955,445.26626,0,27,27,27,1,28,6,2,gloves      ,sport_tshirt,html/resources/sequences_IDs/B/06_gloves.jpg,html/resources/sequences_IDs/B/07_sport_tshirt.jpg,6,7,3,2,3,2,5,6,0,13,,,,,,,,,,,,,,,,,,,,
,,,,,13,2020-07-01_10h32.11.342,retriever_ti,2020.1.3,Win32,60,Chrome,1366,768,,,,,,,,,,,,,,,,,1,,,,,,,,,,,,,,,,,,,,,,,,,,,445.884065,29,left,2.22305,satellite_dish,5,10,-1,0,1,445.9185,445.9185,448.41627,0,28,28,28,1,29,5,6,satellite_dish,gloves      ,html/resources/sequences_IDs/A/10_satellite_dish.jpg,html/resources/sequences_IDs/B/06_gloves.jpg,10,6,4,2,3,2,8,5,1,13,,,,,,,,,,,,,,,,,,,,
,,,,,13,2020-07-01_10h32.11.342,retriever_ti,2020.1.3,Win32,60,Chrome,1366,768,,,,,,,,,,,,,,,,,1,,,,,,,,,,,,,,,,,,,,,,,,,,,449.516955,30,right,1.11559,gloves      ,6,6,3,1,3,449.551505,449.551505,452.04963,0,29,29,29,1,30,3,6,camel         ,gloves      ,html/resources/sequences_IDs/A/03_camel.jpg,html/resources/sequences_IDs/B/06_gloves.jpg,3,6,1,1,3,2,2,5,0,13,,,,,,,,,,,,,,,,,,,,
,,,,,13,2020-07-01_10h32.11.342,retriever_ti,2020.1.3,Win32,60,Chrome,1366,768,,,,,,,,,,,,,,,,,1,,,,,,,,,,,,,,,,,,,,,,,,,,,452.667475,31,right,1.05751,dolphin     ,4,2,-1,0,0,452.684705,452.684705,455.183025,0,30,30,30,1,31,5,4,satellite_dish,dolphin     ,html/resources/sequences_IDs/A/10_satellite_dish.jpg,html/resources/sequences_IDs/B/02_dolphin.jpg,10,2,4,2,1,1,8,1,0,13,,,,,,,,,,,,,,,,,,,,
,,,,,13,2020-07-01_10h32.11.342,retriever_ti,2020.1.3,Win32,60,Chrome,1366,768,,,,,,,,,,,,,,,,,1,,,,,,,,,,,,,,,,,,,,,,,,,,,456.283765,32,right,0.68341,dolphin     ,4,2,-2,0,3,456.30076,456.30076,458.79947,0,31,31,31,1,32,6,4,gloves      ,dolphin     ,html/resources/sequences_IDs/B/06_gloves.jpg,html/resources/sequences_IDs/B/02_dolphin.jpg,6,2,3,2,1,1,5,1,0,13,,,,,,,,,,,,,,,,,,,,
,,,,,13,2020-07-01_10h32.11.342,retriever_ti,2020.1.3,Win32,60,Chrome,1366,768,,,,,,,,,,,,,,,,,1,,,,,,,,,,,,,,,,,,,,,,,,,,,459.417355,33,right,0.397935,gloves      ,6,6,-1,0,0,459.451195,459.451195,461.9494,0,32,32,32,1,33,7,6,peacock       ,gloves      ,html/resources/sequences_IDs/A/05_peacock.jpg,html/resources/sequences_IDs/B/06_gloves.jpg,5,6,2,1,3,2,4,5,0,13,,,,,,,,,,,,,,,,,,,,
,,,,,13,2020-07-01_10h32.11.342,retriever_ti,2020.1.3,Win32,60,Chrome,1366,768,,,,,,,,,,,,,,,,,1,,,,,,,,,,,,,,,,,,,,,,,,,,,463.05034,34,left,0.064355,hat           ,1,8,-1,0,1,463.084665,463.084665,465.583125,0,33,33,33,1,34,1,2,hat           ,sport_tshirt,html/resources/sequences_IDs/A/08_hat.jpg,html/resources/sequences_IDs/B/07_sport_tshirt.jpg,8,7,3,2,3,2,7,6,1,13,,,,,,,,,,,,,,,,,,,,
,,,,,13,2020-07-01_10h32.11.342,retriever_ti,2020.1.3,Win32,60,Chrome,1366,768,,,,,,,,,,,,,,,,,1,,,,,,,,,,,,,,,,,,,,,,,,,,,466.684175,35,left,0.399635,hat           ,1,8,-3,0,3,466.70189,466.70189,469.199645,0,34,34,34,1,35,1,4,hat           ,dolphin     ,html/resources/sequences_IDs/A/08_hat.jpg,html/resources/sequences_IDs/B/02_dolphin.jpg,8,2,3,2,1,1,7,1,0,13,,,,,,,,,,,,,,,,,,,,
,,,,,13,2020-07-01_10h32.11.342,retriever_ti,2020.1.3,Win32,60,Chrome,1366,768,,,,,,,,,,,,,,,,,1,,,,,,,,,,,,,,,,,,,,,,,,,,,469.816945,36,NaN,NaN,No_response,NaN,NaN,NaN,2,2,469.851395,469.851395,472.349515,0,35,35,35,1,36,3,4,camel         ,dolphin     ,html/resources/sequences_IDs/A/03_camel.jpg,html/resources/sequences_IDs/B/02_dolphin.jpg,3,2,1,1,1,1,2,1,0,13,,,,,,,,,,,,,,,,,,,,
,,,,,13,2020-07-01_10h32.11.342,retriever_ti,2020.1.3,Win32,60,Chrome,1366,768,,,,,,,,,,,,,,,,,1,,,,,,,,,,,,,,,,,,,,,,,,,,,473.4512,37,right,0.531775,hat           ,1,8,-1,0,0,473.486125,473.486125,475.98365,0,36,36,36,1,37,2,1,sport_tshirt,hat           ,html/resources/sequences_IDs/B/07_sport_tshirt.jpg,html/resources/sequences_IDs/A/08_hat.jpg,7,8,3,2,3,2,6,7,0,13,,,,,,,,,,,,,,,,,,,,
,,,,,13,2020-07-01_10h32.11.342,retriever_ti,2020.1.3,Win32,60,Chrome,1366,768,,,,,,,,,,,,,,,,,1,,,,,,,,,,,,,,,,,,,,,,,,,,,477.08412,38,left,0.407075,holdfast    ,8,4,7,1,3,477.10137,477.10137,479.599695,0,37,37,37,1,38,8,1,holdfast    ,hat           ,html/resources/sequences_IDs/B/04_holdfast.jpg,html/resources/sequences_IDs/A/08_hat.jpg,4,8,2,1,3,2,3,7,0,13,,,,,,,,,,,,,,,,,,,,
,,,,,13,2020-07-01_10h32.11.342,retriever_ti,2020.1.3,Win32,60,Chrome,1366,768,,,,,,,,,,,,,,,,,1,,,,,,,,,,,,,,,,,,,,,,,,,,,480.21764,39,right,0.43061,peacock       ,7,5,6,1,3,480.2343,480.2343,482.73326,0,38,38,38,1,39,1,7,hat           ,peacock       ,html/resources/sequences_IDs/A/08_hat.jpg,html/resources/sequences_IDs/A/05_peacock.jpg,8,5,3,2,2,1,7,4,0,13,,,,,,,,,,,,,,,,,,,,
,,,,,13,2020-07-01_10h32.11.342,retriever_ti,2020.1.3,Win32,60,Chrome,1366,768,,,,,,,,,,,,,,,,,1,,,,,,,,,,,,,,,,,,,,,,,,,,,483.35029,40,right,0.406885,satellite_dish,5,10,4,1,3,483.38509,483.38509,485.88289,0,39,39,39,1,40,1,5,hat           ,satellite_dish,html/resources/sequences_IDs/A/08_hat.jpg,html/resources/sequences_IDs/A/10_satellite_dish.jpg,8,10,3,2,4,2,7,8,0,13,,,,,,,,,,,,,,,,,,,,
,,,,,13,2020-07-01_10h32.11.342,retriever_ti,2020.1.3,Win32,60,Chrome,1366,768,,,,,,,,,,,,,,,,,1,,,,,,,,,,,,,,,,,,,,,,,,,,,486.48422,41,right,0.701155,satellite_dish,5,10,-1,0,0,486.51794,486.51794,489.016665,0,40,40,40,1,41,6,5,gloves      ,satellite_dish,html/resources/sequences_IDs/B/06_gloves.jpg,html/resources/sequences_IDs/A/10_satellite_dish.jpg,6,10,3,2,4,2,5,8,0,13,,,,,,,,,,,,,,,,,,,,
,,,,,13,2020-07-01_10h32.11.342,retriever_ti,2020.1.3,Win32,60,Chrome,1366,768,,,,,,,,,,,,,,,,,1,,,,,,,,,,,,,,,,,,,,,,,,,,,490.11708,42,left,0.13157,satellite_dish,5,10,-3,0,3,490.13518,490.13518,492.633155,0,41,41,41,1,42,5,8,satellite_dish,holdfast    ,html/resources/sequences_IDs/A/10_satellite_dish.jpg,html/resources/sequences_IDs/B/04_holdfast.jpg,10,4,4,2,2,1,8,3,0,13,,,,,,,,,,,,,,,,,,,,
,,,,,13,2020-07-01_10h32.11.342,retriever_ti,2020.1.3,Win32,60,Chrome,1366,768,,,,,,,,,,,,,,,,,1,,,,,,,,,,,,,,,,,,,,,,,,,,,493.250795,43,left,0.444265,sport_tshirt,2,7,-1,0,0,493.26854,493.26854,495.766485,0,42,42,42,1,43,2,3,sport_tshirt,camel         ,html/resources/sequences_IDs/B/07_sport_tshirt.jpg,html/resources/sequences_IDs/A/03_camel.jpg,7,3,3,2,1,1,6,2,0,13,,,,,,,,,,,,,,,,,,,,
,,,,,13,2020-07-01_10h32.11.342,retriever_ti,2020.1.3,Win32,60,Chrome,1366,768,,,,,,,,,,,,,,,,,1,,,,,,,,,,,,,,,,,,,,,,,,,,,496.86744,44,right,0.001785,peacock       ,7,5,-1,0,0,496.88485,496.88485,499.38361,0,43,43,43,1,44,8,7,holdfast    ,peacock       ,html/resources/sequences_IDs/B/04_holdfast.jpg,html/resources/sequences_IDs/A/05_peacock.jpg,4,5,2,1,2,1,3,4,0,13,,,,,,,,,,,,,,,,,,,,
,,,,,13,2020-07-01_10h32.11.342,retriever_ti,2020.1.3,Win32,60,Chrome,1366,768,,,,,,,,,,,,,,,,,1,,,,,,,,,,,,,,,,,,,,,,,,,,,500.48469,45,right,0.756695,sport_tshirt,2,7,-1,0,0,500.50173,500.50173,502.99959,0,44,44,44,1,45,3,2,camel         ,sport_tshirt,html/resources/sequences_IDs/A/03_camel.jpg,html/resources/sequences_IDs/B/07_sport_tshirt.jpg,3,7,1,1,3,2,2,6,0,13,,,,,,,,,,,,,,,,,,,,
,,,,,13,2020-07-01_10h32.11.342,retriever_ti,2020.1.3,Win32,60,Chrome,1366,768,,,,,,,,,,,,,,,,,1,,,,,,,,,,,,,,,,,,,,,,,,,,,504.100555,46,left,0.550745,dolphin     ,4,2,-4,0,3,504.134795,504.134795,506.63286,0,45,45,45,1,46,4,8,dolphin     ,holdfast    ,html/resources/sequences_IDs/B/02_dolphin.jpg,html/resources/sequences_IDs/B/04_holdfast.jpg,2,4,1,1,2,1,1,3,0,13,,,,,,,,,,,,,,,,,,,,
,,,,,13,2020-07-01_10h32.11.342,retriever_ti,2020.1.3,Win32,60,Chrome,1366,768,,,,,,,,,,,,,,,,,1,,,,,,,,,,,,,,,,,,,,,,,,,,,507.234035,47,left,0.82878,satellite_dish,5,10,1,1,0,507.25079,507.25079,509.749315,0,46,46,46,1,47,5,4,satellite_dish,dolphin     ,html/resources/sequences_IDs/A/10_satellite_dish.jpg,html/resources/sequences_IDs/B/02_dolphin.jpg,10,2,4,2,1,1,8,1,1,13,,,,,,,,,,,,,,,,,,,,
,,,,,13,2020-07-01_10h32.11.342,retriever_ti,2020.1.3,Win32,60,Chrome,1366,768,,,,,,,,,,,,,,,,,1,,,,,,,,,,,,,,,,,,,,,,,,,,,510.85021,48,right,0.593865,peacock       ,7,5,1,1,0,510.86836,510.86836,513.36634,0,47,47,47,1,48,6,7,gloves      ,peacock       ,html/resources/sequences_IDs/B/06_gloves.jpg,html/resources/sequences_IDs/A/05_peacock.jpg,6,5,3,2,2,1,5,4,1,13,,,,,,,,,,,,,,,,,,,,
,,,,,13,2020-07-01_10h32.11.342,retriever_ti,2020.1.3,Win32,60,Chrome,1366,768,,,,,,,,,,,,,,,,,1,,,,,,,,,,,,,,,,,,,,,,,,,,,514.467535,49,left,0.622725,camel         ,3,3,1,1,1,514.500785,514.500785,516.99973,0,48,48,48,1,49,3,2,camel         ,sport_tshirt,html/resources/sequences_IDs/A/03_camel.jpg,html/resources/sequences_IDs/B/07_sport_tshirt.jpg,3,7,1,1,3,2,2,6,0,13,,,,,,,,,,,,,,,,,,,,
,,,,,13,2020-07-01_10h32.11.342,retriever_ti,2020.1.3,Win32,60,Chrome,1366,768,,,,,,,,,,,,,,,,,1,,,,,,,,,,,,,,,,,,,,,,,,,,,518.100145,50,left,1.118725,satellite_dish,5,10,-1,0,0,518.117985,518.117985,520.616575,0,49,49,49,1,50,5,6,satellite_dish,gloves      ,html/resources/sequences_IDs/A/10_satellite_dish.jpg,html/resources/sequences_IDs/B/06_gloves.jpg,10,6,4,2,3,2,8,5,0,13,,,,,,,,,,,,,,,,,,,,
,,,,,13,2020-07-01_10h32.11.342,retriever_ti,2020.1.3,Win32,60,Chrome,1366,768,,,,,,,,,,,,,,,,,1,,,,,,,,,,,,,,,,,,,,,,,,,,,521.717265,51,right,1.14246,camel         ,3,3,-5,0,3,521.751495,521.751495,524.24976,0,50,50,50,1,51,8,3,holdfast    ,camel         ,html/resources/sequences_IDs/B/04_holdfast.jpg,html/resources/sequences_IDs/A/03_camel.jpg,4,3,2,1,1,1,3,2,0,13,,,,,,,,,,,,,,,,,,,,
,,,,,13,2020-07-01_10h32.11.342,retriever_ti,2020.1.3,Win32,60,Chrome,1366,768,,,,,,,,,,,,,,,,,1,,,,,,,,,,,,,,,,,,,,,,,,,,,524.867115,52,right,0.662605,camel         ,3,3,-3,0,3,524.901175,524.901175,527.399685,0,51,51,51,1,52,6,3,gloves      ,camel         ,html/resources/sequences_IDs/B/06_gloves.jpg,html/resources/sequences_IDs/A/03_camel.jpg,6,3,3,2,1,1,5,2,0,13,,,,,,,,,,,,,,,,,,,,
,,,,,13,2020-07-01_10h32.11.342,retriever_ti,2020.1.3,Win32,60,Chrome,1366,768,,,,,,,,,,,,,,,,,1,,,,,,,,,,,,,,,,,,,,,,,,,,,528.01774,53,right,0.479405,satellite_dish,5,10,-1,0,0,528.05141,528.05141,530.54955,0,52,52,52,1,53,6,5,gloves      ,satellite_dish,html/resources/sequences_IDs/B/06_gloves.jpg,html/resources/sequences_IDs/A/10_satellite_dish.jpg,6,10,3,2,4,2,5,8,0,13,,,,,,,,,,,,,,,,,,,,
,,,,,13,2020-07-01_10h32.11.342,retriever_ti,2020.1.3,Win32,60,Chrome,1366,768,,,,,,,,,,,,,,,,,1,,,,,,,,,,,,,,,,,,,,,,,,,,,531.649755,54,left,0.473495,satellite_dish,5,10,-1,0,0,531.68417,531.68417,534.18299,0,53,53,53,1,54,5,6,satellite_dish,gloves      ,html/resources/sequences_IDs/A/10_satellite_dish.jpg,html/resources/sequences_IDs/B/06_gloves.jpg,10,6,4,2,3,2,8,5,0,13,,,,,,,,,,,,,,,,,,,,
,,,,,13,2020-07-01_10h32.11.342,retriever_ti,2020.1.3,Win32,60,Chrome,1366,768,,,,,,,,,,,,,,,,,1,,,,,,,,,,,,,,,,,,,,,,,,,,,535.284095,55,right,0.566145,satellite_dish,5,10,-2,0,3,535.3182,535.3182,537.816685,0,54,54,54,1,55,7,5,peacock       ,satellite_dish,html/resources/sequences_IDs/A/05_peacock.jpg,html/resources/sequences_IDs/A/10_satellite_dish.jpg,5,10,2,1,4,2,4,8,0,13,,,,,,,,,,,,,,,,,,,,
,,,,,13,2020-07-01_10h32.11.342,retriever_ti,2020.1.3,Win32,60,Chrome,1366,768,,,,,,,,,,,,,,,,,1,,,,,,,,,,,,,,,,,,,,,,,,,,,538.433165,56,left,0.70001,dolphin     ,4,2,3,1,3,538.468045,538.468045,540.96652,0,55,55,55,1,56,4,1,dolphin     ,hat           ,html/resources/sequences_IDs/B/02_dolphin.jpg,html/resources/sequences_IDs/A/08_hat.jpg,2,8,1,1,3,2,1,7,0,13,,,,,,,,,,,,,,,,,,,,
,,,,,13,2020-07-01_10h32.11.342,retriever_ti,2020.1.3,Win32,60,Chrome,1366,768,,,,,,,,,,,,,,,,,1,,,,,,,,,,,,,,,,,,,,,,,,,,,541.584575,57,right,0.470295,peacock       ,7,5,4,1,3,541.618175,541.618175,544.116645,0,56,56,56,1,57,3,7,camel         ,peacock       ,html/resources/sequences_IDs/A/03_camel.jpg,html/resources/sequences_IDs/A/05_peacock.jpg,3,5,1,1,2,1,2,4,0,13,,,,,,,,,,,,,,,,,,,,
,,,,,13,2020-07-01_10h32.11.342,retriever_ti,2020.1.3,Win32,60,Chrome,1366,768,,,,,,,,,,,,,,,,,1,,,,,,,,,,,,,,,,,,,,,,,,,,,544.733695,58,left,0.726795,peacock       ,7,5,1,1,1,544.75134,544.75134,547.25071,0,57,57,57,1,58,7,6,peacock       ,gloves      ,html/resources/sequences_IDs/A/05_peacock.jpg,html/resources/sequences_IDs/B/06_gloves.jpg,5,6,2,1,3,2,4,5,0,13,,,,,,,,,,,,,,,,,,,,
,,,,,13,2020-07-01_10h32.11.342,retriever_ti,2020.1.3,Win32,60,Chrome,1366,768,,,,,,,,,,,,,,,,,1,,,,,,,,,,,,,,,,,,,,,,,,,,,548.35138,59,right,0.728785,dolphin     ,4,2,-4,0,3,548.38588,548.38588,550.88288,0,58,58,58,1,59,8,4,holdfast    ,dolphin     ,html/resources/sequences_IDs/B/04_holdfast.jpg,html/resources/sequences_IDs/B/02_dolphin.jpg,4,2,2,1,1,1,3,1,0,13,,,,,,,,,,,,,,,,,,,,
,,,,,13,2020-07-01_10h32.11.342,retriever_ti,2020.1.3,Win32,60,Chrome,1366,768,,,,,,,,,,,,,,,,,1,,,,,,,,,,,,,,,,,,,,,,,,,,,551.499965,60,right,0.57559,peacock       ,7,5,1,1,1,551.51775,551.51775,554.01721,0,59,59,59,1,60,6,7,gloves      ,peacock       ,html/resources/sequences_IDs/B/06_gloves.jpg,html/resources/sequences_IDs/A/05_peacock.jpg,6,5,3,2,2,1,5,4,0,13,,,,,,,,,,,,,,,,,,,,
,,,,,13,2020-07-01_10h32.11.342,retriever_ti,2020.1.3,Win32,60,Chrome,1366,768,,,,,,,,,,,,,,,,,1,,,,,,,,,,,,,,,,,,,,,,,,,,,555.117505,61,left,0.878175,peacock       ,7,5,6,1,3,555.134805,555.134805,557.633035,0,60,60,60,1,61,7,1,peacock       ,hat           ,html/resources/sequences_IDs/A/05_peacock.jpg,html/resources/sequences_IDs/A/08_hat.jpg,5,8,2,1,3,2,4,7,0,13,,,,,,,,,,,,,,,,,,,,
,,,,,13,2020-07-01_10h32.11.342,retriever_ti,2020.1.3,Win32,60,Chrome,1366,768,,,,,,,,,,,,,,,,,1,,,,,,,,,,,,,,,,,,,,,,,,,,,558.250395,62,right,1.25516,camel         ,3,3,-4,0,3,558.267795,558.267795,560.7664,0,61,61,61,1,62,7,3,peacock       ,camel         ,html/resources/sequences_IDs/A/05_peacock.jpg,html/resources/sequences_IDs/A/03_camel.jpg,5,3,2,1,1,1,4,2,0,13,,,,,,,,,,,,,,,,,,,,
,,,,,13,2020-07-01_10h32.11.342,retriever_ti,2020.1.3,Win32,60,Chrome,1366,768,,,,,,,,,,,,,,,,,1,,,,,,,,,,,,,,,,,,,,,,,,,,,561.3677,63,NaN,NaN,No_response,NaN,NaN,NaN,2,2,561.401545,561.401545,563.899785,0,62,62,62,1,63,4,2,dolphin     ,sport_tshirt,html/resources/sequences_IDs/B/02_dolphin.jpg,html/resources/sequences_IDs/B/07_sport_tshirt.jpg,2,7,1,1,3,2,1,6,0,13,,,,,,,,,,,,,,,,,,,,
,,,,,13,2020-07-01_10h32.11.342,retriever_ti,2020.1.3,Win32,60,Chrome,1366,768,,,,,,,,,,,,,,,,,1,,,,,,,,,,,,,,,,,,,,,,,,,,,565.00019,64,right,0.56679,camel         ,3,3,-1,0,0,565.018255,565.018255,567.51648,0,63,63,63,1,64,4,3,dolphin     ,camel         ,html/resources/sequences_IDs/B/02_dolphin.jpg,html/resources/sequences_IDs/A/03_camel.jpg,2,3,1,1,1,1,1,2,0,13,,,,,,,,,,,,,,,,,,,,
,,,,,13,2020-07-01_10h32.11.342,retriever_ti,2020.1.3,Win32,60,Chrome,1366,768,,,,,,,,,,,,,,,,,1,,,,,,,,,,,,,,,,,,,,,,,,,,,568.617495,65,left,0.26572,gloves      ,6,6,5,1,3,568.651465,568.651465,571.150255,0,64,64,64,1,65,6,1,gloves      ,hat           ,html/resources/sequences_IDs/B/06_gloves.jpg,html/resources/sequences_IDs/A/08_hat.jpg,6,8,3,2,3,2,5,7,0,13,,,,,,,,,,,,,,,,,,,,
,,,,,13,2020-07-01_10h32.11.342,retriever_ti,2020.1.3,Win32,60,Chrome,1366,768,,,,,,,,,,,,,,,,,1,,,,,,,,,,,,,,,,,,,,,,,,,,,571.767875,66,right,0.354485,dolphin     ,4,2,-3,0,3,571.785585,571.785585,574.283415,0,65,65,65,1,66,7,4,peacock       ,dolphin     ,html/resources/sequences_IDs/A/05_peacock.jpg,html/resources/sequences_IDs/B/02_dolphin.jpg,5,2,2,1,1,1,4,1,0,13,,,,,,,,,,,,,,,,,,,,
,,,,,13,2020-07-01_10h32.11.342,retriever_ti,2020.1.3,Win32,60,Chrome,1366,768,,,,,,,,,,,,,,,,,1,,,,,,,,,,,,,,,,,,,,,,,,,,,574.90099,67,right,1.3809,hat           ,1,8,-1,0,0,574.918395,574.918395,577.416475,0,66,66,66,1,67,2,1,sport_tshirt,hat           ,html/resources/sequences_IDs/B/07_sport_tshirt.jpg,html/resources/sequences_IDs/A/08_hat.jpg,7,8,3,2,3,2,6,7,0,13,,,,,,,,,,,,,,,,,,,,
,,,,,13,2020-07-01_10h32.11.342,retriever_ti,2020.1.3,Win32,60,Chrome,1366,768,,,,,,,,,,,,,,,,,1,,,,,,,,,,,,,,,,,,,,,,,,,,,578.51712,68,left,0.2703,gloves      ,6,6,-2,0,3,578.535245,578.535245,581.033075,0,67,67,67,1,68,6,8,gloves      ,holdfast    ,html/resources/sequences_IDs/B/06_gloves.jpg,html/resources/sequences_IDs/B/04_holdfast.jpg,6,4,3,2,2,1,5,3,0,13,,,,,,,,,,,,,,,,,,,,
,,,,,13,2020-07-01_10h32.11.342,retriever_ti,2020.1.3,Win32,60,Chrome,1366,768,,,,,,,,,,,,,,,,,1,,,,,,,,,,,,,,,,,,,,,,,,,,,581.650665,69,right,0.627125,satellite_dish,5,10,2,1,3,581.68491,581.68491,584.183285,0,68,68,68,1,69,3,5,camel         ,satellite_dish,html/resources/sequences_IDs/A/03_camel.jpg,html/resources/sequences_IDs/A/10_satellite_dish.jpg,3,10,1,1,4,2,2,8,0,13,,,,,,,,,,,,,,,,,,,,
,,,,,13,2020-07-01_10h32.11.342,retriever_ti,2020.1.3,Win32,60,Chrome,1366,768,,,,,,,,,,,,,,,,,1,,,,,,,,,,,,,,,,,,,,,,,,,,,584.800495,70,right,0.93136,peacock       ,7,5,-1,0,0,584.834795,584.834795,587.33323,0,69,69,69,1,70,8,7,holdfast    ,peacock       ,html/resources/sequences_IDs/B/04_holdfast.jpg,html/resources/sequences_IDs/A/05_peacock.jpg,4,5,2,1,2,1,3,4,0,13,,,,,,,,,,,,,,,,,,,,
,,,,,13,2020-07-01_10h32.11.342,retriever_ti,2020.1.3,Win32,60,Chrome,1366,768,,,,,,,,,,,,,,,,,1,,,,,,,,,,,,,,,,,,,,,,,,,,,588.43417,71,left,0.668815,peacock       ,7,5,5,1,3,588.451265,588.451265,590.95029,0,70,70,70,1,71,7,2,peacock       ,sport_tshirt,html/resources/sequences_IDs/A/05_peacock.jpg,html/resources/sequences_IDs/B/07_sport_tshirt.jpg,5,7,2,1,3,2,4,6,0,13,,,,,,,,,,,,,,,,,,,,
,,,,,13,2020-07-01_10h32.11.342,retriever_ti,2020.1.3,Win32,60,Chrome,1366,768,,,,,,,,,,,,,,,,,1,,,,,,,,,,,,,,,,,,,,,,,,,,,591.56783,72,right,1.44367,dolphin     ,4,2,1,1,1,591.585565,591.585565,594.08341,0,71,71,71,1,72,3,4,camel         ,dolphin     ,html/resources/sequences_IDs/A/03_camel.jpg,html/resources/sequences_IDs/B/02_dolphin.jpg,3,2,1,1,1,1,2,1,0,13,,,,,,,,,,,,,,,,,,,,
,,,,,13,2020-07-01_10h32.11.342,retriever_ti,2020.1.3,Win32,60,Chrome,1366,768,,,,,,,,,,,,,,,,,1,,,,,,,,,,,,,,,,,,,,,,,,,,,595.184125,73,right,1.326055,satellite_dish,5,10,3,1,3,595.201405,595.201405,597.700205,0,72,72,72,1,73,2,5,sport_tshirt,satellite_dish,html/resources/sequences_IDs/B/07_sport_tshirt.jpg,html/resources/sequences_IDs/A/10_satellite_dish.jpg,7,10,3,2,4,2,6,8,0,13,,,,,,,,,,,,,,,,,,,,
,,,,,13,2020-07-01_10h32.11.342,retriever_ti,2020.1.3,Win32,60,Chrome,1366,768,,,,,,,,,,,,,,,,,1,,,,,,,,,,,,,,,,,,,,,,,,,,,598.301235,74,left,1.47164,satellite_dish,5,10,-2,0,3,598.335575,598.335575,600.83316,0,73,73,73,1,74,5,7,satellite_dish,peacock       ,html/resources/sequences_IDs/A/10_satellite_dish.jpg,html/resources/sequences_IDs/A/05_peacock.jpg,10,5,4,2,2,1,8,4,0,13,,,,,,,,,,,,,,,,,,,,
,,,,,13,2020-07-01_10h32.11.342,retriever_ti,2020.1.3,Win32,60,Chrome,1366,768,,,,,,,,,,,,,,,,,1,,,,,,,,,,,,,,,,,,,,,,,,,,,601.434555,75,right,1.042985,camel         ,3,3,1,1,1,601.468265,601.468265,603.96648,0,74,74,74,1,75,2,3,sport_tshirt,camel         ,html/resources/sequences_IDs/B/07_sport_tshirt.jpg,html/resources/sequences_IDs/A/03_camel.jpg,7,3,3,2,1,1,6,2,0,13,,,,,,,,,,,,,,,,,,,,
,,,,,13,2020-07-01_10h32.11.342,retriever_ti,2020.1.3,Win32,60,Chrome,1366,768,,,,,,,,,,,,,,,,,1,,,,,,,,,,,,,,,,,,,,,,,,,,,605.0672,76,left,0.72783,camel         ,3,3,-5,0,3,605.085075,605.085075,607.582995,0,75,75,75,1,76,3,8,camel         ,holdfast    ,html/resources/sequences_IDs/A/03_camel.jpg,html/resources/sequences_IDs/B/04_holdfast.jpg,3,4,1,1,2,1,2,3,0,13,,,,,,,,,,,,,,,,,,,,
,,,,,13,2020-07-01_10h32.11.342,retriever_ti,2020.1.3,Win32,60,Chrome,1366,768,,,,,,,,,,,,,,,,,1,,,,,,,,,,,,,,,,,,,,,,,,,,,608.200665,77,right,1.25645,sport_tshirt,2,7,-6,0,3,608.23496,608.23496,610.73294,0,76,76,76,1,77,8,2,holdfast    ,sport_tshirt,html/resources/sequences_IDs/B/04_holdfast.jpg,html/resources/sequences_IDs/B/07_sport_tshirt.jpg,4,7,2,1,3,2,3,6,0,13,,,,,,,,,,,,,,,,,,,,
,,,,,13,2020-07-01_10h32.11.342,retriever_ti,2020.1.3,Win32,60,Chrome,1366,768,,,,,,,,,,,,,,,,,,,,,,,,,,,,,,,,,,,,,0,6.448725,,,,,,,,,,,,,,,,,,,,,,,,,,,,,,,,,,,,,,,,,0,0,0,0,1,,,,,,,,,,,,,,,
,,,,,13,2020-07-01_10h32.11.342,retriever_ti,2020.1.3,Win32,60,Chrome,1366,768,,,,,,,,,,,,,,,,,2,,,,,,,,,,,,,,,,,,,,,,,,,,,636.994955,78,left,1.5088,dolphin     ,4,2,-1,0,0,637.019525,637.019525,639.517205,0,0,0,0,1,78,4,5,dolphin     ,satellite_dish,html/resources/sequences_IDs/B/02_dolphin.jpg,html/resources/sequences_IDs/A/10_satellite_dish.jpg,2,10,1,1,4,2,1,8,0,13,,,,,,,,,,,,,,,,,,,,
,,,,,13,2020-07-01_10h32.11.342,retriever_ti,2020.1.3,Win32,60,Chrome,1366,768,,,,,,,,,,,,,,,,,2,,,,,,,,,,,,,,,,,,,,,,,,,,,640.617135,79,right,1.13269,hat           ,1,8,-7,0,3,640.63482,640.63482,643.13296,0,1,1,1,1,79,8,1,holdfast    ,hat           ,html/resources/sequences_IDs/B/04_holdfast.jpg,html/resources/sequences_IDs/A/08_hat.jpg,4,8,2,1,3,2,3,7,0,13,,,,,,,,,,,,,,,,,,,,
,,,,,13,2020-07-01_10h32.11.342,retriever_ti,2020.1.3,Win32,60,Chrome,1366,768,,,,,,,,,,,,,,,,,2,,,,,,,,,,,,,,,,,,,,,,,,,,,643.73439,80,right,0.83812,peacock       ,7,5,5,1,3,643.768655,643.768655,646.26688,0,2,2,2,1,80,2,7,sport_tshirt,peacock       ,html/resources/sequences_IDs/B/07_sport_tshirt.jpg,html/resources/sequences_IDs/A/05_peacock.jpg,7,5,3,2,2,1,6,4,0,13,,,,,,,,,,,,,,,,,,,,
,,,,,13,2020-07-01_10h32.11.342,retriever_ti,2020.1.3,Win32,60,Chrome,1366,768,,,,,,,,,,,,,,,,,2,,,,,,,,,,,,,,,,,,,,,,,,,,,646.883815,81,left,0.65678,peacock       ,7,5,-1,0,0,646.918345,646.918345,649.41718,0,3,3,3,1,81,7,8,peacock       ,holdfast    ,html/resources/sequences_IDs/A/05_peacock.jpg,html/resources/sequences_IDs/B/04_holdfast.jpg,5,4,2,1,2,1,4,3,0,13,,,,,,,,,,,,,,,,,,,,
,,,,,13,2020-07-01_10h32.11.342,retriever_ti,2020.1.3,Win32,60,Chrome,1366,768,,,,,,,,,,,,,,,,,2,,,,,,,,,,,,,,,,,,,,,,,,,,,650.51789,82,left,0.75772,dolphin     ,4,2,2,1,3,650.53486,650.53486,653.03351,0,4,4,4,1,82,4,2,dolphin     ,sport_tshirt,html/resources/sequences_IDs/B/02_dolphin.jpg,html/resources/sequences_IDs/B/07_sport_tshirt.jpg,2,7,1,1,3,2,1,6,0,13,,,,,,,,,,,,,,,,,,,,
,,,,,13,2020-07-01_10h32.11.342,retriever_ti,2020.1.3,Win32,60,Chrome,1366,768,,,,,,,,,,,,,,,,,2,,,,,,,,,,,,,,,,,,,,,,,,,,,653.634485,83,right,0.656525,camel         ,3,3,2,1,3,653.66842,653.66842,656.16653,0,5,5,5,1,83,1,3,hat           ,camel         ,html/resources/sequences_IDs/A/08_hat.jpg,html/resources/sequences_IDs/A/03_camel.jpg,8,3,3,2,1,1,7,2,0,13,,,,,,,,,,,,,,,,,,,,
,,,,,13,2020-07-01_10h32.11.342,retriever_ti,2020.1.3,Win32,60,Chrome,1366,768,,,,,,,,,,,,,,,,,2,,,,,,,,,,,,,,,,,,,,,,,,,,,656.78433,84,right,0.710275,dolphin     ,4,2,3,1,3,656.80163,656.80163,659.299875,0,6,6,6,1,84,1,4,hat           ,dolphin     ,html/resources/sequences_IDs/A/08_hat.jpg,html/resources/sequences_IDs/B/02_dolphin.jpg,8,2,3,2,1,1,7,1,0,13,,,,,,,,,,,,,,,,,,,,
,,,,,13,2020-07-01_10h32.11.342,retriever_ti,2020.1.3,Win32,60,Chrome,1366,768,,,,,,,,,,,,,,,,,2,,,,,,,,,,,,,,,,,,,,,,,,,,,659.91732,85,right,1.145075,peacock       ,7,5,6,1,3,659.93526,659.93526,662.43324,0,7,7,7,1,85,1,7,hat           ,peacock       ,html/resources/sequences_IDs/A/08_hat.jpg,html/resources/sequences_IDs/A/05_peacock.jpg,8,5,3,2,2,1,7,4,0,13,,,,,,,,,,,,,,,,,,,,
,,,,,13,2020-07-01_10h32.11.342,retriever_ti,2020.1.3,Win32,60,Chrome,1366,768,,,,,,,,,,,,,,,,,2,,,,,,,,,,,,,,,,,,,,,,,,,,,663.05126,86,right,1.816205,sport_tshirt,2,7,1,1,1,663.084725,663.084725,665.58356,0,8,8,8,1,86,1,2,hat           ,sport_tshirt,html/resources/sequences_IDs/A/08_hat.jpg,html/resources/sequences_IDs/B/07_sport_tshirt.jpg,8,7,3,2,3,2,7,6,0,13,,,,,,,,,,,,,,,,,,,,
,,,,,13,2020-07-01_10h32.11.342,retriever_ti,2020.1.3,Win32,60,Chrome,1366,768,,,,,,,,,,,,,,,,,2,,,,,,,,,,,,,,,,,,,,,,,,,,,666.684595,87,right,0.896085,satellite_dish,5,10,1,1,0,666.71927,666.71927,669.217085,0,9,9,9,1,87,4,5,dolphin     ,satellite_dish,html/resources/sequences_IDs/B/02_dolphin.jpg,html/resources/sequences_IDs/A/10_satellite_dish.jpg,2,10,1,1,4,2,1,8,1,13,,,,,,,,,,,,,,,,,,,,
,,,,,13,2020-07-01_10h32.11.342,retriever_ti,2020.1.3,Win32,60,Chrome,1366,768,,,,,,,,,,,,,,,,,2,,,,,,,,,,,,,,,,,,,,,,,,,,,670.31781,88,right,0.626025,camel         ,3,3,1,1,1,670.3352,670.3352,672.83302,0,10,10,10,1,88,2,3,sport_tshirt,camel         ,html/resources/sequences_IDs/B/07_sport_tshirt.jpg,html/resources/sequences_IDs/A/03_camel.jpg,7,3,3,2,1,1,6,2,0,13,,,,,,,,,,,,,,,,,,,,
,,,,,13,2020-07-01_10h32.11.342,retriever_ti,2020.1.3,Win32,60,Chrome,1366,768,,,,,,,,,,,,,,,,,2,,,,,,,,,,,,,,,,,,,,,,,,,,,673.933825,89,right,1.08951,satellite_dish,5,10,3,1,3,673.967825,673.967825,676.46654,0,11,11,11,1,89,2,5,sport_tshirt,satellite_dish,html/resources/sequences_IDs/B/07_sport_tshirt.jpg,html/resources/sequences_IDs/A/10_satellite_dish.jpg,7,10,3,2,4,2,6,8,0,13,,,,,,,,,,,,,,,,,,,,
,,,,,13,2020-07-01_10h32.11.342,retriever_ti,2020.1.3,Win32,60,Chrome,1366,768,,,,,,,,,,,,,,,,,2,,,,,,,,,,,,,,,,,,,,,,,,,,,677.067915,90,left,0.716845,peacock       ,7,5,1,1,1,677.10158,677.10158,679.599715,0,12,12,12,1,90,7,6,peacock       ,gloves      ,html/resources/sequences_IDs/A/05_peacock.jpg,html/resources/sequences_IDs/B/06_gloves.jpg,5,6,2,1,3,2,4,5,0,13,,,,,,,,,,,,,,,,,,,,
,,,,,13,2020-07-01_10h32.11.342,retriever_ti,2020.1.3,Win32,60,Chrome,1366,768,,,,,,,,,,,,,,,,,2,,,,,,,,,,,,,,,,,,,,,,,,,,,680.70036,91,right,0.79255,satellite_dish,5,10,4,1,3,680.73503,680.73503,683.233345,0,13,13,13,1,91,1,5,hat           ,satellite_dish,html/resources/sequences_IDs/A/08_hat.jpg,html/resources/sequences_IDs/A/10_satellite_dish.jpg,8,10,3,2,4,2,7,8,0,13,,,,,,,,,,,,,,,,,,,,
,,,,,13,2020-07-01_10h32.11.342,retriever_ti,2020.1.3,Win32,60,Chrome,1366,768,,,,,,,,,,,,,,,,,2,,,,,,,,,,,,,,,,,,,,,,,,,,,683.85047,92,right,1.12481,sport_tshirt,2,7,-4,0,3,683.867965,683.867965,686.366795,0,14,14,14,1,92,6,2,gloves      ,sport_tshirt,html/resources/sequences_IDs/B/06_gloves.jpg,html/resources/sequences_IDs/B/07_sport_tshirt.jpg,6,7,3,2,3,2,5,6,0,13,,,,,,,,,,,,,,,,,,,,
,,,,,13,2020-07-01_10h32.11.342,retriever_ti,2020.1.3,Win32,60,Chrome,1366,768,,,,,,,,,,,,,,,,,2,,,,,,,,,,,,,,,,,,,,,,,,,,,686.98529,93,right,1.62654,dolphin     ,4,2,1,1,1,687.018445,687.018445,689.516645,0,15,15,15,1,93,3,4,camel         ,dolphin     ,html/resources/sequences_IDs/A/03_camel.jpg,html/resources/sequences_IDs/B/02_dolphin.jpg,3,2,1,1,1,1,2,1,0,13,,,,,,,,,,,,,,,,,,,,
,,,,,13,2020-07-01_10h32.11.342,retriever_ti,2020.1.3,Win32,60,Chrome,1366,768,,,,,,,,,,,,,,,,,2,,,,,,,,,,,,,,,,,,,,,,,,,,,690.61764,94,left,1.43575,peacock       ,7,5,-1,0,0,690.65118,690.65118,693.14967,0,16,16,16,1,94,7,8,peacock       ,holdfast    ,html/resources/sequences_IDs/A/05_peacock.jpg,html/resources/sequences_IDs/B/04_holdfast.jpg,5,4,2,1,2,1,4,3,0,13,,,,,,,,,,,,,,,,,,,,
,,,,,13,2020-07-01_10h32.11.342,retriever_ti,2020.1.3,Win32,60,Chrome,1366,768,,,,,,,,,,,,,,,,,2,,,,,,,,,,,,,,,,,,,,,,,,,,,694.250475,95,left,0.61409,peacock       ,7,5,1,1,1,694.28486,694.28486,696.783005,0,17,17,17,1,95,7,6,peacock       ,gloves      ,html/resources/sequences_IDs/A/05_peacock.jpg,html/resources/sequences_IDs/B/06_gloves.jpg,5,6,2,1,3,2,4,5,0,13,,,,,,,,,,,,,,,,,,,,
,,,,,13,2020-07-01_10h32.11.342,retriever_ti,2020.1.3,Win32,60,Chrome,1366,768,,,,,,,,,,,,,,,,,2,,,,,,,,,,,,,,,,,,,,,,,,,,,697.884205,96,left,0.72043,peacock       ,7,5,1,1,0,697.918315,697.918315,700.416965,0,18,18,18,1,96,7,6,peacock       ,gloves      ,html/resources/sequences_IDs/A/05_peacock.jpg,html/resources/sequences_IDs/B/06_gloves.jpg,5,6,2,1,3,2,4,5,1,13,,,,,,,,,,,,,,,,,,,,
,,,,,13,2020-07-01_10h32.11.342,retriever_ti,2020.1.3,Win32,60,Chrome,1366,768,,,,,,,,,,,,,,,,,2,,,,,,,,,,,,,,,,,,,,,,,,,,,701.517175,97,left,0.862905,satellite_dish,5,10,-1,0,0,701.552075,701.552075,704.05015,0,19,19,19,1,97,5,6,satellite_dish,gloves      ,html/resources/sequences_IDs/A/10_satellite_dish.jpg,html/resources/sequences_IDs/B/06_gloves.jpg,10,6,4,2,3,2,8,5,0,13,,,,,,,,,,,,,,,,,,,,
,,,,,13,2020-07-01_10h32.11.342,retriever_ti,2020.1.3,Win32,60,Chrome,1366,768,,,,,,,,,,,,,,,,,2,,,,,,,,,,,,,,,,,,,,,,,,,,,705.151305,98,left,1.42245,gloves      ,6,6,1,1,1,705.168255,705.168255,707.666835,0,20,20,20,1,98,6,5,gloves      ,satellite_dish,html/resources/sequences_IDs/B/06_gloves.jpg,html/resources/sequences_IDs/A/10_satellite_dish.jpg,6,10,3,2,4,2,5,8,0,13,,,,,,,,,,,,,,,,,,,,
,,,,,13,2020-07-01_10h32.11.342,retriever_ti,2020.1.3,Win32,60,Chrome,1366,768,,,,,,,,,,,,,,,,,2,,,,,,,,,,,,,,,,,,,,,,,,,,,708.76681,99,right,1.191575,camel         ,3,3,-4,0,3,708.78528,708.78528,711.28298,0,21,21,21,1,99,7,3,peacock       ,camel         ,html/resources/sequences_IDs/A/05_peacock.jpg,html/resources/sequences_IDs/A/03_camel.jpg,5,3,2,1,1,1,4,2,0,13,,,,,,,,,,,,,,,,,,,,
,,,,,13,2020-07-01_10h32.11.342,retriever_ti,2020.1.3,Win32,60,Chrome,1366,768,,,,,,,,,,,,,,,,,2,,,,,,,,,,,,,,,,,,,,,,,,,,,711.884525,100,left,0.96855,peacock       ,7,5,6,1,3,711.918505,711.918505,714.416525,0,22,22,22,1,100,7,1,peacock       ,hat           ,html/resources/sequences_IDs/A/05_peacock.jpg,html/resources/sequences_IDs/A/08_hat.jpg,5,8,2,1,3,2,4,7,0,13,,,,,,,,,,,,,,,,,,,,
,,,,,13,2020-07-01_10h32.11.342,retriever_ti,2020.1.3,Win32,60,Chrome,1366,768,,,,,,,,,,,,,,,,,2,,,,,,,,,,,,,,,,,,,,,,,,,,,715.033945,101,left,1.323695,sport_tshirt,2,7,1,1,1,715.068605,715.068605,717.566945,0,23,23,23,1,101,2,1,sport_tshirt,hat           ,html/resources/sequences_IDs/B/07_sport_tshirt.jpg,html/resources/sequences_IDs/A/08_hat.jpg,7,8,3,2,3,2,6,7,0,13,,,,,,,,,,,,,,,,,,,,
,,,,,13,2020-07-01_10h32.11.342,retriever_ti,2020.1.3,Win32,60,Chrome,1366,768,,,,,,,,,,,,,,,,,2,,,,,,,,,,,,,,,,,,,,,,,,,,,718.66866,102,left,2.23724,satellite_dish,5,10,2,1,3,718.685275,718.685275,721.183535,0,24,24,24,1,102,5,3,satellite_dish,camel         ,html/resources/sequences_IDs/A/10_satellite_dish.jpg,html/resources/sequences_IDs/A/03_camel.jpg,10,3,4,2,1,1,8,2,0,13,,,,,,,,,,,,,,,,,,,,
,,,,,13,2020-07-01_10h32.11.342,retriever_ti,2020.1.3,Win32,60,Chrome,1366,768,,,,,,,,,,,,,,,,,2,,,,,,,,,,,,,,,,,,,,,,,,,,,721.800545,103,left,1.267225,gloves      ,6,6,3,1,3,721.835065,721.835065,724.33359,0,25,25,25,1,103,6,3,gloves      ,camel         ,html/resources/sequences_IDs/B/06_gloves.jpg,html/resources/sequences_IDs/A/03_camel.jpg,6,3,3,2,1,1,5,2,0,13,,,,,,,,,,,,,,,,,,,,
,,,,,13,2020-07-01_10h32.11.342,retriever_ti,2020.1.3,Win32,60,Chrome,1366,768,,,,,,,,,,,,,,,,,2,,,,,,,,,,,,,,,,,,,,,,,,,,,724.951245,104,right,1.96187,satellite_dish,5,10,1,1,1,724.98545,724.98545,727.483395,0,26,26,26,1,104,4,5,dolphin     ,satellite_dish,html/resources/sequences_IDs/B/02_dolphin.jpg,html/resources/sequences_IDs/A/10_satellite_dish.jpg,2,10,1,1,4,2,1,8,0,13,,,,,,,,,,,,,,,,,,,,
,,,,,13,2020-07-01_10h32.11.342,retriever_ti,2020.1.3,Win32,60,Chrome,1366,768,,,,,,,,,,,,,,,,,2,,,,,,,,,,,,,,,,,,,,,,,,,,,728.58415,105,right,1.684845,satellite_dish,5,10,-3,0,3,728.60187,728.60187,731.099805,0,27,27,27,1,105,8,5,holdfast    ,satellite_dish,html/resources/sequences_IDs/B/04_holdfast.jpg,html/resources/sequences_IDs/A/10_satellite_dish.jpg,4,10,2,1,4,2,3,8,0,13,,,,,,,,,,,,,,,,,,,,
,,,,,13,2020-07-01_10h32.11.342,retriever_ti,2020.1.3,Win32,60,Chrome,1366,768,,,,,,,,,,,,,,,,,2,,,,,,,,,,,,,,,,,,,,,,,,,,,731.717835,106,left,1.40479,gloves      ,6,6,5,1,3,731.75142,731.75142,734.2498,0,28,28,28,1,106,6,1,gloves      ,hat           ,html/resources/sequences_IDs/B/06_gloves.jpg,html/resources/sequences_IDs/A/08_hat.jpg,6,8,3,2,3,2,5,7,0,13,,,,,,,,,,,,,,,,,,,,
,,,,,13,2020-07-01_10h32.11.342,retriever_ti,2020.1.3,Win32,60,Chrome,1366,768,,,,,,,,,,,,,,,,,2,,,,,,,,,,,,,,,,,,,,,,,,,,,734.86729,107,left,1.968475,dolphin     ,4,2,1,1,0,734.884985,734.884985,737.383465,0,29,29,29,1,107,4,3,dolphin     ,camel         ,html/resources/sequences_IDs/B/02_dolphin.jpg,html/resources/sequences_IDs/A/03_camel.jpg,2,3,1,1,1,1,1,2,1,13,,,,,,,,,,,,,,,,,,,,
,,,,,13,2020-07-01_10h32.11.342,retriever_ti,2020.1.3,Win32,60,Chrome,1366,768,,,,,,,,,,,,,,,,,2,,,,,,,,,,,,,,,,,,,,,,,,,,,738.484315,108,right,1.794735,satellite_dish,5,10,2,1,3,738.50145,738.50145,740.99976,0,30,30,30,1,108,3,5,camel         ,satellite_dish,html/resources/sequences_IDs/A/03_camel.jpg,html/resources/sequences_IDs/A/10_satellite_dish.jpg,3,10,1,1,4,2,2,8,0,13,,,,,,,,,,,,,,,,,,,,
,,,,,13,2020-07-01_10h32.11.342,retriever_ti,2020.1.3,Win32,60,Chrome,1366,768,,,,,,,,,,,,,,,,,2,,,,,,,,,,,,,,,,,,,,,,,,,,,741.617325,109,right,1.682965,dolphin     ,4,2,-2,0,3,741.651745,741.651745,744.14975,0,31,31,31,1,109,6,4,gloves      ,dolphin     ,html/resources/sequences_IDs/B/06_gloves.jpg,html/resources/sequences_IDs/B/02_dolphin.jpg,6,2,3,2,1,1,5,1,0,13,,,,,,,,,,,,,,,,,,,,
,,,,,13,2020-07-01_10h32.11.342,retriever_ti,2020.1.3,Win32,60,Chrome,1366,768,,,,,,,,,,,,,,,,,2,,,,,,,,,,,,,,,,,,,,,,,,,,,744.76754,110,right,1.06641,holdfast    ,8,4,6,1,3,744.785015,744.785015,747.28332,0,32,32,32,1,110,2,8,sport_tshirt,holdfast    ,html/resources/sequences_IDs/B/07_sport_tshirt.jpg,html/resources/sequences_IDs/B/04_holdfast.jpg,7,4,3,2,2,1,6,3,0,13,,,,,,,,,,,,,,,,,,,,
,,,,,13,2020-07-01_10h32.11.342,retriever_ti,2020.1.3,Win32,60,Chrome,1366,768,,,,,,,,,,,,,,,,,2,,,,,,,,,,,,,,,,,,,,,,,,,,,747.900645,111,left,1.07979,satellite_dish,5,10,1,1,1,747.9187,747.9187,750.417395,0,33,33,33,1,111,5,4,satellite_dish,dolphin     ,html/resources/sequences_IDs/A/10_satellite_dish.jpg,html/resources/sequences_IDs/B/02_dolphin.jpg,10,2,4,2,1,1,8,1,0,13,,,,,,,,,,,,,,,,,,,,
,,,,,13,2020-07-01_10h32.11.342,retriever_ti,2020.1.3,Win32,60,Chrome,1366,768,,,,,,,,,,,,,,,,,2,,,,,,,,,,,,,,,,,,,,,,,,,,,751.51772,112,left,1.47329,camel         ,3,3,1,1,1,751.551655,751.551655,754.04957,0,34,34,34,1,112,3,2,camel         ,sport_tshirt,html/resources/sequences_IDs/A/03_camel.jpg,html/resources/sequences_IDs/B/07_sport_tshirt.jpg,3,7,1,1,3,2,2,6,0,13,,,,,,,,,,,,,,,,,,,,
,,,,,13,2020-07-01_10h32.11.342,retriever_ti,2020.1.3,Win32,60,Chrome,1366,768,,,,,,,,,,,,,,,,,2,,,,,,,,,,,,,,,,,,,,,,,,,,,755.150585,113,left,1.00603,holdfast    ,8,4,1,1,0,755.184605,755.184605,757.683305,0,35,35,35,1,113,8,7,holdfast    ,peacock       ,html/resources/sequences_IDs/B/04_holdfast.jpg,html/resources/sequences_IDs/A/05_peacock.jpg,4,5,2,1,2,1,3,4,1,13,,,,,,,,,,,,,,,,,,,,
,,,,,13,2020-07-01_10h32.11.342,retriever_ti,2020.1.3,Win32,60,Chrome,1366,768,,,,,,,,,,,,,,,,,2,,,,,,,,,,,,,,,,,,,,,,,,,,,758.784385,114,right,1.79449,gloves      ,6,6,4,1,3,758.818495,758.818495,761.31656,0,36,36,36,1,114,2,6,sport_tshirt,gloves      ,html/resources/sequences_IDs/B/07_sport_tshirt.jpg,html/resources/sequences_IDs/B/06_gloves.jpg,7,6,3,2,3,2,6,5,0,13,,,,,,,,,,,,,,,,,,,,
,,,,,13,2020-07-01_10h32.11.342,retriever_ti,2020.1.3,Win32,60,Chrome,1366,768,,,,,,,,,,,,,,,,,2,,,,,,,,,,,,,,,,,,,,,,,,,,,761.933825,115,right,0.754435,dolphin     ,4,2,2,1,3,761.968455,761.968455,764.46672,0,37,37,37,1,115,2,4,sport_tshirt,dolphin     ,html/resources/sequences_IDs/B/07_sport_tshirt.jpg,html/resources/sequences_IDs/B/02_dolphin.jpg,7,2,3,2,1,1,6,1,0,13,,,,,,,,,,,,,,,,,,,,
,,,,,13,2020-07-01_10h32.11.342,retriever_ti,2020.1.3,Win32,60,Chrome,1366,768,,,,,,,,,,,,,,,,,2,,,,,,,,,,,,,,,,,,,,,,,,,,,765.0844,116,right,0.73377,holdfast    ,8,4,2,1,3,765.11836,765.11836,767.616825,0,38,38,38,1,116,6,8,gloves      ,holdfast    ,html/resources/sequences_IDs/B/06_gloves.jpg,html/resources/sequences_IDs/B/04_holdfast.jpg,6,4,3,2,2,1,5,3,0,13,,,,,,,,,,,,,,,,,,,,
,,,,,13,2020-07-01_10h32.11.342,retriever_ti,2020.1.3,Win32,60,Chrome,1366,768,,,,,,,,,,,,,,,,,2,,,,,,,,,,,,,,,,,,,,,,,,,,,768.233925,117,right,1.054905,camel         ,3,3,-5,0,3,768.268055,768.268055,770.7685,0,39,39,39,1,117,8,3,holdfast    ,camel         ,html/resources/sequences_IDs/B/04_holdfast.jpg,html/resources/sequences_IDs/A/03_camel.jpg,4,3,2,1,1,1,3,2,0,13,,,,,,,,,,,,,,,,,,,,
,,,,,13,2020-07-01_10h32.11.342,retriever_ti,2020.1.3,Win32,60,Chrome,1366,768,,,,,,,,,,,,,,,,,2,,,,,,,,,,,,,,,,,,,,,,,,,,,771.38477,118,left,1.0706,camel         ,3,3,1,1,1,771.41857,771.41857,773.916825,0,40,40,40,1,118,3,2,camel         ,sport_tshirt,html/resources/sequences_IDs/A/03_camel.jpg,html/resources/sequences_IDs/B/07_sport_tshirt.jpg,3,7,1,1,3,2,2,6,0,13,,,,,,,,,,,,,,,,,,,,
,,,,,13,2020-07-01_10h32.11.342,retriever_ti,2020.1.3,Win32,60,Chrome,1366,768,,,,,,,,,,,,,,,,,2,,,,,,,,,,,,,,,,,,,,,,,,,,,775.01714,119,left,1.082535,holdfast    ,8,4,6,1,3,775.035235,775.035235,777.53314,0,41,41,41,1,119,8,2,holdfast    ,sport_tshirt,html/resources/sequences_IDs/B/04_holdfast.jpg,html/resources/sequences_IDs/B/07_sport_tshirt.jpg,4,7,2,1,3,2,3,6,0,13,,,,,,,,,,,,,,,,,,,,
,,,,,13,2020-07-01_10h32.11.342,retriever_ti,2020.1.3,Win32,60,Chrome,1366,768,,,,,,,,,,,,,,,,,2,,,,,,,,,,,,,,,,,,,,,,,,,,,778.134435,120,left,1.187705,dolphin     ,4,2,-4,0,3,778.151735,778.151735,780.649805,0,42,42,42,1,120,4,8,dolphin     ,holdfast    ,html/resources/sequences_IDs/B/02_dolphin.jpg,html/resources/sequences_IDs/B/04_holdfast.jpg,2,4,1,1,2,1,1,3,0,13,,,,,,,,,,,,,,,,,,,,
,,,,,13,2020-07-01_10h32.11.342,retriever_ti,2020.1.3,Win32,60,Chrome,1366,768,,,,,,,,,,,,,,,,,2,,,,,,,,,,,,,,,,,,,,,,,,,,,781.250675,121,left,1.18547,sport_tshirt,2,7,1,1,1,781.268385,781.268385,783.767675,0,43,43,43,1,121,2,1,sport_tshirt,hat           ,html/resources/sequences_IDs/B/07_sport_tshirt.jpg,html/resources/sequences_IDs/A/08_hat.jpg,7,8,3,2,3,2,6,7,0,13,,,,,,,,,,,,,,,,,,,,
,,,,,13,2020-07-01_10h32.11.342,retriever_ti,2020.1.3,Win32,60,Chrome,1366,768,,,,,,,,,,,,,,,,,2,,,,,,,,,,,,,,,,,,,,,,,,,,,784.8681,122,left,0.771265,satellite_dish,5,10,3,1,3,784.902075,784.902075,787.399985,0,44,44,44,1,122,5,2,satellite_dish,sport_tshirt,html/resources/sequences_IDs/A/10_satellite_dish.jpg,html/resources/sequences_IDs/B/07_sport_tshirt.jpg,10,7,4,2,3,2,8,6,0,13,,,,,,,,,,,,,,,,,,,,
,,,,,13,2020-07-01_10h32.11.342,retriever_ti,2020.1.3,Win32,60,Chrome,1366,768,,,,,,,,,,,,,,,,,2,,,,,,,,,,,,,,,,,,,,,,,,,,,788.01729,123,left,0.656615,dolphin     ,4,2,-3,0,3,788.034485,788.034485,790.53319,0,45,45,45,1,123,4,7,dolphin     ,peacock       ,html/resources/sequences_IDs/B/02_dolphin.jpg,html/resources/sequences_IDs/A/05_peacock.jpg,2,5,1,1,2,1,1,4,0,13,,,,,,,,,,,,,,,,,,,,
,,,,,13,2020-07-01_10h32.11.342,retriever_ti,2020.1.3,Win32,60,Chrome,1366,768,,,,,,,,,,,,,,,,,2,,,,,,,,,,,,,,,,,,,,,,,,,,,791.151125,124,right,0.58728,gloves      ,6,6,5,1,3,791.16846,791.16846,793.66672,0,46,46,46,1,124,1,6,hat           ,gloves      ,html/resources/sequences_IDs/A/08_hat.jpg,html/resources/sequences_IDs/B/06_gloves.jpg,8,6,3,2,3,2,7,5,0,13,,,,,,,,,,,,,,,,,,,,
,,,,,13,2020-07-01_10h32.11.342,retriever_ti,2020.1.3,Win32,60,Chrome,1366,768,,,,,,,,,,,,,,,,,2,,,,,,,,,,,,,,,,,,,,,,,,,,,794.28421,125,left,0.582165,satellite_dish,5,10,-3,0,3,794.301375,794.301375,796.80023,0,47,47,47,1,125,5,8,satellite_dish,holdfast    ,html/resources/sequences_IDs/A/10_satellite_dish.jpg,html/resources/sequences_IDs/B/04_holdfast.jpg,10,4,4,2,2,1,8,3,0,13,,,,,,,,,,,,,,,,,,,,
,,,,,13,2020-07-01_10h32.11.342,retriever_ti,2020.1.3,Win32,60,Chrome,1366,768,,,,,,,,,,,,,,,,,2,,,,,,,,,,,,,,,,,,,,,,,,,,,797.41736,126,left,0.443725,peacock       ,7,5,2,1,3,797.452055,797.452055,799.95023,0,48,48,48,1,126,7,5,peacock       ,satellite_dish,html/resources/sequences_IDs/A/05_peacock.jpg,html/resources/sequences_IDs/A/10_satellite_dish.jpg,5,10,2,1,4,2,4,8,0,13,,,,,,,,,,,,,,,,,,,,
,,,,,13,2020-07-01_10h32.11.342,retriever_ti,2020.1.3,Win32,60,Chrome,1366,768,,,,,,,,,,,,,,,,,2,,,,,,,,,,,,,,,,,,,,,,,,,,,800.56758,127,left,0.63012,satellite_dish,5,10,-2,0,3,800.584685,800.584685,803.083635,0,49,49,49,1,127,5,7,satellite_dish,peacock       ,html/resources/sequences_IDs/A/10_satellite_dish.jpg,html/resources/sequences_IDs/A/05_peacock.jpg,10,5,4,2,2,1,8,4,0,13,,,,,,,,,,,,,,,,,,,,
,,,,,13,2020-07-01_10h32.11.342,retriever_ti,2020.1.3,Win32,60,Chrome,1366,768,,,,,,,,,,,,,,,,,2,,,,,,,,,,,,,,,,,,,,,,,,,,,803.70106,128,left,0.66906,camel         ,3,3,2,1,3,803.718645,803.718645,806.216445,0,50,50,50,1,128,3,1,camel         ,hat           ,html/resources/sequences_IDs/A/03_camel.jpg,html/resources/sequences_IDs/A/08_hat.jpg,3,8,1,1,3,2,2,7,0,13,,,,,,,,,,,,,,,,,,,,
,,,,,13,2020-07-01_10h32.11.342,retriever_ti,2020.1.3,Win32,60,Chrome,1366,768,,,,,,,,,,,,,,,,,2,,,,,,,,,,,,,,,,,,,,,,,,,,,806.834035,129,right,0.727085,dolphin     ,4,2,1,1,1,806.868405,806.868405,809.367045,0,51,51,51,1,129,3,4,camel         ,dolphin     ,html/resources/sequences_IDs/A/03_camel.jpg,html/resources/sequences_IDs/B/02_dolphin.jpg,3,2,1,1,1,1,2,1,0,13,,,,,,,,,,,,,,,,,,,,
,,,,,13,2020-07-01_10h32.11.342,retriever_ti,2020.1.3,Win32,60,Chrome,1366,768,,,,,,,,,,,,,,,,,2,,,,,,,,,,,,,,,,,,,,,,,,,,,810.46794,130,left,1.06656,holdfast    ,8,4,1,1,1,810.50208,810.50208,812.999935,0,52,52,52,1,130,8,7,holdfast    ,peacock       ,html/resources/sequences_IDs/B/04_holdfast.jpg,html/resources/sequences_IDs/A/05_peacock.jpg,4,5,2,1,2,1,3,4,0,13,,,,,,,,,,,,,,,,,,,,
,,,,,13,2020-07-01_10h32.11.342,retriever_ti,2020.1.3,Win32,60,Chrome,1366,768,,,,,,,,,,,,,,,,,2,,,,,,,,,,,,,,,,,,,,,,,,,,,814.10061,131,left,0.62097,satellite_dish,5,10,-1,0,0,814.13482,814.13482,816.63316,0,53,53,53,1,131,5,6,satellite_dish,gloves      ,html/resources/sequences_IDs/A/10_satellite_dish.jpg,html/resources/sequences_IDs/B/06_gloves.jpg,10,6,4,2,3,2,8,5,0,13,,,,,,,,,,,,,,,,,,,,
,,,,,13,2020-07-01_10h32.11.342,retriever_ti,2020.1.3,Win32,60,Chrome,1366,768,,,,,,,,,,,,,,,,,2,,,,,,,,,,,,,,,,,,,,,,,,,,,817.73434,132,left,0.866655,gloves      ,6,6,-1,0,0,817.768525,817.768525,820.267225,0,54,54,54,1,132,6,7,gloves      ,peacock       ,html/resources/sequences_IDs/B/06_gloves.jpg,html/resources/sequences_IDs/A/05_peacock.jpg,6,5,3,2,2,1,5,4,0,13,,,,,,,,,,,,,,,,,,,,
,,,,,13,2020-07-01_10h32.11.342,retriever_ti,2020.1.3,Win32,60,Chrome,1366,768,,,,,,,,,,,,,,,,,2,,,,,,,,,,,,,,,,,,,,,,,,,,,821.367335,133,left,1.44591,camel         ,3,3,-3,0,3,821.40203,821.40203,823.899985,0,55,55,55,1,133,3,6,camel         ,gloves      ,html/resources/sequences_IDs/A/03_camel.jpg,html/resources/sequences_IDs/B/06_gloves.jpg,3,6,1,1,3,2,2,5,0,13,,,,,,,,,,,,,,,,,,,,
,,,,,13,2020-07-01_10h32.11.342,retriever_ti,2020.1.3,Win32,60,Chrome,1366,768,,,,,,,,,,,,,,,,,2,,,,,,,,,,,,,,,,,,,,,,,,,,,824.5178,134,left,1.752875,camel         ,3,3,-5,0,3,824.55157,824.55157,827.050225,0,56,56,56,1,134,3,8,camel         ,holdfast    ,html/resources/sequences_IDs/A/03_camel.jpg,html/resources/sequences_IDs/B/04_holdfast.jpg,3,4,1,1,2,1,2,3,0,13,,,,,,,,,,,,,,,,,,,,
,,,,,13,2020-07-01_10h32.11.342,retriever_ti,2020.1.3,Win32,60,Chrome,1366,768,,,,,,,,,,,,,,,,,2,,,,,,,,,,,,,,,,,,,,,,,,,,,827.66743,135,right,1.253495,sport_tshirt,2,7,1,1,1,827.685085,827.685085,830.183545,0,57,57,57,1,135,1,2,hat           ,sport_tshirt,html/resources/sequences_IDs/A/08_hat.jpg,html/resources/sequences_IDs/B/07_sport_tshirt.jpg,8,7,3,2,3,2,7,6,0,13,,,,,,,,,,,,,,,,,,,,
,,,,,13,2020-07-01_10h32.11.342,retriever_ti,2020.1.3,Win32,60,Chrome,1366,768,,,,,,,,,,,,,,,,,2,,,,,,,,,,,,,,,,,,,,,,,,,,,831.284365,136,right,1.61986,gloves      ,6,6,-2,0,3,831.30167,831.30167,833.80034,0,58,58,58,1,136,8,6,holdfast    ,gloves      ,html/resources/sequences_IDs/B/04_holdfast.jpg,html/resources/sequences_IDs/B/06_gloves.jpg,4,6,2,1,3,2,3,5,0,13,,,,,,,,,,,,,,,,,,,,
,,,,,13,2020-07-01_10h32.11.342,retriever_ti,2020.1.3,Win32,60,Chrome,1366,768,,,,,,,,,,,,,,,,,2,,,,,,,,,,,,,,,,,,,,,,,,,,,834.417635,137,right,0.9649,satellite_dish,5,10,-1,0,1,834.434765,834.434765,836.93323,0,59,59,59,1,137,6,5,gloves      ,satellite_dish,html/resources/sequences_IDs/B/06_gloves.jpg,html/resources/sequences_IDs/A/10_satellite_dish.jpg,6,10,3,2,4,2,5,8,1,13,,,,,,,,,,,,,,,,,,,,
,,,,,13,2020-07-01_10h32.11.342,retriever_ti,2020.1.3,Win32,60,Chrome,1366,768,,,,,,,,,,,,,,,,,2,,,,,,,,,,,,,,,,,,,,,,,,,,,838.03441,138,right,0.80308,satellite_dish,5,10,-1,0,0,838.05183,838.05183,840.54986,0,60,60,60,1,138,6,5,gloves      ,satellite_dish,html/resources/sequences_IDs/B/06_gloves.jpg,html/resources/sequences_IDs/A/10_satellite_dish.jpg,6,10,3,2,4,2,5,8,0,13,,,,,,,,,,,,,,,,,,,,
,,,,,13,2020-07-01_10h32.11.342,retriever_ti,2020.1.3,Win32,60,Chrome,1366,768,,,,,,,,,,,,,,,,,2,,,,,,,,,,,,,,,,,,,,,,,,,,,841.650965,139,left,1.192875,sport_tshirt,2,7,1,1,0,841.685445,841.685445,844.183625,0,61,61,61,1,139,2,1,sport_tshirt,hat           ,html/resources/sequences_IDs/B/07_sport_tshirt.jpg,html/resources/sequences_IDs/A/08_hat.jpg,7,8,3,2,3,2,6,7,1,13,,,,,,,,,,,,,,,,,,,,
,,,,,13,2020-07-01_10h32.11.342,retriever_ti,2020.1.3,Win32,60,Chrome,1366,768,,,,,,,,,,,,,,,,,2,,,,,,,,,,,,,,,,,,,,,,,,,,,845.284605,140,left,0.685245,satellite_dish,5,10,4,1,3,845.301995,845.301995,847.800285,0,62,62,62,1,140,5,1,satellite_dish,hat           ,html/resources/sequences_IDs/A/10_satellite_dish.jpg,html/resources/sequences_IDs/A/08_hat.jpg,10,8,4,2,3,2,8,7,0,13,,,,,,,,,,,,,,,,,,,,
,,,,,13,2020-07-01_10h32.11.342,retriever_ti,2020.1.3,Win32,60,Chrome,1366,768,,,,,,,,,,,,,,,,,2,,,,,,,,,,,,,,,,,,,,,,,,,,,848.417585,141,right,0.44693,camel         ,3,3,1,1,1,848.4517,848.4517,850.9507,0,63,63,63,1,141,2,3,sport_tshirt,camel         ,html/resources/sequences_IDs/B/07_sport_tshirt.jpg,html/resources/sequences_IDs/A/03_camel.jpg,7,3,3,2,1,1,6,2,0,13,,,,,,,,,,,,,,,,,,,,
,,,,,13,2020-07-01_10h32.11.342,retriever_ti,2020.1.3,Win32,60,Chrome,1366,768,,,,,,,,,,,,,,,,,2,,,,,,,,,,,,,,,,,,,,,,,,,,,852.051305,142,right,1.69737,peacock       ,7,5,1,1,1,852.08521,852.08521,854.584235,0,64,64,64,1,142,6,7,gloves      ,peacock       ,html/resources/sequences_IDs/B/06_gloves.jpg,html/resources/sequences_IDs/A/05_peacock.jpg,6,5,3,2,2,1,5,4,0,13,,,,,,,,,,,,,,,,,,,,
,,,,,13,2020-07-01_10h32.11.342,retriever_ti,2020.1.3,Win32,60,Chrome,1366,768,,,,,,,,,,,,,,,,,2,,,,,,,,,,,,,,,,,,,,,,,,,,,855.68454,143,right,0.896075,peacock       ,7,5,-1,0,0,855.70178,855.70178,858.200175,0,65,65,65,1,143,8,7,holdfast    ,peacock       ,html/resources/sequences_IDs/B/04_holdfast.jpg,html/resources/sequences_IDs/A/05_peacock.jpg,4,5,2,1,2,1,3,4,0,13,,,,,,,,,,,,,,,,,,,,
,,,,,13,2020-07-01_10h32.11.342,retriever_ti,2020.1.3,Win32,60,Chrome,1366,768,,,,,,,,,,,,,,,,,2,,,,,,,,,,,,,,,,,,,,,,,,,,,859.30102,144,right,1.160045,dolphin     ,4,2,-4,0,3,859.33506,859.33506,861.833985,0,66,66,66,1,144,8,4,holdfast    ,dolphin     ,html/resources/sequences_IDs/B/04_holdfast.jpg,html/resources/sequences_IDs/B/02_dolphin.jpg,4,2,2,1,1,1,3,1,0,13,,,,,,,,,,,,,,,,,,,,
,,,,,13,2020-07-01_10h32.11.342,retriever_ti,2020.1.3,Win32,60,Chrome,1366,768,,,,,,,,,,,,,,,,,2,,,,,,,,,,,,,,,,,,,,,,,,,,,862.45112,145,left,1.192125,dolphin     ,4,2,1,1,1,862.468375,862.468375,864.966905,0,67,67,67,1,145,4,3,dolphin     ,camel         ,html/resources/sequences_IDs/B/02_dolphin.jpg,html/resources/sequences_IDs/A/03_camel.jpg,2,3,1,1,1,1,1,2,0,13,,,,,,,,,,,,,,,,,,,,
,,,,,13,2020-07-01_10h32.11.342,retriever_ti,2020.1.3,Win32,60,Chrome,1366,768,,,,,,,,,,,,,,,,,2,,,,,,,,,,,,,,,,,,,,,,,,,,,866.06787,146,left,1.36434,peacock       ,7,5,5,1,3,866.084995,866.084995,868.583315,0,68,68,68,1,146,7,2,peacock       ,sport_tshirt,html/resources/sequences_IDs/A/05_peacock.jpg,html/resources/sequences_IDs/B/07_sport_tshirt.jpg,5,7,2,1,3,2,4,6,0,13,,,,,,,,,,,,,,,,,,,,
,,,,,13,2020-07-01_10h32.11.342,retriever_ti,2020.1.3,Win32,60,Chrome,1366,768,,,,,,,,,,,,,,,,,2,,,,,,,,,,,,,,,,,,,,,,,,,,,869.200445,147,right,1.13526,dolphin     ,4,2,-3,0,3,869.235215,869.235215,871.733665,0,69,69,69,1,147,7,4,peacock       ,dolphin     ,html/resources/sequences_IDs/A/05_peacock.jpg,html/resources/sequences_IDs/B/02_dolphin.jpg,5,2,2,1,1,1,4,1,0,13,,,,,,,,,,,,,,,,,,,,
,,,,,13,2020-07-01_10h32.11.342,retriever_ti,2020.1.3,Win32,60,Chrome,1366,768,,,,,,,,,,,,,,,,,2,,,,,,,,,,,,,,,,,,,,,,,,,,,872.351385,148,left,0.921245,dolphin     ,4,2,3,1,3,872.368765,872.368765,874.86709,0,70,70,70,1,148,4,1,dolphin     ,hat           ,html/resources/sequences_IDs/B/02_dolphin.jpg,html/resources/sequences_IDs/A/08_hat.jpg,2,8,1,1,3,2,1,7,0,13,,,,,,,,,,,,,,,,,,,,
,,,,,13,2020-07-01_10h32.11.342,retriever_ti,2020.1.3,Win32,60,Chrome,1366,768,,,,,,,,,,,,,,,,,2,,,,,,,,,,,,,,,,,,,,,,,,,,,875.48428,149,right,0.85063,holdfast    ,8,4,7,1,3,875.519155,875.519155,878.017145,0,71,71,71,1,149,1,8,hat           ,holdfast    ,html/resources/sequences_IDs/A/08_hat.jpg,html/resources/sequences_IDs/B/04_holdfast.jpg,8,4,3,2,2,1,7,3,0,13,,,,,,,,,,,,,,,,,,,,
,,,,,13,2020-07-01_10h32.11.342,retriever_ti,2020.1.3,Win32,60,Chrome,1366,768,,,,,,,,,,,,,,,,,2,,,,,,,,,,,,,,,,,,,,,,,,,,,878.63431,150,right,1.89416,peacock       ,7,5,4,1,3,878.66858,878.66858,881.16679,0,72,72,72,1,150,3,7,camel         ,peacock       ,html/resources/sequences_IDs/A/03_camel.jpg,html/resources/sequences_IDs/A/05_peacock.jpg,3,5,1,1,2,1,2,4,0,13,,,,,,,,,,,,,,,,,,,,
,,,,,13,2020-07-01_10h32.11.342,retriever_ti,2020.1.3,Win32,60,Chrome,1366,768,,,,,,,,,,,,,,,,,2,,,,,,,,,,,,,,,,,,,,,,,,,,,881.78431,151,right,1.902655,camel         ,3,3,-1,0,0,881.818875,881.818875,884.317255,0,73,73,73,1,151,4,3,dolphin     ,camel         ,html/resources/sequences_IDs/B/02_dolphin.jpg,html/resources/sequences_IDs/A/03_camel.jpg,2,3,1,1,1,1,1,2,0,13,,,,,,,,,,,,,,,,,,,,
,,,,,13,2020-07-01_10h32.11.342,retriever_ti,2020.1.3,Win32,60,Chrome,1366,768,,,,,,,,,,,,,,,,,2,,,,,,,,,,,,,,,,,,,,,,,,,,,885.418085,152,left,0.94605,dolphin     ,4,2,-2,0,3,885.4354,885.4354,887.93439,0,74,74,74,1,152,4,6,dolphin     ,gloves      ,html/resources/sequences_IDs/B/02_dolphin.jpg,html/resources/sequences_IDs/B/06_gloves.jpg,2,6,1,1,3,2,1,5,0,13,,,,,,,,,,,,,,,,,,,,
,,,,,13,2020-07-01_10h32.11.342,retriever_ti,2020.1.3,Win32,60,Chrome,1366,768,,,,,,,,,,,,,,,,,2,,,,,,,,,,,,,,,,,,,,,,,,,,,888.551645,153,left,1.710655,camel         ,3,3,1,1,0,888.5862,888.5862,891.08372,0,75,75,75,1,153,3,2,camel         ,sport_tshirt,html/resources/sequences_IDs/A/03_camel.jpg,html/resources/sequences_IDs/B/07_sport_tshirt.jpg,3,7,1,1,3,2,2,6,1,13,,,,,,,,,,,,,,,,,,,,
,,,,,13,2020-07-01_10h32.11.342,retriever_ti,2020.1.3,Win32,60,Chrome,1366,768,,,,,,,,,,,,,,,,,2,,,,,,,,,,,,,,,,,,,,,,,,,,,892.184785,154,left,1.30776,satellite_dish,5,10,1,1,1,892.201785,892.201785,894.70068,0,76,76,76,1,154,5,4,satellite_dish,dolphin     ,html/resources/sequences_IDs/A/10_satellite_dish.jpg,html/resources/sequences_IDs/B/02_dolphin.jpg,10,2,4,2,1,1,8,1,0,13,,,,,,,,,,,,,,,,,,,,
,,,,,13,2020-07-01_10h32.11.342,retriever_ti,2020.1.3,Win32,60,Chrome,1366,768,,,,,,,,,,,,,,,,,,,,,,,,,,,,,,,,,,,,,1,3.17803,,,,,,,,,,,,,,,,,,,,,,,,,,,,,,,,,,,,,,,,,1,0,1,0,1,,,,,,,,,,,,,,,
,,,,,13,2020-07-01_10h32.11.342,retriever_ti,2020.1.3,Win32,60,Chrome,1366,768,,,,,,,,,,,,,,,,,3,,,,,,,,,,,,,,,,,,,,,,,,,,,906.52983,155,NaN,NaN,No_response,NaN,NaN,NaN,2,2,906.55802,906.55802,909.05105,0,0,0,0,1,155,6,5,gloves      ,satellite_dish,html/resources/sequences_IDs/B/06_gloves.jpg,html/resources/sequences_IDs/A/10_satellite_dish.jpg,6,10,3,2,4,2,5,8,0,13,,,,,,,,,,,,,,,,,,,,
,,,,,13,2020-07-01_10h32.11.342,retriever_ti,2020.1.3,Win32,60,Chrome,1366,768,,,,,,,,,,,,,,,,,3,,,,,,,,,,,,,,,,,,,,,,,,,,,910.151745,156,left,1.098225,satellite_dish,5,10,4,1,3,910.16918,910.16918,912.667295,0,1,1,1,1,156,5,1,satellite_dish,hat           ,html/resources/sequences_IDs/A/10_satellite_dish.jpg,html/resources/sequences_IDs/A/08_hat.jpg,10,8,4,2,3,2,8,7,0,13,,,,,,,,,,,,,,,,,,,,
,,,,,13,2020-07-01_10h32.11.342,retriever_ti,2020.1.3,Win32,60,Chrome,1366,768,,,,,,,,,,,,,,,,,3,,,,,,,,,,,,,,,,,,,,,,,,,,,913.28432,157,left,1.445675,holdfast    ,8,4,3,1,3,913.318135,913.318135,915.816925,0,2,2,2,1,157,8,5,holdfast    ,satellite_dish,html/resources/sequences_IDs/B/04_holdfast.jpg,html/resources/sequences_IDs/A/10_satellite_dish.jpg,4,10,2,1,4,2,3,8,0,13,,,,,,,,,,,,,,,,,,,,
,,,,,13,2020-07-01_10h32.11.342,retriever_ti,2020.1.3,Win32,60,Chrome,1366,768,,,,,,,,,,,,,,,,,3,,,,,,,,,,,,,,,,,,,,,,,,,,,916.434485,158,left,1.620355,dolphin     ,4,2,-4,0,3,916.46854,916.46854,918.966785,0,3,3,3,1,158,4,8,dolphin     ,holdfast    ,html/resources/sequences_IDs/B/02_dolphin.jpg,html/resources/sequences_IDs/B/04_holdfast.jpg,2,4,1,1,2,1,1,3,0,13,,,,,,,,,,,,,,,,,,,,
,,,,,13,2020-07-01_10h32.11.342,retriever_ti,2020.1.3,Win32,60,Chrome,1366,768,,,,,,,,,,,,,,,,,3,,,,,,,,,,,,,,,,,,,,,,,,,,,919.567875,159,left,1.239255,peacock       ,7,5,1,1,1,919.602385,919.602385,922.100155,0,4,4,4,1,159,7,6,peacock       ,gloves      ,html/resources/sequences_IDs/A/05_peacock.jpg,html/resources/sequences_IDs/B/06_gloves.jpg,5,6,2,1,3,2,4,5,0,13,,,,,,,,,,,,,,,,,,,,
,,,,,13,2020-07-01_10h32.11.342,retriever_ti,2020.1.3,Win32,60,Chrome,1366,768,,,,,,,,,,,,,,,,,3,,,,,,,,,,,,,,,,,,,,,,,,,,,923.201275,160,left,0.79705,satellite_dish,5,10,-1,0,0,923.235735,923.235735,925.73388,0,5,5,5,1,160,5,6,satellite_dish,gloves      ,html/resources/sequences_IDs/A/10_satellite_dish.jpg,html/resources/sequences_IDs/B/06_gloves.jpg,10,6,4,2,3,2,8,5,0,13,,,,,,,,,,,,,,,,,,,,
,,,,,13,2020-07-01_10h32.11.342,retriever_ti,2020.1.3,Win32,60,Chrome,1366,768,,,,,,,,,,,,,,,,,3,,,,,,,,,,,,,,,,,,,,,,,,,,,926.834435,161,left,1.038605,dolphin     ,4,2,-2,0,3,926.85179,926.85179,929.349985,0,6,6,6,1,161,4,6,dolphin     ,gloves      ,html/resources/sequences_IDs/B/02_dolphin.jpg,html/resources/sequences_IDs/B/06_gloves.jpg,2,6,1,1,3,2,1,5,0,13,,,,,,,,,,,,,,,,,,,,
,,,,,13,2020-07-01_10h32.11.342,retriever_ti,2020.1.3,Win32,60,Chrome,1366,768,,,,,,,,,,,,,,,,,3,,,,,,,,,,,,,,,,,,,,,,,,,,,929.967825,162,left,1.04889,camel         ,3,3,2,1,3,930.00213,930.00213,932.500135,0,7,7,7,1,162,3,1,camel         ,hat           ,html/resources/sequences_IDs/A/03_camel.jpg,html/resources/sequences_IDs/A/08_hat.jpg,3,8,1,1,3,2,2,7,0,13,,,,,,,,,,,,,,,,,,,,
,,,,,13,2020-07-01_10h32.11.342,retriever_ti,2020.1.3,Win32,60,Chrome,1366,768,,,,,,,,,,,,,,,,,3,,,,,,,,,,,,,,,,,,,,,,,,,,,933.1011,163,right,0.587525,peacock       ,7,5,1,1,1,933.13524,933.13524,935.63335,0,8,8,8,1,163,6,7,gloves      ,peacock       ,html/resources/sequences_IDs/B/06_gloves.jpg,html/resources/sequences_IDs/A/05_peacock.jpg,6,5,3,2,2,1,5,4,0,13,,,,,,,,,,,,,,,,,,,,
,,,,,13,2020-07-01_10h32.11.342,retriever_ti,2020.1.3,Win32,60,Chrome,1366,768,,,,,,,,,,,,,,,,,3,,,,,,,,,,,,,,,,,,,,,,,,,,,936.73449,164,right,0.908515,peacock       ,7,5,2,1,3,936.768545,936.768545,939.267585,0,9,9,9,1,164,5,7,satellite_dish,peacock       ,html/resources/sequences_IDs/A/10_satellite_dish.jpg,html/resources/sequences_IDs/A/05_peacock.jpg,10,5,4,2,2,1,8,4,0,13,,,,,,,,,,,,,,,,,,,,
,,,,,13,2020-07-01_10h32.11.342,retriever_ti,2020.1.3,Win32,60,Chrome,1366,768,,,,,,,,,,,,,,,,,3,,,,,,,,,,,,,,,,,,,,,,,,,,,939.884595,165,left,1.21634,camel         ,3,3,-2,0,3,939.90208,939.90208,942.400095,0,10,10,10,1,165,3,5,camel         ,satellite_dish,html/resources/sequences_IDs/A/03_camel.jpg,html/resources/sequences_IDs/A/10_satellite_dish.jpg,3,10,1,1,4,2,2,8,0,13,,,,,,,,,,,,,,,,,,,,
,,,,,13,2020-07-01_10h32.11.342,retriever_ti,2020.1.3,Win32,60,Chrome,1366,768,,,,,,,,,,,,,,,,,3,,,,,,,,,,,,,,,,,,,,,,,,,,,943.018105,166,left,0.87962,dolphin     ,4,2,1,1,1,943.03529,943.03529,945.53349,0,11,11,11,1,166,4,3,dolphin     ,camel         ,html/resources/sequences_IDs/B/02_dolphin.jpg,html/resources/sequences_IDs/A/03_camel.jpg,2,3,1,1,1,1,1,2,0,13,,,,,,,,,,,,,,,,,,,,
,,,,,13,2020-07-01_10h32.11.342,retriever_ti,2020.1.3,Win32,60,Chrome,1366,768,,,,,,,,,,,,,,,,,3,,,,,,,,,,,,,,,,,,,,,,,,,,,946.634005,167,left,0.96043,camel         ,3,3,1,1,1,946.652245,946.652245,949.1502,0,12,12,12,1,167,3,2,camel         ,sport_tshirt,html/resources/sequences_IDs/A/03_camel.jpg,html/resources/sequences_IDs/B/07_sport_tshirt.jpg,3,7,1,1,3,2,2,6,0,13,,,,,,,,,,,,,,,,,,,,
,,,,,13,2020-07-01_10h32.11.342,retriever_ti,2020.1.3,Win32,60,Chrome,1366,768,,,,,,,,,,,,,,,,,3,,,,,,,,,,,,,,,,,,,,,,,,,,,950.251275,168,right,0.796045,holdfast    ,8,4,2,1,3,950.268725,950.268725,952.767245,0,13,13,13,1,168,6,8,gloves      ,holdfast    ,html/resources/sequences_IDs/B/06_gloves.jpg,html/resources/sequences_IDs/B/04_holdfast.jpg,6,4,3,2,2,1,5,3,0,13,,,,,,,,,,,,,,,,,,,,
,,,,,13,2020-07-01_10h32.11.342,retriever_ti,2020.1.3,Win32,60,Chrome,1366,768,,,,,,,,,,,,,,,,,3,,,,,,,,,,,,,,,,,,,,,,,,,,,953.38456,169,left,1.48448,gloves      ,6,6,4,1,3,953.402155,953.402155,955.90024,0,14,14,14,1,169,6,2,gloves      ,sport_tshirt,html/resources/sequences_IDs/B/06_gloves.jpg,html/resources/sequences_IDs/B/07_sport_tshirt.jpg,6,7,3,2,3,2,5,6,0,13,,,,,,,,,,,,,,,,,,,,
,,,,,13,2020-07-01_10h32.11.342,retriever_ti,2020.1.3,Win32,60,Chrome,1366,768,,,,,,,,,,,,,,,,,3,,,,,,,,,,,,,,,,,,,,,,,,,,,956.5184,170,right,1.340005,dolphin     ,4,2,-1,0,0,956.53578,956.53578,959.03357,0,15,15,15,1,170,5,4,satellite_dish,dolphin     ,html/resources/sequences_IDs/A/10_satellite_dish.jpg,html/resources/sequences_IDs/B/02_dolphin.jpg,10,2,4,2,1,1,8,1,0,13,,,,,,,,,,,,,,,,,,,,
,,,,,13,2020-07-01_10h32.11.342,retriever_ti,2020.1.3,Win32,60,Chrome,1366,768,,,,,,,,,,,,,,,,,3,,,,,,,,,,,,,,,,,,,,,,,,,,,960.13448,171,left,1.36558,peacock       ,7,5,2,1,3,960.169015,960.169015,962.66735,0,16,16,16,1,171,7,5,peacock       ,satellite_dish,html/resources/sequences_IDs/A/05_peacock.jpg,html/resources/sequences_IDs/A/10_satellite_dish.jpg,5,10,2,1,4,2,4,8,0,13,,,,,,,,,,,,,,,,,,,,
,,,,,13,2020-07-01_10h32.11.342,retriever_ti,2020.1.3,Win32,60,Chrome,1366,768,,,,,,,,,,,,,,,,,3,,,,,,,,,,,,,,,,,,,,,,,,,,,963.284855,172,left,1.30561,peacock       ,7,5,-1,0,0,963.303155,963.303155,965.800045,0,17,17,17,1,172,7,8,peacock       ,holdfast    ,html/resources/sequences_IDs/A/05_peacock.jpg,html/resources/sequences_IDs/B/04_holdfast.jpg,5,4,2,1,2,1,4,3,0,13,,,,,,,,,,,,,,,,,,,,
,,,,,13,2020-07-01_10h32.11.342,retriever_ti,2020.1.3,Win32,60,Chrome,1366,768,,,,,,,,,,,,,,,,,3,,,,,,,,,,,,,,,,,,,,,,,,,,,966.90072,173,right,0.44983,holdfast    ,8,4,3,1,3,966.91864,966.91864,969.416865,0,18,18,18,1,173,5,8,satellite_dish,holdfast    ,html/resources/sequences_IDs/A/10_satellite_dish.jpg,html/resources/sequences_IDs/B/04_holdfast.jpg,10,4,4,2,2,1,8,3,0,13,,,,,,,,,,,,,,,,,,,,
,,,,,13,2020-07-01_10h32.11.342,retriever_ti,2020.1.3,Win32,60,Chrome,1366,768,,,,,,,,,,,,,,,,,3,,,,,,,,,,,,,,,,,,,,,,,,,,,970.03468,174,left,1.367835,peacock       ,7,5,1,1,0,970.052575,970.052575,972.549985,0,19,19,19,1,174,7,6,peacock       ,gloves      ,html/resources/sequences_IDs/A/05_peacock.jpg,html/resources/sequences_IDs/B/06_gloves.jpg,5,6,2,1,3,2,4,5,1,13,,,,,,,,,,,,,,,,,,,,
,,,,,13,2020-07-01_10h32.11.342,retriever_ti,2020.1.3,Win32,60,Chrome,1366,768,,,,,,,,,,,,,,,,,3,,,,,,,,,,,,,,,,,,,,,,,,,,,973.651055,175,left,1.484965,holdfast    ,8,4,7,1,3,973.685435,973.685435,976.18366,0,20,20,20,1,175,8,1,holdfast    ,hat           ,html/resources/sequences_IDs/B/04_holdfast.jpg,html/resources/sequences_IDs/A/08_hat.jpg,4,8,2,1,3,2,3,7,0,13,,,,,,,,,,,,,,,,,,,,
,,,,,13,2020-07-01_10h32.11.342,retriever_ti,2020.1.3,Win32,60,Chrome,1366,768,,,,,,,,,,,,,,,,,3,,,,,,,,,,,,,,,,,,,,,,,,,,,976.80137,176,left,1.68438,dolphin     ,4,2,-1,0,0,976.83496,976.83496,979.333635,0,21,21,21,1,176,4,5,dolphin     ,satellite_dish,html/resources/sequences_IDs/B/02_dolphin.jpg,html/resources/sequences_IDs/A/10_satellite_dish.jpg,2,10,1,1,4,2,1,8,0,13,,,,,,,,,,,,,,,,,,,,
,,,,,13,2020-07-01_10h32.11.342,retriever_ti,2020.1.3,Win32,60,Chrome,1366,768,,,,,,,,,,,,,,,,,3,,,,,,,,,,,,,,,,,,,,,,,,,,,980.434575,177,left,1.241665,hat           ,1,8,-1,0,0,980.46917,980.46917,982.96669,0,22,22,22,1,177,1,2,hat           ,sport_tshirt,html/resources/sequences_IDs/A/08_hat.jpg,html/resources/sequences_IDs/B/07_sport_tshirt.jpg,8,7,3,2,3,2,7,6,0,13,,,,,,,,,,,,,,,,,,,,
,,,,,13,2020-07-01_10h32.11.342,retriever_ti,2020.1.3,Win32,60,Chrome,1366,768,,,,,,,,,,,,,,,,,3,,,,,,,,,,,,,,,,,,,,,,,,,,,984.068425,178,right,0.96126,dolphin     ,4,2,-2,0,3,984.10168,984.10168,986.60066,0,23,23,23,1,178,6,4,gloves      ,dolphin     ,html/resources/sequences_IDs/B/06_gloves.jpg,html/resources/sequences_IDs/B/02_dolphin.jpg,6,2,3,2,1,1,5,1,0,13,,,,,,,,,,,,,,,,,,,,
,,,,,13,2020-07-01_10h32.11.342,retriever_ti,2020.1.3,Win32,60,Chrome,1366,768,,,,,,,,,,,,,,,,,3,,,,,,,,,,,,,,,,,,,,,,,,,,,987.217805,179,left,1.83591,holdfast    ,8,4,1,1,1,987.25224,987.25224,989.75035,0,24,24,24,1,179,8,7,holdfast    ,peacock       ,html/resources/sequences_IDs/B/04_holdfast.jpg,html/resources/sequences_IDs/A/05_peacock.jpg,4,5,2,1,2,1,3,4,0,13,,,,,,,,,,,,,,,,,,,,
,,,,,13,2020-07-01_10h32.11.342,retriever_ti,2020.1.3,Win32,60,Chrome,1366,768,,,,,,,,,,,,,,,,,3,,,,,,,,,,,,,,,,,,,,,,,,,,,990.851255,180,right,0.71081,holdfast    ,8,4,7,1,3,990.868865,990.868865,993.3672,0,25,25,25,1,180,1,8,hat           ,holdfast    ,html/resources/sequences_IDs/A/08_hat.jpg,html/resources/sequences_IDs/B/04_holdfast.jpg,8,4,3,2,2,1,7,3,0,13,,,,,,,,,,,,,,,,,,,,
,,,,,13,2020-07-01_10h32.11.342,retriever_ti,2020.1.3,Win32,60,Chrome,1366,768,,,,,,,,,,,,,,,,,3,,,,,,,,,,,,,,,,,,,,,,,,,,,993.968195,181,right,0.79641,satellite_dish,5,10,3,1,3,993.98508,993.98508,996.48447,0,26,26,26,1,181,2,5,sport_tshirt,satellite_dish,html/resources/sequences_IDs/B/07_sport_tshirt.jpg,html/resources/sequences_IDs/A/10_satellite_dish.jpg,7,10,3,2,4,2,6,8,0,13,,,,,,,,,,,,,,,,,,,,
,,,,,13,2020-07-01_10h32.11.342,retriever_ti,2020.1.3,Win32,60,Chrome,1366,768,,,,,,,,,,,,,,,,,3,,,,,,,,,,,,,,,,,,,,,,,,,,,997.10168,182,right,1.80087,gloves      ,6,6,1,1,1,997.135565,997.135565,999.633765,0,27,27,27,1,182,5,6,satellite_dish,gloves      ,html/resources/sequences_IDs/A/10_satellite_dish.jpg,html/resources/sequences_IDs/B/06_gloves.jpg,10,6,4,2,3,2,8,5,0,13,,,,,,,,,,,,,,,,,,,,
,,,,,13,2020-07-01_10h32.11.342,retriever_ti,2020.1.3,Win32,60,Chrome,1366,768,,,,,,,,,,,,,,,,,3,,,,,,,,,,,,,,,,,,,,,,,,,,,1000.734235,183,left,1.40571,camel         ,3,3,1,1,0,1000.768835,1000.768835,1003.266995,0,28,28,28,1,183,3,2,camel         ,sport_tshirt,html/resources/sequences_IDs/A/03_camel.jpg,html/resources/sequences_IDs/B/07_sport_tshirt.jpg,3,7,1,1,3,2,2,6,1,13,,,,,,,,,,,,,,,,,,,,
,,,,,13,2020-07-01_10h32.11.342,retriever_ti,2020.1.3,Win32,60,Chrome,1366,768,,,,,,,,,,,,,,,,,3,,,,,,,,,,,,,,,,,,,,,,,,,,,1004.36815,184,left,1.371285,dolphin     ,4,2,1,1,1,1004.401965,1004.401965,1006.900395,0,29,29,29,1,184,4,3,dolphin     ,camel         ,html/resources/sequences_IDs/B/02_dolphin.jpg,html/resources/sequences_IDs/A/03_camel.jpg,2,3,1,1,1,1,1,2,0,13,,,,,,,,,,,,,,,,,,,,
,,,,,13,2020-07-01_10h32.11.342,retriever_ti,2020.1.3,Win32,60,Chrome,1366,768,,,,,,,,,,,,,,,,,3,,,,,,,,,,,,,,,,,,,,,,,,,,,1008.001025,185,right,0.772375,dolphin     ,4,2,3,1,3,1008.01898,1008.01898,1010.516875,0,30,30,30,1,185,1,4,hat           ,dolphin     ,html/resources/sequences_IDs/A/08_hat.jpg,html/resources/sequences_IDs/B/02_dolphin.jpg,8,2,3,2,1,1,7,1,0,13,,,,,,,,,,,,,,,,,,,,
,,,,,13,2020-07-01_10h32.11.342,retriever_ti,2020.1.3,Win32,60,Chrome,1366,768,,,,,,,,,,,,,,,,,3,,,,,,,,,,,,,,,,,,,,,,,,,,,1011.118245,186,left,1.87923,camel         ,3,3,-5,0,3,1011.13636,1011.13636,1013.634005,0,31,31,31,1,186,3,8,camel         ,holdfast    ,html/resources/sequences_IDs/A/03_camel.jpg,html/resources/sequences_IDs/B/04_holdfast.jpg,3,4,1,1,2,1,2,3,0,13,,,,,,,,,,,,,,,,,,,,
,,,,,13,2020-07-01_10h32.11.342,retriever_ti,2020.1.3,Win32,60,Chrome,1366,768,,,,,,,,,,,,,,,,,3,,,,,,,,,,,,,,,,,,,,,,,,,,,1014.250895,187,left,1.246445,sport_tshirt,2,7,1,1,0,1014.285665,1014.285665,1016.7842,0,32,32,32,1,187,2,1,sport_tshirt,hat           ,html/resources/sequences_IDs/B/07_sport_tshirt.jpg,html/resources/sequences_IDs/A/08_hat.jpg,7,8,3,2,3,2,6,7,1,13,,,,,,,,,,,,,,,,,,,,
,,,,,13,2020-07-01_10h32.11.342,retriever_ti,2020.1.3,Win32,60,Chrome,1366,768,,,,,,,,,,,,,,,,,3,,,,,,,,,,,,,,,,,,,,,,,,,,,1017.8847,188,left,0.98091,holdfast    ,8,4,1,1,0,1017.90295,1017.90295,1020.40051,0,33,33,33,1,188,8,7,holdfast    ,peacock       ,html/resources/sequences_IDs/B/04_holdfast.jpg,html/resources/sequences_IDs/A/05_peacock.jpg,4,5,2,1,2,1,3,4,1,13,,,,,,,,,,,,,,,,,,,,
,,,,,13,2020-07-01_10h32.11.342,retriever_ti,2020.1.3,Win32,60,Chrome,1366,768,,,,,,,,,,,,,,,,,3,,,,,,,,,,,,,,,,,,,,,,,,,,,1021.501115,189,NaN,NaN,No_response,NaN,NaN,NaN,2,2,1021.519275,1021.519275,1024.016825,0,34,34,34,1,189,7,3,peacock       ,camel         ,html/resources/sequences_IDs/A/05_peacock.jpg,html/resources/sequences_IDs/A/03_camel.jpg,5,3,2,1,1,1,4,2,0,13,,,,,,,,,,,,,,,,,,,,
,,,,,13,2020-07-01_10h32.11.342,retriever_ti,2020.1.3,Win32,60,Chrome,1366,768,,,,,,,,,,,,,,,,,3,,,,,,,,,,,,,,,,,,,,,,,,,,,1025.11844,190,right,0.7681,holdfast    ,8,4,6,1,3,1025.135915,1025.135915,1027.6336,0,35,35,35,1,190,2,8,sport_tshirt,holdfast    ,html/resources/sequences_IDs/B/07_sport_tshirt.jpg,html/resources/sequences_IDs/B/04_holdfast.jpg,7,4,3,2,2,1,6,3,0,13,,,,,,,,,,,,,,,,,,,,
,,,,,13,2020-07-01_10h32.11.342,retriever_ti,2020.1.3,Win32,60,Chrome,1366,768,,,,,,,,,,,,,,,,,3,,,,,,,,,,,,,,,,,,,,,,,,,,,1028.23463,191,left,0.775555,dolphin     ,4,2,-3,0,3,1028.25188,1028.25188,1030.75059,0,36,36,36,1,191,4,7,dolphin     ,peacock       ,html/resources/sequences_IDs/B/02_dolphin.jpg,html/resources/sequences_IDs/A/05_peacock.jpg,2,5,1,1,2,1,1,4,0,13,,,,,,,,,,,,,,,,,,,,
,,,,,13,2020-07-01_10h32.11.342,retriever_ti,2020.1.3,Win32,60,Chrome,1366,768,,,,,,,,,,,,,,,,,3,,,,,,,,,,,,,,,,,,,,,,,,,,,1031.352015,192,left,1.59075,satellite_dish,5,10,1,1,1,1031.368865,1031.368865,1033.867505,0,37,37,37,1,192,5,4,satellite_dish,dolphin     ,html/resources/sequences_IDs/A/10_satellite_dish.jpg,html/resources/sequences_IDs/B/02_dolphin.jpg,10,2,4,2,1,1,8,1,0,13,,,,,,,,,,,,,,,,,,,,
,,,,,13,2020-07-01_10h32.11.342,retriever_ti,2020.1.3,Win32,60,Chrome,1366,768,,,,,,,,,,,,,,,,,3,,,,,,,,,,,,,,,,,,,,,,,,,,,1034.96778,193,left,0.971665,satellite_dish,5,10,3,1,3,1035.002495,1035.002495,1037.50047,0,38,38,38,1,193,5,2,satellite_dish,sport_tshirt,html/resources/sequences_IDs/A/10_satellite_dish.jpg,html/resources/sequences_IDs/B/07_sport_tshirt.jpg,10,7,4,2,3,2,8,6,0,13,,,,,,,,,,,,,,,,,,,,
,,,,,13,2020-07-01_10h32.11.342,retriever_ti,2020.1.3,Win32,60,Chrome,1366,768,,,,,,,,,,,,,,,,,3,,,,,,,,,,,,,,,,,,,,,,,,,,,1038.11804,194,right,1.212815,camel         ,3,3,1,1,1,1038.13549,1038.13549,1040.633695,0,39,39,39,1,194,2,3,sport_tshirt,camel         ,html/resources/sequences_IDs/B/07_sport_tshirt.jpg,html/resources/sequences_IDs/A/03_camel.jpg,7,3,3,2,1,1,6,2,0,13,,,,,,,,,,,,,,,,,,,,
,,,,,13,2020-07-01_10h32.11.342,retriever_ti,2020.1.3,Win32,60,Chrome,1366,768,,,,,,,,,,,,,,,,,3,,,,,,,,,,,,,,,,,,,,,,,,,,,1041.73468,195,left,0.827595,dolphin     ,4,2,2,1,3,1041.752035,1041.752035,1044.250415,0,40,40,40,1,195,4,2,dolphin     ,sport_tshirt,html/resources/sequences_IDs/B/02_dolphin.jpg,html/resources/sequences_IDs/B/07_sport_tshirt.jpg,2,7,1,1,3,2,1,6,0,13,,,,,,,,,,,,,,,,,,,,
,,,,,13,2020-07-01_10h32.11.342,retriever_ti,2020.1.3,Win32,60,Chrome,1366,768,,,,,,,,,,,,,,,,,3,,,,,,,,,,,,,,,,,,,,,,,,,,,1044.85184,196,right,1.067965,camel         ,3,3,2,1,3,1044.88552,1044.88552,1047.384065,0,41,41,41,1,196,1,3,hat           ,camel         ,html/resources/sequences_IDs/A/08_hat.jpg,html/resources/sequences_IDs/A/03_camel.jpg,8,3,3,2,1,1,7,2,0,13,,,,,,,,,,,,,,,,,,,,
,,,,,13,2020-07-01_10h32.11.342,retriever_ti,2020.1.3,Win32,60,Chrome,1366,768,,,,,,,,,,,,,,,,,3,,,,,,,,,,,,,,,,,,,,,,,,,,,1048.00108,197,right,1.22756,peacock       ,7,5,5,1,3,1048.019085,1048.019085,1050.517425,0,42,42,42,1,197,2,7,sport_tshirt,peacock       ,html/resources/sequences_IDs/B/07_sport_tshirt.jpg,html/resources/sequences_IDs/A/05_peacock.jpg,7,5,3,2,2,1,6,4,0,13,,,,,,,,,,,,,,,,,,,,
,,,,,13,2020-07-01_10h32.11.342,retriever_ti,2020.1.3,Win32,60,Chrome,1366,768,,,,,,,,,,,,,,,,,3,,,,,,,,,,,,,,,,,,,,,,,,,,,1051.13509,198,right,1.38097,gloves      ,6,6,4,1,3,1051.169305,1051.169305,1053.667145,0,43,43,43,1,198,2,6,sport_tshirt,gloves      ,html/resources/sequences_IDs/B/07_sport_tshirt.jpg,html/resources/sequences_IDs/B/06_gloves.jpg,7,6,3,2,3,2,6,5,0,13,,,,,,,,,,,,,,,,,,,,
,,,,,13,2020-07-01_10h32.11.342,retriever_ti,2020.1.3,Win32,60,Chrome,1366,768,,,,,,,,,,,,,,,,,3,,,,,,,,,,,,,,,,,,,,,,,,,,,1054.285075,199,right,1.48149,holdfast    ,8,4,1,1,1,1054.320705,1054.320705,1056.81721,0,44,44,44,1,199,7,8,peacock       ,holdfast    ,html/resources/sequences_IDs/A/05_peacock.jpg,html/resources/sequences_IDs/B/04_holdfast.jpg,5,4,2,1,2,1,4,3,0,13,,,,,,,,,,,,,,,,,,,,
,,,,,13,2020-07-01_10h32.11.342,retriever_ti,2020.1.3,Win32,60,Chrome,1366,768,,,,,,,,,,,,,,,,,3,,,,,,,,,,,,,,,,,,,,,,,,,,,1057.92011,200,left,1.115125,peacock       ,7,5,5,1,3,1057.9355,1057.9355,1060.433555,0,45,45,45,1,200,7,2,peacock       ,sport_tshirt,html/resources/sequences_IDs/A/05_peacock.jpg,html/resources/sequences_IDs/B/07_sport_tshirt.jpg,5,7,2,1,3,2,4,6,0,13,,,,,,,,,,,,,,,,,,,,
,,,,,13,2020-07-01_10h32.11.342,retriever_ti,2020.1.3,Win32,60,Chrome,1366,768,,,,,,,,,,,,,,,,,3,,,,,,,,,,,,,,,,,,,,,,,,,,,1061.050845,201,right,0.872015,dolphin     ,4,2,2,1,3,1061.085615,1061.085615,1063.58319,0,46,46,46,1,201,2,4,sport_tshirt,dolphin     ,html/resources/sequences_IDs/B/07_sport_tshirt.jpg,html/resources/sequences_IDs/B/02_dolphin.jpg,7,2,3,2,1,1,6,1,0,13,,,,,,,,,,,,,,,,,,,,
,,,,,13,2020-07-01_10h32.11.342,retriever_ti,2020.1.3,Win32,60,Chrome,1366,768,,,,,,,,,,,,,,,,,3,,,,,,,,,,,,,,,,,,,,,,,,,,,1064.18482,202,right,1.291065,hat           ,1,8,-1,0,0,1064.201995,1064.201995,1066.700385,0,47,47,47,1,202,2,1,sport_tshirt,hat           ,html/resources/sequences_IDs/B/07_sport_tshirt.jpg,html/resources/sequences_IDs/A/08_hat.jpg,7,8,3,2,3,2,6,7,0,13,,,,,,,,,,,,,,,,,,,,
,,,,,13,2020-07-01_10h32.11.342,retriever_ti,2020.1.3,Win32,60,Chrome,1366,768,,,,,,,,,,,,,,,,,3,,,,,,,,,,,,,,,,,,,,,,,,,,,1067.800925,203,right,1.00238,dolphin     ,4,2,1,1,1,1067.835305,1067.835305,1070.33348,0,48,48,48,1,203,3,4,camel         ,dolphin     ,html/resources/sequences_IDs/A/03_camel.jpg,html/resources/sequences_IDs/B/02_dolphin.jpg,3,2,1,1,1,1,2,1,0,13,,,,,,,,,,,,,,,,,,,,
,,,,,13,2020-07-01_10h32.11.342,retriever_ti,2020.1.3,Win32,60,Chrome,1366,768,,,,,,,,,,,,,,,,,3,,,,,,,,,,,,,,,,,,,,,,,,,,,1071.434695,204,right,0.696515,dolphin     ,4,2,-4,0,3,1071.45197,1071.45197,1073.950175,0,49,49,49,1,204,8,4,holdfast    ,dolphin     ,html/resources/sequences_IDs/B/04_holdfast.jpg,html/resources/sequences_IDs/B/02_dolphin.jpg,4,2,2,1,1,1,3,1,0,13,,,,,,,,,,,,,,,,,,,,
,,,,,13,2020-07-01_10h32.11.342,retriever_ti,2020.1.3,Win32,60,Chrome,1366,768,,,,,,,,,,,,,,,,,3,,,,,,,,,,,,,,,,,,,,,,,,,,,1074.567395,205,left,0.615205,dolphin     ,4,2,1,1,0,1074.602145,1074.602145,1077.1003,0,50,50,50,1,205,4,3,dolphin     ,camel         ,html/resources/sequences_IDs/B/02_dolphin.jpg,html/resources/sequences_IDs/A/03_camel.jpg,2,3,1,1,1,1,1,2,1,13,,,,,,,,,,,,,,,,,,,,
,,,,,13,2020-07-01_10h32.11.342,retriever_ti,2020.1.3,Win32,60,Chrome,1366,768,,,,,,,,,,,,,,,,,3,,,,,,,,,,,,,,,,,,,,,,,,,,,1078.201525,206,left,0.66746,peacock       ,7,5,6,1,3,1078.21886,1078.21886,1080.71711,0,51,51,51,1,206,7,1,peacock       ,hat           ,html/resources/sequences_IDs/A/05_peacock.jpg,html/resources/sequences_IDs/A/08_hat.jpg,5,8,2,1,3,2,4,7,0,13,,,,,,,,,,,,,,,,,,,,
,,,,,13,2020-07-01_10h32.11.342,retriever_ti,2020.1.3,Win32,60,Chrome,1366,768,,,,,,,,,,,,,,,,,3,,,,,,,,,,,,,,,,,,,,,,,,,,,1081.334545,207,right,0.60299,hat           ,1,8,-1,0,0,1081.36896,1081.36896,1083.86724,0,52,52,52,1,207,2,1,sport_tshirt,hat           ,html/resources/sequences_IDs/B/07_sport_tshirt.jpg,html/resources/sequences_IDs/A/08_hat.jpg,7,8,3,2,3,2,6,7,0,13,,,,,,,,,,,,,,,,,,,,
,,,,,13,2020-07-01_10h32.11.342,retriever_ti,2020.1.3,Win32,60,Chrome,1366,768,,,,,,,,,,,,,,,,,3,,,,,,,,,,,,,,,,,,,,,,,,,,,1084.967935,208,left,0.873585,holdfast    ,8,4,6,1,3,1084.985785,1084.985785,1087.48341,0,53,53,53,1,208,8,2,holdfast    ,sport_tshirt,html/resources/sequences_IDs/B/04_holdfast.jpg,html/resources/sequences_IDs/B/07_sport_tshirt.jpg,4,7,2,1,3,2,3,6,0,13,,,,,,,,,,,,,,,,,,,,
,,,,,13,2020-07-01_10h32.11.342,retriever_ti,2020.1.3,Win32,60,Chrome,1366,768,,,,,,,,,,,,,,,,,3,,,,,,,,,,,,,,,,,,,,,,,,,,,1088.084305,209,right,2.241845,camel         ,3,3,-5,0,3,1088.102025,1088.102025,1090.60082,0,54,54,54,1,209,8,3,holdfast    ,camel         ,html/resources/sequences_IDs/B/04_holdfast.jpg,html/resources/sequences_IDs/A/03_camel.jpg,4,3,2,1,1,1,3,2,0,13,,,,,,,,,,,,,,,,,,,,
,,,,,13,2020-07-01_10h32.11.342,retriever_ti,2020.1.3,Win32,60,Chrome,1366,768,,,,,,,,,,,,,,,,,3,,,,,,,,,,,,,,,,,,,,,,,,,,,1091.218555,210,right,1.81899,satellite_dish,5,10,4,1,3,1091.235245,1091.235245,1093.733895,0,55,55,55,1,210,1,5,hat           ,satellite_dish,html/resources/sequences_IDs/A/08_hat.jpg,html/resources/sequences_IDs/A/10_satellite_dish.jpg,8,10,3,2,4,2,7,8,0,13,,,,,,,,,,,,,,,,,,,,
,,,,,13,2020-07-01_10h32.11.342,retriever_ti,2020.1.3,Win32,60,Chrome,1366,768,,,,,,,,,,,,,,,,,3,,,,,,,,,,,,,,,,,,,,,,,,,,,1094.35104,211,left,1.06009,hat           ,1,8,-1,0,0,1094.38575,1094.38575,1096.88393,0,56,56,56,1,211,1,2,hat           ,sport_tshirt,html/resources/sequences_IDs/A/08_hat.jpg,html/resources/sequences_IDs/B/07_sport_tshirt.jpg,8,7,3,2,3,2,7,6,0,13,,,,,,,,,,,,,,,,,,,,
,,,,,13,2020-07-01_10h32.11.342,retriever_ti,2020.1.3,Win32,60,Chrome,1366,768,,,,,,,,,,,,,,,,,3,,,,,,,,,,,,,,,,,,,,,,,,,,,1097.984675,212,left,1.14932,camel         ,3,3,-4,0,3,1098.00203,1098.00203,1100.50079,0,57,57,57,1,212,3,7,camel         ,peacock       ,html/resources/sequences_IDs/A/03_camel.jpg,html/resources/sequences_IDs/A/05_peacock.jpg,3,5,1,1,2,1,2,4,0,13,,,,,,,,,,,,,,,,,,,,
,,,,,13,2020-07-01_10h32.11.342,retriever_ti,2020.1.3,Win32,60,Chrome,1366,768,,,,,,,,,,,,,,,,,3,,,,,,,,,,,,,,,,,,,,,,,,,,,1101.118035,213,right,1.48057,gloves      ,6,6,5,1,3,1101.15251,1101.15251,1103.65062,0,58,58,58,1,213,1,6,hat           ,gloves      ,html/resources/sequences_IDs/A/08_hat.jpg,html/resources/sequences_IDs/B/06_gloves.jpg,8,6,3,2,3,2,7,5,0,13,,,,,,,,,,,,,,,,,,,,
,,,,,13,2020-07-01_10h32.11.342,retriever_ti,2020.1.3,Win32,60,Chrome,1366,768,,,,,,,,,,,,,,,,,3,,,,,,,,,,,,,,,,,,,,,,,,,,,1104.267955,214,right,0.901545,gloves      ,6,6,3,1,3,1104.30226,1104.30226,1106.800345,0,59,59,59,1,214,3,6,camel         ,gloves      ,html/resources/sequences_IDs/A/03_camel.jpg,html/resources/sequences_IDs/B/06_gloves.jpg,3,6,1,1,3,2,2,5,0,13,,,,,,,,,,,,,,,,,,,,
,,,,,13,2020-07-01_10h32.11.342,retriever_ti,2020.1.3,Win32,60,Chrome,1366,768,,,,,,,,,,,,,,,,,3,,,,,,,,,,,,,,,,,,,,,,,,,,,1107.41786,215,right,2.299115,peacock       ,7,5,1,1,1,1107.435605,1107.435605,1109.93367,0,60,60,60,1,215,6,7,gloves      ,peacock       ,html/resources/sequences_IDs/B/06_gloves.jpg,html/resources/sequences_IDs/A/05_peacock.jpg,6,5,3,2,2,1,5,4,0,13,,,,,,,,,,,,,,,,,,,,
,,,,,13,2020-07-01_10h32.11.342,retriever_ti,2020.1.3,Win32,60,Chrome,1366,768,,,,,,,,,,,,,,,,,3,,,,,,,,,,,,,,,,,,,,,,,,,,,1111.034785,216,right,0.983485,satellite_dish,5,10,-1,0,0,1111.052245,1111.052245,1113.550505,0,61,61,61,1,216,6,5,gloves      ,satellite_dish,html/resources/sequences_IDs/B/06_gloves.jpg,html/resources/sequences_IDs/A/10_satellite_dish.jpg,6,10,3,2,4,2,5,8,0,13,,,,,,,,,,,,,,,,,,,,
,,,,,13,2020-07-01_10h32.11.342,retriever_ti,2020.1.3,Win32,60,Chrome,1366,768,,,,,,,,,,,,,,,,,3,,,,,,,,,,,,,,,,,,,,,,,,,,,1114.65103,217,left,1.52637,satellite_dish,5,10,2,1,3,1114.6683,1114.6683,1117.167545,0,62,62,62,1,217,5,3,satellite_dish,camel         ,html/resources/sequences_IDs/A/10_satellite_dish.jpg,html/resources/sequences_IDs/A/03_camel.jpg,10,3,4,2,1,1,8,2,0,13,,,,,,,,,,,,,,,,,,,,
,,,,,13,2020-07-01_10h32.11.342,retriever_ti,2020.1.3,Win32,60,Chrome,1366,768,,,,,,,,,,,,,,,,,3,,,,,,,,,,,,,,,,,,,,,,,,,,,1117.78521,218,left,1.16505,holdfast    ,8,4,1,1,1,1117.819375,1117.819375,1120.31734,0,63,63,63,1,218,8,7,holdfast    ,peacock       ,html/resources/sequences_IDs/B/04_holdfast.jpg,html/resources/sequences_IDs/A/05_peacock.jpg,4,5,2,1,2,1,3,4,0,13,,,,,,,,,,,,,,,,,,,,
,,,,,13,2020-07-01_10h32.11.342,retriever_ti,2020.1.3,Win32,60,Chrome,1366,768,,,,,,,,,,,,,,,,,3,,,,,,,,,,,,,,,,,,,,,,,,,,,1121.41786,219,left,1.394115,camel         ,3,3,1,1,1,1121.452145,1121.452145,1123.95041,0,64,64,64,1,219,3,2,camel         ,sport_tshirt,html/resources/sequences_IDs/A/03_camel.jpg,html/resources/sequences_IDs/B/07_sport_tshirt.jpg,3,7,1,1,3,2,2,6,0,13,,,,,,,,,,,,,,,,,,,,
,,,,,13,2020-07-01_10h32.11.342,retriever_ti,2020.1.3,Win32,60,Chrome,1366,768,,,,,,,,,,,,,,,,,3,,,,,,,,,,,,,,,,,,,,,,,,,,,1125.0516,220,right,1.512385,camel         ,3,3,1,1,1,1125.068855,1125.068855,1127.56712,0,65,65,65,1,220,2,3,sport_tshirt,camel         ,html/resources/sequences_IDs/B/07_sport_tshirt.jpg,html/resources/sequences_IDs/A/03_camel.jpg,7,3,3,2,1,1,6,2,0,13,,,,,,,,,,,,,,,,,,,,
,,,,,13,2020-07-01_10h32.11.342,retriever_ti,2020.1.3,Win32,60,Chrome,1366,768,,,,,,,,,,,,,,,,,3,,,,,,,,,,,,,,,,,,,,,,,,,,,1128.66776,221,right,0.97378,satellite_dish,5,10,1,1,1,1128.685535,1128.685535,1131.183525,0,66,66,66,1,221,4,5,dolphin     ,satellite_dish,html/resources/sequences_IDs/B/02_dolphin.jpg,html/resources/sequences_IDs/A/10_satellite_dish.jpg,2,10,1,1,4,2,1,8,0,13,,,,,,,,,,,,,,,,,,,,
,,,,,13,2020-07-01_10h32.11.342,retriever_ti,2020.1.3,Win32,60,Chrome,1366,768,,,,,,,,,,,,,,,,,3,,,,,,,,,,,,,,,,,,,,,,,,,,,1132.284945,222,right,1.905975,peacock       ,7,5,6,1,3,1132.30224,1132.30224,1134.800355,0,67,67,67,1,222,1,7,hat           ,peacock       ,html/resources/sequences_IDs/A/08_hat.jpg,html/resources/sequences_IDs/A/05_peacock.jpg,8,5,3,2,2,1,7,4,0,13,,,,,,,,,,,,,,,,,,,,
