instructionsLoop.thisRepN,instructionsLoop.thisTrialN,instructionsLoop.thisN,instructionsLoop.thisIndex,instructionsLoop.ran,participant,date,expName,psychopyVersion,OS,frameRate,browser,xResolution,yResolution,fix_onset,tprac,practiceKey.keys,practiceKey.rt,pracitem_chosen_name,acc_practice,P1_onsetPrac,P2_onsetPrac,onsetFeedbPrac,practiceTrials.thisRepN,practiceTrials.thisTrialN,practiceTrials.thisN,practiceTrials.thisIndex,practiceTrials.ran,P1,P2,Block,LocItem1,LocItem2,NameItem1,NameItem2,key_respAC_prac.keys,key_respAC_prac.corr,key_respAC_prac.rt,AC_acc,Attentions.thisRepN,Attentions.thisTrialN,Attentions.thisN,Attentions.thisIndex,Attentions.ran,Stim,Loc1,Loc2,Loc3,Loc4,CorrAns,keyDisturbed.keys,keyDisturbed.rt,repPractice.thisRepN,repPractice.thisTrialN,repPractice.thisN,repPractice.thisIndex,repPractice.ran,fixcross_onsetMain,trialNumber,key_resp.keys,key_resp.rt,item_chosen_name,item_chosen_value,item_chosen_ID,diff_chosen_minus_reject,acc_real,acc_feedback,P1_onset,P2_onset,feedb_onset,trials.thisRepN,trials.thisTrialN,trials.thisN,trials.thisIndex,trials.ran,Trial,ValueP1,ValueP2,P1name,P2name,P1Loc,P2Loc,P1id,P2id,Micro_categoryP1,Macro_categoryP1,Micro_categoryP2,Macro_categoryP2,ID_sequenceP1,ID_sequenceP2,InverseFb,pNumber,repBlocks.thisRepN,repBlocks.thisTrialN,repBlocks.thisN,repBlocks.thisIndex,repBlocks.ran,key_respAC.keys,key_respAC.corr,key_respAC.rt,trials_AC.thisRepN,trials_AC.thisTrialN,trials_AC.thisN,trials_AC.thisIndex,trials_AC.ran,Bonus,BonusLoop.thisRepN,BonusLoop.thisTrialN,BonusLoop.thisN,BonusLoop.thisIndex,BonusLoop.ran,comments
0,0,0,0,1,15,2020-07-01_10h32.45.330,retriever_ti,2020.1.3,Win32,60,Chrome,1920,1080,,,,,,,,,,,,,,,,,,,,,,,,,,,,,,,,,,,,,,,,,,,,,,,,,,,,,,,,,,,,,,,,,,,,,,,,,,,,,,,,,,,,,,,,,,,,,,,,,,
1,0,1,0,1,15,2020-07-01_10h32.45.330,retriever_ti,2020.1.3,Win32,60,Chrome,1920,1080,,,,,,,,,,,,,,,,,,,,,,,,,,,,,,,,,,,,,,,,,,,,,,,,,,,,,,,,,,,,,,,,,,,,,,,,,,,,,,,,,,,,,,,,,,,,,,,,,,
2,0,2,0,1,15,2020-07-01_10h32.45.330,retriever_ti,2020.1.3,Win32,60,Chrome,1920,1080,,,,,,,,,,,,,,,,,,,,,,,,,,,,,,,,,,,,,,,,,,,,,,,,,,,,,,,,,,,,,,,,,,,,,,,,,,,,,,,,,,,,,,,,,,,,,,,,,,
3,0,3,0,1,15,2020-07-01_10h32.45.330,retriever_ti,2020.1.3,Win32,60,Chrome,1920,1080,,,,,,,,,,,,,,,,,,,,,,,,,,,,,,,,,,,,,,,,,,,,,,,,,,,,,,,,,,,,,,,,,,,,,,,,,,,,,,,,,,,,,,,,,,,,,,,,,,
4,0,4,0,1,15,2020-07-01_10h32.45.330,retriever_ti,2020.1.3,Win32,60,Chrome,1920,1080,,,,,,,,,,,,,,,,,,,,,,,,,,,,,,,,,,,,,,,,,,,,,,,,,,,,,,,,,,,,,,,,,,,,,,,,,,,,,,,,,,,,,,,,,,,,,,,,,,
5,0,5,0,1,15,2020-07-01_10h32.45.330,retriever_ti,2020.1.3,Win32,60,Chrome,1920,1080,,,,,,,,,,,,,,,,,,,,,,,,,,,,,,,,,,,,,,,,,,,,,,,,,,,,,,,,,,,,,,,,,,,,,,,,,,,,,,,,,,,,,,,,,,,,,,,,,,
6,0,6,0,1,15,2020-07-01_10h32.45.330,retriever_ti,2020.1.3,Win32,60,Chrome,1920,1080,,,,,,,,,,,,,,,,,,,,,,,,,,,,,,,,,,,,,,,,,,,,,,,,,,,,,,,,,,,,,,,,,,,,,,,,,,,,,,,,,,,,,,,,,,,,,,,,,,
7,0,7,0,1,15,2020-07-01_10h32.45.330,retriever_ti,2020.1.3,Win32,60,Chrome,1920,1080,,,,,,,,,,,,,,,,,,,,,,,,,,,,,,,,,,,,,,,,,,,,,,,,,,,,,,,,,,,,,,,,,,,,,,,,,,,,,,,,,,,,,,,,,,,,,,,,,,
8,0,8,0,1,15,2020-07-01_10h32.45.330,retriever_ti,2020.1.3,Win32,60,Chrome,1920,1080,,,,,,,,,,,,,,,,,,,,,,,,,,,,,,,,,,,,,,,,,,,,,,,,,,,,,,,,,,,,,,,,,,,,,,,,,,,,,,,,,,,,,,,,,,,,,,,,,,
9,0,9,0,1,15,2020-07-01_10h32.45.330,retriever_ti,2020.1.3,Win32,60,Chrome,1920,1080,,,,,,,,,,,,,,,,,,,,,,,,,,,,,,,,,,,,,,,,,,,,,,,,,,,,,,,,,,,,,,,,,,,,,,,,,,,,,,,,,,,,,,,,,,,,,,,,,,
10,0,10,0,1,15,2020-07-01_10h32.45.330,retriever_ti,2020.1.3,Win32,60,Chrome,1920,1080,,,,,,,,,,,,,,,,,,,,,,,,,,,,,,,,,,,,,,,,,,,,,,,,,,,,,,,,,,,,,,,,,,,,,,,,,,,,,,,,,,,,,,,,,,,,,,,,,,
11,0,11,0,1,15,2020-07-01_10h32.45.330,retriever_ti,2020.1.3,Win32,60,Chrome,1920,1080,,,,,,,,,,,,,,,,,,,,,,,,,,,,,,,,,,,,,,,,,,,,,,,,,,,,,,,,,,,,,,,,,,,,,,,,,,,,,,,,,,,,,,,,,,,,,,,,,,
12,0,12,0,1,15,2020-07-01_10h32.45.330,retriever_ti,2020.1.3,Win32,60,Chrome,1920,1080,,,,,,,,,,,,,,,,,,,,,,,,,,,,,,,,,,,,,,,,,,,,,,,,,,,,,,,,,,,,,,,,,,,,,,,,,,,,,,,,,,,,,,,,,,,,,,,,,,
13,0,13,0,1,15,2020-07-01_10h32.45.330,retriever_ti,2020.1.3,Win32,60,Chrome,1920,1080,,,,,,,,,,,,,,,,,,,,,,,,,,,,,,,,,,,,,,,,,,,,,,,,,,,,,,,,,,,,,,,,,,,,,,,,,,,,,,,,,,,,,,,,,,,,,,,,,,
14,0,14,0,1,15,2020-07-01_10h32.45.330,retriever_ti,2020.1.3,Win32,60,Chrome,1920,1080,,,,,,,,,,,,,,,,,,,,,,,,,,,,,,,,,,,,,,,,,,,,,,,,,,,,,,,,,,,,,,,,,,,,,,,,,,,,,,,,,,,,,,,,,,,,,,,,,,
15,0,15,0,1,15,2020-07-01_10h32.45.330,retriever_ti,2020.1.3,Win32,60,Chrome,1920,1080,,,,,,,,,,,,,,,,,,,,,,,,,,,,,,,,,,,,,,,,,,,,,,,,,,,,,,,,,,,,,,,,,,,,,,,,,,,,,,,,,,,,,,,,,,,,,,,,,,
16,0,16,0,1,15,2020-07-01_10h32.45.330,retriever_ti,2020.1.3,Win32,60,Chrome,1920,1080,,,,,,,,,,,,,,,,,,,,,,,,,,,,,,,,,,,,,,,,,,,,,,,,,,,,,,,,,,,,,,,,,,,,,,,,,,,,,,,,,,,,,,,,,,,,,,,,,,
17,0,17,0,1,15,2020-07-01_10h32.45.330,retriever_ti,2020.1.3,Win32,60,Chrome,1920,1080,,,,,,,,,,,,,,,,,,,,,,,,,,,,,,,,,,,,,,,,,,,,,,,,,,,,,,,,,,,,,,,,,,,,,,,,,,,,,,,,,,,,,,,,,,,,,,,,,,
18,0,18,0,1,15,2020-07-01_10h32.45.330,retriever_ti,2020.1.3,Win32,60,Chrome,1920,1080,,,,,,,,,,,,,,,,,,,,,,,,,,,,,,,,,,,,,,,,,,,,,,,,,,,,,,,,,,,,,,,,,,,,,,,,,,,,,,,,,,,,,,,,,,,,,,,,,,
,,,,,15,2020-07-01_10h32.45.330,retriever_ti,2020.1.3,Win32,60,Chrome,1920,1080,281.67456,1,right,1.67609,canary,1,281.69178,281.69178,284.186555,0,0,0,0,1,2,5,1,html/resources/stimuli_practice_decision/04_beetle.jpg,html/resources/stimuli_practice_decision/02_canary.jpg,beetle,canary,,,,,,,,,,,,,,,,,,,,,,,,,,,,,,,,,,,,,,,,,,,,,,,,,,,,,,,,,,,,,,,,,,,,,,,,,,,,,
,,,,,15,2020-07-01_10h32.45.330,retriever_ti,2020.1.3,Win32,60,Chrome,1920,1080,284.72447,2,left,1.61859,rabbit,1,284.73784,284.73784,287.23749,0,1,1,1,1,4,3,1,html/resources/stimuli_practice_decision/01_rabbit.jpg,html/resources/stimuli_practice_decision/07_sock.jpg,rabbit,sock,,,,,,,,,,,,,,,,,,,,,,,,,,,,,,,,,,,,,,,,,,,,,,,,,,,,,,,,,,,,,,,,,,,,,,,,,,,,,
,,,,,15,2020-07-01_10h32.45.330,retriever_ti,2020.1.3,Win32,60,Chrome,1920,1080,288.23734,3,NaN,NaN,No_response,2,288.27142,288.27142,290.76953,0,2,2,2,1,6,2,1,html/resources/stimuli_practice_decision/06_pullover.jpg,html/resources/stimuli_practice_decision/04_beetle.jpg,pullover,beetle,,,,,,,,,,,,,,,,,,,,,,,,,,,,,,,,,,,,,,,,,,,,,,,,,,,,,,,,,,,,,,,,,,,,,,,,,,,,,
,,,,,15,2020-07-01_10h32.45.330,retriever_ti,2020.1.3,Win32,60,Chrome,1920,1080,291.770035,4,right,1.027505,handmixer,0,291.805265,291.805265,294.304405,0,3,3,3,1,7,1,1,html/resources/stimuli_practice_decision/05_glasses.jpg,html/resources/stimuli_practice_decision/08_handmixer.jpg,glasses,handmixer,,,,,,,,,,,,,,,,,,,,,,,,,,,,,,,,,,,,,,,,,,,,,,,,,,,,,,,,,,,,,,,,,,,,,,,,,,,,,
,,,,,15,2020-07-01_10h32.45.330,retriever_ti,2020.1.3,Win32,60,Chrome,1920,1080,294.82026,5,right,0.88664,pullover,0,294.837215,294.837215,297.336915,0,4,4,4,1,7,6,1,html/resources/stimuli_practice_decision/05_glasses.jpg,html/resources/stimuli_practice_decision/06_pullover.jpg,glasses,pullover,,,,,,,,,,,,,,,,,,,,,,,,,,,,,,,,,,,,,,,,,,,,,,,,,,,,,,,,,,,,,,,,,,,,,,,,,,,,,
,,,,,15,2020-07-01_10h32.45.330,retriever_ti,2020.1.3,Win32,60,Chrome,1920,1080,298.33728,6,right,0.97453,glasses,1,298.354025,298.354025,300.85319,0,5,5,5,1,4,7,1,html/resources/stimuli_practice_decision/01_rabbit.jpg,html/resources/stimuli_practice_decision/05_glasses.jpg,rabbit,glasses,,,,,,,,,,,,,,,,,,,,,,,,,,,,,,,,,,,,,,,,,,,,,,,,,,,,,,,,,,,,,,,,,,,,,,,,,,,,,
,,,,,15,2020-07-01_10h32.45.330,retriever_ti,2020.1.3,Win32,60,Chrome,1920,1080,301.35399,7,left,1.013695,handmixer,0,301.370555,301.370555,303.87013,0,6,6,6,1,1,2,1,html/resources/stimuli_practice_decision/08_handmixer.jpg,html/resources/stimuli_practice_decision/04_beetle.jpg,handmixer,beetle,,,,,,,,,,,,,,,,,,,,,,,,,,,,,,,,,,,,,,,,,,,,,,,,,,,,,,,,,,,,,,,,,,,,,,,,,,,,,
,,,,,15,2020-07-01_10h32.45.330,retriever_ti,2020.1.3,Win32,60,Chrome,1920,1080,304.870775,8,left,1.192875,rabbit,1,304.90403,304.90403,307.403295,0,7,7,7,1,4,3,1,html/resources/stimuli_practice_decision/01_rabbit.jpg,html/resources/stimuli_practice_decision/07_sock.jpg,rabbit,sock,,,,,,,,,,,,,,,,,,,,,,,,,,,,,,,,,,,,,,,,,,,,,,,,,,,,,,,,,,,,,,,,,,,,,,,,,,,,,
,,,,,15,2020-07-01_10h32.45.330,retriever_ti,2020.1.3,Win32,60,Chrome,1920,1080,,,,,,,,,,,,,,,,,,,,,,down,1,2.263325,1,0,0,0,1,1,html/resources/sequences_IDs/star.png,square ↑,circle →,star ↓,← triangle,down,,,,,,,,,,,,,,,,,,,,,,,,,,,,,,,,,,,,,,,,,,,,,,,,,,,,,,,,,,,,,,
,,,,,15,2020-07-01_10h32.45.330,retriever_ti,2020.1.3,Win32,60,Chrome,1920,1080,,,,,,,,,,,,,,,,,,,,,,down,1,1.934495,1,0,1,1,3,1,html/resources/sequences_IDs/triangle.png,star ↑,square →,triangle ↓,← circle,down,,,,,,,,,,,,,,,,,,,,,,,,,,,,,,,,,,,,,,,,,,,,,,,,,,,,,,,,,,,,,,
,,,,,15,2020-07-01_10h32.45.330,retriever_ti,2020.1.3,Win32,60,Chrome,1920,1080,,,,,,,,,,,,,,,,,,,,,,up,1,1.0073,1,0,2,2,0,1,html/resources/sequences_IDs/circle.png,circle ↑,square →,triangle ↓,← star ,up,,,,,,,,,,,,,,,,,,,,,,,,,,,,,,,,,,,,,,,,,,,,,,,,,,,,,,,,,,,,,,
,,,,,15,2020-07-01_10h32.45.330,retriever_ti,2020.1.3,Win32,60,Chrome,1920,1080,,,,,,,,,,,,,,,,,,,,,,left,1,1.01861,1,0,3,3,2,1,html/resources/sequences_IDs/square1.png,star ↑,triangle →,circle ↓,← square,left,,,,,,,,,,,,,,,,,,,,,,,,,,,,,,,,,,,,,,,,,,,,,,,,,,,,,,,,,,,,,,
,,,,,15,2020-07-01_10h32.45.330,retriever_ti,2020.1.3,Win32,60,Chrome,1920,1080,,,,,,,,,,,,,,,,,,,,,,,,,,,,,,,,,,,,,0,30.271015,0,0,0,0,1,,,,,,,,,,,,,,,,,,,,,,,,,,,,,,,,,,,,,,,,,,,,,,,,,,,,,,,
,,,,,15,2020-07-01_10h32.45.330,retriever_ti,2020.1.3,Win32,60,Chrome,1920,1080,354.27014,9,right,1.062355,glasses,1,354.290085,354.290085,356.78945,0,0,0,0,1,6,7,1,html/resources/stimuli_practice_decision/06_pullover.jpg,html/resources/stimuli_practice_decision/05_glasses.jpg,pullover,glasses,,,,,,,,,,,,,,,,,,,,,,,,,,,,,,,,,,,,,,,,,,,,,,,,,,,,,,,,,,,,,,,,,,,,,,,,,,,,,
,,,,,15,2020-07-01_10h32.45.330,retriever_ti,2020.1.3,Win32,60,Chrome,1920,1080,357.789195,10,right,0.921835,beetle,0,357.807605,357.807605,360.30643,0,1,1,1,1,6,2,1,html/resources/stimuli_practice_decision/06_pullover.jpg,html/resources/stimuli_practice_decision/04_beetle.jpg,pullover,beetle,,,,,,,,,,,,,,,,,,,,,,,,,,,,,,,,,,,,,,,,,,,,,,,,,,,,,,,,,,,,,,,,,,,,,,,,,,,,,
,,,,,15,2020-07-01_10h32.45.330,retriever_ti,2020.1.3,Win32,60,Chrome,1920,1080,360.823335,11,right,0.80786,pullover,1,360.856825,360.856825,363.35638,0,2,2,2,1,5,6,1,html/resources/stimuli_practice_decision/02_canary.jpg,html/resources/stimuli_practice_decision/06_pullover.jpg,canary,pullover,,,,,,,,,,,,,,,,,,,,,,,,,,,,,,,,,,,,,,,,,,,,,,,,,,,,,,,,,,,,,,,,,,,,,,,,,,,,,
,,,,,15,2020-07-01_10h32.45.330,retriever_ti,2020.1.3,Win32,60,Chrome,1920,1080,364.35717,12,right,1.470605,glasses,0,364.37349,364.37349,366.87285,0,3,3,3,1,8,7,1,html/resources/stimuli_practice_decision/03_squirrel.jpg,html/resources/stimuli_practice_decision/05_glasses.jpg,squirrel,glasses,,,,,,,,,,,,,,,,,,,,,,,,,,,,,,,,,,,,,,,,,,,,,,,,,,,,,,,,,,,,,,,,,,,,,,,,,,,,,
,,,,,15,2020-07-01_10h32.45.330,retriever_ti,2020.1.3,Win32,60,Chrome,1920,1080,367.87365,13,left,1.19711,canary,1,367.907165,367.907165,370.40661,0,4,4,4,1,5,3,1,html/resources/stimuli_practice_decision/02_canary.jpg,html/resources/stimuli_practice_decision/07_sock.jpg,canary,sock,,,,,,,,,,,,,,,,,,,,,,,,,,,,,,,,,,,,,,,,,,,,,,,,,,,,,,,,,,,,,,,,,,,,,,,,,,,,,
,,,,,15,2020-07-01_10h32.45.330,retriever_ti,2020.1.3,Win32,60,Chrome,1920,1080,370.924235,14,left,1.037605,glasses,0,370.941225,370.941225,373.44009,0,5,5,5,1,7,8,1,html/resources/stimuli_practice_decision/05_glasses.jpg,html/resources/stimuli_practice_decision/03_squirrel.jpg,glasses,squirrel,,,,,,,,,,,,,,,,,,,,,,,,,,,,,,,,,,,,,,,,,,,,,,,,,,,,,,,,,,,,,,,,,,,,,,,,,,,,,
,,,,,15,2020-07-01_10h32.45.330,retriever_ti,2020.1.3,Win32,60,Chrome,1920,1080,374.4405,15,right,1.238875,rabbit,0,374.47388,374.47388,376.973955,0,6,6,6,1,5,4,1,html/resources/stimuli_practice_decision/02_canary.jpg,html/resources/stimuli_practice_decision/01_rabbit.jpg,canary,rabbit,,,,,,,,,,,,,,,,,,,,,,,,,,,,,,,,,,,,,,,,,,,,,,,,,,,,,,,,,,,,,,,,,,,,,,,,,,,,,
,,,,,15,2020-07-01_10h32.45.330,retriever_ti,2020.1.3,Win32,60,Chrome,1920,1080,377.974475,16,left,1.210185,canary,1,377.99078,377.99078,380.491605,0,7,7,7,1,5,3,1,html/resources/stimuli_practice_decision/02_canary.jpg,html/resources/stimuli_practice_decision/07_sock.jpg,canary,sock,,,,,,,,,,,,,,,,,,,,,,,,,,,,,,,,,,,,,,,,,,,,,,,,,,,,,,,,,,,,,,,,,,,,,,,,,,,,,
,,,,,15,2020-07-01_10h32.45.330,retriever_ti,2020.1.3,Win32,60,Chrome,1920,1080,,,,,,,,,,,,,,,,,,,,,,up,1,1.53747,1,0,0,0,0,1,html/resources/sequences_IDs/circle.png,circle ↑,square →,triangle ↓,← star ,up,,,,,,,,,,,,,,,,,,,,,,,,,,,,,,,,,,,,,,,,,,,,,,,,,,,,,,,,,,,,,,
,,,,,15,2020-07-01_10h32.45.330,retriever_ti,2020.1.3,Win32,60,Chrome,1920,1080,,,,,,,,,,,,,,,,,,,,,,left,1,1.824885,1,0,1,1,2,1,html/resources/sequences_IDs/square1.png,star ↑,triangle →,circle ↓,← square,left,,,,,,,,,,,,,,,,,,,,,,,,,,,,,,,,,,,,,,,,,,,,,,,,,,,,,,,,,,,,,,
,,,,,15,2020-07-01_10h32.45.330,retriever_ti,2020.1.3,Win32,60,Chrome,1920,1080,,,,,,,,,,,,,,,,,,,,,,down,1,1.71878,1,0,2,2,1,1,html/resources/sequences_IDs/star.png,square ↑,circle →,star ↓,← triangle,down,,,,,,,,,,,,,,,,,,,,,,,,,,,,,,,,,,,,,,,,,,,,,,,,,,,,,,,,,,,,,,
,,,,,15,2020-07-01_10h32.45.330,retriever_ti,2020.1.3,Win32,60,Chrome,1920,1080,,,,,,,,,,,,,,,,,,,,,,down,1,1.753695,1,0,3,3,3,1,html/resources/sequences_IDs/triangle.png,star ↑,square →,triangle ↓,← circle,down,,,,,,,,,,,,,,,,,,,,,,,,,,,,,,,,,,,,,,,,,,,,,,,,,,,,,,,,,,,,,,
,,,,,15,2020-07-01_10h32.45.330,retriever_ti,2020.1.3,Win32,60,Chrome,1920,1080,,,,,,,,,,,,,,,,,,,,,,,,,,,,,,,,,,,,,0,13.58878,1,0,1,0,1,,,,,,,,,,,,,,,,,,,,,,,,,,,,,,,,,,,,,,,,,,,,,,,,,,,,,,,
,,,,,15,2020-07-01_10h32.45.330,retriever_ti,2020.1.3,Win32,60,Chrome,1920,1080,,,,,,,,,,,,,,,,,1,,,,,,,,,,,,,,,,,,,,,,,,,,,411.443845,1,left,1.351925,giraffe     ,8,3,6,1,3,411.46039,411.46039,413.960535,0,0,0,0,1,1,8,2,giraffe     ,parrot      ,html/resources/sequences_IDs/B/03_giraffe.jpg,html/resources/sequences_IDs/B/05_parrot.jpg,3,5,1,1,2,1,2,4,0,15,,,,,,,,,,,,,,,,,,,,
,,,,,15,2020-07-01_10h32.45.330,retriever_ti,2020.1.3,Win32,60,Chrome,1920,1080,,,,,,,,,,,,,,,,,1,,,,,,,,,,,,,,,,,,,,,,,,,,,414.576755,2,right,1.24687,giraffe     ,8,3,1,1,1,414.593435,414.593435,417.093145,0,1,1,1,1,2,7,8,dress         ,giraffe     ,html/resources/sequences_IDs/A/07_dress.jpg,html/resources/sequences_IDs/B/03_giraffe.jpg,7,3,3,2,1,1,6,2,0,15,,,,,,,,,,,,,,,,,,,,
,,,,,15,2020-07-01_10h32.45.330,retriever_ti,2020.1.3,Win32,60,Chrome,1920,1080,,,,,,,,,,,,,,,,,1,,,,,,,,,,,,,,,,,,,,,,,,,,,418.192745,3,left,1.35904,satellite_dish,3,10,-5,0,3,418.2095,418.2095,420.7093,0,2,2,2,1,3,3,8,satellite_dish,giraffe     ,html/resources/sequences_IDs/A/10_satellite_dish.jpg,html/resources/sequences_IDs/B/03_giraffe.jpg,10,3,4,2,1,1,8,2,0,15,,,,,,,,,,,,,,,,,,,,
,,,,,15,2020-07-01_10h32.45.330,retriever_ti,2020.1.3,Win32,60,Chrome,1920,1080,,,,,,,,,,,,,,,,,1,,,,,,,,,,,,,,,,,,,,,,,,,,,421.326215,4,left,1.68958,dress         ,7,7,1,1,0,421.34334,421.34334,423.84219,0,3,3,3,1,4,7,6,dress         ,phone       ,html/resources/sequences_IDs/A/07_dress.jpg,html/resources/sequences_IDs/B/09_phone.jpg,7,9,3,2,4,2,6,7,1,15,,,,,,,,,,,,,,,,,,,,
,,,,,15,2020-07-01_10h32.45.330,retriever_ti,2020.1.3,Win32,60,Chrome,1920,1080,,,,,,,,,,,,,,,,,1,,,,,,,,,,,,,,,,,,,,,,,,,,,424.942805,5,left,1.31241,giraffe     ,8,3,3,1,3,424.97618,424.97618,427.47565,0,4,4,4,1,5,8,5,giraffe     ,clownfish     ,html/resources/sequences_IDs/B/03_giraffe.jpg,html/resources/sequences_IDs/A/04_clownfish.jpg,3,4,1,1,2,1,2,3,0,15,,,,,,,,,,,,,,,,,,,,
,,,,,15,2020-07-01_10h32.45.330,retriever_ti,2020.1.3,Win32,60,Chrome,1920,1080,,,,,,,,,,,,,,,,,1,,,,,,,,,,,,,,,,,,,,,,,,,,,428.076465,6,right,1.71531,phone       ,6,9,1,1,1,428.09302,428.09302,430.5928,0,5,5,5,1,6,5,6,clownfish     ,phone       ,html/resources/sequences_IDs/A/04_clownfish.jpg,html/resources/sequences_IDs/B/09_phone.jpg,4,9,2,1,4,2,3,7,0,15,,,,,,,,,,,,,,,,,,,,
,,,,,15,2020-07-01_10h32.45.330,retriever_ti,2020.1.3,Win32,60,Chrome,1920,1080,,,,,,,,,,,,,,,,,1,,,,,,,,,,,,,,,,,,,,,,,,,,,431.69363,7,left,1.65315,redfox      ,4,1,2,1,3,431.726925,431.726925,434.226325,0,6,6,6,1,7,4,2,redfox      ,parrot      ,html/resources/sequences_IDs/B/01_redfox.jpg,html/resources/sequences_IDs/B/05_parrot.jpg,1,5,1,1,2,1,1,4,0,15,,,,,,,,,,,,,,,,,,,,
,,,,,15,2020-07-01_10h32.45.330,retriever_ti,2020.1.3,Win32,60,Chrome,1920,1080,,,,,,,,,,,,,,,,,1,,,,,,,,,,,,,,,,,,,,,,,,,,,434.84328,8,left,0.96193,giraffe     ,8,3,4,1,3,434.87833,434.87833,437.375935,0,7,7,7,1,8,8,4,giraffe     ,redfox      ,html/resources/sequences_IDs/B/03_giraffe.jpg,html/resources/sequences_IDs/B/01_redfox.jpg,3,1,1,1,1,1,2,1,0,15,,,,,,,,,,,,,,,,,,,,
,,,,,15,2020-07-01_10h32.45.330,retriever_ti,2020.1.3,Win32,60,Chrome,1920,1080,,,,,,,,,,,,,,,,,1,,,,,,,,,,,,,,,,,,,,,,,,,,,437.99316,9,left,1.18152,redfox      ,4,1,-1,0,0,438.010785,438.010785,440.50983,0,8,8,8,1,9,4,5,redfox      ,clownfish     ,html/resources/sequences_IDs/B/01_redfox.jpg,html/resources/sequences_IDs/A/04_clownfish.jpg,1,4,1,1,2,1,1,3,0,15,,,,,,,,,,,,,,,,,,,,
,,,,,15,2020-07-01_10h32.45.330,retriever_ti,2020.1.3,Win32,60,Chrome,1920,1080,,,,,,,,,,,,,,,,,1,,,,,,,,,,,,,,,,,,,,,,,,,,,441.610185,10,left,1.194805,clownfish     ,5,4,-1,0,1,441.64361,441.64361,444.142915,0,9,9,9,1,10,5,6,clownfish     ,phone       ,html/resources/sequences_IDs/A/04_clownfish.jpg,html/resources/sequences_IDs/B/09_phone.jpg,4,9,2,1,4,2,3,7,1,15,,,,,,,,,,,,,,,,,,,,
,,,,,15,2020-07-01_10h32.45.330,retriever_ti,2020.1.3,Win32,60,Chrome,1920,1080,,,,,,,,,,,,,,,,,1,,,,,,,,,,,,,,,,,,,,,,,,,,,445.243515,11,left,1.34601,redfox      ,4,1,3,1,3,445.27867,445.27867,447.77638,0,10,10,10,1,11,4,1,redfox      ,scarf         ,html/resources/sequences_IDs/B/01_redfox.jpg,html/resources/sequences_IDs/A/06_scarf.jpg,1,6,1,1,3,2,1,5,0,15,,,,,,,,,,,,,,,,,,,,
,,,,,15,2020-07-01_10h32.45.330,retriever_ti,2020.1.3,Win32,60,Chrome,1920,1080,,,,,,,,,,,,,,,,,1,,,,,,,,,,,,,,,,,,,,,,,,,,,448.37705,12,left,1.59775,parrot      ,2,5,-3,0,3,448.410555,448.410555,450.909815,0,11,11,11,1,12,2,5,parrot      ,clownfish     ,html/resources/sequences_IDs/B/05_parrot.jpg,html/resources/sequences_IDs/A/04_clownfish.jpg,5,4,2,1,2,1,4,3,0,15,,,,,,,,,,,,,,,,,,,,
,,,,,15,2020-07-01_10h32.45.330,retriever_ti,2020.1.3,Win32,60,Chrome,1920,1080,,,,,,,,,,,,,,,,,1,,,,,,,,,,,,,,,,,,,,,,,,,,,451.51069,13,left,0.896255,giraffe     ,8,3,2,1,3,451.528,451.528,454.02818,0,12,12,12,1,13,8,6,giraffe     ,phone       ,html/resources/sequences_IDs/B/03_giraffe.jpg,html/resources/sequences_IDs/B/09_phone.jpg,3,9,1,1,4,2,2,7,0,15,,,,,,,,,,,,,,,,,,,,
,,,,,15,2020-07-01_10h32.45.330,retriever_ti,2020.1.3,Win32,60,Chrome,1920,1080,,,,,,,,,,,,,,,,,1,,,,,,,,,,,,,,,,,,,,,,,,,,,454.64403,14,left,1.114185,parrot      ,2,5,-4,0,3,454.67816,454.67816,457.177445,0,13,13,13,1,14,2,6,parrot      ,phone       ,html/resources/sequences_IDs/B/05_parrot.jpg,html/resources/sequences_IDs/B/09_phone.jpg,5,9,2,1,4,2,4,7,0,15,,,,,,,,,,,,,,,,,,,,
,,,,,15,2020-07-01_10h32.45.330,retriever_ti,2020.1.3,Win32,60,Chrome,1920,1080,,,,,,,,,,,,,,,,,1,,,,,,,,,,,,,,,,,,,,,,,,,,,457.77842,15,right,1.606125,satellite_dish,3,10,-1,0,1,457.81113,457.81113,460.31071,0,14,14,14,1,15,4,3,redfox      ,satellite_dish,html/resources/sequences_IDs/B/01_redfox.jpg,html/resources/sequences_IDs/A/10_satellite_dish.jpg,1,10,1,1,4,2,1,8,1,15,,,,,,,,,,,,,,,,,,,,
,,,,,15,2020-07-01_10h32.45.330,retriever_ti,2020.1.3,Win32,60,Chrome,1920,1080,,,,,,,,,,,,,,,,,1,,,,,,,,,,,,,,,,,,,,,,,,,,,461.41119,16,right,0.7557,satellite_dish,3,10,2,1,3,461.445005,461.445005,463.943765,0,15,15,15,1,16,1,3,scarf         ,satellite_dish,html/resources/sequences_IDs/A/06_scarf.jpg,html/resources/sequences_IDs/A/10_satellite_dish.jpg,6,10,3,2,4,2,5,8,0,15,,,,,,,,,,,,,,,,,,,,
,,,,,15,2020-07-01_10h32.45.330,retriever_ti,2020.1.3,Win32,60,Chrome,1920,1080,,,,,,,,,,,,,,,,,1,,,,,,,,,,,,,,,,,,,,,,,,,,,464.544585,17,NaN,NaN,No_response,NaN,NaN,NaN,2,2,464.57801,464.57801,467.07762,0,16,16,16,1,17,7,5,dress         ,clownfish     ,html/resources/sequences_IDs/A/07_dress.jpg,html/resources/sequences_IDs/A/04_clownfish.jpg,7,4,3,2,2,1,6,3,0,15,,,,,,,,,,,,,,,,,,,,
,,,,,15,2020-07-01_10h32.45.330,retriever_ti,2020.1.3,Win32,60,Chrome,1920,1080,,,,,,,,,,,,,,,,,1,,,,,,,,,,,,,,,,,,,,,,,,,,,468.17794,18,right,0.76393,parrot      ,2,5,1,1,1,468.21239,468.21239,470.71165,0,17,17,17,1,18,1,2,scarf         ,parrot      ,html/resources/sequences_IDs/A/06_scarf.jpg,html/resources/sequences_IDs/B/05_parrot.jpg,6,5,3,2,2,1,5,4,0,15,,,,,,,,,,,,,,,,,,,,
,,,,,15,2020-07-01_10h32.45.330,retriever_ti,2020.1.3,Win32,60,Chrome,1920,1080,,,,,,,,,,,,,,,,,1,,,,,,,,,,,,,,,,,,,,,,,,,,,471.811785,19,left,0.724385,parrot      ,2,5,1,1,1,471.82878,471.82878,474.32788,0,18,18,18,1,19,2,1,parrot      ,scarf         ,html/resources/sequences_IDs/B/05_parrot.jpg,html/resources/sequences_IDs/A/06_scarf.jpg,5,6,2,1,3,2,4,5,0,15,,,,,,,,,,,,,,,,,,,,
,,,,,15,2020-07-01_10h32.45.330,retriever_ti,2020.1.3,Win32,60,Chrome,1920,1080,,,,,,,,,,,,,,,,,1,,,,,,,,,,,,,,,,,,,,,,,,,,,475.42843,20,right,0.923525,redfox      ,4,1,2,1,3,475.461715,475.461715,477.961215,0,19,19,19,1,20,2,4,parrot      ,redfox      ,html/resources/sequences_IDs/B/05_parrot.jpg,html/resources/sequences_IDs/B/01_redfox.jpg,5,1,2,1,1,1,4,1,0,15,,,,,,,,,,,,,,,,,,,,
,,,,,15,2020-07-01_10h32.45.330,retriever_ti,2020.1.3,Win32,60,Chrome,1920,1080,,,,,,,,,,,,,,,,,1,,,,,,,,,,,,,,,,,,,,,,,,,,,478.56276,21,right,0.70923,giraffe     ,8,3,7,1,3,478.595225,478.595225,481.094765,0,20,20,20,1,21,1,8,scarf         ,giraffe     ,html/resources/sequences_IDs/A/06_scarf.jpg,html/resources/sequences_IDs/B/03_giraffe.jpg,6,3,3,2,1,1,5,2,0,15,,,,,,,,,,,,,,,,,,,,
,,,,,15,2020-07-01_10h32.45.330,retriever_ti,2020.1.3,Win32,60,Chrome,1920,1080,,,,,,,,,,,,,,,,,1,,,,,,,,,,,,,,,,,,,,,,,,,,,481.695365,22,right,0.87351,satellite_dish,3,10,1,1,1,481.71201,481.71201,484.211945,0,21,21,21,1,22,2,3,parrot      ,satellite_dish,html/resources/sequences_IDs/B/05_parrot.jpg,html/resources/sequences_IDs/A/10_satellite_dish.jpg,5,10,2,1,4,2,4,8,0,15,,,,,,,,,,,,,,,,,,,,
,,,,,15,2020-07-01_10h32.45.330,retriever_ti,2020.1.3,Win32,60,Chrome,1920,1080,,,,,,,,,,,,,,,,,1,,,,,,,,,,,,,,,,,,,,,,,,,,,485.311935,23,right,0.957635,clownfish     ,5,4,-1,0,0,485.347015,485.347015,487.84471,0,22,22,22,1,23,6,5,phone       ,clownfish     ,html/resources/sequences_IDs/B/09_phone.jpg,html/resources/sequences_IDs/A/04_clownfish.jpg,9,4,4,2,2,1,7,3,0,15,,,,,,,,,,,,,,,,,,,,
,,,,,15,2020-07-01_10h32.45.330,retriever_ti,2020.1.3,Win32,60,Chrome,1920,1080,,,,,,,,,,,,,,,,,1,,,,,,,,,,,,,,,,,,,,,,,,,,,488.945575,24,left,1.83804,redfox      ,4,1,1,1,1,488.962855,488.962855,491.462535,0,23,23,23,1,24,4,3,redfox      ,satellite_dish,html/resources/sequences_IDs/B/01_redfox.jpg,html/resources/sequences_IDs/A/10_satellite_dish.jpg,1,10,1,1,4,2,1,8,0,15,,,,,,,,,,,,,,,,,,,,
,,,,,15,2020-07-01_10h32.45.330,retriever_ti,2020.1.3,Win32,60,Chrome,1920,1080,,,,,,,,,,,,,,,,,1,,,,,,,,,,,,,,,,,,,,,,,,,,,492.562945,25,left,1.13693,parrot      ,2,5,-1,0,1,492.579335,492.579335,495.07875,0,24,24,24,1,25,2,3,parrot      ,satellite_dish,html/resources/sequences_IDs/B/05_parrot.jpg,html/resources/sequences_IDs/A/10_satellite_dish.jpg,5,10,2,1,4,2,4,8,1,15,,,,,,,,,,,,,,,,,,,,
,,,,,15,2020-07-01_10h32.45.330,retriever_ti,2020.1.3,Win32,60,Chrome,1920,1080,,,,,,,,,,,,,,,,,1,,,,,,,,,,,,,,,,,,,,,,,,,,,496.17893,26,right,0.93183,giraffe     ,8,3,4,1,3,496.19642,496.19642,498.69615,0,25,25,25,1,26,4,8,redfox      ,giraffe     ,html/resources/sequences_IDs/B/01_redfox.jpg,html/resources/sequences_IDs/B/03_giraffe.jpg,1,3,1,1,1,1,1,2,0,15,,,,,,,,,,,,,,,,,,,,
,,,,,15,2020-07-01_10h32.45.330,retriever_ti,2020.1.3,Win32,60,Chrome,1920,1080,,,,,,,,,,,,,,,,,1,,,,,,,,,,,,,,,,,,,,,,,,,,,499.313285,27,right,1.238325,satellite_dish,3,10,-4,0,3,499.346385,499.346385,501.84624,0,26,26,26,1,27,7,3,dress         ,satellite_dish,html/resources/sequences_IDs/A/07_dress.jpg,html/resources/sequences_IDs/A/10_satellite_dish.jpg,7,10,3,2,4,2,6,8,0,15,,,,,,,,,,,,,,,,,,,,
,,,,,15,2020-07-01_10h32.45.330,retriever_ti,2020.1.3,Win32,60,Chrome,1920,1080,,,,,,,,,,,,,,,,,1,,,,,,,,,,,,,,,,,,,,,,,,,,,502.44747,28,left,0.67312,dress         ,7,7,6,1,3,502.463465,502.463465,504.963955,0,27,27,27,1,28,7,1,dress         ,scarf         ,html/resources/sequences_IDs/A/07_dress.jpg,html/resources/sequences_IDs/A/06_scarf.jpg,7,6,3,2,3,2,6,5,0,15,,,,,,,,,,,,,,,,,,,,
,,,,,15,2020-07-01_10h32.45.330,retriever_ti,2020.1.3,Win32,60,Chrome,1920,1080,,,,,,,,,,,,,,,,,1,,,,,,,,,,,,,,,,,,,,,,,,,,,505.57983,29,left,0.96344,clownfish     ,5,4,4,1,3,505.61319,505.61319,508.113165,0,28,28,28,1,29,5,1,clownfish     ,scarf         ,html/resources/sequences_IDs/A/04_clownfish.jpg,html/resources/sequences_IDs/A/06_scarf.jpg,4,6,2,1,3,2,3,5,0,15,,,,,,,,,,,,,,,,,,,,
,,,,,15,2020-07-01_10h32.45.330,retriever_ti,2020.1.3,Win32,60,Chrome,1920,1080,,,,,,,,,,,,,,,,,1,,,,,,,,,,,,,,,,,,,,,,,,,,,508.73121,30,left,0.937155,dress         ,7,7,1,1,1,508.746675,508.746675,511.24688,0,29,29,29,1,30,7,6,dress         ,phone       ,html/resources/sequences_IDs/A/07_dress.jpg,html/resources/sequences_IDs/B/09_phone.jpg,7,9,3,2,4,2,6,7,0,15,,,,,,,,,,,,,,,,,,,,
,,,,,15,2020-07-01_10h32.45.330,retriever_ti,2020.1.3,Win32,60,Chrome,1920,1080,,,,,,,,,,,,,,,,,1,,,,,,,,,,,,,,,,,,,,,,,,,,,512.34646,31,right,2.179435,clownfish     ,5,4,1,1,1,512.38099,512.38099,514.879455,0,30,30,30,1,31,4,5,redfox      ,clownfish     ,html/resources/sequences_IDs/B/01_redfox.jpg,html/resources/sequences_IDs/A/04_clownfish.jpg,1,4,1,1,2,1,1,3,0,15,,,,,,,,,,,,,,,,,,,,
,,,,,15,2020-07-01_10h32.45.330,retriever_ti,2020.1.3,Win32,60,Chrome,1920,1080,,,,,,,,,,,,,,,,,1,,,,,,,,,,,,,,,,,,,,,,,,,,,515.980825,32,left,0.79532,redfox      ,4,1,-2,0,3,515.997445,515.997445,518.49686,0,31,31,31,1,32,4,6,redfox      ,phone       ,html/resources/sequences_IDs/B/01_redfox.jpg,html/resources/sequences_IDs/B/09_phone.jpg,1,9,1,1,4,2,1,7,0,15,,,,,,,,,,,,,,,,,,,,
,,,,,15,2020-07-01_10h32.45.330,retriever_ti,2020.1.3,Win32,60,Chrome,1920,1080,,,,,,,,,,,,,,,,,1,,,,,,,,,,,,,,,,,,,,,,,,,,,519.11374,33,left,0.67713,giraffe     ,8,3,1,1,1,519.147445,519.147445,521.64662,0,32,32,32,1,33,8,7,giraffe     ,dress         ,html/resources/sequences_IDs/B/03_giraffe.jpg,html/resources/sequences_IDs/A/07_dress.jpg,3,7,1,1,3,2,2,6,0,15,,,,,,,,,,,,,,,,,,,,
,,,,,15,2020-07-01_10h32.45.330,retriever_ti,2020.1.3,Win32,60,Chrome,1920,1080,,,,,,,,,,,,,,,,,1,,,,,,,,,,,,,,,,,,,,,,,,,,,522.747515,34,left,1.07477,satellite_dish,3,10,2,1,3,522.765675,522.765675,525.263545,0,33,33,33,1,34,3,1,satellite_dish,scarf         ,html/resources/sequences_IDs/A/10_satellite_dish.jpg,html/resources/sequences_IDs/A/06_scarf.jpg,10,6,4,2,3,2,8,5,0,15,,,,,,,,,,,,,,,,,,,,
,,,,,15,2020-07-01_10h32.45.330,retriever_ti,2020.1.3,Win32,60,Chrome,1920,1080,,,,,,,,,,,,,,,,,1,,,,,,,,,,,,,,,,,,,,,,,,,,,525.88067,35,right,0.925725,satellite_dish,3,10,-3,0,3,525.915065,525.915065,528.414805,0,34,34,34,1,35,6,3,phone       ,satellite_dish,html/resources/sequences_IDs/B/09_phone.jpg,html/resources/sequences_IDs/A/10_satellite_dish.jpg,9,10,4,2,4,2,7,8,0,15,,,,,,,,,,,,,,,,,,,,
,,,,,15,2020-07-01_10h32.45.330,retriever_ti,2020.1.3,Win32,60,Chrome,1920,1080,,,,,,,,,,,,,,,,,1,,,,,,,,,,,,,,,,,,,,,,,,,,,529.03063,36,left,0.839675,parrot      ,2,5,1,1,0,529.064725,529.064725,531.56497,0,35,35,35,1,36,2,1,parrot      ,scarf         ,html/resources/sequences_IDs/B/05_parrot.jpg,html/resources/sequences_IDs/A/06_scarf.jpg,5,6,2,1,3,2,4,5,1,15,,,,,,,,,,,,,,,,,,,,
,,,,,15,2020-07-01_10h32.45.330,retriever_ti,2020.1.3,Win32,60,Chrome,1920,1080,,,,,,,,,,,,,,,,,1,,,,,,,,,,,,,,,,,,,,,,,,,,,532.664175,37,left,0.87109,satellite_dish,3,10,-4,0,3,532.681385,532.681385,535.180395,0,36,36,36,1,37,3,7,satellite_dish,dress         ,html/resources/sequences_IDs/A/10_satellite_dish.jpg,html/resources/sequences_IDs/A/07_dress.jpg,10,7,4,2,3,2,8,6,0,15,,,,,,,,,,,,,,,,,,,,
,,,,,15,2020-07-01_10h32.45.330,retriever_ti,2020.1.3,Win32,60,Chrome,1920,1080,,,,,,,,,,,,,,,,,1,,,,,,,,,,,,,,,,,,,,,,,,,,,535.797885,38,right,1.369975,dress         ,7,7,-1,0,1,535.831375,535.831375,538.331745,0,37,37,37,1,38,8,7,giraffe     ,dress         ,html/resources/sequences_IDs/B/03_giraffe.jpg,html/resources/sequences_IDs/A/07_dress.jpg,3,7,1,1,3,2,2,6,1,15,,,,,,,,,,,,,,,,,,,,
,,,,,15,2020-07-01_10h32.45.330,retriever_ti,2020.1.3,Win32,60,Chrome,1920,1080,,,,,,,,,,,,,,,,,1,,,,,,,,,,,,,,,,,,,,,,,,,,,539.431785,39,right,1.304845,scarf         ,1,6,-5,0,3,539.447925,539.447925,541.948845,0,38,38,38,1,39,6,1,phone       ,scarf         ,html/resources/sequences_IDs/B/09_phone.jpg,html/resources/sequences_IDs/A/06_scarf.jpg,9,6,4,2,3,2,7,5,0,15,,,,,,,,,,,,,,,,,,,,
,,,,,15,2020-07-01_10h32.45.330,retriever_ti,2020.1.3,Win32,60,Chrome,1920,1080,,,,,,,,,,,,,,,,,1,,,,,,,,,,,,,,,,,,,,,,,,,,,542.564895,40,right,1.05333,parrot      ,2,5,-3,0,3,542.59811,542.59811,545.097665,0,39,39,39,1,40,5,2,clownfish     ,parrot      ,html/resources/sequences_IDs/A/04_clownfish.jpg,html/resources/sequences_IDs/B/05_parrot.jpg,4,5,2,1,2,1,3,4,0,15,,,,,,,,,,,,,,,,,,,,
,,,,,15,2020-07-01_10h32.45.330,retriever_ti,2020.1.3,Win32,60,Chrome,1920,1080,,,,,,,,,,,,,,,,,1,,,,,,,,,,,,,,,,,,,,,,,,,,,545.69819,41,left,0.853155,scarf         ,1,6,-5,0,3,545.732615,545.732615,548.23158,0,40,40,40,1,41,1,6,scarf         ,phone       ,html/resources/sequences_IDs/A/06_scarf.jpg,html/resources/sequences_IDs/B/09_phone.jpg,6,9,3,2,4,2,5,7,0,15,,,,,,,,,,,,,,,,,,,,
,,,,,15,2020-07-01_10h32.45.330,retriever_ti,2020.1.3,Win32,60,Chrome,1920,1080,,,,,,,,,,,,,,,,,1,,,,,,,,,,,,,,,,,,,,,,,,,,,548.84883,42,left,1.12681,scarf         ,1,6,-3,0,3,548.881995,548.881995,551.38117,0,41,41,41,1,42,1,4,scarf         ,redfox      ,html/resources/sequences_IDs/A/06_scarf.jpg,html/resources/sequences_IDs/B/01_redfox.jpg,6,1,3,2,1,1,5,1,0,15,,,,,,,,,,,,,,,,,,,,
,,,,,15,2020-07-01_10h32.45.330,retriever_ti,2020.1.3,Win32,60,Chrome,1920,1080,,,,,,,,,,,,,,,,,1,,,,,,,,,,,,,,,,,,,,,,,,,,,551.981885,43,right,1.06591,giraffe     ,8,3,2,1,3,551.99855,551.99855,554.49934,0,42,42,42,1,43,6,8,phone       ,giraffe     ,html/resources/sequences_IDs/B/09_phone.jpg,html/resources/sequences_IDs/B/03_giraffe.jpg,9,3,4,2,1,1,7,2,0,15,,,,,,,,,,,,,,,,,,,,
,,,,,15,2020-07-01_10h32.45.330,retriever_ti,2020.1.3,Win32,60,Chrome,1920,1080,,,,,,,,,,,,,,,,,1,,,,,,,,,,,,,,,,,,,,,,,,,,,555.11525,44,right,0.676175,giraffe     ,8,3,3,1,3,555.13236,555.13236,557.631515,0,43,43,43,1,44,5,8,clownfish     ,giraffe     ,html/resources/sequences_IDs/A/04_clownfish.jpg,html/resources/sequences_IDs/B/03_giraffe.jpg,4,3,2,1,1,1,3,2,0,15,,,,,,,,,,,,,,,,,,,,
,,,,,15,2020-07-01_10h32.45.330,retriever_ti,2020.1.3,Win32,60,Chrome,1920,1080,,,,,,,,,,,,,,,,,1,,,,,,,,,,,,,,,,,,,,,,,,,,,558.232095,45,left,1.01474,scarf         ,1,6,-4,0,3,558.24954,558.24954,560.748285,0,44,44,44,1,45,1,5,scarf         ,clownfish     ,html/resources/sequences_IDs/A/06_scarf.jpg,html/resources/sequences_IDs/A/04_clownfish.jpg,6,4,3,2,2,1,5,3,0,15,,,,,,,,,,,,,,,,,,,,
,,,,,15,2020-07-01_10h32.45.330,retriever_ti,2020.1.3,Win32,60,Chrome,1920,1080,,,,,,,,,,,,,,,,,1,,,,,,,,,,,,,,,,,,,,,,,,,,,561.34926,46,right,1.39371,redfox      ,4,1,-3,0,3,561.36731,561.36731,563.864945,0,45,45,45,1,46,7,4,dress         ,redfox      ,html/resources/sequences_IDs/A/07_dress.jpg,html/resources/sequences_IDs/B/01_redfox.jpg,7,1,3,2,1,1,6,1,0,15,,,,,,,,,,,,,,,,,,,,
,,,,,15,2020-07-01_10h32.45.330,retriever_ti,2020.1.3,Win32,60,Chrome,1920,1080,,,,,,,,,,,,,,,,,1,,,,,,,,,,,,,,,,,,,,,,,,,,,564.48231,47,right,1.32011,dress         ,7,7,3,1,3,564.515855,564.515855,567.015085,0,46,46,46,1,47,4,7,redfox      ,dress         ,html/resources/sequences_IDs/B/01_redfox.jpg,html/resources/sequences_IDs/A/07_dress.jpg,1,7,1,1,3,2,1,6,0,15,,,,,,,,,,,,,,,,,,,,
,,,,,15,2020-07-01_10h32.45.330,retriever_ti,2020.1.3,Win32,60,Chrome,1920,1080,,,,,,,,,,,,,,,,,1,,,,,,,,,,,,,,,,,,,,,,,,,,,567.616575,48,right,1.309965,parrot      ,2,5,-1,0,0,567.650555,567.650555,570.148705,0,47,47,47,1,48,3,2,satellite_dish,parrot      ,html/resources/sequences_IDs/A/10_satellite_dish.jpg,html/resources/sequences_IDs/B/05_parrot.jpg,10,5,4,2,2,1,8,4,0,15,,,,,,,,,,,,,,,,,,,,
,,,,,15,2020-07-01_10h32.45.330,retriever_ti,2020.1.3,Win32,60,Chrome,1920,1080,,,,,,,,,,,,,,,,,1,,,,,,,,,,,,,,,,,,,,,,,,,,,571.249815,49,right,0.686365,satellite_dish,3,10,-2,0,3,571.283165,571.283165,573.782025,0,48,48,48,1,49,5,3,clownfish     ,satellite_dish,html/resources/sequences_IDs/A/04_clownfish.jpg,html/resources/sequences_IDs/A/10_satellite_dish.jpg,4,10,2,1,4,2,3,8,0,15,,,,,,,,,,,,,,,,,,,,
,,,,,15,2020-07-01_10h32.45.330,retriever_ti,2020.1.3,Win32,60,Chrome,1920,1080,,,,,,,,,,,,,,,,,1,,,,,,,,,,,,,,,,,,,,,,,,,,,574.382465,50,right,0.879725,redfox      ,4,1,-2,0,3,574.40094,574.40094,576.899315,0,49,49,49,1,50,6,4,phone       ,redfox      ,html/resources/sequences_IDs/B/09_phone.jpg,html/resources/sequences_IDs/B/01_redfox.jpg,9,1,4,2,1,1,7,1,0,15,,,,,,,,,,,,,,,,,,,,
,,,,,15,2020-07-01_10h32.45.330,retriever_ti,2020.1.3,Win32,60,Chrome,1920,1080,,,,,,,,,,,,,,,,,1,,,,,,,,,,,,,,,,,,,,,,,,,,,577.51663,51,right,1.410555,dress         ,7,7,1,1,1,577.550085,577.550085,580.050425,0,50,50,50,1,51,6,7,phone       ,dress         ,html/resources/sequences_IDs/B/09_phone.jpg,html/resources/sequences_IDs/A/07_dress.jpg,9,7,4,2,3,2,7,6,0,15,,,,,,,,,,,,,,,,,,,,
,,,,,15,2020-07-01_10h32.45.330,retriever_ti,2020.1.3,Win32,60,Chrome,1920,1080,,,,,,,,,,,,,,,,,1,,,,,,,,,,,,,,,,,,,,,,,,,,,581.149945,52,right,1.072465,giraffe     ,8,3,6,1,3,581.184385,581.184385,583.683025,0,51,51,51,1,52,2,8,parrot      ,giraffe     ,html/resources/sequences_IDs/B/05_parrot.jpg,html/resources/sequences_IDs/B/03_giraffe.jpg,5,3,2,1,1,1,4,2,0,15,,,,,,,,,,,,,,,,,,,,
,,,,,15,2020-07-01_10h32.45.330,retriever_ti,2020.1.3,Win32,60,Chrome,1920,1080,,,,,,,,,,,,,,,,,1,,,,,,,,,,,,,,,,,,,,,,,,,,,584.300175,53,left,1.58018,clownfish     ,5,4,1,1,1,584.31664,584.31664,586.816685,0,52,52,52,1,53,5,4,clownfish     ,redfox      ,html/resources/sequences_IDs/A/04_clownfish.jpg,html/resources/sequences_IDs/B/01_redfox.jpg,4,1,2,1,1,1,3,1,0,15,,,,,,,,,,,,,,,,,,,,
,,,,,15,2020-07-01_10h32.45.330,retriever_ti,2020.1.3,Win32,60,Chrome,1920,1080,,,,,,,,,,,,,,,,,1,,,,,,,,,,,,,,,,,,,,,,,,,,,587.917015,54,right,1.1786,dress         ,7,7,1,1,1,587.950135,587.950135,590.450125,0,53,53,53,1,54,6,7,phone       ,dress         ,html/resources/sequences_IDs/B/09_phone.jpg,html/resources/sequences_IDs/A/07_dress.jpg,9,7,4,2,3,2,7,6,0,15,,,,,,,,,,,,,,,,,,,,
,,,,,15,2020-07-01_10h32.45.330,retriever_ti,2020.1.3,Win32,60,Chrome,1920,1080,,,,,,,,,,,,,,,,,1,,,,,,,,,,,,,,,,,,,,,,,,,,,591.55128,55,left,1.280825,giraffe     ,8,3,1,1,1,591.56749,591.56749,594.066545,0,54,54,54,1,55,8,7,giraffe     ,dress         ,html/resources/sequences_IDs/B/03_giraffe.jpg,html/resources/sequences_IDs/A/07_dress.jpg,3,7,1,1,3,2,2,6,0,15,,,,,,,,,,,,,,,,,,,,
,,,,,15,2020-07-01_10h32.45.330,retriever_ti,2020.1.3,Win32,60,Chrome,1920,1080,,,,,,,,,,,,,,,,,1,,,,,,,,,,,,,,,,,,,,,,,,,,,595.168375,56,left,2.231095,satellite_dish,3,10,1,1,1,595.201485,595.201485,597.700585,0,55,55,55,1,56,3,2,satellite_dish,parrot      ,html/resources/sequences_IDs/A/10_satellite_dish.jpg,html/resources/sequences_IDs/B/05_parrot.jpg,10,5,4,2,2,1,8,4,0,15,,,,,,,,,,,,,,,,,,,,
,,,,,15,2020-07-01_10h32.45.330,retriever_ti,2020.1.3,Win32,60,Chrome,1920,1080,,,,,,,,,,,,,,,,,1,,,,,,,,,,,,,,,,,,,,,,,,,,,598.80063,57,right,0.574645,satellite_dish,3,10,-1,0,0,598.81781,598.81781,601.31665,0,56,56,56,1,57,4,3,redfox      ,satellite_dish,html/resources/sequences_IDs/B/01_redfox.jpg,html/resources/sequences_IDs/A/10_satellite_dish.jpg,1,10,1,1,4,2,1,8,0,15,,,,,,,,,,,,,,,,,,,,
,,,,,15,2020-07-01_10h32.45.330,retriever_ti,2020.1.3,Win32,60,Chrome,1920,1080,,,,,,,,,,,,,,,,,1,,,,,,,,,,,,,,,,,,,,,,,,,,,602.417745,58,left,1.19788,parrot      ,2,5,-5,0,3,602.43446,602.43446,604.933595,0,57,57,57,1,58,2,7,parrot      ,dress         ,html/resources/sequences_IDs/B/05_parrot.jpg,html/resources/sequences_IDs/A/07_dress.jpg,5,7,2,1,3,2,4,6,0,15,,,,,,,,,,,,,,,,,,,,
,,,,,15,2020-07-01_10h32.45.330,retriever_ti,2020.1.3,Win32,60,Chrome,1920,1080,,,,,,,,,,,,,,,,,1,,,,,,,,,,,,,,,,,,,,,,,,,,,605.534405,59,right,0.888815,clownfish     ,5,4,-1,0,0,605.5677,605.5677,608.067405,0,58,58,58,1,59,6,5,phone       ,clownfish     ,html/resources/sequences_IDs/B/09_phone.jpg,html/resources/sequences_IDs/A/04_clownfish.jpg,9,4,4,2,2,1,7,3,0,15,,,,,,,,,,,,,,,,,,,,
,,,,,15,2020-07-01_10h32.45.330,retriever_ti,2020.1.3,Win32,60,Chrome,1920,1080,,,,,,,,,,,,,,,,,1,,,,,,,,,,,,,,,,,,,,,,,,,,,609.16756,60,right,1.11126,scarf         ,1,6,-7,0,3,609.20172,609.20172,611.70141,0,59,59,59,1,60,8,1,giraffe     ,scarf         ,html/resources/sequences_IDs/B/03_giraffe.jpg,html/resources/sequences_IDs/A/06_scarf.jpg,3,6,1,1,3,2,2,5,0,15,,,,,,,,,,,,,,,,,,,,
,,,,,15,2020-07-01_10h32.45.330,retriever_ti,2020.1.3,Win32,60,Chrome,1920,1080,,,,,,,,,,,,,,,,,1,,,,,,,,,,,,,,,,,,,,,,,,,,,612.31794,61,left,1.041055,satellite_dish,3,10,-3,0,3,612.35152,612.35152,614.85066,0,60,60,60,1,61,3,6,satellite_dish,phone       ,html/resources/sequences_IDs/A/10_satellite_dish.jpg,html/resources/sequences_IDs/B/09_phone.jpg,10,9,4,2,4,2,8,7,0,15,,,,,,,,,,,,,,,,,,,,
,,,,,15,2020-07-01_10h32.45.330,retriever_ti,2020.1.3,Win32,60,Chrome,1920,1080,,,,,,,,,,,,,,,,,1,,,,,,,,,,,,,,,,,,,,,,,,,,,615.45289,62,right,1.02758,clownfish     ,5,4,2,1,3,615.46911,615.46911,617.967575,0,61,61,61,1,62,3,5,satellite_dish,clownfish     ,html/resources/sequences_IDs/A/10_satellite_dish.jpg,html/resources/sequences_IDs/A/04_clownfish.jpg,10,4,4,2,2,1,8,3,0,15,,,,,,,,,,,,,,,,,,,,
,,,,,15,2020-07-01_10h32.45.330,retriever_ti,2020.1.3,Win32,60,Chrome,1920,1080,,,,,,,,,,,,,,,,,1,,,,,,,,,,,,,,,,,,,,,,,,,,,618.5854,63,left,0.99773,scarf         ,1,6,-6,0,3,618.60253,618.60253,621.101025,0,62,62,62,1,63,1,7,scarf         ,dress         ,html/resources/sequences_IDs/A/06_scarf.jpg,html/resources/sequences_IDs/A/07_dress.jpg,6,7,3,2,3,2,5,6,0,15,,,,,,,,,,,,,,,,,,,,
,,,,,15,2020-07-01_10h32.45.330,retriever_ti,2020.1.3,Win32,60,Chrome,1920,1080,,,,,,,,,,,,,,,,,1,,,,,,,,,,,,,,,,,,,,,,,,,,,621.70147,64,left,1.296225,satellite_dish,3,10,-1,0,0,621.736515,621.736515,624.23441,0,63,63,63,1,64,3,4,satellite_dish,redfox      ,html/resources/sequences_IDs/A/10_satellite_dish.jpg,html/resources/sequences_IDs/B/01_redfox.jpg,10,1,4,2,1,1,8,1,0,15,,,,,,,,,,,,,,,,,,,,
,,,,,15,2020-07-01_10h32.45.330,retriever_ti,2020.1.3,Win32,60,Chrome,1920,1080,,,,,,,,,,,,,,,,,1,,,,,,,,,,,,,,,,,,,,,,,,,,,625.335885,65,left,1.223335,clownfish     ,5,4,-2,0,3,625.369115,625.369115,627.86785,0,64,64,64,1,65,5,7,clownfish     ,dress         ,html/resources/sequences_IDs/A/04_clownfish.jpg,html/resources/sequences_IDs/A/07_dress.jpg,4,7,2,1,3,2,3,6,0,15,,,,,,,,,,,,,,,,,,,,
,,,,,15,2020-07-01_10h32.45.330,retriever_ti,2020.1.3,Win32,60,Chrome,1920,1080,,,,,,,,,,,,,,,,,1,,,,,,,,,,,,,,,,,,,,,,,,,,,628.46872,66,NaN,NaN,No_response,NaN,NaN,NaN,2,2,628.502365,628.502365,631.001475,0,65,65,65,1,66,4,5,redfox      ,clownfish     ,html/resources/sequences_IDs/B/01_redfox.jpg,html/resources/sequences_IDs/A/04_clownfish.jpg,1,4,1,1,2,1,1,3,1,15,,,,,,,,,,,,,,,,,,,,
,,,,,15,2020-07-01_10h32.45.330,retriever_ti,2020.1.3,Win32,60,Chrome,1920,1080,,,,,,,,,,,,,,,,,1,,,,,,,,,,,,,,,,,,,,,,,,,,,632.102365,67,left,1.03314,scarf         ,1,6,-1,0,0,632.135585,632.135585,634.635505,0,66,66,66,1,67,1,2,scarf         ,parrot      ,html/resources/sequences_IDs/A/06_scarf.jpg,html/resources/sequences_IDs/B/05_parrot.jpg,6,5,3,2,2,1,5,4,0,15,,,,,,,,,,,,,,,,,,,,
,,,,,15,2020-07-01_10h32.45.330,retriever_ti,2020.1.3,Win32,60,Chrome,1920,1080,,,,,,,,,,,,,,,,,1,,,,,,,,,,,,,,,,,,,,,,,,,,,635.73546,68,right,0.98281,redfox      ,4,1,1,1,1,635.75355,635.75355,638.25206,0,67,67,67,1,68,3,4,satellite_dish,redfox      ,html/resources/sequences_IDs/A/10_satellite_dish.jpg,html/resources/sequences_IDs/B/01_redfox.jpg,10,1,4,2,1,1,8,1,0,15,,,,,,,,,,,,,,,,,,,,
,,,,,15,2020-07-01_10h32.45.330,retriever_ti,2020.1.3,Win32,60,Chrome,1920,1080,,,,,,,,,,,,,,,,,1,,,,,,,,,,,,,,,,,,,,,,,,,,,639.353095,69,right,0.720405,parrot      ,2,5,-5,0,3,639.36928,639.36928,641.86898,0,68,68,68,1,69,7,2,dress         ,parrot      ,html/resources/sequences_IDs/A/07_dress.jpg,html/resources/sequences_IDs/B/05_parrot.jpg,7,5,3,2,2,1,6,4,0,15,,,,,,,,,,,,,,,,,,,,
,,,,,15,2020-07-01_10h32.45.330,retriever_ti,2020.1.3,Win32,60,Chrome,1920,1080,,,,,,,,,,,,,,,,,1,,,,,,,,,,,,,,,,,,,,,,,,,,,642.470385,70,right,1.37014,scarf         ,1,6,-1,0,0,642.5032,642.5032,645.002055,0,69,69,69,1,70,2,1,parrot      ,scarf         ,html/resources/sequences_IDs/B/05_parrot.jpg,html/resources/sequences_IDs/A/06_scarf.jpg,5,6,2,1,3,2,4,5,0,15,,,,,,,,,,,,,,,,,,,,
,,,,,15,2020-07-01_10h32.45.330,retriever_ti,2020.1.3,Win32,60,Chrome,1920,1080,,,,,,,,,,,,,,,,,1,,,,,,,,,,,,,,,,,,,,,,,,,,,646.10268,71,left,0.586545,clownfish     ,5,4,1,1,1,646.11975,646.11975,648.62005,0,70,70,70,1,71,5,4,clownfish     ,redfox      ,html/resources/sequences_IDs/A/04_clownfish.jpg,html/resources/sequences_IDs/B/01_redfox.jpg,4,1,2,1,1,1,3,1,0,15,,,,,,,,,,,,,,,,,,,,
,,,,,15,2020-07-01_10h32.45.330,retriever_ti,2020.1.3,Win32,60,Chrome,1920,1080,,,,,,,,,,,,,,,,,1,,,,,,,,,,,,,,,,,,,,,,,,,,,649.719425,72,left,1.23143,giraffe     ,8,3,5,1,3,649.73668,649.73668,652.236155,0,71,71,71,1,72,8,3,giraffe     ,satellite_dish,html/resources/sequences_IDs/B/03_giraffe.jpg,html/resources/sequences_IDs/A/10_satellite_dish.jpg,3,10,1,1,4,2,2,8,0,15,,,,,,,,,,,,,,,,,,,,
,,,,,15,2020-07-01_10h32.45.330,retriever_ti,2020.1.3,Win32,60,Chrome,1920,1080,,,,,,,,,,,,,,,,,1,,,,,,,,,,,,,,,,,,,,,,,,,,,652.853085,73,left,0.9121,clownfish     ,5,4,-1,0,0,652.88818,652.88818,655.386565,0,72,72,72,1,73,5,6,clownfish     ,phone       ,html/resources/sequences_IDs/A/04_clownfish.jpg,html/resources/sequences_IDs/B/09_phone.jpg,4,9,2,1,4,2,3,7,0,15,,,,,,,,,,,,,,,,,,,,
,,,,,15,2020-07-01_10h32.45.330,retriever_ti,2020.1.3,Win32,60,Chrome,1920,1080,,,,,,,,,,,,,,,,,1,,,,,,,,,,,,,,,,,,,,,,,,,,,656.48634,74,right,0.84788,giraffe     ,8,3,1,1,1,656.504755,656.504755,659.003295,0,73,73,73,1,74,7,8,dress         ,giraffe     ,html/resources/sequences_IDs/A/07_dress.jpg,html/resources/sequences_IDs/B/03_giraffe.jpg,7,3,3,2,1,1,6,2,0,15,,,,,,,,,,,,,,,,,,,,
,,,,,15,2020-07-01_10h32.45.330,retriever_ti,2020.1.3,Win32,60,Chrome,1920,1080,,,,,,,,,,,,,,,,,1,,,,,,,,,,,,,,,,,,,,,,,,,,,660.103455,75,left,1.799625,parrot      ,2,5,-1,0,0,660.12067,660.12067,662.619695,0,74,74,74,1,75,2,3,parrot      ,satellite_dish,html/resources/sequences_IDs/B/05_parrot.jpg,html/resources/sequences_IDs/A/10_satellite_dish.jpg,5,10,2,1,4,2,4,8,0,15,,,,,,,,,,,,,,,,,,,,
,,,,,15,2020-07-01_10h32.45.330,retriever_ti,2020.1.3,Win32,60,Chrome,1920,1080,,,,,,,,,,,,,,,,,1,,,,,,,,,,,,,,,,,,,,,,,,,,,663.72111,76,left,1.695335,dress         ,7,7,1,1,1,663.73725,663.73725,666.236215,0,75,75,75,1,76,7,6,dress         ,phone       ,html/resources/sequences_IDs/A/07_dress.jpg,html/resources/sequences_IDs/B/09_phone.jpg,7,9,3,2,4,2,6,7,0,15,,,,,,,,,,,,,,,,,,,,
,,,,,15,2020-07-01_10h32.45.330,retriever_ti,2020.1.3,Win32,60,Chrome,1920,1080,,,,,,,,,,,,,,,,,1,,,,,,,,,,,,,,,,,,,,,,,,,,,667.3372,77,left,1.862265,phone       ,6,9,4,1,3,667.354495,667.354495,669.853845,0,76,76,76,1,77,6,2,phone       ,parrot      ,html/resources/sequences_IDs/B/09_phone.jpg,html/resources/sequences_IDs/B/05_parrot.jpg,9,5,4,2,2,1,7,4,0,15,,,,,,,,,,,,,,,,,,,,
,,,,,15,2020-07-01_10h32.45.330,retriever_ti,2020.1.3,Win32,60,Chrome,1920,1080,,,,,,,,,,,,,,,,,,,,,,,,,,,,,,,,,,,,,0,7.906845,,,,,,,,,,,,,,,,,,,,,,,,,,,,,,,,,,,,,,,,,0,0,0,0,1,,,,,,,,,,,,,,,
,,,,,15,2020-07-01_10h32.45.330,retriever_ti,2020.1.3,Win32,60,Chrome,1920,1080,,,,,,,,,,,,,,,,,2,,,,,,,,,,,,,,,,,,,,,,,,,,,699.40099,78,left,1.09733,dress         ,7,7,6,1,3,699.423155,699.423155,701.921495,0,0,0,0,1,78,7,1,dress         ,scarf         ,html/resources/sequences_IDs/A/07_dress.jpg,html/resources/sequences_IDs/A/06_scarf.jpg,7,6,3,2,3,2,6,5,0,15,,,,,,,,,,,,,,,,,,,,
,,,,,15,2020-07-01_10h32.45.330,retriever_ti,2020.1.3,Win32,60,Chrome,1920,1080,,,,,,,,,,,,,,,,,2,,,,,,,,,,,,,,,,,,,,,,,,,,,702.53875,79,right,1.628885,redfox      ,4,1,-2,0,3,702.55572,702.55572,705.056435,0,1,1,1,1,79,6,4,phone       ,redfox      ,html/resources/sequences_IDs/B/09_phone.jpg,html/resources/sequences_IDs/B/01_redfox.jpg,9,1,4,2,1,1,7,1,0,15,,,,,,,,,,,,,,,,,,,,
,,,,,15,2020-07-01_10h32.45.330,retriever_ti,2020.1.3,Win32,60,Chrome,1920,1080,,,,,,,,,,,,,,,,,2,,,,,,,,,,,,,,,,,,,,,,,,,,,705.67343,80,right,0.919935,giraffe     ,8,3,6,1,3,705.705585,705.705585,708.20508,0,2,2,2,1,80,2,8,parrot      ,giraffe     ,html/resources/sequences_IDs/B/05_parrot.jpg,html/resources/sequences_IDs/B/03_giraffe.jpg,5,3,2,1,1,1,4,2,0,15,,,,,,,,,,,,,,,,,,,,
,,,,,15,2020-07-01_10h32.45.330,retriever_ti,2020.1.3,Win32,60,Chrome,1920,1080,,,,,,,,,,,,,,,,,2,,,,,,,,,,,,,,,,,,,,,,,,,,,708.82224,81,right,0.84161,giraffe     ,8,3,1,1,1,708.839255,708.839255,711.33838,0,3,3,3,1,81,7,8,dress         ,giraffe     ,html/resources/sequences_IDs/A/07_dress.jpg,html/resources/sequences_IDs/B/03_giraffe.jpg,7,3,3,2,1,1,6,2,0,15,,,,,,,,,,,,,,,,,,,,
,,,,,15,2020-07-01_10h32.45.330,retriever_ti,2020.1.3,Win32,60,Chrome,1920,1080,,,,,,,,,,,,,,,,,2,,,,,,,,,,,,,,,,,,,,,,,,,,,712.439135,82,left,1.583825,phone       ,6,9,1,1,1,712.472475,712.472475,714.97195,0,4,4,4,1,82,6,5,phone       ,clownfish     ,html/resources/sequences_IDs/B/09_phone.jpg,html/resources/sequences_IDs/A/04_clownfish.jpg,9,4,4,2,2,1,7,3,0,15,,,,,,,,,,,,,,,,,,,,
,,,,,15,2020-07-01_10h32.45.330,retriever_ti,2020.1.3,Win32,60,Chrome,1920,1080,,,,,,,,,,,,,,,,,2,,,,,,,,,,,,,,,,,,,,,,,,,,,716.07249,83,right,0.774935,phone       ,6,9,1,1,1,716.08955,716.08955,718.588865,0,5,5,5,1,83,5,6,clownfish     ,phone       ,html/resources/sequences_IDs/A/04_clownfish.jpg,html/resources/sequences_IDs/B/09_phone.jpg,4,9,2,1,4,2,3,7,0,15,,,,,,,,,,,,,,,,,,,,
,,,,,15,2020-07-01_10h32.45.330,retriever_ti,2020.1.3,Win32,60,Chrome,1920,1080,,,,,,,,,,,,,,,,,2,,,,,,,,,,,,,,,,,,,,,,,,,,,719.68975,84,right,1.292895,dress         ,7,7,3,1,3,719.723975,719.723975,722.22308,0,6,6,6,1,84,4,7,redfox      ,dress         ,html/resources/sequences_IDs/B/01_redfox.jpg,html/resources/sequences_IDs/A/07_dress.jpg,1,7,1,1,3,2,1,6,0,15,,,,,,,,,,,,,,,,,,,,
,,,,,15,2020-07-01_10h32.45.330,retriever_ti,2020.1.3,Win32,60,Chrome,1920,1080,,,,,,,,,,,,,,,,,2,,,,,,,,,,,,,,,,,,,,,,,,,,,722.823735,85,right,1.09629,scarf         ,1,6,-1,0,0,722.856345,722.856345,725.35638,0,7,7,7,1,85,2,1,parrot      ,scarf         ,html/resources/sequences_IDs/B/05_parrot.jpg,html/resources/sequences_IDs/A/06_scarf.jpg,5,6,2,1,3,2,4,5,0,15,,,,,,,,,,,,,,,,,,,,
,,,,,15,2020-07-01_10h32.45.330,retriever_ti,2020.1.3,Win32,60,Chrome,1920,1080,,,,,,,,,,,,,,,,,2,,,,,,,,,,,,,,,,,,,,,,,,,,,726.458035,86,right,1.173265,giraffe     ,8,3,5,1,3,726.49134,726.49134,728.9891,0,8,8,8,1,86,3,8,satellite_dish,giraffe     ,html/resources/sequences_IDs/A/10_satellite_dish.jpg,html/resources/sequences_IDs/B/03_giraffe.jpg,10,3,4,2,1,1,8,2,0,15,,,,,,,,,,,,,,,,,,,,
,,,,,15,2020-07-01_10h32.45.330,retriever_ti,2020.1.3,Win32,60,Chrome,1920,1080,,,,,,,,,,,,,,,,,2,,,,,,,,,,,,,,,,,,,,,,,,,,,729.59095,87,right,1.219825,redfox      ,4,1,-1,0,0,729.60707,729.60707,732.10622,0,9,9,9,1,87,5,4,clownfish     ,redfox      ,html/resources/sequences_IDs/A/04_clownfish.jpg,html/resources/sequences_IDs/B/01_redfox.jpg,4,1,2,1,1,1,3,1,0,15,,,,,,,,,,,,,,,,,,,,
,,,,,15,2020-07-01_10h32.45.330,retriever_ti,2020.1.3,Win32,60,Chrome,1920,1080,,,,,,,,,,,,,,,,,2,,,,,,,,,,,,,,,,,,,,,,,,,,,733.207015,88,left,1.02461,giraffe     ,8,3,1,1,1,733.240185,733.240185,735.740015,0,10,10,10,1,88,8,7,giraffe     ,dress         ,html/resources/sequences_IDs/B/03_giraffe.jpg,html/resources/sequences_IDs/A/07_dress.jpg,3,7,1,1,3,2,2,6,0,15,,,,,,,,,,,,,,,,,,,,
,,,,,15,2020-07-01_10h32.45.330,retriever_ti,2020.1.3,Win32,60,Chrome,1920,1080,,,,,,,,,,,,,,,,,2,,,,,,,,,,,,,,,,,,,,,,,,,,,736.840795,89,left,0.91993,phone       ,6,9,1,1,1,736.874035,736.874035,739.37289,0,11,11,11,1,89,6,5,phone       ,clownfish     ,html/resources/sequences_IDs/B/09_phone.jpg,html/resources/sequences_IDs/A/04_clownfish.jpg,9,4,4,2,2,1,7,3,0,15,,,,,,,,,,,,,,,,,,,,
,,,,,15,2020-07-01_10h32.45.330,retriever_ti,2020.1.3,Win32,60,Chrome,1920,1080,,,,,,,,,,,,,,,,,2,,,,,,,,,,,,,,,,,,,,,,,,,,,740.47467,90,right,0.902475,phone       ,6,9,5,1,3,740.49082,740.49082,742.99027,0,12,12,12,1,90,1,6,scarf         ,phone       ,html/resources/sequences_IDs/A/06_scarf.jpg,html/resources/sequences_IDs/B/09_phone.jpg,6,9,3,2,4,2,5,7,0,15,,,,,,,,,,,,,,,,,,,,
,,,,,15,2020-07-01_10h32.45.330,retriever_ti,2020.1.3,Win32,60,Chrome,1920,1080,,,,,,,,,,,,,,,,,2,,,,,,,,,,,,,,,,,,,,,,,,,,,743.608045,91,left,1.534815,redfox      ,4,1,-1,0,0,743.64236,743.64236,746.141645,0,13,13,13,1,91,4,5,redfox      ,clownfish     ,html/resources/sequences_IDs/B/01_redfox.jpg,html/resources/sequences_IDs/A/04_clownfish.jpg,1,4,1,1,2,1,1,3,0,15,,,,,,,,,,,,,,,,,,,,
,,,,,15,2020-07-01_10h32.45.330,retriever_ti,2020.1.3,Win32,60,Chrome,1920,1080,,,,,,,,,,,,,,,,,2,,,,,,,,,,,,,,,,,,,,,,,,,,,747.24149,92,left,1.1108,giraffe     ,8,3,4,1,3,747.257725,747.257725,749.7575,0,14,14,14,1,92,8,4,giraffe     ,redfox      ,html/resources/sequences_IDs/B/03_giraffe.jpg,html/resources/sequences_IDs/B/01_redfox.jpg,3,1,1,1,1,1,2,1,0,15,,,,,,,,,,,,,,,,,,,,
,,,,,15,2020-07-01_10h32.45.330,retriever_ti,2020.1.3,Win32,60,Chrome,1920,1080,,,,,,,,,,,,,,,,,2,,,,,,,,,,,,,,,,,,,,,,,,,,,750.37494,93,right,1.3293,giraffe     ,8,3,3,1,3,750.391055,750.391055,752.89034,0,15,15,15,1,93,5,8,clownfish     ,giraffe     ,html/resources/sequences_IDs/A/04_clownfish.jpg,html/resources/sequences_IDs/B/03_giraffe.jpg,4,3,2,1,1,1,3,2,0,15,,,,,,,,,,,,,,,,,,,,
,,,,,15,2020-07-01_10h32.45.330,retriever_ti,2020.1.3,Win32,60,Chrome,1920,1080,,,,,,,,,,,,,,,,,2,,,,,,,,,,,,,,,,,,,,,,,,,,,753.49121,94,right,0.88698,phone       ,6,9,-1,0,1,753.524355,753.524355,756.023615,0,16,16,16,1,94,7,6,dress         ,phone       ,html/resources/sequences_IDs/A/07_dress.jpg,html/resources/sequences_IDs/B/09_phone.jpg,7,9,3,2,4,2,6,7,1,15,,,,,,,,,,,,,,,,,,,,
,,,,,15,2020-07-01_10h32.45.330,retriever_ti,2020.1.3,Win32,60,Chrome,1920,1080,,,,,,,,,,,,,,,,,2,,,,,,,,,,,,,,,,,,,,,,,,,,,757.12484,95,left,1.22162,satellite_dish,3,10,-1,0,0,757.141225,757.141225,759.64095,0,17,17,17,1,95,3,4,satellite_dish,redfox      ,html/resources/sequences_IDs/A/10_satellite_dish.jpg,html/resources/sequences_IDs/B/01_redfox.jpg,10,1,4,2,1,1,8,1,0,15,,,,,,,,,,,,,,,,,,,,
,,,,,15,2020-07-01_10h32.45.330,retriever_ti,2020.1.3,Win32,60,Chrome,1920,1080,,,,,,,,,,,,,,,,,2,,,,,,,,,,,,,,,,,,,,,,,,,,,760.74149,96,right,1.02543,phone       ,6,9,-1,0,0,760.77513,760.77513,763.27392,0,18,18,18,1,96,7,6,dress         ,phone       ,html/resources/sequences_IDs/A/07_dress.jpg,html/resources/sequences_IDs/B/09_phone.jpg,7,9,3,2,4,2,6,7,0,15,,,,,,,,,,,,,,,,,,,,
,,,,,15,2020-07-01_10h32.45.330,retriever_ti,2020.1.3,Win32,60,Chrome,1920,1080,,,,,,,,,,,,,,,,,2,,,,,,,,,,,,,,,,,,,,,,,,,,,764.375705,97,right,0.887535,scarf         ,1,6,-2,0,3,764.39293,764.39293,766.89152,0,19,19,19,1,97,3,1,satellite_dish,scarf         ,html/resources/sequences_IDs/A/10_satellite_dish.jpg,html/resources/sequences_IDs/A/06_scarf.jpg,10,6,4,2,3,2,8,5,0,15,,,,,,,,,,,,,,,,,,,,
,,,,,15,2020-07-01_10h32.45.330,retriever_ti,2020.1.3,Win32,60,Chrome,1920,1080,,,,,,,,,,,,,,,,,2,,,,,,,,,,,,,,,,,,,,,,,,,,,767.49236,98,right,0.97982,dress         ,7,7,4,1,3,767.52502,767.52502,770.02447,0,20,20,20,1,98,3,7,satellite_dish,dress         ,html/resources/sequences_IDs/A/10_satellite_dish.jpg,html/resources/sequences_IDs/A/07_dress.jpg,10,7,4,2,3,2,8,6,0,15,,,,,,,,,,,,,,,,,,,,
,,,,,15,2020-07-01_10h32.45.330,retriever_ti,2020.1.3,Win32,60,Chrome,1920,1080,,,,,,,,,,,,,,,,,2,,,,,,,,,,,,,,,,,,,,,,,,,,,770.626055,99,right,1.365965,satellite_dish,3,10,-5,0,3,770.642465,770.642465,773.141565,0,21,21,21,1,99,8,3,giraffe     ,satellite_dish,html/resources/sequences_IDs/B/03_giraffe.jpg,html/resources/sequences_IDs/A/10_satellite_dish.jpg,3,10,1,1,4,2,2,8,0,15,,,,,,,,,,,,,,,,,,,,
,,,,,15,2020-07-01_10h32.45.330,retriever_ti,2020.1.3,Win32,60,Chrome,1920,1080,,,,,,,,,,,,,,,,,2,,,,,,,,,,,,,,,,,,,,,,,,,,,773.758405,100,right,1.04672,giraffe     ,8,3,1,1,1,773.793665,773.793665,776.292235,0,22,22,22,1,100,7,8,dress         ,giraffe     ,html/resources/sequences_IDs/A/07_dress.jpg,html/resources/sequences_IDs/B/03_giraffe.jpg,7,3,3,2,1,1,6,2,0,15,,,,,,,,,,,,,,,,,,,,
,,,,,15,2020-07-01_10h32.45.330,retriever_ti,2020.1.3,Win32,60,Chrome,1920,1080,,,,,,,,,,,,,,,,,2,,,,,,,,,,,,,,,,,,,,,,,,,,,777.392445,101,right,1.791015,clownfish     ,5,4,-2,0,3,777.425805,777.425805,779.92552,0,23,23,23,1,101,7,5,dress         ,clownfish     ,html/resources/sequences_IDs/A/07_dress.jpg,html/resources/sequences_IDs/A/04_clownfish.jpg,7,4,3,2,2,1,6,3,0,15,,,,,,,,,,,,,,,,,,,,
,,,,,15,2020-07-01_10h32.45.330,retriever_ti,2020.1.3,Win32,60,Chrome,1920,1080,,,,,,,,,,,,,,,,,2,,,,,,,,,,,,,,,,,,,,,,,,,,,780.52598,102,right,1.513635,parrot      ,2,5,-4,0,3,780.55916,780.55916,783.058135,0,24,24,24,1,102,6,2,phone       ,parrot      ,html/resources/sequences_IDs/B/09_phone.jpg,html/resources/sequences_IDs/B/05_parrot.jpg,9,5,4,2,2,1,7,4,0,15,,,,,,,,,,,,,,,,,,,,
,,,,,15,2020-07-01_10h32.45.330,retriever_ti,2020.1.3,Win32,60,Chrome,1920,1080,,,,,,,,,,,,,,,,,2,,,,,,,,,,,,,,,,,,,,,,,,,,,783.66053,103,left,1.515715,scarf         ,1,6,-3,0,3,783.69275,783.69275,786.19283,0,25,25,25,1,103,1,4,scarf         ,redfox      ,html/resources/sequences_IDs/A/06_scarf.jpg,html/resources/sequences_IDs/B/01_redfox.jpg,6,1,3,2,1,1,5,1,0,15,,,,,,,,,,,,,,,,,,,,
,,,,,15,2020-07-01_10h32.45.330,retriever_ti,2020.1.3,Win32,60,Chrome,1920,1080,,,,,,,,,,,,,,,,,2,,,,,,,,,,,,,,,,,,,,,,,,,,,786.793585,104,left,0.958545,scarf         ,1,6,-2,0,3,786.82615,786.82615,789.32509,0,26,26,26,1,104,1,3,scarf         ,satellite_dish,html/resources/sequences_IDs/A/06_scarf.jpg,html/resources/sequences_IDs/A/10_satellite_dish.jpg,6,10,3,2,4,2,5,8,0,15,,,,,,,,,,,,,,,,,,,,
,,,,,15,2020-07-01_10h32.45.330,retriever_ti,2020.1.3,Win32,60,Chrome,1920,1080,,,,,,,,,,,,,,,,,2,,,,,,,,,,,,,,,,,,,,,,,,,,,789.926855,105,right,1.20775,dress         ,7,7,2,1,3,789.961105,789.961105,792.458655,0,27,27,27,1,105,5,7,clownfish     ,dress         ,html/resources/sequences_IDs/A/04_clownfish.jpg,html/resources/sequences_IDs/A/07_dress.jpg,4,7,2,1,3,2,3,6,0,15,,,,,,,,,,,,,,,,,,,,
,,,,,15,2020-07-01_10h32.45.330,retriever_ti,2020.1.3,Win32,60,Chrome,1920,1080,,,,,,,,,,,,,,,,,2,,,,,,,,,,,,,,,,,,,,,,,,,,,793.059665,106,right,1.0597,clownfish     ,5,4,1,1,0,793.09285,793.09285,795.59389,0,28,28,28,1,106,4,5,redfox      ,clownfish     ,html/resources/sequences_IDs/B/01_redfox.jpg,html/resources/sequences_IDs/A/04_clownfish.jpg,1,4,1,1,2,1,1,3,1,15,,,,,,,,,,,,,,,,,,,,
,,,,,15,2020-07-01_10h32.45.330,retriever_ti,2020.1.3,Win32,60,Chrome,1920,1080,,,,,,,,,,,,,,,,,2,,,,,,,,,,,,,,,,,,,,,,,,,,,796.6926,107,right,1.249215,phone       ,6,9,3,1,3,796.727035,796.727035,799.22715,0,29,29,29,1,107,3,6,satellite_dish,phone       ,html/resources/sequences_IDs/A/10_satellite_dish.jpg,html/resources/sequences_IDs/B/09_phone.jpg,10,9,4,2,4,2,8,7,0,15,,,,,,,,,,,,,,,,,,,,
,,,,,15,2020-07-01_10h32.45.330,retriever_ti,2020.1.3,Win32,60,Chrome,1920,1080,,,,,,,,,,,,,,,,,2,,,,,,,,,,,,,,,,,,,,,,,,,,,799.84328,108,right,1.07058,dress         ,7,7,5,1,3,799.87651,799.87651,802.375995,0,30,30,30,1,108,2,7,parrot      ,dress         ,html/resources/sequences_IDs/B/05_parrot.jpg,html/resources/sequences_IDs/A/07_dress.jpg,5,7,2,1,3,2,4,6,0,15,,,,,,,,,,,,,,,,,,,,
,,,,,15,2020-07-01_10h32.45.330,retriever_ti,2020.1.3,Win32,60,Chrome,1920,1080,,,,,,,,,,,,,,,,,2,,,,,,,,,,,,,,,,,,,,,,,,,,,802.993115,109,right,1.319525,redfox      ,4,1,2,1,3,803.01065,803.01065,805.50967,0,31,31,31,1,109,2,4,parrot      ,redfox      ,html/resources/sequences_IDs/B/05_parrot.jpg,html/resources/sequences_IDs/B/01_redfox.jpg,5,1,2,1,1,1,4,1,0,15,,,,,,,,,,,,,,,,,,,,
,,,,,15,2020-07-01_10h32.45.330,retriever_ti,2020.1.3,Win32,60,Chrome,1920,1080,,,,,,,,,,,,,,,,,2,,,,,,,,,,,,,,,,,,,,,,,,,,,806.11041,110,left,0.91343,redfox      ,4,1,1,1,1,806.126685,806.126685,808.62757,0,32,32,32,1,110,4,3,redfox      ,satellite_dish,html/resources/sequences_IDs/B/01_redfox.jpg,html/resources/sequences_IDs/A/10_satellite_dish.jpg,1,10,1,1,4,2,1,8,0,15,,,,,,,,,,,,,,,,,,,,
,,,,,15,2020-07-01_10h32.45.330,retriever_ti,2020.1.3,Win32,60,Chrome,1920,1080,,,,,,,,,,,,,,,,,2,,,,,,,,,,,,,,,,,,,,,,,,,,,809.72849,111,right,1.032225,satellite_dish,3,10,1,1,1,809.760165,809.760165,812.26025,0,33,33,33,1,111,2,3,parrot      ,satellite_dish,html/resources/sequences_IDs/B/05_parrot.jpg,html/resources/sequences_IDs/A/10_satellite_dish.jpg,5,10,2,1,4,2,4,8,0,15,,,,,,,,,,,,,,,,,,,,
,,,,,15,2020-07-01_10h32.45.330,retriever_ti,2020.1.3,Win32,60,Chrome,1920,1080,,,,,,,,,,,,,,,,,2,,,,,,,,,,,,,,,,,,,,,,,,,,,813.36097,112,right,1.19862,phone       ,6,9,-1,0,0,813.37811,813.37811,815.87714,0,34,34,34,1,112,7,6,dress         ,phone       ,html/resources/sequences_IDs/A/07_dress.jpg,html/resources/sequences_IDs/B/09_phone.jpg,7,9,3,2,4,2,6,7,0,15,,,,,,,,,,,,,,,,,,,,
,,,,,15,2020-07-01_10h32.45.330,retriever_ti,2020.1.3,Win32,60,Chrome,1920,1080,,,,,,,,,,,,,,,,,2,,,,,,,,,,,,,,,,,,,,,,,,,,,816.97777,113,left,0.91908,giraffe     ,8,3,7,1,3,816.99513,816.99513,819.493165,0,35,35,35,1,113,8,1,giraffe     ,scarf         ,html/resources/sequences_IDs/B/03_giraffe.jpg,html/resources/sequences_IDs/A/06_scarf.jpg,3,6,1,1,3,2,2,5,0,15,,,,,,,,,,,,,,,,,,,,
,,,,,15,2020-07-01_10h32.45.330,retriever_ti,2020.1.3,Win32,60,Chrome,1920,1080,,,,,,,,,,,,,,,,,2,,,,,,,,,,,,,,,,,,,,,,,,,,,820.09453,114,left,1.160905,satellite_dish,3,10,-1,0,0,820.12759,820.12759,822.627085,0,36,36,36,1,114,3,4,satellite_dish,redfox      ,html/resources/sequences_IDs/A/10_satellite_dish.jpg,html/resources/sequences_IDs/B/01_redfox.jpg,10,1,4,2,1,1,8,1,0,15,,,,,,,,,,,,,,,,,,,,
,,,,,15,2020-07-01_10h32.45.330,retriever_ti,2020.1.3,Win32,60,Chrome,1920,1080,,,,,,,,,,,,,,,,,2,,,,,,,,,,,,,,,,,,,,,,,,,,,823.72785,115,right,0.847505,satellite_dish,3,10,1,1,1,823.761105,823.761105,826.26142,0,37,37,37,1,115,2,3,parrot      ,satellite_dish,html/resources/sequences_IDs/B/05_parrot.jpg,html/resources/sequences_IDs/A/10_satellite_dish.jpg,5,10,2,1,4,2,4,8,0,15,,,,,,,,,,,,,,,,,,,,
,,,,,15,2020-07-01_10h32.45.330,retriever_ti,2020.1.3,Win32,60,Chrome,1920,1080,,,,,,,,,,,,,,,,,2,,,,,,,,,,,,,,,,,,,,,,,,,,,827.36082,116,right,0.85487,parrot      ,2,5,1,1,1,827.37784,827.37784,829.877755,0,38,38,38,1,116,1,2,scarf         ,parrot      ,html/resources/sequences_IDs/A/06_scarf.jpg,html/resources/sequences_IDs/B/05_parrot.jpg,6,5,3,2,2,1,5,4,0,15,,,,,,,,,,,,,,,,,,,,
,,,,,15,2020-07-01_10h32.45.330,retriever_ti,2020.1.3,Win32,60,Chrome,1920,1080,,,,,,,,,,,,,,,,,2,,,,,,,,,,,,,,,,,,,,,,,,,,,830.979025,117,right,0.670205,parrot      ,2,5,1,1,1,831.01144,831.01144,833.51056,0,39,39,39,1,117,1,2,scarf         ,parrot      ,html/resources/sequences_IDs/A/06_scarf.jpg,html/resources/sequences_IDs/B/05_parrot.jpg,6,5,3,2,2,1,5,4,0,15,,,,,,,,,,,,,,,,,,,,
,,,,,15,2020-07-01_10h32.45.330,retriever_ti,2020.1.3,Win32,60,Chrome,1920,1080,,,,,,,,,,,,,,,,,2,,,,,,,,,,,,,,,,,,,,,,,,,,,834.611115,118,left,0.859905,redfox      ,4,1,3,1,3,834.6448,834.6448,837.145775,0,40,40,40,1,118,4,1,redfox      ,scarf         ,html/resources/sequences_IDs/B/01_redfox.jpg,html/resources/sequences_IDs/A/06_scarf.jpg,1,6,1,1,3,2,1,5,0,15,,,,,,,,,,,,,,,,,,,,
,,,,,15,2020-07-01_10h32.45.330,retriever_ti,2020.1.3,Win32,60,Chrome,1920,1080,,,,,,,,,,,,,,,,,2,,,,,,,,,,,,,,,,,,,,,,,,,,,837.762085,119,right,1.037455,dress         ,7,7,6,1,3,837.795315,837.795315,840.29409,0,41,41,41,1,119,1,7,scarf         ,dress         ,html/resources/sequences_IDs/A/06_scarf.jpg,html/resources/sequences_IDs/A/07_dress.jpg,6,7,3,2,3,2,5,6,0,15,,,,,,,,,,,,,,,,,,,,
,,,,,15,2020-07-01_10h32.45.330,retriever_ti,2020.1.3,Win32,60,Chrome,1920,1080,,,,,,,,,,,,,,,,,2,,,,,,,,,,,,,,,,,,,,,,,,,,,840.89493,120,left,0.838745,giraffe     ,8,3,3,1,3,840.91362,840.91362,843.41105,0,42,42,42,1,120,8,5,giraffe     ,clownfish     ,html/resources/sequences_IDs/B/03_giraffe.jpg,html/resources/sequences_IDs/A/04_clownfish.jpg,3,4,1,1,2,1,2,3,0,15,,,,,,,,,,,,,,,,,,,,
,,,,,15,2020-07-01_10h32.45.330,retriever_ti,2020.1.3,Win32,60,Chrome,1920,1080,,,,,,,,,,,,,,,,,2,,,,,,,,,,,,,,,,,,,,,,,,,,,844.011995,121,left,0.8755,parrot      ,2,5,1,1,0,844.029065,844.029065,846.528875,0,43,43,43,1,121,2,1,parrot      ,scarf         ,html/resources/sequences_IDs/B/05_parrot.jpg,html/resources/sequences_IDs/A/06_scarf.jpg,5,6,2,1,3,2,4,5,1,15,,,,,,,,,,,,,,,,,,,,
,,,,,15,2020-07-01_10h32.45.330,retriever_ti,2020.1.3,Win32,60,Chrome,1920,1080,,,,,,,,,,,,,,,,,2,,,,,,,,,,,,,,,,,,,,,,,,,,,847.6288,122,left,1.147505,satellite_dish,3,10,-2,0,3,847.645195,847.645195,850.14485,0,44,44,44,1,122,3,5,satellite_dish,clownfish     ,html/resources/sequences_IDs/A/10_satellite_dish.jpg,html/resources/sequences_IDs/A/04_clownfish.jpg,10,4,4,2,2,1,8,3,0,15,,,,,,,,,,,,,,,,,,,,
,,,,,15,2020-07-01_10h32.45.330,retriever_ti,2020.1.3,Win32,60,Chrome,1920,1080,,,,,,,,,,,,,,,,,2,,,,,,,,,,,,,,,,,,,,,,,,,,,850.762135,123,right,0.957095,phone       ,6,9,1,1,0,850.779445,850.779445,853.27838,0,45,45,45,1,123,5,6,clownfish     ,phone       ,html/resources/sequences_IDs/A/04_clownfish.jpg,html/resources/sequences_IDs/B/09_phone.jpg,4,9,2,1,4,2,3,7,1,15,,,,,,,,,,,,,,,,,,,,
,,,,,15,2020-07-01_10h32.45.330,retriever_ti,2020.1.3,Win32,60,Chrome,1920,1080,,,,,,,,,,,,,,,,,2,,,,,,,,,,,,,,,,,,,,,,,,,,,854.3793,124,right,1.17952,satellite_dish,3,10,-1,0,1,854.41271,854.41271,856.91258,0,46,46,46,1,124,4,3,redfox      ,satellite_dish,html/resources/sequences_IDs/B/01_redfox.jpg,html/resources/sequences_IDs/A/10_satellite_dish.jpg,1,10,1,1,4,2,1,8,1,15,,,,,,,,,,,,,,,,,,,,
,,,,,15,2020-07-01_10h32.45.330,retriever_ti,2020.1.3,Win32,60,Chrome,1920,1080,,,,,,,,,,,,,,,,,2,,,,,,,,,,,,,,,,,,,,,,,,,,,858.01253,125,right,1.01106,satellite_dish,3,10,-3,0,3,858.045745,858.045745,860.545325,0,47,47,47,1,125,6,3,phone       ,satellite_dish,html/resources/sequences_IDs/B/09_phone.jpg,html/resources/sequences_IDs/A/10_satellite_dish.jpg,9,10,4,2,4,2,7,8,0,15,,,,,,,,,,,,,,,,,,,,
,,,,,15,2020-07-01_10h32.45.330,retriever_ti,2020.1.3,Win32,60,Chrome,1920,1080,,,,,,,,,,,,,,,,,2,,,,,,,,,,,,,,,,,,,,,,,,,,,861.146365,126,right,1.03714,redfox      ,4,1,-1,0,0,861.17965,861.17965,863.680255,0,48,48,48,1,126,5,4,clownfish     ,redfox      ,html/resources/sequences_IDs/A/04_clownfish.jpg,html/resources/sequences_IDs/B/01_redfox.jpg,4,1,2,1,1,1,3,1,0,15,,,,,,,,,,,,,,,,,,,,
,,,,,15,2020-07-01_10h32.45.330,retriever_ti,2020.1.3,Win32,60,Chrome,1920,1080,,,,,,,,,,,,,,,,,2,,,,,,,,,,,,,,,,,,,,,,,,,,,864.77994,127,left,1.220215,dress         ,7,7,4,1,3,864.81293,864.81293,867.31305,0,49,49,49,1,127,7,3,dress         ,satellite_dish,html/resources/sequences_IDs/A/07_dress.jpg,html/resources/sequences_IDs/A/10_satellite_dish.jpg,7,10,3,2,4,2,6,8,0,15,,,,,,,,,,,,,,,,,,,,
,,,,,15,2020-07-01_10h32.45.330,retriever_ti,2020.1.3,Win32,60,Chrome,1920,1080,,,,,,,,,,,,,,,,,2,,,,,,,,,,,,,,,,,,,,,,,,,,,867.92992,128,left,1.12559,phone       ,6,9,5,1,3,867.963275,867.963275,870.46202,0,50,50,50,1,128,6,1,phone       ,scarf         ,html/resources/sequences_IDs/B/09_phone.jpg,html/resources/sequences_IDs/A/06_scarf.jpg,9,6,4,2,3,2,7,5,0,15,,,,,,,,,,,,,,,,,,,,
,,,,,15,2020-07-01_10h32.45.330,retriever_ti,2020.1.3,Win32,60,Chrome,1920,1080,,,,,,,,,,,,,,,,,2,,,,,,,,,,,,,,,,,,,,,,,,,,,871.06271,129,right,0.569295,dress         ,7,7,1,1,1,871.09697,871.09697,873.5957,0,51,51,51,1,129,6,7,phone       ,dress         ,html/resources/sequences_IDs/B/09_phone.jpg,html/resources/sequences_IDs/A/07_dress.jpg,9,7,4,2,3,2,7,6,0,15,,,,,,,,,,,,,,,,,,,,
,,,,,15,2020-07-01_10h32.45.330,retriever_ti,2020.1.3,Win32,60,Chrome,1920,1080,,,,,,,,,,,,,,,,,2,,,,,,,,,,,,,,,,,,,,,,,,,,,874.697435,130,left,1.399025,giraffe     ,8,3,1,1,1,874.71375,874.71375,877.21253,0,52,52,52,1,130,8,7,giraffe     ,dress         ,html/resources/sequences_IDs/B/03_giraffe.jpg,html/resources/sequences_IDs/A/07_dress.jpg,3,7,1,1,3,2,2,6,0,15,,,,,,,,,,,,,,,,,,,,
,,,,,15,2020-07-01_10h32.45.330,retriever_ti,2020.1.3,Win32,60,Chrome,1920,1080,,,,,,,,,,,,,,,,,2,,,,,,,,,,,,,,,,,,,,,,,,,,,878.31393,131,right,2.25378,dress         ,7,7,1,1,1,878.347155,878.347155,880.84634,0,53,53,53,1,131,6,7,phone       ,dress         ,html/resources/sequences_IDs/B/09_phone.jpg,html/resources/sequences_IDs/A/07_dress.jpg,9,7,4,2,3,2,7,6,0,15,,,,,,,,,,,,,,,,,,,,
,,,,,15,2020-07-01_10h32.45.330,retriever_ti,2020.1.3,Win32,60,Chrome,1920,1080,,,,,,,,,,,,,,,,,2,,,,,,,,,,,,,,,,,,,,,,,,,,,881.94679,132,right,0.964365,giraffe     ,8,3,2,1,3,881.96384,881.96384,884.463905,0,54,54,54,1,132,6,8,phone       ,giraffe     ,html/resources/sequences_IDs/B/09_phone.jpg,html/resources/sequences_IDs/B/03_giraffe.jpg,9,3,4,2,1,1,7,2,0,15,,,,,,,,,,,,,,,,,,,,
,,,,,15,2020-07-01_10h32.45.330,retriever_ti,2020.1.3,Win32,60,Chrome,1920,1080,,,,,,,,,,,,,,,,,2,,,,,,,,,,,,,,,,,,,,,,,,,,,885.080855,133,left,0.952225,parrot      ,2,5,1,1,1,885.115425,885.115425,887.613415,0,55,55,55,1,133,2,1,parrot      ,scarf         ,html/resources/sequences_IDs/B/05_parrot.jpg,html/resources/sequences_IDs/A/06_scarf.jpg,5,6,2,1,3,2,4,5,0,15,,,,,,,,,,,,,,,,,,,,
,,,,,15,2020-07-01_10h32.45.330,retriever_ti,2020.1.3,Win32,60,Chrome,1920,1080,,,,,,,,,,,,,,,,,2,,,,,,,,,,,,,,,,,,,,,,,,,,,888.713995,134,right,1.34766,redfox      ,4,1,-3,0,3,888.748525,888.748525,891.246665,0,56,56,56,1,134,7,4,dress         ,redfox      ,html/resources/sequences_IDs/A/07_dress.jpg,html/resources/sequences_IDs/B/01_redfox.jpg,7,1,3,2,1,1,6,1,0,15,,,,,,,,,,,,,,,,,,,,
,,,,,15,2020-07-01_10h32.45.330,retriever_ti,2020.1.3,Win32,60,Chrome,1920,1080,,,,,,,,,,,,,,,,,2,,,,,,,,,,,,,,,,,,,,,,,,,,,891.86524,135,left,0.94346,giraffe     ,8,3,6,1,3,891.897345,891.897345,894.397115,0,57,57,57,1,135,8,2,giraffe     ,parrot      ,html/resources/sequences_IDs/B/03_giraffe.jpg,html/resources/sequences_IDs/B/05_parrot.jpg,3,5,1,1,2,1,2,4,0,15,,,,,,,,,,,,,,,,,,,,
,,,,,15,2020-07-01_10h32.45.330,retriever_ti,2020.1.3,Win32,60,Chrome,1920,1080,,,,,,,,,,,,,,,,,2,,,,,,,,,,,,,,,,,,,,,,,,,,,895.014235,136,right,0.672645,satellite_dish,3,10,-2,0,3,895.031765,895.031765,897.53045,0,58,58,58,1,136,5,3,clownfish     ,satellite_dish,html/resources/sequences_IDs/A/04_clownfish.jpg,html/resources/sequences_IDs/A/10_satellite_dish.jpg,4,10,2,1,4,2,3,8,0,15,,,,,,,,,,,,,,,,,,,,
,,,,,15,2020-07-01_10h32.45.330,retriever_ti,2020.1.3,Win32,60,Chrome,1920,1080,,,,,,,,,,,,,,,,,2,,,,,,,,,,,,,,,,,,,,,,,,,,,898.13124,137,right,0.93998,giraffe     ,8,3,7,1,3,898.16445,898.16445,900.66352,0,59,59,59,1,137,1,8,scarf         ,giraffe     ,html/resources/sequences_IDs/A/06_scarf.jpg,html/resources/sequences_IDs/B/03_giraffe.jpg,6,3,3,2,1,1,5,2,0,15,,,,,,,,,,,,,,,,,,,,
,,,,,15,2020-07-01_10h32.45.330,retriever_ti,2020.1.3,Win32,60,Chrome,1920,1080,,,,,,,,,,,,,,,,,2,,,,,,,,,,,,,,,,,,,,,,,,,,,901.264915,138,left,0.870525,satellite_dish,3,10,1,1,1,901.29803,901.29803,903.79766,0,60,60,60,1,138,3,2,satellite_dish,parrot      ,html/resources/sequences_IDs/A/10_satellite_dish.jpg,html/resources/sequences_IDs/B/05_parrot.jpg,10,5,4,2,2,1,8,4,0,15,,,,,,,,,,,,,,,,,,,,
,,,,,15,2020-07-01_10h32.45.330,retriever_ti,2020.1.3,Win32,60,Chrome,1920,1080,,,,,,,,,,,,,,,,,2,,,,,,,,,,,,,,,,,,,,,,,,,,,904.89729,139,NaN,NaN,No_response,NaN,NaN,NaN,2,2,904.9148,904.9148,907.415595,0,61,61,61,1,139,5,6,clownfish     ,phone       ,html/resources/sequences_IDs/A/04_clownfish.jpg,html/resources/sequences_IDs/B/09_phone.jpg,4,9,2,1,4,2,3,7,0,15,,,,,,,,,,,,,,,,,,,,
,,,,,15,2020-07-01_10h32.45.330,retriever_ti,2020.1.3,Win32,60,Chrome,1920,1080,,,,,,,,,,,,,,,,,2,,,,,,,,,,,,,,,,,,,,,,,,,,,908.51521,140,left,1.068945,giraffe     ,8,3,2,1,3,908.53307,908.53307,911.030955,0,62,62,62,1,140,8,6,giraffe     ,phone       ,html/resources/sequences_IDs/B/03_giraffe.jpg,html/resources/sequences_IDs/B/09_phone.jpg,3,9,1,1,4,2,2,7,0,15,,,,,,,,,,,,,,,,,,,,
,,,,,15,2020-07-01_10h32.45.330,retriever_ti,2020.1.3,Win32,60,Chrome,1920,1080,,,,,,,,,,,,,,,,,2,,,,,,,,,,,,,,,,,,,,,,,,,,,911.648345,141,right,0.686095,phone       ,6,9,2,1,3,911.66644,911.66644,914.165745,0,63,63,63,1,141,4,6,redfox      ,phone       ,html/resources/sequences_IDs/B/01_redfox.jpg,html/resources/sequences_IDs/B/09_phone.jpg,1,9,1,1,4,2,1,7,0,15,,,,,,,,,,,,,,,,,,,,
,,,,,15,2020-07-01_10h32.45.330,retriever_ti,2020.1.3,Win32,60,Chrome,1920,1080,,,,,,,,,,,,,,,,,2,,,,,,,,,,,,,,,,,,,,,,,,,,,914.78164,142,right,0.761485,parrot      ,2,5,-3,0,3,914.815245,914.815245,917.31422,0,64,64,64,1,142,5,2,clownfish     ,parrot      ,html/resources/sequences_IDs/A/04_clownfish.jpg,html/resources/sequences_IDs/B/05_parrot.jpg,4,5,2,1,2,1,3,4,0,15,,,,,,,,,,,,,,,,,,,,
,,,,,15,2020-07-01_10h32.45.330,retriever_ti,2020.1.3,Win32,60,Chrome,1920,1080,,,,,,,,,,,,,,,,,2,,,,,,,,,,,,,,,,,,,,,,,,,,,917.91513,143,left,0.688155,giraffe     ,8,3,1,1,0,917.9485,917.9485,920.448025,0,65,65,65,1,143,8,7,giraffe     ,dress         ,html/resources/sequences_IDs/B/03_giraffe.jpg,html/resources/sequences_IDs/A/07_dress.jpg,3,7,1,1,3,2,2,6,1,15,,,,,,,,,,,,,,,,,,,,
,,,,,15,2020-07-01_10h32.45.330,retriever_ti,2020.1.3,Win32,60,Chrome,1920,1080,,,,,,,,,,,,,,,,,2,,,,,,,,,,,,,,,,,,,,,,,,,,,921.54889,144,left,1.419915,dress         ,7,7,5,1,3,921.582255,921.582255,924.0829,0,66,66,66,1,144,7,2,dress         ,parrot      ,html/resources/sequences_IDs/A/07_dress.jpg,html/resources/sequences_IDs/B/05_parrot.jpg,7,5,3,2,2,1,6,4,0,15,,,,,,,,,,,,,,,,,,,,
,,,,,15,2020-07-01_10h32.45.330,retriever_ti,2020.1.3,Win32,60,Chrome,1920,1080,,,,,,,,,,,,,,,,,2,,,,,,,,,,,,,,,,,,,,,,,,,,,924.698835,145,left,1.37307,parrot      ,2,5,-3,0,3,924.71541,924.71541,927.215075,0,67,67,67,1,145,2,5,parrot      ,clownfish     ,html/resources/sequences_IDs/B/05_parrot.jpg,html/resources/sequences_IDs/A/04_clownfish.jpg,5,4,2,1,2,1,4,3,0,15,,,,,,,,,,,,,,,,,,,,
,,,,,15,2020-07-01_10h32.45.330,retriever_ti,2020.1.3,Win32,60,Chrome,1920,1080,,,,,,,,,,,,,,,,,2,,,,,,,,,,,,,,,,,,,,,,,,,,,927.832635,146,left,0.815655,clownfish     ,5,4,4,1,3,927.848855,927.848855,930.349015,0,68,68,68,1,146,5,1,clownfish     ,scarf         ,html/resources/sequences_IDs/A/04_clownfish.jpg,html/resources/sequences_IDs/A/06_scarf.jpg,4,6,2,1,3,2,3,5,0,15,,,,,,,,,,,,,,,,,,,,
,,,,,15,2020-07-01_10h32.45.330,retriever_ti,2020.1.3,Win32,60,Chrome,1920,1080,,,,,,,,,,,,,,,,,2,,,,,,,,,,,,,,,,,,,,,,,,,,,930.96528,147,right,0.719815,giraffe     ,8,3,4,1,3,931.00078,931.00078,933.49867,0,69,69,69,1,147,4,8,redfox      ,giraffe     ,html/resources/sequences_IDs/B/01_redfox.jpg,html/resources/sequences_IDs/B/03_giraffe.jpg,1,3,1,1,1,1,1,2,0,15,,,,,,,,,,,,,,,,,,,,
,,,,,15,2020-07-01_10h32.45.330,retriever_ti,2020.1.3,Win32,60,Chrome,1920,1080,,,,,,,,,,,,,,,,,2,,,,,,,,,,,,,,,,,,,,,,,,,,,934.11604,148,right,0.714895,clownfish     ,5,4,4,1,3,934.149425,934.149425,936.64946,0,70,70,70,1,148,1,5,scarf         ,clownfish     ,html/resources/sequences_IDs/A/06_scarf.jpg,html/resources/sequences_IDs/A/04_clownfish.jpg,6,4,3,2,2,1,5,3,0,15,,,,,,,,,,,,,,,,,,,,
,,,,,15,2020-07-01_10h32.45.330,retriever_ti,2020.1.3,Win32,60,Chrome,1920,1080,,,,,,,,,,,,,,,,,2,,,,,,,,,,,,,,,,,,,,,,,,,,,937.250835,149,right,0.72049,satellite_dish,3,10,1,1,0,937.283125,937.283125,939.782685,0,71,71,71,1,149,2,3,parrot      ,satellite_dish,html/resources/sequences_IDs/B/05_parrot.jpg,html/resources/sequences_IDs/A/10_satellite_dish.jpg,5,10,2,1,4,2,4,8,1,15,,,,,,,,,,,,,,,,,,,,
,,,,,15,2020-07-01_10h32.45.330,retriever_ti,2020.1.3,Win32,60,Chrome,1920,1080,,,,,,,,,,,,,,,,,2,,,,,,,,,,,,,,,,,,,,,,,,,,,940.88228,150,left,0.821295,parrot      ,2,5,-4,0,3,940.899775,940.899775,943.39952,0,72,72,72,1,150,2,6,parrot      ,phone       ,html/resources/sequences_IDs/B/05_parrot.jpg,html/resources/sequences_IDs/B/09_phone.jpg,5,9,2,1,4,2,4,7,0,15,,,,,,,,,,,,,,,,,,,,
,,,,,15,2020-07-01_10h32.45.330,retriever_ti,2020.1.3,Win32,60,Chrome,1920,1080,,,,,,,,,,,,,,,,,2,,,,,,,,,,,,,,,,,,,,,,,,,,,944.016425,151,right,0.97384,parrot      ,2,5,-1,0,0,944.034645,944.034645,946.53244,0,73,73,73,1,151,3,2,satellite_dish,parrot      ,html/resources/sequences_IDs/A/10_satellite_dish.jpg,html/resources/sequences_IDs/B/05_parrot.jpg,10,5,4,2,2,1,8,4,0,15,,,,,,,,,,,,,,,,,,,,
,,,,,15,2020-07-01_10h32.45.330,retriever_ti,2020.1.3,Win32,60,Chrome,1920,1080,,,,,,,,,,,,,,,,,2,,,,,,,,,,,,,,,,,,,,,,,,,,,947.63306,152,left,0.78178,redfox      ,4,1,-1,0,0,947.666415,947.666415,950.166605,0,74,74,74,1,152,4,5,redfox      ,clownfish     ,html/resources/sequences_IDs/B/01_redfox.jpg,html/resources/sequences_IDs/A/04_clownfish.jpg,1,4,1,1,2,1,1,3,0,15,,,,,,,,,,,,,,,,,,,,
,,,,,15,2020-07-01_10h32.45.330,retriever_ti,2020.1.3,Win32,60,Chrome,1920,1080,,,,,,,,,,,,,,,,,2,,,,,,,,,,,,,,,,,,,,,,,,,,,951.266925,153,left,0.868695,redfox      ,4,1,1,1,1,951.301295,951.301295,953.79919,0,75,75,75,1,153,4,3,redfox      ,satellite_dish,html/resources/sequences_IDs/B/01_redfox.jpg,html/resources/sequences_IDs/A/10_satellite_dish.jpg,1,10,1,1,4,2,1,8,0,15,,,,,,,,,,,,,,,,,,,,
,,,,,15,2020-07-01_10h32.45.330,retriever_ti,2020.1.3,Win32,60,Chrome,1920,1080,,,,,,,,,,,,,,,,,2,,,,,,,,,,,,,,,,,,,,,,,,,,,954.90001,154,right,1.22593,parrot      ,2,5,-2,0,3,954.918535,954.918535,957.41665,0,76,76,76,1,154,4,2,redfox      ,parrot      ,html/resources/sequences_IDs/B/01_redfox.jpg,html/resources/sequences_IDs/B/05_parrot.jpg,1,5,1,1,2,1,1,4,0,15,,,,,,,,,,,,,,,,,,,,
,,,,,15,2020-07-01_10h32.45.330,retriever_ti,2020.1.3,Win32,60,Chrome,1920,1080,,,,,,,,,,,,,,,,,,,,,,,,,,,,,,,,,,,,,0,3.1291,,,,,,,,,,,,,,,,,,,,,,,,,,,,,,,,,,,,,,,,,1,0,1,0,1,,,,,,,,,,,,,,,
,,,,,15,2020-07-01_10h32.45.330,retriever_ti,2020.1.3,Win32,60,Chrome,1920,1080,,,,,,,,,,,,,,,,,3,,,,,,,,,,,,,,,,,,,,,,,,,,,1010.32964,155,left,1.22234,phone       ,6,9,-2,0,3,1010.37001,1010.37001,1012.86925,0,0,0,0,1,155,6,8,phone       ,giraffe     ,html/resources/sequences_IDs/B/09_phone.jpg,html/resources/sequences_IDs/B/03_giraffe.jpg,9,3,4,2,1,1,7,2,0,15,,,,,,,,,,,,,,,,,,,,
,,,,,15,2020-07-01_10h32.45.330,retriever_ti,2020.1.3,Win32,60,Chrome,1920,1080,,,,,,,,,,,,,,,,,3,,,,,,,,,,,,,,,,,,,,,,,,,,,1013.486035,156,right,1.24858,satellite_dish,3,10,-1,0,0,1013.519605,1013.519605,1016.018695,0,1,1,1,1,156,4,3,redfox      ,satellite_dish,html/resources/sequences_IDs/B/01_redfox.jpg,html/resources/sequences_IDs/A/10_satellite_dish.jpg,1,10,1,1,4,2,1,8,0,15,,,,,,,,,,,,,,,,,,,,
,,,,,15,2020-07-01_10h32.45.330,retriever_ti,2020.1.3,Win32,60,Chrome,1920,1080,,,,,,,,,,,,,,,,,3,,,,,,,,,,,,,,,,,,,,,,,,,,,1017.12032,157,left,1.880205,scarf         ,1,6,-5,0,3,1017.136585,1017.136585,1019.635685,0,2,2,2,1,157,1,6,scarf         ,phone       ,html/resources/sequences_IDs/A/06_scarf.jpg,html/resources/sequences_IDs/B/09_phone.jpg,6,9,3,2,4,2,5,7,0,15,,,,,,,,,,,,,,,,,,,,
,,,,,15,2020-07-01_10h32.45.330,retriever_ti,2020.1.3,Win32,60,Chrome,1920,1080,,,,,,,,,,,,,,,,,3,,,,,,,,,,,,,,,,,,,,,,,,,,,1020.253335,158,left,1.50664,dress         ,7,7,3,1,3,1020.27047,1020.27047,1022.76935,0,3,3,3,1,158,7,4,dress         ,redfox      ,html/resources/sequences_IDs/A/07_dress.jpg,html/resources/sequences_IDs/B/01_redfox.jpg,7,1,3,2,1,1,6,1,0,15,,,,,,,,,,,,,,,,,,,,
,,,,,15,2020-07-01_10h32.45.330,retriever_ti,2020.1.3,Win32,60,Chrome,1920,1080,,,,,,,,,,,,,,,,,3,,,,,,,,,,,,,,,,,,,,,,,,,,,1023.369955,159,right,1.381675,satellite_dish,3,10,-3,0,3,1023.38676,1023.38676,1025.88714,0,4,4,4,1,159,6,3,phone       ,satellite_dish,html/resources/sequences_IDs/B/09_phone.jpg,html/resources/sequences_IDs/A/10_satellite_dish.jpg,9,10,4,2,4,2,7,8,0,15,,,,,,,,,,,,,,,,,,,,
,,,,,15,2020-07-01_10h32.45.330,retriever_ti,2020.1.3,Win32,60,Chrome,1920,1080,,,,,,,,,,,,,,,,,3,,,,,,,,,,,,,,,,,,,,,,,,,,,1026.503085,160,right,0.823235,satellite_dish,3,10,-2,0,3,1026.521185,1026.521185,1029.01999,0,5,5,5,1,160,5,3,clownfish     ,satellite_dish,html/resources/sequences_IDs/A/04_clownfish.jpg,html/resources/sequences_IDs/A/10_satellite_dish.jpg,4,10,2,1,4,2,3,8,0,15,,,,,,,,,,,,,,,,,,,,
,,,,,15,2020-07-01_10h32.45.330,retriever_ti,2020.1.3,Win32,60,Chrome,1920,1080,,,,,,,,,,,,,,,,,3,,,,,,,,,,,,,,,,,,,,,,,,,,,1029.62077,161,left,1.107105,redfox      ,4,1,-1,0,0,1029.65364,1029.65364,1032.153585,0,6,6,6,1,161,4,5,redfox      ,clownfish     ,html/resources/sequences_IDs/B/01_redfox.jpg,html/resources/sequences_IDs/A/04_clownfish.jpg,1,4,1,1,2,1,1,3,0,15,,,,,,,,,,,,,,,,,,,,
,,,,,15,2020-07-01_10h32.45.330,retriever_ti,2020.1.3,Win32,60,Chrome,1920,1080,,,,,,,,,,,,,,,,,3,,,,,,,,,,,,,,,,,,,,,,,,,,,1033.25371,162,right,1.97754,clownfish     ,5,4,-1,0,0,1033.270925,1033.270925,1035.769895,0,7,7,7,1,162,6,5,phone       ,clownfish     ,html/resources/sequences_IDs/B/09_phone.jpg,html/resources/sequences_IDs/A/04_clownfish.jpg,9,4,4,2,2,1,7,3,0,15,,,,,,,,,,,,,,,,,,,,
,,,,,15,2020-07-01_10h32.45.330,retriever_ti,2020.1.3,Win32,60,Chrome,1920,1080,,,,,,,,,,,,,,,,,3,,,,,,,,,,,,,,,,,,,,,,,,,,,1036.87061,163,right,1.969705,satellite_dish,3,10,2,1,3,1036.903945,1036.903945,1039.40373,0,8,8,8,1,163,1,3,scarf         ,satellite_dish,html/resources/sequences_IDs/A/06_scarf.jpg,html/resources/sequences_IDs/A/10_satellite_dish.jpg,6,10,3,2,4,2,5,8,0,15,,,,,,,,,,,,,,,,,,,,
,,,,,15,2020-07-01_10h32.45.330,retriever_ti,2020.1.3,Win32,60,Chrome,1920,1080,,,,,,,,,,,,,,,,,3,,,,,,,,,,,,,,,,,,,,,,,,,,,1040.02043,164,left,1.32309,dress         ,7,7,5,1,3,1040.0376,1040.0376,1042.53669,0,9,9,9,1,164,7,2,dress         ,parrot      ,html/resources/sequences_IDs/A/07_dress.jpg,html/resources/sequences_IDs/B/05_parrot.jpg,7,5,3,2,2,1,6,4,0,15,,,,,,,,,,,,,,,,,,,,
,,,,,15,2020-07-01_10h32.45.330,retriever_ti,2020.1.3,Win32,60,Chrome,1920,1080,,,,,,,,,,,,,,,,,3,,,,,,,,,,,,,,,,,,,,,,,,,,,1043.154,165,right,1.709745,clownfish     ,5,4,1,1,1,1043.17073,1043.17073,1045.670205,0,10,10,10,1,165,4,5,redfox      ,clownfish     ,html/resources/sequences_IDs/B/01_redfox.jpg,html/resources/sequences_IDs/A/04_clownfish.jpg,1,4,1,1,2,1,1,3,0,15,,,,,,,,,,,,,,,,,,,,
,,,,,15,2020-07-01_10h32.45.330,retriever_ti,2020.1.3,Win32,60,Chrome,1920,1080,,,,,,,,,,,,,,,,,3,,,,,,,,,,,,,,,,,,,,,,,,,,,1046.772115,166,left,1.068325,clownfish     ,5,4,-2,0,3,1046.78928,1046.78928,1049.287975,0,11,11,11,1,166,5,7,clownfish     ,dress         ,html/resources/sequences_IDs/A/04_clownfish.jpg,html/resources/sequences_IDs/A/07_dress.jpg,4,7,2,1,3,2,3,6,0,15,,,,,,,,,,,,,,,,,,,,
,,,,,15,2020-07-01_10h32.45.330,retriever_ti,2020.1.3,Win32,60,Chrome,1920,1080,,,,,,,,,,,,,,,,,3,,,,,,,,,,,,,,,,,,,,,,,,,,,1049.904395,167,left,1.111355,satellite_dish,3,10,2,1,3,1049.921105,1049.921105,1052.42124,0,12,12,12,1,167,3,1,satellite_dish,scarf         ,html/resources/sequences_IDs/A/10_satellite_dish.jpg,html/resources/sequences_IDs/A/06_scarf.jpg,10,6,4,2,3,2,8,5,0,15,,,,,,,,,,,,,,,,,,,,
,,,,,15,2020-07-01_10h32.45.330,retriever_ti,2020.1.3,Win32,60,Chrome,1920,1080,,,,,,,,,,,,,,,,,3,,,,,,,,,,,,,,,,,,,,,,,,,,,1053.038665,168,left,1.28154,satellite_dish,3,10,-1,0,0,1053.05507,1053.05507,1055.55382,0,13,13,13,1,168,3,4,satellite_dish,redfox      ,html/resources/sequences_IDs/A/10_satellite_dish.jpg,html/resources/sequences_IDs/B/01_redfox.jpg,10,1,4,2,1,1,8,1,0,15,,,,,,,,,,,,,,,,,,,,
,,,,,15,2020-07-01_10h32.45.330,retriever_ti,2020.1.3,Win32,60,Chrome,1920,1080,,,,,,,,,,,,,,,,,3,,,,,,,,,,,,,,,,,,,,,,,,,,,1056.654555,169,right,1.57006,giraffe     ,8,3,7,1,3,1056.68862,1056.68862,1059.1879,0,14,14,14,1,169,1,8,scarf         ,giraffe     ,html/resources/sequences_IDs/A/06_scarf.jpg,html/resources/sequences_IDs/B/03_giraffe.jpg,6,3,3,2,1,1,5,2,0,15,,,,,,,,,,,,,,,,,,,,
,,,,,15,2020-07-01_10h32.45.330,retriever_ti,2020.1.3,Win32,60,Chrome,1920,1080,,,,,,,,,,,,,,,,,3,,,,,,,,,,,,,,,,,,,,,,,,,,,1059.80478,170,left,1.0977,giraffe     ,8,3,6,1,3,1059.838535,1059.838535,1062.338615,0,15,15,15,1,170,8,2,giraffe     ,parrot      ,html/resources/sequences_IDs/B/03_giraffe.jpg,html/resources/sequences_IDs/B/05_parrot.jpg,3,5,1,1,2,1,2,4,0,15,,,,,,,,,,,,,,,,,,,,
,,,,,15,2020-07-01_10h32.45.330,retriever_ti,2020.1.3,Win32,60,Chrome,1920,1080,,,,,,,,,,,,,,,,,3,,,,,,,,,,,,,,,,,,,,,,,,,,,1062.955515,171,right,1.572365,satellite_dish,3,10,-4,0,3,1062.97264,1062.97264,1065.47122,0,16,16,16,1,171,7,3,dress         ,satellite_dish,html/resources/sequences_IDs/A/07_dress.jpg,html/resources/sequences_IDs/A/10_satellite_dish.jpg,7,10,3,2,4,2,6,8,0,15,,,,,,,,,,,,,,,,,,,,
,,,,,15,2020-07-01_10h32.45.330,retriever_ti,2020.1.3,Win32,60,Chrome,1920,1080,,,,,,,,,,,,,,,,,3,,,,,,,,,,,,,,,,,,,,,,,,,,,1066.0723,172,left,1.970215,satellite_dish,3,10,-4,0,3,1066.08863,1066.08863,1068.58843,0,17,17,17,1,172,3,7,satellite_dish,dress         ,html/resources/sequences_IDs/A/10_satellite_dish.jpg,html/resources/sequences_IDs/A/07_dress.jpg,10,7,4,2,3,2,8,6,0,15,,,,,,,,,,,,,,,,,,,,
,,,,,15,2020-07-01_10h32.45.330,retriever_ti,2020.1.3,Win32,60,Chrome,1920,1080,,,,,,,,,,,,,,,,,3,,,,,,,,,,,,,,,,,,,,,,,,,,,1069.20482,173,left,1.441745,giraffe     ,8,3,1,1,1,1069.238855,1069.238855,1071.73828,0,18,18,18,1,173,8,7,giraffe     ,dress         ,html/resources/sequences_IDs/B/03_giraffe.jpg,html/resources/sequences_IDs/A/07_dress.jpg,3,7,1,1,3,2,2,6,0,15,,,,,,,,,,,,,,,,,,,,
,,,,,15,2020-07-01_10h32.45.330,retriever_ti,2020.1.3,Win32,60,Chrome,1920,1080,,,,,,,,,,,,,,,,,3,,,,,,,,,,,,,,,,,,,,,,,,,,,1072.8392,174,left,1.75341,clownfish     ,5,4,-1,0,0,1072.87253,1072.87253,1075.373295,0,19,19,19,1,174,5,6,clownfish     ,phone       ,html/resources/sequences_IDs/A/04_clownfish.jpg,html/resources/sequences_IDs/B/09_phone.jpg,4,9,2,1,4,2,3,7,0,15,,,,,,,,,,,,,,,,,,,,
,,,,,15,2020-07-01_10h32.45.330,retriever_ti,2020.1.3,Win32,60,Chrome,1920,1080,,,,,,,,,,,,,,,,,3,,,,,,,,,,,,,,,,,,,,,,,,,,,1076.47255,175,right,2.03058,giraffe     ,8,3,5,1,3,1076.50563,1076.50563,1079.00517,0,20,20,20,1,175,3,8,satellite_dish,giraffe     ,html/resources/sequences_IDs/A/10_satellite_dish.jpg,html/resources/sequences_IDs/B/03_giraffe.jpg,10,3,4,2,1,1,8,2,0,15,,,,,,,,,,,,,,,,,,,,
,,,,,15,2020-07-01_10h32.45.330,retriever_ti,2020.1.3,Win32,60,Chrome,1920,1080,,,,,,,,,,,,,,,,,3,,,,,,,,,,,,,,,,,,,,,,,,,,,1079.605625,176,right,1.529,parrot      ,2,5,1,1,1,1079.639265,1079.639265,1082.13881,0,21,21,21,1,176,1,2,scarf         ,parrot      ,html/resources/sequences_IDs/A/06_scarf.jpg,html/resources/sequences_IDs/B/05_parrot.jpg,6,5,3,2,2,1,5,4,0,15,,,,,,,,,,,,,,,,,,,,
,,,,,15,2020-07-01_10h32.45.330,retriever_ti,2020.1.3,Win32,60,Chrome,1920,1080,,,,,,,,,,,,,,,,,3,,,,,,,,,,,,,,,,,,,,,,,,,,,1083.23927,177,left,0.87202,parrot      ,2,5,-1,0,0,1083.272695,1083.272695,1085.77191,0,22,22,22,1,177,2,3,parrot      ,satellite_dish,html/resources/sequences_IDs/B/05_parrot.jpg,html/resources/sequences_IDs/A/10_satellite_dish.jpg,5,10,2,1,4,2,4,8,0,15,,,,,,,,,,,,,,,,,,,,
,,,,,15,2020-07-01_10h32.45.330,retriever_ti,2020.1.3,Win32,60,Chrome,1920,1080,,,,,,,,,,,,,,,,,3,,,,,,,,,,,,,,,,,,,,,,,,,,,1086.872615,178,left,0.997735,phone       ,6,9,-1,0,0,1086.90687,1086.90687,1089.40594,0,23,23,23,1,178,6,7,phone       ,dress         ,html/resources/sequences_IDs/B/09_phone.jpg,html/resources/sequences_IDs/A/07_dress.jpg,9,7,4,2,3,2,7,6,0,15,,,,,,,,,,,,,,,,,,,,
,,,,,15,2020-07-01_10h32.45.330,retriever_ti,2020.1.3,Win32,60,Chrome,1920,1080,,,,,,,,,,,,,,,,,3,,,,,,,,,,,,,,,,,,,,,,,,,,,1090.506645,179,left,0.76449,parrot      ,2,5,-4,0,3,1090.53982,1090.53982,1093.04028,0,24,24,24,1,179,2,6,parrot      ,phone       ,html/resources/sequences_IDs/B/05_parrot.jpg,html/resources/sequences_IDs/B/09_phone.jpg,5,9,2,1,4,2,4,7,0,15,,,,,,,,,,,,,,,,,,,,
,,,,,15,2020-07-01_10h32.45.330,retriever_ti,2020.1.3,Win32,60,Chrome,1920,1080,,,,,,,,,,,,,,,,,3,,,,,,,,,,,,,,,,,,,,,,,,,,,1093.656715,180,left,1.023275,dress         ,7,7,2,1,3,1093.673365,1093.673365,1096.173995,0,25,25,25,1,180,7,5,dress         ,clownfish     ,html/resources/sequences_IDs/A/07_dress.jpg,html/resources/sequences_IDs/A/04_clownfish.jpg,7,4,3,2,2,1,6,3,0,15,,,,,,,,,,,,,,,,,,,,
,,,,,15,2020-07-01_10h32.45.330,retriever_ti,2020.1.3,Win32,60,Chrome,1920,1080,,,,,,,,,,,,,,,,,3,,,,,,,,,,,,,,,,,,,,,,,,,,,1096.7898,181,right,0.697605,giraffe     ,8,3,3,1,3,1096.806905,1096.806905,1099.306195,0,26,26,26,1,181,5,8,clownfish     ,giraffe     ,html/resources/sequences_IDs/A/04_clownfish.jpg,html/resources/sequences_IDs/B/03_giraffe.jpg,4,3,2,1,1,1,3,2,0,15,,,,,,,,,,,,,,,,,,,,
,,,,,15,2020-07-01_10h32.45.330,retriever_ti,2020.1.3,Win32,60,Chrome,1920,1080,,,,,,,,,,,,,,,,,3,,,,,,,,,,,,,,,,,,,,,,,,,,,1099.906875,182,left,0.915055,clownfish     ,5,4,-1,0,0,1099.941525,1099.941525,1102.439635,0,27,27,27,1,182,5,6,clownfish     ,phone       ,html/resources/sequences_IDs/A/04_clownfish.jpg,html/resources/sequences_IDs/B/09_phone.jpg,4,9,2,1,4,2,3,7,0,15,,,,,,,,,,,,,,,,,,,,
,,,,,15,2020-07-01_10h32.45.330,retriever_ti,2020.1.3,Win32,60,Chrome,1920,1080,,,,,,,,,,,,,,,,,3,,,,,,,,,,,,,,,,,,,,,,,,,,,1103.540665,183,right,0.795285,dress         ,7,7,1,1,1,1103.55722,1103.55722,1106.05664,0,28,28,28,1,183,6,7,phone       ,dress         ,html/resources/sequences_IDs/B/09_phone.jpg,html/resources/sequences_IDs/A/07_dress.jpg,9,7,4,2,3,2,7,6,0,15,,,,,,,,,,,,,,,,,,,,
,,,,,15,2020-07-01_10h32.45.330,retriever_ti,2020.1.3,Win32,60,Chrome,1920,1080,,,,,,,,,,,,,,,,,3,,,,,,,,,,,,,,,,,,,,,,,,,,,1107.157515,184,left,1.37721,satellite_dish,3,10,-1,0,0,1107.19117,1107.19117,1109.68991,0,29,29,29,1,184,3,4,satellite_dish,redfox      ,html/resources/sequences_IDs/A/10_satellite_dish.jpg,html/resources/sequences_IDs/B/01_redfox.jpg,10,1,4,2,1,1,8,1,0,15,,,,,,,,,,,,,,,,,,,,
,,,,,15,2020-07-01_10h32.45.330,retriever_ti,2020.1.3,Win32,60,Chrome,1920,1080,,,,,,,,,,,,,,,,,3,,,,,,,,,,,,,,,,,,,,,,,,,,,1110.79121,185,right,0.905125,redfox      ,4,1,-1,0,1,1110.823805,1110.823805,1113.323135,0,30,30,30,1,185,5,4,clownfish     ,redfox      ,html/resources/sequences_IDs/A/04_clownfish.jpg,html/resources/sequences_IDs/B/01_redfox.jpg,4,1,2,1,1,1,3,1,1,15,,,,,,,,,,,,,,,,,,,,
,,,,,15,2020-07-01_10h32.45.330,retriever_ti,2020.1.3,Win32,60,Chrome,1920,1080,,,,,,,,,,,,,,,,,3,,,,,,,,,,,,,,,,,,,,,,,,,,,1114.425455,186,right,0.569005,redfox      ,4,1,-1,0,0,1114.44159,1114.44159,1116.939865,0,31,31,31,1,186,5,4,clownfish     ,redfox      ,html/resources/sequences_IDs/A/04_clownfish.jpg,html/resources/sequences_IDs/B/01_redfox.jpg,4,1,2,1,1,1,3,1,0,15,,,,,,,,,,,,,,,,,,,,
,,,,,15,2020-07-01_10h32.45.330,retriever_ti,2020.1.3,Win32,60,Chrome,1920,1080,,,,,,,,,,,,,,,,,3,,,,,,,,,,,,,,,,,,,,,,,,,,,1118.040645,187,left,1.12003,satellite_dish,3,10,-3,0,3,1118.074735,1118.074735,1120.573675,0,32,32,32,1,187,3,6,satellite_dish,phone       ,html/resources/sequences_IDs/A/10_satellite_dish.jpg,html/resources/sequences_IDs/B/09_phone.jpg,10,9,4,2,4,2,8,7,0,15,,,,,,,,,,,,,,,,,,,,
,,,,,15,2020-07-01_10h32.45.330,retriever_ti,2020.1.3,Win32,60,Chrome,1920,1080,,,,,,,,,,,,,,,,,3,,,,,,,,,,,,,,,,,,,,,,,,,,,1121.19227,188,left,1.3868,phone       ,6,9,1,1,0,1121.224525,1121.224525,1123.723945,0,33,33,33,1,188,6,5,phone       ,clownfish     ,html/resources/sequences_IDs/B/09_phone.jpg,html/resources/sequences_IDs/A/04_clownfish.jpg,9,4,4,2,2,1,7,3,1,15,,,,,,,,,,,,,,,,,,,,
,,,,,15,2020-07-01_10h32.45.330,retriever_ti,2020.1.3,Win32,60,Chrome,1920,1080,,,,,,,,,,,,,,,,,3,,,,,,,,,,,,,,,,,,,,,,,,,,,1124.82426,189,right,1.54283,redfox      ,4,1,-1,0,0,1124.841735,1124.841735,1127.341315,0,34,34,34,1,189,5,4,clownfish     ,redfox      ,html/resources/sequences_IDs/A/04_clownfish.jpg,html/resources/sequences_IDs/B/01_redfox.jpg,4,1,2,1,1,1,3,1,0,15,,,,,,,,,,,,,,,,,,,,
,,,,,15,2020-07-01_10h32.45.330,retriever_ti,2020.1.3,Win32,60,Chrome,1920,1080,,,,,,,,,,,,,,,,,3,,,,,,,,,,,,,,,,,,,,,,,,,,,1128.44189,190,right,0.89334,dress         ,7,7,3,1,3,1128.475105,1128.475105,1130.974485,0,35,35,35,1,190,4,7,redfox      ,dress         ,html/resources/sequences_IDs/B/01_redfox.jpg,html/resources/sequences_IDs/A/07_dress.jpg,1,7,1,1,3,2,1,6,0,15,,,,,,,,,,,,,,,,,,,,
,,,,,15,2020-07-01_10h32.45.330,retriever_ti,2020.1.3,Win32,60,Chrome,1920,1080,,,,,,,,,,,,,,,,,3,,,,,,,,,,,,,,,,,,,,,,,,,,,1131.59274,191,right,0.703915,clownfish     ,5,4,4,1,3,1131.60857,1131.60857,1134.10786,0,36,36,36,1,191,1,5,scarf         ,clownfish     ,html/resources/sequences_IDs/A/06_scarf.jpg,html/resources/sequences_IDs/A/04_clownfish.jpg,6,4,3,2,2,1,5,3,0,15,,,,,,,,,,,,,,,,,,,,
,,,,,15,2020-07-01_10h32.45.330,retriever_ti,2020.1.3,Win32,60,Chrome,1920,1080,,,,,,,,,,,,,,,,,3,,,,,,,,,,,,,,,,,,,,,,,,,,,1134.72552,192,left,0.835545,phone       ,6,9,-1,0,1,1134.759395,1134.759395,1137.258285,0,37,37,37,1,192,6,7,phone       ,dress         ,html/resources/sequences_IDs/B/09_phone.jpg,html/resources/sequences_IDs/A/07_dress.jpg,9,7,4,2,3,2,7,6,1,15,,,,,,,,,,,,,,,,,,,,
,,,,,15,2020-07-01_10h32.45.330,retriever_ti,2020.1.3,Win32,60,Chrome,1920,1080,,,,,,,,,,,,,,,,,3,,,,,,,,,,,,,,,,,,,,,,,,,,,1138.35876,193,left,0.89609,clownfish     ,5,4,4,1,3,1138.392065,1138.392065,1140.891325,0,38,38,38,1,193,5,1,clownfish     ,scarf         ,html/resources/sequences_IDs/A/04_clownfish.jpg,html/resources/sequences_IDs/A/06_scarf.jpg,4,6,2,1,3,2,3,5,0,15,,,,,,,,,,,,,,,,,,,,
,,,,,15,2020-07-01_10h32.45.330,retriever_ti,2020.1.3,Win32,60,Chrome,1920,1080,,,,,,,,,,,,,,,,,3,,,,,,,,,,,,,,,,,,,,,,,,,,,1141.492145,194,right,1.339665,giraffe     ,8,3,1,1,1,1141.525145,1141.525145,1144.02472,0,39,39,39,1,194,7,8,dress         ,giraffe     ,html/resources/sequences_IDs/A/07_dress.jpg,html/resources/sequences_IDs/B/03_giraffe.jpg,7,3,3,2,1,1,6,2,0,15,,,,,,,,,,,,,,,,,,,,
,,,,,15,2020-07-01_10h32.45.330,retriever_ti,2020.1.3,Win32,60,Chrome,1920,1080,,,,,,,,,,,,,,,,,3,,,,,,,,,,,,,,,,,,,,,,,,,,,1145.125235,195,left,1.13945,redfox      ,4,1,2,1,3,1145.142205,1145.142205,1147.64134,0,40,40,40,1,195,4,2,redfox      ,parrot      ,html/resources/sequences_IDs/B/01_redfox.jpg,html/resources/sequences_IDs/B/05_parrot.jpg,1,5,1,1,2,1,1,4,0,15,,,,,,,,,,,,,,,,,,,,
,,,,,15,2020-07-01_10h32.45.330,retriever_ti,2020.1.3,Win32,60,Chrome,1920,1080,,,,,,,,,,,,,,,,,3,,,,,,,,,,,,,,,,,,,,,,,,,,,1148.24256,196,right,0.972595,satellite_dish,3,10,1,1,1,1148.259665,1148.259665,1150.758655,0,41,41,41,1,196,2,3,parrot      ,satellite_dish,html/resources/sequences_IDs/B/05_parrot.jpg,html/resources/sequences_IDs/A/10_satellite_dish.jpg,5,10,2,1,4,2,4,8,0,15,,,,,,,,,,,,,,,,,,,,
,,,,,15,2020-07-01_10h32.45.330,retriever_ti,2020.1.3,Win32,60,Chrome,1920,1080,,,,,,,,,,,,,,,,,3,,,,,,,,,,,,,,,,,,,,,,,,,,,1151.858815,197,left,0.730645,dress         ,7,7,1,1,1,1151.87747,1151.87747,1154.37499,0,42,42,42,1,197,7,6,dress         ,phone       ,html/resources/sequences_IDs/A/07_dress.jpg,html/resources/sequences_IDs/B/09_phone.jpg,7,9,3,2,4,2,6,7,0,15,,,,,,,,,,,,,,,,,,,,
,,,,,15,2020-07-01_10h32.45.330,retriever_ti,2020.1.3,Win32,60,Chrome,1920,1080,,,,,,,,,,,,,,,,,3,,,,,,,,,,,,,,,,,,,,,,,,,,,1155.47605,198,left,0.90842,satellite_dish,3,10,1,1,1,1155.49238,1155.49238,1157.99277,0,43,43,43,1,198,3,2,satellite_dish,parrot      ,html/resources/sequences_IDs/A/10_satellite_dish.jpg,html/resources/sequences_IDs/B/05_parrot.jpg,10,5,4,2,2,1,8,4,0,15,,,,,,,,,,,,,,,,,,,,
,,,,,15,2020-07-01_10h32.45.330,retriever_ti,2020.1.3,Win32,60,Chrome,1920,1080,,,,,,,,,,,,,,,,,3,,,,,,,,,,,,,,,,,,,,,,,,,,,1159.09272,199,right,0.74506,parrot      ,2,5,1,1,1,1159.127265,1159.127265,1161.62589,0,44,44,44,1,199,1,2,scarf         ,parrot      ,html/resources/sequences_IDs/A/06_scarf.jpg,html/resources/sequences_IDs/B/05_parrot.jpg,6,5,3,2,2,1,5,4,0,15,,,,,,,,,,,,,,,,,,,,
,,,,,15,2020-07-01_10h32.45.330,retriever_ti,2020.1.3,Win32,60,Chrome,1920,1080,,,,,,,,,,,,,,,,,3,,,,,,,,,,,,,,,,,,,,,,,,,,,1162.72641,200,right,0.960845,clownfish     ,5,4,-1,0,0,1162.75955,1162.75955,1165.259605,0,45,45,45,1,200,6,5,phone       ,clownfish     ,html/resources/sequences_IDs/B/09_phone.jpg,html/resources/sequences_IDs/A/04_clownfish.jpg,9,4,4,2,2,1,7,3,0,15,,,,,,,,,,,,,,,,,,,,
,,,,,15,2020-07-01_10h32.45.330,retriever_ti,2020.1.3,Win32,60,Chrome,1920,1080,,,,,,,,,,,,,,,,,3,,,,,,,,,,,,,,,,,,,,,,,,,,,1166.359665,201,left,0.80699,parrot      ,2,5,1,1,1,1166.377635,1166.377635,1168.87727,0,46,46,46,1,201,2,1,parrot      ,scarf         ,html/resources/sequences_IDs/B/05_parrot.jpg,html/resources/sequences_IDs/A/06_scarf.jpg,5,6,2,1,3,2,4,5,0,15,,,,,,,,,,,,,,,,,,,,
,,,,,15,2020-07-01_10h32.45.330,retriever_ti,2020.1.3,Win32,60,Chrome,1920,1080,,,,,,,,,,,,,,,,,3,,,,,,,,,,,,,,,,,,,,,,,,,,,1169.976535,202,left,0.753745,giraffe     ,8,3,4,1,3,1170.00997,1170.00997,1172.509285,0,47,47,47,1,202,8,4,giraffe     ,redfox      ,html/resources/sequences_IDs/B/03_giraffe.jpg,html/resources/sequences_IDs/B/01_redfox.jpg,3,1,1,1,1,1,2,1,0,15,,,,,,,,,,,,,,,,,,,,
,,,,,15,2020-07-01_10h32.45.330,retriever_ti,2020.1.3,Win32,60,Chrome,1920,1080,,,,,,,,,,,,,,,,,3,,,,,,,,,,,,,,,,,,,,,,,,,,,1173.10989,203,left,0.58622,giraffe     ,8,3,7,1,3,1173.127455,1173.127455,1175.62696,0,48,48,48,1,203,8,1,giraffe     ,scarf         ,html/resources/sequences_IDs/B/03_giraffe.jpg,html/resources/sequences_IDs/A/06_scarf.jpg,3,6,1,1,3,2,2,5,0,15,,,,,,,,,,,,,,,,,,,,
,,,,,15,2020-07-01_10h32.45.330,retriever_ti,2020.1.3,Win32,60,Chrome,1920,1080,,,,,,,,,,,,,,,,,3,,,,,,,,,,,,,,,,,,,,,,,,,,,1176.24436,204,left,0.68683,dress         ,7,7,6,1,3,1176.26009,1176.26009,1178.76021,0,49,49,49,1,204,7,1,dress         ,scarf         ,html/resources/sequences_IDs/A/07_dress.jpg,html/resources/sequences_IDs/A/06_scarf.jpg,7,6,3,2,3,2,6,5,0,15,,,,,,,,,,,,,,,,,,,,
,,,,,15,2020-07-01_10h32.45.330,retriever_ti,2020.1.3,Win32,60,Chrome,1920,1080,,,,,,,,,,,,,,,,,3,,,,,,,,,,,,,,,,,,,,,,,,,,,1179.376585,205,left,0.972935,parrot      ,2,5,-2,0,3,1179.4119,1179.4119,1181.909855,0,50,50,50,1,205,2,4,parrot      ,redfox      ,html/resources/sequences_IDs/B/05_parrot.jpg,html/resources/sequences_IDs/B/01_redfox.jpg,5,1,2,1,1,1,4,1,0,15,,,,,,,,,,,,,,,,,,,,
,,,,,15,2020-07-01_10h32.45.330,retriever_ti,2020.1.3,Win32,60,Chrome,1920,1080,,,,,,,,,,,,,,,,,3,,,,,,,,,,,,,,,,,,,,,,,,,,,1182.52735,206,right,0.67982,dress         ,7,7,6,1,3,1182.56055,1182.56055,1185.059975,0,51,51,51,1,206,1,7,scarf         ,dress         ,html/resources/sequences_IDs/A/06_scarf.jpg,html/resources/sequences_IDs/A/07_dress.jpg,6,7,3,2,3,2,5,6,0,15,,,,,,,,,,,,,,,,,,,,
,,,,,15,2020-07-01_10h32.45.330,retriever_ti,2020.1.3,Win32,60,Chrome,1920,1080,,,,,,,,,,,,,,,,,3,,,,,,,,,,,,,,,,,,,,,,,,,,,1185.660585,207,left,0.898545,satellite_dish,3,10,-1,0,1,1185.67768,1185.67768,1188.17782,0,52,52,52,1,207,3,4,satellite_dish,redfox      ,html/resources/sequences_IDs/A/10_satellite_dish.jpg,html/resources/sequences_IDs/B/01_redfox.jpg,10,1,4,2,1,1,8,1,1,15,,,,,,,,,,,,,,,,,,,,
,,,,,15,2020-07-01_10h32.45.330,retriever_ti,2020.1.3,Win32,60,Chrome,1920,1080,,,,,,,,,,,,,,,,,3,,,,,,,,,,,,,,,,,,,,,,,,,,,1189.27758,208,right,1.44901,redfox      ,4,1,-2,0,3,1189.31078,1189.31078,1191.81062,0,53,53,53,1,208,6,4,phone       ,redfox      ,html/resources/sequences_IDs/B/09_phone.jpg,html/resources/sequences_IDs/B/01_redfox.jpg,9,1,4,2,1,1,7,1,0,15,,,,,,,,,,,,,,,,,,,,
,,,,,15,2020-07-01_10h32.45.330,retriever_ti,2020.1.3,Win32,60,Chrome,1920,1080,,,,,,,,,,,,,,,,,3,,,,,,,,,,,,,,,,,,,,,,,,,,,1192.41141,209,left,0.604905,giraffe     ,8,3,1,1,1,1192.427865,1192.427865,1194.9278,0,54,54,54,1,209,8,7,giraffe     ,dress         ,html/resources/sequences_IDs/B/03_giraffe.jpg,html/resources/sequences_IDs/A/07_dress.jpg,3,7,1,1,3,2,2,6,0,15,,,,,,,,,,,,,,,,,,,,
,,,,,15,2020-07-01_10h32.45.330,retriever_ti,2020.1.3,Win32,60,Chrome,1920,1080,,,,,,,,,,,,,,,,,3,,,,,,,,,,,,,,,,,,,,,,,,,,,1196.027505,210,right,0.947675,parrot      ,2,5,-1,0,1,1196.04463,1196.04463,1198.544405,0,55,55,55,1,210,3,2,satellite_dish,parrot      ,html/resources/sequences_IDs/A/10_satellite_dish.jpg,html/resources/sequences_IDs/B/05_parrot.jpg,10,5,4,2,2,1,8,4,1,15,,,,,,,,,,,,,,,,,,,,
,,,,,15,2020-07-01_10h32.45.330,retriever_ti,2020.1.3,Win32,60,Chrome,1920,1080,,,,,,,,,,,,,,,,,3,,,,,,,,,,,,,,,,,,,,,,,,,,,1199.64454,211,right,0.674185,redfox      ,4,1,3,1,3,1199.67813,1199.67813,1202.17753,0,56,56,56,1,211,1,4,scarf         ,redfox      ,html/resources/sequences_IDs/A/06_scarf.jpg,html/resources/sequences_IDs/B/01_redfox.jpg,6,1,3,2,1,1,5,1,0,15,,,,,,,,,,,,,,,,,,,,
,,,,,15,2020-07-01_10h32.45.330,retriever_ti,2020.1.3,Win32,60,Chrome,1920,1080,,,,,,,,,,,,,,,,,3,,,,,,,,,,,,,,,,,,,,,,,,,,,1202.778335,212,right,0.503275,giraffe     ,8,3,1,1,1,1202.7952,1202.7952,1205.29502,0,57,57,57,1,212,7,8,dress         ,giraffe     ,html/resources/sequences_IDs/A/07_dress.jpg,html/resources/sequences_IDs/B/03_giraffe.jpg,7,3,3,2,1,1,6,2,0,15,,,,,,,,,,,,,,,,,,,,
,,,,,15,2020-07-01_10h32.45.330,retriever_ti,2020.1.3,Win32,60,Chrome,1920,1080,,,,,,,,,,,,,,,,,3,,,,,,,,,,,,,,,,,,,,,,,,,,,1206.39459,213,right,0.875785,satellite_dish,3,10,-1,0,0,1206.42868,1206.42868,1208.9274,0,58,58,58,1,213,4,3,redfox      ,satellite_dish,html/resources/sequences_IDs/B/01_redfox.jpg,html/resources/sequences_IDs/A/10_satellite_dish.jpg,1,10,1,1,4,2,1,8,0,15,,,,,,,,,,,,,,,,,,,,
,,,,,15,2020-07-01_10h32.45.330,retriever_ti,2020.1.3,Win32,60,Chrome,1920,1080,,,,,,,,,,,,,,,,,3,,,,,,,,,,,,,,,,,,,,,,,,,,,1210.028595,214,left,0.715075,redfox      ,4,1,-2,0,3,1210.045275,1210.045275,1212.544675,0,59,59,59,1,214,4,6,redfox      ,phone       ,html/resources/sequences_IDs/B/01_redfox.jpg,html/resources/sequences_IDs/B/09_phone.jpg,1,9,1,1,4,2,1,7,0,15,,,,,,,,,,,,,,,,,,,,
,,,,,15,2020-07-01_10h32.45.330,retriever_ti,2020.1.3,Win32,60,Chrome,1920,1080,,,,,,,,,,,,,,,,,3,,,,,,,,,,,,,,,,,,,,,,,,,,,1213.14516,215,right,0.68549,parrot      ,2,5,1,1,0,1213.16369,1213.16369,1215.661155,0,60,60,60,1,215,1,2,scarf         ,parrot      ,html/resources/sequences_IDs/A/06_scarf.jpg,html/resources/sequences_IDs/B/05_parrot.jpg,6,5,3,2,2,1,5,4,1,15,,,,,,,,,,,,,,,,,,,,
,,,,,15,2020-07-01_10h32.45.330,retriever_ti,2020.1.3,Win32,60,Chrome,1920,1080,,,,,,,,,,,,,,,,,3,,,,,,,,,,,,,,,,,,,,,,,,,,,1216.76247,216,right,0.82194,giraffe     ,8,3,6,1,3,1216.77862,1216.77862,1219.2796,0,61,61,61,1,216,2,8,parrot      ,giraffe     ,html/resources/sequences_IDs/B/05_parrot.jpg,html/resources/sequences_IDs/B/03_giraffe.jpg,5,3,2,1,1,1,4,2,0,15,,,,,,,,,,,,,,,,,,,,
,,,,,15,2020-07-01_10h32.45.330,retriever_ti,2020.1.3,Win32,60,Chrome,1920,1080,,,,,,,,,,,,,,,,,3,,,,,,,,,,,,,,,,,,,,,,,,,,,1219.89571,217,left,1.16006,giraffe     ,8,3,5,1,3,1219.912235,1219.912235,1222.41172,0,62,62,62,1,217,8,3,giraffe     ,satellite_dish,html/resources/sequences_IDs/B/03_giraffe.jpg,html/resources/sequences_IDs/A/10_satellite_dish.jpg,3,10,1,1,4,2,2,8,0,15,,,,,,,,,,,,,,,,,,,,
,,,,,15,2020-07-01_10h32.45.330,retriever_ti,2020.1.3,Win32,60,Chrome,1920,1080,,,,,,,,,,,,,,,,,3,,,,,,,,,,,,,,,,,,,,,,,,,,,1223.012495,218,right,0.73045,giraffe     ,8,3,4,1,3,1223.029655,1223.029655,1225.52844,0,63,63,63,1,218,4,8,redfox      ,giraffe     ,html/resources/sequences_IDs/B/01_redfox.jpg,html/resources/sequences_IDs/B/03_giraffe.jpg,1,3,1,1,1,1,1,2,0,15,,,,,,,,,,,,,,,,,,,,
,,,,,15,2020-07-01_10h32.45.330,retriever_ti,2020.1.3,Win32,60,Chrome,1920,1080,,,,,,,,,,,,,,,,,3,,,,,,,,,,,,,,,,,,,,,,,,,,,1226.1458,219,right,0.981405,giraffe     ,8,3,1,1,0,1226.179255,1226.179255,1228.67861,0,64,64,64,1,219,7,8,dress         ,giraffe     ,html/resources/sequences_IDs/A/07_dress.jpg,html/resources/sequences_IDs/B/03_giraffe.jpg,7,3,3,2,1,1,6,2,1,15,,,,,,,,,,,,,,,,,,,,
,,,,,15,2020-07-01_10h32.45.330,retriever_ti,2020.1.3,Win32,60,Chrome,1920,1080,,,,,,,,,,,,,,,,,3,,,,,,,,,,,,,,,,,,,,,,,,,,,1229.779185,220,right,0.579595,dress         ,7,7,5,1,3,1229.812665,1229.812665,1232.31246,0,65,65,65,1,220,2,7,parrot      ,dress         ,html/resources/sequences_IDs/B/05_parrot.jpg,html/resources/sequences_IDs/A/07_dress.jpg,5,7,2,1,3,2,4,6,0,15,,,,,,,,,,,,,,,,,,,,
