instructionsLoop.thisRepN,instructionsLoop.thisTrialN,instructionsLoop.thisN,instructionsLoop.thisIndex,instructionsLoop.ran,participant,date,expName,psychopyVersion,OS,frameRate,browser,xResolution,yResolution,fix_onset,tprac,practiceKey.keys,practiceKey.rt,pracitem_chosen_name,acc_practice,P1_onsetPrac,P2_onsetPrac,onsetFeedbPrac,practiceTrials.thisRepN,practiceTrials.thisTrialN,practiceTrials.thisN,practiceTrials.thisIndex,practiceTrials.ran,P1,P2,Block,LocItem1,LocItem2,NameItem1,NameItem2,key_respAC_prac.keys,key_respAC_prac.corr,key_respAC_prac.rt,AC_acc,Attentions.thisRepN,Attentions.thisTrialN,Attentions.thisN,Attentions.thisIndex,Attentions.ran,Stim,Loc1,Loc2,Loc3,Loc4,CorrAns,keyDisturbed.keys,keyDisturbed.rt,repPractice.thisRepN,repPractice.thisTrialN,repPractice.thisN,repPractice.thisIndex,repPractice.ran,fixcross_onsetMain,trialNumber,key_resp.keys,key_resp.rt,item_chosen_name,item_chosen_value,item_chosen_ID,diff_chosen_minus_reject,acc_real,acc_feedback,P1_onset,P2_onset,feedb_onset,trials.thisRepN,trials.thisTrialN,trials.thisN,trials.thisIndex,trials.ran,Trial,ValueP1,ValueP2,P1name,P2name,P1Loc,P2Loc,P1id,P2id,Micro_categoryP1,Macro_categoryP1,Micro_categoryP2,Macro_categoryP2,ID_sequenceP1,ID_sequenceP2,InverseFb,pNumber,repBlocks.thisRepN,repBlocks.thisTrialN,repBlocks.thisN,repBlocks.thisIndex,repBlocks.ran,key_respAC.keys,key_respAC.corr,key_respAC.rt,trials_AC.thisRepN,trials_AC.thisTrialN,trials_AC.thisN,trials_AC.thisIndex,trials_AC.ran,Bonus,BonusLoop.thisRepN,BonusLoop.thisTrialN,BonusLoop.thisN,BonusLoop.thisIndex,BonusLoop.ran,comments
0,0,0,0,1,16,2020-07-01_10h34.26.640,retriever_ti,2020.1.3,Win32,60,Chrome,1536,864,,,,,,,,,,,,,,,,,,,,,,,,,,,,,,,,,,,,,,,,,,,,,,,,,,,,,,,,,,,,,,,,,,,,,,,,,,,,,,,,,,,,,,,,,,,,,,,,,,
1,0,1,0,1,16,2020-07-01_10h34.26.640,retriever_ti,2020.1.3,Win32,60,Chrome,1536,864,,,,,,,,,,,,,,,,,,,,,,,,,,,,,,,,,,,,,,,,,,,,,,,,,,,,,,,,,,,,,,,,,,,,,,,,,,,,,,,,,,,,,,,,,,,,,,,,,,
2,0,2,0,1,16,2020-07-01_10h34.26.640,retriever_ti,2020.1.3,Win32,60,Chrome,1536,864,,,,,,,,,,,,,,,,,,,,,,,,,,,,,,,,,,,,,,,,,,,,,,,,,,,,,,,,,,,,,,,,,,,,,,,,,,,,,,,,,,,,,,,,,,,,,,,,,,
3,0,3,0,1,16,2020-07-01_10h34.26.640,retriever_ti,2020.1.3,Win32,60,Chrome,1536,864,,,,,,,,,,,,,,,,,,,,,,,,,,,,,,,,,,,,,,,,,,,,,,,,,,,,,,,,,,,,,,,,,,,,,,,,,,,,,,,,,,,,,,,,,,,,,,,,,,
4,0,4,0,1,16,2020-07-01_10h34.26.640,retriever_ti,2020.1.3,Win32,60,Chrome,1536,864,,,,,,,,,,,,,,,,,,,,,,,,,,,,,,,,,,,,,,,,,,,,,,,,,,,,,,,,,,,,,,,,,,,,,,,,,,,,,,,,,,,,,,,,,,,,,,,,,,
5,0,5,0,1,16,2020-07-01_10h34.26.640,retriever_ti,2020.1.3,Win32,60,Chrome,1536,864,,,,,,,,,,,,,,,,,,,,,,,,,,,,,,,,,,,,,,,,,,,,,,,,,,,,,,,,,,,,,,,,,,,,,,,,,,,,,,,,,,,,,,,,,,,,,,,,,,
6,0,6,0,1,16,2020-07-01_10h34.26.640,retriever_ti,2020.1.3,Win32,60,Chrome,1536,864,,,,,,,,,,,,,,,,,,,,,,,,,,,,,,,,,,,,,,,,,,,,,,,,,,,,,,,,,,,,,,,,,,,,,,,,,,,,,,,,,,,,,,,,,,,,,,,,,,
7,0,7,0,1,16,2020-07-01_10h34.26.640,retriever_ti,2020.1.3,Win32,60,Chrome,1536,864,,,,,,,,,,,,,,,,,,,,,,,,,,,,,,,,,,,,,,,,,,,,,,,,,,,,,,,,,,,,,,,,,,,,,,,,,,,,,,,,,,,,,,,,,,,,,,,,,,
8,0,8,0,1,16,2020-07-01_10h34.26.640,retriever_ti,2020.1.3,Win32,60,Chrome,1536,864,,,,,,,,,,,,,,,,,,,,,,,,,,,,,,,,,,,,,,,,,,,,,,,,,,,,,,,,,,,,,,,,,,,,,,,,,,,,,,,,,,,,,,,,,,,,,,,,,,
9,0,9,0,1,16,2020-07-01_10h34.26.640,retriever_ti,2020.1.3,Win32,60,Chrome,1536,864,,,,,,,,,,,,,,,,,,,,,,,,,,,,,,,,,,,,,,,,,,,,,,,,,,,,,,,,,,,,,,,,,,,,,,,,,,,,,,,,,,,,,,,,,,,,,,,,,,
10,0,10,0,1,16,2020-07-01_10h34.26.640,retriever_ti,2020.1.3,Win32,60,Chrome,1536,864,,,,,,,,,,,,,,,,,,,,,,,,,,,,,,,,,,,,,,,,,,,,,,,,,,,,,,,,,,,,,,,,,,,,,,,,,,,,,,,,,,,,,,,,,,,,,,,,,,
11,0,11,0,1,16,2020-07-01_10h34.26.640,retriever_ti,2020.1.3,Win32,60,Chrome,1536,864,,,,,,,,,,,,,,,,,,,,,,,,,,,,,,,,,,,,,,,,,,,,,,,,,,,,,,,,,,,,,,,,,,,,,,,,,,,,,,,,,,,,,,,,,,,,,,,,,,
12,0,12,0,1,16,2020-07-01_10h34.26.640,retriever_ti,2020.1.3,Win32,60,Chrome,1536,864,,,,,,,,,,,,,,,,,,,,,,,,,,,,,,,,,,,,,,,,,,,,,,,,,,,,,,,,,,,,,,,,,,,,,,,,,,,,,,,,,,,,,,,,,,,,,,,,,,
13,0,13,0,1,16,2020-07-01_10h34.26.640,retriever_ti,2020.1.3,Win32,60,Chrome,1536,864,,,,,,,,,,,,,,,,,,,,,,,,,,,,,,,,,,,,,,,,,,,,,,,,,,,,,,,,,,,,,,,,,,,,,,,,,,,,,,,,,,,,,,,,,,,,,,,,,,
14,0,14,0,1,16,2020-07-01_10h34.26.640,retriever_ti,2020.1.3,Win32,60,Chrome,1536,864,,,,,,,,,,,,,,,,,,,,,,,,,,,,,,,,,,,,,,,,,,,,,,,,,,,,,,,,,,,,,,,,,,,,,,,,,,,,,,,,,,,,,,,,,,,,,,,,,,
,,,,,16,2020-07-01_10h34.26.640,retriever_ti,2020.1.3,Win32,60,Chrome,1536,864,246.99795,1,NaN,NaN,No_response,2,247.03422,247.03422,249.533575,0,0,0,0,1,2,5,1,html/resources/stimuli_practice_decision/04_beetle.jpg,html/resources/stimuli_practice_decision/02_canary.jpg,beetle,canary,,,,,,,,,,,,,,,,,,,,,,,,,,,,,,,,,,,,,,,,,,,,,,,,,,,,,,,,,,,,,,,,,,,,,,,,,,,,,
,,,,,16,2020-07-01_10h34.26.640,retriever_ti,2020.1.3,Win32,60,Chrome,1536,864,250.081565,2,left,0.518175,rabbit,1,250.11692,250.11692,252.61713,0,1,1,1,1,4,3,1,html/resources/stimuli_practice_decision/01_rabbit.jpg,html/resources/stimuli_practice_decision/07_sock.jpg,rabbit,sock,,,,,,,,,,,,,,,,,,,,,,,,,,,,,,,,,,,,,,,,,,,,,,,,,,,,,,,,,,,,,,,,,,,,,,,,,,,,,
,,,,,16,2020-07-01_10h34.26.640,retriever_ti,2020.1.3,Win32,60,Chrome,1536,864,253.6179,3,right,0.65529,beetle,0,253.65217,253.65217,256.150085,0,2,2,2,1,6,2,1,html/resources/stimuli_practice_decision/06_pullover.jpg,html/resources/stimuli_practice_decision/04_beetle.jpg,pullover,beetle,,,,,,,,,,,,,,,,,,,,,,,,,,,,,,,,,,,,,,,,,,,,,,,,,,,,,,,,,,,,,,,,,,,,,,,,,,,,,
,,,,,16,2020-07-01_10h34.26.640,retriever_ti,2020.1.3,Win32,60,Chrome,1536,864,256.66749,4,right,1.06153,handmixer,0,256.68528,256.68528,259.183325,0,3,3,3,1,7,1,1,html/resources/stimuli_practice_decision/05_glasses.jpg,html/resources/stimuli_practice_decision/08_handmixer.jpg,glasses,handmixer,,,,,,,,,,,,,,,,,,,,,,,,,,,,,,,,,,,,,,,,,,,,,,,,,,,,,,,,,,,,,,,,,,,,,,,,,,,,,
,,,,,16,2020-07-01_10h34.26.640,retriever_ti,2020.1.3,Win32,60,Chrome,1536,864,259.70095,5,left,0.905615,glasses,1,259.719065,259.719065,262.217005,0,4,4,4,1,7,6,1,html/resources/stimuli_practice_decision/05_glasses.jpg,html/resources/stimuli_practice_decision/06_pullover.jpg,glasses,pullover,,,,,,,,,,,,,,,,,,,,,,,,,,,,,,,,,,,,,,,,,,,,,,,,,,,,,,,,,,,,,,,,,,,,,,,,,,,,,
,,,,,16,2020-07-01_10h34.26.640,retriever_ti,2020.1.3,Win32,60,Chrome,1536,864,263.217495,6,left,1.21496,rabbit,0,263.23533,263.23533,265.73317,0,5,5,5,1,4,7,1,html/resources/stimuli_practice_decision/01_rabbit.jpg,html/resources/stimuli_practice_decision/05_glasses.jpg,rabbit,glasses,,,,,,,,,,,,,,,,,,,,,,,,,,,,,,,,,,,,,,,,,,,,,,,,,,,,,,,,,,,,,,,,,,,,,,,,,,,,,
,,,,,16,2020-07-01_10h34.26.640,retriever_ti,2020.1.3,Win32,60,Chrome,1536,864,266.25027,7,left,0.75392,handmixer,0,266.267095,266.267095,268.767025,0,6,6,6,1,1,2,1,html/resources/stimuli_practice_decision/08_handmixer.jpg,html/resources/stimuli_practice_decision/04_beetle.jpg,handmixer,beetle,,,,,,,,,,,,,,,,,,,,,,,,,,,,,,,,,,,,,,,,,,,,,,,,,,,,,,,,,,,,,,,,,,,,,,,,,,,,,
,,,,,16,2020-07-01_10h34.26.640,retriever_ti,2020.1.3,Win32,60,Chrome,1536,864,269.766585,8,left,1.298975,rabbit,1,269.80053,269.80053,272.30032,0,7,7,7,1,4,3,1,html/resources/stimuli_practice_decision/01_rabbit.jpg,html/resources/stimuli_practice_decision/07_sock.jpg,rabbit,sock,,,,,,,,,,,,,,,,,,,,,,,,,,,,,,,,,,,,,,,,,,,,,,,,,,,,,,,,,,,,,,,,,,,,,,,,,,,,,
,,,,,16,2020-07-01_10h34.26.640,retriever_ti,2020.1.3,Win32,60,Chrome,1536,864,,,,,,,,,,,,,,,,,,,,,,left,1,1.586075,1,0,0,0,2,1,html/resources/sequences_IDs/square1.png,star ↑,triangle →,circle ↓,← square,left,,,,,,,,,,,,,,,,,,,,,,,,,,,,,,,,,,,,,,,,,,,,,,,,,,,,,,,,,,,,,,
,,,,,16,2020-07-01_10h34.26.640,retriever_ti,2020.1.3,Win32,60,Chrome,1536,864,,,,,,,,,,,,,,,,,,,,,,up,1,1.17175,1,0,1,1,0,1,html/resources/sequences_IDs/circle.png,circle ↑,square →,triangle ↓,← star ,up,,,,,,,,,,,,,,,,,,,,,,,,,,,,,,,,,,,,,,,,,,,,,,,,,,,,,,,,,,,,,,
,,,,,16,2020-07-01_10h34.26.640,retriever_ti,2020.1.3,Win32,60,Chrome,1536,864,,,,,,,,,,,,,,,,,,,,,,down,1,1.41062,1,0,2,2,1,1,html/resources/sequences_IDs/star.png,square ↑,circle →,star ↓,← triangle,down,,,,,,,,,,,,,,,,,,,,,,,,,,,,,,,,,,,,,,,,,,,,,,,,,,,,,,,,,,,,,,
,,,,,16,2020-07-01_10h34.26.640,retriever_ti,2020.1.3,Win32,60,Chrome,1536,864,,,,,,,,,,,,,,,,,,,,,,down,1,1.188595,1,0,3,3,3,1,html/resources/sequences_IDs/triangle.png,star ↑,square →,triangle ↓,← circle,down,,,,,,,,,,,,,,,,,,,,,,,,,,,,,,,,,,,,,,,,,,,,,,,,,,,,,,,,,,,,,,
,,,,,16,2020-07-01_10h34.26.640,retriever_ti,2020.1.3,Win32,60,Chrome,1536,864,,,,,,,,,,,,,,,,,,,,,,,,,,,,,,,,,,,,,0,9.64709,0,0,0,0,1,,,,,,,,,,,,,,,,,,,,,,,,,,,,,,,,,,,,,,,,,,,,,,,,,,,,,,,
,,,,,16,2020-07-01_10h34.26.640,retriever_ti,2020.1.3,Win32,60,Chrome,1536,864,336.964945,9,right,0.72852,glasses,1,336.983705,336.983705,339.483255,0,0,0,0,1,6,7,1,html/resources/stimuli_practice_decision/06_pullover.jpg,html/resources/stimuli_practice_decision/05_glasses.jpg,pullover,glasses,,,,,,,,,,,,,,,,,,,,,,,,,,,,,,,,,,,,,,,,,,,,,,,,,,,,,,,,,,,,,,,,,,,,,,,,,,,,,
,,,,,16,2020-07-01_10h34.26.640,retriever_ti,2020.1.3,Win32,60,Chrome,1536,864,340.48342,10,left,1.7683,pullover,1,340.500625,340.500625,343.00003,0,1,1,1,1,6,2,1,html/resources/stimuli_practice_decision/06_pullover.jpg,html/resources/stimuli_practice_decision/04_beetle.jpg,pullover,beetle,,,,,,,,,,,,,,,,,,,,,,,,,,,,,,,,,,,,,,,,,,,,,,,,,,,,,,,,,,,,,,,,,,,,,,,,,,,,,
,,,,,16,2020-07-01_10h34.26.640,retriever_ti,2020.1.3,Win32,60,Chrome,1536,864,343.51792,11,left,1.198115,canary,0,343.551725,343.551725,346.050525,0,2,2,2,1,5,6,1,html/resources/stimuli_practice_decision/02_canary.jpg,html/resources/stimuli_practice_decision/06_pullover.jpg,canary,pullover,,,,,,,,,,,,,,,,,,,,,,,,,,,,,,,,,,,,,,,,,,,,,,,,,,,,,,,,,,,,,,,,,,,,,,,,,,,,,
,,,,,16,2020-07-01_10h34.26.640,retriever_ti,2020.1.3,Win32,60,Chrome,1536,864,347.05064,12,right,1.12557,glasses,0,347.085615,347.085615,349.583485,0,3,3,3,1,8,7,1,html/resources/stimuli_practice_decision/03_squirrel.jpg,html/resources/stimuli_practice_decision/05_glasses.jpg,squirrel,glasses,,,,,,,,,,,,,,,,,,,,,,,,,,,,,,,,,,,,,,,,,,,,,,,,,,,,,,,,,,,,,,,,,,,,,,,,,,,,,
,,,,,16,2020-07-01_10h34.26.640,retriever_ti,2020.1.3,Win32,60,Chrome,1536,864,350.584805,13,left,1.879145,canary,1,350.60217,350.60217,353.09977,0,4,4,4,1,5,3,1,html/resources/stimuli_practice_decision/02_canary.jpg,html/resources/stimuli_practice_decision/07_sock.jpg,canary,sock,,,,,,,,,,,,,,,,,,,,,,,,,,,,,,,,,,,,,,,,,,,,,,,,,,,,,,,,,,,,,,,,,,,,,,,,,,,,,
,,,,,16,2020-07-01_10h34.26.640,retriever_ti,2020.1.3,Win32,60,Chrome,1536,864,353.616755,14,left,1.202325,glasses,0,353.65061,353.65061,356.150655,0,5,5,5,1,7,8,1,html/resources/stimuli_practice_decision/05_glasses.jpg,html/resources/stimuli_practice_decision/03_squirrel.jpg,glasses,squirrel,,,,,,,,,,,,,,,,,,,,,,,,,,,,,,,,,,,,,,,,,,,,,,,,,,,,,,,,,,,,,,,,,,,,,,,,,,,,,
,,,,,16,2020-07-01_10h34.26.640,retriever_ti,2020.1.3,Win32,60,Chrome,1536,864,357.15118,15,right,1.159095,rabbit,0,357.16902,357.16902,359.66659,0,6,6,6,1,5,4,1,html/resources/stimuli_practice_decision/02_canary.jpg,html/resources/stimuli_practice_decision/01_rabbit.jpg,canary,rabbit,,,,,,,,,,,,,,,,,,,,,,,,,,,,,,,,,,,,,,,,,,,,,,,,,,,,,,,,,,,,,,,,,,,,,,,,,,,,,
,,,,,16,2020-07-01_10h34.26.640,retriever_ti,2020.1.3,Win32,60,Chrome,1536,864,360.666725,16,right,1.261295,sock,0,360.68395,360.68395,363.183155,0,7,7,7,1,5,3,1,html/resources/stimuli_practice_decision/02_canary.jpg,html/resources/stimuli_practice_decision/07_sock.jpg,canary,sock,,,,,,,,,,,,,,,,,,,,,,,,,,,,,,,,,,,,,,,,,,,,,,,,,,,,,,,,,,,,,,,,,,,,,,,,,,,,,
,,,,,16,2020-07-01_10h34.26.640,retriever_ti,2020.1.3,Win32,60,Chrome,1536,864,,,,,,,,,,,,,,,,,,,,,,down,1,1.33656,1,0,0,0,3,1,html/resources/sequences_IDs/triangle.png,star ↑,square →,triangle ↓,← circle,down,,,,,,,,,,,,,,,,,,,,,,,,,,,,,,,,,,,,,,,,,,,,,,,,,,,,,,,,,,,,,,
,,,,,16,2020-07-01_10h34.26.640,retriever_ti,2020.1.3,Win32,60,Chrome,1536,864,,,,,,,,,,,,,,,,,,,,,,up,1,0.73384,1,0,1,1,0,1,html/resources/sequences_IDs/circle.png,circle ↑,square →,triangle ↓,← star ,up,,,,,,,,,,,,,,,,,,,,,,,,,,,,,,,,,,,,,,,,,,,,,,,,,,,,,,,,,,,,,,
,,,,,16,2020-07-01_10h34.26.640,retriever_ti,2020.1.3,Win32,60,Chrome,1536,864,,,,,,,,,,,,,,,,,,,,,,down,1,1.07662,1,0,2,2,1,1,html/resources/sequences_IDs/star.png,square ↑,circle →,star ↓,← triangle,down,,,,,,,,,,,,,,,,,,,,,,,,,,,,,,,,,,,,,,,,,,,,,,,,,,,,,,,,,,,,,,
,,,,,16,2020-07-01_10h34.26.640,retriever_ti,2020.1.3,Win32,60,Chrome,1536,864,,,,,,,,,,,,,,,,,,,,,,left,1,0.94501,1,0,3,3,2,1,html/resources/sequences_IDs/square1.png,star ↑,triangle →,circle ↓,← square,left,,,,,,,,,,,,,,,,,,,,,,,,,,,,,,,,,,,,,,,,,,,,,,,,,,,,,,,,,,,,,,
,,,,,16,2020-07-01_10h34.26.640,retriever_ti,2020.1.3,Win32,60,Chrome,1536,864,,,,,,,,,,,,,,,,,,,,,,,,,,,,,,,,,,,,,0,2.356495,1,0,1,0,1,,,,,,,,,,,,,,,,,,,,,,,,,,,,,,,,,,,,,,,,,,,,,,,,,,,,,,,
,,,,,16,2020-07-01_10h34.26.640,retriever_ti,2020.1.3,Win32,60,Chrome,1536,864,,,,,,,,,,,,,,,,,1,,,,,,,,,,,,,,,,,,,,,,,,,,,401.94698,1,left,1.1882,radio       ,4,10,-3,0,3,401.96775,401.96775,404.466915,0,0,0,0,1,1,4,7,radio       ,seaturtle     ,html/resources/sequences_IDs/B/10_radio.jpg,html/resources/sequences_IDs/A/02_seaturtle.jpg,10,2,4,2,2,1,8,2,0,16,,,,,,,,,,,,,,,,,,,,
,,,,,16,2020-07-01_10h34.26.640,retriever_ti,2020.1.3,Win32,60,Chrome,1536,864,,,,,,,,,,,,,,,,,1,,,,,,,,,,,,,,,,,,,,,,,,,,,405.084135,2,right,0.747125,seaturtle     ,7,2,-1,0,0,405.10067,405.10067,407.600715,0,1,1,1,1,2,8,7,phone       ,seaturtle     ,html/resources/sequences_IDs/B/09_phone.jpg,html/resources/sequences_IDs/A/02_seaturtle.jpg,9,2,4,2,2,1,7,2,0,16,,,,,,,,,,,,,,,,,,,,
,,,,,16,2020-07-01_10h34.26.640,retriever_ti,2020.1.3,Win32,60,Chrome,1536,864,,,,,,,,,,,,,,,,,1,,,,,,,,,,,,,,,,,,,,,,,,,,,408.70131,3,left,1.00238,gloves      ,2,6,-1,0,1,408.718715,408.718715,411.216515,0,2,2,2,1,3,2,3,gloves      ,wolf          ,html/resources/sequences_IDs/B/06_gloves.jpg,html/resources/sequences_IDs/A/01_wolf.jpg,6,1,3,2,1,1,5,1,1,16,,,,,,,,,,,,,,,,,,,,
,,,,,16,2020-07-01_10h34.26.640,retriever_ti,2020.1.3,Win32,60,Chrome,1536,864,,,,,,,,,,,,,,,,,1,,,,,,,,,,,,,,,,,,,,,,,,,,,412.31685,4,left,1.017905,gloves      ,2,6,-4,0,3,412.33403,412.33403,414.833225,0,3,3,3,1,4,2,6,gloves      ,slipper     ,html/resources/sequences_IDs/B/06_gloves.jpg,html/resources/sequences_IDs/B/08_slipper.jpg,6,8,3,2,3,2,5,6,0,16,,,,,,,,,,,,,,,,,,,,
,,,,,16,2020-07-01_10h34.26.640,retriever_ti,2020.1.3,Win32,60,Chrome,1536,864,,,,,,,,,,,,,,,,,1,,,,,,,,,,,,,,,,,,,,,,,,,,,415.4504,5,right,1.18989,camel         ,5,3,-2,0,3,415.48384,415.48384,417.983215,0,4,4,4,1,5,7,5,seaturtle     ,camel         ,html/resources/sequences_IDs/A/02_seaturtle.jpg,html/resources/sequences_IDs/A/03_camel.jpg,2,3,2,1,1,1,2,3,0,16,,,,,,,,,,,,,,,,,,,,
,,,,,16,2020-07-01_10h34.26.640,retriever_ti,2020.1.3,Win32,60,Chrome,1536,864,,,,,,,,,,,,,,,,,1,,,,,,,,,,,,,,,,,,,,,,,,,,,418.60017,6,right,0.84757,wolf          ,3,1,-4,0,3,418.617425,418.617425,421.116425,0,5,5,5,1,6,7,3,seaturtle     ,wolf          ,html/resources/sequences_IDs/A/02_seaturtle.jpg,html/resources/sequences_IDs/A/01_wolf.jpg,2,1,2,1,1,1,2,1,0,16,,,,,,,,,,,,,,,,,,,,
,,,,,16,2020-07-01_10h34.26.640,retriever_ti,2020.1.3,Win32,60,Chrome,1536,864,,,,,,,,,,,,,,,,,1,,,,,,,,,,,,,,,,,,,,,,,,,,,421.717285,7,left,1.061275,camel         ,5,3,-1,0,0,421.73396,421.73396,424.233445,0,6,6,6,1,7,5,6,camel         ,slipper     ,html/resources/sequences_IDs/A/03_camel.jpg,html/resources/sequences_IDs/B/08_slipper.jpg,3,8,1,1,3,2,3,6,0,16,,,,,,,,,,,,,,,,,,,,
,,,,,16,2020-07-01_10h34.26.640,retriever_ti,2020.1.3,Win32,60,Chrome,1536,864,,,,,,,,,,,,,,,,,1,,,,,,,,,,,,,,,,,,,,,,,,,,,425.33426,8,right,2.160985,gloves      ,2,6,-1,0,0,425.3688,425.3688,427.86693,0,7,7,7,1,8,3,2,wolf          ,gloves      ,html/resources/sequences_IDs/A/01_wolf.jpg,html/resources/sequences_IDs/B/06_gloves.jpg,1,6,1,1,3,2,1,5,0,16,,,,,,,,,,,,,,,,,,,,
,,,,,16,2020-07-01_10h34.26.640,retriever_ti,2020.1.3,Win32,60,Chrome,1536,864,,,,,,,,,,,,,,,,,1,,,,,,,,,,,,,,,,,,,,,,,,,,,428.968035,9,right,1.755835,wolf          ,3,1,-2,0,3,429.00207,429.00207,431.500495,0,8,8,8,1,9,5,3,camel         ,wolf          ,html/resources/sequences_IDs/A/03_camel.jpg,html/resources/sequences_IDs/A/01_wolf.jpg,3,1,1,1,1,1,3,1,0,16,,,,,,,,,,,,,,,,,,,,
,,,,,16,2020-07-01_10h34.26.640,retriever_ti,2020.1.3,Win32,60,Chrome,1536,864,,,,,,,,,,,,,,,,,1,,,,,,,,,,,,,,,,,,,,,,,,,,,432.117735,10,left,1.34587,slipper     ,6,8,-1,0,1,432.135395,432.135395,434.633225,0,9,9,9,1,10,6,7,slipper     ,seaturtle     ,html/resources/sequences_IDs/B/08_slipper.jpg,html/resources/sequences_IDs/A/02_seaturtle.jpg,8,2,3,2,2,1,6,2,1,16,,,,,,,,,,,,,,,,,,,,
,,,,,16,2020-07-01_10h34.26.640,retriever_ti,2020.1.3,Win32,60,Chrome,1536,864,,,,,,,,,,,,,,,,,1,,,,,,,,,,,,,,,,,,,,,,,,,,,435.733935,11,left,2.181105,gloves      ,2,6,-1,0,0,435.767365,435.767365,438.26661,0,10,10,10,1,11,2,3,gloves      ,wolf          ,html/resources/sequences_IDs/B/06_gloves.jpg,html/resources/sequences_IDs/A/01_wolf.jpg,6,1,3,2,1,1,5,1,0,16,,,,,,,,,,,,,,,,,,,,
,,,,,16,2020-07-01_10h34.26.640,retriever_ti,2020.1.3,Win32,60,Chrome,1536,864,,,,,,,,,,,,,,,,,1,,,,,,,,,,,,,,,,,,,,,,,,,,,439.3668,12,left,2.227635,seaturtle     ,7,2,-1,0,0,439.383935,439.383935,441.88334,0,11,11,11,1,12,7,8,seaturtle     ,phone       ,html/resources/sequences_IDs/A/02_seaturtle.jpg,html/resources/sequences_IDs/B/09_phone.jpg,2,9,2,1,4,2,2,7,0,16,,,,,,,,,,,,,,,,,,,,
,,,,,16,2020-07-01_10h34.26.640,retriever_ti,2020.1.3,Win32,60,Chrome,1536,864,,,,,,,,,,,,,,,,,1,,,,,,,,,,,,,,,,,,,,,,,,,,,442.984625,13,left,1.599475,wolf          ,3,1,-1,0,0,443.001835,443.001835,445.499965,0,12,12,12,1,13,3,4,wolf          ,radio       ,html/resources/sequences_IDs/A/01_wolf.jpg,html/resources/sequences_IDs/B/10_radio.jpg,1,10,1,1,4,2,1,8,0,16,,,,,,,,,,,,,,,,,,,,
,,,,,16,2020-07-01_10h34.26.640,retriever_ti,2020.1.3,Win32,60,Chrome,1536,864,,,,,,,,,,,,,,,,,1,,,,,,,,,,,,,,,,,,,,,,,,,,,446.600255,14,left,1.27397,peacock       ,1,5,-4,0,3,446.617365,446.617365,449.11652,0,13,13,13,1,14,1,5,peacock       ,camel         ,html/resources/sequences_IDs/A/05_peacock.jpg,html/resources/sequences_IDs/A/03_camel.jpg,5,3,2,1,1,1,4,3,0,16,,,,,,,,,,,,,,,,,,,,
,,,,,16,2020-07-01_10h34.26.640,retriever_ti,2020.1.3,Win32,60,Chrome,1536,864,,,,,,,,,,,,,,,,,1,,,,,,,,,,,,,,,,,,,,,,,,,,,449.717375,15,left,1.36996,gloves      ,2,6,1,1,1,449.75066,449.75066,452.249985,0,14,14,14,1,15,2,1,gloves      ,peacock       ,html/resources/sequences_IDs/B/06_gloves.jpg,html/resources/sequences_IDs/A/05_peacock.jpg,6,5,3,2,2,1,5,4,0,16,,,,,,,,,,,,,,,,,,,,
,,,,,16,2020-07-01_10h34.26.640,retriever_ti,2020.1.3,Win32,60,Chrome,1536,864,,,,,,,,,,,,,,,,,1,,,,,,,,,,,,,,,,,,,,,,,,,,,453.350225,16,right,1.350195,gloves      ,2,6,-4,0,3,453.367255,453.367255,455.866635,0,15,15,15,1,16,6,2,slipper     ,gloves      ,html/resources/sequences_IDs/B/08_slipper.jpg,html/resources/sequences_IDs/B/06_gloves.jpg,8,6,3,2,3,2,6,5,0,16,,,,,,,,,,,,,,,,,,,,
,,,,,16,2020-07-01_10h34.26.640,retriever_ti,2020.1.3,Win32,60,Chrome,1536,864,,,,,,,,,,,,,,,,,1,,,,,,,,,,,,,,,,,,,,,,,,,,,456.483855,17,left,1.117445,wolf          ,3,1,-2,0,3,456.517155,456.517155,459.01663,0,16,16,16,1,17,3,5,wolf          ,camel         ,html/resources/sequences_IDs/A/01_wolf.jpg,html/resources/sequences_IDs/A/03_camel.jpg,1,3,1,1,1,1,1,3,0,16,,,,,,,,,,,,,,,,,,,,
,,,,,16,2020-07-01_10h34.26.640,retriever_ti,2020.1.3,Win32,60,Chrome,1536,864,,,,,,,,,,,,,,,,,1,,,,,,,,,,,,,,,,,,,,,,,,,,,459.63357,18,left,0.90542,phone       ,8,9,4,1,3,459.65069,459.65069,462.149925,0,17,17,17,1,18,8,4,phone       ,radio       ,html/resources/sequences_IDs/B/09_phone.jpg,html/resources/sequences_IDs/B/10_radio.jpg,9,10,4,2,4,2,7,8,0,16,,,,,,,,,,,,,,,,,,,,
,,,,,16,2020-07-01_10h34.26.640,retriever_ti,2020.1.3,Win32,60,Chrome,1536,864,,,,,,,,,,,,,,,,,1,,,,,,,,,,,,,,,,,,,,,,,,,,,462.76721,19,left,1.03724,radio       ,4,10,1,1,1,462.784025,462.784025,465.283155,0,18,18,18,1,19,4,3,radio       ,wolf          ,html/resources/sequences_IDs/B/10_radio.jpg,html/resources/sequences_IDs/A/01_wolf.jpg,10,1,4,2,1,1,8,1,0,16,,,,,,,,,,,,,,,,,,,,
,,,,,16,2020-07-01_10h34.26.640,retriever_ti,2020.1.3,Win32,60,Chrome,1536,864,,,,,,,,,,,,,,,,,1,,,,,,,,,,,,,,,,,,,,,,,,,,,466.383585,20,left,1.498785,peacock       ,1,5,-5,0,3,466.400625,466.400625,468.900255,0,19,19,19,1,20,1,6,peacock       ,slipper     ,html/resources/sequences_IDs/A/05_peacock.jpg,html/resources/sequences_IDs/B/08_slipper.jpg,5,8,2,1,3,2,4,6,0,16,,,,,,,,,,,,,,,,,,,,
,,,,,16,2020-07-01_10h34.26.640,retriever_ti,2020.1.3,Win32,60,Chrome,1536,864,,,,,,,,,,,,,,,,,1,,,,,,,,,,,,,,,,,,,,,,,,,,,469.51806,21,left,1.5434,slipper     ,6,8,1,1,1,469.552035,469.552035,472.04997,0,20,20,20,1,21,6,5,slipper     ,camel         ,html/resources/sequences_IDs/B/08_slipper.jpg,html/resources/sequences_IDs/A/03_camel.jpg,8,3,3,2,1,1,6,3,0,16,,,,,,,,,,,,,,,,,,,,
,,,,,16,2020-07-01_10h34.26.640,retriever_ti,2020.1.3,Win32,60,Chrome,1536,864,,,,,,,,,,,,,,,,,1,,,,,,,,,,,,,,,,,,,,,,,,,,,473.150235,22,left,1.17917,wolf          ,3,1,-4,0,3,473.18393,473.18393,475.68333,0,21,21,21,1,22,3,7,wolf          ,seaturtle     ,html/resources/sequences_IDs/A/01_wolf.jpg,html/resources/sequences_IDs/A/02_seaturtle.jpg,1,2,1,1,2,1,1,2,0,16,,,,,,,,,,,,,,,,,,,,
,,,,,16,2020-07-01_10h34.26.640,retriever_ti,2020.1.3,Win32,60,Chrome,1536,864,,,,,,,,,,,,,,,,,1,,,,,,,,,,,,,,,,,,,,,,,,,,,476.30057,23,left,1.094715,wolf          ,3,1,1,1,1,476.334055,476.334055,478.83324,0,22,22,22,1,23,3,2,wolf          ,gloves      ,html/resources/sequences_IDs/A/01_wolf.jpg,html/resources/sequences_IDs/B/06_gloves.jpg,1,6,1,1,3,2,1,5,0,16,,,,,,,,,,,,,,,,,,,,
,,,,,16,2020-07-01_10h34.26.640,retriever_ti,2020.1.3,Win32,60,Chrome,1536,864,,,,,,,,,,,,,,,,,1,,,,,,,,,,,,,,,,,,,,,,,,,,,479.9336,24,left,0.99961,peacock       ,1,5,-2,0,3,479.967395,479.967395,482.466635,0,23,23,23,1,24,1,3,peacock       ,wolf          ,html/resources/sequences_IDs/A/05_peacock.jpg,html/resources/sequences_IDs/A/01_wolf.jpg,5,1,2,1,1,1,4,1,0,16,,,,,,,,,,,,,,,,,,,,
,,,,,16,2020-07-01_10h34.26.640,retriever_ti,2020.1.3,Win32,60,Chrome,1536,864,,,,,,,,,,,,,,,,,1,,,,,,,,,,,,,,,,,,,,,,,,,,,483.0839,25,right,1.228505,slipper     ,6,8,-2,0,3,483.117335,483.117335,485.61664,0,24,24,24,1,25,8,6,phone       ,slipper     ,html/resources/sequences_IDs/B/09_phone.jpg,html/resources/sequences_IDs/B/08_slipper.jpg,9,8,4,2,3,2,7,6,0,16,,,,,,,,,,,,,,,,,,,,
,,,,,16,2020-07-01_10h34.26.640,retriever_ti,2020.1.3,Win32,60,Chrome,1536,864,,,,,,,,,,,,,,,,,1,,,,,,,,,,,,,,,,,,,,,,,,,,,486.23362,26,left,1.292385,camel         ,5,3,-3,0,3,486.267325,486.267325,488.76696,0,25,25,25,1,26,5,8,camel         ,phone       ,html/resources/sequences_IDs/A/03_camel.jpg,html/resources/sequences_IDs/B/09_phone.jpg,3,9,1,1,4,2,3,7,0,16,,,,,,,,,,,,,,,,,,,,
,,,,,16,2020-07-01_10h34.26.640,retriever_ti,2020.1.3,Win32,60,Chrome,1536,864,,,,,,,,,,,,,,,,,1,,,,,,,,,,,,,,,,,,,,,,,,,,,489.38476,27,left,0.96041,seaturtle     ,7,2,-1,0,0,489.418685,489.418685,491.91725,0,26,26,26,1,27,7,8,seaturtle     ,phone       ,html/resources/sequences_IDs/A/02_seaturtle.jpg,html/resources/sequences_IDs/B/09_phone.jpg,2,9,2,1,4,2,2,7,0,16,,,,,,,,,,,,,,,,,,,,
,,,,,16,2020-07-01_10h34.26.640,retriever_ti,2020.1.3,Win32,60,Chrome,1536,864,,,,,,,,,,,,,,,,,1,,,,,,,,,,,,,,,,,,,,,,,,,,,493.01781,28,left,1.52806,wolf          ,3,1,2,1,3,493.052075,493.052075,495.54998,0,27,27,27,1,28,3,1,wolf          ,peacock       ,html/resources/sequences_IDs/A/01_wolf.jpg,html/resources/sequences_IDs/A/05_peacock.jpg,1,5,1,1,2,1,1,4,0,16,,,,,,,,,,,,,,,,,,,,
,,,,,16,2020-07-01_10h34.26.640,retriever_ti,2020.1.3,Win32,60,Chrome,1536,864,,,,,,,,,,,,,,,,,1,,,,,,,,,,,,,,,,,,,,,,,,,,,496.167365,29,left,1.18274,peacock       ,1,5,-1,0,0,496.184075,496.184075,498.683265,0,28,28,28,1,29,1,2,peacock       ,gloves      ,html/resources/sequences_IDs/A/05_peacock.jpg,html/resources/sequences_IDs/B/06_gloves.jpg,5,6,2,1,3,2,4,5,0,16,,,,,,,,,,,,,,,,,,,,
,,,,,16,2020-07-01_10h34.26.640,retriever_ti,2020.1.3,Win32,60,Chrome,1536,864,,,,,,,,,,,,,,,,,1,,,,,,,,,,,,,,,,,,,,,,,,,,,499.783615,30,left,1.078565,phone       ,8,9,1,1,1,499.81738,499.81738,502.31655,0,29,29,29,1,30,8,7,phone       ,seaturtle     ,html/resources/sequences_IDs/B/09_phone.jpg,html/resources/sequences_IDs/A/02_seaturtle.jpg,9,2,4,2,2,1,7,2,0,16,,,,,,,,,,,,,,,,,,,,
,,,,,16,2020-07-01_10h34.26.640,retriever_ti,2020.1.3,Win32,60,Chrome,1536,864,,,,,,,,,,,,,,,,,1,,,,,,,,,,,,,,,,,,,,,,,,,,,503.417315,31,NaN,NaN,No_response,NaN,NaN,NaN,2,2,503.45076,503.45076,505.94998,0,30,30,30,1,31,5,1,camel         ,peacock       ,html/resources/sequences_IDs/A/03_camel.jpg,html/resources/sequences_IDs/A/05_peacock.jpg,3,5,1,1,2,1,3,4,0,16,,,,,,,,,,,,,,,,,,,,
,,,,,16,2020-07-01_10h34.26.640,retriever_ti,2020.1.3,Win32,60,Chrome,1536,864,,,,,,,,,,,,,,,,,1,,,,,,,,,,,,,,,,,,,,,,,,,,,507.050335,32,left,0.501955,gloves      ,2,6,-3,0,3,507.084075,507.084075,509.583975,0,31,31,31,1,32,2,5,gloves      ,camel         ,html/resources/sequences_IDs/B/06_gloves.jpg,html/resources/sequences_IDs/A/03_camel.jpg,6,3,3,2,1,1,5,3,0,16,,,,,,,,,,,,,,,,,,,,
,,,,,16,2020-07-01_10h34.26.640,retriever_ti,2020.1.3,Win32,60,Chrome,1536,864,,,,,,,,,,,,,,,,,1,,,,,,,,,,,,,,,,,,,,,,,,,,,510.201425,33,left,1.45629,seaturtle     ,7,2,5,1,3,510.21916,510.21916,512.717335,0,32,32,32,1,33,7,2,seaturtle     ,gloves      ,html/resources/sequences_IDs/A/02_seaturtle.jpg,html/resources/sequences_IDs/B/06_gloves.jpg,2,6,2,1,3,2,2,5,0,16,,,,,,,,,,,,,,,,,,,,
,,,,,16,2020-07-01_10h34.26.640,retriever_ti,2020.1.3,Win32,60,Chrome,1536,864,,,,,,,,,,,,,,,,,1,,,,,,,,,,,,,,,,,,,,,,,,,,,513.334615,34,left,0.81932,radio       ,4,10,-1,0,0,513.352675,513.352675,515.849885,0,33,33,33,1,34,4,5,radio       ,camel         ,html/resources/sequences_IDs/B/10_radio.jpg,html/resources/sequences_IDs/A/03_camel.jpg,10,3,4,2,1,1,8,3,0,16,,,,,,,,,,,,,,,,,,,,
,,,,,16,2020-07-01_10h34.26.640,retriever_ti,2020.1.3,Win32,60,Chrome,1536,864,,,,,,,,,,,,,,,,,1,,,,,,,,,,,,,,,,,,,,,,,,,,,516.950715,35,left,1.6348,gloves      ,2,6,-2,0,3,516.96746,516.96746,519.467345,0,34,34,34,1,35,2,4,gloves      ,radio       ,html/resources/sequences_IDs/B/06_gloves.jpg,html/resources/sequences_IDs/B/10_radio.jpg,6,10,3,2,4,2,5,8,0,16,,,,,,,,,,,,,,,,,,,,
,,,,,16,2020-07-01_10h34.26.640,retriever_ti,2020.1.3,Win32,60,Chrome,1536,864,,,,,,,,,,,,,,,,,1,,,,,,,,,,,,,,,,,,,,,,,,,,,520.08446,36,left,0.839325,seaturtle     ,7,2,6,1,3,520.102245,520.102245,522.60006,0,35,35,35,1,36,7,1,seaturtle     ,peacock       ,html/resources/sequences_IDs/A/02_seaturtle.jpg,html/resources/sequences_IDs/A/05_peacock.jpg,2,5,2,1,2,1,2,4,0,16,,,,,,,,,,,,,,,,,,,,
,,,,,16,2020-07-01_10h34.26.640,retriever_ti,2020.1.3,Win32,60,Chrome,1536,864,,,,,,,,,,,,,,,,,1,,,,,,,,,,,,,,,,,,,,,,,,,,,523.217405,37,left,0.76274,gloves      ,2,6,-1,0,0,523.23393,523.23393,525.73336,0,36,36,36,1,37,2,3,gloves      ,wolf          ,html/resources/sequences_IDs/B/06_gloves.jpg,html/resources/sequences_IDs/A/01_wolf.jpg,6,1,3,2,1,1,5,1,0,16,,,,,,,,,,,,,,,,,,,,
,,,,,16,2020-07-01_10h34.26.640,retriever_ti,2020.1.3,Win32,60,Chrome,1536,864,,,,,,,,,,,,,,,,,1,,,,,,,,,,,,,,,,,,,,,,,,,,,526.8336,38,left,0.86301,slipper     ,6,8,-2,0,3,526.86749,526.86749,529.366725,0,37,37,37,1,38,6,8,slipper     ,phone       ,html/resources/sequences_IDs/B/08_slipper.jpg,html/resources/sequences_IDs/B/09_phone.jpg,8,9,3,2,4,2,6,7,0,16,,,,,,,,,,,,,,,,,,,,
,,,,,16,2020-07-01_10h34.26.640,retriever_ti,2020.1.3,Win32,60,Chrome,1536,864,,,,,,,,,,,,,,,,,1,,,,,,,,,,,,,,,,,,,,,,,,,,,529.98406,39,left,1.447165,slipper     ,6,8,1,1,1,530.00078,530.00078,532.50004,0,38,38,38,1,39,6,5,slipper     ,camel         ,html/resources/sequences_IDs/B/08_slipper.jpg,html/resources/sequences_IDs/A/03_camel.jpg,8,3,3,2,1,1,6,3,0,16,,,,,,,,,,,,,,,,,,,,
,,,,,16,2020-07-01_10h34.26.640,retriever_ti,2020.1.3,Win32,60,Chrome,1536,864,,,,,,,,,,,,,,,,,1,,,,,,,,,,,,,,,,,,,,,,,,,,,533.60023,40,left,1.799665,camel         ,5,3,3,1,3,533.63403,533.63403,536.13335,0,39,39,39,1,40,5,2,camel         ,gloves      ,html/resources/sequences_IDs/A/03_camel.jpg,html/resources/sequences_IDs/B/06_gloves.jpg,3,6,1,1,3,2,3,5,0,16,,,,,,,,,,,,,,,,,,,,
,,,,,16,2020-07-01_10h34.26.640,retriever_ti,2020.1.3,Win32,60,Chrome,1536,864,,,,,,,,,,,,,,,,,1,,,,,,,,,,,,,,,,,,,,,,,,,,,536.75074,41,left,0.77461,radio       ,4,10,1,1,1,536.78411,536.78411,539.283245,0,40,40,40,1,41,4,3,radio       ,wolf          ,html/resources/sequences_IDs/B/10_radio.jpg,html/resources/sequences_IDs/A/01_wolf.jpg,10,1,4,2,1,1,8,1,0,16,,,,,,,,,,,,,,,,,,,,
,,,,,16,2020-07-01_10h34.26.640,retriever_ti,2020.1.3,Win32,60,Chrome,1536,864,,,,,,,,,,,,,,,,,1,,,,,,,,,,,,,,,,,,,,,,,,,,,540.38373,42,left,1.327435,radio       ,4,10,-4,0,3,540.417465,540.417465,542.917345,0,41,41,41,1,42,4,8,radio       ,phone       ,html/resources/sequences_IDs/B/10_radio.jpg,html/resources/sequences_IDs/B/09_phone.jpg,10,9,4,2,4,2,8,7,0,16,,,,,,,,,,,,,,,,,,,,
,,,,,16,2020-07-01_10h34.26.640,retriever_ti,2020.1.3,Win32,60,Chrome,1536,864,,,,,,,,,,,,,,,,,1,,,,,,,,,,,,,,,,,,,,,,,,,,,543.534965,43,left,2.06965,gloves      ,2,6,1,1,1,543.552445,543.552445,546.05044,0,42,42,42,1,43,2,1,gloves      ,peacock       ,html/resources/sequences_IDs/B/06_gloves.jpg,html/resources/sequences_IDs/A/05_peacock.jpg,6,5,3,2,2,1,5,4,0,16,,,,,,,,,,,,,,,,,,,,
,,,,,16,2020-07-01_10h34.26.640,retriever_ti,2020.1.3,Win32,60,Chrome,1536,864,,,,,,,,,,,,,,,,,1,,,,,,,,,,,,,,,,,,,,,,,,,,,547.151335,44,left,1.857005,phone       ,8,9,5,1,3,547.1689,547.1689,549.666635,0,43,43,43,1,44,8,3,phone       ,wolf          ,html/resources/sequences_IDs/B/09_phone.jpg,html/resources/sequences_IDs/A/01_wolf.jpg,9,1,4,2,1,1,7,1,0,16,,,,,,,,,,,,,,,,,,,,
,,,,,16,2020-07-01_10h34.26.640,retriever_ti,2020.1.3,Win32,60,Chrome,1536,864,,,,,,,,,,,,,,,,,1,,,,,,,,,,,,,,,,,,,,,,,,,,,550.267455,45,left,0.912515,slipper     ,6,8,3,1,3,550.28413,550.28413,552.783675,0,44,44,44,1,45,6,3,slipper     ,wolf          ,html/resources/sequences_IDs/B/08_slipper.jpg,html/resources/sequences_IDs/A/01_wolf.jpg,8,1,3,2,1,1,6,1,0,16,,,,,,,,,,,,,,,,,,,,
,,,,,16,2020-07-01_10h34.26.640,retriever_ti,2020.1.3,Win32,60,Chrome,1536,864,,,,,,,,,,,,,,,,,1,,,,,,,,,,,,,,,,,,,,,,,,,,,553.401395,46,left,1.614895,gloves      ,2,6,-6,0,3,553.435415,553.435415,555.93406,0,45,45,45,1,46,2,8,gloves      ,phone       ,html/resources/sequences_IDs/B/06_gloves.jpg,html/resources/sequences_IDs/B/09_phone.jpg,6,9,3,2,4,2,5,7,0,16,,,,,,,,,,,,,,,,,,,,
,,,,,16,2020-07-01_10h34.26.640,retriever_ti,2020.1.3,Win32,60,Chrome,1536,864,,,,,,,,,,,,,,,,,1,,,,,,,,,,,,,,,,,,,,,,,,,,,556.551905,47,left,1.011275,phone       ,8,9,7,1,3,556.568955,556.568955,559.06717,0,46,46,46,1,47,8,1,phone       ,peacock       ,html/resources/sequences_IDs/B/09_phone.jpg,html/resources/sequences_IDs/A/05_peacock.jpg,9,5,4,2,2,1,7,4,0,16,,,,,,,,,,,,,,,,,,,,
,,,,,16,2020-07-01_10h34.26.640,retriever_ti,2020.1.3,Win32,60,Chrome,1536,864,,,,,,,,,,,,,,,,,1,,,,,,,,,,,,,,,,,,,,,,,,,,,559.6845,48,left,1.12836,slipper     ,6,8,-1,0,0,559.71886,559.71886,562.216855,0,47,47,47,1,48,6,7,slipper     ,seaturtle     ,html/resources/sequences_IDs/B/08_slipper.jpg,html/resources/sequences_IDs/A/02_seaturtle.jpg,8,2,3,2,2,1,6,2,0,16,,,,,,,,,,,,,,,,,,,,
,,,,,16,2020-07-01_10h34.26.640,retriever_ti,2020.1.3,Win32,60,Chrome,1536,864,,,,,,,,,,,,,,,,,1,,,,,,,,,,,,,,,,,,,,,,,,,,,563.318055,49,right,0.914135,radio       ,4,10,3,1,3,563.335975,563.335975,565.83343,0,48,48,48,1,49,1,4,peacock       ,radio       ,html/resources/sequences_IDs/A/05_peacock.jpg,html/resources/sequences_IDs/B/10_radio.jpg,5,10,2,1,4,2,4,8,0,16,,,,,,,,,,,,,,,,,,,,
,,,,,16,2020-07-01_10h34.26.640,retriever_ti,2020.1.3,Win32,60,Chrome,1536,864,,,,,,,,,,,,,,,,,1,,,,,,,,,,,,,,,,,,,,,,,,,,,566.450315,50,left,1.51053,phone       ,8,9,3,1,3,566.4674,566.4674,568.967355,0,49,49,49,1,50,8,5,phone       ,camel         ,html/resources/sequences_IDs/B/09_phone.jpg,html/resources/sequences_IDs/A/03_camel.jpg,9,3,4,2,1,1,7,3,0,16,,,,,,,,,,,,,,,,,,,,
,,,,,16,2020-07-01_10h34.26.640,retriever_ti,2020.1.3,Win32,60,Chrome,1536,864,,,,,,,,,,,,,,,,,1,,,,,,,,,,,,,,,,,,,,,,,,,,,569.584595,51,left,0.981465,peacock       ,1,5,-6,0,3,569.60219,569.60219,572.10042,0,50,50,50,1,51,1,7,peacock       ,seaturtle     ,html/resources/sequences_IDs/A/05_peacock.jpg,html/resources/sequences_IDs/A/02_seaturtle.jpg,5,2,2,1,2,1,4,2,0,16,,,,,,,,,,,,,,,,,,,,
,,,,,16,2020-07-01_10h34.26.640,retriever_ti,2020.1.3,Win32,60,Chrome,1536,864,,,,,,,,,,,,,,,,,1,,,,,,,,,,,,,,,,,,,,,,,,,,,572.71776,52,right,1.006015,slipper     ,6,8,-1,0,0,572.75251,572.75251,575.250095,0,51,51,51,1,52,7,6,seaturtle     ,slipper     ,html/resources/sequences_IDs/A/02_seaturtle.jpg,html/resources/sequences_IDs/B/08_slipper.jpg,2,8,2,1,3,2,2,6,0,16,,,,,,,,,,,,,,,,,,,,
,,,,,16,2020-07-01_10h34.26.640,retriever_ti,2020.1.3,Win32,60,Chrome,1536,864,,,,,,,,,,,,,,,,,1,,,,,,,,,,,,,,,,,,,,,,,,,,,576.350775,53,left,1.56518,phone       ,8,9,1,1,0,576.36748,576.36748,578.86681,0,52,52,52,1,53,8,7,phone       ,seaturtle     ,html/resources/sequences_IDs/B/09_phone.jpg,html/resources/sequences_IDs/A/02_seaturtle.jpg,9,2,4,2,2,1,7,2,1,16,,,,,,,,,,,,,,,,,,,,
,,,,,16,2020-07-01_10h34.26.640,retriever_ti,2020.1.3,Win32,60,Chrome,1536,864,,,,,,,,,,,,,,,,,1,,,,,,,,,,,,,,,,,,,,,,,,,,,579.96704,54,left,0.994435,gloves      ,2,6,1,1,0,579.98398,579.98398,582.483815,0,53,53,53,1,54,2,1,gloves      ,peacock       ,html/resources/sequences_IDs/B/06_gloves.jpg,html/resources/sequences_IDs/A/05_peacock.jpg,6,5,3,2,2,1,5,4,1,16,,,,,,,,,,,,,,,,,,,,
,,,,,16,2020-07-01_10h34.26.640,retriever_ti,2020.1.3,Win32,60,Chrome,1536,864,,,,,,,,,,,,,,,,,1,,,,,,,,,,,,,,,,,,,,,,,,,,,583.584595,55,right,0.95977,slipper     ,6,8,-1,0,0,583.61861,583.61861,586.116705,0,54,54,54,1,55,7,6,seaturtle     ,slipper     ,html/resources/sequences_IDs/A/02_seaturtle.jpg,html/resources/sequences_IDs/B/08_slipper.jpg,2,8,2,1,3,2,2,6,0,16,,,,,,,,,,,,,,,,,,,,
,,,,,16,2020-07-01_10h34.26.640,retriever_ti,2020.1.3,Win32,60,Chrome,1536,864,,,,,,,,,,,,,,,,,1,,,,,,,,,,,,,,,,,,,,,,,,,,,587.216955,56,NaN,NaN,No_response,NaN,NaN,NaN,2,2,587.250655,587.250655,589.75015,0,55,55,55,1,56,5,7,camel         ,seaturtle     ,html/resources/sequences_IDs/A/03_camel.jpg,html/resources/sequences_IDs/A/02_seaturtle.jpg,3,2,1,1,2,1,3,2,0,16,,,,,,,,,,,,,,,,,,,,
,,,,,16,2020-07-01_10h34.26.640,retriever_ti,2020.1.3,Win32,60,Chrome,1536,864,,,,,,,,,,,,,,,,,1,,,,,,,,,,,,,,,,,,,,,,,,,,,590.85089,57,left,0.565235,radio       ,4,10,1,1,0,590.867575,590.867575,593.366705,0,56,56,56,1,57,4,3,radio       ,wolf          ,html/resources/sequences_IDs/B/10_radio.jpg,html/resources/sequences_IDs/A/01_wolf.jpg,10,1,4,2,1,1,8,1,1,16,,,,,,,,,,,,,,,,,,,,
,,,,,16,2020-07-01_10h34.26.640,retriever_ti,2020.1.3,Win32,60,Chrome,1536,864,,,,,,,,,,,,,,,,,1,,,,,,,,,,,,,,,,,,,,,,,,,,,594.466925,58,left,1.19055,camel         ,5,3,-1,0,0,594.500605,594.500605,597.00007,0,57,57,57,1,58,5,6,camel         ,slipper     ,html/resources/sequences_IDs/A/03_camel.jpg,html/resources/sequences_IDs/B/08_slipper.jpg,3,8,1,1,3,2,3,6,0,16,,,,,,,,,,,,,,,,,,,,
,,,,,16,2020-07-01_10h34.26.640,retriever_ti,2020.1.3,Win32,60,Chrome,1536,864,,,,,,,,,,,,,,,,,1,,,,,,,,,,,,,,,,,,,,,,,,,,,598.100525,59,right,1.1504,phone       ,8,9,5,1,3,598.134125,598.134125,600.634065,0,58,58,58,1,59,3,8,wolf          ,phone       ,html/resources/sequences_IDs/A/01_wolf.jpg,html/resources/sequences_IDs/B/09_phone.jpg,1,9,1,1,4,2,1,7,0,16,,,,,,,,,,,,,,,,,,,,
,,,,,16,2020-07-01_10h34.26.640,retriever_ti,2020.1.3,Win32,60,Chrome,1536,864,,,,,,,,,,,,,,,,,1,,,,,,,,,,,,,,,,,,,,,,,,,,,601.251005,60,right,1.04377,gloves      ,2,6,-2,0,3,601.285865,601.285865,603.783775,0,59,59,59,1,60,4,2,radio       ,gloves      ,html/resources/sequences_IDs/B/10_radio.jpg,html/resources/sequences_IDs/B/06_gloves.jpg,10,6,4,2,3,2,8,5,0,16,,,,,,,,,,,,,,,,,,,,
,,,,,16,2020-07-01_10h34.26.640,retriever_ti,2020.1.3,Win32,60,Chrome,1536,864,,,,,,,,,,,,,,,,,1,,,,,,,,,,,,,,,,,,,,,,,,,,,604.401655,61,right,1.010895,phone       ,8,9,7,1,3,604.419195,604.419195,606.91679,0,60,60,60,1,61,1,8,peacock       ,phone       ,html/resources/sequences_IDs/A/05_peacock.jpg,html/resources/sequences_IDs/B/09_phone.jpg,5,9,2,1,4,2,4,7,0,16,,,,,,,,,,,,,,,,,,,,
,,,,,16,2020-07-01_10h34.26.640,retriever_ti,2020.1.3,Win32,60,Chrome,1536,864,,,,,,,,,,,,,,,,,1,,,,,,,,,,,,,,,,,,,,,,,,,,,607.533635,62,left,0.667075,slipper     ,6,8,1,1,0,607.550965,607.550965,610.05063,0,61,61,61,1,62,6,5,slipper     ,camel         ,html/resources/sequences_IDs/B/08_slipper.jpg,html/resources/sequences_IDs/A/03_camel.jpg,8,3,3,2,1,1,6,3,1,16,,,,,,,,,,,,,,,,,,,,
,,,,,16,2020-07-01_10h34.26.640,retriever_ti,2020.1.3,Win32,60,Chrome,1536,864,,,,,,,,,,,,,,,,,1,,,,,,,,,,,,,,,,,,,,,,,,,,,611.151575,63,left,1.104885,camel         ,5,3,1,1,1,611.16894,611.16894,613.666775,0,62,62,62,1,63,5,4,camel         ,radio       ,html/resources/sequences_IDs/A/03_camel.jpg,html/resources/sequences_IDs/B/10_radio.jpg,3,10,1,1,4,2,3,8,0,16,,,,,,,,,,,,,,,,,,,,
,,,,,16,2020-07-01_10h34.26.640,retriever_ti,2020.1.3,Win32,60,Chrome,1536,864,,,,,,,,,,,,,,,,,1,,,,,,,,,,,,,,,,,,,,,,,,,,,614.76706,64,left,1.469045,slipper     ,6,8,-1,0,0,614.800695,614.800695,617.300155,0,63,63,63,1,64,6,7,slipper     ,seaturtle     ,html/resources/sequences_IDs/B/08_slipper.jpg,html/resources/sequences_IDs/A/02_seaturtle.jpg,8,2,3,2,2,1,6,2,0,16,,,,,,,,,,,,,,,,,,,,
,,,,,16,2020-07-01_10h34.26.640,retriever_ti,2020.1.3,Win32,60,Chrome,1536,864,,,,,,,,,,,,,,,,,1,,,,,,,,,,,,,,,,,,,,,,,,,,,618.400785,65,NaN,NaN,No_response,NaN,NaN,NaN,2,2,618.434175,618.434175,620.934095,0,64,64,64,1,65,4,5,radio       ,camel         ,html/resources/sequences_IDs/B/10_radio.jpg,html/resources/sequences_IDs/A/03_camel.jpg,10,3,4,2,1,1,8,3,0,16,,,,,,,,,,,,,,,,,,,,
,,,,,16,2020-07-01_10h34.26.640,retriever_ti,2020.1.3,Win32,60,Chrome,1536,864,,,,,,,,,,,,,,,,,1,,,,,,,,,,,,,,,,,,,,,,,,,,,622.0345,66,left,0.70294,slipper     ,6,8,5,1,3,622.05243,622.05243,624.550375,0,65,65,65,1,66,6,1,slipper     ,peacock       ,html/resources/sequences_IDs/B/08_slipper.jpg,html/resources/sequences_IDs/A/05_peacock.jpg,8,5,3,2,2,1,6,4,0,16,,,,,,,,,,,,,,,,,,,,
,,,,,16,2020-07-01_10h34.26.640,retriever_ti,2020.1.3,Win32,60,Chrome,1536,864,,,,,,,,,,,,,,,,,1,,,,,,,,,,,,,,,,,,,,,,,,,,,625.16815,67,right,1.091185,radio       ,4,10,-2,0,3,625.20234,625.20234,627.70014,0,66,66,66,1,67,6,4,slipper     ,radio       ,html/resources/sequences_IDs/B/08_slipper.jpg,html/resources/sequences_IDs/B/10_radio.jpg,8,10,3,2,4,2,6,8,0,16,,,,,,,,,,,,,,,,,,,,
,,,,,16,2020-07-01_10h34.26.640,retriever_ti,2020.1.3,Win32,60,Chrome,1536,864,,,,,,,,,,,,,,,,,1,,,,,,,,,,,,,,,,,,,,,,,,,,,628.317085,68,right,1.13861,gloves      ,2,6,-6,0,3,628.350815,628.350815,630.850175,0,67,67,67,1,68,8,2,phone       ,gloves      ,html/resources/sequences_IDs/B/09_phone.jpg,html/resources/sequences_IDs/B/06_gloves.jpg,9,6,4,2,3,2,7,5,0,16,,,,,,,,,,,,,,,,,,,,
,,,,,16,2020-07-01_10h34.26.640,retriever_ti,2020.1.3,Win32,60,Chrome,1536,864,,,,,,,,,,,,,,,,,1,,,,,,,,,,,,,,,,,,,,,,,,,,,631.467435,69,right,1.56109,radio       ,4,10,-1,0,0,631.48426,631.48426,633.98351,0,68,68,68,1,69,5,4,camel         ,radio       ,html/resources/sequences_IDs/A/03_camel.jpg,html/resources/sequences_IDs/B/10_radio.jpg,3,10,1,1,4,2,3,8,0,16,,,,,,,,,,,,,,,,,,,,
,,,,,16,2020-07-01_10h34.26.640,retriever_ti,2020.1.3,Win32,60,Chrome,1536,864,,,,,,,,,,,,,,,,,1,,,,,,,,,,,,,,,,,,,,,,,,,,,635.08385,70,left,1.2773,seaturtle     ,7,2,3,1,3,635.1175,635.1175,637.61704,0,69,69,69,1,70,7,4,seaturtle     ,radio       ,html/resources/sequences_IDs/A/02_seaturtle.jpg,html/resources/sequences_IDs/B/10_radio.jpg,2,10,2,1,4,2,2,8,0,16,,,,,,,,,,,,,,,,,,,,
,,,,,16,2020-07-01_10h34.26.640,retriever_ti,2020.1.3,Win32,60,Chrome,1536,864,,,,,,,,,,,,,,,,,1,,,,,,,,,,,,,,,,,,,,,,,,,,,638.234865,71,right,0.80734,gloves      ,2,6,1,1,1,638.252285,638.252285,640.750015,0,70,70,70,1,71,1,2,peacock       ,gloves      ,html/resources/sequences_IDs/A/05_peacock.jpg,html/resources/sequences_IDs/B/06_gloves.jpg,5,6,2,1,3,2,4,5,0,16,,,,,,,,,,,,,,,,,,,,
,,,,,16,2020-07-01_10h34.26.640,retriever_ti,2020.1.3,Win32,60,Chrome,1536,864,,,,,,,,,,,,,,,,,1,,,,,,,,,,,,,,,,,,,,,,,,,,,641.850345,72,left,1.17747,radio       ,4,10,3,1,3,641.88425,641.88425,644.38336,0,71,71,71,1,72,4,1,radio       ,peacock       ,html/resources/sequences_IDs/B/10_radio.jpg,html/resources/sequences_IDs/A/05_peacock.jpg,10,5,4,2,2,1,8,4,0,16,,,,,,,,,,,,,,,,,,,,
,,,,,16,2020-07-01_10h34.26.640,retriever_ti,2020.1.3,Win32,60,Chrome,1536,864,,,,,,,,,,,,,,,,,1,,,,,,,,,,,,,,,,,,,,,,,,,,,645.000885,73,left,1.324415,wolf          ,3,1,-1,0,0,645.017705,645.017705,647.51663,0,72,72,72,1,73,3,4,wolf          ,radio       ,html/resources/sequences_IDs/A/01_wolf.jpg,html/resources/sequences_IDs/B/10_radio.jpg,1,10,1,1,4,2,1,8,0,16,,,,,,,,,,,,,,,,,,,,
,,,,,16,2020-07-01_10h34.26.640,retriever_ti,2020.1.3,Win32,60,Chrome,1536,864,,,,,,,,,,,,,,,,,1,,,,,,,,,,,,,,,,,,,,,,,,,,,648.61708,74,right,0.76235,slipper     ,6,8,3,1,3,648.63418,648.63418,651.133455,0,73,73,73,1,74,3,6,wolf          ,slipper     ,html/resources/sequences_IDs/A/01_wolf.jpg,html/resources/sequences_IDs/B/08_slipper.jpg,1,8,1,1,3,2,1,6,0,16,,,,,,,,,,,,,,,,,,,,
,,,,,16,2020-07-01_10h34.26.640,retriever_ti,2020.1.3,Win32,60,Chrome,1536,864,,,,,,,,,,,,,,,,,1,,,,,,,,,,,,,,,,,,,,,,,,,,,651.75087,75,right,1.376865,slipper     ,6,8,2,1,3,651.784205,651.784205,654.28347,0,74,74,74,1,75,4,6,radio       ,slipper     ,html/resources/sequences_IDs/B/10_radio.jpg,html/resources/sequences_IDs/B/08_slipper.jpg,10,8,4,2,3,2,8,6,0,16,,,,,,,,,,,,,,,,,,,,
,,,,,16,2020-07-01_10h34.26.640,retriever_ti,2020.1.3,Win32,60,Chrome,1536,864,,,,,,,,,,,,,,,,,1,,,,,,,,,,,,,,,,,,,,,,,,,,,654.900555,76,right,1.18387,seaturtle     ,7,2,5,1,3,654.93426,654.93426,657.43342,0,75,75,75,1,76,2,7,gloves      ,seaturtle     ,html/resources/sequences_IDs/B/06_gloves.jpg,html/resources/sequences_IDs/A/02_seaturtle.jpg,6,2,3,2,2,1,5,2,0,16,,,,,,,,,,,,,,,,,,,,
,,,,,16,2020-07-01_10h34.26.640,retriever_ti,2020.1.3,Win32,60,Chrome,1536,864,,,,,,,,,,,,,,,,,1,,,,,,,,,,,,,,,,,,,,,,,,,,,658.05075,77,left,1.525735,radio       ,4,10,-1,0,1,658.084105,658.084105,660.583515,0,76,76,76,1,77,4,5,radio       ,camel         ,html/resources/sequences_IDs/B/10_radio.jpg,html/resources/sequences_IDs/A/03_camel.jpg,10,3,4,2,1,1,8,3,1,16,,,,,,,,,,,,,,,,,,,,
,,,,,16,2020-07-01_10h34.26.640,retriever_ti,2020.1.3,Win32,60,Chrome,1536,864,,,,,,,,,,,,,,,,,,,,,,,,,,,,,,,,,,,,,0,3.07918,,,,,,,,,,,,,,,,,,,,,,,,,,,,,,,,,,,,,,,,,0,0,0,0,1,,,,,,,,,,,,,,,
,,,,,16,2020-07-01_10h34.26.640,retriever_ti,2020.1.3,Win32,60,Chrome,1536,864,,,,,,,,,,,,,,,,,2,,,,,,,,,,,,,,,,,,,,,,,,,,,870.30287,78,left,0.82194,phone       ,8,9,1,1,1,870.334805,870.334805,872.83389,0,0,0,0,1,78,8,7,phone       ,seaturtle     ,html/resources/sequences_IDs/B/09_phone.jpg,html/resources/sequences_IDs/A/02_seaturtle.jpg,9,2,4,2,2,1,7,2,0,16,,,,,,,,,,,,,,,,,,,,
,,,,,16,2020-07-01_10h34.26.640,retriever_ti,2020.1.3,Win32,60,Chrome,1536,864,,,,,,,,,,,,,,,,,2,,,,,,,,,,,,,,,,,,,,,,,,,,,873.93415,79,left,0.917545,radio       ,4,10,-1,0,0,873.96779,873.96779,876.466935,0,1,1,1,1,79,4,5,radio       ,camel         ,html/resources/sequences_IDs/B/10_radio.jpg,html/resources/sequences_IDs/A/03_camel.jpg,10,3,4,2,1,1,8,3,0,16,,,,,,,,,,,,,,,,,,,,
,,,,,16,2020-07-01_10h34.26.640,retriever_ti,2020.1.3,Win32,60,Chrome,1536,864,,,,,,,,,,,,,,,,,2,,,,,,,,,,,,,,,,,,,,,,,,,,,877.56771,80,right,0.66177,gloves      ,2,6,1,1,1,877.601025,877.601025,880.100465,0,2,2,2,1,80,1,2,peacock       ,gloves      ,html/resources/sequences_IDs/A/05_peacock.jpg,html/resources/sequences_IDs/B/06_gloves.jpg,5,6,2,1,3,2,4,5,0,16,,,,,,,,,,,,,,,,,,,,
,,,,,16,2020-07-01_10h34.26.640,retriever_ti,2020.1.3,Win32,60,Chrome,1536,864,,,,,,,,,,,,,,,,,2,,,,,,,,,,,,,,,,,,,,,,,,,,,881.20056,81,left,1.334845,wolf          ,3,1,-2,0,3,881.217885,881.217885,883.71746,0,3,3,3,1,81,3,5,wolf          ,camel         ,html/resources/sequences_IDs/A/01_wolf.jpg,html/resources/sequences_IDs/A/03_camel.jpg,1,3,1,1,1,1,1,3,0,16,,,,,,,,,,,,,,,,,,,,
,,,,,16,2020-07-01_10h34.26.640,retriever_ti,2020.1.3,Win32,60,Chrome,1536,864,,,,,,,,,,,,,,,,,2,,,,,,,,,,,,,,,,,,,,,,,,,,,884.318855,82,left,0.788285,slipper     ,6,8,-2,0,3,884.352135,884.352135,886.8504,0,4,4,4,1,82,6,8,slipper     ,phone       ,html/resources/sequences_IDs/B/08_slipper.jpg,html/resources/sequences_IDs/B/09_phone.jpg,8,9,3,2,4,2,6,7,0,16,,,,,,,,,,,,,,,,,,,,
,,,,,16,2020-07-01_10h34.26.640,retriever_ti,2020.1.3,Win32,60,Chrome,1536,864,,,,,,,,,,,,,,,,,2,,,,,,,,,,,,,,,,,,,,,,,,,,,887.467365,83,right,0.84572,slipper     ,6,8,-2,0,3,887.48448,887.48448,889.984305,0,5,5,5,1,83,8,6,phone       ,slipper     ,html/resources/sequences_IDs/B/09_phone.jpg,html/resources/sequences_IDs/B/08_slipper.jpg,9,8,4,2,3,2,7,6,0,16,,,,,,,,,,,,,,,,,,,,
,,,,,16,2020-07-01_10h34.26.640,retriever_ti,2020.1.3,Win32,60,Chrome,1536,864,,,,,,,,,,,,,,,,,2,,,,,,,,,,,,,,,,,,,,,,,,,,,890.60189,84,left,0.76255,slipper     ,6,8,-1,0,0,890.63591,890.63591,893.133755,0,6,6,6,1,84,6,7,slipper     ,seaturtle     ,html/resources/sequences_IDs/B/08_slipper.jpg,html/resources/sequences_IDs/A/02_seaturtle.jpg,8,2,3,2,2,1,6,2,0,16,,,,,,,,,,,,,,,,,,,,
,,,,,16,2020-07-01_10h34.26.640,retriever_ti,2020.1.3,Win32,60,Chrome,1536,864,,,,,,,,,,,,,,,,,2,,,,,,,,,,,,,,,,,,,,,,,,,,,894.2341,85,right,1.461255,phone       ,8,9,1,1,1,894.25109,894.25109,896.750995,0,7,7,7,1,85,7,8,seaturtle     ,phone       ,html/resources/sequences_IDs/A/02_seaturtle.jpg,html/resources/sequences_IDs/B/09_phone.jpg,2,9,2,1,4,2,2,7,0,16,,,,,,,,,,,,,,,,,,,,
,,,,,16,2020-07-01_10h34.26.640,retriever_ti,2020.1.3,Win32,60,Chrome,1536,864,,,,,,,,,,,,,,,,,2,,,,,,,,,,,,,,,,,,,,,,,,,,,897.85183,86,left,0.932535,seaturtle     ,7,2,2,1,3,897.885775,897.885775,900.38386,0,8,8,8,1,86,7,5,seaturtle     ,camel         ,html/resources/sequences_IDs/A/02_seaturtle.jpg,html/resources/sequences_IDs/A/03_camel.jpg,2,3,2,1,1,1,2,3,0,16,,,,,,,,,,,,,,,,,,,,
,,,,,16,2020-07-01_10h34.26.640,retriever_ti,2020.1.3,Win32,60,Chrome,1536,864,,,,,,,,,,,,,,,,,2,,,,,,,,,,,,,,,,,,,,,,,,,,,901.00087,87,left,0.965505,slipper     ,6,8,1,1,1,901.017865,901.017865,903.51701,0,9,9,9,1,87,6,5,slipper     ,camel         ,html/resources/sequences_IDs/B/08_slipper.jpg,html/resources/sequences_IDs/A/03_camel.jpg,8,3,3,2,1,1,6,3,0,16,,,,,,,,,,,,,,,,,,,,
,,,,,16,2020-07-01_10h34.26.640,retriever_ti,2020.1.3,Win32,60,Chrome,1536,864,,,,,,,,,,,,,,,,,2,,,,,,,,,,,,,,,,,,,,,,,,,,,904.617815,88,right,0.90278,gloves      ,2,6,1,1,1,904.63453,904.63453,907.13377,0,10,10,10,1,88,1,2,peacock       ,gloves      ,html/resources/sequences_IDs/A/05_peacock.jpg,html/resources/sequences_IDs/B/06_gloves.jpg,5,6,2,1,3,2,4,5,0,16,,,,,,,,,,,,,,,,,,,,
,,,,,16,2020-07-01_10h34.26.640,retriever_ti,2020.1.3,Win32,60,Chrome,1536,864,,,,,,,,,,,,,,,,,2,,,,,,,,,,,,,,,,,,,,,,,,,,,908.233975,89,left,1.43401,wolf          ,3,1,-4,0,3,908.25119,908.25119,910.750435,0,11,11,11,1,89,3,7,wolf          ,seaturtle     ,html/resources/sequences_IDs/A/01_wolf.jpg,html/resources/sequences_IDs/A/02_seaturtle.jpg,1,2,1,1,2,1,1,2,0,16,,,,,,,,,,,,,,,,,,,,
,,,,,16,2020-07-01_10h34.26.640,retriever_ti,2020.1.3,Win32,60,Chrome,1536,864,,,,,,,,,,,,,,,,,2,,,,,,,,,,,,,,,,,,,,,,,,,,,911.367655,90,right,1.767835,radio       ,4,10,-2,0,3,911.38439,911.38439,913.88423,0,12,12,12,1,90,6,4,slipper     ,radio       ,html/resources/sequences_IDs/B/08_slipper.jpg,html/resources/sequences_IDs/B/10_radio.jpg,8,10,3,2,4,2,6,8,0,16,,,,,,,,,,,,,,,,,,,,
,,,,,16,2020-07-01_10h34.26.640,retriever_ti,2020.1.3,Win32,60,Chrome,1536,864,,,,,,,,,,,,,,,,,2,,,,,,,,,,,,,,,,,,,,,,,,,,,914.501515,91,left,1.511015,wolf          ,3,1,1,1,0,914.53613,914.53613,917.03386,0,13,13,13,1,91,3,2,wolf          ,gloves      ,html/resources/sequences_IDs/A/01_wolf.jpg,html/resources/sequences_IDs/B/06_gloves.jpg,1,6,1,1,3,2,1,5,1,16,,,,,,,,,,,,,,,,,,,,
,,,,,16,2020-07-01_10h34.26.640,retriever_ti,2020.1.3,Win32,60,Chrome,1536,864,,,,,,,,,,,,,,,,,2,,,,,,,,,,,,,,,,,,,,,,,,,,,918.13443,92,right,0.55274,gloves      ,2,6,-1,0,0,918.151185,918.151185,920.65046,0,14,14,14,1,92,3,2,wolf          ,gloves      ,html/resources/sequences_IDs/A/01_wolf.jpg,html/resources/sequences_IDs/B/06_gloves.jpg,1,6,1,1,3,2,1,5,0,16,,,,,,,,,,,,,,,,,,,,
,,,,,16,2020-07-01_10h34.26.640,retriever_ti,2020.1.3,Win32,60,Chrome,1536,864,,,,,,,,,,,,,,,,,2,,,,,,,,,,,,,,,,,,,,,,,,,,,921.75143,93,right,1.570355,phone       ,8,9,7,1,3,921.76781,921.76781,924.267135,0,15,15,15,1,93,1,8,peacock       ,phone       ,html/resources/sequences_IDs/A/05_peacock.jpg,html/resources/sequences_IDs/B/09_phone.jpg,5,9,2,1,4,2,4,7,0,16,,,,,,,,,,,,,,,,,,,,
,,,,,16,2020-07-01_10h34.26.640,retriever_ti,2020.1.3,Win32,60,Chrome,1536,864,,,,,,,,,,,,,,,,,2,,,,,,,,,,,,,,,,,,,,,,,,,,,924.884365,94,right,0.71273,phone       ,8,9,5,1,3,924.91764,924.91764,927.41711,0,16,16,16,1,94,3,8,wolf          ,phone       ,html/resources/sequences_IDs/A/01_wolf.jpg,html/resources/sequences_IDs/B/09_phone.jpg,1,9,1,1,4,2,1,7,0,16,,,,,,,,,,,,,,,,,,,,
,,,,,16,2020-07-01_10h34.26.640,retriever_ti,2020.1.3,Win32,60,Chrome,1536,864,,,,,,,,,,,,,,,,,2,,,,,,,,,,,,,,,,,,,,,,,,,,,928.034045,95,left,0.89634,wolf          ,3,1,2,1,3,928.0679,928.0679,930.56711,0,17,17,17,1,95,3,1,wolf          ,peacock       ,html/resources/sequences_IDs/A/01_wolf.jpg,html/resources/sequences_IDs/A/05_peacock.jpg,1,5,1,1,2,1,1,4,0,16,,,,,,,,,,,,,,,,,,,,
,,,,,16,2020-07-01_10h34.26.640,retriever_ti,2020.1.3,Win32,60,Chrome,1536,864,,,,,,,,,,,,,,,,,2,,,,,,,,,,,,,,,,,,,,,,,,,,,931.184525,96,left,0.97579,seaturtle     ,7,2,1,1,1,931.21792,931.21792,933.717,0,18,18,18,1,96,7,6,seaturtle     ,slipper     ,html/resources/sequences_IDs/A/02_seaturtle.jpg,html/resources/sequences_IDs/B/08_slipper.jpg,2,8,2,1,3,2,2,6,0,16,,,,,,,,,,,,,,,,,,,,
,,,,,16,2020-07-01_10h34.26.640,retriever_ti,2020.1.3,Win32,60,Chrome,1536,864,,,,,,,,,,,,,,,,,2,,,,,,,,,,,,,,,,,,,,,,,,,,,934.817405,97,left,1.104265,gloves      ,2,6,-2,0,3,934.8513,934.8513,937.35038,0,19,19,19,1,97,2,4,gloves      ,radio       ,html/resources/sequences_IDs/B/06_gloves.jpg,html/resources/sequences_IDs/B/10_radio.jpg,6,10,3,2,4,2,5,8,0,16,,,,,,,,,,,,,,,,,,,,
,,,,,16,2020-07-01_10h34.26.640,retriever_ti,2020.1.3,Win32,60,Chrome,1536,864,,,,,,,,,,,,,,,,,2,,,,,,,,,,,,,,,,,,,,,,,,,,,937.951155,98,right,1.069035,radio       ,4,10,-1,0,1,937.984525,937.984525,940.48377,0,20,20,20,1,98,5,4,camel         ,radio       ,html/resources/sequences_IDs/A/03_camel.jpg,html/resources/sequences_IDs/B/10_radio.jpg,3,10,1,1,4,2,3,8,1,16,,,,,,,,,,,,,,,,,,,,
,,,,,16,2020-07-01_10h34.26.640,retriever_ti,2020.1.3,Win32,60,Chrome,1536,864,,,,,,,,,,,,,,,,,2,,,,,,,,,,,,,,,,,,,,,,,,,,,941.584095,99,right,1.393665,camel         ,5,3,-3,0,3,941.601205,941.601205,944.10114,0,21,21,21,1,99,8,5,phone       ,camel         ,html/resources/sequences_IDs/B/09_phone.jpg,html/resources/sequences_IDs/A/03_camel.jpg,9,3,4,2,1,1,7,3,0,16,,,,,,,,,,,,,,,,,,,,
,,,,,16,2020-07-01_10h34.26.640,retriever_ti,2020.1.3,Win32,60,Chrome,1536,864,,,,,,,,,,,,,,,,,2,,,,,,,,,,,,,,,,,,,,,,,,,,,944.718375,100,left,1.307415,gloves      ,2,6,-5,0,3,944.736265,944.736265,947.233855,0,22,22,22,1,100,2,7,gloves      ,seaturtle     ,html/resources/sequences_IDs/B/06_gloves.jpg,html/resources/sequences_IDs/A/02_seaturtle.jpg,6,2,3,2,2,1,5,2,0,16,,,,,,,,,,,,,,,,,,,,
,,,,,16,2020-07-01_10h34.26.640,retriever_ti,2020.1.3,Win32,60,Chrome,1536,864,,,,,,,,,,,,,,,,,2,,,,,,,,,,,,,,,,,,,,,,,,,,,947.850695,101,left,1.59157,seaturtle     ,7,2,4,1,3,947.86808,947.86808,950.366995,0,23,23,23,1,101,7,3,seaturtle     ,wolf          ,html/resources/sequences_IDs/A/02_seaturtle.jpg,html/resources/sequences_IDs/A/01_wolf.jpg,2,1,2,1,1,1,2,1,0,16,,,,,,,,,,,,,,,,,,,,
,,,,,16,2020-07-01_10h34.26.640,retriever_ti,2020.1.3,Win32,60,Chrome,1536,864,,,,,,,,,,,,,,,,,2,,,,,,,,,,,,,,,,,,,,,,,,,,,950.984475,102,right,0.60952,gloves      ,2,6,1,1,0,951.001195,951.001195,953.50089,0,24,24,24,1,102,1,2,peacock       ,gloves      ,html/resources/sequences_IDs/A/05_peacock.jpg,html/resources/sequences_IDs/B/06_gloves.jpg,5,6,2,1,3,2,4,5,1,16,,,,,,,,,,,,,,,,,,,,
,,,,,16,2020-07-01_10h34.26.640,retriever_ti,2020.1.3,Win32,60,Chrome,1536,864,,,,,,,,,,,,,,,,,2,,,,,,,,,,,,,,,,,,,,,,,,,,,954.6017,103,right,0.5608,radio       ,4,10,-3,0,3,954.63602,954.63602,957.133855,0,25,25,25,1,103,7,4,seaturtle     ,radio       ,html/resources/sequences_IDs/A/02_seaturtle.jpg,html/resources/sequences_IDs/B/10_radio.jpg,2,10,2,1,4,2,2,8,0,16,,,,,,,,,,,,,,,,,,,,
,,,,,16,2020-07-01_10h34.26.640,retriever_ti,2020.1.3,Win32,60,Chrome,1536,864,,,,,,,,,,,,,,,,,2,,,,,,,,,,,,,,,,,,,,,,,,,,,957.751225,104,left,0.50531,radio       ,4,10,3,1,3,957.78469,957.78469,960.28383,0,26,26,26,1,104,4,1,radio       ,peacock       ,html/resources/sequences_IDs/B/10_radio.jpg,html/resources/sequences_IDs/A/05_peacock.jpg,10,5,4,2,2,1,8,4,0,16,,,,,,,,,,,,,,,,,,,,
,,,,,16,2020-07-01_10h34.26.640,retriever_ti,2020.1.3,Win32,60,Chrome,1536,864,,,,,,,,,,,,,,,,,2,,,,,,,,,,,,,,,,,,,,,,,,,,,960.88426,105,left,0.68,gloves      ,2,6,-1,0,0,960.90123,960.90123,963.40147,0,27,27,27,1,105,2,3,gloves      ,wolf          ,html/resources/sequences_IDs/B/06_gloves.jpg,html/resources/sequences_IDs/A/01_wolf.jpg,6,1,3,2,1,1,5,1,0,16,,,,,,,,,,,,,,,,,,,,
,,,,,16,2020-07-01_10h34.26.640,retriever_ti,2020.1.3,Win32,60,Chrome,1536,864,,,,,,,,,,,,,,,,,2,,,,,,,,,,,,,,,,,,,,,,,,,,,964.501985,106,left,1.32857,camel         ,5,3,3,1,3,964.536025,964.536025,967.03389,0,28,28,28,1,106,5,2,camel         ,gloves      ,html/resources/sequences_IDs/A/03_camel.jpg,html/resources/sequences_IDs/B/06_gloves.jpg,3,6,1,1,3,2,3,5,0,16,,,,,,,,,,,,,,,,,,,,
,,,,,16,2020-07-01_10h34.26.640,retriever_ti,2020.1.3,Win32,60,Chrome,1536,864,,,,,,,,,,,,,,,,,2,,,,,,,,,,,,,,,,,,,,,,,,,,,967.650875,107,left,0.979985,radio       ,4,10,-1,0,0,967.667885,967.667885,970.16721,0,29,29,29,1,107,4,5,radio       ,camel         ,html/resources/sequences_IDs/B/10_radio.jpg,html/resources/sequences_IDs/A/03_camel.jpg,10,3,4,2,1,1,8,3,0,16,,,,,,,,,,,,,,,,,,,,
,,,,,16,2020-07-01_10h34.26.640,retriever_ti,2020.1.3,Win32,60,Chrome,1536,864,,,,,,,,,,,,,,,,,2,,,,,,,,,,,,,,,,,,,,,,,,,,,971.26782,108,right,1.6105,gloves      ,2,6,-2,0,3,971.301275,971.301275,973.8012,0,30,30,30,1,108,4,2,radio       ,gloves      ,html/resources/sequences_IDs/B/10_radio.jpg,html/resources/sequences_IDs/B/06_gloves.jpg,10,6,4,2,3,2,8,5,0,16,,,,,,,,,,,,,,,,,,,,
,,,,,16,2020-07-01_10h34.26.640,retriever_ti,2020.1.3,Win32,60,Chrome,1536,864,,,,,,,,,,,,,,,,,2,,,,,,,,,,,,,,,,,,,,,,,,,,,974.418195,109,left,1.66835,camel         ,5,3,1,1,1,974.435965,974.435965,976.93439,0,31,31,31,1,109,5,4,camel         ,radio       ,html/resources/sequences_IDs/A/03_camel.jpg,html/resources/sequences_IDs/B/10_radio.jpg,3,10,1,1,4,2,3,8,0,16,,,,,,,,,,,,,,,,,,,,
,,,,,16,2020-07-01_10h34.26.640,retriever_ti,2020.1.3,Win32,60,Chrome,1536,864,,,,,,,,,,,,,,,,,2,,,,,,,,,,,,,,,,,,,,,,,,,,,978.035275,110,left,1.4972,wolf          ,3,1,-1,0,1,978.0527,978.0527,980.55075,0,32,32,32,1,110,3,4,wolf          ,radio       ,html/resources/sequences_IDs/A/01_wolf.jpg,html/resources/sequences_IDs/B/10_radio.jpg,1,10,1,1,4,2,1,8,1,16,,,,,,,,,,,,,,,,,,,,
,,,,,16,2020-07-01_10h34.26.640,retriever_ti,2020.1.3,Win32,60,Chrome,1536,864,,,,,,,,,,,,,,,,,2,,,,,,,,,,,,,,,,,,,,,,,,,,,981.651705,111,left,0.96291,phone       ,8,9,7,1,3,981.669365,981.669365,984.167185,0,33,33,33,1,111,8,1,phone       ,peacock       ,html/resources/sequences_IDs/B/09_phone.jpg,html/resources/sequences_IDs/A/05_peacock.jpg,9,5,4,2,2,1,7,4,0,16,,,,,,,,,,,,,,,,,,,,
,,,,,16,2020-07-01_10h34.26.640,retriever_ti,2020.1.3,Win32,60,Chrome,1536,864,,,,,,,,,,,,,,,,,2,,,,,,,,,,,,,,,,,,,,,,,,,,,984.784625,112,right,1.103745,slipper     ,6,8,3,1,3,984.81795,984.81795,987.31722,0,34,34,34,1,112,3,6,wolf          ,slipper     ,html/resources/sequences_IDs/A/01_wolf.jpg,html/resources/sequences_IDs/B/08_slipper.jpg,1,8,1,1,3,2,1,6,0,16,,,,,,,,,,,,,,,,,,,,
,,,,,16,2020-07-01_10h34.26.640,retriever_ti,2020.1.3,Win32,60,Chrome,1536,864,,,,,,,,,,,,,,,,,2,,,,,,,,,,,,,,,,,,,,,,,,,,,987.933975,113,left,1.7031,peacock       ,1,5,-6,0,3,987.95153,987.95153,990.45047,0,35,35,35,1,113,1,7,peacock       ,seaturtle     ,html/resources/sequences_IDs/A/05_peacock.jpg,html/resources/sequences_IDs/A/02_seaturtle.jpg,5,2,2,1,2,1,4,2,0,16,,,,,,,,,,,,,,,,,,,,
,,,,,16,2020-07-01_10h34.26.640,retriever_ti,2020.1.3,Win32,60,Chrome,1536,864,,,,,,,,,,,,,,,,,2,,,,,,,,,,,,,,,,,,,,,,,,,,,991.06788,114,left,1.16599,camel         ,5,3,2,1,3,991.08466,991.08466,993.583785,0,36,36,36,1,114,5,3,camel         ,wolf          ,html/resources/sequences_IDs/A/03_camel.jpg,html/resources/sequences_IDs/A/01_wolf.jpg,3,1,1,1,1,1,3,1,0,16,,,,,,,,,,,,,,,,,,,,
,,,,,16,2020-07-01_10h34.26.640,retriever_ti,2020.1.3,Win32,60,Chrome,1536,864,,,,,,,,,,,,,,,,,2,,,,,,,,,,,,,,,,,,,,,,,,,,,994.20078,115,left,1.45423,radio       ,4,10,-2,0,3,994.234525,994.234525,996.73381,0,37,37,37,1,115,4,6,radio       ,slipper     ,html/resources/sequences_IDs/B/10_radio.jpg,html/resources/sequences_IDs/B/08_slipper.jpg,10,8,4,2,3,2,8,6,0,16,,,,,,,,,,,,,,,,,,,,
,,,,,16,2020-07-01_10h34.26.640,retriever_ti,2020.1.3,Win32,60,Chrome,1536,864,,,,,,,,,,,,,,,,,2,,,,,,,,,,,,,,,,,,,,,,,,,,,997.351245,116,right,0.569785,slipper     ,6,8,1,1,1,997.384615,997.384615,999.883815,0,38,38,38,1,116,5,6,camel         ,slipper     ,html/resources/sequences_IDs/A/03_camel.jpg,html/resources/sequences_IDs/B/08_slipper.jpg,3,8,1,1,3,2,3,6,0,16,,,,,,,,,,,,,,,,,,,,
,,,,,16,2020-07-01_10h34.26.640,retriever_ti,2020.1.3,Win32,60,Chrome,1536,864,,,,,,,,,,,,,,,,,2,,,,,,,,,,,,,,,,,,,,,,,,,,,1000.98418,117,right,1.10523,gloves      ,2,6,-5,0,3,1001.017875,1001.017875,1003.518335,0,39,39,39,1,117,7,2,seaturtle     ,gloves      ,html/resources/sequences_IDs/A/02_seaturtle.jpg,html/resources/sequences_IDs/B/06_gloves.jpg,2,6,2,1,3,2,2,5,0,16,,,,,,,,,,,,,,,,,,,,
,,,,,16,2020-07-01_10h34.26.640,retriever_ti,2020.1.3,Win32,60,Chrome,1536,864,,,,,,,,,,,,,,,,,2,,,,,,,,,,,,,,,,,,,,,,,,,,,1004.134585,118,left,0.678905,phone       ,8,9,5,1,3,1004.151305,1004.151305,1006.65053,0,40,40,40,1,118,8,3,phone       ,wolf          ,html/resources/sequences_IDs/B/09_phone.jpg,html/resources/sequences_IDs/A/01_wolf.jpg,9,1,4,2,1,1,7,1,0,16,,,,,,,,,,,,,,,,,,,,
,,,,,16,2020-07-01_10h34.26.640,retriever_ti,2020.1.3,Win32,60,Chrome,1536,864,,,,,,,,,,,,,,,,,2,,,,,,,,,,,,,,,,,,,,,,,,,,,1007.26752,119,left,0.944015,gloves      ,2,6,1,1,1,1007.301345,1007.301345,1009.800925,0,41,41,41,1,119,2,1,gloves      ,peacock       ,html/resources/sequences_IDs/B/06_gloves.jpg,html/resources/sequences_IDs/A/05_peacock.jpg,6,5,3,2,2,1,5,4,0,16,,,,,,,,,,,,,,,,,,,,
,,,,,16,2020-07-01_10h34.26.640,retriever_ti,2020.1.3,Win32,60,Chrome,1536,864,,,,,,,,,,,,,,,,,2,,,,,,,,,,,,,,,,,,,,,,,,,,,1010.902155,120,right,0.72154,peacock       ,1,5,-4,0,3,1010.919405,1010.919405,1013.41712,0,42,42,42,1,120,5,1,camel         ,peacock       ,html/resources/sequences_IDs/A/03_camel.jpg,html/resources/sequences_IDs/A/05_peacock.jpg,3,5,1,1,2,1,3,4,0,16,,,,,,,,,,,,,,,,,,,,
,,,,,16,2020-07-01_10h34.26.640,retriever_ti,2020.1.3,Win32,60,Chrome,1536,864,,,,,,,,,,,,,,,,,2,,,,,,,,,,,,,,,,,,,,,,,,,,,1014.017545,121,right,0.72108,radio       ,4,10,-1,0,0,1014.034655,1014.034655,1016.53387,0,43,43,43,1,121,5,4,camel         ,radio       ,html/resources/sequences_IDs/A/03_camel.jpg,html/resources/sequences_IDs/B/10_radio.jpg,3,10,1,1,4,2,3,8,0,16,,,,,,,,,,,,,,,,,,,,
,,,,,16,2020-07-01_10h34.26.640,retriever_ti,2020.1.3,Win32,60,Chrome,1536,864,,,,,,,,,,,,,,,,,2,,,,,,,,,,,,,,,,,,,,,,,,,,,1017.63437,122,left,0.70161,phone       ,8,9,1,1,1,1017.667945,1017.667945,1020.167235,0,44,44,44,1,122,8,7,phone       ,seaturtle     ,html/resources/sequences_IDs/B/09_phone.jpg,html/resources/sequences_IDs/A/02_seaturtle.jpg,9,2,4,2,2,1,7,2,0,16,,,,,,,,,,,,,,,,,,,,
,,,,,16,2020-07-01_10h34.26.640,retriever_ti,2020.1.3,Win32,60,Chrome,1536,864,,,,,,,,,,,,,,,,,2,,,,,,,,,,,,,,,,,,,,,,,,,,,1021.26751,123,left,1.20545,wolf          ,3,1,1,1,1,1021.301275,1021.301275,1023.80058,0,45,45,45,1,123,3,2,wolf          ,gloves      ,html/resources/sequences_IDs/A/01_wolf.jpg,html/resources/sequences_IDs/B/06_gloves.jpg,1,6,1,1,3,2,1,5,0,16,,,,,,,,,,,,,,,,,,,,
,,,,,16,2020-07-01_10h34.26.640,retriever_ti,2020.1.3,Win32,60,Chrome,1536,864,,,,,,,,,,,,,,,,,2,,,,,,,,,,,,,,,,,,,,,,,,,,,1024.90126,124,left,1.374055,gloves      ,2,6,1,1,1,1024.93453,1024.93453,1027.43393,0,46,46,46,1,124,2,1,gloves      ,peacock       ,html/resources/sequences_IDs/B/06_gloves.jpg,html/resources/sequences_IDs/A/05_peacock.jpg,6,5,3,2,2,1,5,4,0,16,,,,,,,,,,,,,,,,,,,,
,,,,,16,2020-07-01_10h34.26.640,retriever_ti,2020.1.3,Win32,60,Chrome,1536,864,,,,,,,,,,,,,,,,,2,,,,,,,,,,,,,,,,,,,,,,,,,,,1028.53398,125,right,1.713405,radio       ,4,10,-4,0,3,1028.551165,1028.551165,1031.050555,0,47,47,47,1,125,8,4,phone       ,radio       ,html/resources/sequences_IDs/B/09_phone.jpg,html/resources/sequences_IDs/B/10_radio.jpg,9,10,4,2,4,2,7,8,0,16,,,,,,,,,,,,,,,,,,,,
,,,,,16,2020-07-01_10h34.26.640,retriever_ti,2020.1.3,Win32,60,Chrome,1536,864,,,,,,,,,,,,,,,,,2,,,,,,,,,,,,,,,,,,,,,,,,,,,1031.667855,126,left,1.19678,slipper     ,6,8,4,1,3,1031.70133,1031.70133,1034.20058,0,48,48,48,1,126,6,2,slipper     ,gloves      ,html/resources/sequences_IDs/B/08_slipper.jpg,html/resources/sequences_IDs/B/06_gloves.jpg,8,6,3,2,3,2,6,5,0,16,,,,,,,,,,,,,,,,,,,,
,,,,,16,2020-07-01_10h34.26.640,retriever_ti,2020.1.3,Win32,60,Chrome,1536,864,,,,,,,,,,,,,,,,,2,,,,,,,,,,,,,,,,,,,,,,,,,,,1034.81763,127,right,1.46128,radio       ,4,10,1,1,1,1034.83463,1034.83463,1037.33384,0,49,49,49,1,127,3,4,wolf          ,radio       ,html/resources/sequences_IDs/A/01_wolf.jpg,html/resources/sequences_IDs/B/10_radio.jpg,1,10,1,1,4,2,1,8,0,16,,,,,,,,,,,,,,,,,,,,
,,,,,16,2020-07-01_10h34.26.640,retriever_ti,2020.1.3,Win32,60,Chrome,1536,864,,,,,,,,,,,,,,,,,2,,,,,,,,,,,,,,,,,,,,,,,,,,,1038.434615,128,left,0.64928,radio       ,4,10,1,1,1,1038.467955,1038.467955,1040.967215,0,50,50,50,1,128,4,3,radio       ,wolf          ,html/resources/sequences_IDs/B/10_radio.jpg,html/resources/sequences_IDs/A/01_wolf.jpg,10,1,4,2,1,1,8,1,0,16,,,,,,,,,,,,,,,,,,,,
,,,,,16,2020-07-01_10h34.26.640,retriever_ti,2020.1.3,Win32,60,Chrome,1536,864,,,,,,,,,,,,,,,,,2,,,,,,,,,,,,,,,,,,,,,,,,,,,1042.067425,129,left,1.636045,seaturtle     ,7,2,6,1,3,1042.08465,1042.08465,1044.583975,0,51,51,51,1,129,7,1,seaturtle     ,peacock       ,html/resources/sequences_IDs/A/02_seaturtle.jpg,html/resources/sequences_IDs/A/05_peacock.jpg,2,5,2,1,2,1,2,4,0,16,,,,,,,,,,,,,,,,,,,,
,,,,,16,2020-07-01_10h34.26.640,retriever_ti,2020.1.3,Win32,60,Chrome,1536,864,,,,,,,,,,,,,,,,,2,,,,,,,,,,,,,,,,,,,,,,,,,,,1045.201245,130,left,0.664235,slipper     ,6,8,3,1,3,1045.23468,1045.23468,1047.733895,0,52,52,52,1,130,6,3,slipper     ,wolf          ,html/resources/sequences_IDs/B/08_slipper.jpg,html/resources/sequences_IDs/A/01_wolf.jpg,8,1,3,2,1,1,6,1,0,16,,,,,,,,,,,,,,,,,,,,
,,,,,16,2020-07-01_10h34.26.640,retriever_ti,2020.1.3,Win32,60,Chrome,1536,864,,,,,,,,,,,,,,,,,2,,,,,,,,,,,,,,,,,,,,,,,,,,,1048.35081,131,right,1.08745,camel         ,5,3,-1,0,0,1048.36805,1048.36805,1050.867295,0,53,53,53,1,131,6,5,slipper     ,camel         ,html/resources/sequences_IDs/B/08_slipper.jpg,html/resources/sequences_IDs/A/03_camel.jpg,8,3,3,2,1,1,6,3,0,16,,,,,,,,,,,,,,,,,,,,
,,,,,16,2020-07-01_10h34.26.640,retriever_ti,2020.1.3,Win32,60,Chrome,1536,864,,,,,,,,,,,,,,,,,2,,,,,,,,,,,,,,,,,,,,,,,,,,,1051.96784,132,right,0.86843,slipper     ,6,8,5,1,3,1051.985185,1051.985185,1054.48374,0,54,54,54,1,132,1,6,peacock       ,slipper     ,html/resources/sequences_IDs/A/05_peacock.jpg,html/resources/sequences_IDs/B/08_slipper.jpg,5,8,2,1,3,2,4,6,0,16,,,,,,,,,,,,,,,,,,,,
,,,,,16,2020-07-01_10h34.26.640,retriever_ti,2020.1.3,Win32,60,Chrome,1536,864,,,,,,,,,,,,,,,,,2,,,,,,,,,,,,,,,,,,,,,,,,,,,1055.08423,133,right,1.46008,slipper     ,6,8,-1,0,1,1055.118015,1055.118015,1057.61767,0,55,55,55,1,133,7,6,seaturtle     ,slipper     ,html/resources/sequences_IDs/A/02_seaturtle.jpg,html/resources/sequences_IDs/B/08_slipper.jpg,2,8,2,1,3,2,2,6,1,16,,,,,,,,,,,,,,,,,,,,
,,,,,16,2020-07-01_10h34.26.640,retriever_ti,2020.1.3,Win32,60,Chrome,1536,864,,,,,,,,,,,,,,,,,2,,,,,,,,,,,,,,,,,,,,,,,,,,,1058.71861,134,right,1.414205,phone       ,8,9,1,1,0,1058.753065,1058.753065,1061.250655,0,56,56,56,1,134,7,8,seaturtle     ,phone       ,html/resources/sequences_IDs/A/02_seaturtle.jpg,html/resources/sequences_IDs/B/09_phone.jpg,2,9,2,1,4,2,2,7,1,16,,,,,,,,,,,,,,,,,,,,
,,,,,16,2020-07-01_10h34.26.640,retriever_ti,2020.1.3,Win32,60,Chrome,1536,864,,,,,,,,,,,,,,,,,2,,,,,,,,,,,,,,,,,,,,,,,,,,,1062.35088,135,right,0.85449,slipper     ,6,8,-1,0,0,1062.368055,1062.368055,1064.867335,0,57,57,57,1,135,7,6,seaturtle     ,slipper     ,html/resources/sequences_IDs/A/02_seaturtle.jpg,html/resources/sequences_IDs/B/08_slipper.jpg,2,8,2,1,3,2,2,6,0,16,,,,,,,,,,,,,,,,,,,,
,,,,,16,2020-07-01_10h34.26.640,retriever_ti,2020.1.3,Win32,60,Chrome,1536,864,,,,,,,,,,,,,,,,,2,,,,,,,,,,,,,,,,,,,,,,,,,,,1065.967815,136,left,1.526385,radio       ,4,10,-4,0,3,1066.001205,1066.001205,1068.50042,0,58,58,58,1,136,4,8,radio       ,phone       ,html/resources/sequences_IDs/B/10_radio.jpg,html/resources/sequences_IDs/B/09_phone.jpg,10,9,4,2,4,2,8,7,0,16,,,,,,,,,,,,,,,,,,,,
,,,,,16,2020-07-01_10h34.26.640,retriever_ti,2020.1.3,Win32,60,Chrome,1536,864,,,,,,,,,,,,,,,,,2,,,,,,,,,,,,,,,,,,,,,,,,,,,1069.10098,137,right,0.84698,slipper     ,6,8,1,1,1,1069.117945,1069.117945,1071.61721,0,59,59,59,1,137,5,6,camel         ,slipper     ,html/resources/sequences_IDs/A/03_camel.jpg,html/resources/sequences_IDs/B/08_slipper.jpg,3,8,1,1,3,2,3,6,0,16,,,,,,,,,,,,,,,,,,,,
,,,,,16,2020-07-01_10h34.26.640,retriever_ti,2020.1.3,Win32,60,Chrome,1536,864,,,,,,,,,,,,,,,,,2,,,,,,,,,,,,,,,,,,,,,,,,,,,1072.71799,138,right,1.19633,camel         ,5,3,4,1,3,1072.73471,1072.73471,1075.23391,0,60,60,60,1,138,1,5,peacock       ,camel         ,html/resources/sequences_IDs/A/05_peacock.jpg,html/resources/sequences_IDs/A/03_camel.jpg,5,3,2,1,1,1,4,3,0,16,,,,,,,,,,,,,,,,,,,,
,,,,,16,2020-07-01_10h34.26.640,retriever_ti,2020.1.3,Win32,60,Chrome,1536,864,,,,,,,,,,,,,,,,,2,,,,,,,,,,,,,,,,,,,,,,,,,,,1075.85094,139,right,1.0931,camel         ,5,3,3,1,3,1075.884715,1075.884715,1078.38457,0,61,61,61,1,139,2,5,gloves      ,camel         ,html/resources/sequences_IDs/B/06_gloves.jpg,html/resources/sequences_IDs/A/03_camel.jpg,6,3,3,2,1,1,5,3,0,16,,,,,,,,,,,,,,,,,,,,
,,,,,16,2020-07-01_10h34.26.640,retriever_ti,2020.1.3,Win32,60,Chrome,1536,864,,,,,,,,,,,,,,,,,2,,,,,,,,,,,,,,,,,,,,,,,,,,,1079.002295,140,left,1.32071,gloves      ,2,6,-1,0,0,1079.019635,1079.019635,1081.517155,0,62,62,62,1,140,2,3,gloves      ,wolf          ,html/resources/sequences_IDs/B/06_gloves.jpg,html/resources/sequences_IDs/A/01_wolf.jpg,6,1,3,2,1,1,5,1,0,16,,,,,,,,,,,,,,,,,,,,
,,,,,16,2020-07-01_10h34.26.640,retriever_ti,2020.1.3,Win32,60,Chrome,1536,864,,,,,,,,,,,,,,,,,2,,,,,,,,,,,,,,,,,,,,,,,,,,,1082.617425,141,left,1.420645,camel         ,5,3,-3,0,3,1082.634685,1082.634685,1085.13395,0,63,63,63,1,141,5,8,camel         ,phone       ,html/resources/sequences_IDs/A/03_camel.jpg,html/resources/sequences_IDs/B/09_phone.jpg,3,9,1,1,4,2,3,7,0,16,,,,,,,,,,,,,,,,,,,,
,,,,,16,2020-07-01_10h34.26.640,retriever_ti,2020.1.3,Win32,60,Chrome,1536,864,,,,,,,,,,,,,,,,,2,,,,,,,,,,,,,,,,,,,,,,,,,,,1085.751385,142,left,0.88143,slipper     ,6,8,-1,0,0,1085.768,1085.768,1088.26767,0,64,64,64,1,142,6,7,slipper     ,seaturtle     ,html/resources/sequences_IDs/B/08_slipper.jpg,html/resources/sequences_IDs/A/02_seaturtle.jpg,8,2,3,2,2,1,6,2,0,16,,,,,,,,,,,,,,,,,,,,
,,,,,16,2020-07-01_10h34.26.640,retriever_ti,2020.1.3,Win32,60,Chrome,1536,864,,,,,,,,,,,,,,,,,2,,,,,,,,,,,,,,,,,,,,,,,,,,,1089.36847,143,left,1.380925,seaturtle     ,7,2,-1,0,0,1089.38613,1089.38613,1091.883945,0,65,65,65,1,143,7,8,seaturtle     ,phone       ,html/resources/sequences_IDs/A/02_seaturtle.jpg,html/resources/sequences_IDs/B/09_phone.jpg,2,9,2,1,4,2,2,7,0,16,,,,,,,,,,,,,,,,,,,,
,,,,,16,2020-07-01_10h34.26.640,retriever_ti,2020.1.3,Win32,60,Chrome,1536,864,,,,,,,,,,,,,,,,,2,,,,,,,,,,,,,,,,,,,,,,,,,,,1092.98458,144,right,0.74255,radio       ,4,10,1,1,1,1093.01802,1093.01802,1095.517305,0,66,66,66,1,144,3,4,wolf          ,radio       ,html/resources/sequences_IDs/A/01_wolf.jpg,html/resources/sequences_IDs/B/10_radio.jpg,1,10,1,1,4,2,1,8,0,16,,,,,,,,,,,,,,,,,,,,
,,,,,16,2020-07-01_10h34.26.640,retriever_ti,2020.1.3,Win32,60,Chrome,1536,864,,,,,,,,,,,,,,,,,2,,,,,,,,,,,,,,,,,,,,,,,,,,,1096.617465,145,right,0.99387,radio       ,4,10,3,1,3,1096.65123,1096.65123,1099.15145,0,67,67,67,1,145,1,4,peacock       ,radio       ,html/resources/sequences_IDs/A/05_peacock.jpg,html/resources/sequences_IDs/B/10_radio.jpg,5,10,2,1,4,2,4,8,0,16,,,,,,,,,,,,,,,,,,,,
,,,,,16,2020-07-01_10h34.26.640,retriever_ti,2020.1.3,Win32,60,Chrome,1536,864,,,,,,,,,,,,,,,,,2,,,,,,,,,,,,,,,,,,,,,,,,,,,1099.768745,146,left,0.83957,radio       ,4,10,-3,0,3,1099.80275,1099.80275,1102.30069,0,68,68,68,1,146,4,7,radio       ,seaturtle     ,html/resources/sequences_IDs/B/10_radio.jpg,html/resources/sequences_IDs/A/02_seaturtle.jpg,10,2,4,2,2,1,8,2,0,16,,,,,,,,,,,,,,,,,,,,
,,,,,16,2020-07-01_10h34.26.640,retriever_ti,2020.1.3,Win32,60,Chrome,1536,864,,,,,,,,,,,,,,,,,2,,,,,,,,,,,,,,,,,,,,,,,,,,,1102.917805,147,right,1.13418,slipper     ,6,8,1,1,0,1102.95146,1102.95146,1105.45066,0,69,69,69,1,147,5,6,camel         ,slipper     ,html/resources/sequences_IDs/A/03_camel.jpg,html/resources/sequences_IDs/B/08_slipper.jpg,3,8,1,1,3,2,3,6,1,16,,,,,,,,,,,,,,,,,,,,
,,,,,16,2020-07-01_10h34.26.640,retriever_ti,2020.1.3,Win32,60,Chrome,1536,864,,,,,,,,,,,,,,,,,2,,,,,,,,,,,,,,,,,,,,,,,,,,,1106.55108,148,left,1.266735,peacock       ,1,5,-2,0,3,1106.56811,1106.56811,1109.06736,0,70,70,70,1,148,1,3,peacock       ,wolf          ,html/resources/sequences_IDs/A/05_peacock.jpg,html/resources/sequences_IDs/A/01_wolf.jpg,5,1,2,1,1,1,4,1,0,16,,,,,,,,,,,,,,,,,,,,
,,,,,16,2020-07-01_10h34.26.640,retriever_ti,2020.1.3,Win32,60,Chrome,1536,864,,,,,,,,,,,,,,,,,2,,,,,,,,,,,,,,,,,,,,,,,,,,,1109.684385,149,left,0.803705,slipper     ,6,8,5,1,3,1109.71843,1109.71843,1112.21736,0,71,71,71,1,149,6,1,slipper     ,peacock       ,html/resources/sequences_IDs/B/08_slipper.jpg,html/resources/sequences_IDs/A/05_peacock.jpg,8,5,3,2,2,1,6,4,0,16,,,,,,,,,,,,,,,,,,,,
,,,,,16,2020-07-01_10h34.26.640,retriever_ti,2020.1.3,Win32,60,Chrome,1536,864,,,,,,,,,,,,,,,,,2,,,,,,,,,,,,,,,,,,,,,,,,,,,1112.83462,150,right,1.113535,gloves      ,2,6,-6,0,3,1112.86808,1112.86808,1115.367685,0,72,72,72,1,150,8,2,phone       ,gloves      ,html/resources/sequences_IDs/B/09_phone.jpg,html/resources/sequences_IDs/B/06_gloves.jpg,9,6,4,2,3,2,7,5,0,16,,,,,,,,,,,,,,,,,,,,
,,,,,16,2020-07-01_10h34.26.640,retriever_ti,2020.1.3,Win32,60,Chrome,1536,864,,,,,,,,,,,,,,,,,2,,,,,,,,,,,,,,,,,,,,,,,,,,,1115.98512,151,left,0.70325,gloves      ,2,6,-6,0,3,1116.01944,1116.01944,1118.51764,0,73,73,73,1,151,2,8,gloves      ,phone       ,html/resources/sequences_IDs/B/06_gloves.jpg,html/resources/sequences_IDs/B/09_phone.jpg,6,9,3,2,4,2,5,7,0,16,,,,,,,,,,,,,,,,,,,,
,,,,,16,2020-07-01_10h34.26.640,retriever_ti,2020.1.3,Win32,60,Chrome,1536,864,,,,,,,,,,,,,,,,,2,,,,,,,,,,,,,,,,,,,,,,,,,,,1119.118935,152,right,0.878515,seaturtle     ,7,2,2,1,3,1119.135925,1119.135925,1121.633865,0,74,74,74,1,152,5,7,camel         ,seaturtle     ,html/resources/sequences_IDs/A/03_camel.jpg,html/resources/sequences_IDs/A/02_seaturtle.jpg,3,2,1,1,2,1,3,2,0,16,,,,,,,,,,,,,,,,,,,,
,,,,,16,2020-07-01_10h34.26.640,retriever_ti,2020.1.3,Win32,60,Chrome,1536,864,,,,,,,,,,,,,,,,,2,,,,,,,,,,,,,,,,,,,,,,,,,,,1122.234295,153,left,0.468225,radio       ,4,10,1,1,1,1122.26794,1122.26794,1124.767335,0,75,75,75,1,153,4,3,radio       ,wolf          ,html/resources/sequences_IDs/B/10_radio.jpg,html/resources/sequences_IDs/A/01_wolf.jpg,10,1,4,2,1,1,8,1,0,16,,,,,,,,,,,,,,,,,,,,
,,,,,16,2020-07-01_10h34.26.640,retriever_ti,2020.1.3,Win32,60,Chrome,1536,864,,,,,,,,,,,,,,,,,2,,,,,,,,,,,,,,,,,,,,,,,,,,,1125.86793,154,right,1.081215,slipper     ,6,8,4,1,3,1125.884835,1125.884835,1128.384035,0,76,76,76,1,154,2,6,gloves      ,slipper     ,html/resources/sequences_IDs/B/06_gloves.jpg,html/resources/sequences_IDs/B/08_slipper.jpg,6,8,3,2,3,2,5,6,0,16,,,,,,,,,,,,,,,,,,,,
,,,,,16,2020-07-01_10h34.26.640,retriever_ti,2020.1.3,Win32,60,Chrome,1536,864,,,,,,,,,,,,,,,,,,,,,,,,,,,,,,,,,,,,,0,1.569945,,,,,,,,,,,,,,,,,,,,,,,,,,,,,,,,,,,,,,,,,1,0,1,0,1,,,,,,,,,,,,,,,
,,,,,16,2020-07-01_10h34.26.640,retriever_ti,2020.1.3,Win32,60,Chrome,1536,864,,,,,,,,,,,,,,,,,3,,,,,,,,,,,,,,,,,,,,,,,,,,,1139.74478,155,right,1.181465,slipper     ,6,8,1,1,1,1139.769685,1139.769685,1142.26743,0,0,0,0,1,155,5,6,camel         ,slipper     ,html/resources/sequences_IDs/A/03_camel.jpg,html/resources/sequences_IDs/B/08_slipper.jpg,3,8,1,1,3,2,3,6,0,16,,,,,,,,,,,,,,,,,,,,
,,,,,16,2020-07-01_10h34.26.640,retriever_ti,2020.1.3,Win32,60,Chrome,1536,864,,,,,,,,,,,,,,,,,3,,,,,,,,,,,,,,,,,,,,,,,,,,,1143.367785,156,right,0.85993,gloves      ,2,6,1,1,1,1143.401395,1143.401395,1145.900745,0,1,1,1,1,156,1,2,peacock       ,gloves      ,html/resources/sequences_IDs/A/05_peacock.jpg,html/resources/sequences_IDs/B/06_gloves.jpg,5,6,2,1,3,2,4,5,0,16,,,,,,,,,,,,,,,,,,,,
,,,,,16,2020-07-01_10h34.26.640,retriever_ti,2020.1.3,Win32,60,Chrome,1536,864,,,,,,,,,,,,,,,,,3,,,,,,,,,,,,,,,,,,,,,,,,,,,1147.0014,157,right,0.689745,phone       ,8,9,1,1,0,1147.034635,1147.034635,1149.533995,0,2,2,2,1,157,7,8,seaturtle     ,phone       ,html/resources/sequences_IDs/A/02_seaturtle.jpg,html/resources/sequences_IDs/B/09_phone.jpg,2,9,2,1,4,2,2,7,1,16,,,,,,,,,,,,,,,,,,,,
,,,,,16,2020-07-01_10h34.26.640,retriever_ti,2020.1.3,Win32,60,Chrome,1536,864,,,,,,,,,,,,,,,,,3,,,,,,,,,,,,,,,,,,,,,,,,,,,1150.63425,158,left,0.935035,slipper     ,6,8,-1,0,0,1150.651385,1150.651385,1153.150695,0,3,3,3,1,158,6,7,slipper     ,seaturtle     ,html/resources/sequences_IDs/B/08_slipper.jpg,html/resources/sequences_IDs/A/02_seaturtle.jpg,8,2,3,2,2,1,6,2,0,16,,,,,,,,,,,,,,,,,,,,
,,,,,16,2020-07-01_10h34.26.640,retriever_ti,2020.1.3,Win32,60,Chrome,1536,864,,,,,,,,,,,,,,,,,3,,,,,,,,,,,,,,,,,,,,,,,,,,,1154.251475,159,right,1.157085,peacock       ,1,5,-1,0,0,1154.2848,1154.2848,1156.784085,0,4,4,4,1,159,2,1,gloves      ,peacock       ,html/resources/sequences_IDs/B/06_gloves.jpg,html/resources/sequences_IDs/A/05_peacock.jpg,6,5,3,2,2,1,5,4,0,16,,,,,,,,,,,,,,,,,,,,
,,,,,16,2020-07-01_10h34.26.640,retriever_ti,2020.1.3,Win32,60,Chrome,1536,864,,,,,,,,,,,,,,,,,3,,,,,,,,,,,,,,,,,,,,,,,,,,,1157.884385,160,right,1.198975,radio       ,4,10,-1,0,0,1157.918155,1157.918155,1160.417385,0,5,5,5,1,160,5,4,camel         ,radio       ,html/resources/sequences_IDs/A/03_camel.jpg,html/resources/sequences_IDs/B/10_radio.jpg,3,10,1,1,4,2,3,8,0,16,,,,,,,,,,,,,,,,,,,,
,,,,,16,2020-07-01_10h34.26.640,retriever_ti,2020.1.3,Win32,60,Chrome,1536,864,,,,,,,,,,,,,,,,,3,,,,,,,,,,,,,,,,,,,,,,,,,,,1161.518145,161,left,1.237895,seaturtle     ,7,2,3,1,3,1161.53474,1161.53474,1164.033925,0,6,6,6,1,161,7,4,seaturtle     ,radio       ,html/resources/sequences_IDs/A/02_seaturtle.jpg,html/resources/sequences_IDs/B/10_radio.jpg,2,10,2,1,4,2,2,8,0,16,,,,,,,,,,,,,,,,,,,,
,,,,,16,2020-07-01_10h34.26.640,retriever_ti,2020.1.3,Win32,60,Chrome,1536,864,,,,,,,,,,,,,,,,,3,,,,,,,,,,,,,,,,,,,,,,,,,,,1164.65106,162,right,0.94611,peacock       ,1,5,-3,0,3,1164.68521,1164.68521,1167.184035,0,7,7,7,1,162,4,1,radio       ,peacock       ,html/resources/sequences_IDs/B/10_radio.jpg,html/resources/sequences_IDs/A/05_peacock.jpg,10,5,4,2,2,1,8,4,0,16,,,,,,,,,,,,,,,,,,,,
,,,,,16,2020-07-01_10h34.26.640,retriever_ti,2020.1.3,Win32,60,Chrome,1536,864,,,,,,,,,,,,,,,,,3,,,,,,,,,,,,,,,,,,,,,,,,,,,1167.80138,163,left,0.848655,seaturtle     ,7,2,1,1,0,1167.818125,1167.818125,1170.318,0,8,8,8,1,163,7,6,seaturtle     ,slipper     ,html/resources/sequences_IDs/A/02_seaturtle.jpg,html/resources/sequences_IDs/B/08_slipper.jpg,2,8,2,1,3,2,2,6,1,16,,,,,,,,,,,,,,,,,,,,
,,,,,16,2020-07-01_10h34.26.640,retriever_ti,2020.1.3,Win32,60,Chrome,1536,864,,,,,,,,,,,,,,,,,3,,,,,,,,,,,,,,,,,,,,,,,,,,,1171.418555,164,right,1.579895,seaturtle     ,7,2,2,1,3,1171.45268,1171.45268,1173.95065,0,9,9,9,1,164,5,7,camel         ,seaturtle     ,html/resources/sequences_IDs/A/03_camel.jpg,html/resources/sequences_IDs/A/02_seaturtle.jpg,3,2,1,1,2,1,3,2,0,16,,,,,,,,,,,,,,,,,,,,
,,,,,16,2020-07-01_10h34.26.640,retriever_ti,2020.1.3,Win32,60,Chrome,1536,864,,,,,,,,,,,,,,,,,3,,,,,,,,,,,,,,,,,,,,,,,,,,,1174.55129,165,right,1.163265,gloves      ,2,6,-2,0,3,1174.56795,1174.56795,1177.067445,0,10,10,10,1,165,4,2,radio       ,gloves      ,html/resources/sequences_IDs/B/10_radio.jpg,html/resources/sequences_IDs/B/06_gloves.jpg,10,6,4,2,3,2,8,5,0,16,,,,,,,,,,,,,,,,,,,,
,,,,,16,2020-07-01_10h34.26.640,retriever_ti,2020.1.3,Win32,60,Chrome,1536,864,,,,,,,,,,,,,,,,,3,,,,,,,,,,,,,,,,,,,,,,,,,,,1177.684265,166,right,1.74692,seaturtle     ,7,2,-1,0,0,1177.701395,1177.701395,1180.2007,0,11,11,11,1,166,8,7,phone       ,seaturtle     ,html/resources/sequences_IDs/B/09_phone.jpg,html/resources/sequences_IDs/A/02_seaturtle.jpg,9,2,4,2,2,1,7,2,0,16,,,,,,,,,,,,,,,,,,,,
,,,,,16,2020-07-01_10h34.26.640,retriever_ti,2020.1.3,Win32,60,Chrome,1536,864,,,,,,,,,,,,,,,,,3,,,,,,,,,,,,,,,,,,,,,,,,,,,1181.30144,167,left,0.746315,phone       ,8,9,3,1,3,1181.334845,1181.334845,1183.8341,0,12,12,12,1,167,8,5,phone       ,camel         ,html/resources/sequences_IDs/B/09_phone.jpg,html/resources/sequences_IDs/A/03_camel.jpg,9,3,4,2,1,1,7,3,0,16,,,,,,,,,,,,,,,,,,,,
,,,,,16,2020-07-01_10h34.26.640,retriever_ti,2020.1.3,Win32,60,Chrome,1536,864,,,,,,,,,,,,,,,,,3,,,,,,,,,,,,,,,,,,,,,,,,,,,1184.451065,168,right,0.797955,phone       ,8,9,5,1,3,1184.48479,1184.48479,1186.983935,0,13,13,13,1,168,3,8,wolf          ,phone       ,html/resources/sequences_IDs/A/01_wolf.jpg,html/resources/sequences_IDs/B/09_phone.jpg,1,9,1,1,4,2,1,7,0,16,,,,,,,,,,,,,,,,,,,,
,,,,,16,2020-07-01_10h34.26.640,retriever_ti,2020.1.3,Win32,60,Chrome,1536,864,,,,,,,,,,,,,,,,,3,,,,,,,,,,,,,,,,,,,,,,,,,,,1187.584765,169,right,0.927315,wolf          ,3,1,-4,0,3,1187.6182,1187.6182,1190.11784,0,14,14,14,1,169,7,3,seaturtle     ,wolf          ,html/resources/sequences_IDs/A/02_seaturtle.jpg,html/resources/sequences_IDs/A/01_wolf.jpg,2,1,2,1,1,1,2,1,0,16,,,,,,,,,,,,,,,,,,,,
,,,,,16,2020-07-01_10h34.26.640,retriever_ti,2020.1.3,Win32,60,Chrome,1536,864,,,,,,,,,,,,,,,,,3,,,,,,,,,,,,,,,,,,,,,,,,,,,1190.734965,170,left,1.36103,peacock       ,1,5,-1,0,0,1190.75265,1190.75265,1193.251325,0,15,15,15,1,170,1,2,peacock       ,gloves      ,html/resources/sequences_IDs/A/05_peacock.jpg,html/resources/sequences_IDs/B/06_gloves.jpg,5,6,2,1,3,2,4,5,0,16,,,,,,,,,,,,,,,,,,,,
,,,,,16,2020-07-01_10h34.26.640,retriever_ti,2020.1.3,Win32,60,Chrome,1536,864,,,,,,,,,,,,,,,,,3,,,,,,,,,,,,,,,,,,,,,,,,,,,1194.35224,171,right,0.68297,seaturtle     ,7,2,-1,0,0,1194.38602,1194.38602,1196.8844,0,16,16,16,1,171,8,7,phone       ,seaturtle     ,html/resources/sequences_IDs/B/09_phone.jpg,html/resources/sequences_IDs/A/02_seaturtle.jpg,9,2,4,2,2,1,7,2,0,16,,,,,,,,,,,,,,,,,,,,
,,,,,16,2020-07-01_10h34.26.640,retriever_ti,2020.1.3,Win32,60,Chrome,1536,864,,,,,,,,,,,,,,,,,3,,,,,,,,,,,,,,,,,,,,,,,,,,,1197.985295,172,right,0.901315,slipper     ,6,8,2,1,3,1198.019575,1198.019575,1200.518005,0,17,17,17,1,172,4,6,radio       ,slipper     ,html/resources/sequences_IDs/B/10_radio.jpg,html/resources/sequences_IDs/B/08_slipper.jpg,10,8,4,2,3,2,8,6,0,16,,,,,,,,,,,,,,,,,,,,
,,,,,16,2020-07-01_10h34.26.640,retriever_ti,2020.1.3,Win32,60,Chrome,1536,864,,,,,,,,,,,,,,,,,3,,,,,,,,,,,,,,,,,,,,,,,,,,,1201.135695,173,right,0.782485,slipper     ,6,8,-2,0,3,1201.169285,1201.169285,1203.66811,0,18,18,18,1,173,8,6,phone       ,slipper     ,html/resources/sequences_IDs/B/09_phone.jpg,html/resources/sequences_IDs/B/08_slipper.jpg,9,8,4,2,3,2,7,6,0,16,,,,,,,,,,,,,,,,,,,,
,,,,,16,2020-07-01_10h34.26.640,retriever_ti,2020.1.3,Win32,60,Chrome,1536,864,,,,,,,,,,,,,,,,,3,,,,,,,,,,,,,,,,,,,,,,,,,,,1204.28511,174,left,0.9411,wolf          ,3,1,1,1,1,1204.30295,1204.30295,1206.80078,0,19,19,19,1,174,3,2,wolf          ,gloves      ,html/resources/sequences_IDs/A/01_wolf.jpg,html/resources/sequences_IDs/B/06_gloves.jpg,1,6,1,1,3,2,1,5,0,16,,,,,,,,,,,,,,,,,,,,
,,,,,16,2020-07-01_10h34.26.640,retriever_ti,2020.1.3,Win32,60,Chrome,1536,864,,,,,,,,,,,,,,,,,3,,,,,,,,,,,,,,,,,,,,,,,,,,,1207.90161,175,left,0.76099,slipper     ,6,8,5,1,3,1207.91821,1207.91821,1210.41744,0,20,20,20,1,175,6,1,slipper     ,peacock       ,html/resources/sequences_IDs/B/08_slipper.jpg,html/resources/sequences_IDs/A/05_peacock.jpg,8,5,3,2,2,1,6,4,0,16,,,,,,,,,,,,,,,,,,,,
,,,,,16,2020-07-01_10h34.26.640,retriever_ti,2020.1.3,Win32,60,Chrome,1536,864,,,,,,,,,,,,,,,,,3,,,,,,,,,,,,,,,,,,,,,,,,,,,1211.034325,176,left,0.877295,seaturtle     ,7,2,1,1,1,1211.051565,1211.051565,1213.55071,0,21,21,21,1,176,7,6,seaturtle     ,slipper     ,html/resources/sequences_IDs/A/02_seaturtle.jpg,html/resources/sequences_IDs/B/08_slipper.jpg,2,8,2,1,3,2,2,6,0,16,,,,,,,,,,,,,,,,,,,,
,,,,,16,2020-07-01_10h34.26.640,retriever_ti,2020.1.3,Win32,60,Chrome,1536,864,,,,,,,,,,,,,,,,,3,,,,,,,,,,,,,,,,,,,,,,,,,,,1214.651455,177,left,0.8407,seaturtle     ,7,2,-1,0,0,1214.68487,1214.68487,1217.18412,0,22,22,22,1,177,7,8,seaturtle     ,phone       ,html/resources/sequences_IDs/A/02_seaturtle.jpg,html/resources/sequences_IDs/B/09_phone.jpg,2,9,2,1,4,2,2,7,0,16,,,,,,,,,,,,,,,,,,,,
,,,,,16,2020-07-01_10h34.26.640,retriever_ti,2020.1.3,Win32,60,Chrome,1536,864,,,,,,,,,,,,,,,,,3,,,,,,,,,,,,,,,,,,,,,,,,,,,1218.284295,178,right,0.793085,slipper     ,6,8,1,1,0,1218.31815,1218.31815,1220.8181,0,23,23,23,1,178,5,6,camel         ,slipper     ,html/resources/sequences_IDs/A/03_camel.jpg,html/resources/sequences_IDs/B/08_slipper.jpg,3,8,1,1,3,2,3,6,1,16,,,,,,,,,,,,,,,,,,,,
,,,,,16,2020-07-01_10h34.26.640,retriever_ti,2020.1.3,Win32,60,Chrome,1536,864,,,,,,,,,,,,,,,,,3,,,,,,,,,,,,,,,,,,,,,,,,,,,1221.918905,179,left,0.99714,radio       ,4,10,-3,0,3,1221.93682,1221.93682,1224.43477,0,24,24,24,1,179,4,7,radio       ,seaturtle     ,html/resources/sequences_IDs/B/10_radio.jpg,html/resources/sequences_IDs/A/02_seaturtle.jpg,10,2,4,2,2,1,8,2,0,16,,,,,,,,,,,,,,,,,,,,
,,,,,16,2020-07-01_10h34.26.640,retriever_ti,2020.1.3,Win32,60,Chrome,1536,864,,,,,,,,,,,,,,,,,3,,,,,,,,,,,,,,,,,,,,,,,,,,,1225.051935,180,right,1.11409,phone       ,8,9,6,1,3,1225.08632,1225.08632,1227.584135,0,25,25,25,1,180,2,8,gloves      ,phone       ,html/resources/sequences_IDs/B/06_gloves.jpg,html/resources/sequences_IDs/B/09_phone.jpg,6,9,3,2,4,2,5,7,0,16,,,,,,,,,,,,,,,,,,,,
,,,,,16,2020-07-01_10h34.26.640,retriever_ti,2020.1.3,Win32,60,Chrome,1536,864,,,,,,,,,,,,,,,,,3,,,,,,,,,,,,,,,,,,,,,,,,,,,1228.2015,181,left,0.960555,wolf          ,3,1,-1,0,1,1228.2347,1228.2347,1230.734515,0,26,26,26,1,181,3,4,wolf          ,radio       ,html/resources/sequences_IDs/A/01_wolf.jpg,html/resources/sequences_IDs/B/10_radio.jpg,1,10,1,1,4,2,1,8,1,16,,,,,,,,,,,,,,,,,,,,
,,,,,16,2020-07-01_10h34.26.640,retriever_ti,2020.1.3,Win32,60,Chrome,1536,864,,,,,,,,,,,,,,,,,3,,,,,,,,,,,,,,,,,,,,,,,,,,,1231.83516,182,left,1.095125,camel         ,5,3,1,1,0,1231.86965,1231.86965,1234.36748,0,27,27,27,1,182,5,4,camel         ,radio       ,html/resources/sequences_IDs/A/03_camel.jpg,html/resources/sequences_IDs/B/10_radio.jpg,3,10,1,1,4,2,3,8,1,16,,,,,,,,,,,,,,,,,,,,
,,,,,16,2020-07-01_10h34.26.640,retriever_ti,2020.1.3,Win32,60,Chrome,1536,864,,,,,,,,,,,,,,,,,3,,,,,,,,,,,,,,,,,,,,,,,,,,,1235.46822,183,right,1.93796,gloves      ,2,6,1,1,0,1235.501565,1235.501565,1238.000875,0,28,28,28,1,183,1,2,peacock       ,gloves      ,html/resources/sequences_IDs/A/05_peacock.jpg,html/resources/sequences_IDs/B/06_gloves.jpg,5,6,2,1,3,2,4,5,1,16,,,,,,,,,,,,,,,,,,,,
,,,,,16,2020-07-01_10h34.26.640,retriever_ti,2020.1.3,Win32,60,Chrome,1536,864,,,,,,,,,,,,,,,,,3,,,,,,,,,,,,,,,,,,,,,,,,,,,1239.100965,184,left,0.928045,slipper     ,6,8,3,1,3,1239.1182,1239.1182,1241.61775,0,29,29,29,1,184,6,3,slipper     ,wolf          ,html/resources/sequences_IDs/B/08_slipper.jpg,html/resources/sequences_IDs/A/01_wolf.jpg,8,1,3,2,1,1,6,1,0,16,,,,,,,,,,,,,,,,,,,,
,,,,,16,2020-07-01_10h34.26.640,retriever_ti,2020.1.3,Win32,60,Chrome,1536,864,,,,,,,,,,,,,,,,,3,,,,,,,,,,,,,,,,,,,,,,,,,,,1242.235745,185,right,1.276915,gloves      ,2,6,-5,0,3,1242.252955,1242.252955,1244.751235,0,30,30,30,1,185,7,2,seaturtle     ,gloves      ,html/resources/sequences_IDs/A/02_seaturtle.jpg,html/resources/sequences_IDs/B/06_gloves.jpg,2,6,2,1,3,2,2,5,0,16,,,,,,,,,,,,,,,,,,,,
,,,,,16,2020-07-01_10h34.26.640,retriever_ti,2020.1.3,Win32,60,Chrome,1536,864,,,,,,,,,,,,,,,,,3,,,,,,,,,,,,,,,,,,,,,,,,,,,1245.36872,186,left,1.693115,slipper     ,6,8,2,1,3,1245.403055,1245.403055,1247.90084,0,31,31,31,1,186,6,4,slipper     ,radio       ,html/resources/sequences_IDs/B/08_slipper.jpg,html/resources/sequences_IDs/B/10_radio.jpg,8,10,3,2,4,2,6,8,0,16,,,,,,,,,,,,,,,,,,,,
,,,,,16,2020-07-01_10h34.26.640,retriever_ti,2020.1.3,Win32,60,Chrome,1536,864,,,,,,,,,,,,,,,,,3,,,,,,,,,,,,,,,,,,,,,,,,,,,1248.51814,187,right,0.99432,radio       ,4,10,3,1,3,1248.534765,1248.534765,1251.034085,0,32,32,32,1,187,1,4,peacock       ,radio       ,html/resources/sequences_IDs/A/05_peacock.jpg,html/resources/sequences_IDs/B/10_radio.jpg,5,10,2,1,4,2,4,8,0,16,,,,,,,,,,,,,,,,,,,,
,,,,,16,2020-07-01_10h34.26.640,retriever_ti,2020.1.3,Win32,60,Chrome,1536,864,,,,,,,,,,,,,,,,,3,,,,,,,,,,,,,,,,,,,,,,,,,,,1251.651045,188,right,1.58266,gloves      ,2,6,-1,0,1,1251.684805,1251.684805,1254.18415,0,33,33,33,1,188,3,2,wolf          ,gloves      ,html/resources/sequences_IDs/A/01_wolf.jpg,html/resources/sequences_IDs/B/06_gloves.jpg,1,6,1,1,3,2,1,5,1,16,,,,,,,,,,,,,,,,,,,,
,,,,,16,2020-07-01_10h34.26.640,retriever_ti,2020.1.3,Win32,60,Chrome,1536,864,,,,,,,,,,,,,,,,,3,,,,,,,,,,,,,,,,,,,,,,,,,,,1255.28493,189,right,1.3503,seaturtle     ,7,2,5,1,3,1255.318265,1255.318265,1257.81747,0,34,34,34,1,189,2,7,gloves      ,seaturtle     ,html/resources/sequences_IDs/B/06_gloves.jpg,html/resources/sequences_IDs/A/02_seaturtle.jpg,6,2,3,2,2,1,5,2,0,16,,,,,,,,,,,,,,,,,,,,
,,,,,16,2020-07-01_10h34.26.640,retriever_ti,2020.1.3,Win32,60,Chrome,1536,864,,,,,,,,,,,,,,,,,3,,,,,,,,,,,,,,,,,,,,,,,,,,,1258.43446,190,left,1.158345,slipper     ,6,8,-2,0,3,1258.46819,1258.46819,1260.96742,0,35,35,35,1,190,6,8,slipper     ,phone       ,html/resources/sequences_IDs/B/08_slipper.jpg,html/resources/sequences_IDs/B/09_phone.jpg,8,9,3,2,4,2,6,7,0,16,,,,,,,,,,,,,,,,,,,,
,,,,,16,2020-07-01_10h34.26.640,retriever_ti,2020.1.3,Win32,60,Chrome,1536,864,,,,,,,,,,,,,,,,,3,,,,,,,,,,,,,,,,,,,,,,,,,,,1261.584815,191,right,1.5848,camel         ,5,3,1,1,1,1261.61813,1261.61813,1264.11812,0,36,36,36,1,191,4,5,radio       ,camel         ,html/resources/sequences_IDs/B/10_radio.jpg,html/resources/sequences_IDs/A/03_camel.jpg,10,3,4,2,1,1,8,3,0,16,,,,,,,,,,,,,,,,,,,,
,,,,,16,2020-07-01_10h34.26.640,retriever_ti,2020.1.3,Win32,60,Chrome,1536,864,,,,,,,,,,,,,,,,,3,,,,,,,,,,,,,,,,,,,,,,,,,,,1265.2186,192,left,1.020105,slipper     ,6,8,1,1,1,1265.25299,1265.25299,1267.750715,0,37,37,37,1,192,6,5,slipper     ,camel         ,html/resources/sequences_IDs/B/08_slipper.jpg,html/resources/sequences_IDs/A/03_camel.jpg,8,3,3,2,1,1,6,3,0,16,,,,,,,,,,,,,,,,,,,,
,,,,,16,2020-07-01_10h34.26.640,retriever_ti,2020.1.3,Win32,60,Chrome,1536,864,,,,,,,,,,,,,,,,,3,,,,,,,,,,,,,,,,,,,,,,,,,,,1268.85137,193,right,0.684695,wolf          ,3,1,-5,0,3,1268.868315,1268.868315,1271.367495,0,38,38,38,1,193,8,3,phone       ,wolf          ,html/resources/sequences_IDs/B/09_phone.jpg,html/resources/sequences_IDs/A/01_wolf.jpg,9,1,4,2,1,1,7,1,0,16,,,,,,,,,,,,,,,,,,,,
,,,,,16,2020-07-01_10h34.26.640,retriever_ti,2020.1.3,Win32,60,Chrome,1536,864,,,,,,,,,,,,,,,,,3,,,,,,,,,,,,,,,,,,,,,,,,,,,1271.984265,194,left,0.649485,wolf          ,3,1,-4,0,3,1272.001605,1272.001605,1274.500785,0,39,39,39,1,194,3,7,wolf          ,seaturtle     ,html/resources/sequences_IDs/A/01_wolf.jpg,html/resources/sequences_IDs/A/02_seaturtle.jpg,1,2,1,1,2,1,1,2,0,16,,,,,,,,,,,,,,,,,,,,
,,,,,16,2020-07-01_10h34.26.640,retriever_ti,2020.1.3,Win32,60,Chrome,1536,864,,,,,,,,,,,,,,,,,3,,,,,,,,,,,,,,,,,,,,,,,,,,,1275.118175,195,left,0.68726,seaturtle     ,7,2,6,1,3,1275.13472,1275.13472,1277.63414,0,40,40,40,1,195,7,1,seaturtle     ,peacock       ,html/resources/sequences_IDs/A/02_seaturtle.jpg,html/resources/sequences_IDs/A/05_peacock.jpg,2,5,2,1,2,1,2,4,0,16,,,,,,,,,,,,,,,,,,,,
,,,,,16,2020-07-01_10h34.26.640,retriever_ti,2020.1.3,Win32,60,Chrome,1536,864,,,,,,,,,,,,,,,,,3,,,,,,,,,,,,,,,,,,,,,,,,,,,1278.234545,196,right,0.697795,radio       ,4,10,-1,0,0,1278.268225,1278.268225,1280.76808,0,41,41,41,1,196,5,4,camel         ,radio       ,html/resources/sequences_IDs/A/03_camel.jpg,html/resources/sequences_IDs/B/10_radio.jpg,3,10,1,1,4,2,3,8,0,16,,,,,,,,,,,,,,,,,,,,
,,,,,16,2020-07-01_10h34.26.640,retriever_ti,2020.1.3,Win32,60,Chrome,1536,864,,,,,,,,,,,,,,,,,3,,,,,,,,,,,,,,,,,,,,,,,,,,,1281.868885,197,right,0.760335,camel         ,5,3,-2,0,3,1281.903025,1281.903025,1284.401735,0,42,42,42,1,197,7,5,seaturtle     ,camel         ,html/resources/sequences_IDs/A/02_seaturtle.jpg,html/resources/sequences_IDs/A/03_camel.jpg,2,3,2,1,1,1,2,3,0,16,,,,,,,,,,,,,,,,,,,,
,,,,,16,2020-07-01_10h34.26.640,retriever_ti,2020.1.3,Win32,60,Chrome,1536,864,,,,,,,,,,,,,,,,,3,,,,,,,,,,,,,,,,,,,,,,,,,,,1285.018605,198,left,0.969855,seaturtle     ,7,2,-1,0,0,1285.053075,1285.053075,1287.55085,0,43,43,43,1,198,7,8,seaturtle     ,phone       ,html/resources/sequences_IDs/A/02_seaturtle.jpg,html/resources/sequences_IDs/B/09_phone.jpg,2,9,2,1,4,2,2,7,0,16,,,,,,,,,,,,,,,,,,,,
,,,,,16,2020-07-01_10h34.26.640,retriever_ti,2020.1.3,Win32,60,Chrome,1536,864,,,,,,,,,,,,,,,,,3,,,,,,,,,,,,,,,,,,,,,,,,,,,1288.651415,199,right,1.265575,wolf          ,3,1,-2,0,3,1288.684845,1288.684845,1291.18426,0,44,44,44,1,199,5,3,camel         ,wolf          ,html/resources/sequences_IDs/A/03_camel.jpg,html/resources/sequences_IDs/A/01_wolf.jpg,3,1,1,1,1,1,3,1,0,16,,,,,,,,,,,,,,,,,,,,
,,,,,16,2020-07-01_10h34.26.640,retriever_ti,2020.1.3,Win32,60,Chrome,1536,864,,,,,,,,,,,,,,,,,3,,,,,,,,,,,,,,,,,,,,,,,,,,,1291.801245,200,left,0.611325,gloves      ,2,6,-1,0,0,1291.83478,1291.83478,1294.334165,0,45,45,45,1,200,2,3,gloves      ,wolf          ,html/resources/sequences_IDs/B/06_gloves.jpg,html/resources/sequences_IDs/A/01_wolf.jpg,6,1,3,2,1,1,5,1,0,16,,,,,,,,,,,,,,,,,,,,
,,,,,16,2020-07-01_10h34.26.640,retriever_ti,2020.1.3,Win32,60,Chrome,1536,864,,,,,,,,,,,,,,,,,3,,,,,,,,,,,,,,,,,,,,,,,,,,,1295.434925,201,left,0.52073,radio       ,4,10,1,1,1,1295.451575,1295.451575,1297.950935,0,46,46,46,1,201,4,3,radio       ,wolf          ,html/resources/sequences_IDs/B/10_radio.jpg,html/resources/sequences_IDs/A/01_wolf.jpg,10,1,4,2,1,1,8,1,0,16,,,,,,,,,,,,,,,,,,,,
,,,,,16,2020-07-01_10h34.26.640,retriever_ti,2020.1.3,Win32,60,Chrome,1536,864,,,,,,,,,,,,,,,,,3,,,,,,,,,,,,,,,,,,,,,,,,,,,1299.051215,202,left,0.46192,radio       ,4,10,1,1,1,1299.068285,1299.068285,1301.567555,0,47,47,47,1,202,4,3,radio       ,wolf          ,html/resources/sequences_IDs/B/10_radio.jpg,html/resources/sequences_IDs/A/01_wolf.jpg,10,1,4,2,1,1,8,1,0,16,,,,,,,,,,,,,,,,,,,,
,,,,,16,2020-07-01_10h34.26.640,retriever_ti,2020.1.3,Win32,60,Chrome,1536,864,,,,,,,,,,,,,,,,,3,,,,,,,,,,,,,,,,,,,,,,,,,,,1302.66829,203,right,1.09747,camel         ,5,3,4,1,3,1302.68496,1302.68496,1305.18423,0,48,48,48,1,203,1,5,peacock       ,camel         ,html/resources/sequences_IDs/A/05_peacock.jpg,html/resources/sequences_IDs/A/03_camel.jpg,5,3,2,1,1,1,4,3,0,16,,,,,,,,,,,,,,,,,,,,
,,,,,16,2020-07-01_10h34.26.640,retriever_ti,2020.1.3,Win32,60,Chrome,1536,864,,,,,,,,,,,,,,,,,3,,,,,,,,,,,,,,,,,,,,,,,,,,,1305.80113,204,right,0.683205,radio       ,4,10,-4,0,3,1305.81821,1305.81821,1308.31736,0,49,49,49,1,204,8,4,phone       ,radio       ,html/resources/sequences_IDs/B/09_phone.jpg,html/resources/sequences_IDs/B/10_radio.jpg,9,10,4,2,4,2,7,8,0,16,,,,,,,,,,,,,,,,,,,,
,,,,,16,2020-07-01_10h34.26.640,retriever_ti,2020.1.3,Win32,60,Chrome,1536,864,,,,,,,,,,,,,,,,,3,,,,,,,,,,,,,,,,,,,,,,,,,,,1308.9181,205,right,0.8373,gloves      ,2,6,-3,0,3,1308.951615,1308.951615,1311.451165,0,50,50,50,1,205,5,2,camel         ,gloves      ,html/resources/sequences_IDs/A/03_camel.jpg,html/resources/sequences_IDs/B/06_gloves.jpg,3,6,1,1,3,2,3,5,0,16,,,,,,,,,,,,,,,,,,,,
,,,,,16,2020-07-01_10h34.26.640,retriever_ti,2020.1.3,Win32,60,Chrome,1536,864,,,,,,,,,,,,,,,,,3,,,,,,,,,,,,,,,,,,,,,,,,,,,1312.068715,206,left,0.574075,camel         ,5,3,4,1,3,1312.086405,1312.086405,1314.584235,0,51,51,51,1,206,5,1,camel         ,peacock       ,html/resources/sequences_IDs/A/03_camel.jpg,html/resources/sequences_IDs/A/05_peacock.jpg,3,5,1,1,2,1,3,4,0,16,,,,,,,,,,,,,,,,,,,,
,,,,,16,2020-07-01_10h34.26.640,retriever_ti,2020.1.3,Win32,60,Chrome,1536,864,,,,,,,,,,,,,,,,,3,,,,,,,,,,,,,,,,,,,,,,,,,,,1315.20165,207,right,0.8381,seaturtle     ,7,2,1,1,1,1315.23501,1315.23501,1317.7342,0,52,52,52,1,207,6,7,slipper     ,seaturtle     ,html/resources/sequences_IDs/B/08_slipper.jpg,html/resources/sequences_IDs/A/02_seaturtle.jpg,8,2,3,2,2,1,6,2,0,16,,,,,,,,,,,,,,,,,,,,
,,,,,16,2020-07-01_10h34.26.640,retriever_ti,2020.1.3,Win32,60,Chrome,1536,864,,,,,,,,,,,,,,,,,3,,,,,,,,,,,,,,,,,,,,,,,,,,,1318.834355,208,left,0.79336,wolf          ,3,1,2,1,3,1318.86832,1318.86832,1321.367965,0,53,53,53,1,208,3,1,wolf          ,peacock       ,html/resources/sequences_IDs/A/01_wolf.jpg,html/resources/sequences_IDs/A/05_peacock.jpg,1,5,1,1,2,1,1,4,0,16,,,,,,,,,,,,,,,,,,,,
,,,,,16,2020-07-01_10h34.26.640,retriever_ti,2020.1.3,Win32,60,Chrome,1536,864,,,,,,,,,,,,,,,,,3,,,,,,,,,,,,,,,,,,,,,,,,,,,1321.985575,209,right,0.696335,peacock       ,1,5,-7,0,3,1322.019735,1322.019735,1324.51849,0,54,54,54,1,209,8,1,phone       ,peacock       ,html/resources/sequences_IDs/B/09_phone.jpg,html/resources/sequences_IDs/A/05_peacock.jpg,9,5,4,2,2,1,7,4,0,16,,,,,,,,,,,,,,,,,,,,
,,,,,16,2020-07-01_10h34.26.640,retriever_ti,2020.1.3,Win32,60,Chrome,1536,864,,,,,,,,,,,,,,,,,3,,,,,,,,,,,,,,,,,,,,,,,,,,,1325.13539,210,left,0.724025,gloves      ,2,6,-1,0,0,1325.16986,1325.16986,1327.667465,0,55,55,55,1,210,2,3,gloves      ,wolf          ,html/resources/sequences_IDs/B/06_gloves.jpg,html/resources/sequences_IDs/A/01_wolf.jpg,6,1,3,2,1,1,5,1,0,16,,,,,,,,,,,,,,,,,,,,
,,,,,16,2020-07-01_10h34.26.640,retriever_ti,2020.1.3,Win32,60,Chrome,1536,864,,,,,,,,,,,,,,,,,3,,,,,,,,,,,,,,,,,,,,,,,,,,,1328.76828,211,left,0.713095,radio       ,4,10,-4,0,3,1328.78501,1328.78501,1331.28425,0,56,56,56,1,211,4,8,radio       ,phone       ,html/resources/sequences_IDs/B/10_radio.jpg,html/resources/sequences_IDs/B/09_phone.jpg,10,9,4,2,4,2,8,7,0,16,,,,,,,,,,,,,,,,,,,,
,,,,,16,2020-07-01_10h34.26.640,retriever_ti,2020.1.3,Win32,60,Chrome,1536,864,,,,,,,,,,,,,,,,,3,,,,,,,,,,,,,,,,,,,,,,,,,,,1331.901115,212,right,0.734095,phone       ,8,9,7,1,3,1331.91819,1331.91819,1334.417575,0,57,57,57,1,212,1,8,peacock       ,phone       ,html/resources/sequences_IDs/A/05_peacock.jpg,html/resources/sequences_IDs/B/09_phone.jpg,5,9,2,1,4,2,4,7,0,16,,,,,,,,,,,,,,,,,,,,
,,,,,16,2020-07-01_10h34.26.640,retriever_ti,2020.1.3,Win32,60,Chrome,1536,864,,,,,,,,,,,,,,,,,3,,,,,,,,,,,,,,,,,,,,,,,,,,,1335.03492,213,right,0.86915,slipper     ,6,8,3,1,3,1335.051695,1335.051695,1337.551035,0,58,58,58,1,213,3,6,wolf          ,slipper     ,html/resources/sequences_IDs/A/01_wolf.jpg,html/resources/sequences_IDs/B/08_slipper.jpg,1,8,1,1,3,2,1,6,0,16,,,,,,,,,,,,,,,,,,,,
,,,,,16,2020-07-01_10h34.26.640,retriever_ti,2020.1.3,Win32,60,Chrome,1536,864,,,,,,,,,,,,,,,,,3,,,,,,,,,,,,,,,,,,,,,,,,,,,1338.1679,214,left,1.290745,camel         ,5,3,-1,0,0,1338.18495,1338.18495,1340.684075,0,59,59,59,1,214,5,6,camel         ,slipper     ,html/resources/sequences_IDs/A/03_camel.jpg,html/resources/sequences_IDs/B/08_slipper.jpg,3,8,1,1,3,2,3,6,0,16,,,,,,,,,,,,,,,,,,,,
,,,,,16,2020-07-01_10h34.26.640,retriever_ti,2020.1.3,Win32,60,Chrome,1536,864,,,,,,,,,,,,,,,,,3,,,,,,,,,,,,,,,,,,,,,,,,,,,1341.784995,215,left,1.666655,slipper     ,6,8,1,1,1,1341.81844,1341.81844,1344.31755,0,60,60,60,1,215,6,5,slipper     ,camel         ,html/resources/sequences_IDs/B/08_slipper.jpg,html/resources/sequences_IDs/A/03_camel.jpg,8,3,3,2,1,1,6,3,0,16,,,,,,,,,,,,,,,,,,,,
,,,,,16,2020-07-01_10h34.26.640,retriever_ti,2020.1.3,Win32,60,Chrome,1536,864,,,,,,,,,,,,,,,,,3,,,,,,,,,,,,,,,,,,,,,,,,,,,1345.41777,216,right,1.8533,peacock       ,1,5,-1,0,0,1345.45178,1345.45178,1347.950845,0,61,61,61,1,216,2,1,gloves      ,peacock       ,html/resources/sequences_IDs/B/06_gloves.jpg,html/resources/sequences_IDs/A/05_peacock.jpg,6,5,3,2,2,1,5,4,0,16,,,,,,,,,,,,,,,,,,,,
,,,,,16,2020-07-01_10h34.26.640,retriever_ti,2020.1.3,Win32,60,Chrome,1536,864,,,,,,,,,,,,,,,,,3,,,,,,,,,,,,,,,,,,,,,,,,,,,1349.051625,217,left,1.094595,phone       ,8,9,6,1,3,1349.08505,1349.08505,1351.58432,0,62,62,62,1,217,8,2,phone       ,gloves      ,html/resources/sequences_IDs/B/09_phone.jpg,html/resources/sequences_IDs/B/06_gloves.jpg,9,6,4,2,3,2,7,5,0,16,,,,,,,,,,,,,,,,,,,,
,,,,,16,2020-07-01_10h34.26.640,retriever_ti,2020.1.3,Win32,60,Chrome,1536,864,,,,,,,,,,,,,,,,,3,,,,,,,,,,,,,,,,,,,,,,,,,,,1352.201285,218,right,1.411425,phone       ,8,9,3,1,3,1352.21842,1352.21842,1354.717445,0,63,63,63,1,218,5,8,camel         ,phone       ,html/resources/sequences_IDs/A/03_camel.jpg,html/resources/sequences_IDs/B/09_phone.jpg,3,9,1,1,4,2,3,7,0,16,,,,,,,,,,,,,,,,,,,,
,,,,,16,2020-07-01_10h34.26.640,retriever_ti,2020.1.3,Win32,60,Chrome,1536,864,,,,,,,,,,,,,,,,,3,,,,,,,,,,,,,,,,,,,,,,,,,,,1355.318265,219,right,1.78342,slipper     ,6,8,5,1,3,1355.33497,1355.33497,1357.834185,0,64,64,64,1,219,1,6,peacock       ,slipper     ,html/resources/sequences_IDs/A/05_peacock.jpg,html/resources/sequences_IDs/B/08_slipper.jpg,5,8,2,1,3,2,4,6,0,16,,,,,,,,,,,,,,,,,,,,
,,,,,16,2020-07-01_10h34.26.640,retriever_ti,2020.1.3,Win32,60,Chrome,1536,864,,,,,,,,,,,,,,,,,3,,,,,,,,,,,,,,,,,,,,,,,,,,,1358.451255,220,right,1.64899,camel         ,5,3,1,1,1,1358.485005,1358.485005,1360.984565,0,65,65,65,1,220,4,5,radio       ,camel         ,html/resources/sequences_IDs/B/10_radio.jpg,html/resources/sequences_IDs/A/03_camel.jpg,10,3,4,2,1,1,8,3,0,16,,,,,,,,,,,,,,,,,,,,
,,,,,16,2020-07-01_10h34.26.640,retriever_ti,2020.1.3,Win32,60,Chrome,1536,864,,,,,,,,,,,,,,,,,3,,,,,,,,,,,,,,,,,,,,,,,,,,,1362.08574,221,left,1.110945,seaturtle     ,7,2,1,1,1,1362.11976,1362.11976,1364.61766,0,66,66,66,1,221,7,6,seaturtle     ,slipper     ,html/resources/sequences_IDs/A/02_seaturtle.jpg,html/resources/sequences_IDs/B/08_slipper.jpg,2,8,2,1,3,2,2,6,0,16,,,,,,,,,,,,,,,,,,,,
,,,,,16,2020-07-01_10h34.26.640,retriever_ti,2020.1.3,Win32,60,Chrome,1536,864,,,,,,,,,,,,,,,,,3,,,,,,,,,,,,,,,,,,,,,,,,,,,1365.71789,222,left,1.346105,wolf          ,3,1,1,1,1,1365.75165,1365.75165,1368.25094,0,67,67,67,1,222,3,2,wolf          ,gloves      ,html/resources/sequences_IDs/A/01_wolf.jpg,html/resources/sequences_IDs/B/06_gloves.jpg,1,6,1,1,3,2,1,5,0,16,,,,,,,,,,,,,,,,,,,,
,,,,,16,2020-07-01_10h34.26.640,retriever_ti,2020.1.3,Win32,60,Chrome,1536,864,,,,,,,,,,,,,,,,,3,,,,,,,,,,,,,,,,,,,,,,,,,,,1369.351635,223,right,1.14337,wolf          ,3,1,2,1,3,1369.368225,1369.368225,1371.867945,0,68,68,68,1,223,1,3,peacock       ,wolf          ,html/resources/sequences_IDs/A/05_peacock.jpg,html/resources/sequences_IDs/A/01_wolf.jpg,5,1,2,1,1,1,4,1,0,16,,,,,,,,,,,,,,,,,,,,
,,,,,16,2020-07-01_10h34.26.640,retriever_ti,2020.1.3,Win32,60,Chrome,1536,864,,,,,,,,,,,,,,,,,3,,,,,,,,,,,,,,,,,,,,,,,,,,,1372.485405,224,right,1.226455,radio       ,4,10,1,1,1,1372.503245,1372.503245,1375.00117,0,69,69,69,1,224,3,4,wolf          ,radio       ,html/resources/sequences_IDs/A/01_wolf.jpg,html/resources/sequences_IDs/B/10_radio.jpg,1,10,1,1,4,2,1,8,0,16,,,,,,,,,,,,,,,,,,,,
