instructionsLoop.thisRepN,instructionsLoop.thisTrialN,instructionsLoop.thisN,instructionsLoop.thisIndex,instructionsLoop.ran,participant,date,expName,psychopyVersion,OS,frameRate,browser,xResolution,yResolution,fix_onset,tprac,practiceKey.keys,practiceKey.rt,pracitem_chosen_name,acc_practice,P1_onsetPrac,P2_onsetPrac,onsetFeedbPrac,practiceTrials.thisRepN,practiceTrials.thisTrialN,practiceTrials.thisN,practiceTrials.thisIndex,practiceTrials.ran,P1,P2,Block,LocItem1,LocItem2,NameItem1,NameItem2,key_respAC_prac.keys,key_respAC_prac.corr,key_respAC_prac.rt,AC_acc,Attentions.thisRepN,Attentions.thisTrialN,Attentions.thisN,Attentions.thisIndex,Attentions.ran,Stim,Loc1,Loc2,Loc3,Loc4,CorrAns,keyDisturbed.keys,keyDisturbed.rt,repPractice.thisRepN,repPractice.thisTrialN,repPractice.thisN,repPractice.thisIndex,repPractice.ran,fixcross_onsetMain,trialNumber,key_resp.keys,key_resp.rt,item_chosen_name,item_chosen_value,item_chosen_ID,diff_chosen_minus_reject,acc_real,acc_feedback,P1_onset,P2_onset,feedb_onset,trials.thisRepN,trials.thisTrialN,trials.thisN,trials.thisIndex,trials.ran,Trial,ValueP1,ValueP2,P1name,P2name,P1Loc,P2Loc,P1id,P2id,Micro_categoryP1,Macro_categoryP1,Micro_categoryP2,Macro_categoryP2,ID_sequenceP1,ID_sequenceP2,InverseFb,pNumber,repBlocks.thisRepN,repBlocks.thisTrialN,repBlocks.thisN,repBlocks.thisIndex,repBlocks.ran,key_respAC.keys,key_respAC.corr,key_respAC.rt,trials_AC.thisRepN,trials_AC.thisTrialN,trials_AC.thisN,trials_AC.thisIndex,trials_AC.ran,Bonus,BonusLoop.thisRepN,BonusLoop.thisTrialN,BonusLoop.thisN,BonusLoop.thisIndex,BonusLoop.ran,comments
0,0,0,0,1,18,2020-07-01_09h34.21.966,retriever_ti,2020.1.3,Win32,60,Chrome,1536,864,,,,,,,,,,,,,,,,,,,,,,,,,,,,,,,,,,,,,,,,,,,,,,,,,,,,,,,,,,,,,,,,,,,,,,,,,,,,,,,,,,,,,,,,,,,,,,,,,,
1,0,1,0,1,18,2020-07-01_09h34.21.966,retriever_ti,2020.1.3,Win32,60,Chrome,1536,864,,,,,,,,,,,,,,,,,,,,,,,,,,,,,,,,,,,,,,,,,,,,,,,,,,,,,,,,,,,,,,,,,,,,,,,,,,,,,,,,,,,,,,,,,,,,,,,,,,
2,0,2,0,1,18,2020-07-01_09h34.21.966,retriever_ti,2020.1.3,Win32,60,Chrome,1536,864,,,,,,,,,,,,,,,,,,,,,,,,,,,,,,,,,,,,,,,,,,,,,,,,,,,,,,,,,,,,,,,,,,,,,,,,,,,,,,,,,,,,,,,,,,,,,,,,,,
3,0,3,0,1,18,2020-07-01_09h34.21.966,retriever_ti,2020.1.3,Win32,60,Chrome,1536,864,,,,,,,,,,,,,,,,,,,,,,,,,,,,,,,,,,,,,,,,,,,,,,,,,,,,,,,,,,,,,,,,,,,,,,,,,,,,,,,,,,,,,,,,,,,,,,,,,,
4,0,4,0,1,18,2020-07-01_09h34.21.966,retriever_ti,2020.1.3,Win32,60,Chrome,1536,864,,,,,,,,,,,,,,,,,,,,,,,,,,,,,,,,,,,,,,,,,,,,,,,,,,,,,,,,,,,,,,,,,,,,,,,,,,,,,,,,,,,,,,,,,,,,,,,,,,
5,0,5,0,1,18,2020-07-01_09h34.21.966,retriever_ti,2020.1.3,Win32,60,Chrome,1536,864,,,,,,,,,,,,,,,,,,,,,,,,,,,,,,,,,,,,,,,,,,,,,,,,,,,,,,,,,,,,,,,,,,,,,,,,,,,,,,,,,,,,,,,,,,,,,,,,,,
6,0,6,0,1,18,2020-07-01_09h34.21.966,retriever_ti,2020.1.3,Win32,60,Chrome,1536,864,,,,,,,,,,,,,,,,,,,,,,,,,,,,,,,,,,,,,,,,,,,,,,,,,,,,,,,,,,,,,,,,,,,,,,,,,,,,,,,,,,,,,,,,,,,,,,,,,,
7,0,7,0,1,18,2020-07-01_09h34.21.966,retriever_ti,2020.1.3,Win32,60,Chrome,1536,864,,,,,,,,,,,,,,,,,,,,,,,,,,,,,,,,,,,,,,,,,,,,,,,,,,,,,,,,,,,,,,,,,,,,,,,,,,,,,,,,,,,,,,,,,,,,,,,,,,
8,0,8,0,1,18,2020-07-01_09h34.21.966,retriever_ti,2020.1.3,Win32,60,Chrome,1536,864,,,,,,,,,,,,,,,,,,,,,,,,,,,,,,,,,,,,,,,,,,,,,,,,,,,,,,,,,,,,,,,,,,,,,,,,,,,,,,,,,,,,,,,,,,,,,,,,,,
9,0,9,0,1,18,2020-07-01_09h34.21.966,retriever_ti,2020.1.3,Win32,60,Chrome,1536,864,,,,,,,,,,,,,,,,,,,,,,,,,,,,,,,,,,,,,,,,,,,,,,,,,,,,,,,,,,,,,,,,,,,,,,,,,,,,,,,,,,,,,,,,,,,,,,,,,,
10,0,10,0,1,18,2020-07-01_09h34.21.966,retriever_ti,2020.1.3,Win32,60,Chrome,1536,864,,,,,,,,,,,,,,,,,,,,,,,,,,,,,,,,,,,,,,,,,,,,,,,,,,,,,,,,,,,,,,,,,,,,,,,,,,,,,,,,,,,,,,,,,,,,,,,,,,
11,0,11,0,1,18,2020-07-01_09h34.21.966,retriever_ti,2020.1.3,Win32,60,Chrome,1536,864,,,,,,,,,,,,,,,,,,,,,,,,,,,,,,,,,,,,,,,,,,,,,,,,,,,,,,,,,,,,,,,,,,,,,,,,,,,,,,,,,,,,,,,,,,,,,,,,,,
12,0,12,0,1,18,2020-07-01_09h34.21.966,retriever_ti,2020.1.3,Win32,60,Chrome,1536,864,,,,,,,,,,,,,,,,,,,,,,,,,,,,,,,,,,,,,,,,,,,,,,,,,,,,,,,,,,,,,,,,,,,,,,,,,,,,,,,,,,,,,,,,,,,,,,,,,,
13,0,13,0,1,18,2020-07-01_09h34.21.966,retriever_ti,2020.1.3,Win32,60,Chrome,1536,864,,,,,,,,,,,,,,,,,,,,,,,,,,,,,,,,,,,,,,,,,,,,,,,,,,,,,,,,,,,,,,,,,,,,,,,,,,,,,,,,,,,,,,,,,,,,,,,,,,
14,0,14,0,1,18,2020-07-01_09h34.21.966,retriever_ti,2020.1.3,Win32,60,Chrome,1536,864,,,,,,,,,,,,,,,,,,,,,,,,,,,,,,,,,,,,,,,,,,,,,,,,,,,,,,,,,,,,,,,,,,,,,,,,,,,,,,,,,,,,,,,,,,,,,,,,,,
15,0,15,0,1,18,2020-07-01_09h34.21.966,retriever_ti,2020.1.3,Win32,60,Chrome,1536,864,,,,,,,,,,,,,,,,,,,,,,,,,,,,,,,,,,,,,,,,,,,,,,,,,,,,,,,,,,,,,,,,,,,,,,,,,,,,,,,,,,,,,,,,,,,,,,,,,,
16,0,16,0,1,18,2020-07-01_09h34.21.966,retriever_ti,2020.1.3,Win32,60,Chrome,1536,864,,,,,,,,,,,,,,,,,,,,,,,,,,,,,,,,,,,,,,,,,,,,,,,,,,,,,,,,,,,,,,,,,,,,,,,,,,,,,,,,,,,,,,,,,,,,,,,,,,
17,0,17,0,1,18,2020-07-01_09h34.21.966,retriever_ti,2020.1.3,Win32,60,Chrome,1536,864,,,,,,,,,,,,,,,,,,,,,,,,,,,,,,,,,,,,,,,,,,,,,,,,,,,,,,,,,,,,,,,,,,,,,,,,,,,,,,,,,,,,,,,,,,,,,,,,,,
18,0,18,0,1,18,2020-07-01_09h34.21.966,retriever_ti,2020.1.3,Win32,60,Chrome,1536,864,,,,,,,,,,,,,,,,,,,,,,,,,,,,,,,,,,,,,,,,,,,,,,,,,,,,,,,,,,,,,,,,,,,,,,,,,,,,,,,,,,,,,,,,,,,,,,,,,,
19,0,19,0,1,18,2020-07-01_09h34.21.966,retriever_ti,2020.1.3,Win32,60,Chrome,1536,864,,,,,,,,,,,,,,,,,,,,,,,,,,,,,,,,,,,,,,,,,,,,,,,,,,,,,,,,,,,,,,,,,,,,,,,,,,,,,,,,,,,,,,,,,,,,,,,,,,
20,0,20,0,1,18,2020-07-01_09h34.21.966,retriever_ti,2020.1.3,Win32,60,Chrome,1536,864,,,,,,,,,,,,,,,,,,,,,,,,,,,,,,,,,,,,,,,,,,,,,,,,,,,,,,,,,,,,,,,,,,,,,,,,,,,,,,,,,,,,,,,,,,,,,,,,,,
21,0,21,0,1,18,2020-07-01_09h34.21.966,retriever_ti,2020.1.3,Win32,60,Chrome,1536,864,,,,,,,,,,,,,,,,,,,,,,,,,,,,,,,,,,,,,,,,,,,,,,,,,,,,,,,,,,,,,,,,,,,,,,,,,,,,,,,,,,,,,,,,,,,,,,,,,,
22,0,22,0,1,18,2020-07-01_09h34.21.966,retriever_ti,2020.1.3,Win32,60,Chrome,1536,864,,,,,,,,,,,,,,,,,,,,,,,,,,,,,,,,,,,,,,,,,,,,,,,,,,,,,,,,,,,,,,,,,,,,,,,,,,,,,,,,,,,,,,,,,,,,,,,,,,
23,0,23,0,1,18,2020-07-01_09h34.21.966,retriever_ti,2020.1.3,Win32,60,Chrome,1536,864,,,,,,,,,,,,,,,,,,,,,,,,,,,,,,,,,,,,,,,,,,,,,,,,,,,,,,,,,,,,,,,,,,,,,,,,,,,,,,,,,,,,,,,,,,,,,,,,,,
24,0,24,0,1,18,2020-07-01_09h34.21.966,retriever_ti,2020.1.3,Win32,60,Chrome,1536,864,,,,,,,,,,,,,,,,,,,,,,,,,,,,,,,,,,,,,,,,,,,,,,,,,,,,,,,,,,,,,,,,,,,,,,,,,,,,,,,,,,,,,,,,,,,,,,,,,,
25,0,25,0,1,18,2020-07-01_09h34.21.966,retriever_ti,2020.1.3,Win32,60,Chrome,1536,864,,,,,,,,,,,,,,,,,,,,,,,,,,,,,,,,,,,,,,,,,,,,,,,,,,,,,,,,,,,,,,,,,,,,,,,,,,,,,,,,,,,,,,,,,,,,,,,,,,
26,0,26,0,1,18,2020-07-01_09h34.21.966,retriever_ti,2020.1.3,Win32,60,Chrome,1536,864,,,,,,,,,,,,,,,,,,,,,,,,,,,,,,,,,,,,,,,,,,,,,,,,,,,,,,,,,,,,,,,,,,,,,,,,,,,,,,,,,,,,,,,,,,,,,,,,,,
27,0,27,0,1,18,2020-07-01_09h34.21.966,retriever_ti,2020.1.3,Win32,60,Chrome,1536,864,,,,,,,,,,,,,,,,,,,,,,,,,,,,,,,,,,,,,,,,,,,,,,,,,,,,,,,,,,,,,,,,,,,,,,,,,,,,,,,,,,,,,,,,,,,,,,,,,,
28,0,28,0,1,18,2020-07-01_09h34.21.966,retriever_ti,2020.1.3,Win32,60,Chrome,1536,864,,,,,,,,,,,,,,,,,,,,,,,,,,,,,,,,,,,,,,,,,,,,,,,,,,,,,,,,,,,,,,,,,,,,,,,,,,,,,,,,,,,,,,,,,,,,,,,,,,
29,0,29,0,1,18,2020-07-01_09h34.21.966,retriever_ti,2020.1.3,Win32,60,Chrome,1536,864,,,,,,,,,,,,,,,,,,,,,,,,,,,,,,,,,,,,,,,,,,,,,,,,,,,,,,,,,,,,,,,,,,,,,,,,,,,,,,,,,,,,,,,,,,,,,,,,,,
30,0,30,0,1,18,2020-07-01_09h34.21.966,retriever_ti,2020.1.3,Win32,60,Chrome,1536,864,,,,,,,,,,,,,,,,,,,,,,,,,,,,,,,,,,,,,,,,,,,,,,,,,,,,,,,,,,,,,,,,,,,,,,,,,,,,,,,,,,,,,,,,,,,,,,,,,,
31,0,31,0,1,18,2020-07-01_09h34.21.966,retriever_ti,2020.1.3,Win32,60,Chrome,1536,864,,,,,,,,,,,,,,,,,,,,,,,,,,,,,,,,,,,,,,,,,,,,,,,,,,,,,,,,,,,,,,,,,,,,,,,,,,,,,,,,,,,,,,,,,,,,,,,,,,
32,0,32,0,1,18,2020-07-01_09h34.21.966,retriever_ti,2020.1.3,Win32,60,Chrome,1536,864,,,,,,,,,,,,,,,,,,,,,,,,,,,,,,,,,,,,,,,,,,,,,,,,,,,,,,,,,,,,,,,,,,,,,,,,,,,,,,,,,,,,,,,,,,,,,,,,,,
33,0,33,0,1,18,2020-07-01_09h34.21.966,retriever_ti,2020.1.3,Win32,60,Chrome,1536,864,,,,,,,,,,,,,,,,,,,,,,,,,,,,,,,,,,,,,,,,,,,,,,,,,,,,,,,,,,,,,,,,,,,,,,,,,,,,,,,,,,,,,,,,,,,,,,,,,,
34,0,34,0,1,18,2020-07-01_09h34.21.966,retriever_ti,2020.1.3,Win32,60,Chrome,1536,864,,,,,,,,,,,,,,,,,,,,,,,,,,,,,,,,,,,,,,,,,,,,,,,,,,,,,,,,,,,,,,,,,,,,,,,,,,,,,,,,,,,,,,,,,,,,,,,,,,
35,0,35,0,1,18,2020-07-01_09h34.21.966,retriever_ti,2020.1.3,Win32,60,Chrome,1536,864,,,,,,,,,,,,,,,,,,,,,,,,,,,,,,,,,,,,,,,,,,,,,,,,,,,,,,,,,,,,,,,,,,,,,,,,,,,,,,,,,,,,,,,,,,,,,,,,,,
36,0,36,0,1,18,2020-07-01_09h34.21.966,retriever_ti,2020.1.3,Win32,60,Chrome,1536,864,,,,,,,,,,,,,,,,,,,,,,,,,,,,,,,,,,,,,,,,,,,,,,,,,,,,,,,,,,,,,,,,,,,,,,,,,,,,,,,,,,,,,,,,,,,,,,,,,,
37,0,37,0,1,18,2020-07-01_09h34.21.966,retriever_ti,2020.1.3,Win32,60,Chrome,1536,864,,,,,,,,,,,,,,,,,,,,,,,,,,,,,,,,,,,,,,,,,,,,,,,,,,,,,,,,,,,,,,,,,,,,,,,,,,,,,,,,,,,,,,,,,,,,,,,,,,
38,0,38,0,1,18,2020-07-01_09h34.21.966,retriever_ti,2020.1.3,Win32,60,Chrome,1536,864,,,,,,,,,,,,,,,,,,,,,,,,,,,,,,,,,,,,,,,,,,,,,,,,,,,,,,,,,,,,,,,,,,,,,,,,,,,,,,,,,,,,,,,,,,,,,,,,,,
39,0,39,0,1,18,2020-07-01_09h34.21.966,retriever_ti,2020.1.3,Win32,60,Chrome,1536,864,,,,,,,,,,,,,,,,,,,,,,,,,,,,,,,,,,,,,,,,,,,,,,,,,,,,,,,,,,,,,,,,,,,,,,,,,,,,,,,,,,,,,,,,,,,,,,,,,,
40,0,40,0,1,18,2020-07-01_09h34.21.966,retriever_ti,2020.1.3,Win32,60,Chrome,1536,864,,,,,,,,,,,,,,,,,,,,,,,,,,,,,,,,,,,,,,,,,,,,,,,,,,,,,,,,,,,,,,,,,,,,,,,,,,,,,,,,,,,,,,,,,,,,,,,,,,
41,0,41,0,1,18,2020-07-01_09h34.21.966,retriever_ti,2020.1.3,Win32,60,Chrome,1536,864,,,,,,,,,,,,,,,,,,,,,,,,,,,,,,,,,,,,,,,,,,,,,,,,,,,,,,,,,,,,,,,,,,,,,,,,,,,,,,,,,,,,,,,,,,,,,,,,,,
42,0,42,0,1,18,2020-07-01_09h34.21.966,retriever_ti,2020.1.3,Win32,60,Chrome,1536,864,,,,,,,,,,,,,,,,,,,,,,,,,,,,,,,,,,,,,,,,,,,,,,,,,,,,,,,,,,,,,,,,,,,,,,,,,,,,,,,,,,,,,,,,,,,,,,,,,,
,,,,,18,2020-07-01_09h34.21.966,retriever_ti,2020.1.3,Win32,60,Chrome,1536,864,291.236685,1,NaN,NaN,No_response,2,291.24826,291.24826,293.744585,0,0,0,0,1,2,5,1,html/resources/stimuli_practice_decision/04_beetle.jpg,html/resources/stimuli_practice_decision/02_canary.jpg,beetle,canary,,,,,,,,,,,,,,,,,,,,,,,,,,,,,,,,,,,,,,,,,,,,,,,,,,,,,,,,,,,,,,,,,,,,,,,,,,,,,
,,,,,18,2020-07-01_09h34.21.966,retriever_ti,2020.1.3,Win32,60,Chrome,1536,864,294.28331,2,left,1.46077,rabbit,1,294.294225,294.294225,296.791135,0,1,1,1,1,4,3,1,html/resources/stimuli_practice_decision/01_rabbit.jpg,html/resources/stimuli_practice_decision/07_sock.jpg,rabbit,sock,,,,,,,,,,,,,,,,,,,,,,,,,,,,,,,,,,,,,,,,,,,,,,,,,,,,,,,,,,,,,,,,,,,,,,,,,,,,,
,,,,,18,2020-07-01_09h34.21.966,retriever_ti,2020.1.3,Win32,60,Chrome,1536,864,297.790565,3,right,1.988445,beetle,0,297.824375,297.824375,300.32097,0,2,2,2,1,6,2,1,html/resources/stimuli_practice_decision/06_pullover.jpg,html/resources/stimuli_practice_decision/04_beetle.jpg,pullover,beetle,,,,,,,,,,,,,,,,,,,,,,,,,,,,,,,,,,,,,,,,,,,,,,,,,,,,,,,,,,,,,,,,,,,,,,,,,,,,,
,,,,,18,2020-07-01_09h34.21.966,retriever_ti,2020.1.3,Win32,60,Chrome,1536,864,300.838185,4,left,2.13545,glasses,1,300.87168,300.87168,303.368495,0,3,3,3,1,7,1,1,html/resources/stimuli_practice_decision/05_glasses.jpg,html/resources/stimuli_practice_decision/08_handmixer.jpg,glasses,handmixer,,,,,,,,,,,,,,,,,,,,,,,,,,,,,,,,,,,,,,,,,,,,,,,,,,,,,,,,,,,,,,,,,,,,,,,,,,,,,
,,,,,18,2020-07-01_09h34.21.966,retriever_ti,2020.1.3,Win32,60,Chrome,1536,864,303.88507,5,left,1.57915,glasses,1,303.901605,303.901605,306.399035,0,4,4,4,1,7,6,1,html/resources/stimuli_practice_decision/05_glasses.jpg,html/resources/stimuli_practice_decision/06_pullover.jpg,glasses,pullover,,,,,,,,,,,,,,,,,,,,,,,,,,,,,,,,,,,,,,,,,,,,,,,,,,,,,,,,,,,,,,,,,,,,,,,,,,,,,
,,,,,18,2020-07-01_09h34.21.966,retriever_ti,2020.1.3,Win32,60,Chrome,1536,864,307.398565,6,right,1.771315,glasses,1,307.41846,307.41846,309.912545,0,5,5,5,1,4,7,1,html/resources/stimuli_practice_decision/01_rabbit.jpg,html/resources/stimuli_practice_decision/05_glasses.jpg,rabbit,glasses,,,,,,,,,,,,,,,,,,,,,,,,,,,,,,,,,,,,,,,,,,,,,,,,,,,,,,,,,,,,,,,,,,,,,,,,,,,,,
,,,,,18,2020-07-01_09h34.21.966,retriever_ti,2020.1.3,Win32,60,Chrome,1536,864,310.428335,7,left,1.404775,handmixer,0,310.462295,310.462295,312.95929,0,6,6,6,1,1,2,1,html/resources/stimuli_practice_decision/08_handmixer.jpg,html/resources/stimuli_practice_decision/04_beetle.jpg,handmixer,beetle,,,,,,,,,,,,,,,,,,,,,,,,,,,,,,,,,,,,,,,,,,,,,,,,,,,,,,,,,,,,,,,,,,,,,,,,,,,,,
,,,,,18,2020-07-01_09h34.21.966,retriever_ti,2020.1.3,Win32,60,Chrome,1536,864,313.959205,8,left,2.006885,rabbit,1,313.992395,313.992395,316.489225,0,7,7,7,1,4,3,1,html/resources/stimuli_practice_decision/01_rabbit.jpg,html/resources/stimuli_practice_decision/07_sock.jpg,rabbit,sock,,,,,,,,,,,,,,,,,,,,,,,,,,,,,,,,,,,,,,,,,,,,,,,,,,,,,,,,,,,,,,,,,,,,,,,,,,,,,
,,,,,18,2020-07-01_09h34.21.966,retriever_ti,2020.1.3,Win32,60,Chrome,1536,864,,,,,,,,,,,,,,,,,,,,,,up,1,3.5795,1,0,0,0,0,1,html/resources/sequences_IDs/circle.png,circle ↑,square →,triangle ↓,← star ,up,,,,,,,,,,,,,,,,,,,,,,,,,,,,,,,,,,,,,,,,,,,,,,,,,,,,,,,,,,,,,,
,,,,,18,2020-07-01_09h34.21.966,retriever_ti,2020.1.3,Win32,60,Chrome,1536,864,,,,,,,,,,,,,,,,,,,,,,down,1,2.60597,1,0,1,1,1,1,html/resources/sequences_IDs/star.png,square ↑,circle →,star ↓,← triangle,down,,,,,,,,,,,,,,,,,,,,,,,,,,,,,,,,,,,,,,,,,,,,,,,,,,,,,,,,,,,,,,
,,,,,18,2020-07-01_09h34.21.966,retriever_ti,2020.1.3,Win32,60,Chrome,1536,864,,,,,,,,,,,,,,,,,,,,,,down,1,1.9643,1,0,2,2,3,1,html/resources/sequences_IDs/triangle.png,star ↑,square →,triangle ↓,← circle,down,,,,,,,,,,,,,,,,,,,,,,,,,,,,,,,,,,,,,,,,,,,,,,,,,,,,,,,,,,,,,,
,,,,,18,2020-07-01_09h34.21.966,retriever_ti,2020.1.3,Win32,60,Chrome,1536,864,,,,,,,,,,,,,,,,,,,,,,left,1,1.913805,1,0,3,3,2,1,html/resources/sequences_IDs/square1.png,star ↑,triangle →,circle ↓,← square,left,,,,,,,,,,,,,,,,,,,,,,,,,,,,,,,,,,,,,,,,,,,,,,,,,,,,,,,,,,,,,,
,,,,,18,2020-07-01_09h34.21.966,retriever_ti,2020.1.3,Win32,60,Chrome,1536,864,,,,,,,,,,,,,,,,,,,,,,,,,,,,,,,,,,,,,0,26.537885,0,0,0,0,1,,,,,,,,,,,,,,,,,,,,,,,,,,,,,,,,,,,,,,,,,,,,,,,,,,,,,,,
,,,,,18,2020-07-01_09h34.21.966,retriever_ti,2020.1.3,Win32,60,Chrome,1536,864,360.06826,9,left,0.983465,pullover,0,360.099495,360.099495,362.596155,0,0,0,0,1,6,7,1,html/resources/stimuli_practice_decision/06_pullover.jpg,html/resources/stimuli_practice_decision/05_glasses.jpg,pullover,glasses,,,,,,,,,,,,,,,,,,,,,,,,,,,,,,,,,,,,,,,,,,,,,,,,,,,,,,,,,,,,,,,,,,,,,,,,,,,,,
,,,,,18,2020-07-01_09h34.21.966,retriever_ti,2020.1.3,Win32,60,Chrome,1536,864,363.59626,10,left,1.742865,pullover,1,363.612995,363.612995,366.10943,0,1,1,1,1,6,2,1,html/resources/stimuli_practice_decision/06_pullover.jpg,html/resources/stimuli_practice_decision/04_beetle.jpg,pullover,beetle,,,,,,,,,,,,,,,,,,,,,,,,,,,,,,,,,,,,,,,,,,,,,,,,,,,,,,,,,,,,,,,,,,,,,,,,,,,,,
,,,,,18,2020-07-01_09h34.21.966,retriever_ti,2020.1.3,Win32,60,Chrome,1536,864,366.626775,11,right,1.67172,pullover,1,366.65989,366.65989,369.156685,0,2,2,2,1,5,6,1,html/resources/stimuli_practice_decision/02_canary.jpg,html/resources/stimuli_practice_decision/06_pullover.jpg,canary,pullover,,,,,,,,,,,,,,,,,,,,,,,,,,,,,,,,,,,,,,,,,,,,,,,,,,,,,,,,,,,,,,,,,,,,,,,,,,,,,
,,,,,18,2020-07-01_09h34.21.966,retriever_ti,2020.1.3,Win32,60,Chrome,1536,864,370.1559,12,NaN,NaN,No_response,2,370.173375,370.173375,372.67037,0,3,3,3,1,8,7,1,html/resources/stimuli_practice_decision/03_squirrel.jpg,html/resources/stimuli_practice_decision/05_glasses.jpg,squirrel,glasses,,,,,,,,,,,,,,,,,,,,,,,,,,,,,,,,,,,,,,,,,,,,,,,,,,,,,,,,,,,,,,,,,,,,,,,,,,,,,
,,,,,18,2020-07-01_09h34.21.966,retriever_ti,2020.1.3,Win32,60,Chrome,1536,864,373.670355,13,right,1.61808,sock,0,373.688305,373.688305,376.18355,0,4,4,4,1,5,3,1,html/resources/stimuli_practice_decision/02_canary.jpg,html/resources/stimuli_practice_decision/07_sock.jpg,canary,sock,,,,,,,,,,,,,,,,,,,,,,,,,,,,,,,,,,,,,,,,,,,,,,,,,,,,,,,,,,,,,,,,,,,,,,,,,,,,,
,,,,,18,2020-07-01_09h34.21.966,retriever_ti,2020.1.3,Win32,60,Chrome,1536,864,376.700785,14,right,1.41832,squirrel,1,376.73513,376.73513,379.231015,0,5,5,5,1,7,8,1,html/resources/stimuli_practice_decision/05_glasses.jpg,html/resources/stimuli_practice_decision/03_squirrel.jpg,glasses,squirrel,,,,,,,,,,,,,,,,,,,,,,,,,,,,,,,,,,,,,,,,,,,,,,,,,,,,,,,,,,,,,,,,,,,,,,,,,,,,,
,,,,,18,2020-07-01_09h34.21.966,retriever_ti,2020.1.3,Win32,60,Chrome,1536,864,380.23088,15,left,1.986635,canary,1,380.248765,380.248765,382.74436,0,6,6,6,1,5,4,1,html/resources/stimuli_practice_decision/02_canary.jpg,html/resources/stimuli_practice_decision/01_rabbit.jpg,canary,rabbit,,,,,,,,,,,,,,,,,,,,,,,,,,,,,,,,,,,,,,,,,,,,,,,,,,,,,,,,,,,,,,,,,,,,,,,,,,,,,
,,,,,18,2020-07-01_09h34.21.966,retriever_ti,2020.1.3,Win32,60,Chrome,1536,864,383.74397,16,right,2.27742,sock,0,383.761885,383.761885,386.26006,0,7,7,7,1,5,3,1,html/resources/stimuli_practice_decision/02_canary.jpg,html/resources/stimuli_practice_decision/07_sock.jpg,canary,sock,,,,,,,,,,,,,,,,,,,,,,,,,,,,,,,,,,,,,,,,,,,,,,,,,,,,,,,,,,,,,,,,,,,,,,,,,,,,,
,,,,,18,2020-07-01_09h34.21.966,retriever_ti,2020.1.3,Win32,60,Chrome,1536,864,,,,,,,,,,,,,,,,,,,,,,left,1,5.092435,1,0,0,0,2,1,html/resources/sequences_IDs/square1.png,star ↑,triangle →,circle ↓,← square,left,,,,,,,,,,,,,,,,,,,,,,,,,,,,,,,,,,,,,,,,,,,,,,,,,,,,,,,,,,,,,,
,,,,,18,2020-07-01_09h34.21.966,retriever_ti,2020.1.3,Win32,60,Chrome,1536,864,,,,,,,,,,,,,,,,,,,,,,up,1,1.847555,1,0,1,1,0,1,html/resources/sequences_IDs/circle.png,circle ↑,square →,triangle ↓,← star ,up,,,,,,,,,,,,,,,,,,,,,,,,,,,,,,,,,,,,,,,,,,,,,,,,,,,,,,,,,,,,,,
,,,,,18,2020-07-01_09h34.21.966,retriever_ti,2020.1.3,Win32,60,Chrome,1536,864,,,,,,,,,,,,,,,,,,,,,,down,1,0.976555,1,0,2,2,3,1,html/resources/sequences_IDs/triangle.png,star ↑,square →,triangle ↓,← circle,down,,,,,,,,,,,,,,,,,,,,,,,,,,,,,,,,,,,,,,,,,,,,,,,,,,,,,,,,,,,,,,
,,,,,18,2020-07-01_09h34.21.966,retriever_ti,2020.1.3,Win32,60,Chrome,1536,864,,,,,,,,,,,,,,,,,,,,,,down,1,1.371215,1,0,3,3,1,1,html/resources/sequences_IDs/star.png,square ↑,circle →,star ↓,← triangle,down,,,,,,,,,,,,,,,,,,,,,,,,,,,,,,,,,,,,,,,,,,,,,,,,,,,,,,,,,,,,,,
,,,,,18,2020-07-01_09h34.21.966,retriever_ti,2020.1.3,Win32,60,Chrome,1536,864,,,,,,,,,,,,,,,,,,,,,,,,,,,,,,,,,,,,,0,2.75015,1,0,1,0,1,,,,,,,,,,,,,,,,,,,,,,,,,,,,,,,,,,,,,,,,,,,,,,,,,,,,,,,
,,,,,18,2020-07-01_09h34.21.966,retriever_ti,2020.1.3,Win32,60,Chrome,1536,864,,,,,,,,,,,,,,,,,1,,,,,,,,,,,,,,,,,,,,,,,,,,,432.3779,1,right,1.20058,dolphin     ,6,2,1,1,1,432.382905,432.382905,434.87979,0,0,0,0,1,1,5,6,wolf          ,dolphin     ,html/resources/sequences_IDs/A/01_wolf.jpg,html/resources/sequences_IDs/B/02_dolphin.jpg,1,2,1,1,1,1,1,2,0,18,,,,,,,,,,,,,,,,,,,,
,,,,,18,2020-07-01_09h34.21.966,retriever_ti,2020.1.3,Win32,60,Chrome,1536,864,,,,,,,,,,,,,,,,,1,,,,,,,,,,,,,,,,,,,,,,,,,,,435.98116,2,right,1.16988,dolphin     ,6,2,-2,0,3,435.99656,435.99656,438.492085,0,1,1,1,1,2,8,6,sport_tshirt,dolphin     ,html/resources/sequences_IDs/B/07_sport_tshirt.jpg,html/resources/sequences_IDs/B/02_dolphin.jpg,7,2,3,2,1,1,6,2,0,18,,,,,,,,,,,,,,,,,,,,
,,,,,18,2020-07-01_09h34.21.966,retriever_ti,2020.1.3,Win32,60,Chrome,1536,864,,,,,,,,,,,,,,,,,1,,,,,,,,,,,,,,,,,,,,,,,,,,,439.10844,3,left,2.250125,dolphin     ,6,2,1,1,1,439.142745,439.142745,441.63924,0,2,2,2,1,3,6,5,dolphin     ,wolf          ,html/resources/sequences_IDs/B/02_dolphin.jpg,html/resources/sequences_IDs/A/01_wolf.jpg,2,1,1,1,1,1,2,1,0,18,,,,,,,,,,,,,,,,,,,,
,,,,,18,2020-07-01_09h34.21.966,retriever_ti,2020.1.3,Win32,60,Chrome,1536,864,,,,,,,,,,,,,,,,,1,,,,,,,,,,,,,,,,,,,,,,,,,,,442.739055,4,right,1.778805,holdfast    ,2,4,-2,0,3,442.771955,442.771955,445.269155,0,3,3,3,1,4,4,2,gloves      ,holdfast    ,html/resources/sequences_IDs/B/06_gloves.jpg,html/resources/sequences_IDs/B/04_holdfast.jpg,6,4,3,2,2,1,5,4,0,18,,,,,,,,,,,,,,,,,,,,
,,,,,18,2020-07-01_09h34.21.966,retriever_ti,2020.1.3,Win32,60,Chrome,1536,864,,,,,,,,,,,,,,,,,1,,,,,,,,,,,,,,,,,,,,,,,,,,,445.885615,5,right,1.93116,gloves      ,4,6,-4,0,3,445.92426,445.92426,448.416015,0,4,4,4,1,5,8,4,sport_tshirt,gloves      ,html/resources/sequences_IDs/B/07_sport_tshirt.jpg,html/resources/sequences_IDs/B/06_gloves.jpg,7,6,3,2,3,2,6,5,0,18,,,,,,,,,,,,,,,,,,,,
,,,,,18,2020-07-01_09h34.21.966,retriever_ti,2020.1.3,Win32,60,Chrome,1536,864,,,,,,,,,,,,,,,,,1,,,,,,,,,,,,,,,,,,,,,,,,,,,449.03346,6,right,1.57976,calculator    ,7,9,-1,0,1,449.06681,449.06681,451.56312,0,5,5,5,1,6,8,7,sport_tshirt,calculator    ,html/resources/sequences_IDs/B/07_sport_tshirt.jpg,html/resources/sequences_IDs/A/09_calculator.jpg,7,9,3,2,4,2,6,8,1,18,,,,,,,,,,,,,,,,,,,,
,,,,,18,2020-07-01_09h34.21.966,retriever_ti,2020.1.3,Win32,60,Chrome,1536,864,,,,,,,,,,,,,,,,,1,,,,,,,,,,,,,,,,,,,,,,,,,,,452.662355,7,left,1.73949,camel         ,1,3,-1,0,0,452.69664,452.69664,455.19349,0,6,6,6,1,7,1,2,camel         ,holdfast    ,html/resources/sequences_IDs/A/03_camel.jpg,html/resources/sequences_IDs/B/04_holdfast.jpg,3,4,1,1,2,1,3,4,0,18,,,,,,,,,,,,,,,,,,,,
,,,,,18,2020-07-01_09h34.21.966,retriever_ti,2020.1.3,Win32,60,Chrome,1536,864,,,,,,,,,,,,,,,,,1,,,,,,,,,,,,,,,,,,,,,,,,,,,456.29291,8,left,1.59175,dolphin     ,6,2,-1,0,0,456.30937,456.30937,458.80642,0,7,7,7,1,8,6,7,dolphin     ,calculator    ,html/resources/sequences_IDs/B/02_dolphin.jpg,html/resources/sequences_IDs/A/09_calculator.jpg,2,9,1,1,4,2,2,8,0,18,,,,,,,,,,,,,,,,,,,,
,,,,,18,2020-07-01_09h34.21.966,retriever_ti,2020.1.3,Win32,60,Chrome,1536,864,,,,,,,,,,,,,,,,,1,,,,,,,,,,,,,,,,,,,,,,,,,,,459.90599,9,left,1.969075,wolf          ,5,1,1,1,1,459.939345,459.939345,462.4365,0,8,8,8,1,9,5,4,wolf          ,gloves      ,html/resources/sequences_IDs/A/01_wolf.jpg,html/resources/sequences_IDs/B/06_gloves.jpg,1,6,1,1,3,2,1,5,0,18,,,,,,,,,,,,,,,,,,,,
,,,,,18,2020-07-01_09h34.21.966,retriever_ti,2020.1.3,Win32,60,Chrome,1536,864,,,,,,,,,,,,,,,,,1,,,,,,,,,,,,,,,,,,,,,,,,,,,463.536215,10,left,1.895295,camel         ,1,3,-2,0,3,463.56964,463.56964,466.066525,0,9,9,9,1,10,1,3,camel         ,hat           ,html/resources/sequences_IDs/A/03_camel.jpg,html/resources/sequences_IDs/A/08_hat.jpg,3,8,1,1,3,2,3,7,0,18,,,,,,,,,,,,,,,,,,,,
,,,,,18,2020-07-01_09h34.21.966,retriever_ti,2020.1.3,Win32,60,Chrome,1536,864,,,,,,,,,,,,,,,,,1,,,,,,,,,,,,,,,,,,,,,,,,,,,466.6832,11,right,1.91467,sport_tshirt,8,7,5,1,3,466.71965,466.71965,469.213405,0,10,10,10,1,11,3,8,hat           ,sport_tshirt,html/resources/sequences_IDs/A/08_hat.jpg,html/resources/sequences_IDs/B/07_sport_tshirt.jpg,8,7,3,2,3,2,7,6,0,18,,,,,,,,,,,,,,,,,,,,
,,,,,18,2020-07-01_09h34.21.966,retriever_ti,2020.1.3,Win32,60,Chrome,1536,864,,,,,,,,,,,,,,,,,1,,,,,,,,,,,,,,,,,,,,,,,,,,,469.830655,12,left,1.41787,gloves      ,4,6,-4,0,3,469.866295,469.866295,472.360575,0,11,11,11,1,12,4,8,gloves      ,sport_tshirt,html/resources/sequences_IDs/B/06_gloves.jpg,html/resources/sequences_IDs/B/07_sport_tshirt.jpg,6,7,3,2,3,2,5,6,0,18,,,,,,,,,,,,,,,,,,,,
,,,,,18,2020-07-01_09h34.21.966,retriever_ti,2020.1.3,Win32,60,Chrome,1536,864,,,,,,,,,,,,,,,,,1,,,,,,,,,,,,,,,,,,,,,,,,,,,472.978525,13,left,1.66736,camel         ,1,3,-3,0,3,473.01354,473.01354,475.507895,0,12,12,12,1,13,1,4,camel         ,gloves      ,html/resources/sequences_IDs/A/03_camel.jpg,html/resources/sequences_IDs/B/06_gloves.jpg,3,6,1,1,3,2,3,5,0,18,,,,,,,,,,,,,,,,,,,,
,,,,,18,2020-07-01_09h34.21.966,retriever_ti,2020.1.3,Win32,60,Chrome,1536,864,,,,,,,,,,,,,,,,,1,,,,,,,,,,,,,,,,,,,,,,,,,,,476.12544,14,right,2.26997,camel         ,1,3,-7,0,3,476.15929,476.15929,478.65446,0,13,13,13,1,14,8,1,sport_tshirt,camel         ,html/resources/sequences_IDs/B/07_sport_tshirt.jpg,html/resources/sequences_IDs/A/03_camel.jpg,7,3,3,2,1,1,6,3,0,18,,,,,,,,,,,,,,,,,,,,
,,,,,18,2020-07-01_09h34.21.966,retriever_ti,2020.1.3,Win32,60,Chrome,1536,864,,,,,,,,,,,,,,,,,1,,,,,,,,,,,,,,,,,,,,,,,,,,,479.272465,15,left,1.927735,gloves      ,4,6,-1,0,0,479.289785,479.289785,481.78531,0,14,14,14,1,15,4,5,gloves      ,wolf          ,html/resources/sequences_IDs/B/06_gloves.jpg,html/resources/sequences_IDs/A/01_wolf.jpg,6,1,3,2,1,1,5,1,0,18,,,,,,,,,,,,,,,,,,,,
,,,,,18,2020-07-01_09h34.21.966,retriever_ti,2020.1.3,Win32,60,Chrome,1536,864,,,,,,,,,,,,,,,,,1,,,,,,,,,,,,,,,,,,,,,,,,,,,482.88519,16,left,2.32646,wolf          ,5,1,1,1,0,482.919235,482.919235,485.4152,0,15,15,15,1,16,5,4,wolf          ,gloves      ,html/resources/sequences_IDs/A/01_wolf.jpg,html/resources/sequences_IDs/B/06_gloves.jpg,1,6,1,1,3,2,1,5,1,18,,,,,,,,,,,,,,,,,,,,
,,,,,18,2020-07-01_09h34.21.966,retriever_ti,2020.1.3,Win32,60,Chrome,1536,864,,,,,,,,,,,,,,,,,1,,,,,,,,,,,,,,,,,,,,,,,,,,,486.515735,17,left,1.5277,holdfast    ,2,4,1,1,1,486.533095,486.533095,489.02837,0,16,16,16,1,17,2,1,holdfast    ,camel         ,html/resources/sequences_IDs/B/04_holdfast.jpg,html/resources/sequences_IDs/A/03_camel.jpg,4,3,2,1,1,1,4,3,0,18,,,,,,,,,,,,,,,,,,,,
,,,,,18,2020-07-01_09h34.21.966,retriever_ti,2020.1.3,Win32,60,Chrome,1536,864,,,,,,,,,,,,,,,,,1,,,,,,,,,,,,,,,,,,,,,,,,,,,490.12845,18,right,2.053665,camel         ,1,3,-5,0,3,490.146375,490.146375,492.64189,0,17,17,17,1,18,6,1,dolphin     ,camel         ,html/resources/sequences_IDs/B/02_dolphin.jpg,html/resources/sequences_IDs/A/03_camel.jpg,2,3,1,1,1,1,2,3,0,18,,,,,,,,,,,,,,,,,,,,
,,,,,18,2020-07-01_09h34.21.966,retriever_ti,2020.1.3,Win32,60,Chrome,1536,864,,,,,,,,,,,,,,,,,1,,,,,,,,,,,,,,,,,,,,,,,,,,,493.259495,19,right,1.93349,holdfast    ,2,4,-1,0,0,493.29443,493.29443,495.78844,0,18,18,18,1,19,3,2,hat           ,holdfast    ,html/resources/sequences_IDs/A/08_hat.jpg,html/resources/sequences_IDs/B/04_holdfast.jpg,8,4,3,2,2,1,7,4,0,18,,,,,,,,,,,,,,,,,,,,
,,,,,18,2020-07-01_09h34.21.966,retriever_ti,2020.1.3,Win32,60,Chrome,1536,864,,,,,,,,,,,,,,,,,1,,,,,,,,,,,,,,,,,,,,,,,,,,,496.89029,20,NaN,NaN,No_response,NaN,NaN,NaN,2,2,496.923275,496.923275,499.41883,0,19,19,19,1,20,3,4,hat           ,gloves      ,html/resources/sequences_IDs/A/08_hat.jpg,html/resources/sequences_IDs/B/06_gloves.jpg,8,6,3,2,3,2,7,5,0,18,,,,,,,,,,,,,,,,,,,,
,,,,,18,2020-07-01_09h34.21.966,retriever_ti,2020.1.3,Win32,60,Chrome,1536,864,,,,,,,,,,,,,,,,,1,,,,,,,,,,,,,,,,,,,,,,,,,,,500.519355,21,right,1.400065,dolphin     ,6,2,1,1,1,500.554435,500.554435,503.04887,0,20,20,20,1,21,5,6,wolf          ,dolphin     ,html/resources/sequences_IDs/A/01_wolf.jpg,html/resources/sequences_IDs/B/02_dolphin.jpg,1,2,1,1,1,1,1,2,0,18,,,,,,,,,,,,,,,,,,,,
,,,,,18,2020-07-01_09h34.21.966,retriever_ti,2020.1.3,Win32,60,Chrome,1536,864,,,,,,,,,,,,,,,,,1,,,,,,,,,,,,,,,,,,,,,,,,,,,504.148945,22,right,0.86128,dolphin     ,6,2,1,1,0,504.184235,504.184235,506.67897,0,21,21,21,1,22,5,6,wolf          ,dolphin     ,html/resources/sequences_IDs/A/01_wolf.jpg,html/resources/sequences_IDs/B/02_dolphin.jpg,1,2,1,1,1,1,1,2,1,18,,,,,,,,,,,,,,,,,,,,
,,,,,18,2020-07-01_09h34.21.966,retriever_ti,2020.1.3,Win32,60,Chrome,1536,864,,,,,,,,,,,,,,,,,1,,,,,,,,,,,,,,,,,,,,,,,,,,,507.77878,23,left,1.4564,sport_tshirt,8,7,6,1,3,507.814785,507.814785,510.30852,0,22,22,22,1,23,8,2,sport_tshirt,holdfast    ,html/resources/sequences_IDs/B/07_sport_tshirt.jpg,html/resources/sequences_IDs/B/04_holdfast.jpg,7,4,3,2,2,1,6,4,0,18,,,,,,,,,,,,,,,,,,,,
,,,,,18,2020-07-01_09h34.21.966,retriever_ti,2020.1.3,Win32,60,Chrome,1536,864,,,,,,,,,,,,,,,,,1,,,,,,,,,,,,,,,,,,,,,,,,,,,510.92584,24,left,1.32878,wolf          ,5,1,4,1,3,510.959835,510.959835,513.456055,0,23,23,23,1,24,5,1,wolf          ,camel         ,html/resources/sequences_IDs/A/01_wolf.jpg,html/resources/sequences_IDs/A/03_camel.jpg,1,3,1,1,1,1,1,3,0,18,,,,,,,,,,,,,,,,,,,,
,,,,,18,2020-07-01_09h34.21.966,retriever_ti,2020.1.3,Win32,60,Chrome,1536,864,,,,,,,,,,,,,,,,,1,,,,,,,,,,,,,,,,,,,,,,,,,,,514.07236,25,right,1.81768,calculator    ,7,9,-1,0,0,514.10688,514.10688,516.60232,0,24,24,24,1,25,8,7,sport_tshirt,calculator    ,html/resources/sequences_IDs/B/07_sport_tshirt.jpg,html/resources/sequences_IDs/A/09_calculator.jpg,7,9,3,2,4,2,6,8,0,18,,,,,,,,,,,,,,,,,,,,
,,,,,18,2020-07-01_09h34.21.966,retriever_ti,2020.1.3,Win32,60,Chrome,1536,864,,,,,,,,,,,,,,,,,1,,,,,,,,,,,,,,,,,,,,,,,,,,,517.704155,26,right,1.64156,hat           ,3,8,1,1,0,517.72074,517.72074,520.21557,0,25,25,25,1,26,2,3,holdfast    ,hat           ,html/resources/sequences_IDs/B/04_holdfast.jpg,html/resources/sequences_IDs/A/08_hat.jpg,4,8,2,1,3,2,4,7,1,18,,,,,,,,,,,,,,,,,,,,
,,,,,18,2020-07-01_09h34.21.966,retriever_ti,2020.1.3,Win32,60,Chrome,1536,864,,,,,,,,,,,,,,,,,1,,,,,,,,,,,,,,,,,,,,,,,,,,,521.31638,27,right,1.520215,gloves      ,4,6,-1,0,0,521.35005,521.35005,523.84602,0,26,26,26,1,27,5,4,wolf          ,gloves      ,html/resources/sequences_IDs/A/01_wolf.jpg,html/resources/sequences_IDs/B/06_gloves.jpg,1,6,1,1,3,2,1,5,0,18,,,,,,,,,,,,,,,,,,,,
,,,,,18,2020-07-01_09h34.21.966,retriever_ti,2020.1.3,Win32,60,Chrome,1536,864,,,,,,,,,,,,,,,,,1,,,,,,,,,,,,,,,,,,,,,,,,,,,524.946025,28,right,1.363125,sport_tshirt,8,7,7,1,3,524.96434,524.96434,527.46054,0,27,27,27,1,28,1,8,camel         ,sport_tshirt,html/resources/sequences_IDs/A/03_camel.jpg,html/resources/sequences_IDs/B/07_sport_tshirt.jpg,3,7,1,1,3,2,3,6,0,18,,,,,,,,,,,,,,,,,,,,
,,,,,18,2020-07-01_09h34.21.966,retriever_ti,2020.1.3,Win32,60,Chrome,1536,864,,,,,,,,,,,,,,,,,1,,,,,,,,,,,,,,,,,,,,,,,,,,,528.076795,29,left,1.77166,calculator    ,7,9,6,1,3,528.11185,528.11185,530.606015,0,28,28,28,1,29,7,1,calculator    ,camel         ,html/resources/sequences_IDs/A/09_calculator.jpg,html/resources/sequences_IDs/A/03_camel.jpg,9,3,4,2,1,1,8,3,0,18,,,,,,,,,,,,,,,,,,,,
,,,,,18,2020-07-01_09h34.21.966,retriever_ti,2020.1.3,Win32,60,Chrome,1536,864,,,,,,,,,,,,,,,,,1,,,,,,,,,,,,,,,,,,,,,,,,,,,531.22482,30,left,1.47831,hat           ,3,8,1,1,1,531.24144,531.24144,533.736505,0,29,29,29,1,30,3,2,hat           ,holdfast    ,html/resources/sequences_IDs/A/08_hat.jpg,html/resources/sequences_IDs/B/04_holdfast.jpg,8,4,3,2,2,1,7,4,0,18,,,,,,,,,,,,,,,,,,,,
,,,,,18,2020-07-01_09h34.21.966,retriever_ti,2020.1.3,Win32,60,Chrome,1536,864,,,,,,,,,,,,,,,,,1,,,,,,,,,,,,,,,,,,,,,,,,,,,534.837325,31,left,1.250915,sport_tshirt,8,7,3,1,3,534.854525,534.854525,537.351215,0,30,30,30,1,31,8,5,sport_tshirt,wolf          ,html/resources/sequences_IDs/B/07_sport_tshirt.jpg,html/resources/sequences_IDs/A/01_wolf.jpg,7,1,3,2,1,1,6,1,0,18,,,,,,,,,,,,,,,,,,,,
,,,,,18,2020-07-01_09h34.21.966,retriever_ti,2020.1.3,Win32,60,Chrome,1536,864,,,,,,,,,,,,,,,,,1,,,,,,,,,,,,,,,,,,,,,,,,,,,537.96808,32,right,1.6781,calculator    ,7,9,5,1,3,537.98474,537.98474,540.48057,0,31,31,31,1,32,2,7,holdfast    ,calculator    ,html/resources/sequences_IDs/B/04_holdfast.jpg,html/resources/sequences_IDs/A/09_calculator.jpg,4,9,2,1,4,2,4,8,0,18,,,,,,,,,,,,,,,,,,,,
,,,,,18,2020-07-01_09h34.21.966,retriever_ti,2020.1.3,Win32,60,Chrome,1536,864,,,,,,,,,,,,,,,,,1,,,,,,,,,,,,,,,,,,,,,,,,,,,541.098075,33,left,1.07679,gloves      ,4,6,-2,0,3,541.13289,541.13289,543.62742,0,32,32,32,1,33,4,6,gloves      ,dolphin     ,html/resources/sequences_IDs/B/06_gloves.jpg,html/resources/sequences_IDs/B/02_dolphin.jpg,6,2,3,2,1,1,5,2,0,18,,,,,,,,,,,,,,,,,,,,
,,,,,18,2020-07-01_09h34.21.966,retriever_ti,2020.1.3,Win32,60,Chrome,1536,864,,,,,,,,,,,,,,,,,1,,,,,,,,,,,,,,,,,,,,,,,,,,,544.24464,34,left,1.482975,wolf          ,5,1,-3,0,3,544.263315,544.263315,546.75757,0,33,33,33,1,34,5,8,wolf          ,sport_tshirt,html/resources/sequences_IDs/A/01_wolf.jpg,html/resources/sequences_IDs/B/07_sport_tshirt.jpg,1,7,1,1,3,2,1,6,0,18,,,,,,,,,,,,,,,,,,,,
,,,,,18,2020-07-01_09h34.21.966,retriever_ti,2020.1.3,Win32,60,Chrome,1536,864,,,,,,,,,,,,,,,,,1,,,,,,,,,,,,,,,,,,,,,,,,,,,547.37443,35,left,1.412105,wolf          ,5,1,-2,0,3,547.40931,547.40931,549.905325,0,34,34,34,1,35,5,7,wolf          ,calculator    ,html/resources/sequences_IDs/A/01_wolf.jpg,html/resources/sequences_IDs/A/09_calculator.jpg,1,9,1,1,4,2,1,8,0,18,,,,,,,,,,,,,,,,,,,,
,,,,,18,2020-07-01_09h34.21.966,retriever_ti,2020.1.3,Win32,60,Chrome,1536,864,,,,,,,,,,,,,,,,,1,,,,,,,,,,,,,,,,,,,,,,,,,,,550.52318,36,left,1.93532,gloves      ,4,6,-3,0,3,550.557465,550.557465,553.05213,0,35,35,35,1,36,4,7,gloves      ,calculator    ,html/resources/sequences_IDs/B/06_gloves.jpg,html/resources/sequences_IDs/A/09_calculator.jpg,6,9,3,2,4,2,5,8,0,18,,,,,,,,,,,,,,,,,,,,
,,,,,18,2020-07-01_09h34.21.966,retriever_ti,2020.1.3,Win32,60,Chrome,1536,864,,,,,,,,,,,,,,,,,1,,,,,,,,,,,,,,,,,,,,,,,,,,,553.66952,37,right,1.522535,dolphin     ,6,2,-1,0,0,553.686635,553.686635,556.182605,0,36,36,36,1,37,7,6,calculator    ,dolphin     ,html/resources/sequences_IDs/A/09_calculator.jpg,html/resources/sequences_IDs/B/02_dolphin.jpg,9,2,4,2,1,1,8,2,0,18,,,,,,,,,,,,,,,,,,,,
,,,,,18,2020-07-01_09h34.21.966,retriever_ti,2020.1.3,Win32,60,Chrome,1536,864,,,,,,,,,,,,,,,,,1,,,,,,,,,,,,,,,,,,,,,,,,,,,557.28297,38,right,1.168235,calculator    ,7,9,-1,0,0,557.31796,557.31796,559.81233,0,37,37,37,1,38,8,7,sport_tshirt,calculator    ,html/resources/sequences_IDs/B/07_sport_tshirt.jpg,html/resources/sequences_IDs/A/09_calculator.jpg,7,9,3,2,4,2,6,8,0,18,,,,,,,,,,,,,,,,,,,,
,,,,,18,2020-07-01_09h34.21.966,retriever_ti,2020.1.3,Win32,60,Chrome,1536,864,,,,,,,,,,,,,,,,,1,,,,,,,,,,,,,,,,,,,,,,,,,,,560.91233,39,right,1.894755,sport_tshirt,8,7,2,1,3,560.92993,560.92993,563.425695,0,38,38,38,1,39,6,8,dolphin     ,sport_tshirt,html/resources/sequences_IDs/B/02_dolphin.jpg,html/resources/sequences_IDs/B/07_sport_tshirt.jpg,2,7,1,1,3,2,2,6,0,18,,,,,,,,,,,,,,,,,,,,
,,,,,18,2020-07-01_09h34.21.966,retriever_ti,2020.1.3,Win32,60,Chrome,1536,864,,,,,,,,,,,,,,,,,1,,,,,,,,,,,,,,,,,,,,,,,,,,,564.045105,40,right,2.104575,gloves      ,4,6,2,1,3,564.07832,564.07832,566.57304,0,39,39,39,1,40,2,4,holdfast    ,gloves      ,html/resources/sequences_IDs/B/04_holdfast.jpg,html/resources/sequences_IDs/B/06_gloves.jpg,4,6,2,1,3,2,4,5,0,18,,,,,,,,,,,,,,,,,,,,
,,,,,18,2020-07-01_09h34.21.966,retriever_ti,2020.1.3,Win32,60,Chrome,1536,864,,,,,,,,,,,,,,,,,1,,,,,,,,,,,,,,,,,,,,,,,,,,,567.18949,41,left,1.03725,gloves      ,4,6,1,1,0,567.223715,567.223715,569.719965,0,40,40,40,1,41,4,3,gloves      ,hat           ,html/resources/sequences_IDs/B/06_gloves.jpg,html/resources/sequences_IDs/A/08_hat.jpg,6,8,3,2,3,2,5,7,1,18,,,,,,,,,,,,,,,,,,,,
,,,,,18,2020-07-01_09h34.21.966,retriever_ti,2020.1.3,Win32,60,Chrome,1536,864,,,,,,,,,,,,,,,,,1,,,,,,,,,,,,,,,,,,,,,,,,,,,570.81959,42,left,0.990795,calculator    ,7,9,3,1,3,570.854235,570.854235,573.34947,0,41,41,41,1,42,7,4,calculator    ,gloves      ,html/resources/sequences_IDs/A/09_calculator.jpg,html/resources/sequences_IDs/B/06_gloves.jpg,9,6,4,2,3,2,8,5,0,18,,,,,,,,,,,,,,,,,,,,
,,,,,18,2020-07-01_09h34.21.966,retriever_ti,2020.1.3,Win32,60,Chrome,1536,864,,,,,,,,,,,,,,,,,1,,,,,,,,,,,,,,,,,,,,,,,,,,,573.966225,43,left,1.70298,camel         ,1,3,-1,0,0,573.986045,573.986045,576.480245,0,42,42,42,1,43,1,2,camel         ,holdfast    ,html/resources/sequences_IDs/A/03_camel.jpg,html/resources/sequences_IDs/B/04_holdfast.jpg,3,4,1,1,2,1,3,4,0,18,,,,,,,,,,,,,,,,,,,,
,,,,,18,2020-07-01_09h34.21.966,retriever_ti,2020.1.3,Win32,60,Chrome,1536,864,,,,,,,,,,,,,,,,,1,,,,,,,,,,,,,,,,,,,,,,,,,,,577.58102,44,right,1.96284,holdfast    ,2,4,-5,0,3,577.614535,577.614535,580.11033,0,43,43,43,1,44,7,2,calculator    ,holdfast    ,html/resources/sequences_IDs/A/09_calculator.jpg,html/resources/sequences_IDs/B/04_holdfast.jpg,9,4,4,2,2,1,8,4,0,18,,,,,,,,,,,,,,,,,,,,
,,,,,18,2020-07-01_09h34.21.966,retriever_ti,2020.1.3,Win32,60,Chrome,1536,864,,,,,,,,,,,,,,,,,1,,,,,,,,,,,,,,,,,,,,,,,,,,,580.727725,45,left,2.072115,camel         ,1,3,-5,0,3,580.762525,580.762525,583.257215,0,44,44,44,1,45,1,6,camel         ,dolphin     ,html/resources/sequences_IDs/A/03_camel.jpg,html/resources/sequences_IDs/B/02_dolphin.jpg,3,2,1,1,1,1,3,2,0,18,,,,,,,,,,,,,,,,,,,,
,,,,,18,2020-07-01_09h34.21.966,retriever_ti,2020.1.3,Win32,60,Chrome,1536,864,,,,,,,,,,,,,,,,,1,,,,,,,,,,,,,,,,,,,,,,,,,,,583.875245,46,right,1.33916,camel         ,1,3,-3,0,3,583.89317,583.89317,586.38785,0,45,45,45,1,46,4,1,gloves      ,camel         ,html/resources/sequences_IDs/B/06_gloves.jpg,html/resources/sequences_IDs/A/03_camel.jpg,6,3,3,2,1,1,5,3,0,18,,,,,,,,,,,,,,,,,,,,
,,,,,18,2020-07-01_09h34.21.966,retriever_ti,2020.1.3,Win32,60,Chrome,1536,864,,,,,,,,,,,,,,,,,1,,,,,,,,,,,,,,,,,,,,,,,,,,,587.00509,47,right,1.859125,calculator    ,7,9,1,1,1,587.040635,587.040635,589.535295,0,46,46,46,1,47,6,7,dolphin     ,calculator    ,html/resources/sequences_IDs/B/02_dolphin.jpg,html/resources/sequences_IDs/A/09_calculator.jpg,2,9,1,1,4,2,2,8,0,18,,,,,,,,,,,,,,,,,,,,
,,,,,18,2020-07-01_09h34.21.966,retriever_ti,2020.1.3,Win32,60,Chrome,1536,864,,,,,,,,,,,,,,,,,1,,,,,,,,,,,,,,,,,,,,,,,,,,,590.63559,48,right,1.6063,calculator    ,7,9,4,1,3,590.653575,590.653575,593.148605,0,47,47,47,1,48,3,7,hat           ,calculator    ,html/resources/sequences_IDs/A/08_hat.jpg,html/resources/sequences_IDs/A/09_calculator.jpg,8,9,3,2,4,2,7,8,0,18,,,,,,,,,,,,,,,,,,,,
,,,,,18,2020-07-01_09h34.21.966,retriever_ti,2020.1.3,Win32,60,Chrome,1536,864,,,,,,,,,,,,,,,,,1,,,,,,,,,,,,,,,,,,,,,,,,,,,593.765675,49,left,1.675025,gloves      ,4,6,1,1,1,593.800585,593.800585,596.29516,0,48,48,48,1,49,4,3,gloves      ,hat           ,html/resources/sequences_IDs/B/06_gloves.jpg,html/resources/sequences_IDs/A/08_hat.jpg,6,8,3,2,3,2,5,7,0,18,,,,,,,,,,,,,,,,,,,,
,,,,,18,2020-07-01_09h34.21.966,retriever_ti,2020.1.3,Win32,60,Chrome,1536,864,,,,,,,,,,,,,,,,,1,,,,,,,,,,,,,,,,,,,,,,,,,,,597.39589,50,left,1.73859,calculator    ,7,9,4,1,3,597.41322,597.41322,599.908525,0,49,49,49,1,50,7,3,calculator    ,hat           ,html/resources/sequences_IDs/A/09_calculator.jpg,html/resources/sequences_IDs/A/08_hat.jpg,9,8,4,2,3,2,8,7,0,18,,,,,,,,,,,,,,,,,,,,
,,,,,18,2020-07-01_09h34.21.966,retriever_ti,2020.1.3,Win32,60,Chrome,1536,864,,,,,,,,,,,,,,,,,1,,,,,,,,,,,,,,,,,,,,,,,,,,,600.52478,51,left,1.339555,calculator    ,7,9,-1,0,0,600.56131,600.56131,603.05502,0,50,50,50,1,51,7,8,calculator    ,sport_tshirt,html/resources/sequences_IDs/A/09_calculator.jpg,html/resources/sequences_IDs/B/07_sport_tshirt.jpg,9,7,4,2,3,2,8,6,0,18,,,,,,,,,,,,,,,,,,,,
,,,,,18,2020-07-01_09h34.21.966,retriever_ti,2020.1.3,Win32,60,Chrome,1536,864,,,,,,,,,,,,,,,,,1,,,,,,,,,,,,,,,,,,,,,,,,,,,604.155855,52,right,1.966475,dolphin     ,6,2,3,1,3,604.189535,604.189535,606.685355,0,51,51,51,1,52,3,6,hat           ,dolphin     ,html/resources/sequences_IDs/A/08_hat.jpg,html/resources/sequences_IDs/B/02_dolphin.jpg,8,2,3,2,1,1,7,2,0,18,,,,,,,,,,,,,,,,,,,,
,,,,,18,2020-07-01_09h34.21.966,retriever_ti,2020.1.3,Win32,60,Chrome,1536,864,,,,,,,,,,,,,,,,,1,,,,,,,,,,,,,,,,,,,,,,,,,,,607.30317,53,right,1.39184,wolf          ,5,1,-1,0,0,607.320195,607.320195,609.816055,0,52,52,52,1,53,6,5,dolphin     ,wolf          ,html/resources/sequences_IDs/B/02_dolphin.jpg,html/resources/sequences_IDs/A/01_wolf.jpg,2,1,1,1,1,1,2,1,0,18,,,,,,,,,,,,,,,,,,,,
,,,,,18,2020-07-01_09h34.21.966,retriever_ti,2020.1.3,Win32,60,Chrome,1536,864,,,,,,,,,,,,,,,,,1,,,,,,,,,,,,,,,,,,,,,,,,,,,610.91665,54,right,2.16628,hat           ,3,8,-2,0,3,610.951625,610.951625,613.44539,0,53,53,53,1,54,5,3,wolf          ,hat           ,html/resources/sequences_IDs/A/01_wolf.jpg,html/resources/sequences_IDs/A/08_hat.jpg,1,8,1,1,3,2,1,7,0,18,,,,,,,,,,,,,,,,,,,,
,,,,,18,2020-07-01_09h34.21.966,retriever_ti,2020.1.3,Win32,60,Chrome,1536,864,,,,,,,,,,,,,,,,,1,,,,,,,,,,,,,,,,,,,,,,,,,,,614.063155,55,left,2.14159,holdfast    ,2,4,-3,0,3,614.098895,614.098895,616.59281,0,54,54,54,1,55,2,5,holdfast    ,wolf          ,html/resources/sequences_IDs/B/04_holdfast.jpg,html/resources/sequences_IDs/A/01_wolf.jpg,4,1,2,1,1,1,4,1,0,18,,,,,,,,,,,,,,,,,,,,
,,,,,18,2020-07-01_09h34.21.966,retriever_ti,2020.1.3,Win32,60,Chrome,1536,864,,,,,,,,,,,,,,,,,1,,,,,,,,,,,,,,,,,,,,,,,,,,,617.210715,56,right,1.228395,sport_tshirt,8,7,1,1,1,617.229165,617.229165,619.723215,0,55,55,55,1,56,7,8,calculator    ,sport_tshirt,html/resources/sequences_IDs/A/09_calculator.jpg,html/resources/sequences_IDs/B/07_sport_tshirt.jpg,9,7,4,2,3,2,8,6,0,18,,,,,,,,,,,,,,,,,,,,
,,,,,18,2020-07-01_09h34.21.966,retriever_ti,2020.1.3,Win32,60,Chrome,1536,864,,,,,,,,,,,,,,,,,1,,,,,,,,,,,,,,,,,,,,,,,,,,,620.823815,57,left,2.210845,sport_tshirt,8,7,5,1,3,620.859045,620.859045,623.35283,0,56,56,56,1,57,8,3,sport_tshirt,hat           ,html/resources/sequences_IDs/B/07_sport_tshirt.jpg,html/resources/sequences_IDs/A/08_hat.jpg,7,8,3,2,3,2,6,7,0,18,,,,,,,,,,,,,,,,,,,,
,,,,,18,2020-07-01_09h34.21.966,retriever_ti,2020.1.3,Win32,60,Chrome,1536,864,,,,,,,,,,,,,,,,,1,,,,,,,,,,,,,,,,,,,,,,,,,,,623.96993,58,left,1.4539,camel         ,1,3,-4,0,3,623.989435,623.989435,626.483285,0,57,57,57,1,58,1,5,camel         ,wolf          ,html/resources/sequences_IDs/A/03_camel.jpg,html/resources/sequences_IDs/A/01_wolf.jpg,3,1,1,1,1,1,3,1,0,18,,,,,,,,,,,,,,,,,,,,
,,,,,18,2020-07-01_09h34.21.966,retriever_ti,2020.1.3,Win32,60,Chrome,1536,864,,,,,,,,,,,,,,,,,1,,,,,,,,,,,,,,,,,,,,,,,,,,,627.10033,59,right,1.65235,hat           ,3,8,-3,0,3,627.13733,627.13733,629.631145,0,58,58,58,1,59,6,3,dolphin     ,hat           ,html/resources/sequences_IDs/B/02_dolphin.jpg,html/resources/sequences_IDs/A/08_hat.jpg,2,8,1,1,3,2,2,7,0,18,,,,,,,,,,,,,,,,,,,,
,,,,,18,2020-07-01_09h34.21.966,retriever_ti,2020.1.3,Win32,60,Chrome,1536,864,,,,,,,,,,,,,,,,,1,,,,,,,,,,,,,,,,,,,,,,,,,,,630.24762,60,right,1.737445,hat           ,3,8,-1,0,0,630.26539,630.26539,632.76261,0,59,59,59,1,60,4,3,gloves      ,hat           ,html/resources/sequences_IDs/B/06_gloves.jpg,html/resources/sequences_IDs/A/08_hat.jpg,6,8,3,2,3,2,5,7,0,18,,,,,,,,,,,,,,,,,,,,
,,,,,18,2020-07-01_09h34.21.966,retriever_ti,2020.1.3,Win32,60,Chrome,1536,864,,,,,,,,,,,,,,,,,1,,,,,,,,,,,,,,,,,,,,,,,,,,,633.86192,61,left,2.421805,holdfast    ,2,4,-6,0,3,633.89657,633.89657,636.39113,0,60,60,60,1,61,2,8,holdfast    ,sport_tshirt,html/resources/sequences_IDs/B/04_holdfast.jpg,html/resources/sequences_IDs/B/07_sport_tshirt.jpg,4,7,2,1,3,2,4,6,0,18,,,,,,,,,,,,,,,,,,,,
,,,,,18,2020-07-01_09h34.21.966,retriever_ti,2020.1.3,Win32,60,Chrome,1536,864,,,,,,,,,,,,,,,,,1,,,,,,,,,,,,,,,,,,,,,,,,,,,637.00851,62,right,1.482855,holdfast    ,2,4,-4,0,3,637.042695,637.042695,639.538025,0,61,61,61,1,62,6,2,dolphin     ,holdfast    ,html/resources/sequences_IDs/B/02_dolphin.jpg,html/resources/sequences_IDs/B/04_holdfast.jpg,2,4,1,1,2,1,2,4,0,18,,,,,,,,,,,,,,,,,,,,
,,,,,18,2020-07-01_09h34.21.966,retriever_ti,2020.1.3,Win32,60,Chrome,1536,864,,,,,,,,,,,,,,,,,1,,,,,,,,,,,,,,,,,,,,,,,,,,,640.15559,63,left,1.92796,gloves      ,4,6,-1,0,0,640.190405,640.190405,642.685005,0,62,62,62,1,63,4,5,gloves      ,wolf          ,html/resources/sequences_IDs/B/06_gloves.jpg,html/resources/sequences_IDs/A/01_wolf.jpg,6,1,3,2,1,1,5,1,0,18,,,,,,,,,,,,,,,,,,,,
,,,,,18,2020-07-01_09h34.21.966,retriever_ti,2020.1.3,Win32,60,Chrome,1536,864,,,,,,,,,,,,,,,,,1,,,,,,,,,,,,,,,,,,,,,,,,,,,643.785915,64,left,1.60158,calculator    ,7,9,1,1,1,643.821055,643.821055,646.31478,0,63,63,63,1,64,7,6,calculator    ,dolphin     ,html/resources/sequences_IDs/A/09_calculator.jpg,html/resources/sequences_IDs/B/02_dolphin.jpg,9,2,4,2,1,1,8,2,0,18,,,,,,,,,,,,,,,,,,,,
,,,,,18,2020-07-01_09h34.21.966,retriever_ti,2020.1.3,Win32,60,Chrome,1536,864,,,,,,,,,,,,,,,,,1,,,,,,,,,,,,,,,,,,,,,,,,,,,647.415355,65,left,1.25363,holdfast    ,2,4,-1,0,0,647.43365,647.43365,649.928235,0,64,64,64,1,65,2,3,holdfast    ,hat           ,html/resources/sequences_IDs/B/04_holdfast.jpg,html/resources/sequences_IDs/A/08_hat.jpg,4,8,2,1,3,2,4,7,0,18,,,,,,,,,,,,,,,,,,,,
,,,,,18,2020-07-01_09h34.21.966,retriever_ti,2020.1.3,Win32,60,Chrome,1536,864,,,,,,,,,,,,,,,,,1,,,,,,,,,,,,,,,,,,,,,,,,,,,651.03037,66,right,1.599495,holdfast    ,2,4,-3,0,3,651.04797,651.04797,653.54141,0,65,65,65,1,66,5,2,wolf          ,holdfast    ,html/resources/sequences_IDs/A/01_wolf.jpg,html/resources/sequences_IDs/B/04_holdfast.jpg,1,4,1,1,2,1,1,4,0,18,,,,,,,,,,,,,,,,,,,,
,,,,,18,2020-07-01_09h34.21.966,retriever_ti,2020.1.3,Win32,60,Chrome,1536,864,,,,,,,,,,,,,,,,,1,,,,,,,,,,,,,,,,,,,,,,,,,,,654.158465,67,left,1.306485,camel         ,1,3,-1,0,1,654.19475,654.19475,656.68828,0,66,66,66,1,67,1,2,camel         ,holdfast    ,html/resources/sequences_IDs/A/03_camel.jpg,html/resources/sequences_IDs/B/04_holdfast.jpg,3,4,1,1,2,1,3,4,1,18,,,,,,,,,,,,,,,,,,,,
,,,,,18,2020-07-01_09h34.21.966,retriever_ti,2020.1.3,Win32,60,Chrome,1536,864,,,,,,,,,,,,,,,,,1,,,,,,,,,,,,,,,,,,,,,,,,,,,657.789595,68,right,1.070085,hat           ,3,8,1,1,1,657.80782,657.80782,660.301715,0,67,67,67,1,68,2,3,holdfast    ,hat           ,html/resources/sequences_IDs/B/04_holdfast.jpg,html/resources/sequences_IDs/A/08_hat.jpg,4,8,2,1,3,2,4,7,0,18,,,,,,,,,,,,,,,,,,,,
,,,,,18,2020-07-01_09h34.21.966,retriever_ti,2020.1.3,Win32,60,Chrome,1536,864,,,,,,,,,,,,,,,,,1,,,,,,,,,,,,,,,,,,,,,,,,,,,661.40238,69,left,1.26101,holdfast    ,2,4,-4,0,3,661.42019,661.42019,663.915615,0,68,68,68,1,69,2,6,holdfast    ,dolphin     ,html/resources/sequences_IDs/B/04_holdfast.jpg,html/resources/sequences_IDs/B/02_dolphin.jpg,4,2,2,1,1,1,4,2,0,18,,,,,,,,,,,,,,,,,,,,
,,,,,18,2020-07-01_09h34.21.966,retriever_ti,2020.1.3,Win32,60,Chrome,1536,864,,,,,,,,,,,,,,,,,1,,,,,,,,,,,,,,,,,,,,,,,,,,,664.53316,70,right,1.834205,camel         ,1,3,-1,0,0,664.56662,664.56662,667.062785,0,69,69,69,1,70,2,1,holdfast    ,camel         ,html/resources/sequences_IDs/B/04_holdfast.jpg,html/resources/sequences_IDs/A/03_camel.jpg,4,3,2,1,1,1,4,3,0,18,,,,,,,,,,,,,,,,,,,,
,,,,,18,2020-07-01_09h34.21.966,retriever_ti,2020.1.3,Win32,60,Chrome,1536,864,,,,,,,,,,,,,,,,,1,,,,,,,,,,,,,,,,,,,,,,,,,,,668.16184,71,left,1.28993,hat           ,3,8,-2,0,3,668.18115,668.18115,670.67591,0,70,70,70,1,71,3,5,hat           ,wolf          ,html/resources/sequences_IDs/A/08_hat.jpg,html/resources/sequences_IDs/A/01_wolf.jpg,8,1,3,2,1,1,7,1,0,18,,,,,,,,,,,,,,,,,,,,
,,,,,18,2020-07-01_09h34.21.966,retriever_ti,2020.1.3,Win32,60,Chrome,1536,864,,,,,,,,,,,,,,,,,1,,,,,,,,,,,,,,,,,,,,,,,,,,,671.29344,72,right,1.01545,calculator    ,7,9,1,1,0,671.311485,671.311485,673.80624,0,71,71,71,1,72,6,7,dolphin     ,calculator    ,html/resources/sequences_IDs/B/02_dolphin.jpg,html/resources/sequences_IDs/A/09_calculator.jpg,2,9,1,1,4,2,2,8,1,18,,,,,,,,,,,,,,,,,,,,
,,,,,18,2020-07-01_09h34.21.966,retriever_ti,2020.1.3,Win32,60,Chrome,1536,864,,,,,,,,,,,,,,,,,1,,,,,,,,,,,,,,,,,,,,,,,,,,,674.90679,73,left,1.59233,camel         ,1,3,-6,0,3,674.924845,674.924845,677.419425,0,72,72,72,1,73,1,7,camel         ,calculator    ,html/resources/sequences_IDs/A/03_camel.jpg,html/resources/sequences_IDs/A/09_calculator.jpg,3,9,1,1,4,2,3,8,0,18,,,,,,,,,,,,,,,,,,,,
,,,,,18,2020-07-01_09h34.21.966,retriever_ti,2020.1.3,Win32,60,Chrome,1536,864,,,,,,,,,,,,,,,,,1,,,,,,,,,,,,,,,,,,,,,,,,,,,678.036865,74,left,1.50729,calculator    ,7,9,2,1,3,678.05538,678.05538,680.54972,0,73,73,73,1,74,7,5,calculator    ,wolf          ,html/resources/sequences_IDs/A/09_calculator.jpg,html/resources/sequences_IDs/A/01_wolf.jpg,9,1,4,2,1,1,8,1,0,18,,,,,,,,,,,,,,,,,,,,
,,,,,18,2020-07-01_09h34.21.966,retriever_ti,2020.1.3,Win32,60,Chrome,1536,864,,,,,,,,,,,,,,,,,1,,,,,,,,,,,,,,,,,,,,,,,,,,,681.167275,75,left,1.364915,hat           ,3,8,-1,0,0,681.20379,681.20379,683.696995,0,74,74,74,1,75,3,4,hat           ,gloves      ,html/resources/sequences_IDs/A/08_hat.jpg,html/resources/sequences_IDs/B/06_gloves.jpg,8,6,3,2,3,2,7,5,0,18,,,,,,,,,,,,,,,,,,,,
,,,,,18,2020-07-01_09h34.21.966,retriever_ti,2020.1.3,Win32,60,Chrome,1536,864,,,,,,,,,,,,,,,,,1,,,,,,,,,,,,,,,,,,,,,,,,,,,684.797415,76,right,1.56788,gloves      ,4,6,-2,0,3,684.81656,684.81656,687.30995,0,75,75,75,1,76,6,4,dolphin     ,gloves      ,html/resources/sequences_IDs/B/02_dolphin.jpg,html/resources/sequences_IDs/B/06_gloves.jpg,2,6,1,1,3,2,2,5,0,18,,,,,,,,,,,,,,,,,,,,
,,,,,18,2020-07-01_09h34.21.966,retriever_ti,2020.1.3,Win32,60,Chrome,1536,864,,,,,,,,,,,,,,,,,1,,,,,,,,,,,,,,,,,,,,,,,,,,,687.92784,77,left,1.462235,hat           ,3,8,2,1,3,687.961475,687.961475,690.457535,0,76,76,76,1,77,3,1,hat           ,camel         ,html/resources/sequences_IDs/A/08_hat.jpg,html/resources/sequences_IDs/A/03_camel.jpg,8,3,3,2,1,1,7,3,0,18,,,,,,,,,,,,,,,,,,,,
,,,,,18,2020-07-01_09h34.21.966,retriever_ti,2020.1.3,Win32,60,Chrome,1536,864,,,,,,,,,,,,,,,,,,,,,,,,,,,,,,,,,,,,,0,3.832595,,,,,,,,,,,,,,,,,,,,,,,,,,,,,,,,,,,,,,,,,0,0,0,0,1,,,,,,,,,,,,,,,
,,,,,18,2020-07-01_09h34.21.966,retriever_ti,2020.1.3,Win32,60,Chrome,1536,864,,,,,,,,,,,,,,,,,2,,,,,,,,,,,,,,,,,,,,,,,,,,,789.368935,78,right,1.17996,sport_tshirt,8,7,5,1,3,789.382185,789.382185,791.87911,0,0,0,0,1,78,3,8,hat           ,sport_tshirt,html/resources/sequences_IDs/A/08_hat.jpg,html/resources/sequences_IDs/B/07_sport_tshirt.jpg,8,7,3,2,3,2,7,6,0,18,,,,,,,,,,,,,,,,,,,,
,,,,,18,2020-07-01_09h34.21.966,retriever_ti,2020.1.3,Win32,60,Chrome,1536,864,,,,,,,,,,,,,,,,,2,,,,,,,,,,,,,,,,,,,,,,,,,,,792.49522,79,right,1.21725,hat           ,3,8,-3,0,3,792.512565,792.512565,795.009035,0,1,1,1,1,79,6,3,dolphin     ,hat           ,html/resources/sequences_IDs/B/02_dolphin.jpg,html/resources/sequences_IDs/A/08_hat.jpg,2,8,1,1,3,2,2,7,0,18,,,,,,,,,,,,,,,,,,,,
,,,,,18,2020-07-01_09h34.21.966,retriever_ti,2020.1.3,Win32,60,Chrome,1536,864,,,,,,,,,,,,,,,,,2,,,,,,,,,,,,,,,,,,,,,,,,,,,795.62624,80,left,1.27343,holdfast    ,2,4,1,1,1,795.643105,795.643105,798.13991,0,2,2,2,1,80,2,1,holdfast    ,camel         ,html/resources/sequences_IDs/B/04_holdfast.jpg,html/resources/sequences_IDs/A/03_camel.jpg,4,3,2,1,1,1,4,3,0,18,,,,,,,,,,,,,,,,,,,,
,,,,,18,2020-07-01_09h34.21.966,retriever_ti,2020.1.3,Win32,60,Chrome,1536,864,,,,,,,,,,,,,,,,,2,,,,,,,,,,,,,,,,,,,,,,,,,,,799.23897,81,left,1.43112,sport_tshirt,8,7,6,1,3,799.25971,799.25971,801.75295,0,3,3,3,1,81,8,2,sport_tshirt,holdfast    ,html/resources/sequences_IDs/B/07_sport_tshirt.jpg,html/resources/sequences_IDs/B/04_holdfast.jpg,7,4,3,2,2,1,6,4,0,18,,,,,,,,,,,,,,,,,,,,
,,,,,18,2020-07-01_09h34.21.966,retriever_ti,2020.1.3,Win32,60,Chrome,1536,864,,,,,,,,,,,,,,,,,2,,,,,,,,,,,,,,,,,,,,,,,,,,,802.37025,82,right,1.595785,sport_tshirt,8,7,6,1,3,802.403175,802.403175,804.900115,0,4,4,4,1,82,2,8,holdfast    ,sport_tshirt,html/resources/sequences_IDs/B/04_holdfast.jpg,html/resources/sequences_IDs/B/07_sport_tshirt.jpg,4,7,2,1,3,2,4,6,0,18,,,,,,,,,,,,,,,,,,,,
,,,,,18,2020-07-01_09h34.21.966,retriever_ti,2020.1.3,Win32,60,Chrome,1536,864,,,,,,,,,,,,,,,,,2,,,,,,,,,,,,,,,,,,,,,,,,,,,805.51642,83,left,1.643885,holdfast    ,2,4,1,1,1,805.533705,805.533705,808.030795,0,5,5,5,1,83,2,1,holdfast    ,camel         ,html/resources/sequences_IDs/B/04_holdfast.jpg,html/resources/sequences_IDs/A/03_camel.jpg,4,3,2,1,1,1,4,3,0,18,,,,,,,,,,,,,,,,,,,,
,,,,,18,2020-07-01_09h34.21.966,retriever_ti,2020.1.3,Win32,60,Chrome,1536,864,,,,,,,,,,,,,,,,,2,,,,,,,,,,,,,,,,,,,,,,,,,,,809.13083,84,right,1.540045,camel         ,1,3,-4,0,3,809.14676,809.14676,811.64413,0,6,6,6,1,84,5,1,wolf          ,camel         ,html/resources/sequences_IDs/A/01_wolf.jpg,html/resources/sequences_IDs/A/03_camel.jpg,1,3,1,1,1,1,1,3,0,18,,,,,,,,,,,,,,,,,,,,
,,,,,18,2020-07-01_09h34.21.966,retriever_ti,2020.1.3,Win32,60,Chrome,1536,864,,,,,,,,,,,,,,,,,2,,,,,,,,,,,,,,,,,,,,,,,,,,,812.26043,85,right,1.27249,calculator    ,7,9,1,1,1,812.294035,812.294035,814.791085,0,7,7,7,1,85,6,7,dolphin     ,calculator    ,html/resources/sequences_IDs/B/02_dolphin.jpg,html/resources/sequences_IDs/A/09_calculator.jpg,2,9,1,1,4,2,2,8,0,18,,,,,,,,,,,,,,,,,,,,
,,,,,18,2020-07-01_09h34.21.966,retriever_ti,2020.1.3,Win32,60,Chrome,1536,864,,,,,,,,,,,,,,,,,2,,,,,,,,,,,,,,,,,,,,,,,,,,,815.890275,86,left,1.43713,camel         ,1,3,-4,0,3,815.923905,815.923905,818.42113,0,8,8,8,1,86,1,5,camel         ,wolf          ,html/resources/sequences_IDs/A/03_camel.jpg,html/resources/sequences_IDs/A/01_wolf.jpg,3,1,1,1,1,1,3,1,0,18,,,,,,,,,,,,,,,,,,,,
,,,,,18,2020-07-01_09h34.21.966,retriever_ti,2020.1.3,Win32,60,Chrome,1536,864,,,,,,,,,,,,,,,,,2,,,,,,,,,,,,,,,,,,,,,,,,,,,819.037065,87,right,0.92087,calculator    ,7,9,2,1,3,819.071385,819.071385,821.56787,0,9,9,9,1,87,5,7,wolf          ,calculator    ,html/resources/sequences_IDs/A/01_wolf.jpg,html/resources/sequences_IDs/A/09_calculator.jpg,1,9,1,1,4,2,1,8,0,18,,,,,,,,,,,,,,,,,,,,
,,,,,18,2020-07-01_09h34.21.966,retriever_ti,2020.1.3,Win32,60,Chrome,1536,864,,,,,,,,,,,,,,,,,2,,,,,,,,,,,,,,,,,,,,,,,,,,,822.185135,88,right,1.91385,dolphin     ,6,2,1,1,1,822.20132,822.20132,824.69821,0,10,10,10,1,88,5,6,wolf          ,dolphin     ,html/resources/sequences_IDs/A/01_wolf.jpg,html/resources/sequences_IDs/B/02_dolphin.jpg,1,2,1,1,1,1,1,2,0,18,,,,,,,,,,,,,,,,,,,,
,,,,,18,2020-07-01_09h34.21.966,retriever_ti,2020.1.3,Win32,60,Chrome,1536,864,,,,,,,,,,,,,,,,,2,,,,,,,,,,,,,,,,,,,,,,,,,,,825.797505,89,right,1.493585,hat           ,3,8,1,1,1,825.831905,825.831905,828.328485,0,11,11,11,1,89,2,3,holdfast    ,hat           ,html/resources/sequences_IDs/B/04_holdfast.jpg,html/resources/sequences_IDs/A/08_hat.jpg,4,8,2,1,3,2,4,7,0,18,,,,,,,,,,,,,,,,,,,,
,,,,,18,2020-07-01_09h34.21.966,retriever_ti,2020.1.3,Win32,60,Chrome,1536,864,,,,,,,,,,,,,,,,,2,,,,,,,,,,,,,,,,,,,,,,,,,,,829.42888,90,left,1.662505,dolphin     ,6,2,1,1,1,829.46115,829.46115,831.95861,0,12,12,12,1,90,6,5,dolphin     ,wolf          ,html/resources/sequences_IDs/B/02_dolphin.jpg,html/resources/sequences_IDs/A/01_wolf.jpg,2,1,1,1,1,1,2,1,0,18,,,,,,,,,,,,,,,,,,,,
,,,,,18,2020-07-01_09h34.21.966,retriever_ti,2020.1.3,Win32,60,Chrome,1536,864,,,,,,,,,,,,,,,,,2,,,,,,,,,,,,,,,,,,,,,,,,,,,833.05733,91,right,1.32547,calculator    ,7,9,6,1,3,833.09146,833.09146,835.58797,0,13,13,13,1,91,1,7,camel         ,calculator    ,html/resources/sequences_IDs/A/03_camel.jpg,html/resources/sequences_IDs/A/09_calculator.jpg,3,9,1,1,4,2,3,8,0,18,,,,,,,,,,,,,,,,,,,,
,,,,,18,2020-07-01_09h34.21.966,retriever_ti,2020.1.3,Win32,60,Chrome,1536,864,,,,,,,,,,,,,,,,,2,,,,,,,,,,,,,,,,,,,,,,,,,,,836.20515,92,right,1.466585,holdfast    ,2,4,1,1,1,836.22215,836.22215,838.718405,0,14,14,14,1,92,1,2,camel         ,holdfast    ,html/resources/sequences_IDs/A/03_camel.jpg,html/resources/sequences_IDs/B/04_holdfast.jpg,3,4,1,1,2,1,3,4,0,18,,,,,,,,,,,,,,,,,,,,
,,,,,18,2020-07-01_09h34.21.966,retriever_ti,2020.1.3,Win32,60,Chrome,1536,864,,,,,,,,,,,,,,,,,2,,,,,,,,,,,,,,,,,,,,,,,,,,,839.817805,93,left,1.22936,sport_tshirt,8,7,5,1,3,839.851895,839.851895,842.34855,0,15,15,15,1,93,8,3,sport_tshirt,hat           ,html/resources/sequences_IDs/B/07_sport_tshirt.jpg,html/resources/sequences_IDs/A/08_hat.jpg,7,8,3,2,3,2,6,7,0,18,,,,,,,,,,,,,,,,,,,,
,,,,,18,2020-07-01_09h34.21.966,retriever_ti,2020.1.3,Win32,60,Chrome,1536,864,,,,,,,,,,,,,,,,,2,,,,,,,,,,,,,,,,,,,,,,,,,,,842.96726,94,left,1.60606,gloves      ,4,6,-1,0,0,842.999045,842.999045,845.49551,0,16,16,16,1,94,4,5,gloves      ,wolf          ,html/resources/sequences_IDs/B/06_gloves.jpg,html/resources/sequences_IDs/A/01_wolf.jpg,6,1,3,2,1,1,5,1,0,18,,,,,,,,,,,,,,,,,,,,
,,,,,18,2020-07-01_09h34.21.966,retriever_ti,2020.1.3,Win32,60,Chrome,1536,864,,,,,,,,,,,,,,,,,2,,,,,,,,,,,,,,,,,,,,,,,,,,,846.594865,95,left,1.77648,calculator    ,7,9,6,1,3,846.612335,846.612335,849.10902,0,17,17,17,1,95,7,1,calculator    ,camel         ,html/resources/sequences_IDs/A/09_calculator.jpg,html/resources/sequences_IDs/A/03_camel.jpg,9,3,4,2,1,1,8,3,0,18,,,,,,,,,,,,,,,,,,,,
,,,,,18,2020-07-01_09h34.21.966,retriever_ti,2020.1.3,Win32,60,Chrome,1536,864,,,,,,,,,,,,,,,,,2,,,,,,,,,,,,,,,,,,,,,,,,,,,849.725835,96,left,1.8176,calculator    ,7,9,3,1,3,849.742105,849.742105,852.23922,0,18,18,18,1,96,7,4,calculator    ,gloves      ,html/resources/sequences_IDs/A/09_calculator.jpg,html/resources/sequences_IDs/B/06_gloves.jpg,9,6,4,2,3,2,8,5,0,18,,,,,,,,,,,,,,,,,,,,
,,,,,18,2020-07-01_09h34.21.966,retriever_ti,2020.1.3,Win32,60,Chrome,1536,864,,,,,,,,,,,,,,,,,2,,,,,,,,,,,,,,,,,,,,,,,,,,,852.85584,97,left,1.505095,camel         ,1,3,-5,0,3,852.87278,852.87278,855.3696,0,19,19,19,1,97,1,6,camel         ,dolphin     ,html/resources/sequences_IDs/A/03_camel.jpg,html/resources/sequences_IDs/B/02_dolphin.jpg,3,2,1,1,1,1,3,2,0,18,,,,,,,,,,,,,,,,,,,,
,,,,,18,2020-07-01_09h34.21.966,retriever_ti,2020.1.3,Win32,60,Chrome,1536,864,,,,,,,,,,,,,,,,,2,,,,,,,,,,,,,,,,,,,,,,,,,,,855.98648,98,left,1.08905,calculator    ,7,9,1,1,1,856.01978,856.01978,858.516795,0,20,20,20,1,98,7,6,calculator    ,dolphin     ,html/resources/sequences_IDs/A/09_calculator.jpg,html/resources/sequences_IDs/B/02_dolphin.jpg,9,2,4,2,1,1,8,2,0,18,,,,,,,,,,,,,,,,,,,,
,,,,,18,2020-07-01_09h34.21.966,retriever_ti,2020.1.3,Win32,60,Chrome,1536,864,,,,,,,,,,,,,,,,,2,,,,,,,,,,,,,,,,,,,,,,,,,,,859.616115,99,left,2.095775,calculator    ,7,9,5,1,3,859.633565,859.633565,862.13024,0,21,21,21,1,99,7,2,calculator    ,holdfast    ,html/resources/sequences_IDs/A/09_calculator.jpg,html/resources/sequences_IDs/B/04_holdfast.jpg,9,4,4,2,2,1,8,4,0,18,,,,,,,,,,,,,,,,,,,,
,,,,,18,2020-07-01_09h34.21.966,retriever_ti,2020.1.3,Win32,60,Chrome,1536,864,,,,,,,,,,,,,,,,,2,,,,,,,,,,,,,,,,,,,,,,,,,,,862.746975,100,right,1.6339,sport_tshirt,8,7,2,1,3,862.780475,862.780475,865.276915,0,22,22,22,1,100,6,8,dolphin     ,sport_tshirt,html/resources/sequences_IDs/B/02_dolphin.jpg,html/resources/sequences_IDs/B/07_sport_tshirt.jpg,2,7,1,1,3,2,2,6,0,18,,,,,,,,,,,,,,,,,,,,
,,,,,18,2020-07-01_09h34.21.966,retriever_ti,2020.1.3,Win32,60,Chrome,1536,864,,,,,,,,,,,,,,,,,2,,,,,,,,,,,,,,,,,,,,,,,,,,,865.89369,101,right,1.558195,calculator    ,7,9,3,1,3,865.92699,865.92699,868.42395,0,23,23,23,1,101,4,7,gloves      ,calculator    ,html/resources/sequences_IDs/B/06_gloves.jpg,html/resources/sequences_IDs/A/09_calculator.jpg,6,9,3,2,4,2,5,8,0,18,,,,,,,,,,,,,,,,,,,,
,,,,,18,2020-07-01_09h34.21.966,retriever_ti,2020.1.3,Win32,60,Chrome,1536,864,,,,,,,,,,,,,,,,,2,,,,,,,,,,,,,,,,,,,,,,,,,,,869.041,102,right,1.172855,camel         ,1,3,-5,0,3,869.05769,869.05769,871.55485,0,24,24,24,1,102,6,1,dolphin     ,camel         ,html/resources/sequences_IDs/B/02_dolphin.jpg,html/resources/sequences_IDs/A/03_camel.jpg,2,3,1,1,1,1,2,3,0,18,,,,,,,,,,,,,,,,,,,,
,,,,,18,2020-07-01_09h34.21.966,retriever_ti,2020.1.3,Win32,60,Chrome,1536,864,,,,,,,,,,,,,,,,,2,,,,,,,,,,,,,,,,,,,,,,,,,,,872.17078,103,left,1.820225,holdfast    ,2,4,-5,0,3,872.20445,872.20445,874.70174,0,25,25,25,1,103,2,7,holdfast    ,calculator    ,html/resources/sequences_IDs/B/04_holdfast.jpg,html/resources/sequences_IDs/A/09_calculator.jpg,4,9,2,1,4,2,4,8,0,18,,,,,,,,,,,,,,,,,,,,
,,,,,18,2020-07-01_09h34.21.966,retriever_ti,2020.1.3,Win32,60,Chrome,1536,864,,,,,,,,,,,,,,,,,2,,,,,,,,,,,,,,,,,,,,,,,,,,,875.318575,104,right,1.619455,sport_tshirt,8,7,1,1,1,875.33498,875.33498,877.8323,0,26,26,26,1,104,7,8,calculator    ,sport_tshirt,html/resources/sequences_IDs/A/09_calculator.jpg,html/resources/sequences_IDs/B/07_sport_tshirt.jpg,9,7,4,2,3,2,8,6,0,18,,,,,,,,,,,,,,,,,,,,
,,,,,18,2020-07-01_09h34.21.966,retriever_ti,2020.1.3,Win32,60,Chrome,1536,864,,,,,,,,,,,,,,,,,2,,,,,,,,,,,,,,,,,,,,,,,,,,,878.93161,105,right,1.66054,holdfast    ,2,4,-3,0,3,878.965155,878.965155,881.46182,0,27,27,27,1,105,5,2,wolf          ,holdfast    ,html/resources/sequences_IDs/A/01_wolf.jpg,html/resources/sequences_IDs/B/04_holdfast.jpg,1,4,1,1,2,1,1,4,0,18,,,,,,,,,,,,,,,,,,,,
,,,,,18,2020-07-01_09h34.21.966,retriever_ti,2020.1.3,Win32,60,Chrome,1536,864,,,,,,,,,,,,,,,,,2,,,,,,,,,,,,,,,,,,,,,,,,,,,882.079005,106,left,1.029585,sport_tshirt,8,7,7,1,3,882.09526,882.09526,884.592605,0,28,28,28,1,106,8,1,sport_tshirt,camel         ,html/resources/sequences_IDs/B/07_sport_tshirt.jpg,html/resources/sequences_IDs/A/03_camel.jpg,7,3,3,2,1,1,6,3,0,18,,,,,,,,,,,,,,,,,,,,
,,,,,18,2020-07-01_09h34.21.966,retriever_ti,2020.1.3,Win32,60,Chrome,1536,864,,,,,,,,,,,,,,,,,2,,,,,,,,,,,,,,,,,,,,,,,,,,,885.208615,107,left,1.63649,calculator    ,7,9,4,1,3,885.22599,885.22599,887.72303,0,29,29,29,1,107,7,3,calculator    ,hat           ,html/resources/sequences_IDs/A/09_calculator.jpg,html/resources/sequences_IDs/A/08_hat.jpg,9,8,4,2,3,2,8,7,0,18,,,,,,,,,,,,,,,,,,,,
,,,,,18,2020-07-01_09h34.21.966,retriever_ti,2020.1.3,Win32,60,Chrome,1536,864,,,,,,,,,,,,,,,,,2,,,,,,,,,,,,,,,,,,,,,,,,,,,888.339395,108,left,1.24227,holdfast    ,2,4,-3,0,3,888.356375,888.356375,890.853165,0,30,30,30,1,108,2,5,holdfast    ,wolf          ,html/resources/sequences_IDs/B/04_holdfast.jpg,html/resources/sequences_IDs/A/01_wolf.jpg,4,1,2,1,1,1,4,1,0,18,,,,,,,,,,,,,,,,,,,,
,,,,,18,2020-07-01_09h34.21.966,retriever_ti,2020.1.3,Win32,60,Chrome,1536,864,,,,,,,,,,,,,,,,,2,,,,,,,,,,,,,,,,,,,,,,,,,,,891.469385,109,left,1.05448,holdfast    ,2,4,-4,0,3,891.503355,891.503355,894.00037,0,31,31,31,1,109,2,6,holdfast    ,dolphin     ,html/resources/sequences_IDs/B/04_holdfast.jpg,html/resources/sequences_IDs/B/02_dolphin.jpg,4,2,2,1,1,1,4,2,0,18,,,,,,,,,,,,,,,,,,,,
,,,,,18,2020-07-01_09h34.21.966,retriever_ti,2020.1.3,Win32,60,Chrome,1536,864,,,,,,,,,,,,,,,,,2,,,,,,,,,,,,,,,,,,,,,,,,,,,894.61759,110,right,1.1468,calculator    ,7,9,1,1,1,894.650665,894.650665,897.147485,0,32,32,32,1,110,6,7,dolphin     ,calculator    ,html/resources/sequences_IDs/B/02_dolphin.jpg,html/resources/sequences_IDs/A/09_calculator.jpg,2,9,1,1,4,2,2,8,0,18,,,,,,,,,,,,,,,,,,,,
,,,,,18,2020-07-01_09h34.21.966,retriever_ti,2020.1.3,Win32,60,Chrome,1536,864,,,,,,,,,,,,,,,,,2,,,,,,,,,,,,,,,,,,,,,,,,,,,898.24704,111,right,1.718345,sport_tshirt,8,7,1,1,0,898.26419,898.26419,900.76092,0,33,33,33,1,111,7,8,calculator    ,sport_tshirt,html/resources/sequences_IDs/A/09_calculator.jpg,html/resources/sequences_IDs/B/07_sport_tshirt.jpg,9,7,4,2,3,2,8,6,1,18,,,,,,,,,,,,,,,,,,,,
,,,,,18,2020-07-01_09h34.21.966,retriever_ti,2020.1.3,Win32,60,Chrome,1536,864,,,,,,,,,,,,,,,,,2,,,,,,,,,,,,,,,,,,,,,,,,,,,901.860405,112,left,1.8269,calculator    ,7,9,2,1,3,901.89379,901.89379,904.39062,0,34,34,34,1,112,7,5,calculator    ,wolf          ,html/resources/sequences_IDs/A/09_calculator.jpg,html/resources/sequences_IDs/A/01_wolf.jpg,9,1,4,2,1,1,8,1,0,18,,,,,,,,,,,,,,,,,,,,
,,,,,18,2020-07-01_09h34.21.966,retriever_ti,2020.1.3,Win32,60,Chrome,1536,864,,,,,,,,,,,,,,,,,2,,,,,,,,,,,,,,,,,,,,,,,,,,,905.006915,113,left,1.453095,gloves      ,4,6,-2,0,3,905.02411,905.02411,907.52085,0,35,35,35,1,113,4,6,gloves      ,dolphin     ,html/resources/sequences_IDs/B/06_gloves.jpg,html/resources/sequences_IDs/B/02_dolphin.jpg,6,2,3,2,1,1,5,2,0,18,,,,,,,,,,,,,,,,,,,,
,,,,,18,2020-07-01_09h34.21.966,retriever_ti,2020.1.3,Win32,60,Chrome,1536,864,,,,,,,,,,,,,,,,,2,,,,,,,,,,,,,,,,,,,,,,,,,,,908.1402,114,left,1.14786,hat           ,3,8,-2,0,3,908.170915,908.170915,910.66814,0,36,36,36,1,114,3,5,hat           ,wolf          ,html/resources/sequences_IDs/A/08_hat.jpg,html/resources/sequences_IDs/A/01_wolf.jpg,8,1,3,2,1,1,7,1,0,18,,,,,,,,,,,,,,,,,,,,
,,,,,18,2020-07-01_09h34.21.966,retriever_ti,2020.1.3,Win32,60,Chrome,1536,864,,,,,,,,,,,,,,,,,2,,,,,,,,,,,,,,,,,,,,,,,,,,,911.28476,115,left,1.849915,sport_tshirt,8,7,1,1,1,911.318245,911.318245,913.814985,0,37,37,37,1,115,8,7,sport_tshirt,calculator    ,html/resources/sequences_IDs/B/07_sport_tshirt.jpg,html/resources/sequences_IDs/A/09_calculator.jpg,7,9,3,2,4,2,6,8,0,18,,,,,,,,,,,,,,,,,,,,
,,,,,18,2020-07-01_09h34.21.966,retriever_ti,2020.1.3,Win32,60,Chrome,1536,864,,,,,,,,,,,,,,,,,2,,,,,,,,,,,,,,,,,,,,,,,,,,,914.91486,116,left,1.38666,hat           ,3,8,2,1,3,914.93139,914.93139,917.428415,0,38,38,38,1,116,3,1,hat           ,camel         ,html/resources/sequences_IDs/A/08_hat.jpg,html/resources/sequences_IDs/A/03_camel.jpg,8,3,3,2,1,1,7,3,0,18,,,,,,,,,,,,,,,,,,,,
,,,,,18,2020-07-01_09h34.21.966,retriever_ti,2020.1.3,Win32,60,Chrome,1536,864,,,,,,,,,,,,,,,,,2,,,,,,,,,,,,,,,,,,,,,,,,,,,918.044855,117,left,1.13904,sport_tshirt,8,7,3,1,3,918.07867,918.07867,920.57567,0,39,39,39,1,117,8,5,sport_tshirt,wolf          ,html/resources/sequences_IDs/B/07_sport_tshirt.jpg,html/resources/sequences_IDs/A/01_wolf.jpg,7,1,3,2,1,1,6,1,0,18,,,,,,,,,,,,,,,,,,,,
,,,,,18,2020-07-01_09h34.21.966,retriever_ti,2020.1.3,Win32,60,Chrome,1536,864,,,,,,,,,,,,,,,,,2,,,,,,,,,,,,,,,,,,,,,,,,,,,921.192695,118,right,1.85017,hat           ,3,8,2,1,3,921.225675,921.225675,923.72266,0,40,40,40,1,118,1,3,camel         ,hat           ,html/resources/sequences_IDs/A/03_camel.jpg,html/resources/sequences_IDs/A/08_hat.jpg,3,8,1,1,3,2,3,7,0,18,,,,,,,,,,,,,,,,,,,,
,,,,,18,2020-07-01_09h34.21.966,retriever_ti,2020.1.3,Win32,60,Chrome,1536,864,,,,,,,,,,,,,,,,,2,,,,,,,,,,,,,,,,,,,,,,,,,,,924.33897,119,left,1.023765,hat           ,3,8,-3,0,3,924.35646,924.35646,926.85324,0,41,41,41,1,119,3,6,hat           ,dolphin     ,html/resources/sequences_IDs/A/08_hat.jpg,html/resources/sequences_IDs/B/02_dolphin.jpg,8,2,3,2,1,1,7,2,0,18,,,,,,,,,,,,,,,,,,,,
,,,,,18,2020-07-01_09h34.21.966,retriever_ti,2020.1.3,Win32,60,Chrome,1536,864,,,,,,,,,,,,,,,,,2,,,,,,,,,,,,,,,,,,,,,,,,,,,927.46967,120,right,1.224415,gloves      ,4,6,-1,0,0,927.50394,927.50394,930.000005,0,42,42,42,1,120,5,4,wolf          ,gloves      ,html/resources/sequences_IDs/A/01_wolf.jpg,html/resources/sequences_IDs/B/06_gloves.jpg,1,6,1,1,3,2,1,5,0,18,,,,,,,,,,,,,,,,,,,,
,,,,,18,2020-07-01_09h34.21.966,retriever_ti,2020.1.3,Win32,60,Chrome,1536,864,,,,,,,,,,,,,,,,,2,,,,,,,,,,,,,,,,,,,,,,,,,,,931.09946,121,right,1.658215,sport_tshirt,8,7,3,1,3,931.11649,931.11649,933.613305,0,43,43,43,1,121,5,8,wolf          ,sport_tshirt,html/resources/sequences_IDs/A/01_wolf.jpg,html/resources/sequences_IDs/B/07_sport_tshirt.jpg,1,7,1,1,3,2,1,6,0,18,,,,,,,,,,,,,,,,,,,,
,,,,,18,2020-07-01_09h34.21.966,retriever_ti,2020.1.3,Win32,60,Chrome,1536,864,,,,,,,,,,,,,,,,,2,,,,,,,,,,,,,,,,,,,,,,,,,,,934.23062,122,left,1.34561,hat           ,3,8,1,1,0,934.24658,934.24658,936.74371,0,44,44,44,1,122,3,2,hat           ,holdfast    ,html/resources/sequences_IDs/A/08_hat.jpg,html/resources/sequences_IDs/B/04_holdfast.jpg,8,4,3,2,2,1,7,4,1,18,,,,,,,,,,,,,,,,,,,,
,,,,,18,2020-07-01_09h34.21.966,retriever_ti,2020.1.3,Win32,60,Chrome,1536,864,,,,,,,,,,,,,,,,,2,,,,,,,,,,,,,,,,,,,,,,,,,,,937.84321,123,right,1.393415,hat           ,3,8,-1,0,0,937.859975,937.859975,940.357105,0,45,45,45,1,123,4,3,gloves      ,hat           ,html/resources/sequences_IDs/B/06_gloves.jpg,html/resources/sequences_IDs/A/08_hat.jpg,6,8,3,2,3,2,5,7,0,18,,,,,,,,,,,,,,,,,,,,
,,,,,18,2020-07-01_09h34.21.966,retriever_ti,2020.1.3,Win32,60,Chrome,1536,864,,,,,,,,,,,,,,,,,2,,,,,,,,,,,,,,,,,,,,,,,,,,,941.456795,124,left,1.844865,calculator    ,7,9,1,1,0,941.490175,941.490175,943.98682,0,46,46,46,1,124,7,6,calculator    ,dolphin     ,html/resources/sequences_IDs/A/09_calculator.jpg,html/resources/sequences_IDs/B/02_dolphin.jpg,9,2,4,2,1,1,8,2,1,18,,,,,,,,,,,,,,,,,,,,
,,,,,18,2020-07-01_09h34.21.966,retriever_ti,2020.1.3,Win32,60,Chrome,1536,864,,,,,,,,,,,,,,,,,2,,,,,,,,,,,,,,,,,,,,,,,,,,,945.0865,125,left,1.4065,calculator    ,7,9,1,1,1,945.103215,945.103215,947.600215,0,47,47,47,1,125,7,6,calculator    ,dolphin     ,html/resources/sequences_IDs/A/09_calculator.jpg,html/resources/sequences_IDs/B/02_dolphin.jpg,9,2,4,2,1,1,8,2,0,18,,,,,,,,,,,,,,,,,,,,
,,,,,18,2020-07-01_09h34.21.966,retriever_ti,2020.1.3,Win32,60,Chrome,1536,864,,,,,,,,,,,,,,,,,2,,,,,,,,,,,,,,,,,,,,,,,,,,,948.70054,126,right,1.604595,holdfast    ,2,4,-1,0,0,948.716385,948.716385,951.213585,0,48,48,48,1,126,3,2,hat           ,holdfast    ,html/resources/sequences_IDs/A/08_hat.jpg,html/resources/sequences_IDs/B/04_holdfast.jpg,8,4,3,2,2,1,7,4,0,18,,,,,,,,,,,,,,,,,,,,
,,,,,18,2020-07-01_09h34.21.966,retriever_ti,2020.1.3,Win32,60,Chrome,1536,864,,,,,,,,,,,,,,,,,2,,,,,,,,,,,,,,,,,,,,,,,,,,,952.31268,127,left,1.31108,hat           ,3,8,-1,0,0,952.347015,952.347015,954.84333,0,49,49,49,1,127,3,4,hat           ,gloves      ,html/resources/sequences_IDs/A/08_hat.jpg,html/resources/sequences_IDs/B/06_gloves.jpg,8,6,3,2,3,2,7,5,0,18,,,,,,,,,,,,,,,,,,,,
,,,,,18,2020-07-01_09h34.21.966,retriever_ti,2020.1.3,Win32,60,Chrome,1536,864,,,,,,,,,,,,,,,,,2,,,,,,,,,,,,,,,,,,,,,,,,,,,955.943325,128,left,1.789005,dolphin     ,6,2,1,1,1,955.9764,955.9764,958.47352,0,50,50,50,1,128,6,5,dolphin     ,wolf          ,html/resources/sequences_IDs/B/02_dolphin.jpg,html/resources/sequences_IDs/A/01_wolf.jpg,2,1,1,1,1,1,2,1,0,18,,,,,,,,,,,,,,,,,,,,
,,,,,18,2020-07-01_09h34.21.966,retriever_ti,2020.1.3,Win32,60,Chrome,1536,864,,,,,,,,,,,,,,,,,2,,,,,,,,,,,,,,,,,,,,,,,,,,,959.572945,129,right,1.56748,gloves      ,4,6,-2,0,3,959.58998,959.58998,962.08653,0,51,51,51,1,129,6,4,dolphin     ,gloves      ,html/resources/sequences_IDs/B/02_dolphin.jpg,html/resources/sequences_IDs/B/06_gloves.jpg,2,6,1,1,3,2,2,5,0,18,,,,,,,,,,,,,,,,,,,,
,,,,,18,2020-07-01_09h34.21.966,retriever_ti,2020.1.3,Win32,60,Chrome,1536,864,,,,,,,,,,,,,,,,,2,,,,,,,,,,,,,,,,,,,,,,,,,,,962.703855,130,left,1.767615,hat           ,3,8,1,1,1,962.736825,962.736825,965.233595,0,52,52,52,1,130,3,2,hat           ,holdfast    ,html/resources/sequences_IDs/A/08_hat.jpg,html/resources/sequences_IDs/B/04_holdfast.jpg,8,4,3,2,2,1,7,4,0,18,,,,,,,,,,,,,,,,,,,,
,,,,,18,2020-07-01_09h34.21.966,retriever_ti,2020.1.3,Win32,60,Chrome,1536,864,,,,,,,,,,,,,,,,,2,,,,,,,,,,,,,,,,,,,,,,,,,,,966.33321,131,left,1.15149,sport_tshirt,8,7,4,1,3,966.366815,966.366815,968.863765,0,53,53,53,1,131,8,4,sport_tshirt,gloves      ,html/resources/sequences_IDs/B/07_sport_tshirt.jpg,html/resources/sequences_IDs/B/06_gloves.jpg,7,6,3,2,3,2,6,5,0,18,,,,,,,,,,,,,,,,,,,,
,,,,,18,2020-07-01_09h34.21.966,retriever_ti,2020.1.3,Win32,60,Chrome,1536,864,,,,,,,,,,,,,,,,,2,,,,,,,,,,,,,,,,,,,,,,,,,,,969.48069,132,left,1.024295,gloves      ,4,6,-1,0,0,969.4972,969.4972,971.994325,0,54,54,54,1,132,4,5,gloves      ,wolf          ,html/resources/sequences_IDs/B/06_gloves.jpg,html/resources/sequences_IDs/A/01_wolf.jpg,6,1,3,2,1,1,5,1,0,18,,,,,,,,,,,,,,,,,,,,
,,,,,18,2020-07-01_09h34.21.966,retriever_ti,2020.1.3,Win32,60,Chrome,1536,864,,,,,,,,,,,,,,,,,2,,,,,,,,,,,,,,,,,,,,,,,,,,,973.09375,133,right,0.923605,holdfast    ,2,4,1,1,1,973.110295,973.110295,975.607245,0,55,55,55,1,133,1,2,camel         ,holdfast    ,html/resources/sequences_IDs/A/03_camel.jpg,html/resources/sequences_IDs/B/04_holdfast.jpg,3,4,1,1,2,1,3,4,0,18,,,,,,,,,,,,,,,,,,,,
,,,,,18,2020-07-01_09h34.21.966,retriever_ti,2020.1.3,Win32,60,Chrome,1536,864,,,,,,,,,,,,,,,,,2,,,,,,,,,,,,,,,,,,,,,,,,,,,976.707675,134,left,1.521315,hat           ,3,8,-4,0,3,976.72386,976.72386,979.22077,0,56,56,56,1,134,3,7,hat           ,calculator    ,html/resources/sequences_IDs/A/08_hat.jpg,html/resources/sequences_IDs/A/09_calculator.jpg,8,9,3,2,4,2,7,8,0,18,,,,,,,,,,,,,,,,,,,,
,,,,,18,2020-07-01_09h34.21.966,retriever_ti,2020.1.3,Win32,60,Chrome,1536,864,,,,,,,,,,,,,,,,,2,,,,,,,,,,,,,,,,,,,,,,,,,,,979.83755,135,left,1.47467,sport_tshirt,8,7,1,1,1,979.85401,979.85401,982.351495,0,57,57,57,1,135,8,7,sport_tshirt,calculator    ,html/resources/sequences_IDs/B/07_sport_tshirt.jpg,html/resources/sequences_IDs/A/09_calculator.jpg,7,9,3,2,4,2,6,8,0,18,,,,,,,,,,,,,,,,,,,,
,,,,,18,2020-07-01_09h34.21.966,retriever_ti,2020.1.3,Win32,60,Chrome,1536,864,,,,,,,,,,,,,,,,,2,,,,,,,,,,,,,,,,,,,,,,,,,,,983.45083,136,right,1.33368,hat           ,3,8,-2,0,3,983.467375,983.467375,985.964555,0,58,58,58,1,136,5,3,wolf          ,hat           ,html/resources/sequences_IDs/A/01_wolf.jpg,html/resources/sequences_IDs/A/08_hat.jpg,1,8,1,1,3,2,1,7,0,18,,,,,,,,,,,,,,,,,,,,
,,,,,18,2020-07-01_09h34.21.966,retriever_ti,2020.1.3,Win32,60,Chrome,1536,864,,,,,,,,,,,,,,,,,2,,,,,,,,,,,,,,,,,,,,,,,,,,,986.58094,137,right,1.10021,gloves      ,4,6,-1,0,0,986.61459,986.61459,989.11167,0,59,59,59,1,137,5,4,wolf          ,gloves      ,html/resources/sequences_IDs/A/01_wolf.jpg,html/resources/sequences_IDs/B/06_gloves.jpg,1,6,1,1,3,2,1,5,0,18,,,,,,,,,,,,,,,,,,,,
,,,,,18,2020-07-01_09h34.21.966,retriever_ti,2020.1.3,Win32,60,Chrome,1536,864,,,,,,,,,,,,,,,,,2,,,,,,,,,,,,,,,,,,,,,,,,,,,990.21174,138,right,1.89121,camel         ,1,3,-3,0,3,990.228125,990.228125,992.724685,0,60,60,60,1,138,4,1,gloves      ,camel         ,html/resources/sequences_IDs/B/06_gloves.jpg,html/resources/sequences_IDs/A/03_camel.jpg,6,3,3,2,1,1,5,3,0,18,,,,,,,,,,,,,,,,,,,,
,,,,,18,2020-07-01_09h34.21.966,retriever_ti,2020.1.3,Win32,60,Chrome,1536,864,,,,,,,,,,,,,,,,,2,,,,,,,,,,,,,,,,,,,,,,,,,,,993.34124,139,left,1.434195,camel         ,1,3,-3,0,3,993.358645,993.358645,995.855305,0,61,61,61,1,139,1,4,camel         ,gloves      ,html/resources/sequences_IDs/A/03_camel.jpg,html/resources/sequences_IDs/B/06_gloves.jpg,3,6,1,1,3,2,3,5,0,18,,,,,,,,,,,,,,,,,,,,
,,,,,18,2020-07-01_09h34.21.966,retriever_ti,2020.1.3,Win32,60,Chrome,1536,864,,,,,,,,,,,,,,,,,2,,,,,,,,,,,,,,,,,,,,,,,,,,,996.47191,140,right,0.874485,sport_tshirt,8,7,4,1,3,996.505175,996.505175,999.002265,0,62,62,62,1,140,4,8,gloves      ,sport_tshirt,html/resources/sequences_IDs/B/06_gloves.jpg,html/resources/sequences_IDs/B/07_sport_tshirt.jpg,6,7,3,2,3,2,5,6,0,18,,,,,,,,,,,,,,,,,,,,
,,,,,18,2020-07-01_09h34.21.966,retriever_ti,2020.1.3,Win32,60,Chrome,1536,864,,,,,,,,,,,,,,,,,2,,,,,,,,,,,,,,,,,,,,,,,,,,,999.61896,141,left,1.25151,holdfast    ,2,4,-1,0,0,999.63557,999.63557,1002.132825,0,63,63,63,1,141,2,3,holdfast    ,hat           ,html/resources/sequences_IDs/B/04_holdfast.jpg,html/resources/sequences_IDs/A/08_hat.jpg,4,8,2,1,3,2,4,7,0,18,,,,,,,,,,,,,,,,,,,,
,,,,,18,2020-07-01_09h34.21.966,retriever_ti,2020.1.3,Win32,60,Chrome,1536,864,,,,,,,,,,,,,,,,,2,,,,,,,,,,,,,,,,,,,,,,,,,,,1003.232885,142,right,1.41245,holdfast    ,2,4,-4,0,3,1003.24895,1003.24895,1005.745875,0,64,64,64,1,142,6,2,dolphin     ,holdfast    ,html/resources/sequences_IDs/B/02_dolphin.jpg,html/resources/sequences_IDs/B/04_holdfast.jpg,2,4,1,1,2,1,2,4,0,18,,,,,,,,,,,,,,,,,,,,
,,,,,18,2020-07-01_09h34.21.966,retriever_ti,2020.1.3,Win32,60,Chrome,1536,864,,,,,,,,,,,,,,,,,2,,,,,,,,,,,,,,,,,,,,,,,,,,,1006.3623,143,left,1.789045,holdfast    ,2,4,-2,0,3,1006.37968,1006.37968,1008.87654,0,65,65,65,1,143,2,4,holdfast    ,gloves      ,html/resources/sequences_IDs/B/04_holdfast.jpg,html/resources/sequences_IDs/B/06_gloves.jpg,4,6,2,1,3,2,4,5,0,18,,,,,,,,,,,,,,,,,,,,
,,,,,18,2020-07-01_09h34.21.966,retriever_ti,2020.1.3,Win32,60,Chrome,1536,864,,,,,,,,,,,,,,,,,2,,,,,,,,,,,,,,,,,,,,,,,,,,,1009.493435,144,left,1.71377,hat           ,3,8,-1,0,1,1009.50975,1009.50975,1012.00694,0,66,66,66,1,144,3,4,hat           ,gloves      ,html/resources/sequences_IDs/A/08_hat.jpg,html/resources/sequences_IDs/B/06_gloves.jpg,8,6,3,2,3,2,7,5,1,18,,,,,,,,,,,,,,,,,,,,
,,,,,18,2020-07-01_09h34.21.966,retriever_ti,2020.1.3,Win32,60,Chrome,1536,864,,,,,,,,,,,,,,,,,2,,,,,,,,,,,,,,,,,,,,,,,,,,,1013.106015,145,left,0.95389,holdfast    ,2,4,1,1,0,1013.1403,1013.1403,1015.63663,0,67,67,67,1,145,2,1,holdfast    ,camel         ,html/resources/sequences_IDs/B/04_holdfast.jpg,html/resources/sequences_IDs/A/03_camel.jpg,4,3,2,1,1,1,4,3,1,18,,,,,,,,,,,,,,,,,,,,
,,,,,18,2020-07-01_09h34.21.966,retriever_ti,2020.1.3,Win32,60,Chrome,1536,864,,,,,,,,,,,,,,,,,2,,,,,,,,,,,,,,,,,,,,,,,,,,,1016.736895,146,left,1.637895,dolphin     ,6,2,1,1,0,1016.76959,1016.76959,1019.26673,0,68,68,68,1,146,6,5,dolphin     ,wolf          ,html/resources/sequences_IDs/B/02_dolphin.jpg,html/resources/sequences_IDs/A/01_wolf.jpg,2,1,1,1,1,1,2,1,1,18,,,,,,,,,,,,,,,,,,,,
,,,,,18,2020-07-01_09h34.21.966,retriever_ti,2020.1.3,Win32,60,Chrome,1536,864,,,,,,,,,,,,,,,,,2,,,,,,,,,,,,,,,,,,,,,,,,,,,1020.365885,147,left,1.21427,gloves      ,4,6,-1,0,1,1020.399605,1020.399605,1022.89652,0,69,69,69,1,147,4,5,gloves      ,wolf          ,html/resources/sequences_IDs/B/06_gloves.jpg,html/resources/sequences_IDs/A/01_wolf.jpg,6,1,3,2,1,1,5,1,1,18,,,,,,,,,,,,,,,,,,,,
,,,,,18,2020-07-01_09h34.21.966,retriever_ti,2020.1.3,Win32,60,Chrome,1536,864,,,,,,,,,,,,,,,,,2,,,,,,,,,,,,,,,,,,,,,,,,,,,1023.99641,148,left,1.05501,sport_tshirt,8,7,2,1,3,1024.029505,1024.029505,1026.52668,0,70,70,70,1,148,8,6,sport_tshirt,dolphin     ,html/resources/sequences_IDs/B/07_sport_tshirt.jpg,html/resources/sequences_IDs/B/02_dolphin.jpg,7,2,3,2,1,1,6,2,0,18,,,,,,,,,,,,,,,,,,,,
,,,,,18,2020-07-01_09h34.21.966,retriever_ti,2020.1.3,Win32,60,Chrome,1536,864,,,,,,,,,,,,,,,,,2,,,,,,,,,,,,,,,,,,,,,,,,,,,1027.14307,149,left,1.450925,wolf          ,5,1,-1,0,0,1027.16025,1027.16025,1029.65722,0,71,71,71,1,149,5,6,wolf          ,dolphin     ,html/resources/sequences_IDs/A/01_wolf.jpg,html/resources/sequences_IDs/B/02_dolphin.jpg,1,2,1,1,1,1,1,2,0,18,,,,,,,,,,,,,,,,,,,,
,,,,,18,2020-07-01_09h34.21.966,retriever_ti,2020.1.3,Win32,60,Chrome,1536,864,,,,,,,,,,,,,,,,,2,,,,,,,,,,,,,,,,,,,,,,,,,,,1030.75658,150,left,1.332535,hat           ,3,8,-1,0,0,1030.790295,1030.790295,1033.286885,0,72,72,72,1,150,3,4,hat           ,gloves      ,html/resources/sequences_IDs/A/08_hat.jpg,html/resources/sequences_IDs/B/06_gloves.jpg,8,6,3,2,3,2,7,5,0,18,,,,,,,,,,,,,,,,,,,,
,,,,,18,2020-07-01_09h34.21.966,retriever_ti,2020.1.3,Win32,60,Chrome,1536,864,,,,,,,,,,,,,,,,,2,,,,,,,,,,,,,,,,,,,,,,,,,,,1034.386045,151,right,0.95542,sport_tshirt,8,7,1,1,1,1034.42049,1034.42049,1036.917,0,73,73,73,1,151,7,8,calculator    ,sport_tshirt,html/resources/sequences_IDs/A/09_calculator.jpg,html/resources/sequences_IDs/B/07_sport_tshirt.jpg,9,7,4,2,3,2,8,6,0,18,,,,,,,,,,,,,,,,,,,,
,,,,,18,2020-07-01_09h34.21.966,retriever_ti,2020.1.3,Win32,60,Chrome,1536,864,,,,,,,,,,,,,,,,,2,,,,,,,,,,,,,,,,,,,,,,,,,,,1038.016915,152,right,1.237725,holdfast    ,2,4,-2,0,3,1038.033425,1038.033425,1040.53005,0,74,74,74,1,152,4,2,gloves      ,holdfast    ,html/resources/sequences_IDs/B/06_gloves.jpg,html/resources/sequences_IDs/B/04_holdfast.jpg,6,4,3,2,2,1,5,4,0,18,,,,,,,,,,,,,,,,,,,,
,,,,,18,2020-07-01_09h34.21.966,retriever_ti,2020.1.3,Win32,60,Chrome,1536,864,,,,,,,,,,,,,,,,,2,,,,,,,,,,,,,,,,,,,,,,,,,,,1041.146705,153,right,0.901755,sport_tshirt,8,7,7,1,3,1041.180435,1041.180435,1043.677145,0,75,75,75,1,153,1,8,camel         ,sport_tshirt,html/resources/sequences_IDs/A/03_camel.jpg,html/resources/sequences_IDs/B/07_sport_tshirt.jpg,3,7,1,1,3,2,3,6,0,18,,,,,,,,,,,,,,,,,,,,
,,,,,18,2020-07-01_09h34.21.966,retriever_ti,2020.1.3,Win32,60,Chrome,1536,864,,,,,,,,,,,,,,,,,2,,,,,,,,,,,,,,,,,,,,,,,,,,,1044.29412,154,left,1.8684,gloves      ,4,6,1,1,1,1044.31068,1044.31068,1046.807715,0,76,76,76,1,154,4,3,gloves      ,hat           ,html/resources/sequences_IDs/B/06_gloves.jpg,html/resources/sequences_IDs/A/08_hat.jpg,6,8,3,2,3,2,5,7,0,18,,,,,,,,,,,,,,,,,,,,
,,,,,18,2020-07-01_09h34.21.966,retriever_ti,2020.1.3,Win32,60,Chrome,1536,864,,,,,,,,,,,,,,,,,,,,,,,,,,,,,,,,,,,,,0,2.15356,,,,,,,,,,,,,,,,,,,,,,,,,,,,,,,,,,,,,,,,,1,0,1,0,1,,,,,,,,,,,,,,,
,,,,,18,2020-07-01_09h34.21.966,retriever_ti,2020.1.3,Win32,60,Chrome,1536,864,,,,,,,,,,,,,,,,,3,,,,,,,,,,,,,,,,,,,,,,,,,,,1360.07239,155,left,1.19026,gloves      ,4,6,-1,0,0,1360.09942,1360.09942,1362.596375,0,0,0,0,1,155,4,5,gloves      ,wolf          ,html/resources/sequences_IDs/B/06_gloves.jpg,html/resources/sequences_IDs/A/01_wolf.jpg,6,1,3,2,1,1,5,1,0,18,,,,,,,,,,,,,,,,,,,,
,,,,,18,2020-07-01_09h34.21.966,retriever_ti,2020.1.3,Win32,60,Chrome,1536,864,,,,,,,,,,,,,,,,,3,,,,,,,,,,,,,,,,,,,,,,,,,,,1363.695795,156,left,1.771035,sport_tshirt,8,7,1,1,1,1363.71242,1363.71242,1366.209375,0,1,1,1,1,156,8,7,sport_tshirt,calculator    ,html/resources/sequences_IDs/B/07_sport_tshirt.jpg,html/resources/sequences_IDs/A/09_calculator.jpg,7,9,3,2,4,2,6,8,0,18,,,,,,,,,,,,,,,,,,,,
,,,,,18,2020-07-01_09h34.21.966,retriever_ti,2020.1.3,Win32,60,Chrome,1536,864,,,,,,,,,,,,,,,,,3,,,,,,,,,,,,,,,,,,,,,,,,,,,1367.30928,157,left,1.46753,dolphin     ,6,2,4,1,3,1367.326365,1367.326365,1369.822755,0,2,2,2,1,157,6,2,dolphin     ,holdfast    ,html/resources/sequences_IDs/B/02_dolphin.jpg,html/resources/sequences_IDs/B/04_holdfast.jpg,2,4,1,1,2,1,2,4,0,18,,,,,,,,,,,,,,,,,,,,
,,,,,18,2020-07-01_09h34.21.966,retriever_ti,2020.1.3,Win32,60,Chrome,1536,864,,,,,,,,,,,,,,,,,3,,,,,,,,,,,,,,,,,,,,,,,,,,,1370.439415,158,left,1.410925,calculator    ,7,9,1,1,1,1370.47284,1370.47284,1372.969975,0,3,3,3,1,158,7,6,calculator    ,dolphin     ,html/resources/sequences_IDs/A/09_calculator.jpg,html/resources/sequences_IDs/B/02_dolphin.jpg,9,2,4,2,1,1,8,2,0,18,,,,,,,,,,,,,,,,,,,,
,,,,,18,2020-07-01_09h34.21.966,retriever_ti,2020.1.3,Win32,60,Chrome,1536,864,,,,,,,,,,,,,,,,,3,,,,,,,,,,,,,,,,,,,,,,,,,,,1374.069965,159,left,1.44458,gloves      ,4,6,3,1,3,1374.08615,1374.08615,1376.583325,0,4,4,4,1,159,4,1,gloves      ,camel         ,html/resources/sequences_IDs/B/06_gloves.jpg,html/resources/sequences_IDs/A/03_camel.jpg,6,3,3,2,1,1,5,3,0,18,,,,,,,,,,,,,,,,,,,,
,,,,,18,2020-07-01_09h34.21.966,retriever_ti,2020.1.3,Win32,60,Chrome,1536,864,,,,,,,,,,,,,,,,,3,,,,,,,,,,,,,,,,,,,,,,,,,,,1377.19966,160,left,1.51332,gloves      ,4,6,-2,0,3,1377.21666,1377.21666,1379.71354,0,5,5,5,1,160,4,6,gloves      ,dolphin     ,html/resources/sequences_IDs/B/06_gloves.jpg,html/resources/sequences_IDs/B/02_dolphin.jpg,6,2,3,2,1,1,5,2,0,18,,,,,,,,,,,,,,,,,,,,
,,,,,18,2020-07-01_09h34.21.966,retriever_ti,2020.1.3,Win32,60,Chrome,1536,864,,,,,,,,,,,,,,,,,3,,,,,,,,,,,,,,,,,,,,,,,,,,,1380.33056,161,right,1.866965,dolphin     ,6,2,1,1,1,1380.347425,1380.347425,1382.84413,0,6,6,6,1,161,5,6,wolf          ,dolphin     ,html/resources/sequences_IDs/A/01_wolf.jpg,html/resources/sequences_IDs/B/02_dolphin.jpg,1,2,1,1,1,1,1,2,0,18,,,,,,,,,,,,,,,,,,,,
,,,,,18,2020-07-01_09h34.21.966,retriever_ti,2020.1.3,Win32,60,Chrome,1536,864,,,,,,,,,,,,,,,,,3,,,,,,,,,,,,,,,,,,,,,,,,,,,1383.943325,162,right,1.067155,holdfast    ,2,4,1,1,1,1383.977245,1383.977245,1386.47415,0,7,7,7,1,162,1,2,camel         ,holdfast    ,html/resources/sequences_IDs/A/03_camel.jpg,html/resources/sequences_IDs/B/04_holdfast.jpg,3,4,1,1,2,1,3,4,0,18,,,,,,,,,,,,,,,,,,,,
,,,,,18,2020-07-01_09h34.21.966,retriever_ti,2020.1.3,Win32,60,Chrome,1536,864,,,,,,,,,,,,,,,,,3,,,,,,,,,,,,,,,,,,,,,,,,,,,1387.573845,163,left,1.876795,dolphin     ,6,2,1,1,1,1387.59053,1387.59053,1390.08712,0,8,8,8,1,163,6,5,dolphin     ,wolf          ,html/resources/sequences_IDs/B/02_dolphin.jpg,html/resources/sequences_IDs/A/01_wolf.jpg,2,1,1,1,1,1,2,1,0,18,,,,,,,,,,,,,,,,,,,,
,,,,,18,2020-07-01_09h34.21.966,retriever_ti,2020.1.3,Win32,60,Chrome,1536,864,,,,,,,,,,,,,,,,,3,,,,,,,,,,,,,,,,,,,,,,,,,,,1391.186505,164,right,1.64348,calculator    ,7,9,1,1,1,1391.203665,1391.203665,1393.70066,0,9,9,9,1,164,6,7,dolphin     ,calculator    ,html/resources/sequences_IDs/B/02_dolphin.jpg,html/resources/sequences_IDs/A/09_calculator.jpg,2,9,1,1,4,2,2,8,0,18,,,,,,,,,,,,,,,,,,,,
,,,,,18,2020-07-01_09h34.21.966,retriever_ti,2020.1.3,Win32,60,Chrome,1536,864,,,,,,,,,,,,,,,,,3,,,,,,,,,,,,,,,,,,,,,,,,,,,1394.80015,165,right,1.35301,gloves      ,4,6,2,1,3,1394.833765,1394.833765,1397.330545,0,10,10,10,1,165,2,4,holdfast    ,gloves      ,html/resources/sequences_IDs/B/04_holdfast.jpg,html/resources/sequences_IDs/B/06_gloves.jpg,4,6,2,1,3,2,4,5,0,18,,,,,,,,,,,,,,,,,,,,
,,,,,18,2020-07-01_09h34.21.966,retriever_ti,2020.1.3,Win32,60,Chrome,1536,864,,,,,,,,,,,,,,,,,3,,,,,,,,,,,,,,,,,,,,,,,,,,,1397.947035,166,left,1.527865,hat           ,3,8,-1,0,0,1397.96387,1397.96387,1400.46079,0,11,11,11,1,166,3,4,hat           ,gloves      ,html/resources/sequences_IDs/A/08_hat.jpg,html/resources/sequences_IDs/B/06_gloves.jpg,8,6,3,2,3,2,7,5,0,18,,,,,,,,,,,,,,,,,,,,
,,,,,18,2020-07-01_09h34.21.966,retriever_ti,2020.1.3,Win32,60,Chrome,1536,864,,,,,,,,,,,,,,,,,3,,,,,,,,,,,,,,,,,,,,,,,,,,,1401.56044,167,left,1.75581,wolf          ,5,1,4,1,3,1401.5773,1401.5773,1404.074465,0,12,12,12,1,167,5,1,wolf          ,camel         ,html/resources/sequences_IDs/A/01_wolf.jpg,html/resources/sequences_IDs/A/03_camel.jpg,1,3,1,1,1,1,1,3,0,18,,,,,,,,,,,,,,,,,,,,
,,,,,18,2020-07-01_09h34.21.966,retriever_ti,2020.1.3,Win32,60,Chrome,1536,864,,,,,,,,,,,,,,,,,3,,,,,,,,,,,,,,,,,,,,,,,,,,,1404.69053,168,right,1.070815,calculator    ,7,9,3,1,3,1404.707975,1404.707975,1407.204555,0,13,13,13,1,168,4,7,gloves      ,calculator    ,html/resources/sequences_IDs/B/06_gloves.jpg,html/resources/sequences_IDs/A/09_calculator.jpg,6,9,3,2,4,2,5,8,0,18,,,,,,,,,,,,,,,,,,,,
,,,,,18,2020-07-01_09h34.21.966,retriever_ti,2020.1.3,Win32,60,Chrome,1536,864,,,,,,,,,,,,,,,,,3,,,,,,,,,,,,,,,,,,,,,,,,,,,1407.82148,169,right,1.42709,sport_tshirt,8,7,1,1,0,1407.83826,1407.83826,1410.335075,0,14,14,14,1,169,7,8,calculator    ,sport_tshirt,html/resources/sequences_IDs/A/09_calculator.jpg,html/resources/sequences_IDs/B/07_sport_tshirt.jpg,9,7,4,2,3,2,8,6,1,18,,,,,,,,,,,,,,,,,,,,
,,,,,18,2020-07-01_09h34.21.966,retriever_ti,2020.1.3,Win32,60,Chrome,1536,864,,,,,,,,,,,,,,,,,3,,,,,,,,,,,,,,,,,,,,,,,,,,,1411.434485,170,left,1.617405,camel         ,1,3,-4,0,3,1411.46782,1411.46782,1413.96494,0,15,15,15,1,170,1,5,camel         ,wolf          ,html/resources/sequences_IDs/A/03_camel.jpg,html/resources/sequences_IDs/A/01_wolf.jpg,3,1,1,1,1,1,3,1,0,18,,,,,,,,,,,,,,,,,,,,
,,,,,18,2020-07-01_09h34.21.966,retriever_ti,2020.1.3,Win32,60,Chrome,1536,864,,,,,,,,,,,,,,,,,3,,,,,,,,,,,,,,,,,,,,,,,,,,,1414.58237,171,right,1.80293,gloves      ,4,6,-1,0,0,1414.59867,1414.59867,1417.09568,0,16,16,16,1,171,5,4,wolf          ,gloves      ,html/resources/sequences_IDs/A/01_wolf.jpg,html/resources/sequences_IDs/B/06_gloves.jpg,1,6,1,1,3,2,1,5,0,18,,,,,,,,,,,,,,,,,,,,
,,,,,18,2020-07-01_09h34.21.966,retriever_ti,2020.1.3,Win32,60,Chrome,1536,864,,,,,,,,,,,,,,,,,3,,,,,,,,,,,,,,,,,,,,,,,,,,,1418.19454,172,right,1.794235,wolf          ,5,1,1,1,0,1418.228505,1418.228505,1420.725295,0,17,17,17,1,172,4,5,gloves      ,wolf          ,html/resources/sequences_IDs/B/06_gloves.jpg,html/resources/sequences_IDs/A/01_wolf.jpg,6,1,3,2,1,1,5,1,1,18,,,,,,,,,,,,,,,,,,,,
,,,,,18,2020-07-01_09h34.21.966,retriever_ti,2020.1.3,Win32,60,Chrome,1536,864,,,,,,,,,,,,,,,,,3,,,,,,,,,,,,,,,,,,,,,,,,,,,1421.82501,173,right,1.540635,holdfast    ,2,4,1,1,1,1421.858405,1421.858405,1424.35541,0,18,18,18,1,173,1,2,camel         ,holdfast    ,html/resources/sequences_IDs/A/03_camel.jpg,html/resources/sequences_IDs/B/04_holdfast.jpg,3,4,1,1,2,1,3,4,0,18,,,,,,,,,,,,,,,,,,,,
,,,,,18,2020-07-01_09h34.21.966,retriever_ti,2020.1.3,Win32,60,Chrome,1536,864,,,,,,,,,,,,,,,,,3,,,,,,,,,,,,,,,,,,,,,,,,,,,1425.45436,174,right,1.820355,gloves      ,4,6,1,1,1,1425.488655,1425.488655,1427.98544,0,19,19,19,1,174,3,4,hat           ,gloves      ,html/resources/sequences_IDs/A/08_hat.jpg,html/resources/sequences_IDs/B/06_gloves.jpg,8,6,3,2,3,2,7,5,0,18,,,,,,,,,,,,,,,,,,,,
,,,,,18,2020-07-01_09h34.21.966,retriever_ti,2020.1.3,Win32,60,Chrome,1536,864,,,,,,,,,,,,,,,,,3,,,,,,,,,,,,,,,,,,,,,,,,,,,1429.085335,175,left,0.921305,sport_tshirt,8,7,5,1,3,1429.101735,1429.101735,1431.598445,0,20,20,20,1,175,8,3,sport_tshirt,hat           ,html/resources/sequences_IDs/B/07_sport_tshirt.jpg,html/resources/sequences_IDs/A/08_hat.jpg,7,8,3,2,3,2,6,7,0,18,,,,,,,,,,,,,,,,,,,,
,,,,,18,2020-07-01_09h34.21.966,retriever_ti,2020.1.3,Win32,60,Chrome,1536,864,,,,,,,,,,,,,,,,,3,,,,,,,,,,,,,,,,,,,,,,,,,,,1432.21475,176,left,1.103345,calculator    ,7,9,5,1,3,1432.23224,1432.23224,1434.72879,0,21,21,21,1,176,7,2,calculator    ,holdfast    ,html/resources/sequences_IDs/A/09_calculator.jpg,html/resources/sequences_IDs/B/04_holdfast.jpg,9,4,4,2,2,1,8,4,0,18,,,,,,,,,,,,,,,,,,,,
,,,,,18,2020-07-01_09h34.21.966,retriever_ti,2020.1.3,Win32,60,Chrome,1536,864,,,,,,,,,,,,,,,,,3,,,,,,,,,,,,,,,,,,,,,,,,,,,1435.34634,177,right,1.619495,hat           ,3,8,1,1,1,1435.36254,1435.36254,1437.86046,0,22,22,22,1,177,2,3,holdfast    ,hat           ,html/resources/sequences_IDs/B/04_holdfast.jpg,html/resources/sequences_IDs/A/08_hat.jpg,4,8,2,1,3,2,4,7,0,18,,,,,,,,,,,,,,,,,,,,
,,,,,18,2020-07-01_09h34.21.966,retriever_ti,2020.1.3,Win32,60,Chrome,1536,864,,,,,,,,,,,,,,,,,3,,,,,,,,,,,,,,,,,,,,,,,,,,,1438.958725,178,left,1.276385,calculator    ,7,9,2,1,3,1438.975885,1438.975885,1441.4725,0,23,23,23,1,178,7,5,calculator    ,wolf          ,html/resources/sequences_IDs/A/09_calculator.jpg,html/resources/sequences_IDs/A/01_wolf.jpg,9,1,4,2,1,1,8,1,0,18,,,,,,,,,,,,,,,,,,,,
,,,,,18,2020-07-01_09h34.21.966,retriever_ti,2020.1.3,Win32,60,Chrome,1536,864,,,,,,,,,,,,,,,,,3,,,,,,,,,,,,,,,,,,,,,,,,,,,1442.090225,179,right,0.84418,sport_tshirt,8,7,2,1,3,1442.10601,1442.10601,1444.60336,0,24,24,24,1,179,6,8,dolphin     ,sport_tshirt,html/resources/sequences_IDs/B/02_dolphin.jpg,html/resources/sequences_IDs/B/07_sport_tshirt.jpg,2,7,1,1,3,2,2,6,0,18,,,,,,,,,,,,,,,,,,,,
,,,,,18,2020-07-01_09h34.21.966,retriever_ti,2020.1.3,Win32,60,Chrome,1536,864,,,,,,,,,,,,,,,,,3,,,,,,,,,,,,,,,,,,,,,,,,,,,1445.21931,180,right,1.07085,calculator    ,7,9,1,1,1,1445.237015,1445.237015,1447.733805,0,25,25,25,1,180,6,7,dolphin     ,calculator    ,html/resources/sequences_IDs/B/02_dolphin.jpg,html/resources/sequences_IDs/A/09_calculator.jpg,2,9,1,1,4,2,2,8,0,18,,,,,,,,,,,,,,,,,,,,
,,,,,18,2020-07-01_09h34.21.966,retriever_ti,2020.1.3,Win32,60,Chrome,1536,864,,,,,,,,,,,,,,,,,3,,,,,,,,,,,,,,,,,,,,,,,,,,,1448.83368,181,left,0.996085,dolphin     ,6,2,1,1,1,1448.849685,1448.849685,1451.346715,0,26,26,26,1,181,6,5,dolphin     ,wolf          ,html/resources/sequences_IDs/B/02_dolphin.jpg,html/resources/sequences_IDs/A/01_wolf.jpg,2,1,1,1,1,1,2,1,0,18,,,,,,,,,,,,,,,,,,,,
,,,,,18,2020-07-01_09h34.21.966,retriever_ti,2020.1.3,Win32,60,Chrome,1536,864,,,,,,,,,,,,,,,,,3,,,,,,,,,,,,,,,,,,,,,,,,,,,1452.446275,182,left,0.980365,calculator    ,7,9,6,1,3,1452.4797,1452.4797,1454.976975,0,27,27,27,1,182,7,1,calculator    ,camel         ,html/resources/sequences_IDs/A/09_calculator.jpg,html/resources/sequences_IDs/A/03_camel.jpg,9,3,4,2,1,1,8,3,0,18,,,,,,,,,,,,,,,,,,,,
,,,,,18,2020-07-01_09h34.21.966,retriever_ti,2020.1.3,Win32,60,Chrome,1536,864,,,,,,,,,,,,,,,,,3,,,,,,,,,,,,,,,,,,,,,,,,,,,1455.59451,183,right,0.627825,sport_tshirt,8,7,6,1,3,1455.627405,1455.627405,1458.123915,0,28,28,28,1,183,2,8,holdfast    ,sport_tshirt,html/resources/sequences_IDs/B/04_holdfast.jpg,html/resources/sequences_IDs/B/07_sport_tshirt.jpg,4,7,2,1,3,2,4,6,0,18,,,,,,,,,,,,,,,,,,,,
,,,,,18,2020-07-01_09h34.21.966,retriever_ti,2020.1.3,Win32,60,Chrome,1536,864,,,,,,,,,,,,,,,,,3,,,,,,,,,,,,,,,,,,,,,,,,,,,1458.74047,184,left,0.670695,calculator    ,7,9,4,1,3,1458.774435,1458.774435,1461.27072,0,29,29,29,1,184,7,3,calculator    ,hat           ,html/resources/sequences_IDs/A/09_calculator.jpg,html/resources/sequences_IDs/A/08_hat.jpg,9,8,4,2,3,2,8,7,0,18,,,,,,,,,,,,,,,,,,,,
,,,,,18,2020-07-01_09h34.21.966,retriever_ti,2020.1.3,Win32,60,Chrome,1536,864,,,,,,,,,,,,,,,,,3,,,,,,,,,,,,,,,,,,,,,,,,,,,1461.88857,185,right,0.609865,calculator    ,7,9,5,1,3,1461.92131,1461.92131,1464.417695,0,30,30,30,1,185,2,7,holdfast    ,calculator    ,html/resources/sequences_IDs/B/04_holdfast.jpg,html/resources/sequences_IDs/A/09_calculator.jpg,4,9,2,1,4,2,4,8,0,18,,,,,,,,,,,,,,,,,,,,
,,,,,18,2020-07-01_09h34.21.966,retriever_ti,2020.1.3,Win32,60,Chrome,1536,864,,,,,,,,,,,,,,,,,3,,,,,,,,,,,,,,,,,,,,,,,,,,,1465.03412,186,right,1.00437,sport_tshirt,8,7,7,1,3,1465.05132,1465.05132,1467.54822,0,31,31,31,1,186,1,8,camel         ,sport_tshirt,html/resources/sequences_IDs/A/03_camel.jpg,html/resources/sequences_IDs/B/07_sport_tshirt.jpg,3,7,1,1,3,2,3,6,0,18,,,,,,,,,,,,,,,,,,,,
,,,,,18,2020-07-01_09h34.21.966,retriever_ti,2020.1.3,Win32,60,Chrome,1536,864,,,,,,,,,,,,,,,,,3,,,,,,,,,,,,,,,,,,,,,,,,,,,1468.1649,187,left,1.357395,wolf          ,5,1,2,1,3,1468.18193,1468.18193,1470.67873,0,32,32,32,1,187,5,3,wolf          ,hat           ,html/resources/sequences_IDs/A/01_wolf.jpg,html/resources/sequences_IDs/A/08_hat.jpg,1,8,1,1,3,2,1,7,0,18,,,,,,,,,,,,,,,,,,,,
,,,,,18,2020-07-01_09h34.21.966,retriever_ti,2020.1.3,Win32,60,Chrome,1536,864,,,,,,,,,,,,,,,,,3,,,,,,,,,,,,,,,,,,,,,,,,,,,1471.29507,188,right,1.23781,dolphin     ,6,2,5,1,3,1471.328935,1471.328935,1473.825815,0,33,33,33,1,188,1,6,camel         ,dolphin     ,html/resources/sequences_IDs/A/03_camel.jpg,html/resources/sequences_IDs/B/02_dolphin.jpg,3,2,1,1,1,1,3,2,0,18,,,,,,,,,,,,,,,,,,,,
,,,,,18,2020-07-01_09h34.21.966,retriever_ti,2020.1.3,Win32,60,Chrome,1536,864,,,,,,,,,,,,,,,,,3,,,,,,,,,,,,,,,,,,,,,,,,,,,1474.443575,189,right,0.88911,sport_tshirt,8,7,1,1,1,1474.45939,1474.45939,1476.956005,0,34,34,34,1,189,7,8,calculator    ,sport_tshirt,html/resources/sequences_IDs/A/09_calculator.jpg,html/resources/sequences_IDs/B/07_sport_tshirt.jpg,9,7,4,2,3,2,8,6,0,18,,,,,,,,,,,,,,,,,,,,
,,,,,18,2020-07-01_09h34.21.966,retriever_ti,2020.1.3,Win32,60,Chrome,1536,864,,,,,,,,,,,,,,,,,3,,,,,,,,,,,,,,,,,,,,,,,,,,,1478.055445,190,right,0.856145,calculator    ,7,9,2,1,3,1478.07263,1478.07263,1480.5693,0,35,35,35,1,190,5,7,wolf          ,calculator    ,html/resources/sequences_IDs/A/01_wolf.jpg,html/resources/sequences_IDs/A/09_calculator.jpg,1,9,1,1,4,2,1,8,0,18,,,,,,,,,,,,,,,,,,,,
,,,,,18,2020-07-01_09h34.21.966,retriever_ti,2020.1.3,Win32,60,Chrome,1536,864,,,,,,,,,,,,,,,,,3,,,,,,,,,,,,,,,,,,,,,,,,,,,1481.186055,191,left,0.81675,calculator    ,7,9,3,1,3,1481.20335,1481.20335,1483.700225,0,36,36,36,1,191,7,4,calculator    ,gloves      ,html/resources/sequences_IDs/A/09_calculator.jpg,html/resources/sequences_IDs/B/06_gloves.jpg,9,6,4,2,3,2,8,5,0,18,,,,,,,,,,,,,,,,,,,,
,,,,,18,2020-07-01_09h34.21.966,retriever_ti,2020.1.3,Win32,60,Chrome,1536,864,,,,,,,,,,,,,,,,,3,,,,,,,,,,,,,,,,,,,,,,,,,,,1484.316455,192,left,2.18014,camel         ,1,3,-2,0,3,1484.34998,1484.34998,1486.846825,0,37,37,37,1,192,1,3,camel         ,hat           ,html/resources/sequences_IDs/A/03_camel.jpg,html/resources/sequences_IDs/A/08_hat.jpg,3,8,1,1,3,2,3,7,0,18,,,,,,,,,,,,,,,,,,,,
,,,,,18,2020-07-01_09h34.21.966,retriever_ti,2020.1.3,Win32,60,Chrome,1536,864,,,,,,,,,,,,,,,,,3,,,,,,,,,,,,,,,,,,,,,,,,,,,1487.463645,193,left,1.689375,hat           ,3,8,1,1,1,1487.481125,1487.481125,1489.977355,0,38,38,38,1,193,3,2,hat           ,holdfast    ,html/resources/sequences_IDs/A/08_hat.jpg,html/resources/sequences_IDs/B/04_holdfast.jpg,8,4,3,2,2,1,7,4,0,18,,,,,,,,,,,,,,,,,,,,
,,,,,18,2020-07-01_09h34.21.966,retriever_ti,2020.1.3,Win32,60,Chrome,1536,864,,,,,,,,,,,,,,,,,3,,,,,,,,,,,,,,,,,,,,,,,,,,,1491.07687,194,right,2.078105,gloves      ,4,6,3,1,3,1491.110665,1491.110665,1493.607365,0,39,39,39,1,194,1,4,camel         ,gloves      ,html/resources/sequences_IDs/A/03_camel.jpg,html/resources/sequences_IDs/B/06_gloves.jpg,3,6,1,1,3,2,3,5,0,18,,,,,,,,,,,,,,,,,,,,
,,,,,18,2020-07-01_09h34.21.966,retriever_ti,2020.1.3,Win32,60,Chrome,1536,864,,,,,,,,,,,,,,,,,3,,,,,,,,,,,,,,,,,,,,,,,,,,,1494.22507,195,left,1.50196,dolphin     ,6,2,3,1,3,1494.240725,1494.240725,1496.738025,0,40,40,40,1,195,6,3,dolphin     ,hat           ,html/resources/sequences_IDs/B/02_dolphin.jpg,html/resources/sequences_IDs/A/08_hat.jpg,2,8,1,1,3,2,2,7,0,18,,,,,,,,,,,,,,,,,,,,
,,,,,18,2020-07-01_09h34.21.966,retriever_ti,2020.1.3,Win32,60,Chrome,1536,864,,,,,,,,,,,,,,,,,3,,,,,,,,,,,,,,,,,,,,,,,,,,,1497.354315,196,right,0.8099,sport_tshirt,8,7,4,1,3,1497.388055,1497.388055,1499.88463,0,41,41,41,1,196,4,8,gloves      ,sport_tshirt,html/resources/sequences_IDs/B/06_gloves.jpg,html/resources/sequences_IDs/B/07_sport_tshirt.jpg,6,7,3,2,3,2,5,6,0,18,,,,,,,,,,,,,,,,,,,,
,,,,,18,2020-07-01_09h34.21.966,retriever_ti,2020.1.3,Win32,60,Chrome,1536,864,,,,,,,,,,,,,,,,,3,,,,,,,,,,,,,,,,,,,,,,,,,,,1500.501965,197,left,1.635095,holdfast    ,2,4,1,1,0,1500.518355,1500.518355,1503.015295,0,42,42,42,1,197,2,1,holdfast    ,camel         ,html/resources/sequences_IDs/B/04_holdfast.jpg,html/resources/sequences_IDs/A/03_camel.jpg,4,3,2,1,1,1,4,3,1,18,,,,,,,,,,,,,,,,,,,,
,,,,,18,2020-07-01_09h34.21.966,retriever_ti,2020.1.3,Win32,60,Chrome,1536,864,,,,,,,,,,,,,,,,,3,,,,,,,,,,,,,,,,,,,,,,,,,,,1504.11475,198,right,1.351365,hat           ,3,8,1,1,1,1504.13171,1504.13171,1506.6286,0,43,43,43,1,198,2,3,holdfast    ,hat           ,html/resources/sequences_IDs/B/04_holdfast.jpg,html/resources/sequences_IDs/A/08_hat.jpg,4,8,2,1,3,2,4,7,0,18,,,,,,,,,,,,,,,,,,,,
,,,,,18,2020-07-01_09h34.21.966,retriever_ti,2020.1.3,Win32,60,Chrome,1536,864,,,,,,,,,,,,,,,,,3,,,,,,,,,,,,,,,,,,,,,,,,,,,1507.72859,199,right,0.93661,calculator    ,7,9,6,1,3,1507.761495,1507.761495,1510.25867,0,44,44,44,1,199,1,7,camel         ,calculator    ,html/resources/sequences_IDs/A/03_camel.jpg,html/resources/sequences_IDs/A/09_calculator.jpg,3,9,1,1,4,2,3,8,0,18,,,,,,,,,,,,,,,,,,,,
,,,,,18,2020-07-01_09h34.21.966,retriever_ti,2020.1.3,Win32,60,Chrome,1536,864,,,,,,,,,,,,,,,,,3,,,,,,,,,,,,,,,,,,,,,,,,,,,1510.875305,200,left,1.591905,hat           ,3,8,1,1,0,1510.908955,1510.908955,1513.40548,0,45,45,45,1,200,3,2,hat           ,holdfast    ,html/resources/sequences_IDs/A/08_hat.jpg,html/resources/sequences_IDs/B/04_holdfast.jpg,8,4,3,2,2,1,7,4,1,18,,,,,,,,,,,,,,,,,,,,
,,,,,18,2020-07-01_09h34.21.966,retriever_ti,2020.1.3,Win32,60,Chrome,1536,864,,,,,,,,,,,,,,,,,3,,,,,,,,,,,,,,,,,,,,,,,,,,,1514.50546,201,left,1.53923,sport_tshirt,8,7,1,1,1,1514.52229,1514.52229,1517.01875,0,46,46,46,1,201,8,7,sport_tshirt,calculator    ,html/resources/sequences_IDs/B/07_sport_tshirt.jpg,html/resources/sequences_IDs/A/09_calculator.jpg,7,9,3,2,4,2,6,8,0,18,,,,,,,,,,,,,,,,,,,,
,,,,,18,2020-07-01_09h34.21.966,retriever_ti,2020.1.3,Win32,60,Chrome,1536,864,,,,,,,,,,,,,,,,,3,,,,,,,,,,,,,,,,,,,,,,,,,,,1518.118245,202,left,1.59994,holdfast    ,2,4,1,1,1,1518.135475,1518.135475,1520.63215,0,47,47,47,1,202,2,1,holdfast    ,camel         ,html/resources/sequences_IDs/B/04_holdfast.jpg,html/resources/sequences_IDs/A/03_camel.jpg,4,3,2,1,1,1,4,3,0,18,,,,,,,,,,,,,,,,,,,,
,,,,,18,2020-07-01_09h34.21.966,retriever_ti,2020.1.3,Win32,60,Chrome,1536,864,,,,,,,,,,,,,,,,,3,,,,,,,,,,,,,,,,,,,,,,,,,,,1521.73202,203,right,1.842695,dolphin     ,6,2,1,1,1,1521.765155,1521.765155,1524.262115,0,48,48,48,1,203,5,6,wolf          ,dolphin     ,html/resources/sequences_IDs/A/01_wolf.jpg,html/resources/sequences_IDs/B/02_dolphin.jpg,1,2,1,1,1,1,1,2,0,18,,,,,,,,,,,,,,,,,,,,
,,,,,18,2020-07-01_09h34.21.966,retriever_ti,2020.1.3,Win32,60,Chrome,1536,864,,,,,,,,,,,,,,,,,3,,,,,,,,,,,,,,,,,,,,,,,,,,,1525.36136,204,left,1.539115,gloves      ,4,6,1,1,1,1525.39533,1525.39533,1527.892045,0,49,49,49,1,204,4,3,gloves      ,hat           ,html/resources/sequences_IDs/B/06_gloves.jpg,html/resources/sequences_IDs/A/08_hat.jpg,6,8,3,2,3,2,5,7,0,18,,,,,,,,,,,,,,,,,,,,
,,,,,18,2020-07-01_09h34.21.966,retriever_ti,2020.1.3,Win32,60,Chrome,1536,864,,,,,,,,,,,,,,,,,3,,,,,,,,,,,,,,,,,,,,,,,,,,,1528.99232,205,left,1.68419,wolf          ,5,1,1,1,1,1529.008665,1529.008665,1531.50521,0,50,50,50,1,205,5,4,wolf          ,gloves      ,html/resources/sequences_IDs/A/01_wolf.jpg,html/resources/sequences_IDs/B/06_gloves.jpg,1,6,1,1,3,2,1,5,0,18,,,,,,,,,,,,,,,,,,,,
,,,,,18,2020-07-01_09h34.21.966,retriever_ti,2020.1.3,Win32,60,Chrome,1536,864,,,,,,,,,,,,,,,,,3,,,,,,,,,,,,,,,,,,,,,,,,,,,1532.60524,206,left,0.51789,sport_tshirt,8,7,2,1,3,1532.621845,1532.621845,1535.118745,0,51,51,51,1,206,8,6,sport_tshirt,dolphin     ,html/resources/sequences_IDs/B/07_sport_tshirt.jpg,html/resources/sequences_IDs/B/02_dolphin.jpg,7,2,3,2,1,1,6,2,0,18,,,,,,,,,,,,,,,,,,,,
,,,,,18,2020-07-01_09h34.21.966,retriever_ti,2020.1.3,Win32,60,Chrome,1536,864,,,,,,,,,,,,,,,,,3,,,,,,,,,,,,,,,,,,,,,,,,,,,1535.73481,207,right,0.673115,sport_tshirt,8,7,5,1,3,1535.751855,1535.751855,1538.249095,0,52,52,52,1,207,3,8,hat           ,sport_tshirt,html/resources/sequences_IDs/A/08_hat.jpg,html/resources/sequences_IDs/B/07_sport_tshirt.jpg,8,7,3,2,3,2,7,6,0,18,,,,,,,,,,,,,,,,,,,,
,,,,,18,2020-07-01_09h34.21.966,retriever_ti,2020.1.3,Win32,60,Chrome,1536,864,,,,,,,,,,,,,,,,,3,,,,,,,,,,,,,,,,,,,,,,,,,,,1538.86563,208,left,0.559305,sport_tshirt,8,7,6,1,3,1538.89967,1538.89967,1541.395955,0,53,53,53,1,208,8,2,sport_tshirt,holdfast    ,html/resources/sequences_IDs/B/07_sport_tshirt.jpg,html/resources/sequences_IDs/B/04_holdfast.jpg,7,4,3,2,2,1,6,4,0,18,,,,,,,,,,,,,,,,,,,,
,,,,,18,2020-07-01_09h34.21.966,retriever_ti,2020.1.3,Win32,60,Chrome,1536,864,,,,,,,,,,,,,,,,,3,,,,,,,,,,,,,,,,,,,,,,,,,,,1542.01242,209,left,1.50578,holdfast    ,2,4,1,1,1,1542.029835,1542.029835,1544.52664,0,54,54,54,1,209,2,1,holdfast    ,camel         ,html/resources/sequences_IDs/B/04_holdfast.jpg,html/resources/sequences_IDs/A/03_camel.jpg,4,3,2,1,1,1,4,3,0,18,,,,,,,,,,,,,,,,,,,,
,,,,,18,2020-07-01_09h34.21.966,retriever_ti,2020.1.3,Win32,60,Chrome,1536,864,,,,,,,,,,,,,,,,,3,,,,,,,,,,,,,,,,,,,,,,,,,,,1545.626805,210,left,1.437715,dolphin     ,6,2,1,1,0,1545.659815,1545.659815,1548.15652,0,55,55,55,1,210,6,5,dolphin     ,wolf          ,html/resources/sequences_IDs/B/02_dolphin.jpg,html/resources/sequences_IDs/A/01_wolf.jpg,2,1,1,1,1,1,2,1,1,18,,,,,,,,,,,,,,,,,,,,
