instructionsLoop.thisRepN,instructionsLoop.thisTrialN,instructionsLoop.thisN,instructionsLoop.thisIndex,instructionsLoop.ran,participant,date,expName,psychopyVersion,OS,frameRate,browser,xResolution,yResolution,fix_onset,tprac,practiceKey.keys,practiceKey.rt,pracitem_chosen_name,acc_practice,P1_onsetPrac,P2_onsetPrac,onsetFeedbPrac,practiceTrials.thisRepN,practiceTrials.thisTrialN,practiceTrials.thisN,practiceTrials.thisIndex,practiceTrials.ran,P1,P2,Block,LocItem1,LocItem2,NameItem1,NameItem2,key_respAC_prac.keys,key_respAC_prac.corr,key_respAC_prac.rt,AC_acc,Attentions.thisRepN,Attentions.thisTrialN,Attentions.thisN,Attentions.thisIndex,Attentions.ran,Stim,Loc1,Loc2,Loc3,Loc4,CorrAns,keyDisturbed.keys,keyDisturbed.rt,repPractice.thisRepN,repPractice.thisTrialN,repPractice.thisN,repPractice.thisIndex,repPractice.ran,fixcross_onsetMain,trialNumber,key_resp.keys,key_resp.rt,item_chosen_name,item_chosen_value,item_chosen_ID,diff_chosen_minus_reject,acc_real,acc_feedback,P1_onset,P2_onset,feedb_onset,trials.thisRepN,trials.thisTrialN,trials.thisN,trials.thisIndex,trials.ran,Trial,ValueP1,ValueP2,P1name,P2name,P1Loc,P2Loc,P1id,P2id,Micro_categoryP1,Macro_categoryP1,Micro_categoryP2,Macro_categoryP2,ID_sequenceP1,ID_sequenceP2,InverseFb,pNumber,repBlocks.thisRepN,repBlocks.thisTrialN,repBlocks.thisN,repBlocks.thisIndex,repBlocks.ran,key_respAC.keys,key_respAC.corr,key_respAC.rt,trials_AC.thisRepN,trials_AC.thisTrialN,trials_AC.thisN,trials_AC.thisIndex,trials_AC.ran,Bonus,BonusLoop.thisRepN,BonusLoop.thisTrialN,BonusLoop.thisN,BonusLoop.thisIndex,BonusLoop.ran,comments
0,0,0,0,1,19,2020-07-01_09h48.38.471,retriever_ti,2020.1.3,Win32,60,Chrome,1829,1029,,,,,,,,,,,,,,,,,,,,,,,,,,,,,,,,,,,,,,,,,,,,,,,,,,,,,,,,,,,,,,,,,,,,,,,,,,,,,,,,,,,,,,,,,,,,,,,,,,
1,0,1,0,1,19,2020-07-01_09h48.38.471,retriever_ti,2020.1.3,Win32,60,Chrome,1829,1029,,,,,,,,,,,,,,,,,,,,,,,,,,,,,,,,,,,,,,,,,,,,,,,,,,,,,,,,,,,,,,,,,,,,,,,,,,,,,,,,,,,,,,,,,,,,,,,,,,
2,0,2,0,1,19,2020-07-01_09h48.38.471,retriever_ti,2020.1.3,Win32,60,Chrome,1829,1029,,,,,,,,,,,,,,,,,,,,,,,,,,,,,,,,,,,,,,,,,,,,,,,,,,,,,,,,,,,,,,,,,,,,,,,,,,,,,,,,,,,,,,,,,,,,,,,,,,
3,0,3,0,1,19,2020-07-01_09h48.38.471,retriever_ti,2020.1.3,Win32,60,Chrome,1829,1029,,,,,,,,,,,,,,,,,,,,,,,,,,,,,,,,,,,,,,,,,,,,,,,,,,,,,,,,,,,,,,,,,,,,,,,,,,,,,,,,,,,,,,,,,,,,,,,,,,
4,0,4,0,1,19,2020-07-01_09h48.38.471,retriever_ti,2020.1.3,Win32,60,Chrome,1829,1029,,,,,,,,,,,,,,,,,,,,,,,,,,,,,,,,,,,,,,,,,,,,,,,,,,,,,,,,,,,,,,,,,,,,,,,,,,,,,,,,,,,,,,,,,,,,,,,,,,
5,0,5,0,1,19,2020-07-01_09h48.38.471,retriever_ti,2020.1.3,Win32,60,Chrome,1829,1029,,,,,,,,,,,,,,,,,,,,,,,,,,,,,,,,,,,,,,,,,,,,,,,,,,,,,,,,,,,,,,,,,,,,,,,,,,,,,,,,,,,,,,,,,,,,,,,,,,
6,0,6,0,1,19,2020-07-01_09h48.38.471,retriever_ti,2020.1.3,Win32,60,Chrome,1829,1029,,,,,,,,,,,,,,,,,,,,,,,,,,,,,,,,,,,,,,,,,,,,,,,,,,,,,,,,,,,,,,,,,,,,,,,,,,,,,,,,,,,,,,,,,,,,,,,,,,
7,0,7,0,1,19,2020-07-01_09h48.38.471,retriever_ti,2020.1.3,Win32,60,Chrome,1829,1029,,,,,,,,,,,,,,,,,,,,,,,,,,,,,,,,,,,,,,,,,,,,,,,,,,,,,,,,,,,,,,,,,,,,,,,,,,,,,,,,,,,,,,,,,,,,,,,,,,
8,0,8,0,1,19,2020-07-01_09h48.38.471,retriever_ti,2020.1.3,Win32,60,Chrome,1829,1029,,,,,,,,,,,,,,,,,,,,,,,,,,,,,,,,,,,,,,,,,,,,,,,,,,,,,,,,,,,,,,,,,,,,,,,,,,,,,,,,,,,,,,,,,,,,,,,,,,
9,0,9,0,1,19,2020-07-01_09h48.38.471,retriever_ti,2020.1.3,Win32,60,Chrome,1829,1029,,,,,,,,,,,,,,,,,,,,,,,,,,,,,,,,,,,,,,,,,,,,,,,,,,,,,,,,,,,,,,,,,,,,,,,,,,,,,,,,,,,,,,,,,,,,,,,,,,
10,0,10,0,1,19,2020-07-01_09h48.38.471,retriever_ti,2020.1.3,Win32,60,Chrome,1829,1029,,,,,,,,,,,,,,,,,,,,,,,,,,,,,,,,,,,,,,,,,,,,,,,,,,,,,,,,,,,,,,,,,,,,,,,,,,,,,,,,,,,,,,,,,,,,,,,,,,
11,0,11,0,1,19,2020-07-01_09h48.38.471,retriever_ti,2020.1.3,Win32,60,Chrome,1829,1029,,,,,,,,,,,,,,,,,,,,,,,,,,,,,,,,,,,,,,,,,,,,,,,,,,,,,,,,,,,,,,,,,,,,,,,,,,,,,,,,,,,,,,,,,,,,,,,,,,
12,0,12,0,1,19,2020-07-01_09h48.38.471,retriever_ti,2020.1.3,Win32,60,Chrome,1829,1029,,,,,,,,,,,,,,,,,,,,,,,,,,,,,,,,,,,,,,,,,,,,,,,,,,,,,,,,,,,,,,,,,,,,,,,,,,,,,,,,,,,,,,,,,,,,,,,,,,
13,0,13,0,1,19,2020-07-01_09h48.38.471,retriever_ti,2020.1.3,Win32,60,Chrome,1829,1029,,,,,,,,,,,,,,,,,,,,,,,,,,,,,,,,,,,,,,,,,,,,,,,,,,,,,,,,,,,,,,,,,,,,,,,,,,,,,,,,,,,,,,,,,,,,,,,,,,
14,0,14,0,1,19,2020-07-01_09h48.38.471,retriever_ti,2020.1.3,Win32,60,Chrome,1829,1029,,,,,,,,,,,,,,,,,,,,,,,,,,,,,,,,,,,,,,,,,,,,,,,,,,,,,,,,,,,,,,,,,,,,,,,,,,,,,,,,,,,,,,,,,,,,,,,,,,
15,0,15,0,1,19,2020-07-01_09h48.38.471,retriever_ti,2020.1.3,Win32,60,Chrome,1829,1029,,,,,,,,,,,,,,,,,,,,,,,,,,,,,,,,,,,,,,,,,,,,,,,,,,,,,,,,,,,,,,,,,,,,,,,,,,,,,,,,,,,,,,,,,,,,,,,,,,
,,,,,19,2020-07-01_09h48.38.471,retriever_ti,2020.1.3,Win32,60,Chrome,1829,1029,19.688815,1,right,0.71964,canary,1,19.730855,19.730855,22.226015,0,0,0,0,1,2,5,1,html/resources/stimuli_practice_decision/04_beetle.jpg,html/resources/stimuli_practice_decision/02_canary.jpg,beetle,canary,,,,,,,,,,,,,,,,,,,,,,,,,,,,,,,,,,,,,,,,,,,,,,,,,,,,,,,,,,,,,,,,,,,,,,,,,,,,,
,,,,,19,2020-07-01_09h48.38.471,retriever_ti,2020.1.3,Win32,60,Chrome,1829,1029,22.826815,2,left,0.514195,rabbit,1,22.855105,22.855105,25.34169,0,1,1,1,1,4,3,1,html/resources/stimuli_practice_decision/01_rabbit.jpg,html/resources/stimuli_practice_decision/07_sock.jpg,rabbit,sock,,,,,,,,,,,,,,,,,,,,,,,,,,,,,,,,,,,,,,,,,,,,,,,,,,,,,,,,,,,,,,,,,,,,,,,,,,,,,
,,,,,19,2020-07-01_09h48.38.471,retriever_ti,2020.1.3,Win32,60,Chrome,1829,1029,26.34321,3,right,1.024365,beetle,0,26.362425,26.362425,28.85869,0,2,2,2,1,6,2,1,html/resources/stimuli_practice_decision/06_pullover.jpg,html/resources/stimuli_practice_decision/04_beetle.jpg,pullover,beetle,,,,,,,,,,,,,,,,,,,,,,,,,,,,,,,,,,,,,,,,,,,,,,,,,,,,,,,,,,,,,,,,,,,,,,,,,,,,,
,,,,,19,2020-07-01_09h48.38.471,retriever_ti,2020.1.3,Win32,60,Chrome,1829,1029,29.378525,4,right,0.00236,handmixer,0,29.41152,29.41152,31.910715,0,3,3,3,1,7,1,1,html/resources/stimuli_practice_decision/05_glasses.jpg,html/resources/stimuli_practice_decision/08_handmixer.jpg,glasses,handmixer,,,,,,,,,,,,,,,,,,,,,,,,,,,,,,,,,,,,,,,,,,,,,,,,,,,,,,,,,,,,,,,,,,,,,,,,,,,,,
,,,,,19,2020-07-01_09h48.38.471,retriever_ti,2020.1.3,Win32,60,Chrome,1829,1029,32.426705,5,left,0.63476,glasses,1,32.462245,32.462245,34.95934,0,4,4,4,1,7,6,1,html/resources/stimuli_practice_decision/05_glasses.jpg,html/resources/stimuli_practice_decision/06_pullover.jpg,glasses,pullover,,,,,,,,,,,,,,,,,,,,,,,,,,,,,,,,,,,,,,,,,,,,,,,,,,,,,,,,,,,,,,,,,,,,,,,,,,,,,
,,,,,19,2020-07-01_09h48.38.471,retriever_ti,2020.1.3,Win32,60,Chrome,1829,1029,35.962655,6,left,0.981445,rabbit,0,35.99843,35.99843,38.492985,0,5,5,5,1,4,7,1,html/resources/stimuli_practice_decision/01_rabbit.jpg,html/resources/stimuli_practice_decision/05_glasses.jpg,rabbit,glasses,,,,,,,,,,,,,,,,,,,,,,,,,,,,,,,,,,,,,,,,,,,,,,,,,,,,,,,,,,,,,,,,,,,,,,,,,,,,,
,,,,,19,2020-07-01_09h48.38.471,retriever_ti,2020.1.3,Win32,60,Chrome,1829,1029,39.011835,7,left,0.644205,handmixer,0,39.047185,39.047185,41.543085,0,6,6,6,1,1,2,1,html/resources/stimuli_practice_decision/08_handmixer.jpg,html/resources/stimuli_practice_decision/04_beetle.jpg,handmixer,beetle,,,,,,,,,,,,,,,,,,,,,,,,,,,,,,,,,,,,,,,,,,,,,,,,,,,,,,,,,,,,,,,,,,,,,,,,,,,,,
,,,,,19,2020-07-01_09h48.38.471,retriever_ti,2020.1.3,Win32,60,Chrome,1829,1029,42.54425,8,left,0.544785,rabbit,1,42.579365,42.579365,45.077105,0,7,7,7,1,4,3,1,html/resources/stimuli_practice_decision/01_rabbit.jpg,html/resources/stimuli_practice_decision/07_sock.jpg,rabbit,sock,,,,,,,,,,,,,,,,,,,,,,,,,,,,,,,,,,,,,,,,,,,,,,,,,,,,,,,,,,,,,,,,,,,,,,,,,,,,,
,,,,,19,2020-07-01_09h48.38.471,retriever_ti,2020.1.3,Win32,60,Chrome,1829,1029,,,,,,,,,,,,,,,,,,,,,,down,1,1.230415,1,0,0,0,1,1,html/resources/sequences_IDs/star.png,square ↑,circle →,star ↓,← triangle,down,,,,,,,,,,,,,,,,,,,,,,,,,,,,,,,,,,,,,,,,,,,,,,,,,,,,,,,,,,,,,,
,,,,,19,2020-07-01_09h48.38.471,retriever_ti,2020.1.3,Win32,60,Chrome,1829,1029,,,,,,,,,,,,,,,,,,,,,,left,1,1.99434,1,0,1,1,2,1,html/resources/sequences_IDs/square1.png,star ↑,triangle →,circle ↓,← square,left,,,,,,,,,,,,,,,,,,,,,,,,,,,,,,,,,,,,,,,,,,,,,,,,,,,,,,,,,,,,,,
,,,,,19,2020-07-01_09h48.38.471,retriever_ti,2020.1.3,Win32,60,Chrome,1829,1029,,,,,,,,,,,,,,,,,,,,,,up,1,0.6758,1,0,2,2,0,1,html/resources/sequences_IDs/circle.png,circle ↑,square →,triangle ↓,← star ,up,,,,,,,,,,,,,,,,,,,,,,,,,,,,,,,,,,,,,,,,,,,,,,,,,,,,,,,,,,,,,,
,,,,,19,2020-07-01_09h48.38.471,retriever_ti,2020.1.3,Win32,60,Chrome,1829,1029,,,,,,,,,,,,,,,,,,,,,,down,1,0.93123,1,0,3,3,3,1,html/resources/sequences_IDs/triangle.png,star ↑,square →,triangle ↓,← circle,down,,,,,,,,,,,,,,,,,,,,,,,,,,,,,,,,,,,,,,,,,,,,,,,,,,,,,,,,,,,,,,
,,,,,19,2020-07-01_09h48.38.471,retriever_ti,2020.1.3,Win32,60,Chrome,1829,1029,,,,,,,,,,,,,,,,,,,,,,,,,,,,,,,,,,,,,0,2.081405,0,0,0,0,1,,,,,,,,,,,,,,,,,,,,,,,,,,,,,,,,,,,,,,,,,,,,,,,,,,,,,,,
,,,,,19,2020-07-01_09h48.38.471,retriever_ti,2020.1.3,Win32,60,Chrome,1829,1029,55.474215,9,right,1.427125,glasses,1,55.51418,55.51418,58.012175,0,0,0,0,1,6,7,1,html/resources/stimuli_practice_decision/06_pullover.jpg,html/resources/stimuli_practice_decision/05_glasses.jpg,pullover,glasses,,,,,,,,,,,,,,,,,,,,,,,,,,,,,,,,,,,,,,,,,,,,,,,,,,,,,,,,,,,,,,,,,,,,,,,,,,,,,
,,,,,19,2020-07-01_09h48.38.471,retriever_ti,2020.1.3,Win32,60,Chrome,1829,1029,59.01565,10,right,0.69593,beetle,0,59.04977,59.04977,61.545525,0,1,1,1,1,6,2,1,html/resources/stimuli_practice_decision/06_pullover.jpg,html/resources/stimuli_practice_decision/04_beetle.jpg,pullover,beetle,,,,,,,,,,,,,,,,,,,,,,,,,,,,,,,,,,,,,,,,,,,,,,,,,,,,,,,,,,,,,,,,,,,,,,,,,,,,,
,,,,,19,2020-07-01_09h48.38.471,retriever_ti,2020.1.3,Win32,60,Chrome,1829,1029,62.0631,11,left,0.488795,canary,0,62.098345,62.098345,64.59566,0,2,2,2,1,5,6,1,html/resources/stimuli_practice_decision/02_canary.jpg,html/resources/stimuli_practice_decision/06_pullover.jpg,canary,pullover,,,,,,,,,,,,,,,,,,,,,,,,,,,,,,,,,,,,,,,,,,,,,,,,,,,,,,,,,,,,,,,,,,,,,,,,,,,,,
,,,,,19,2020-07-01_09h48.38.471,retriever_ti,2020.1.3,Win32,60,Chrome,1829,1029,65.59869,12,right,0.875565,glasses,0,65.615375,65.615375,68.112805,0,3,3,3,1,8,7,1,html/resources/stimuli_practice_decision/03_squirrel.jpg,html/resources/stimuli_practice_decision/05_glasses.jpg,squirrel,glasses,,,,,,,,,,,,,,,,,,,,,,,,,,,,,,,,,,,,,,,,,,,,,,,,,,,,,,,,,,,,,,,,,,,,,,,,,,,,,
,,,,,19,2020-07-01_09h48.38.471,retriever_ti,2020.1.3,Win32,60,Chrome,1829,1029,69.11488,13,left,0.505415,canary,1,69.132975,69.132975,71.62982,0,4,4,4,1,5,3,1,html/resources/stimuli_practice_decision/02_canary.jpg,html/resources/stimuli_practice_decision/07_sock.jpg,canary,sock,,,,,,,,,,,,,,,,,,,,,,,,,,,,,,,,,,,,,,,,,,,,,,,,,,,,,,,,,,,,,,,,,,,,,,,,,,,,,
,,,,,19,2020-07-01_09h48.38.471,retriever_ti,2020.1.3,Win32,60,Chrome,1829,1029,72.14742,14,left,1.161685,glasses,0,72.165855,72.165855,74.66338,0,5,5,5,1,7,8,1,html/resources/stimuli_practice_decision/05_glasses.jpg,html/resources/stimuli_practice_decision/03_squirrel.jpg,glasses,squirrel,,,,,,,,,,,,,,,,,,,,,,,,,,,,,,,,,,,,,,,,,,,,,,,,,,,,,,,,,,,,,,,,,,,,,,,,,,,,,
,,,,,19,2020-07-01_09h48.38.471,retriever_ti,2020.1.3,Win32,60,Chrome,1829,1029,75.66578,15,left,0.54497,canary,1,75.682725,75.682725,78.18041,0,6,6,6,1,5,4,1,html/resources/stimuli_practice_decision/02_canary.jpg,html/resources/stimuli_practice_decision/01_rabbit.jpg,canary,rabbit,,,,,,,,,,,,,,,,,,,,,,,,,,,,,,,,,,,,,,,,,,,,,,,,,,,,,,,,,,,,,,,,,,,,,,,,,,,,,
,,,,,19,2020-07-01_09h48.38.471,retriever_ti,2020.1.3,Win32,60,Chrome,1829,1029,79.18235,16,left,0.461685,canary,1,79.199405,79.199405,81.697525,0,7,7,7,1,5,3,1,html/resources/stimuli_practice_decision/02_canary.jpg,html/resources/stimuli_practice_decision/07_sock.jpg,canary,sock,,,,,,,,,,,,,,,,,,,,,,,,,,,,,,,,,,,,,,,,,,,,,,,,,,,,,,,,,,,,,,,,,,,,,,,,,,,,,
,,,,,19,2020-07-01_09h48.38.471,retriever_ti,2020.1.3,Win32,60,Chrome,1829,1029,,,,,,,,,,,,,,,,,,,,,,up,1,1.3735,1,0,0,0,0,1,html/resources/sequences_IDs/circle.png,circle ↑,square →,triangle ↓,← star ,up,,,,,,,,,,,,,,,,,,,,,,,,,,,,,,,,,,,,,,,,,,,,,,,,,,,,,,,,,,,,,,
,,,,,19,2020-07-01_09h48.38.471,retriever_ti,2020.1.3,Win32,60,Chrome,1829,1029,,,,,,,,,,,,,,,,,,,,,,down,1,0.75598,1,0,1,1,1,1,html/resources/sequences_IDs/star.png,square ↑,circle →,star ↓,← triangle,down,,,,,,,,,,,,,,,,,,,,,,,,,,,,,,,,,,,,,,,,,,,,,,,,,,,,,,,,,,,,,,
,,,,,19,2020-07-01_09h48.38.471,retriever_ti,2020.1.3,Win32,60,Chrome,1829,1029,,,,,,,,,,,,,,,,,,,,,,down,1,1.013265,1,0,2,2,3,1,html/resources/sequences_IDs/triangle.png,star ↑,square →,triangle ↓,← circle,down,,,,,,,,,,,,,,,,,,,,,,,,,,,,,,,,,,,,,,,,,,,,,,,,,,,,,,,,,,,,,,
,,,,,19,2020-07-01_09h48.38.471,retriever_ti,2020.1.3,Win32,60,Chrome,1829,1029,,,,,,,,,,,,,,,,,,,,,,left,1,0.932415,1,0,3,3,2,1,html/resources/sequences_IDs/square1.png,star ↑,triangle →,circle ↓,← square,left,,,,,,,,,,,,,,,,,,,,,,,,,,,,,,,,,,,,,,,,,,,,,,,,,,,,,,,,,,,,,,
,,,,,19,2020-07-01_09h48.38.471,retriever_ti,2020.1.3,Win32,60,Chrome,1829,1029,,,,,,,,,,,,,,,,,,,,,,,,,,,,,,,,,,,,,0,1.309455,1,0,1,0,1,,,,,,,,,,,,,,,,,,,,,,,,,,,,,,,,,,,,,,,,,,,,,,,,,,,,,,,
,,,,,19,2020-07-01_09h48.38.471,retriever_ti,2020.1.3,Win32,60,Chrome,1829,1029,,,,,,,,,,,,,,,,,1,,,,,,,,,,,,,,,,,,,,,,,,,,,95.02895,1,right,0.783835,dress         ,3,7,-2,0,3,95.05236,95.05236,97.550595,0,0,0,0,1,1,5,3,scarf         ,dress         ,html/resources/sequences_IDs/A/06_scarf.jpg,html/resources/sequences_IDs/A/07_dress.jpg,6,7,3,2,3,2,5,6,0,19,,,,,,,,,,,,,,,,,,,,
,,,,,19,2020-07-01_09h48.38.471,retriever_ti,2020.1.3,Win32,60,Chrome,1829,1029,,,,,,,,,,,,,,,,,1,,,,,,,,,,,,,,,,,,,,,,,,,,,98.16975,2,left,0.87319,parrot      ,8,5,2,1,3,98.203095,98.203095,100.699955,0,1,1,1,1,2,8,6,parrot      ,radio       ,html/resources/sequences_IDs/B/05_parrot.jpg,html/resources/sequences_IDs/B/10_radio.jpg,5,10,2,1,4,2,4,8,0,19,,,,,,,,,,,,,,,,,,,,
,,,,,19,2020-07-01_09h48.38.471,retriever_ti,2020.1.3,Win32,60,Chrome,1829,1029,,,,,,,,,,,,,,,,,1,,,,,,,,,,,,,,,,,,,,,,,,,,,101.31734,3,left,0.782145,dress         ,3,7,-1,0,0,101.33557,101.33557,103.833465,0,2,2,2,1,3,3,4,dress         ,phone       ,html/resources/sequences_IDs/A/07_dress.jpg,html/resources/sequences_IDs/B/09_phone.jpg,7,9,3,2,4,2,6,7,0,19,,,,,,,,,,,,,,,,,,,,
,,,,,19,2020-07-01_09h48.38.471,retriever_ti,2020.1.3,Win32,60,Chrome,1829,1029,,,,,,,,,,,,,,,,,1,,,,,,,,,,,,,,,,,,,,,,,,,,,104.93551,4,left,0.621145,seaturtle     ,1,2,-1,0,1,104.952525,104.952525,107.45041,0,3,3,3,1,4,1,2,seaturtle     ,redfox      ,html/resources/sequences_IDs/A/02_seaturtle.jpg,html/resources/sequences_IDs/B/01_redfox.jpg,2,1,2,1,1,1,2,1,1,19,,,,,,,,,,,,,,,,,,,,
,,,,,19,2020-07-01_09h48.38.471,retriever_ti,2020.1.3,Win32,60,Chrome,1829,1029,,,,,,,,,,,,,,,,,1,,,,,,,,,,,,,,,,,,,,,,,,,,,108.55244,5,left,0.575995,parrot      ,8,5,1,1,1,108.58592,108.58592,111.083705,0,4,4,4,1,5,8,7,parrot      ,clownfish     ,html/resources/sequences_IDs/B/05_parrot.jpg,html/resources/sequences_IDs/A/04_clownfish.jpg,5,4,2,1,2,1,4,3,0,19,,,,,,,,,,,,,,,,,,,,
,,,,,19,2020-07-01_09h48.38.471,retriever_ti,2020.1.3,Win32,60,Chrome,1829,1029,,,,,,,,,,,,,,,,,1,,,,,,,,,,,,,,,,,,,,,,,,,,,112.186415,6,right,0.885625,dress         ,3,7,-1,0,1,112.21967,112.21967,114.71784,0,5,5,5,1,6,4,3,phone       ,dress         ,html/resources/sequences_IDs/B/09_phone.jpg,html/resources/sequences_IDs/A/07_dress.jpg,9,7,4,2,3,2,7,6,1,19,,,,,,,,,,,,,,,,,,,,
,,,,,19,2020-07-01_09h48.38.471,retriever_ti,2020.1.3,Win32,60,Chrome,1829,1029,,,,,,,,,,,,,,,,,1,,,,,,,,,,,,,,,,,,,,,,,,,,,115.81851,7,left,0.65887,redfox      ,2,1,-5,0,3,115.85341,115.85341,118.351325,0,6,6,6,1,7,2,7,redfox      ,clownfish     ,html/resources/sequences_IDs/B/01_redfox.jpg,html/resources/sequences_IDs/A/04_clownfish.jpg,1,4,1,1,2,1,1,3,0,19,,,,,,,,,,,,,,,,,,,,
,,,,,19,2020-07-01_09h48.38.471,retriever_ti,2020.1.3,Win32,60,Chrome,1829,1029,,,,,,,,,,,,,,,,,1,,,,,,,,,,,,,,,,,,,,,,,,,,,118.97016,8,left,0.91505,radio       ,6,10,-2,0,3,119.00377,119.00377,121.50167,0,7,7,7,1,8,6,8,radio       ,parrot      ,html/resources/sequences_IDs/B/10_radio.jpg,html/resources/sequences_IDs/B/05_parrot.jpg,10,5,4,2,2,1,8,4,0,19,,,,,,,,,,,,,,,,,,,,
,,,,,19,2020-07-01_09h48.38.471,retriever_ti,2020.1.3,Win32,60,Chrome,1829,1029,,,,,,,,,,,,,,,,,1,,,,,,,,,,,,,,,,,,,,,,,,,,,122.11932,9,right,0.616205,radio       ,6,10,3,1,3,122.13729,122.13729,124.63539,0,8,8,8,1,9,3,6,dress         ,radio       ,html/resources/sequences_IDs/A/07_dress.jpg,html/resources/sequences_IDs/B/10_radio.jpg,7,10,3,2,4,2,6,8,0,19,,,,,,,,,,,,,,,,,,,,
,,,,,19,2020-07-01_09h48.38.471,retriever_ti,2020.1.3,Win32,60,Chrome,1829,1029,,,,,,,,,,,,,,,,,1,,,,,,,,,,,,,,,,,,,,,,,,,,,125.253115,10,right,0.766705,radio       ,6,10,1,1,1,125.271025,125.271025,127.768765,0,9,9,9,1,10,5,6,scarf         ,radio       ,html/resources/sequences_IDs/A/06_scarf.jpg,html/resources/sequences_IDs/B/10_radio.jpg,6,10,3,2,4,2,5,8,0,19,,,,,,,,,,,,,,,,,,,,
,,,,,19,2020-07-01_09h48.38.471,retriever_ti,2020.1.3,Win32,60,Chrome,1829,1029,,,,,,,,,,,,,,,,,1,,,,,,,,,,,,,,,,,,,,,,,,,,,128.87139,11,left,0.710215,parrot      ,8,5,1,1,0,128.888625,128.888625,131.386015,0,10,10,10,1,11,8,7,parrot      ,clownfish     ,html/resources/sequences_IDs/B/05_parrot.jpg,html/resources/sequences_IDs/A/04_clownfish.jpg,5,4,2,1,2,1,4,3,1,19,,,,,,,,,,,,,,,,,,,,
,,,,,19,2020-07-01_09h48.38.471,retriever_ti,2020.1.3,Win32,60,Chrome,1829,1029,,,,,,,,,,,,,,,,,1,,,,,,,,,,,,,,,,,,,,,,,,,,,132.48849,12,right,0.66538,scarf         ,5,6,1,1,1,132.50551,132.50551,135.003475,0,11,11,11,1,12,4,5,phone       ,scarf         ,html/resources/sequences_IDs/B/09_phone.jpg,html/resources/sequences_IDs/A/06_scarf.jpg,9,6,4,2,3,2,7,5,0,19,,,,,,,,,,,,,,,,,,,,
,,,,,19,2020-07-01_09h48.38.471,retriever_ti,2020.1.3,Win32,60,Chrome,1829,1029,,,,,,,,,,,,,,,,,1,,,,,,,,,,,,,,,,,,,,,,,,,,,136.104335,13,left,0.759115,dress         ,3,7,1,1,0,136.12225,136.12225,138.61998,0,12,12,12,1,13,3,2,dress         ,redfox      ,html/resources/sequences_IDs/A/07_dress.jpg,html/resources/sequences_IDs/B/01_redfox.jpg,7,1,3,2,1,1,6,1,1,19,,,,,,,,,,,,,,,,,,,,
,,,,,19,2020-07-01_09h48.38.471,retriever_ti,2020.1.3,Win32,60,Chrome,1829,1029,,,,,,,,,,,,,,,,,1,,,,,,,,,,,,,,,,,,,,,,,,,,,139.722545,14,right,0.652925,clownfish     ,7,4,4,1,3,139.7397,139.7397,142.23734,0,13,13,13,1,14,3,7,dress         ,clownfish     ,html/resources/sequences_IDs/A/07_dress.jpg,html/resources/sequences_IDs/A/04_clownfish.jpg,7,4,3,2,2,1,6,3,0,19,,,,,,,,,,,,,,,,,,,,
,,,,,19,2020-07-01_09h48.38.471,retriever_ti,2020.1.3,Win32,60,Chrome,1829,1029,,,,,,,,,,,,,,,,,1,,,,,,,,,,,,,,,,,,,,,,,,,,,142.856115,15,left,0.47823,clownfish     ,7,4,4,1,3,142.87353,142.87353,145.370705,0,14,14,14,1,15,7,3,clownfish     ,dress         ,html/resources/sequences_IDs/A/04_clownfish.jpg,html/resources/sequences_IDs/A/07_dress.jpg,4,7,2,1,3,2,3,6,0,19,,,,,,,,,,,,,,,,,,,,
,,,,,19,2020-07-01_09h48.38.471,retriever_ti,2020.1.3,Win32,60,Chrome,1829,1029,,,,,,,,,,,,,,,,,1,,,,,,,,,,,,,,,,,,,,,,,,,,,145.98845,16,left,0.885545,parrot      ,8,5,3,1,3,146.02302,146.02302,148.521195,0,15,15,15,1,16,8,5,parrot      ,scarf         ,html/resources/sequences_IDs/B/05_parrot.jpg,html/resources/sequences_IDs/A/06_scarf.jpg,5,6,2,1,3,2,4,5,0,19,,,,,,,,,,,,,,,,,,,,
,,,,,19,2020-07-01_09h48.38.471,retriever_ti,2020.1.3,Win32,60,Chrome,1829,1029,,,,,,,,,,,,,,,,,1,,,,,,,,,,,,,,,,,,,,,,,,,,,149.140085,17,right,0.564775,parrot      ,8,5,5,1,3,149.156795,149.156795,151.65489,0,16,16,16,1,17,3,8,dress         ,parrot      ,html/resources/sequences_IDs/A/07_dress.jpg,html/resources/sequences_IDs/B/05_parrot.jpg,7,5,3,2,2,1,6,4,0,19,,,,,,,,,,,,,,,,,,,,
,,,,,19,2020-07-01_09h48.38.471,retriever_ti,2020.1.3,Win32,60,Chrome,1829,1029,,,,,,,,,,,,,,,,,1,,,,,,,,,,,,,,,,,,,,,,,,,,,152.27372,18,left,1.287005,clownfish     ,7,4,1,1,1,152.290825,152.290825,155.27195,0,17,17,17,1,18,7,6,clownfish     ,radio       ,html/resources/sequences_IDs/A/04_clownfish.jpg,html/resources/sequences_IDs/B/10_radio.jpg,4,10,2,1,4,2,3,8,0,19,,,,,,,,,,,,,,,,,,,,
,,,,,19,2020-07-01_09h48.38.471,retriever_ti,2020.1.3,Win32,60,Chrome,1829,1029,,,,,,,,,,,,,,,,,1,,,,,,,,,,,,,,,,,,,,,,,,,,,156.374165,19,right,0.501745,parrot      ,8,5,3,1,3,156.390945,156.390945,158.888775,0,18,18,18,1,19,5,8,scarf         ,parrot      ,html/resources/sequences_IDs/A/06_scarf.jpg,html/resources/sequences_IDs/B/05_parrot.jpg,6,5,3,2,2,1,5,4,0,19,,,,,,,,,,,,,,,,,,,,
,,,,,19,2020-07-01_09h48.38.471,retriever_ti,2020.1.3,Win32,60,Chrome,1829,1029,,,,,,,,,,,,,,,,,1,,,,,,,,,,,,,,,,,,,,,,,,,,,159.506455,20,left,0.87075,radio       ,6,10,1,1,0,159.541335,159.541335,162.039415,0,19,19,19,1,20,6,5,radio       ,scarf         ,html/resources/sequences_IDs/B/10_radio.jpg,html/resources/sequences_IDs/A/06_scarf.jpg,10,6,4,2,3,2,8,5,1,19,,,,,,,,,,,,,,,,,,,,
,,,,,19,2020-07-01_09h48.38.471,retriever_ti,2020.1.3,Win32,60,Chrome,1829,1029,,,,,,,,,,,,,,,,,1,,,,,,,,,,,,,,,,,,,,,,,,,,,163.14209,21,left,0.85812,redfox      ,2,1,-1,0,0,163.15883,163.15883,165.656525,0,20,20,20,1,21,2,3,redfox      ,dress         ,html/resources/sequences_IDs/B/01_redfox.jpg,html/resources/sequences_IDs/A/07_dress.jpg,1,7,1,1,3,2,1,6,0,19,,,,,,,,,,,,,,,,,,,,
,,,,,19,2020-07-01_09h48.38.471,retriever_ti,2020.1.3,Win32,60,Chrome,1829,1029,,,,,,,,,,,,,,,,,1,,,,,,,,,,,,,,,,,,,,,,,,,,,166.759025,22,right,0.541145,seaturtle     ,1,2,-6,0,3,166.792345,166.792345,169.28997,0,21,21,21,1,22,7,1,clownfish     ,seaturtle     ,html/resources/sequences_IDs/A/04_clownfish.jpg,html/resources/sequences_IDs/A/02_seaturtle.jpg,4,2,2,1,2,1,3,2,0,19,,,,,,,,,,,,,,,,,,,,
,,,,,19,2020-07-01_09h48.38.471,retriever_ti,2020.1.3,Win32,60,Chrome,1829,1029,,,,,,,,,,,,,,,,,1,,,,,,,,,,,,,,,,,,,,,,,,,,,169.907585,23,left,0.561245,redfox      ,2,1,-4,0,3,169.94222,169.94222,172.44019,0,22,22,22,1,23,2,6,redfox      ,radio       ,html/resources/sequences_IDs/B/01_redfox.jpg,html/resources/sequences_IDs/B/10_radio.jpg,1,10,1,1,4,2,1,8,0,19,,,,,,,,,,,,,,,,,,,,
,,,,,19,2020-07-01_09h48.38.471,retriever_ti,2020.1.3,Win32,60,Chrome,1829,1029,,,,,,,,,,,,,,,,,1,,,,,,,,,,,,,,,,,,,,,,,,,,,173.059375,24,left,0.626665,parrot      ,8,5,1,1,1,173.07631,173.07631,175.574005,0,23,23,23,1,24,8,7,parrot      ,clownfish     ,html/resources/sequences_IDs/B/05_parrot.jpg,html/resources/sequences_IDs/A/04_clownfish.jpg,5,4,2,1,2,1,4,3,0,19,,,,,,,,,,,,,,,,,,,,
,,,,,19,2020-07-01_09h48.38.471,retriever_ti,2020.1.3,Win32,60,Chrome,1829,1029,,,,,,,,,,,,,,,,,1,,,,,,,,,,,,,,,,,,,,,,,,,,,176.676295,25,left,0.628385,seaturtle     ,1,2,-1,0,0,176.692985,176.692985,179.19113,0,24,24,24,1,25,1,2,seaturtle     ,redfox      ,html/resources/sequences_IDs/A/02_seaturtle.jpg,html/resources/sequences_IDs/B/01_redfox.jpg,2,1,2,1,1,1,2,1,0,19,,,,,,,,,,,,,,,,,,,,
,,,,,19,2020-07-01_09h48.38.471,retriever_ti,2020.1.3,Win32,60,Chrome,1829,1029,,,,,,,,,,,,,,,,,1,,,,,,,,,,,,,,,,,,,,,,,,,,,180.293265,26,left,1.84554,radio       ,6,10,1,1,1,180.310485,180.310485,182.808085,0,25,25,25,1,26,6,5,radio       ,scarf         ,html/resources/sequences_IDs/B/10_radio.jpg,html/resources/sequences_IDs/A/06_scarf.jpg,10,6,4,2,3,2,8,5,0,19,,,,,,,,,,,,,,,,,,,,
,,,,,19,2020-07-01_09h48.38.471,retriever_ti,2020.1.3,Win32,60,Chrome,1829,1029,,,,,,,,,,,,,,,,,1,,,,,,,,,,,,,,,,,,,,,,,,,,,183.909205,27,left,0.55328,radio       ,6,10,1,1,1,183.94401,183.94401,186.44182,0,26,26,26,1,27,6,5,radio       ,scarf         ,html/resources/sequences_IDs/B/10_radio.jpg,html/resources/sequences_IDs/A/06_scarf.jpg,10,6,4,2,3,2,8,5,0,19,,,,,,,,,,,,,,,,,,,,
,,,,,19,2020-07-01_09h48.38.471,retriever_ti,2020.1.3,Win32,60,Chrome,1829,1029,,,,,,,,,,,,,,,,,1,,,,,,,,,,,,,,,,,,,,,,,,,,,187.544115,28,right,0.545695,radio       ,6,10,1,1,1,187.560965,187.560965,190.059035,0,27,27,27,1,28,5,6,scarf         ,radio       ,html/resources/sequences_IDs/A/06_scarf.jpg,html/resources/sequences_IDs/B/10_radio.jpg,6,10,3,2,4,2,5,8,0,19,,,,,,,,,,,,,,,,,,,,
,,,,,19,2020-07-01_09h48.38.471,retriever_ti,2020.1.3,Win32,60,Chrome,1829,1029,,,,,,,,,,,,,,,,,1,,,,,,,,,,,,,,,,,,,,,,,,,,,191.16157,29,left,0.57597,seaturtle     ,1,2,-6,0,3,191.178415,191.178415,193.675945,0,28,28,28,1,29,1,7,seaturtle     ,clownfish     ,html/resources/sequences_IDs/A/02_seaturtle.jpg,html/resources/sequences_IDs/A/04_clownfish.jpg,2,4,2,1,2,1,2,3,0,19,,,,,,,,,,,,,,,,,,,,
,,,,,19,2020-07-01_09h48.38.471,retriever_ti,2020.1.3,Win32,60,Chrome,1829,1029,,,,,,,,,,,,,,,,,1,,,,,,,,,,,,,,,,,,,,,,,,,,,194.2946,30,right,0.637665,parrot      ,8,5,1,1,1,194.32823,194.32823,196.82623,0,29,29,29,1,30,7,8,clownfish     ,parrot      ,html/resources/sequences_IDs/A/04_clownfish.jpg,html/resources/sequences_IDs/B/05_parrot.jpg,4,5,2,1,2,1,3,4,0,19,,,,,,,,,,,,,,,,,,,,
,,,,,19,2020-07-01_09h48.38.471,retriever_ti,2020.1.3,Win32,60,Chrome,1829,1029,,,,,,,,,,,,,,,,,1,,,,,,,,,,,,,,,,,,,,,,,,,,,197.927035,31,right,0.538995,seaturtle     ,1,2,-1,0,0,197.94536,197.94536,200.443275,0,30,30,30,1,31,2,1,redfox      ,seaturtle     ,html/resources/sequences_IDs/B/01_redfox.jpg,html/resources/sequences_IDs/A/02_seaturtle.jpg,1,2,1,1,2,1,1,2,0,19,,,,,,,,,,,,,,,,,,,,
,,,,,19,2020-07-01_09h48.38.471,retriever_ti,2020.1.3,Win32,60,Chrome,1829,1029,,,,,,,,,,,,,,,,,1,,,,,,,,,,,,,,,,,,,,,,,,,,,201.54544,32,left,0.59314,seaturtle     ,1,2,-4,0,3,201.56237,201.56237,204.06016,0,31,31,31,1,32,1,5,seaturtle     ,scarf         ,html/resources/sequences_IDs/A/02_seaturtle.jpg,html/resources/sequences_IDs/A/06_scarf.jpg,2,6,2,1,3,2,2,5,0,19,,,,,,,,,,,,,,,,,,,,
,,,,,19,2020-07-01_09h48.38.471,retriever_ti,2020.1.3,Win32,60,Chrome,1829,1029,,,,,,,,,,,,,,,,,1,,,,,,,,,,,,,,,,,,,,,,,,,,,204.6793,33,left,0.798745,phone       ,4,9,-1,0,0,204.6961,204.6961,207.19401,0,32,32,32,1,33,4,5,phone       ,scarf         ,html/resources/sequences_IDs/B/09_phone.jpg,html/resources/sequences_IDs/A/06_scarf.jpg,9,6,4,2,3,2,7,5,0,19,,,,,,,,,,,,,,,,,,,,
,,,,,19,2020-07-01_09h48.38.471,retriever_ti,2020.1.3,Win32,60,Chrome,1829,1029,,,,,,,,,,,,,,,,,1,,,,,,,,,,,,,,,,,,,,,,,,,,,208.296045,34,right,0.686105,scarf         ,5,6,1,1,0,208.31294,208.31294,210.81102,0,33,33,33,1,34,4,5,phone       ,scarf         ,html/resources/sequences_IDs/B/09_phone.jpg,html/resources/sequences_IDs/A/06_scarf.jpg,9,6,4,2,3,2,7,5,1,19,,,,,,,,,,,,,,,,,,,,
,,,,,19,2020-07-01_09h48.38.471,retriever_ti,2020.1.3,Win32,60,Chrome,1829,1029,,,,,,,,,,,,,,,,,1,,,,,,,,,,,,,,,,,,,,,,,,,,,211.912075,35,right,1.04315,redfox      ,2,1,-5,0,3,211.946695,211.946695,214.444675,0,34,34,34,1,35,7,2,clownfish     ,redfox      ,html/resources/sequences_IDs/A/04_clownfish.jpg,html/resources/sequences_IDs/B/01_redfox.jpg,4,1,2,1,1,1,3,1,0,19,,,,,,,,,,,,,,,,,,,,
,,,,,19,2020-07-01_09h48.38.471,retriever_ti,2020.1.3,Win32,60,Chrome,1829,1029,,,,,,,,,,,,,,,,,1,,,,,,,,,,,,,,,,,,,,,,,,,,,215.047165,36,left,0.49759,seaturtle     ,1,2,-3,0,3,215.064455,215.064455,217.56174,0,35,35,35,1,36,1,4,seaturtle     ,phone       ,html/resources/sequences_IDs/A/02_seaturtle.jpg,html/resources/sequences_IDs/B/09_phone.jpg,2,9,2,1,4,2,2,7,0,19,,,,,,,,,,,,,,,,,,,,
,,,,,19,2020-07-01_09h48.38.471,retriever_ti,2020.1.3,Win32,60,Chrome,1829,1029,,,,,,,,,,,,,,,,,1,,,,,,,,,,,,,,,,,,,,,,,,,,,218.179315,37,left,0.574905,parrot      ,8,5,4,1,3,218.19766,218.19766,220.69542,0,36,36,36,1,37,8,4,parrot      ,phone       ,html/resources/sequences_IDs/B/05_parrot.jpg,html/resources/sequences_IDs/B/09_phone.jpg,5,9,2,1,4,2,4,7,0,19,,,,,,,,,,,,,,,,,,,,
,,,,,19,2020-07-01_09h48.38.471,retriever_ti,2020.1.3,Win32,60,Chrome,1829,1029,,,,,,,,,,,,,,,,,1,,,,,,,,,,,,,,,,,,,,,,,,,,,221.31443,38,left,0.63091,radio       ,6,10,-1,0,0,221.330995,221.330995,223.82909,0,37,37,37,1,38,6,7,radio       ,clownfish     ,html/resources/sequences_IDs/B/10_radio.jpg,html/resources/sequences_IDs/A/04_clownfish.jpg,10,4,4,2,2,1,8,3,0,19,,,,,,,,,,,,,,,,,,,,
,,,,,19,2020-07-01_09h48.38.471,retriever_ti,2020.1.3,Win32,60,Chrome,1829,1029,,,,,,,,,,,,,,,,,1,,,,,,,,,,,,,,,,,,,,,,,,,,,224.931805,39,left,1.519135,phone       ,4,9,1,1,1,224.94814,224.94814,227.44604,0,38,38,38,1,39,4,3,phone       ,dress         ,html/resources/sequences_IDs/B/09_phone.jpg,html/resources/sequences_IDs/A/07_dress.jpg,9,7,4,2,3,2,7,6,0,19,,,,,,,,,,,,,,,,,,,,
,,,,,19,2020-07-01_09h48.38.471,retriever_ti,2020.1.3,Win32,60,Chrome,1829,1029,,,,,,,,,,,,,,,,,1,,,,,,,,,,,,,,,,,,,,,,,,,,,228.5482,40,right,0.918975,redfox      ,2,1,-1,0,0,228.5819,228.5819,231.079905,0,39,39,39,1,40,3,2,dress         ,redfox      ,html/resources/sequences_IDs/A/07_dress.jpg,html/resources/sequences_IDs/B/01_redfox.jpg,7,1,3,2,1,1,6,1,0,19,,,,,,,,,,,,,,,,,,,,
,,,,,19,2020-07-01_09h48.38.471,retriever_ti,2020.1.3,Win32,60,Chrome,1829,1029,,,,,,,,,,,,,,,,,1,,,,,,,,,,,,,,,,,,,,,,,,,,,232.180915,41,left,0.916215,dress         ,3,7,1,1,1,232.215845,232.215845,234.7137,0,40,40,40,1,41,3,2,dress         ,redfox      ,html/resources/sequences_IDs/A/07_dress.jpg,html/resources/sequences_IDs/B/01_redfox.jpg,7,1,3,2,1,1,6,1,0,19,,,,,,,,,,,,,,,,,,,,
,,,,,19,2020-07-01_09h48.38.471,retriever_ti,2020.1.3,Win32,60,Chrome,1829,1029,,,,,,,,,,,,,,,,,1,,,,,,,,,,,,,,,,,,,,,,,,,,,235.815935,42,right,1.21321,radio       ,6,10,2,1,3,235.84956,235.84956,238.347525,0,41,41,41,1,42,4,6,phone       ,radio       ,html/resources/sequences_IDs/B/09_phone.jpg,html/resources/sequences_IDs/B/10_radio.jpg,9,10,4,2,4,2,7,8,0,19,,,,,,,,,,,,,,,,,,,,
,,,,,19,2020-07-01_09h48.38.471,retriever_ti,2020.1.3,Win32,60,Chrome,1829,1029,,,,,,,,,,,,,,,,,1,,,,,,,,,,,,,,,,,,,,,,,,,,,238.96625,43,left,1.246925,redfox      ,2,1,-2,0,3,238.98394,238.98394,241.48109,0,42,42,42,1,43,2,4,redfox      ,phone       ,html/resources/sequences_IDs/B/01_redfox.jpg,html/resources/sequences_IDs/B/09_phone.jpg,1,9,1,1,4,2,1,7,0,19,,,,,,,,,,,,,,,,,,,,
,,,,,19,2020-07-01_09h48.38.471,retriever_ti,2020.1.3,Win32,60,Chrome,1829,1029,,,,,,,,,,,,,,,,,1,,,,,,,,,,,,,,,,,,,,,,,,,,,242.09866,44,left,0.602215,seaturtle     ,1,2,-1,0,0,242.11696,242.11696,244.614515,0,43,43,43,1,44,1,2,seaturtle     ,redfox      ,html/resources/sequences_IDs/A/02_seaturtle.jpg,html/resources/sequences_IDs/B/01_redfox.jpg,2,1,2,1,1,1,2,1,0,19,,,,,,,,,,,,,,,,,,,,
,,,,,19,2020-07-01_09h48.38.471,retriever_ti,2020.1.3,Win32,60,Chrome,1829,1029,,,,,,,,,,,,,,,,,1,,,,,,,,,,,,,,,,,,,,,,,,,,,245.716745,45,right,1.083665,seaturtle     ,1,2,-1,0,0,245.75047,245.75047,248.248215,0,44,44,44,1,45,2,1,redfox      ,seaturtle     ,html/resources/sequences_IDs/B/01_redfox.jpg,html/resources/sequences_IDs/A/02_seaturtle.jpg,1,2,1,1,2,1,1,2,0,19,,,,,,,,,,,,,,,,,,,,
,,,,,19,2020-07-01_09h48.38.471,retriever_ti,2020.1.3,Win32,60,Chrome,1829,1029,,,,,,,,,,,,,,,,,1,,,,,,,,,,,,,,,,,,,,,,,,,,,249.35097,46,left,1.227445,scarf         ,5,6,3,1,3,249.38459,249.38459,251.8822,0,45,45,45,1,46,5,2,scarf         ,redfox      ,html/resources/sequences_IDs/A/06_scarf.jpg,html/resources/sequences_IDs/B/01_redfox.jpg,6,1,3,2,1,1,5,1,0,19,,,,,,,,,,,,,,,,,,,,
,,,,,19,2020-07-01_09h48.38.471,retriever_ti,2020.1.3,Win32,60,Chrome,1829,1029,,,,,,,,,,,,,,,,,1,,,,,,,,,,,,,,,,,,,,,,,,,,,252.50077,47,left,0.483395,radio       ,6,10,4,1,3,252.517685,252.517685,255.015685,0,46,46,46,1,47,6,2,radio       ,redfox      ,html/resources/sequences_IDs/B/10_radio.jpg,html/resources/sequences_IDs/B/01_redfox.jpg,10,1,4,2,1,1,8,1,0,19,,,,,,,,,,,,,,,,,,,,
,,,,,19,2020-07-01_09h48.38.471,retriever_ti,2020.1.3,Win32,60,Chrome,1829,1029,,,,,,,,,,,,,,,,,1,,,,,,,,,,,,,,,,,,,,,,,,,,,255.633115,48,right,0.52665,seaturtle     ,1,2,-7,0,3,255.66818,255.66818,258.16585,0,47,47,47,1,48,8,1,parrot      ,seaturtle     ,html/resources/sequences_IDs/B/05_parrot.jpg,html/resources/sequences_IDs/A/02_seaturtle.jpg,5,2,2,1,2,1,4,2,0,19,,,,,,,,,,,,,,,,,,,,
,,,,,19,2020-07-01_09h48.38.471,retriever_ti,2020.1.3,Win32,60,Chrome,1829,1029,,,,,,,,,,,,,,,,,1,,,,,,,,,,,,,,,,,,,,,,,,,,,258.76846,49,right,0.966745,scarf         ,5,6,2,1,3,258.801885,258.801885,261.29975,0,48,48,48,1,49,3,5,dress         ,scarf         ,html/resources/sequences_IDs/A/07_dress.jpg,html/resources/sequences_IDs/A/06_scarf.jpg,7,6,3,2,3,2,6,5,0,19,,,,,,,,,,,,,,,,,,,,
,,,,,19,2020-07-01_09h48.38.471,retriever_ti,2020.1.3,Win32,60,Chrome,1829,1029,,,,,,,,,,,,,,,,,1,,,,,,,,,,,,,,,,,,,,,,,,,,,261.91727,50,right,0.860715,redfox      ,2,1,-2,0,3,261.93543,261.93543,264.43344,0,49,49,49,1,50,4,2,phone       ,redfox      ,html/resources/sequences_IDs/B/09_phone.jpg,html/resources/sequences_IDs/B/01_redfox.jpg,9,1,4,2,1,1,7,1,0,19,,,,,,,,,,,,,,,,,,,,
,,,,,19,2020-07-01_09h48.38.471,retriever_ti,2020.1.3,Win32,60,Chrome,1829,1029,,,,,,,,,,,,,,,,,1,,,,,,,,,,,,,,,,,,,,,,,,,,,265.052365,51,left,0.48096,radio       ,6,10,-1,0,0,265.08551,265.08551,267.58363,0,50,50,50,1,51,6,7,radio       ,clownfish     ,html/resources/sequences_IDs/B/10_radio.jpg,html/resources/sequences_IDs/A/04_clownfish.jpg,10,4,4,2,2,1,8,3,0,19,,,,,,,,,,,,,,,,,,,,
,,,,,19,2020-07-01_09h48.38.471,retriever_ti,2020.1.3,Win32,60,Chrome,1829,1029,,,,,,,,,,,,,,,,,1,,,,,,,,,,,,,,,,,,,,,,,,,,,268.686005,52,left,0.688535,seaturtle     ,1,2,-5,0,3,268.702765,268.702765,271.20097,0,51,51,51,1,52,1,6,seaturtle     ,radio       ,html/resources/sequences_IDs/A/02_seaturtle.jpg,html/resources/sequences_IDs/B/10_radio.jpg,2,10,2,1,4,2,2,8,0,19,,,,,,,,,,,,,,,,,,,,
,,,,,19,2020-07-01_09h48.38.471,retriever_ti,2020.1.3,Win32,60,Chrome,1829,1029,,,,,,,,,,,,,,,,,1,,,,,,,,,,,,,,,,,,,,,,,,,,,271.818425,53,right,0.700915,parrot      ,8,5,1,1,1,271.853415,271.853415,274.35109,0,52,52,52,1,53,7,8,clownfish     ,parrot      ,html/resources/sequences_IDs/A/04_clownfish.jpg,html/resources/sequences_IDs/B/05_parrot.jpg,4,5,2,1,2,1,3,4,0,19,,,,,,,,,,,,,,,,,,,,
,,,,,19,2020-07-01_09h48.38.471,retriever_ti,2020.1.3,Win32,60,Chrome,1829,1029,,,,,,,,,,,,,,,,,1,,,,,,,,,,,,,,,,,,,,,,,,,,,275.45338,54,left,1.0008,radio       ,6,10,3,1,3,275.470115,275.470115,277.968055,0,53,53,53,1,54,6,3,radio       ,dress         ,html/resources/sequences_IDs/B/10_radio.jpg,html/resources/sequences_IDs/A/07_dress.jpg,10,7,4,2,3,2,8,6,0,19,,,,,,,,,,,,,,,,,,,,
,,,,,19,2020-07-01_09h48.38.471,retriever_ti,2020.1.3,Win32,60,Chrome,1829,1029,,,,,,,,,,,,,,,,,1,,,,,,,,,,,,,,,,,,,,,,,,,,,278.586895,55,left,1.064805,clownfish     ,7,4,1,1,1,278.60393,278.60393,281.101765,0,54,54,54,1,55,7,6,clownfish     ,radio       ,html/resources/sequences_IDs/A/04_clownfish.jpg,html/resources/sequences_IDs/B/10_radio.jpg,4,10,2,1,4,2,3,8,0,19,,,,,,,,,,,,,,,,,,,,
,,,,,19,2020-07-01_09h48.38.471,retriever_ti,2020.1.3,Win32,60,Chrome,1829,1029,,,,,,,,,,,,,,,,,1,,,,,,,,,,,,,,,,,,,,,,,,,,,282.20264,56,left,0.465165,clownfish     ,7,4,2,1,3,282.220695,282.220695,284.71891,0,55,55,55,1,56,7,5,clownfish     ,scarf         ,html/resources/sequences_IDs/A/04_clownfish.jpg,html/resources/sequences_IDs/A/06_scarf.jpg,4,6,2,1,3,2,3,5,0,19,,,,,,,,,,,,,,,,,,,,
,,,,,19,2020-07-01_09h48.38.471,retriever_ti,2020.1.3,Win32,60,Chrome,1829,1029,,,,,,,,,,,,,,,,,1,,,,,,,,,,,,,,,,,,,,,,,,,,,285.338095,57,left,0.511995,parrot      ,8,5,5,1,3,285.371345,285.371345,287.86892,0,56,56,56,1,57,8,3,parrot      ,dress         ,html/resources/sequences_IDs/B/05_parrot.jpg,html/resources/sequences_IDs/A/07_dress.jpg,5,7,2,1,3,2,4,6,0,19,,,,,,,,,,,,,,,,,,,,
,,,,,19,2020-07-01_09h48.38.471,retriever_ti,2020.1.3,Win32,60,Chrome,1829,1029,,,,,,,,,,,,,,,,,1,,,,,,,,,,,,,,,,,,,,,,,,,,,288.48804,58,left,0.41402,redfox      ,2,1,-3,0,3,288.504985,288.504985,291.403005,0,57,57,57,1,58,2,5,redfox      ,scarf         ,html/resources/sequences_IDs/B/01_redfox.jpg,html/resources/sequences_IDs/A/06_scarf.jpg,1,6,1,1,3,2,1,5,0,19,,,,,,,,,,,,,,,,,,,,
,,,,,19,2020-07-01_09h48.38.471,retriever_ti,2020.1.3,Win32,60,Chrome,1829,1029,,,,,,,,,,,,,,,,,1,,,,,,,,,,,,,,,,,,,,,,,,,,,292.02054,59,right,0.56505,parrot      ,8,5,4,1,3,292.038305,292.038305,294.53653,0,58,58,58,1,59,4,8,phone       ,parrot      ,html/resources/sequences_IDs/B/09_phone.jpg,html/resources/sequences_IDs/B/05_parrot.jpg,9,5,4,2,2,1,7,4,0,19,,,,,,,,,,,,,,,,,,,,
,,,,,19,2020-07-01_09h48.38.471,retriever_ti,2020.1.3,Win32,60,Chrome,1829,1029,,,,,,,,,,,,,,,,,1,,,,,,,,,,,,,,,,,,,,,,,,,,,295.15519,60,left,0.906685,radio       ,6,10,2,1,3,295.172355,295.172355,297.670125,0,59,59,59,1,60,6,4,radio       ,phone       ,html/resources/sequences_IDs/B/10_radio.jpg,html/resources/sequences_IDs/B/09_phone.jpg,10,9,4,2,4,2,8,7,0,19,,,,,,,,,,,,,,,,,,,,
,,,,,19,2020-07-01_09h48.38.471,retriever_ti,2020.1.3,Win32,60,Chrome,1829,1029,,,,,,,,,,,,,,,,,1,,,,,,,,,,,,,,,,,,,,,,,,,,,298.287635,61,right,0.5165,seaturtle     ,1,2,-2,0,3,298.322515,298.322515,300.82068,0,60,60,60,1,61,3,1,dress         ,seaturtle     ,html/resources/sequences_IDs/A/07_dress.jpg,html/resources/sequences_IDs/A/02_seaturtle.jpg,7,2,3,2,2,1,6,2,0,19,,,,,,,,,,,,,,,,,,,,
,,,,,19,2020-07-01_09h48.38.471,retriever_ti,2020.1.3,Win32,60,Chrome,1829,1029,,,,,,,,,,,,,,,,,1,,,,,,,,,,,,,,,,,,,,,,,,,,,301.4395,62,right,1.15094,seaturtle     ,1,2,-5,0,3,301.45633,301.45633,303.95422,0,61,61,61,1,62,6,1,radio       ,seaturtle     ,html/resources/sequences_IDs/B/10_radio.jpg,html/resources/sequences_IDs/A/02_seaturtle.jpg,10,2,4,2,2,1,8,2,0,19,,,,,,,,,,,,,,,,,,,,
,,,,,19,2020-07-01_09h48.38.471,retriever_ti,2020.1.3,Win32,60,Chrome,1829,1029,,,,,,,,,,,,,,,,,1,,,,,,,,,,,,,,,,,,,,,,,,,,,304.57294,63,left,0.624835,seaturtle     ,1,2,-2,0,3,304.60653,304.60653,307.10451,0,62,62,62,1,63,1,3,seaturtle     ,dress         ,html/resources/sequences_IDs/A/02_seaturtle.jpg,html/resources/sequences_IDs/A/07_dress.jpg,2,7,2,1,3,2,2,6,0,19,,,,,,,,,,,,,,,,,,,,
,,,,,19,2020-07-01_09h48.38.471,retriever_ti,2020.1.3,Win32,60,Chrome,1829,1029,,,,,,,,,,,,,,,,,1,,,,,,,,,,,,,,,,,,,,,,,,,,,307.721965,64,right,0.5673,seaturtle     ,1,2,-3,0,3,307.756795,307.756795,310.25482,0,63,63,63,1,64,4,1,phone       ,seaturtle     ,html/resources/sequences_IDs/B/09_phone.jpg,html/resources/sequences_IDs/A/02_seaturtle.jpg,9,2,4,2,2,1,7,2,0,19,,,,,,,,,,,,,,,,,,,,
,,,,,19,2020-07-01_09h48.38.471,retriever_ti,2020.1.3,Win32,60,Chrome,1829,1029,,,,,,,,,,,,,,,,,1,,,,,,,,,,,,,,,,,,,,,,,,,,,310.87368,65,right,0.946495,clownfish     ,7,4,3,1,3,310.907145,310.907145,313.405225,0,64,64,64,1,65,4,7,phone       ,clownfish     ,html/resources/sequences_IDs/B/09_phone.jpg,html/resources/sequences_IDs/A/04_clownfish.jpg,9,4,4,2,2,1,7,3,0,19,,,,,,,,,,,,,,,,,,,,
,,,,,19,2020-07-01_09h48.38.471,retriever_ti,2020.1.3,Win32,60,Chrome,1829,1029,,,,,,,,,,,,,,,,,1,,,,,,,,,,,,,,,,,,,,,,,,,,,314.02261,66,right,0.771655,redfox      ,2,1,-6,0,3,314.057535,314.057535,316.555595,0,65,65,65,1,66,8,2,parrot      ,redfox      ,html/resources/sequences_IDs/B/05_parrot.jpg,html/resources/sequences_IDs/B/01_redfox.jpg,5,1,2,1,1,1,4,1,0,19,,,,,,,,,,,,,,,,,,,,
,,,,,19,2020-07-01_09h48.38.471,retriever_ti,2020.1.3,Win32,60,Chrome,1829,1029,,,,,,,,,,,,,,,,,1,,,,,,,,,,,,,,,,,,,,,,,,,,,317.17454,67,right,0.81579,phone       ,4,9,-1,0,0,317.207875,317.207875,319.70592,0,66,66,66,1,67,5,4,scarf         ,phone       ,html/resources/sequences_IDs/A/06_scarf.jpg,html/resources/sequences_IDs/B/09_phone.jpg,6,9,3,2,4,2,5,7,0,19,,,,,,,,,,,,,,,,,,,,
,,,,,19,2020-07-01_09h48.38.471,retriever_ti,2020.1.3,Win32,60,Chrome,1829,1029,,,,,,,,,,,,,,,,,1,,,,,,,,,,,,,,,,,,,,,,,,,,,320.808315,68,right,0.93935,dress         ,3,7,-1,0,0,320.84164,320.84164,323.33965,0,67,67,67,1,68,4,3,phone       ,dress         ,html/resources/sequences_IDs/B/09_phone.jpg,html/resources/sequences_IDs/A/07_dress.jpg,9,7,4,2,3,2,7,6,0,19,,,,,,,,,,,,,,,,,,,,
,,,,,19,2020-07-01_09h48.38.471,retriever_ti,2020.1.3,Win32,60,Chrome,1829,1029,,,,,,,,,,,,,,,,,1,,,,,,,,,,,,,,,,,,,,,,,,,,,324.440505,69,right,0.78033,parrot      ,8,5,7,1,3,324.47531,324.47531,326.973265,0,68,68,68,1,69,1,8,seaturtle     ,parrot      ,html/resources/sequences_IDs/A/02_seaturtle.jpg,html/resources/sequences_IDs/B/05_parrot.jpg,2,5,2,1,2,1,2,4,0,19,,,,,,,,,,,,,,,,,,,,
,,,,,19,2020-07-01_09h48.38.471,retriever_ti,2020.1.3,Win32,60,Chrome,1829,1029,,,,,,,,,,,,,,,,,1,,,,,,,,,,,,,,,,,,,,,,,,,,,327.59071,70,left,1.004275,scarf         ,5,6,1,1,1,327.625535,327.625535,330.123405,0,69,69,69,1,70,5,4,scarf         ,phone       ,html/resources/sequences_IDs/A/06_scarf.jpg,html/resources/sequences_IDs/B/09_phone.jpg,6,9,3,2,4,2,5,7,0,19,,,,,,,,,,,,,,,,,,,,
,,,,,19,2020-07-01_09h48.38.471,retriever_ti,2020.1.3,Win32,60,Chrome,1829,1029,,,,,,,,,,,,,,,,,1,,,,,,,,,,,,,,,,,,,,,,,,,,,331.22611,71,right,0.56341,parrot      ,8,5,6,1,3,331.24278,331.24278,333.740805,0,70,70,70,1,71,2,8,redfox      ,parrot      ,html/resources/sequences_IDs/B/01_redfox.jpg,html/resources/sequences_IDs/B/05_parrot.jpg,1,5,1,1,2,1,1,4,0,19,,,,,,,,,,,,,,,,,,,,
,,,,,19,2020-07-01_09h48.38.471,retriever_ti,2020.1.3,Win32,60,Chrome,1829,1029,,,,,,,,,,,,,,,,,1,,,,,,,,,,,,,,,,,,,,,,,,,,,334.35849,72,right,2.00668,phone       ,4,9,1,1,1,334.39498,334.39498,336.890975,0,71,71,71,1,72,3,4,dress         ,phone       ,html/resources/sequences_IDs/A/07_dress.jpg,html/resources/sequences_IDs/B/09_phone.jpg,7,9,3,2,4,2,6,7,0,19,,,,,,,,,,,,,,,,,,,,
,,,,,19,2020-07-01_09h48.38.471,retriever_ti,2020.1.3,Win32,60,Chrome,1829,1029,,,,,,,,,,,,,,,,,1,,,,,,,,,,,,,,,,,,,,,,,,,,,337.99332,73,right,0.55539,seaturtle     ,1,2,-4,0,3,338.026835,338.026835,340.52468,0,72,72,72,1,73,5,1,scarf         ,seaturtle     ,html/resources/sequences_IDs/A/06_scarf.jpg,html/resources/sequences_IDs/A/02_seaturtle.jpg,6,2,3,2,2,1,5,2,0,19,,,,,,,,,,,,,,,,,,,,
,,,,,19,2020-07-01_09h48.38.471,retriever_ti,2020.1.3,Win32,60,Chrome,1829,1029,,,,,,,,,,,,,,,,,1,,,,,,,,,,,,,,,,,,,,,,,,,,,341.14354,74,right,0.964005,dress         ,3,7,1,1,1,341.16096,341.16096,343.658315,0,73,73,73,1,74,2,3,redfox      ,dress         ,html/resources/sequences_IDs/B/01_redfox.jpg,html/resources/sequences_IDs/A/07_dress.jpg,1,7,1,1,3,2,1,6,0,19,,,,,,,,,,,,,,,,,,,,
,,,,,19,2020-07-01_09h48.38.471,retriever_ti,2020.1.3,Win32,60,Chrome,1829,1029,,,,,,,,,,,,,,,,,1,,,,,,,,,,,,,,,,,,,,,,,,,,,344.76078,75,right,1.151245,clownfish     ,7,4,2,1,3,344.794395,344.794395,347.2921,0,74,74,74,1,75,5,7,scarf         ,clownfish     ,html/resources/sequences_IDs/A/06_scarf.jpg,html/resources/sequences_IDs/A/04_clownfish.jpg,6,4,3,2,2,1,5,3,0,19,,,,,,,,,,,,,,,,,,,,
,,,,,19,2020-07-01_09h48.38.471,retriever_ti,2020.1.3,Win32,60,Chrome,1829,1029,,,,,,,,,,,,,,,,,1,,,,,,,,,,,,,,,,,,,,,,,,,,,347.90974,76,left,0.682865,clownfish     ,7,4,3,1,3,347.94444,347.94444,350.44229,0,75,75,75,1,76,7,4,clownfish     ,phone       ,html/resources/sequences_IDs/A/04_clownfish.jpg,html/resources/sequences_IDs/B/09_phone.jpg,4,9,2,1,4,2,3,7,0,19,,,,,,,,,,,,,,,,,,,,
,,,,,19,2020-07-01_09h48.38.471,retriever_ti,2020.1.3,Win32,60,Chrome,1829,1029,,,,,,,,,,,,,,,,,1,,,,,,,,,,,,,,,,,,,,,,,,,,,351.06135,77,right,0.56674,clownfish     ,7,4,1,1,0,351.078005,351.078005,353.576075,0,76,76,76,1,77,6,7,radio       ,clownfish     ,html/resources/sequences_IDs/B/10_radio.jpg,html/resources/sequences_IDs/A/04_clownfish.jpg,10,4,4,2,2,1,8,3,1,19,,,,,,,,,,,,,,,,,,,,
,,,,,19,2020-07-01_09h48.38.471,retriever_ti,2020.1.3,Win32,60,Chrome,1829,1029,,,,,,,,,,,,,,,,,,,,,,,,,,,,,,,,,,,,,0,2.274115,,,,,,,,,,,,,,,,,,,,,,,,,,,,,,,,,,,,,,,,,0,0,0,0,1,,,,,,,,,,,,,,,
,,,,,19,2020-07-01_09h48.38.471,retriever_ti,2020.1.3,Win32,60,Chrome,1829,1029,,,,,,,,,,,,,,,,,2,,,,,,,,,,,,,,,,,,,,,,,,,,,404.40755,78,left,0.65963,seaturtle     ,1,2,-2,0,3,404.43431,404.43431,406.931735,0,0,0,0,1,78,1,3,seaturtle     ,dress         ,html/resources/sequences_IDs/A/02_seaturtle.jpg,html/resources/sequences_IDs/A/07_dress.jpg,2,7,2,1,3,2,2,6,0,19,,,,,,,,,,,,,,,,,,,,
,,,,,19,2020-07-01_09h48.38.471,retriever_ti,2020.1.3,Win32,60,Chrome,1829,1029,,,,,,,,,,,,,,,,,2,,,,,,,,,,,,,,,,,,,,,,,,,,,407.5505,79,right,1.097805,seaturtle     ,1,2,-5,0,3,407.56728,407.56728,410.0654,0,1,1,1,1,79,6,1,radio       ,seaturtle     ,html/resources/sequences_IDs/B/10_radio.jpg,html/resources/sequences_IDs/A/02_seaturtle.jpg,10,2,4,2,2,1,8,2,0,19,,,,,,,,,,,,,,,,,,,,
,,,,,19,2020-07-01_09h48.38.471,retriever_ti,2020.1.3,Win32,60,Chrome,1829,1029,,,,,,,,,,,,,,,,,2,,,,,,,,,,,,,,,,,,,,,,,,,,,410.682935,80,right,0.53343,seaturtle     ,1,2,-1,0,0,410.717655,410.717655,413.215665,0,2,2,2,1,80,2,1,redfox      ,seaturtle     ,html/resources/sequences_IDs/B/01_redfox.jpg,html/resources/sequences_IDs/A/02_seaturtle.jpg,1,2,1,1,2,1,1,2,0,19,,,,,,,,,,,,,,,,,,,,
,,,,,19,2020-07-01_09h48.38.471,retriever_ti,2020.1.3,Win32,60,Chrome,1829,1029,,,,,,,,,,,,,,,,,2,,,,,,,,,,,,,,,,,,,,,,,,,,,414.31868,81,right,0.978835,phone       ,4,9,1,1,0,414.335885,414.335885,416.8329,0,3,3,3,1,81,3,4,dress         ,phone       ,html/resources/sequences_IDs/A/07_dress.jpg,html/resources/sequences_IDs/B/09_phone.jpg,7,9,3,2,4,2,6,7,1,19,,,,,,,,,,,,,,,,,,,,
,,,,,19,2020-07-01_09h48.38.471,retriever_ti,2020.1.3,Win32,60,Chrome,1829,1029,,,,,,,,,,,,,,,,,2,,,,,,,,,,,,,,,,,,,,,,,,,,,417.935275,82,left,0.764635,dress         ,3,7,-3,0,3,417.968765,417.968765,420.466495,0,4,4,4,1,82,3,6,dress         ,radio       ,html/resources/sequences_IDs/A/07_dress.jpg,html/resources/sequences_IDs/B/10_radio.jpg,7,10,3,2,4,2,6,8,0,19,,,,,,,,,,,,,,,,,,,,
,,,,,19,2020-07-01_09h48.38.471,retriever_ti,2020.1.3,Win32,60,Chrome,1829,1029,,,,,,,,,,,,,,,,,2,,,,,,,,,,,,,,,,,,,,,,,,,,,421.084015,83,left,0.751315,seaturtle     ,1,2,-4,0,3,421.11869,421.11869,423.616785,0,5,5,5,1,83,1,5,seaturtle     ,scarf         ,html/resources/sequences_IDs/A/02_seaturtle.jpg,html/resources/sequences_IDs/A/06_scarf.jpg,2,6,2,1,3,2,2,5,0,19,,,,,,,,,,,,,,,,,,,,
,,,,,19,2020-07-01_09h48.38.471,retriever_ti,2020.1.3,Win32,60,Chrome,1829,1029,,,,,,,,,,,,,,,,,2,,,,,,,,,,,,,,,,,,,,,,,,,,,424.23584,84,right,1.298255,phone       ,4,9,-1,0,1,424.252705,424.252705,426.750535,0,6,6,6,1,84,5,4,scarf         ,phone       ,html/resources/sequences_IDs/A/06_scarf.jpg,html/resources/sequences_IDs/B/09_phone.jpg,6,9,3,2,4,2,5,7,1,19,,,,,,,,,,,,,,,,,,,,
,,,,,19,2020-07-01_09h48.38.471,retriever_ti,2020.1.3,Win32,60,Chrome,1829,1029,,,,,,,,,,,,,,,,,2,,,,,,,,,,,,,,,,,,,,,,,,,,,427.853515,85,right,0.631695,redfox      ,2,1,-1,0,0,427.869815,427.869815,430.367525,0,7,7,7,1,85,3,2,dress         ,redfox      ,html/resources/sequences_IDs/A/07_dress.jpg,html/resources/sequences_IDs/B/01_redfox.jpg,7,1,3,2,1,1,6,1,0,19,,,,,,,,,,,,,,,,,,,,
,,,,,19,2020-07-01_09h48.38.471,retriever_ti,2020.1.3,Win32,60,Chrome,1829,1029,,,,,,,,,,,,,,,,,2,,,,,,,,,,,,,,,,,,,,,,,,,,,431.46959,86,left,1.421675,clownfish     ,7,4,4,1,3,431.48662,431.48662,433.98468,0,8,8,8,1,86,7,3,clownfish     ,dress         ,html/resources/sequences_IDs/A/04_clownfish.jpg,html/resources/sequences_IDs/A/07_dress.jpg,4,7,2,1,3,2,3,6,0,19,,,,,,,,,,,,,,,,,,,,
,,,,,19,2020-07-01_09h48.38.471,retriever_ti,2020.1.3,Win32,60,Chrome,1829,1029,,,,,,,,,,,,,,,,,2,,,,,,,,,,,,,,,,,,,,,,,,,,,434.60231,87,left,0.826285,clownfish     ,7,4,6,1,3,434.63691,434.63691,437.134735,0,9,9,9,1,87,7,1,clownfish     ,seaturtle     ,html/resources/sequences_IDs/A/04_clownfish.jpg,html/resources/sequences_IDs/A/02_seaturtle.jpg,4,2,2,1,2,1,3,2,0,19,,,,,,,,,,,,,,,,,,,,
,,,,,19,2020-07-01_09h48.38.471,retriever_ti,2020.1.3,Win32,60,Chrome,1829,1029,,,,,,,,,,,,,,,,,2,,,,,,,,,,,,,,,,,,,,,,,,,,,437.753705,88,left,1.099095,redfox      ,2,1,-2,0,3,437.78714,437.78714,440.285255,0,10,10,10,1,88,2,4,redfox      ,phone       ,html/resources/sequences_IDs/B/01_redfox.jpg,html/resources/sequences_IDs/B/09_phone.jpg,1,9,1,1,4,2,1,7,0,19,,,,,,,,,,,,,,,,,,,,
,,,,,19,2020-07-01_09h48.38.471,retriever_ti,2020.1.3,Win32,60,Chrome,1829,1029,,,,,,,,,,,,,,,,,2,,,,,,,,,,,,,,,,,,,,,,,,,,,440.902995,89,right,0.53566,parrot      ,8,5,1,1,1,440.93778,440.93778,443.435625,0,11,11,11,1,89,7,8,clownfish     ,parrot      ,html/resources/sequences_IDs/A/04_clownfish.jpg,html/resources/sequences_IDs/B/05_parrot.jpg,4,5,2,1,2,1,3,4,0,19,,,,,,,,,,,,,,,,,,,,
,,,,,19,2020-07-01_09h48.38.471,retriever_ti,2020.1.3,Win32,60,Chrome,1829,1029,,,,,,,,,,,,,,,,,2,,,,,,,,,,,,,,,,,,,,,,,,,,,444.537885,90,left,1.965555,clownfish     ,7,4,1,1,0,444.55458,444.55458,447.052545,0,12,12,12,1,90,7,6,clownfish     ,radio       ,html/resources/sequences_IDs/A/04_clownfish.jpg,html/resources/sequences_IDs/B/10_radio.jpg,4,10,2,1,4,2,3,8,1,19,,,,,,,,,,,,,,,,,,,,
,,,,,19,2020-07-01_09h48.38.471,retriever_ti,2020.1.3,Win32,60,Chrome,1829,1029,,,,,,,,,,,,,,,,,2,,,,,,,,,,,,,,,,,,,,,,,,,,,448.15486,91,right,0.55034,radio       ,6,10,5,1,3,448.188415,448.188415,450.68631,0,13,13,13,1,91,1,6,seaturtle     ,radio       ,html/resources/sequences_IDs/A/02_seaturtle.jpg,html/resources/sequences_IDs/B/10_radio.jpg,2,10,2,1,4,2,2,8,0,19,,,,,,,,,,,,,,,,,,,,
,,,,,19,2020-07-01_09h48.38.471,retriever_ti,2020.1.3,Win32,60,Chrome,1829,1029,,,,,,,,,,,,,,,,,2,,,,,,,,,,,,,,,,,,,,,,,,,,,451.30494,92,right,0.565685,radio       ,6,10,1,1,1,451.338685,451.338685,453.836365,0,14,14,14,1,92,5,6,scarf         ,radio       ,html/resources/sequences_IDs/A/06_scarf.jpg,html/resources/sequences_IDs/B/10_radio.jpg,6,10,3,2,4,2,5,8,0,19,,,,,,,,,,,,,,,,,,,,
,,,,,19,2020-07-01_09h48.38.471,retriever_ti,2020.1.3,Win32,60,Chrome,1829,1029,,,,,,,,,,,,,,,,,2,,,,,,,,,,,,,,,,,,,,,,,,,,,454.939465,93,left,1.163385,clownfish     ,7,4,3,1,3,454.955735,454.955735,457.453785,0,15,15,15,1,93,7,4,clownfish     ,phone       ,html/resources/sequences_IDs/A/04_clownfish.jpg,html/resources/sequences_IDs/B/09_phone.jpg,4,9,2,1,4,2,3,7,0,19,,,,,,,,,,,,,,,,,,,,
,,,,,19,2020-07-01_09h48.38.471,retriever_ti,2020.1.3,Win32,60,Chrome,1829,1029,,,,,,,,,,,,,,,,,2,,,,,,,,,,,,,,,,,,,,,,,,,,,458.0729,94,left,1.71289,radio       ,6,10,4,1,3,458.10631,458.10631,460.604165,0,16,16,16,1,94,6,2,radio       ,redfox      ,html/resources/sequences_IDs/B/10_radio.jpg,html/resources/sequences_IDs/B/01_redfox.jpg,10,1,4,2,1,1,8,1,0,19,,,,,,,,,,,,,,,,,,,,
,,,,,19,2020-07-01_09h48.38.471,retriever_ti,2020.1.3,Win32,60,Chrome,1829,1029,,,,,,,,,,,,,,,,,2,,,,,,,,,,,,,,,,,,,,,,,,,,,461.22191,95,right,0.61761,parrot      ,8,5,1,1,1,461.25722,461.25722,463.754375,0,17,17,17,1,95,7,8,clownfish     ,parrot      ,html/resources/sequences_IDs/A/04_clownfish.jpg,html/resources/sequences_IDs/B/05_parrot.jpg,4,5,2,1,2,1,3,4,0,19,,,,,,,,,,,,,,,,,,,,
,,,,,19,2020-07-01_09h48.38.471,retriever_ti,2020.1.3,Win32,60,Chrome,1829,1029,,,,,,,,,,,,,,,,,2,,,,,,,,,,,,,,,,,,,,,,,,,,,464.844925,96,left,1.083645,radio       ,6,10,3,1,3,464.87342,464.87342,467.37157,0,18,18,18,1,96,6,3,radio       ,dress         ,html/resources/sequences_IDs/B/10_radio.jpg,html/resources/sequences_IDs/A/07_dress.jpg,10,7,4,2,3,2,8,6,0,19,,,,,,,,,,,,,,,,,,,,
,,,,,19,2020-07-01_09h48.38.471,retriever_ti,2020.1.3,Win32,60,Chrome,1829,1029,,,,,,,,,,,,,,,,,2,,,,,,,,,,,,,,,,,,,,,,,,,,,467.990505,97,right,0.562565,parrot      ,8,5,5,1,3,468.0073,468.0073,470.50509,0,19,19,19,1,97,3,8,dress         ,parrot      ,html/resources/sequences_IDs/A/07_dress.jpg,html/resources/sequences_IDs/B/05_parrot.jpg,7,5,3,2,2,1,6,4,0,19,,,,,,,,,,,,,,,,,,,,
,,,,,19,2020-07-01_09h48.38.471,retriever_ti,2020.1.3,Win32,60,Chrome,1829,1029,,,,,,,,,,,,,,,,,2,,,,,,,,,,,,,,,,,,,,,,,,,,,471.122555,98,right,1.220115,radio       ,6,10,-1,0,0,471.14095,471.14095,473.639,0,20,20,20,1,98,7,6,clownfish     ,radio       ,html/resources/sequences_IDs/A/04_clownfish.jpg,html/resources/sequences_IDs/B/10_radio.jpg,4,10,2,1,4,2,3,8,0,19,,,,,,,,,,,,,,,,,,,,
,,,,,19,2020-07-01_09h48.38.471,retriever_ti,2020.1.3,Win32,60,Chrome,1829,1029,,,,,,,,,,,,,,,,,2,,,,,,,,,,,,,,,,,,,,,,,,,,,474.741285,99,left,0.90036,radio       ,6,10,2,1,3,474.75794,474.75794,477.255835,0,21,21,21,1,99,6,4,radio       ,phone       ,html/resources/sequences_IDs/B/10_radio.jpg,html/resources/sequences_IDs/B/09_phone.jpg,10,9,4,2,4,2,8,7,0,19,,,,,,,,,,,,,,,,,,,,
,,,,,19,2020-07-01_09h48.38.471,retriever_ti,2020.1.3,Win32,60,Chrome,1829,1029,,,,,,,,,,,,,,,,,2,,,,,,,,,,,,,,,,,,,,,,,,,,,477.87456,100,left,2.31926,parrot      ,8,5,7,1,3,477.89145,477.89145,480.389545,0,22,22,22,1,100,8,1,parrot      ,seaturtle     ,html/resources/sequences_IDs/B/05_parrot.jpg,html/resources/sequences_IDs/A/02_seaturtle.jpg,5,2,2,1,2,1,4,2,0,19,,,,,,,,,,,,,,,,,,,,
,,,,,19,2020-07-01_09h48.38.471,retriever_ti,2020.1.3,Win32,60,Chrome,1829,1029,,,,,,,,,,,,,,,,,2,,,,,,,,,,,,,,,,,,,,,,,,,,,481.00709,101,right,0.64792,seaturtle     ,1,2,-3,0,3,481.042035,481.042035,483.53976,0,23,23,23,1,101,4,1,phone       ,seaturtle     ,html/resources/sequences_IDs/B/09_phone.jpg,html/resources/sequences_IDs/A/02_seaturtle.jpg,9,2,4,2,2,1,7,2,0,19,,,,,,,,,,,,,,,,,,,,
,,,,,19,2020-07-01_09h48.38.471,retriever_ti,2020.1.3,Win32,60,Chrome,1829,1029,,,,,,,,,,,,,,,,,2,,,,,,,,,,,,,,,,,,,,,,,,,,,484.15893,102,left,0.62868,scarf         ,5,6,1,1,1,484.19274,484.19274,486.69001,0,24,24,24,1,102,5,4,scarf         ,phone       ,html/resources/sequences_IDs/A/06_scarf.jpg,html/resources/sequences_IDs/B/09_phone.jpg,6,9,3,2,4,2,5,7,0,19,,,,,,,,,,,,,,,,,,,,
,,,,,19,2020-07-01_09h48.38.471,retriever_ti,2020.1.3,Win32,60,Chrome,1829,1029,,,,,,,,,,,,,,,,,2,,,,,,,,,,,,,,,,,,,,,,,,,,,487.792515,103,left,0.453235,scarf         ,5,6,3,1,3,487.80917,487.80917,490.307135,0,25,25,25,1,103,5,2,scarf         ,redfox      ,html/resources/sequences_IDs/A/06_scarf.jpg,html/resources/sequences_IDs/B/01_redfox.jpg,6,1,3,2,1,1,5,1,0,19,,,,,,,,,,,,,,,,,,,,
,,,,,19,2020-07-01_09h48.38.471,retriever_ti,2020.1.3,Win32,60,Chrome,1829,1029,,,,,,,,,,,,,,,,,2,,,,,,,,,,,,,,,,,,,,,,,,,,,490.92455,104,right,0.47527,parrot      ,8,5,4,1,3,490.959515,490.959515,493.457485,0,26,26,26,1,104,4,8,phone       ,parrot      ,html/resources/sequences_IDs/B/09_phone.jpg,html/resources/sequences_IDs/B/05_parrot.jpg,9,5,4,2,2,1,7,4,0,19,,,,,,,,,,,,,,,,,,,,
,,,,,19,2020-07-01_09h48.38.471,retriever_ti,2020.1.3,Win32,60,Chrome,1829,1029,,,,,,,,,,,,,,,,,2,,,,,,,,,,,,,,,,,,,,,,,,,,,494.07684,105,left,0.66686,redfox      ,2,1,-5,0,3,494.11157,494.11157,496.60776,0,27,27,27,1,105,2,7,redfox      ,clownfish     ,html/resources/sequences_IDs/B/01_redfox.jpg,html/resources/sequences_IDs/A/04_clownfish.jpg,1,4,1,1,2,1,1,3,0,19,,,,,,,,,,,,,,,,,,,,
,,,,,19,2020-07-01_09h48.38.471,retriever_ti,2020.1.3,Win32,60,Chrome,1829,1029,,,,,,,,,,,,,,,,,2,,,,,,,,,,,,,,,,,,,,,,,,,,,497.22534,106,right,1.147865,scarf         ,5,6,2,1,3,497.243745,497.243745,499.7414,0,28,28,28,1,106,3,5,dress         ,scarf         ,html/resources/sequences_IDs/A/07_dress.jpg,html/resources/sequences_IDs/A/06_scarf.jpg,7,6,3,2,3,2,6,5,0,19,,,,,,,,,,,,,,,,,,,,
,,,,,19,2020-07-01_09h48.38.471,retriever_ti,2020.1.3,Win32,60,Chrome,1829,1029,,,,,,,,,,,,,,,,,2,,,,,,,,,,,,,,,,,,,,,,,,,,,500.360315,107,left,2.119545,clownfish     ,7,4,5,1,3,500.393605,500.393605,502.89188,0,29,29,29,1,107,7,2,clownfish     ,redfox      ,html/resources/sequences_IDs/A/04_clownfish.jpg,html/resources/sequences_IDs/B/01_redfox.jpg,4,1,2,1,1,1,3,1,0,19,,,,,,,,,,,,,,,,,,,,
,,,,,19,2020-07-01_09h48.38.471,retriever_ti,2020.1.3,Win32,60,Chrome,1829,1029,,,,,,,,,,,,,,,,,2,,,,,,,,,,,,,,,,,,,,,,,,,,,503.510735,108,right,0.640145,parrot      ,8,5,7,1,3,503.544235,503.544235,506.04212,0,30,30,30,1,108,1,8,seaturtle     ,parrot      ,html/resources/sequences_IDs/A/02_seaturtle.jpg,html/resources/sequences_IDs/B/05_parrot.jpg,2,5,2,1,2,1,2,4,0,19,,,,,,,,,,,,,,,,,,,,
,,,,,19,2020-07-01_09h48.38.471,retriever_ti,2020.1.3,Win32,60,Chrome,1829,1029,,,,,,,,,,,,,,,,,2,,,,,,,,,,,,,,,,,,,,,,,,,,,506.65948,109,left,1.0994,scarf         ,5,6,-2,0,3,506.677665,506.677665,509.17575,0,31,31,31,1,109,5,7,scarf         ,clownfish     ,html/resources/sequences_IDs/A/06_scarf.jpg,html/resources/sequences_IDs/A/04_clownfish.jpg,6,4,3,2,2,1,5,3,0,19,,,,,,,,,,,,,,,,,,,,
,,,,,19,2020-07-01_09h48.38.471,retriever_ti,2020.1.3,Win32,60,Chrome,1829,1029,,,,,,,,,,,,,,,,,2,,,,,,,,,,,,,,,,,,,,,,,,,,,509.794645,110,left,0.50857,scarf         ,5,6,1,1,1,509.827885,509.827885,512.326145,0,32,32,32,1,110,5,4,scarf         ,phone       ,html/resources/sequences_IDs/A/06_scarf.jpg,html/resources/sequences_IDs/B/09_phone.jpg,6,9,3,2,4,2,5,7,0,19,,,,,,,,,,,,,,,,,,,,
,,,,,19,2020-07-01_09h48.38.471,retriever_ti,2020.1.3,Win32,60,Chrome,1829,1029,,,,,,,,,,,,,,,,,2,,,,,,,,,,,,,,,,,,,,,,,,,,,513.427,111,left,0.96999,redfox      ,2,1,1,1,0,513.46174,513.46174,515.959765,0,33,33,33,1,111,2,1,redfox      ,seaturtle     ,html/resources/sequences_IDs/B/01_redfox.jpg,html/resources/sequences_IDs/A/02_seaturtle.jpg,1,2,1,1,2,1,1,2,1,19,,,,,,,,,,,,,,,,,,,,
,,,,,19,2020-07-01_09h48.38.471,retriever_ti,2020.1.3,Win32,60,Chrome,1829,1029,,,,,,,,,,,,,,,,,2,,,,,,,,,,,,,,,,,,,,,,,,,,,517.060895,112,left,0.663135,parrot      ,8,5,5,1,3,517.095775,517.095775,519.59366,0,34,34,34,1,112,8,3,parrot      ,dress         ,html/resources/sequences_IDs/B/05_parrot.jpg,html/resources/sequences_IDs/A/07_dress.jpg,5,7,2,1,3,2,4,6,0,19,,,,,,,,,,,,,,,,,,,,
,,,,,19,2020-07-01_09h48.38.471,retriever_ti,2020.1.3,Win32,60,Chrome,1829,1029,,,,,,,,,,,,,,,,,2,,,,,,,,,,,,,,,,,,,,,,,,,,,520.212605,113,right,0.680745,scarf         ,5,6,1,1,1,520.22949,520.22949,522.727345,0,35,35,35,1,113,4,5,phone       ,scarf         ,html/resources/sequences_IDs/B/09_phone.jpg,html/resources/sequences_IDs/A/06_scarf.jpg,9,6,4,2,3,2,7,5,0,19,,,,,,,,,,,,,,,,,,,,
,,,,,19,2020-07-01_09h48.38.471,retriever_ti,2020.1.3,Win32,60,Chrome,1829,1029,,,,,,,,,,,,,,,,,2,,,,,,,,,,,,,,,,,,,,,,,,,,,523.82966,114,left,1.585485,redfox      ,2,1,-4,0,3,523.863205,523.863205,526.36089,0,36,36,36,1,114,2,6,redfox      ,radio       ,html/resources/sequences_IDs/B/01_redfox.jpg,html/resources/sequences_IDs/B/10_radio.jpg,1,10,1,1,4,2,1,8,0,19,,,,,,,,,,,,,,,,,,,,
,,,,,19,2020-07-01_09h48.38.471,retriever_ti,2020.1.3,Win32,60,Chrome,1829,1029,,,,,,,,,,,,,,,,,2,,,,,,,,,,,,,,,,,,,,,,,,,,,526.978815,115,right,0.57767,parrot      ,8,5,6,1,3,526.99694,526.99694,529.4944,0,37,37,37,1,115,2,8,redfox      ,parrot      ,html/resources/sequences_IDs/B/01_redfox.jpg,html/resources/sequences_IDs/B/05_parrot.jpg,1,5,1,1,2,1,1,4,0,19,,,,,,,,,,,,,,,,,,,,
,,,,,19,2020-07-01_09h48.38.471,retriever_ti,2020.1.3,Win32,60,Chrome,1829,1029,,,,,,,,,,,,,,,,,2,,,,,,,,,,,,,,,,,,,,,,,,,,,530.113465,116,right,0.782695,seaturtle     ,1,2,-1,0,0,530.146995,530.146995,532.64515,0,38,38,38,1,116,2,1,redfox      ,seaturtle     ,html/resources/sequences_IDs/B/01_redfox.jpg,html/resources/sequences_IDs/A/02_seaturtle.jpg,1,2,1,1,2,1,1,2,0,19,,,,,,,,,,,,,,,,,,,,
,,,,,19,2020-07-01_09h48.38.471,retriever_ti,2020.1.3,Win32,60,Chrome,1829,1029,,,,,,,,,,,,,,,,,2,,,,,,,,,,,,,,,,,,,,,,,,,,,533.74746,117,left,1.16211,parrot      ,8,5,3,1,3,533.764395,533.764395,536.26208,0,39,39,39,1,117,8,5,parrot      ,scarf         ,html/resources/sequences_IDs/B/05_parrot.jpg,html/resources/sequences_IDs/A/06_scarf.jpg,5,6,2,1,3,2,4,5,0,19,,,,,,,,,,,,,,,,,,,,
,,,,,19,2020-07-01_09h48.38.471,retriever_ti,2020.1.3,Win32,60,Chrome,1829,1029,,,,,,,,,,,,,,,,,2,,,,,,,,,,,,,,,,,,,,,,,,,,,536.87957,118,left,0.635265,parrot      ,8,5,1,1,1,536.89801,536.89801,539.395685,0,40,40,40,1,118,8,7,parrot      ,clownfish     ,html/resources/sequences_IDs/B/05_parrot.jpg,html/resources/sequences_IDs/A/04_clownfish.jpg,5,4,2,1,2,1,4,3,0,19,,,,,,,,,,,,,,,,,,,,
,,,,,19,2020-07-01_09h48.38.471,retriever_ti,2020.1.3,Win32,60,Chrome,1829,1029,,,,,,,,,,,,,,,,,2,,,,,,,,,,,,,,,,,,,,,,,,,,,540.498085,119,left,0.53053,redfox      ,2,1,-1,0,0,540.531595,540.531595,543.029455,0,41,41,41,1,119,2,3,redfox      ,dress         ,html/resources/sequences_IDs/B/01_redfox.jpg,html/resources/sequences_IDs/A/07_dress.jpg,1,7,1,1,3,2,1,6,0,19,,,,,,,,,,,,,,,,,,,,
,,,,,19,2020-07-01_09h48.38.471,retriever_ti,2020.1.3,Win32,60,Chrome,1829,1029,,,,,,,,,,,,,,,,,2,,,,,,,,,,,,,,,,,,,,,,,,,,,544.13229,120,left,0.704365,dress         ,3,7,-1,0,0,544.14951,544.14951,546.64635,0,42,42,42,1,120,3,4,dress         ,phone       ,html/resources/sequences_IDs/A/07_dress.jpg,html/resources/sequences_IDs/B/09_phone.jpg,7,9,3,2,4,2,6,7,0,19,,,,,,,,,,,,,,,,,,,,
,,,,,19,2020-07-01_09h48.38.471,retriever_ti,2020.1.3,Win32,60,Chrome,1829,1029,,,,,,,,,,,,,,,,,2,,,,,,,,,,,,,,,,,,,,,,,,,,,547.748685,121,right,1.097055,scarf         ,5,6,-1,0,0,547.765425,547.765425,550.263365,0,43,43,43,1,121,6,5,radio       ,scarf         ,html/resources/sequences_IDs/B/10_radio.jpg,html/resources/sequences_IDs/A/06_scarf.jpg,10,6,4,2,3,2,8,5,0,19,,,,,,,,,,,,,,,,,,,,
,,,,,19,2020-07-01_09h48.38.471,retriever_ti,2020.1.3,Win32,60,Chrome,1829,1029,,,,,,,,,,,,,,,,,2,,,,,,,,,,,,,,,,,,,,,,,,,,,551.36443,122,right,2.005745,scarf         ,5,6,3,1,3,551.38256,551.38256,553.88072,0,44,44,44,1,122,2,5,redfox      ,scarf         ,html/resources/sequences_IDs/B/01_redfox.jpg,html/resources/sequences_IDs/A/06_scarf.jpg,1,6,1,1,3,2,1,5,0,19,,,,,,,,,,,,,,,,,,,,
,,,,,19,2020-07-01_09h48.38.471,retriever_ti,2020.1.3,Win32,60,Chrome,1829,1029,,,,,,,,,,,,,,,,,2,,,,,,,,,,,,,,,,,,,,,,,,,,,554.49944,123,right,0.955675,scarf         ,5,6,1,1,1,554.51652,554.51652,557.014115,0,45,45,45,1,123,4,5,phone       ,scarf         ,html/resources/sequences_IDs/B/09_phone.jpg,html/resources/sequences_IDs/A/06_scarf.jpg,9,6,4,2,3,2,7,5,0,19,,,,,,,,,,,,,,,,,,,,
,,,,,19,2020-07-01_09h48.38.471,retriever_ti,2020.1.3,Win32,60,Chrome,1829,1029,,,,,,,,,,,,,,,,,2,,,,,,,,,,,,,,,,,,,,,,,,,,,558.116435,124,right,1.222545,seaturtle     ,1,2,-4,0,3,558.13314,558.13314,560.63098,0,46,46,46,1,124,5,1,scarf         ,seaturtle     ,html/resources/sequences_IDs/A/06_scarf.jpg,html/resources/sequences_IDs/A/02_seaturtle.jpg,6,2,3,2,2,1,5,2,0,19,,,,,,,,,,,,,,,,,,,,
,,,,,19,2020-07-01_09h48.38.471,retriever_ti,2020.1.3,Win32,60,Chrome,1829,1029,,,,,,,,,,,,,,,,,2,,,,,,,,,,,,,,,,,,,,,,,,,,,561.23216,125,right,0.53511,parrot      ,8,5,1,1,0,561.2503,561.2503,563.748335,0,47,47,47,1,125,7,8,clownfish     ,parrot      ,html/resources/sequences_IDs/A/04_clownfish.jpg,html/resources/sequences_IDs/B/05_parrot.jpg,4,5,2,1,2,1,3,4,1,19,,,,,,,,,,,,,,,,,,,,
,,,,,19,2020-07-01_09h48.38.471,retriever_ti,2020.1.3,Win32,60,Chrome,1829,1029,,,,,,,,,,,,,,,,,2,,,,,,,,,,,,,,,,,,,,,,,,,,,564.850905,126,right,1.583385,phone       ,4,9,1,1,1,564.868085,564.868085,567.3652,0,48,48,48,1,126,3,4,dress         ,phone       ,html/resources/sequences_IDs/A/07_dress.jpg,html/resources/sequences_IDs/B/09_phone.jpg,7,9,3,2,4,2,6,7,0,19,,,,,,,,,,,,,,,,,,,,
,,,,,19,2020-07-01_09h48.38.471,retriever_ti,2020.1.3,Win32,60,Chrome,1829,1029,,,,,,,,,,,,,,,,,2,,,,,,,,,,,,,,,,,,,,,,,,,,,568.467415,127,left,0.528655,clownfish     ,7,4,2,1,3,568.48426,568.48426,570.982075,0,49,49,49,1,127,7,5,clownfish     ,scarf         ,html/resources/sequences_IDs/A/04_clownfish.jpg,html/resources/sequences_IDs/A/06_scarf.jpg,4,6,2,1,3,2,3,5,0,19,,,,,,,,,,,,,,,,,,,,
,,,,,19,2020-07-01_09h48.38.471,retriever_ti,2020.1.3,Win32,60,Chrome,1829,1029,,,,,,,,,,,,,,,,,2,,,,,,,,,,,,,,,,,,,,,,,,,,,571.58425,128,right,0.98242,redfox      ,2,1,-1,0,0,571.601325,571.601325,574.099335,0,50,50,50,1,128,3,2,dress         ,redfox      ,html/resources/sequences_IDs/A/07_dress.jpg,html/resources/sequences_IDs/B/01_redfox.jpg,7,1,3,2,1,1,6,1,0,19,,,,,,,,,,,,,,,,,,,,
,,,,,19,2020-07-01_09h48.38.471,retriever_ti,2020.1.3,Win32,60,Chrome,1829,1029,,,,,,,,,,,,,,,,,2,,,,,,,,,,,,,,,,,,,,,,,,,,,575.20019,129,left,0.58678,parrot      ,8,5,4,1,3,575.23499,575.23499,577.73297,0,51,51,51,1,129,8,4,parrot      ,phone       ,html/resources/sequences_IDs/B/05_parrot.jpg,html/resources/sequences_IDs/B/09_phone.jpg,5,9,2,1,4,2,4,7,0,19,,,,,,,,,,,,,,,,,,,,
,,,,,19,2020-07-01_09h48.38.471,retriever_ti,2020.1.3,Win32,60,Chrome,1829,1029,,,,,,,,,,,,,,,,,2,,,,,,,,,,,,,,,,,,,,,,,,,,,578.35202,130,right,0.51297,clownfish     ,7,4,4,1,3,578.38525,578.38525,580.88347,0,52,52,52,1,130,3,7,dress         ,clownfish     ,html/resources/sequences_IDs/A/07_dress.jpg,html/resources/sequences_IDs/A/04_clownfish.jpg,7,4,3,2,2,1,6,3,0,19,,,,,,,,,,,,,,,,,,,,
,,,,,19,2020-07-01_09h48.38.471,retriever_ti,2020.1.3,Win32,60,Chrome,1829,1029,,,,,,,,,,,,,,,,,2,,,,,,,,,,,,,,,,,,,,,,,,,,,581.500825,131,left,0.850325,seaturtle     ,1,2,-3,0,3,581.53574,581.53574,584.03373,0,53,53,53,1,131,1,4,seaturtle     ,phone       ,html/resources/sequences_IDs/A/02_seaturtle.jpg,html/resources/sequences_IDs/B/09_phone.jpg,2,9,2,1,4,2,2,7,0,19,,,,,,,,,,,,,,,,,,,,
,,,,,19,2020-07-01_09h48.38.471,retriever_ti,2020.1.3,Win32,60,Chrome,1829,1029,,,,,,,,,,,,,,,,,2,,,,,,,,,,,,,,,,,,,,,,,,,,,584.651235,132,right,1.38132,redfox      ,2,1,-2,0,3,584.68748,584.68748,587.18409,0,54,54,54,1,132,4,2,phone       ,redfox      ,html/resources/sequences_IDs/B/09_phone.jpg,html/resources/sequences_IDs/B/01_redfox.jpg,9,1,4,2,1,1,7,1,0,19,,,,,,,,,,,,,,,,,,,,
,,,,,19,2020-07-01_09h48.38.471,retriever_ti,2020.1.3,Win32,60,Chrome,1829,1029,,,,,,,,,,,,,,,,,2,,,,,,,,,,,,,,,,,,,,,,,,,,,587.803105,133,right,0.65196,clownfish     ,7,4,1,1,1,587.820295,587.820295,590.317595,0,55,55,55,1,133,6,7,radio       ,clownfish     ,html/resources/sequences_IDs/B/10_radio.jpg,html/resources/sequences_IDs/A/04_clownfish.jpg,10,4,4,2,2,1,8,3,0,19,,,,,,,,,,,,,,,,,,,,
,,,,,19,2020-07-01_09h48.38.471,retriever_ti,2020.1.3,Win32,60,Chrome,1829,1029,,,,,,,,,,,,,,,,,2,,,,,,,,,,,,,,,,,,,,,,,,,,,591.418665,134,right,1.23392,dress         ,3,7,-1,0,0,591.45334,591.45334,593.951275,0,56,56,56,1,134,4,3,phone       ,dress         ,html/resources/sequences_IDs/B/09_phone.jpg,html/resources/sequences_IDs/A/07_dress.jpg,9,7,4,2,3,2,7,6,0,19,,,,,,,,,,,,,,,,,,,,
,,,,,19,2020-07-01_09h48.38.471,retriever_ti,2020.1.3,Win32,60,Chrome,1829,1029,,,,,,,,,,,,,,,,,2,,,,,,,,,,,,,,,,,,,,,,,,,,,595.053605,135,left,1.218995,seaturtle     ,1,2,-1,0,0,595.070445,595.070445,597.56815,0,57,57,57,1,135,1,2,seaturtle     ,redfox      ,html/resources/sequences_IDs/A/02_seaturtle.jpg,html/resources/sequences_IDs/B/01_redfox.jpg,2,1,2,1,1,1,2,1,0,19,,,,,,,,,,,,,,,,,,,,
,,,,,19,2020-07-01_09h48.38.471,retriever_ti,2020.1.3,Win32,60,Chrome,1829,1029,,,,,,,,,,,,,,,,,2,,,,,,,,,,,,,,,,,,,,,,,,,,,598.670895,136,right,1.036875,clownfish     ,7,4,3,1,3,598.704575,598.704575,601.202185,0,58,58,58,1,136,4,7,phone       ,clownfish     ,html/resources/sequences_IDs/B/09_phone.jpg,html/resources/sequences_IDs/A/04_clownfish.jpg,9,4,4,2,2,1,7,3,0,19,,,,,,,,,,,,,,,,,,,,
,,,,,19,2020-07-01_09h48.38.471,retriever_ti,2020.1.3,Win32,60,Chrome,1829,1029,,,,,,,,,,,,,,,,,2,,,,,,,,,,,,,,,,,,,,,,,,,,,601.82128,137,right,0.61949,clownfish     ,7,4,1,1,1,601.85497,601.85497,604.35288,0,59,59,59,1,137,6,7,radio       ,clownfish     ,html/resources/sequences_IDs/B/10_radio.jpg,html/resources/sequences_IDs/A/04_clownfish.jpg,10,4,4,2,2,1,8,3,0,19,,,,,,,,,,,,,,,,,,,,
,,,,,19,2020-07-01_09h48.38.471,retriever_ti,2020.1.3,Win32,60,Chrome,1829,1029,,,,,,,,,,,,,,,,,2,,,,,,,,,,,,,,,,,,,,,,,,,,,605.45348,138,left,0.62342,scarf         ,5,6,-1,0,1,605.48862,605.48862,607.98619,0,60,60,60,1,138,5,6,scarf         ,radio       ,html/resources/sequences_IDs/A/06_scarf.jpg,html/resources/sequences_IDs/B/10_radio.jpg,6,10,3,2,4,2,5,8,1,19,,,,,,,,,,,,,,,,,,,,
,,,,,19,2020-07-01_09h48.38.471,retriever_ti,2020.1.3,Win32,60,Chrome,1829,1029,,,,,,,,,,,,,,,,,2,,,,,,,,,,,,,,,,,,,,,,,,,,,609.088765,139,right,0.703555,scarf         ,5,6,-1,0,0,609.10575,609.10575,611.60325,0,61,61,61,1,139,6,5,radio       ,scarf         ,html/resources/sequences_IDs/B/10_radio.jpg,html/resources/sequences_IDs/A/06_scarf.jpg,10,6,4,2,3,2,8,5,0,19,,,,,,,,,,,,,,,,,,,,
,,,,,19,2020-07-01_09h48.38.471,retriever_ti,2020.1.3,Win32,60,Chrome,1829,1029,,,,,,,,,,,,,,,,,2,,,,,,,,,,,,,,,,,,,,,,,,,,,612.705505,140,right,0.822205,dress         ,3,7,-1,0,0,612.72211,612.72211,615.220255,0,62,62,62,1,140,4,3,phone       ,dress         ,html/resources/sequences_IDs/B/09_phone.jpg,html/resources/sequences_IDs/A/07_dress.jpg,9,7,4,2,3,2,7,6,0,19,,,,,,,,,,,,,,,,,,,,
,,,,,19,2020-07-01_09h48.38.471,retriever_ti,2020.1.3,Win32,60,Chrome,1829,1029,,,,,,,,,,,,,,,,,2,,,,,,,,,,,,,,,,,,,,,,,,,,,616.322565,141,right,0.81999,parrot      ,8,5,3,1,3,616.33936,616.33936,618.837315,0,63,63,63,1,141,5,8,scarf         ,parrot      ,html/resources/sequences_IDs/A/06_scarf.jpg,html/resources/sequences_IDs/B/05_parrot.jpg,6,5,3,2,2,1,5,4,0,19,,,,,,,,,,,,,,,,,,,,
,,,,,19,2020-07-01_09h48.38.471,retriever_ti,2020.1.3,Win32,60,Chrome,1829,1029,,,,,,,,,,,,,,,,,2,,,,,,,,,,,,,,,,,,,,,,,,,,,619.45487,142,left,0.61072,parrot      ,8,5,2,1,3,619.473145,619.473145,621.970985,0,64,64,64,1,142,8,6,parrot      ,radio       ,html/resources/sequences_IDs/B/05_parrot.jpg,html/resources/sequences_IDs/B/10_radio.jpg,5,10,2,1,4,2,4,8,0,19,,,,,,,,,,,,,,,,,,,,
,,,,,19,2020-07-01_09h48.38.471,retriever_ti,2020.1.3,Win32,60,Chrome,1829,1029,,,,,,,,,,,,,,,,,2,,,,,,,,,,,,,,,,,,,,,,,,,,,622.574445,143,right,0.63282,seaturtle     ,1,2,-2,0,3,622.60692,622.60692,625.104665,0,65,65,65,1,143,3,1,dress         ,seaturtle     ,html/resources/sequences_IDs/A/07_dress.jpg,html/resources/sequences_IDs/A/02_seaturtle.jpg,7,2,3,2,2,1,6,2,0,19,,,,,,,,,,,,,,,,,,,,
,,,,,19,2020-07-01_09h48.38.471,retriever_ti,2020.1.3,Win32,60,Chrome,1829,1029,,,,,,,,,,,,,,,,,2,,,,,,,,,,,,,,,,,,,,,,,,,,,625.7232,144,left,0.73169,redfox      ,2,1,-1,0,1,625.75708,625.75708,628.254975,0,66,66,66,1,144,2,3,redfox      ,dress         ,html/resources/sequences_IDs/B/01_redfox.jpg,html/resources/sequences_IDs/A/07_dress.jpg,1,7,1,1,3,2,1,6,1,19,,,,,,,,,,,,,,,,,,,,
,,,,,19,2020-07-01_09h48.38.471,retriever_ti,2020.1.3,Win32,60,Chrome,1829,1029,,,,,,,,,,,,,,,,,2,,,,,,,,,,,,,,,,,,,,,,,,,,,629.355855,145,right,0.53363,redfox      ,2,1,-6,0,3,629.390685,629.390685,631.888765,0,67,67,67,1,145,8,2,parrot      ,redfox      ,html/resources/sequences_IDs/B/05_parrot.jpg,html/resources/sequences_IDs/B/01_redfox.jpg,5,1,2,1,1,1,4,1,0,19,,,,,,,,,,,,,,,,,,,,
,,,,,19,2020-07-01_09h48.38.471,retriever_ti,2020.1.3,Win32,60,Chrome,1829,1029,,,,,,,,,,,,,,,,,2,,,,,,,,,,,,,,,,,,,,,,,,,,,632.508025,146,NaN,NaN,No_response,NaN,NaN,NaN,2,2,632.524615,632.524615,635.02237,0,68,68,68,1,146,1,2,seaturtle     ,redfox      ,html/resources/sequences_IDs/A/02_seaturtle.jpg,html/resources/sequences_IDs/B/01_redfox.jpg,2,1,2,1,1,1,2,1,0,19,,,,,,,,,,,,,,,,,,,,
,,,,,19,2020-07-01_09h48.38.471,retriever_ti,2020.1.3,Win32,60,Chrome,1829,1029,,,,,,,,,,,,,,,,,2,,,,,,,,,,,,,,,,,,,,,,,,,,,636.125015,147,left,1.079795,phone       ,4,9,-2,0,3,636.15836,636.15836,638.656135,0,69,69,69,1,147,4,6,phone       ,radio       ,html/resources/sequences_IDs/B/09_phone.jpg,html/resources/sequences_IDs/B/10_radio.jpg,9,10,4,2,4,2,7,8,0,19,,,,,,,,,,,,,,,,,,,,
,,,,,19,2020-07-01_09h48.38.471,retriever_ti,2020.1.3,Win32,60,Chrome,1829,1029,,,,,,,,,,,,,,,,,2,,,,,,,,,,,,,,,,,,,,,,,,,,,639.27409,148,right,0.67341,clownfish     ,7,4,6,1,3,639.30823,639.30823,641.806455,0,70,70,70,1,148,1,7,seaturtle     ,clownfish     ,html/resources/sequences_IDs/A/02_seaturtle.jpg,html/resources/sequences_IDs/A/04_clownfish.jpg,2,4,2,1,2,1,2,3,0,19,,,,,,,,,,,,,,,,,,,,
,,,,,19,2020-07-01_09h48.38.471,retriever_ti,2020.1.3,Win32,60,Chrome,1829,1029,,,,,,,,,,,,,,,,,2,,,,,,,,,,,,,,,,,,,,,,,,,,,642.425535,149,left,1.098655,redfox      ,2,1,-1,0,0,642.442045,642.442045,644.93993,0,71,71,71,1,149,2,3,redfox      ,dress         ,html/resources/sequences_IDs/B/01_redfox.jpg,html/resources/sequences_IDs/A/07_dress.jpg,1,7,1,1,3,2,1,6,0,19,,,,,,,,,,,,,,,,,,,,
,,,,,19,2020-07-01_09h48.38.471,retriever_ti,2020.1.3,Win32,60,Chrome,1829,1029,,,,,,,,,,,,,,,,,2,,,,,,,,,,,,,,,,,,,,,,,,,,,646.04243,150,left,0.68515,clownfish     ,7,4,1,1,1,646.059115,646.059115,648.557095,0,72,72,72,1,150,7,6,clownfish     ,radio       ,html/resources/sequences_IDs/A/04_clownfish.jpg,html/resources/sequences_IDs/B/10_radio.jpg,4,10,2,1,4,2,3,8,0,19,,,,,,,,,,,,,,,,,,,,
,,,,,19,2020-07-01_09h48.38.471,retriever_ti,2020.1.3,Win32,60,Chrome,1829,1029,,,,,,,,,,,,,,,,,2,,,,,,,,,,,,,,,,,,,,,,,,,,,649.6591,151,right,0.58749,parrot      ,8,5,2,1,3,649.69296,649.69296,652.190775,0,73,73,73,1,151,6,8,radio       ,parrot      ,html/resources/sequences_IDs/B/10_radio.jpg,html/resources/sequences_IDs/B/05_parrot.jpg,10,5,4,2,2,1,8,4,0,19,,,,,,,,,,,,,,,,,,,,
,,,,,19,2020-07-01_09h48.38.471,retriever_ti,2020.1.3,Win32,60,Chrome,1829,1029,,,,,,,,,,,,,,,,,2,,,,,,,,,,,,,,,,,,,,,,,,,,,652.80846,152,left,1.38194,scarf         ,5,6,-1,0,0,652.826525,652.826525,655.32433,0,74,74,74,1,152,5,6,scarf         ,radio       ,html/resources/sequences_IDs/A/06_scarf.jpg,html/resources/sequences_IDs/B/10_radio.jpg,6,10,3,2,4,2,5,8,0,19,,,,,,,,,,,,,,,,,,,,
,,,,,19,2020-07-01_09h48.38.471,retriever_ti,2020.1.3,Win32,60,Chrome,1829,1029,,,,,,,,,,,,,,,,,2,,,,,,,,,,,,,,,,,,,,,,,,,,,656.426665,153,right,0.896345,clownfish     ,7,4,-1,0,0,656.460195,656.460195,658.958295,0,75,75,75,1,153,8,7,parrot      ,clownfish     ,html/resources/sequences_IDs/B/05_parrot.jpg,html/resources/sequences_IDs/A/04_clownfish.jpg,5,4,2,1,2,1,4,3,0,19,,,,,,,,,,,,,,,,,,,,
,,,,,19,2020-07-01_09h48.38.471,retriever_ti,2020.1.3,Win32,60,Chrome,1829,1029,,,,,,,,,,,,,,,,,2,,,,,,,,,,,,,,,,,,,,,,,,,,,660.060815,154,right,0.899535,dress         ,3,7,-2,0,3,660.07745,660.07745,662.575235,0,76,76,76,1,154,5,3,scarf         ,dress         ,html/resources/sequences_IDs/A/06_scarf.jpg,html/resources/sequences_IDs/A/07_dress.jpg,6,7,3,2,3,2,5,6,0,19,,,,,,,,,,,,,,,,,,,,
,,,,,19,2020-07-01_09h48.38.471,retriever_ti,2020.1.3,Win32,60,Chrome,1829,1029,,,,,,,,,,,,,,,,,,,,,,,,,,,,,,,,,,,,,0,1.35613,,,,,,,,,,,,,,,,,,,,,,,,,,,,,,,,,,,,,,,,,1,0,1,0,1,,,,,,,,,,,,,,,
,,,,,19,2020-07-01_09h48.38.471,retriever_ti,2020.1.3,Win32,60,Chrome,1829,1029,,,,,,,,,,,,,,,,,3,,,,,,,,,,,,,,,,,,,,,,,,,,,668.754645,155,right,1.12727,seaturtle     ,1,2,-5,0,3,668.99618,668.99618,671.493,0,0,0,0,1,155,6,1,radio       ,seaturtle     ,html/resources/sequences_IDs/B/10_radio.jpg,html/resources/sequences_IDs/A/02_seaturtle.jpg,10,2,4,2,2,1,8,2,0,19,,,,,,,,,,,,,,,,,,,,
,,,,,19,2020-07-01_09h48.38.471,retriever_ti,2020.1.3,Win32,60,Chrome,1829,1029,,,,,,,,,,,,,,,,,3,,,,,,,,,,,,,,,,,,,,,,,,,,,672.09594,156,left,1.15462,redfox      ,2,1,-2,0,3,672.128455,672.128455,674.626485,0,1,1,1,1,156,2,4,redfox      ,phone       ,html/resources/sequences_IDs/B/01_redfox.jpg,html/resources/sequences_IDs/B/09_phone.jpg,1,9,1,1,4,2,1,7,0,19,,,,,,,,,,,,,,,,,,,,
,,,,,19,2020-07-01_09h48.38.471,retriever_ti,2020.1.3,Win32,60,Chrome,1829,1029,,,,,,,,,,,,,,,,,3,,,,,,,,,,,,,,,,,,,,,,,,,,,675.244465,157,left,0.949945,scarf         ,5,6,-1,0,0,675.278915,675.278915,677.776735,0,2,2,2,1,157,5,6,scarf         ,radio       ,html/resources/sequences_IDs/A/06_scarf.jpg,html/resources/sequences_IDs/B/10_radio.jpg,6,10,3,2,4,2,5,8,0,19,,,,,,,,,,,,,,,,,,,,
,,,,,19,2020-07-01_09h48.38.471,retriever_ti,2020.1.3,Win32,60,Chrome,1829,1029,,,,,,,,,,,,,,,,,3,,,,,,,,,,,,,,,,,,,,,,,,,,,678.87906,158,right,0.823705,seaturtle     ,1,2,-4,0,3,678.91274,678.91274,681.410605,0,3,3,3,1,158,5,1,scarf         ,seaturtle     ,html/resources/sequences_IDs/A/06_scarf.jpg,html/resources/sequences_IDs/A/02_seaturtle.jpg,6,2,3,2,2,1,5,2,0,19,,,,,,,,,,,,,,,,,,,,
,,,,,19,2020-07-01_09h48.38.471,retriever_ti,2020.1.3,Win32,60,Chrome,1829,1029,,,,,,,,,,,,,,,,,3,,,,,,,,,,,,,,,,,,,,,,,,,,,682.029575,159,right,0.549485,parrot      ,8,5,3,1,3,682.062855,682.062855,684.56101,0,4,4,4,1,159,5,8,scarf         ,parrot      ,html/resources/sequences_IDs/A/06_scarf.jpg,html/resources/sequences_IDs/B/05_parrot.jpg,6,5,3,2,2,1,5,4,0,19,,,,,,,,,,,,,,,,,,,,
,,,,,19,2020-07-01_09h48.38.471,retriever_ti,2020.1.3,Win32,60,Chrome,1829,1029,,,,,,,,,,,,,,,,,3,,,,,,,,,,,,,,,,,,,,,,,,,,,685.17842,160,left,0.830685,scarf         ,5,6,1,1,1,685.19683,685.19683,687.694605,0,5,5,5,1,160,5,4,scarf         ,phone       ,html/resources/sequences_IDs/A/06_scarf.jpg,html/resources/sequences_IDs/B/09_phone.jpg,6,9,3,2,4,2,5,7,0,19,,,,,,,,,,,,,,,,,,,,
,,,,,19,2020-07-01_09h48.38.471,retriever_ti,2020.1.3,Win32,60,Chrome,1829,1029,,,,,,,,,,,,,,,,,3,,,,,,,,,,,,,,,,,,,,,,,,,,,688.796905,161,right,1.096585,radio       ,6,10,4,1,3,688.830195,688.830195,691.32837,0,6,6,6,1,161,2,6,redfox      ,radio       ,html/resources/sequences_IDs/B/01_redfox.jpg,html/resources/sequences_IDs/B/10_radio.jpg,1,10,1,1,4,2,1,8,0,19,,,,,,,,,,,,,,,,,,,,
,,,,,19,2020-07-01_09h48.38.471,retriever_ti,2020.1.3,Win32,60,Chrome,1829,1029,,,,,,,,,,,,,,,,,3,,,,,,,,,,,,,,,,,,,,,,,,,,,691.947315,162,right,0.498715,parrot      ,8,5,5,1,3,691.98093,691.98093,694.47858,0,7,7,7,1,162,3,8,dress         ,parrot      ,html/resources/sequences_IDs/A/07_dress.jpg,html/resources/sequences_IDs/B/05_parrot.jpg,7,5,3,2,2,1,6,4,0,19,,,,,,,,,,,,,,,,,,,,
,,,,,19,2020-07-01_09h48.38.471,retriever_ti,2020.1.3,Win32,60,Chrome,1829,1029,,,,,,,,,,,,,,,,,3,,,,,,,,,,,,,,,,,,,,,,,,,,,695.096185,163,right,0.543195,dress         ,3,7,-1,0,0,695.130775,695.130775,697.628945,0,8,8,8,1,163,4,3,phone       ,dress         ,html/resources/sequences_IDs/B/09_phone.jpg,html/resources/sequences_IDs/A/07_dress.jpg,9,7,4,2,3,2,7,6,0,19,,,,,,,,,,,,,,,,,,,,
,,,,,19,2020-07-01_09h48.38.471,retriever_ti,2020.1.3,Win32,60,Chrome,1829,1029,,,,,,,,,,,,,,,,,3,,,,,,,,,,,,,,,,,,,,,,,,,,,698.731355,164,right,0.94012,parrot      ,8,5,1,1,1,698.764615,698.764615,701.262715,0,9,9,9,1,164,7,8,clownfish     ,parrot      ,html/resources/sequences_IDs/A/04_clownfish.jpg,html/resources/sequences_IDs/B/05_parrot.jpg,4,5,2,1,2,1,3,4,0,19,,,,,,,,,,,,,,,,,,,,
,,,,,19,2020-07-01_09h48.38.471,retriever_ti,2020.1.3,Win32,60,Chrome,1829,1029,,,,,,,,,,,,,,,,,3,,,,,,,,,,,,,,,,,,,,,,,,,,,702.36487,165,right,1.498445,radio       ,6,10,1,1,1,702.38169,702.38169,704.8797,0,10,10,10,1,165,5,6,scarf         ,radio       ,html/resources/sequences_IDs/A/06_scarf.jpg,html/resources/sequences_IDs/B/10_radio.jpg,6,10,3,2,4,2,5,8,0,19,,,,,,,,,,,,,,,,,,,,
,,,,,19,2020-07-01_09h48.38.471,retriever_ti,2020.1.3,Win32,60,Chrome,1829,1029,,,,,,,,,,,,,,,,,3,,,,,,,,,,,,,,,,,,,,,,,,,,,705.981965,166,left,0.749255,radio       ,6,10,4,1,3,705.99878,705.99878,708.49668,0,11,11,11,1,166,6,2,radio       ,redfox      ,html/resources/sequences_IDs/B/10_radio.jpg,html/resources/sequences_IDs/B/01_redfox.jpg,10,1,4,2,1,1,8,1,0,19,,,,,,,,,,,,,,,,,,,,
,,,,,19,2020-07-01_09h48.38.471,retriever_ti,2020.1.3,Win32,60,Chrome,1829,1029,,,,,,,,,,,,,,,,,3,,,,,,,,,,,,,,,,,,,,,,,,,,,709.114325,167,left,0.66538,parrot      ,8,5,5,1,3,709.149265,709.149265,711.647165,0,12,12,12,1,167,8,3,parrot      ,dress         ,html/resources/sequences_IDs/B/05_parrot.jpg,html/resources/sequences_IDs/A/07_dress.jpg,5,7,2,1,3,2,4,6,0,19,,,,,,,,,,,,,,,,,,,,
,,,,,19,2020-07-01_09h48.38.471,retriever_ti,2020.1.3,Win32,60,Chrome,1829,1029,,,,,,,,,,,,,,,,,3,,,,,,,,,,,,,,,,,,,,,,,,,,,712.265975,168,right,0.88827,phone       ,4,9,-1,0,0,712.299595,712.299595,714.79739,0,13,13,13,1,168,5,4,scarf         ,phone       ,html/resources/sequences_IDs/A/06_scarf.jpg,html/resources/sequences_IDs/B/09_phone.jpg,6,9,3,2,4,2,5,7,0,19,,,,,,,,,,,,,,,,,,,,
,,,,,19,2020-07-01_09h48.38.471,retriever_ti,2020.1.3,Win32,60,Chrome,1829,1029,,,,,,,,,,,,,,,,,3,,,,,,,,,,,,,,,,,,,,,,,,,,,715.899915,169,right,0.93634,seaturtle     ,1,2,-2,0,3,715.93338,715.93338,718.43114,0,14,14,14,1,169,3,1,dress         ,seaturtle     ,html/resources/sequences_IDs/A/07_dress.jpg,html/resources/sequences_IDs/A/02_seaturtle.jpg,7,2,3,2,2,1,6,2,0,19,,,,,,,,,,,,,,,,,,,,
,,,,,19,2020-07-01_09h48.38.471,retriever_ti,2020.1.3,Win32,60,Chrome,1829,1029,,,,,,,,,,,,,,,,,3,,,,,,,,,,,,,,,,,,,,,,,,,,,719.048715,170,right,0.88628,seaturtle     ,1,2,-1,0,0,719.08342,719.08342,721.582445,0,15,15,15,1,170,2,1,redfox      ,seaturtle     ,html/resources/sequences_IDs/B/01_redfox.jpg,html/resources/sequences_IDs/A/02_seaturtle.jpg,1,2,1,1,2,1,1,2,0,19,,,,,,,,,,,,,,,,,,,,
,,,,,19,2020-07-01_09h48.38.471,retriever_ti,2020.1.3,Win32,60,Chrome,1829,1029,,,,,,,,,,,,,,,,,3,,,,,,,,,,,,,,,,,,,,,,,,,,,722.68397,171,left,0.9987,clownfish     ,7,4,5,1,3,722.700755,722.700755,725.198585,0,16,16,16,1,171,7,2,clownfish     ,redfox      ,html/resources/sequences_IDs/A/04_clownfish.jpg,html/resources/sequences_IDs/B/01_redfox.jpg,4,1,2,1,1,1,3,1,0,19,,,,,,,,,,,,,,,,,,,,
,,,,,19,2020-07-01_09h48.38.471,retriever_ti,2020.1.3,Win32,60,Chrome,1829,1029,,,,,,,,,,,,,,,,,3,,,,,,,,,,,,,,,,,,,,,,,,,,,725.817155,172,left,0.80331,parrot      ,8,5,1,1,1,725.85059,725.85059,728.34918,0,17,17,17,1,172,8,7,parrot      ,clownfish     ,html/resources/sequences_IDs/B/05_parrot.jpg,html/resources/sequences_IDs/A/04_clownfish.jpg,5,4,2,1,2,1,4,3,0,19,,,,,,,,,,,,,,,,,,,,
,,,,,19,2020-07-01_09h48.38.471,retriever_ti,2020.1.3,Win32,60,Chrome,1829,1029,,,,,,,,,,,,,,,,,3,,,,,,,,,,,,,,,,,,,,,,,,,,,729.449965,173,left,0.802415,phone       ,4,9,1,1,1,729.48464,729.48464,731.98255,0,18,18,18,1,173,4,3,phone       ,dress         ,html/resources/sequences_IDs/B/09_phone.jpg,html/resources/sequences_IDs/A/07_dress.jpg,9,7,4,2,3,2,7,6,0,19,,,,,,,,,,,,,,,,,,,,
,,,,,19,2020-07-01_09h48.38.471,retriever_ti,2020.1.3,Win32,60,Chrome,1829,1029,,,,,,,,,,,,,,,,,3,,,,,,,,,,,,,,,,,,,,,,,,,,,733.08506,174,left,0.770345,radio       ,6,10,1,1,1,733.102025,733.102025,735.59958,0,19,19,19,1,174,6,5,radio       ,scarf         ,html/resources/sequences_IDs/B/10_radio.jpg,html/resources/sequences_IDs/A/06_scarf.jpg,10,6,4,2,3,2,8,5,0,19,,,,,,,,,,,,,,,,,,,,
,,,,,19,2020-07-01_09h48.38.471,retriever_ti,2020.1.3,Win32,60,Chrome,1829,1029,,,,,,,,,,,,,,,,,3,,,,,,,,,,,,,,,,,,,,,,,,,,,736.70208,175,right,0.692205,parrot      ,8,5,7,1,3,736.71875,736.71875,739.216685,0,20,20,20,1,175,1,8,seaturtle     ,parrot      ,html/resources/sequences_IDs/A/02_seaturtle.jpg,html/resources/sequences_IDs/B/05_parrot.jpg,2,5,2,1,2,1,2,4,0,19,,,,,,,,,,,,,,,,,,,,
,,,,,19,2020-07-01_09h48.38.471,retriever_ti,2020.1.3,Win32,60,Chrome,1829,1029,,,,,,,,,,,,,,,,,3,,,,,,,,,,,,,,,,,,,,,,,,,,,739.83531,176,right,1.506315,redfox      ,2,1,-1,0,0,739.852415,739.852415,742.35015,0,21,21,21,1,176,3,2,dress         ,redfox      ,html/resources/sequences_IDs/A/07_dress.jpg,html/resources/sequences_IDs/B/01_redfox.jpg,7,1,3,2,1,1,6,1,0,19,,,,,,,,,,,,,,,,,,,,
,,,,,19,2020-07-01_09h48.38.471,retriever_ti,2020.1.3,Win32,60,Chrome,1829,1029,,,,,,,,,,,,,,,,,3,,,,,,,,,,,,,,,,,,,,,,,,,,,743.45126,177,left,0.660435,dress         ,3,7,-2,0,3,743.469365,743.469365,745.967395,0,22,22,22,1,177,3,5,dress         ,scarf         ,html/resources/sequences_IDs/A/07_dress.jpg,html/resources/sequences_IDs/A/06_scarf.jpg,7,6,3,2,3,2,6,5,0,19,,,,,,,,,,,,,,,,,,,,
,,,,,19,2020-07-01_09h48.38.471,retriever_ti,2020.1.3,Win32,60,Chrome,1829,1029,,,,,,,,,,,,,,,,,3,,,,,,,,,,,,,,,,,,,,,,,,,,,746.586365,178,left,0.670265,redfox      ,2,1,-1,0,1,746.602855,746.602855,749.100865,0,23,23,23,1,178,2,3,redfox      ,dress         ,html/resources/sequences_IDs/B/01_redfox.jpg,html/resources/sequences_IDs/A/07_dress.jpg,1,7,1,1,3,2,1,6,1,19,,,,,,,,,,,,,,,,,,,,
,,,,,19,2020-07-01_09h48.38.471,retriever_ti,2020.1.3,Win32,60,Chrome,1829,1029,,,,,,,,,,,,,,,,,3,,,,,,,,,,,,,,,,,,,,,,,,,,,750.203495,179,left,1.08156,clownfish     ,7,4,6,1,3,750.2367,750.2367,752.73477,0,24,24,24,1,179,7,1,clownfish     ,seaturtle     ,html/resources/sequences_IDs/A/04_clownfish.jpg,html/resources/sequences_IDs/A/02_seaturtle.jpg,4,2,2,1,2,1,3,2,0,19,,,,,,,,,,,,,,,,,,,,
,,,,,19,2020-07-01_09h48.38.471,retriever_ti,2020.1.3,Win32,60,Chrome,1829,1029,,,,,,,,,,,,,,,,,3,,,,,,,,,,,,,,,,,,,,,,,,,,,753.35226,180,left,0.500525,clownfish     ,7,4,4,1,3,753.387105,753.387105,755.88489,0,25,25,25,1,180,7,3,clownfish     ,dress         ,html/resources/sequences_IDs/A/04_clownfish.jpg,html/resources/sequences_IDs/A/07_dress.jpg,4,7,2,1,3,2,3,6,0,19,,,,,,,,,,,,,,,,,,,,
,,,,,19,2020-07-01_09h48.38.471,retriever_ti,2020.1.3,Win32,60,Chrome,1829,1029,,,,,,,,,,,,,,,,,3,,,,,,,,,,,,,,,,,,,,,,,,,,,756.503815,181,left,0.61995,phone       ,4,9,-1,0,0,756.53736,756.53736,759.035275,0,26,26,26,1,181,4,5,phone       ,scarf         ,html/resources/sequences_IDs/B/09_phone.jpg,html/resources/sequences_IDs/A/06_scarf.jpg,9,6,4,2,3,2,7,5,0,19,,,,,,,,,,,,,,,,,,,,
,,,,,19,2020-07-01_09h48.38.471,retriever_ti,2020.1.3,Win32,60,Chrome,1829,1029,,,,,,,,,,,,,,,,,3,,,,,,,,,,,,,,,,,,,,,,,,,,,760.13804,182,right,0.627955,parrot      ,8,5,4,1,3,760.1717,760.1717,762.66921,0,27,27,27,1,182,4,8,phone       ,parrot      ,html/resources/sequences_IDs/B/09_phone.jpg,html/resources/sequences_IDs/B/05_parrot.jpg,9,5,4,2,2,1,7,4,0,19,,,,,,,,,,,,,,,,,,,,
,,,,,19,2020-07-01_09h48.38.471,retriever_ti,2020.1.3,Win32,60,Chrome,1829,1029,,,,,,,,,,,,,,,,,3,,,,,,,,,,,,,,,,,,,,,,,,,,,763.2868,183,left,0.776025,scarf         ,5,6,3,1,3,763.305285,763.305285,765.802725,0,28,28,28,1,183,5,2,scarf         ,redfox      ,html/resources/sequences_IDs/A/06_scarf.jpg,html/resources/sequences_IDs/B/01_redfox.jpg,6,1,3,2,1,1,5,1,0,19,,,,,,,,,,,,,,,,,,,,
,,,,,19,2020-07-01_09h48.38.471,retriever_ti,2020.1.3,Win32,60,Chrome,1829,1029,,,,,,,,,,,,,,,,,3,,,,,,,,,,,,,,,,,,,,,,,,,,,766.421755,184,left,0.541955,scarf         ,5,6,1,1,0,766.4389,766.4389,768.93632,0,29,29,29,1,184,5,4,scarf         ,phone       ,html/resources/sequences_IDs/A/06_scarf.jpg,html/resources/sequences_IDs/B/09_phone.jpg,6,9,3,2,4,2,5,7,1,19,,,,,,,,,,,,,,,,,,,,
,,,,,19,2020-07-01_09h48.38.471,retriever_ti,2020.1.3,Win32,60,Chrome,1829,1029,,,,,,,,,,,,,,,,,3,,,,,,,,,,,,,,,,,,,,,,,,,,,770.038835,185,left,1.59831,radio       ,6,10,3,1,3,770.07222,770.07222,772.57003,0,30,30,30,1,185,6,3,radio       ,dress         ,html/resources/sequences_IDs/B/10_radio.jpg,html/resources/sequences_IDs/A/07_dress.jpg,10,7,4,2,3,2,8,6,0,19,,,,,,,,,,,,,,,,,,,,
,,,,,19,2020-07-01_09h48.38.471,retriever_ti,2020.1.3,Win32,60,Chrome,1829,1029,,,,,,,,,,,,,,,,,3,,,,,,,,,,,,,,,,,,,,,,,,,,,773.187835,186,left,0.63217,clownfish     ,7,4,3,1,3,773.222765,773.222765,775.72063,0,31,31,31,1,186,7,4,clownfish     ,phone       ,html/resources/sequences_IDs/A/04_clownfish.jpg,html/resources/sequences_IDs/B/09_phone.jpg,4,9,2,1,4,2,3,7,0,19,,,,,,,,,,,,,,,,,,,,
,,,,,19,2020-07-01_09h48.38.471,retriever_ti,2020.1.3,Win32,60,Chrome,1829,1029,,,,,,,,,,,,,,,,,3,,,,,,,,,,,,,,,,,,,,,,,,,,,776.339525,187,right,0.770505,phone       ,4,9,-2,0,3,776.356535,776.356535,778.85428,0,32,32,32,1,187,6,4,radio       ,phone       ,html/resources/sequences_IDs/B/10_radio.jpg,html/resources/sequences_IDs/B/09_phone.jpg,10,9,4,2,4,2,8,7,0,19,,,,,,,,,,,,,,,,,,,,
,,,,,19,2020-07-01_09h48.38.471,retriever_ti,2020.1.3,Win32,60,Chrome,1829,1029,,,,,,,,,,,,,,,,,3,,,,,,,,,,,,,,,,,,,,,,,,,,,779.47182,188,right,1.052585,radio       ,6,10,5,1,3,779.49074,779.49074,781.988055,0,33,33,33,1,188,1,6,seaturtle     ,radio       ,html/resources/sequences_IDs/A/02_seaturtle.jpg,html/resources/sequences_IDs/B/10_radio.jpg,2,10,2,1,4,2,2,8,0,19,,,,,,,,,,,,,,,,,,,,
,,,,,19,2020-07-01_09h48.38.471,retriever_ti,2020.1.3,Win32,60,Chrome,1829,1029,,,,,,,,,,,,,,,,,3,,,,,,,,,,,,,,,,,,,,,,,,,,,782.607005,189,left,1.32113,scarf         ,5,6,-1,0,1,782.64056,782.64056,785.13826,0,34,34,34,1,189,5,6,scarf         ,radio       ,html/resources/sequences_IDs/A/06_scarf.jpg,html/resources/sequences_IDs/B/10_radio.jpg,6,10,3,2,4,2,5,8,1,19,,,,,,,,,,,,,,,,,,,,
,,,,,19,2020-07-01_09h48.38.471,retriever_ti,2020.1.3,Win32,60,Chrome,1829,1029,,,,,,,,,,,,,,,,,3,,,,,,,,,,,,,,,,,,,,,,,,,,,786.240615,190,right,0.92274,phone       ,4,9,1,1,1,786.257585,786.257585,788.755165,0,35,35,35,1,190,3,4,dress         ,phone       ,html/resources/sequences_IDs/A/07_dress.jpg,html/resources/sequences_IDs/B/09_phone.jpg,7,9,3,2,4,2,6,7,0,19,,,,,,,,,,,,,,,,,,,,
,,,,,19,2020-07-01_09h48.38.471,retriever_ti,2020.1.3,Win32,60,Chrome,1829,1029,,,,,,,,,,,,,,,,,3,,,,,,,,,,,,,,,,,,,,,,,,,,,789.85716,191,right,1.094795,clownfish     ,7,4,3,1,3,789.89091,789.89091,792.38908,0,36,36,36,1,191,4,7,phone       ,clownfish     ,html/resources/sequences_IDs/B/09_phone.jpg,html/resources/sequences_IDs/A/04_clownfish.jpg,9,4,4,2,2,1,7,3,0,19,,,,,,,,,,,,,,,,,,,,
,,,,,19,2020-07-01_09h48.38.471,retriever_ti,2020.1.3,Win32,60,Chrome,1829,1029,,,,,,,,,,,,,,,,,3,,,,,,,,,,,,,,,,,,,,,,,,,,,793.00635,192,right,0.85854,phone       ,4,9,1,1,1,793.041645,793.041645,795.53936,0,37,37,37,1,192,3,4,dress         ,phone       ,html/resources/sequences_IDs/A/07_dress.jpg,html/resources/sequences_IDs/B/09_phone.jpg,7,9,3,2,4,2,6,7,0,19,,,,,,,,,,,,,,,,,,,,
,,,,,19,2020-07-01_09h48.38.471,retriever_ti,2020.1.3,Win32,60,Chrome,1829,1029,,,,,,,,,,,,,,,,,3,,,,,,,,,,,,,,,,,,,,,,,,,,,796.64161,193,right,0.93608,parrot      ,8,5,1,1,1,796.65832,796.65832,799.1566,0,38,38,38,1,193,7,8,clownfish     ,parrot      ,html/resources/sequences_IDs/A/04_clownfish.jpg,html/resources/sequences_IDs/B/05_parrot.jpg,4,5,2,1,2,1,3,4,0,19,,,,,,,,,,,,,,,,,,,,
,,,,,19,2020-07-01_09h48.38.471,retriever_ti,2020.1.3,Win32,60,Chrome,1829,1029,,,,,,,,,,,,,,,,,3,,,,,,,,,,,,,,,,,,,,,,,,,,,800.259215,194,left,1.346065,clownfish     ,7,4,2,1,3,800.29221,800.29221,802.790105,0,39,39,39,1,194,7,5,clownfish     ,scarf         ,html/resources/sequences_IDs/A/04_clownfish.jpg,html/resources/sequences_IDs/A/06_scarf.jpg,4,6,2,1,3,2,3,5,0,19,,,,,,,,,,,,,,,,,,,,
,,,,,19,2020-07-01_09h48.38.471,retriever_ti,2020.1.3,Win32,60,Chrome,1829,1029,,,,,,,,,,,,,,,,,3,,,,,,,,,,,,,,,,,,,,,,,,,,,803.40788,195,left,0.63059,parrot      ,8,5,7,1,3,803.426155,803.426155,805.92379,0,40,40,40,1,195,8,1,parrot      ,seaturtle     ,html/resources/sequences_IDs/B/05_parrot.jpg,html/resources/sequences_IDs/A/02_seaturtle.jpg,5,2,2,1,2,1,4,2,0,19,,,,,,,,,,,,,,,,,,,,
,,,,,19,2020-07-01_09h48.38.471,retriever_ti,2020.1.3,Win32,60,Chrome,1829,1029,,,,,,,,,,,,,,,,,3,,,,,,,,,,,,,,,,,,,,,,,,,,,806.542745,196,right,0.622045,parrot      ,8,5,6,1,3,806.57658,806.57658,809.074,0,41,41,41,1,196,2,8,redfox      ,parrot      ,html/resources/sequences_IDs/B/01_redfox.jpg,html/resources/sequences_IDs/B/05_parrot.jpg,1,5,1,1,2,1,1,4,0,19,,,,,,,,,,,,,,,,,,,,
,,,,,19,2020-07-01_09h48.38.471,retriever_ti,2020.1.3,Win32,60,Chrome,1829,1029,,,,,,,,,,,,,,,,,3,,,,,,,,,,,,,,,,,,,,,,,,,,,809.691505,197,left,1.70898,seaturtle     ,1,2,-1,0,0,809.726475,809.726475,812.224415,0,42,42,42,1,197,1,2,seaturtle     ,redfox      ,html/resources/sequences_IDs/A/02_seaturtle.jpg,html/resources/sequences_IDs/B/01_redfox.jpg,2,1,2,1,1,1,2,1,0,19,,,,,,,,,,,,,,,,,,,,
,,,,,19,2020-07-01_09h48.38.471,retriever_ti,2020.1.3,Win32,60,Chrome,1829,1029,,,,,,,,,,,,,,,,,3,,,,,,,,,,,,,,,,,,,,,,,,,,,813.32661,198,left,0.51947,parrot      ,8,5,4,1,3,813.343525,813.343525,815.84133,0,43,43,43,1,198,8,4,parrot      ,phone       ,html/resources/sequences_IDs/B/05_parrot.jpg,html/resources/sequences_IDs/B/09_phone.jpg,5,9,2,1,4,2,4,7,0,19,,,,,,,,,,,,,,,,,,,,
,,,,,19,2020-07-01_09h48.38.471,retriever_ti,2020.1.3,Win32,60,Chrome,1829,1029,,,,,,,,,,,,,,,,,3,,,,,,,,,,,,,,,,,,,,,,,,,,,816.460425,199,right,0.614575,clownfish     ,7,4,2,1,3,816.49379,816.49379,818.991975,0,44,44,44,1,199,5,7,scarf         ,clownfish     ,html/resources/sequences_IDs/A/06_scarf.jpg,html/resources/sequences_IDs/A/04_clownfish.jpg,6,4,3,2,2,1,5,3,0,19,,,,,,,,,,,,,,,,,,,,
,,,,,19,2020-07-01_09h48.38.471,retriever_ti,2020.1.3,Win32,60,Chrome,1829,1029,,,,,,,,,,,,,,,,,3,,,,,,,,,,,,,,,,,,,,,,,,,,,819.60937,200,left,1.44721,redfox      ,2,1,1,1,0,819.627565,819.627565,822.125475,0,45,45,45,1,200,2,1,redfox      ,seaturtle     ,html/resources/sequences_IDs/B/01_redfox.jpg,html/resources/sequences_IDs/A/02_seaturtle.jpg,1,2,1,1,2,1,1,2,1,19,,,,,,,,,,,,,,,,,,,,
,,,,,19,2020-07-01_09h48.38.471,retriever_ti,2020.1.3,Win32,60,Chrome,1829,1029,,,,,,,,,,,,,,,,,3,,,,,,,,,,,,,,,,,,,,,,,,,,,823.22786,201,right,0.653805,parrot      ,8,5,1,1,0,823.262085,823.262085,825.759205,0,46,46,46,1,201,7,8,clownfish     ,parrot      ,html/resources/sequences_IDs/A/04_clownfish.jpg,html/resources/sequences_IDs/B/05_parrot.jpg,4,5,2,1,2,1,3,4,1,19,,,,,,,,,,,,,,,,,,,,
,,,,,19,2020-07-01_09h48.38.471,retriever_ti,2020.1.3,Win32,60,Chrome,1829,1029,,,,,,,,,,,,,,,,,3,,,,,,,,,,,,,,,,,,,,,,,,,,,826.86176,202,right,0.714575,clownfish     ,7,4,4,1,3,826.89523,826.89523,829.39273,0,47,47,47,1,202,3,7,dress         ,clownfish     ,html/resources/sequences_IDs/A/07_dress.jpg,html/resources/sequences_IDs/A/04_clownfish.jpg,7,4,3,2,2,1,6,3,0,19,,,,,,,,,,,,,,,,,,,,
,,,,,19,2020-07-01_09h48.38.471,retriever_ti,2020.1.3,Win32,60,Chrome,1829,1029,,,,,,,,,,,,,,,,,3,,,,,,,,,,,,,,,,,,,,,,,,,,,829.99536,203,right,0.483035,parrot      ,8,5,2,1,3,830.028785,830.028785,832.52647,0,48,48,48,1,203,6,8,radio       ,parrot      ,html/resources/sequences_IDs/B/10_radio.jpg,html/resources/sequences_IDs/B/05_parrot.jpg,10,5,4,2,2,1,8,4,0,19,,,,,,,,,,,,,,,,,,,,
,,,,,19,2020-07-01_09h48.38.471,retriever_ti,2020.1.3,Win32,60,Chrome,1829,1029,,,,,,,,,,,,,,,,,3,,,,,,,,,,,,,,,,,,,,,,,,,,,833.144025,204,left,0.663345,parrot      ,8,5,3,1,3,833.16215,833.16215,835.660265,0,49,49,49,1,204,8,5,parrot      ,scarf         ,html/resources/sequences_IDs/B/05_parrot.jpg,html/resources/sequences_IDs/A/06_scarf.jpg,5,6,2,1,3,2,4,5,0,19,,,,,,,,,,,,,,,,,,,,
,,,,,19,2020-07-01_09h48.38.471,retriever_ti,2020.1.3,Win32,60,Chrome,1829,1029,,,,,,,,,,,,,,,,,3,,,,,,,,,,,,,,,,,,,,,,,,,,,836.279085,205,left,0.52837,parrot      ,8,5,1,1,1,836.29593,836.29593,838.794005,0,50,50,50,1,205,8,7,parrot      ,clownfish     ,html/resources/sequences_IDs/B/05_parrot.jpg,html/resources/sequences_IDs/A/04_clownfish.jpg,5,4,2,1,2,1,4,3,0,19,,,,,,,,,,,,,,,,,,,,
,,,,,19,2020-07-01_09h48.38.471,retriever_ti,2020.1.3,Win32,60,Chrome,1829,1029,,,,,,,,,,,,,,,,,3,,,,,,,,,,,,,,,,,,,,,,,,,,,839.89602,206,left,1.687765,clownfish     ,7,4,1,1,0,839.930105,839.930105,842.427615,0,51,51,51,1,206,7,6,clownfish     ,radio       ,html/resources/sequences_IDs/A/04_clownfish.jpg,html/resources/sequences_IDs/B/10_radio.jpg,4,10,2,1,4,2,3,8,1,19,,,,,,,,,,,,,,,,,,,,
,,,,,19,2020-07-01_09h48.38.471,retriever_ti,2020.1.3,Win32,60,Chrome,1829,1029,,,,,,,,,,,,,,,,,3,,,,,,,,,,,,,,,,,,,,,,,,,,,843.52859,207,right,2.089835,scarf         ,5,6,4,1,3,843.563305,843.563305,846.061145,0,52,52,52,1,207,1,5,seaturtle     ,scarf         ,html/resources/sequences_IDs/A/02_seaturtle.jpg,html/resources/sequences_IDs/A/06_scarf.jpg,2,6,2,1,3,2,2,5,0,19,,,,,,,,,,,,,,,,,,,,
,,,,,19,2020-07-01_09h48.38.471,retriever_ti,2020.1.3,Win32,60,Chrome,1829,1029,,,,,,,,,,,,,,,,,3,,,,,,,,,,,,,,,,,,,,,,,,,,,846.680195,208,left,0.631905,scarf         ,5,6,2,1,3,846.696965,846.696965,849.195015,0,53,53,53,1,208,5,3,scarf         ,dress         ,html/resources/sequences_IDs/A/06_scarf.jpg,html/resources/sequences_IDs/A/07_dress.jpg,6,7,3,2,3,2,5,6,0,19,,,,,,,,,,,,,,,,,,,,
,,,,,19,2020-07-01_09h48.38.471,retriever_ti,2020.1.3,Win32,60,Chrome,1829,1029,,,,,,,,,,,,,,,,,3,,,,,,,,,,,,,,,,,,,,,,,,,,,849.81257,209,right,0.88233,scarf         ,5,6,3,1,3,849.83049,849.83049,852.328445,0,54,54,54,1,209,2,5,redfox      ,scarf         ,html/resources/sequences_IDs/B/01_redfox.jpg,html/resources/sequences_IDs/A/06_scarf.jpg,1,6,1,1,3,2,1,5,0,19,,,,,,,,,,,,,,,,,,,,
,,,,,19,2020-07-01_09h48.38.471,retriever_ti,2020.1.3,Win32,60,Chrome,1829,1029,,,,,,,,,,,,,,,,,3,,,,,,,,,,,,,,,,,,,,,,,,,,,852.931105,210,right,1.061585,phone       ,4,9,3,1,3,852.964505,852.964505,855.462075,0,55,55,55,1,210,1,4,seaturtle     ,phone       ,html/resources/sequences_IDs/A/02_seaturtle.jpg,html/resources/sequences_IDs/B/09_phone.jpg,2,9,2,1,4,2,2,7,0,19,,,,,,,,,,,,,,,,,,,,
,,,,,19,2020-07-01_09h48.38.471,retriever_ti,2020.1.3,Win32,60,Chrome,1829,1029,,,,,,,,,,,,,,,,,3,,,,,,,,,,,,,,,,,,,,,,,,,,,856.08087,211,left,0.6392,parrot      ,8,5,2,1,3,856.114615,856.114615,858.61267,0,56,56,56,1,211,8,6,parrot      ,radio       ,html/resources/sequences_IDs/B/05_parrot.jpg,html/resources/sequences_IDs/B/10_radio.jpg,5,10,2,1,4,2,4,8,0,19,,,,,,,,,,,,,,,,,,,,
,,,,,19,2020-07-01_09h48.38.471,retriever_ti,2020.1.3,Win32,60,Chrome,1829,1029,,,,,,,,,,,,,,,,,3,,,,,,,,,,,,,,,,,,,,,,,,,,,859.230155,212,right,0.57061,radio       ,6,10,3,1,3,859.265165,859.265165,861.762905,0,57,57,57,1,212,3,6,dress         ,radio       ,html/resources/sequences_IDs/A/07_dress.jpg,html/resources/sequences_IDs/B/10_radio.jpg,7,10,3,2,4,2,6,8,0,19,,,,,,,,,,,,,,,,,,,,
,,,,,19,2020-07-01_09h48.38.471,retriever_ti,2020.1.3,Win32,60,Chrome,1829,1029,,,,,,,,,,,,,,,,,3,,,,,,,,,,,,,,,,,,,,,,,,,,,862.381815,213,left,1.333285,redfox      ,2,1,-1,0,0,862.398605,862.398605,864.896625,0,58,58,58,1,213,2,3,redfox      ,dress         ,html/resources/sequences_IDs/B/01_redfox.jpg,html/resources/sequences_IDs/A/07_dress.jpg,1,7,1,1,3,2,1,6,0,19,,,,,,,,,,,,,,,,,,,,
,,,,,19,2020-07-01_09h48.38.471,retriever_ti,2020.1.3,Win32,60,Chrome,1829,1029,,,,,,,,,,,,,,,,,3,,,,,,,,,,,,,,,,,,,,,,,,,,,865.998645,214,left,1.741785,seaturtle     ,1,2,-2,0,3,866.015515,866.015515,868.513895,0,59,59,59,1,214,1,3,seaturtle     ,dress         ,html/resources/sequences_IDs/A/02_seaturtle.jpg,html/resources/sequences_IDs/A/07_dress.jpg,2,7,2,1,3,2,2,6,0,19,,,,,,,,,,,,,,,,,,,,
,,,,,19,2020-07-01_09h48.38.471,retriever_ti,2020.1.3,Win32,60,Chrome,1829,1029,,,,,,,,,,,,,,,,,3,,,,,,,,,,,,,,,,,,,,,,,,,,,869.13115,215,right,0.599775,redfox      ,2,1,1,1,1,869.149315,869.149315,871.647285,0,60,60,60,1,215,1,2,seaturtle     ,redfox      ,html/resources/sequences_IDs/A/02_seaturtle.jpg,html/resources/sequences_IDs/B/01_redfox.jpg,2,1,2,1,1,1,2,1,0,19,,,,,,,,,,,,,,,,,,,,
,,,,,19,2020-07-01_09h48.38.471,retriever_ti,2020.1.3,Win32,60,Chrome,1829,1029,,,,,,,,,,,,,,,,,3,,,,,,,,,,,,,,,,,,,,,,,,,,,872.74967,216,left,1.234755,clownfish     ,7,4,1,1,1,872.7664,872.7664,875.264225,0,61,61,61,1,216,7,6,clownfish     ,radio       ,html/resources/sequences_IDs/A/04_clownfish.jpg,html/resources/sequences_IDs/B/10_radio.jpg,4,10,2,1,4,2,3,8,0,19,,,,,,,,,,,,,,,,,,,,
,,,,,19,2020-07-01_09h48.38.471,retriever_ti,2020.1.3,Win32,60,Chrome,1829,1029,,,,,,,,,,,,,,,,,3,,,,,,,,,,,,,,,,,,,,,,,,,,,876.36657,217,left,0.820615,phone       ,4,9,-2,0,3,876.383345,876.383345,878.881125,0,62,62,62,1,217,4,6,phone       ,radio       ,html/resources/sequences_IDs/B/09_phone.jpg,html/resources/sequences_IDs/B/10_radio.jpg,9,10,4,2,4,2,7,8,0,19,,,,,,,,,,,,,,,,,,,,
,,,,,19,2020-07-01_09h48.38.471,retriever_ti,2020.1.3,Win32,60,Chrome,1829,1029,,,,,,,,,,,,,,,,,3,,,,,,,,,,,,,,,,,,,,,,,,,,,879.48252,218,left,0.471245,clownfish     ,7,4,1,1,1,879.50171,879.50171,881.998645,0,63,63,63,1,218,7,6,clownfish     ,radio       ,html/resources/sequences_IDs/A/04_clownfish.jpg,html/resources/sequences_IDs/B/10_radio.jpg,4,10,2,1,4,2,3,8,0,19,,,,,,,,,,,,,,,,,,,,
,,,,,19,2020-07-01_09h48.38.471,retriever_ti,2020.1.3,Win32,60,Chrome,1829,1029,,,,,,,,,,,,,,,,,3,,,,,,,,,,,,,,,,,,,,,,,,,,,883.10101,219,right,0.968695,clownfish     ,7,4,6,1,3,883.11786,883.11786,885.615365,0,64,64,64,1,219,1,7,seaturtle     ,clownfish     ,html/resources/sequences_IDs/A/02_seaturtle.jpg,html/resources/sequences_IDs/A/04_clownfish.jpg,2,4,2,1,2,1,2,3,0,19,,,,,,,,,,,,,,,,,,,,
,,,,,19,2020-07-01_09h48.38.471,retriever_ti,2020.1.3,Win32,60,Chrome,1829,1029,,,,,,,,,,,,,,,,,3,,,,,,,,,,,,,,,,,,,,,,,,,,,886.23461,220,left,1.082855,redfox      ,2,1,-1,0,0,886.268385,886.268385,888.765935,0,65,65,65,1,220,2,3,redfox      ,dress         ,html/resources/sequences_IDs/B/01_redfox.jpg,html/resources/sequences_IDs/A/07_dress.jpg,1,7,1,1,3,2,1,6,0,19,,,,,,,,,,,,,,,,,,,,
,,,,,19,2020-07-01_09h48.38.471,retriever_ti,2020.1.3,Win32,60,Chrome,1829,1029,,,,,,,,,,,,,,,,,3,,,,,,,,,,,,,,,,,,,,,,,,,,,889.866975,221,left,0.531145,dress         ,3,7,-1,0,1,889.885185,889.885185,892.38272,0,66,66,66,1,221,3,4,dress         ,phone       ,html/resources/sequences_IDs/A/07_dress.jpg,html/resources/sequences_IDs/B/09_phone.jpg,7,9,3,2,4,2,6,7,1,19,,,,,,,,,,,,,,,,,,,,
,,,,,19,2020-07-01_09h48.38.471,retriever_ti,2020.1.3,Win32,60,Chrome,1829,1029,,,,,,,,,,,,,,,,,3,,,,,,,,,,,,,,,,,,,,,,,,,,,893.485065,222,left,0.61591,parrot      ,8,5,6,1,3,893.518725,893.518725,896.016615,0,67,67,67,1,222,8,2,parrot      ,redfox      ,html/resources/sequences_IDs/B/05_parrot.jpg,html/resources/sequences_IDs/B/01_redfox.jpg,5,1,2,1,1,1,4,1,0,19,,,,,,,,,,,,,,,,,,,,
,,,,,19,2020-07-01_09h48.38.471,retriever_ti,2020.1.3,Win32,60,Chrome,1829,1029,,,,,,,,,,,,,,,,,3,,,,,,,,,,,,,,,,,,,,,,,,,,,896.635435,223,left,0.90268,redfox      ,2,1,1,1,1,896.652505,896.652505,899.15014,0,68,68,68,1,223,2,1,redfox      ,seaturtle     ,html/resources/sequences_IDs/B/01_redfox.jpg,html/resources/sequences_IDs/A/02_seaturtle.jpg,1,2,1,1,2,1,1,2,0,19,,,,,,,,,,,,,,,,,,,,
