instructionsLoop.thisRepN,instructionsLoop.thisTrialN,instructionsLoop.thisN,instructionsLoop.thisIndex,instructionsLoop.ran,participant,date,expName,psychopyVersion,OS,frameRate,browser,xResolution,yResolution,fix_onset,tprac,practiceKey.keys,practiceKey.rt,pracitem_chosen_name,acc_practice,P1_onsetPrac,P2_onsetPrac,onsetFeedbPrac,practiceTrials.thisRepN,practiceTrials.thisTrialN,practiceTrials.thisN,practiceTrials.thisIndex,practiceTrials.ran,P1,P2,Block,LocItem1,LocItem2,NameItem1,NameItem2,key_respAC_prac.keys,key_respAC_prac.corr,key_respAC_prac.rt,AC_acc,Attentions.thisRepN,Attentions.thisTrialN,Attentions.thisN,Attentions.thisIndex,Attentions.ran,Stim,Loc1,Loc2,Loc3,Loc4,CorrAns,keyDisturbed.keys,keyDisturbed.rt,repPractice.thisRepN,repPractice.thisTrialN,repPractice.thisN,repPractice.thisIndex,repPractice.ran,fixcross_onsetMain,trialNumber,key_resp.keys,key_resp.rt,item_chosen_name,item_chosen_value,item_chosen_ID,diff_chosen_minus_reject,acc_real,acc_feedback,P1_onset,P2_onset,feedb_onset,trials.thisRepN,trials.thisTrialN,trials.thisN,trials.thisIndex,trials.ran,Trial,ValueP1,ValueP2,P1name,P2name,P1Loc,P2Loc,P1id,P2id,Micro_categoryP1,Macro_categoryP1,Micro_categoryP2,Macro_categoryP2,ID_sequenceP1,ID_sequenceP2,InverseFb,pNumber,repBlocks.thisRepN,repBlocks.thisTrialN,repBlocks.thisN,repBlocks.thisIndex,repBlocks.ran,key_respAC.keys,key_respAC.corr,key_respAC.rt,trials_AC.thisRepN,trials_AC.thisTrialN,trials_AC.thisN,trials_AC.thisIndex,trials_AC.ran,Bonus,BonusLoop.thisRepN,BonusLoop.thisTrialN,BonusLoop.thisN,BonusLoop.thisIndex,BonusLoop.ran,comments
0,0,0,0,1,1,2020-07-01_09h31.38.037,retriever_ti,2020.1.3,Win32,60,Chrome,1366,768,,,,,,,,,,,,,,,,,,,,,,,,,,,,,,,,,,,,,,,,,,,,,,,,,,,,,,,,,,,,,,,,,,,,,,,,,,,,,,,,,,,,,,,,,,,,,,,,,,
1,0,1,0,1,1,2020-07-01_09h31.38.037,retriever_ti,2020.1.3,Win32,60,Chrome,1366,768,,,,,,,,,,,,,,,,,,,,,,,,,,,,,,,,,,,,,,,,,,,,,,,,,,,,,,,,,,,,,,,,,,,,,,,,,,,,,,,,,,,,,,,,,,,,,,,,,,
2,0,2,0,1,1,2020-07-01_09h31.38.037,retriever_ti,2020.1.3,Win32,60,Chrome,1366,768,,,,,,,,,,,,,,,,,,,,,,,,,,,,,,,,,,,,,,,,,,,,,,,,,,,,,,,,,,,,,,,,,,,,,,,,,,,,,,,,,,,,,,,,,,,,,,,,,,
3,0,3,0,1,1,2020-07-01_09h31.38.037,retriever_ti,2020.1.3,Win32,60,Chrome,1366,768,,,,,,,,,,,,,,,,,,,,,,,,,,,,,,,,,,,,,,,,,,,,,,,,,,,,,,,,,,,,,,,,,,,,,,,,,,,,,,,,,,,,,,,,,,,,,,,,,,
4,0,4,0,1,1,2020-07-01_09h31.38.037,retriever_ti,2020.1.3,Win32,60,Chrome,1366,768,,,,,,,,,,,,,,,,,,,,,,,,,,,,,,,,,,,,,,,,,,,,,,,,,,,,,,,,,,,,,,,,,,,,,,,,,,,,,,,,,,,,,,,,,,,,,,,,,,
5,0,5,0,1,1,2020-07-01_09h31.38.037,retriever_ti,2020.1.3,Win32,60,Chrome,1366,768,,,,,,,,,,,,,,,,,,,,,,,,,,,,,,,,,,,,,,,,,,,,,,,,,,,,,,,,,,,,,,,,,,,,,,,,,,,,,,,,,,,,,,,,,,,,,,,,,,
6,0,6,0,1,1,2020-07-01_09h31.38.037,retriever_ti,2020.1.3,Win32,60,Chrome,1366,768,,,,,,,,,,,,,,,,,,,,,,,,,,,,,,,,,,,,,,,,,,,,,,,,,,,,,,,,,,,,,,,,,,,,,,,,,,,,,,,,,,,,,,,,,,,,,,,,,,
7,0,7,0,1,1,2020-07-01_09h31.38.037,retriever_ti,2020.1.3,Win32,60,Chrome,1366,768,,,,,,,,,,,,,,,,,,,,,,,,,,,,,,,,,,,,,,,,,,,,,,,,,,,,,,,,,,,,,,,,,,,,,,,,,,,,,,,,,,,,,,,,,,,,,,,,,,
8,0,8,0,1,1,2020-07-01_09h31.38.037,retriever_ti,2020.1.3,Win32,60,Chrome,1366,768,,,,,,,,,,,,,,,,,,,,,,,,,,,,,,,,,,,,,,,,,,,,,,,,,,,,,,,,,,,,,,,,,,,,,,,,,,,,,,,,,,,,,,,,,,,,,,,,,,
9,0,9,0,1,1,2020-07-01_09h31.38.037,retriever_ti,2020.1.3,Win32,60,Chrome,1366,768,,,,,,,,,,,,,,,,,,,,,,,,,,,,,,,,,,,,,,,,,,,,,,,,,,,,,,,,,,,,,,,,,,,,,,,,,,,,,,,,,,,,,,,,,,,,,,,,,,
10,0,10,0,1,1,2020-07-01_09h31.38.037,retriever_ti,2020.1.3,Win32,60,Chrome,1366,768,,,,,,,,,,,,,,,,,,,,,,,,,,,,,,,,,,,,,,,,,,,,,,,,,,,,,,,,,,,,,,,,,,,,,,,,,,,,,,,,,,,,,,,,,,,,,,,,,,
11,0,11,0,1,1,2020-07-01_09h31.38.037,retriever_ti,2020.1.3,Win32,60,Chrome,1366,768,,,,,,,,,,,,,,,,,,,,,,,,,,,,,,,,,,,,,,,,,,,,,,,,,,,,,,,,,,,,,,,,,,,,,,,,,,,,,,,,,,,,,,,,,,,,,,,,,,
12,0,12,0,1,1,2020-07-01_09h31.38.037,retriever_ti,2020.1.3,Win32,60,Chrome,1366,768,,,,,,,,,,,,,,,,,,,,,,,,,,,,,,,,,,,,,,,,,,,,,,,,,,,,,,,,,,,,,,,,,,,,,,,,,,,,,,,,,,,,,,,,,,,,,,,,,,
13,0,13,0,1,1,2020-07-01_09h31.38.037,retriever_ti,2020.1.3,Win32,60,Chrome,1366,768,,,,,,,,,,,,,,,,,,,,,,,,,,,,,,,,,,,,,,,,,,,,,,,,,,,,,,,,,,,,,,,,,,,,,,,,,,,,,,,,,,,,,,,,,,,,,,,,,,
14,0,14,0,1,1,2020-07-01_09h31.38.037,retriever_ti,2020.1.3,Win32,60,Chrome,1366,768,,,,,,,,,,,,,,,,,,,,,,,,,,,,,,,,,,,,,,,,,,,,,,,,,,,,,,,,,,,,,,,,,,,,,,,,,,,,,,,,,,,,,,,,,,,,,,,,,,
,,,,,1,2020-07-01_09h31.38.037,retriever_ti,2020.1.3,Win32,60,Chrome,1366,768,151.178165,1,NaN,NaN,No_response,2,151.20144,151.20144,153.69857,0,0,0,0,1,2,5,1,html/resources/stimuli_practice_decision/04_beetle.jpg,html/resources/stimuli_practice_decision/02_canary.jpg,beetle,canary,,,,,,,,,,,,,,,,,,,,,,,,,,,,,,,,,,,,,,,,,,,,,,,,,,,,,,,,,,,,,,,,,,,,,,,,,,,,,
,,,,,1,2020-07-01_09h31.38.037,retriever_ti,2020.1.3,Win32,60,Chrome,1366,768,154.327475,2,left,0.58469,rabbit,1,154.38048,154.38048,156.877675,0,1,1,1,1,4,3,1,html/resources/stimuli_practice_decision/01_rabbit.jpg,html/resources/stimuli_practice_decision/07_sock.jpg,rabbit,sock,,,,,,,,,,,,,,,,,,,,,,,,,,,,,,,,,,,,,,,,,,,,,,,,,,,,,,,,,,,,,,,,,,,,,,,,,,,,,
,,,,,1,2020-07-01_09h31.38.037,retriever_ti,2020.1.3,Win32,60,Chrome,1366,768,157.87675,3,NaN,NaN,No_response,2,157.91285,157.91285,160.408325,0,2,2,2,1,6,2,1,html/resources/stimuli_practice_decision/06_pullover.jpg,html/resources/stimuli_practice_decision/04_beetle.jpg,pullover,beetle,,,,,,,,,,,,,,,,,,,,,,,,,,,,,,,,,,,,,,,,,,,,,,,,,,,,,,,,,,,,,,,,,,,,,,,,,,,,,
,,,,,1,2020-07-01_09h31.38.037,retriever_ti,2020.1.3,Win32,60,Chrome,1366,768,161.408435,4,right,0.73806,handmixer,0,161.427745,161.427745,163.92086,0,3,3,3,1,7,1,1,html/resources/stimuli_practice_decision/05_glasses.jpg,html/resources/stimuli_practice_decision/08_handmixer.jpg,glasses,handmixer,,,,,,,,,,,,,,,,,,,,,,,,,,,,,,,,,,,,,,,,,,,,,,,,,,,,,,,,,,,,,,,,,,,,,,,,,,,,,
,,,,,1,2020-07-01_09h31.38.037,retriever_ti,2020.1.3,Win32,60,Chrome,1366,768,164.43842,5,right,1.023095,pullover,0,164.47799,164.47799,166.968215,0,4,4,4,1,7,6,1,html/resources/stimuli_practice_decision/05_glasses.jpg,html/resources/stimuli_practice_decision/06_pullover.jpg,glasses,pullover,,,,,,,,,,,,,,,,,,,,,,,,,,,,,,,,,,,,,,,,,,,,,,,,,,,,,,,,,,,,,,,,,,,,,,,,,,,,,
,,,,,1,2020-07-01_09h31.38.037,retriever_ti,2020.1.3,Win32,60,Chrome,1366,768,167.96876,6,right,0.8056,glasses,1,168.002965,168.002965,170.496925,0,5,5,5,1,4,7,1,html/resources/stimuli_practice_decision/01_rabbit.jpg,html/resources/stimuli_practice_decision/05_glasses.jpg,rabbit,glasses,,,,,,,,,,,,,,,,,,,,,,,,,,,,,,,,,,,,,,,,,,,,,,,,,,,,,,,,,,,,,,,,,,,,,,,,,,,,,
,,,,,1,2020-07-01_09h31.38.037,retriever_ti,2020.1.3,Win32,60,Chrome,1366,768,171.01495,7,NaN,NaN,No_response,2,171.03284,171.03284,173.528275,0,6,6,6,1,1,2,1,html/resources/stimuli_practice_decision/08_handmixer.jpg,html/resources/stimuli_practice_decision/04_beetle.jpg,handmixer,beetle,,,,,,,,,,,,,,,,,,,,,,,,,,,,,,,,,,,,,,,,,,,,,,,,,,,,,,,,,,,,,,,,,,,,,,,,,,,,,
,,,,,1,2020-07-01_09h31.38.037,retriever_ti,2020.1.3,Win32,60,Chrome,1366,768,174.0453,8,left,0.46502,rabbit,1,174.063835,174.063835,176.557755,0,7,7,7,1,4,3,1,html/resources/stimuli_practice_decision/01_rabbit.jpg,html/resources/stimuli_practice_decision/07_sock.jpg,rabbit,sock,,,,,,,,,,,,,,,,,,,,,,,,,,,,,,,,,,,,,,,,,,,,,,,,,,,,,,,,,,,,,,,,,,,,,,,,,,,,,
,,,,,1,2020-07-01_09h31.38.037,retriever_ti,2020.1.3,Win32,60,Chrome,1366,768,,,,,,,,,,,,,,,,,,,,,,left,1,3.50544,1,0,0,0,2,1,html/resources/sequences_IDs/square1.png,star ↑,triangle →,circle ↓,← square,left,,,,,,,,,,,,,,,,,,,,,,,,,,,,,,,,,,,,,,,,,,,,,,,,,,,,,,,,,,,,,,
,,,,,1,2020-07-01_09h31.38.037,retriever_ti,2020.1.3,Win32,60,Chrome,1366,768,,,,,,,,,,,,,,,,,,,,,,up,1,2.538465,1,0,1,1,0,1,html/resources/sequences_IDs/circle.png,circle ↑,square →,triangle ↓,← star ,up,,,,,,,,,,,,,,,,,,,,,,,,,,,,,,,,,,,,,,,,,,,,,,,,,,,,,,,,,,,,,,
,,,,,1,2020-07-01_09h31.38.037,retriever_ti,2020.1.3,Win32,60,Chrome,1366,768,,,,,,,,,,,,,,,,,,,,,,down,1,2.380665,1,0,2,2,3,1,html/resources/sequences_IDs/triangle.png,star ↑,square →,triangle ↓,← circle,down,,,,,,,,,,,,,,,,,,,,,,,,,,,,,,,,,,,,,,,,,,,,,,,,,,,,,,,,,,,,,,
,,,,,1,2020-07-01_09h31.38.037,retriever_ti,2020.1.3,Win32,60,Chrome,1366,768,,,,,,,,,,,,,,,,,,,,,,down,1,2.76746,1,0,3,3,1,1,html/resources/sequences_IDs/star.png,square ↑,circle →,star ↓,← triangle,down,,,,,,,,,,,,,,,,,,,,,,,,,,,,,,,,,,,,,,,,,,,,,,,,,,,,,,,,,,,,,,
,,,,,1,2020-07-01_09h31.38.037,retriever_ti,2020.1.3,Win32,60,Chrome,1366,768,,,,,,,,,,,,,,,,,,,,,,,,,,,,,,,,,,,,,0,7.56985,0,0,0,0,1,,,,,,,,,,,,,,,,,,,,,,,,,,,,,,,,,,,,,,,,,,,,,,,,,,,,,,,
,,,,,1,2020-07-01_09h31.38.037,retriever_ti,2020.1.3,Win32,60,Chrome,1366,768,201.788315,9,left,0.932085,pullover,0,201.818785,201.818785,204.314305,0,0,0,0,1,6,7,1,html/resources/stimuli_practice_decision/06_pullover.jpg,html/resources/stimuli_practice_decision/05_glasses.jpg,pullover,glasses,,,,,,,,,,,,,,,,,,,,,,,,,,,,,,,,,,,,,,,,,,,,,,,,,,,,,,,,,,,,,,,,,,,,,,,,,,,,,
,,,,,1,2020-07-01_09h31.38.037,retriever_ti,2020.1.3,Win32,60,Chrome,1366,768,205.315445,10,left,0.847465,pullover,1,205.35023,205.35023,207.84471,0,1,1,1,1,6,2,1,html/resources/stimuli_practice_decision/06_pullover.jpg,html/resources/stimuli_practice_decision/04_beetle.jpg,pullover,beetle,,,,,,,,,,,,,,,,,,,,,,,,,,,,,,,,,,,,,,,,,,,,,,,,,,,,,,,,,,,,,,,,,,,,,,,,,,,,,
,,,,,1,2020-07-01_09h31.38.037,retriever_ti,2020.1.3,Win32,60,Chrome,1366,768,208.363295,11,right,1.04858,pullover,1,208.380245,208.380245,210.87391,0,2,2,2,1,5,6,1,html/resources/stimuli_practice_decision/02_canary.jpg,html/resources/stimuli_practice_decision/06_pullover.jpg,canary,pullover,,,,,,,,,,,,,,,,,,,,,,,,,,,,,,,,,,,,,,,,,,,,,,,,,,,,,,,,,,,,,,,,,,,,,,,,,,,,,
,,,,,1,2020-07-01_09h31.38.037,retriever_ti,2020.1.3,Win32,60,Chrome,1366,768,211.87479,12,right,0.60733,glasses,0,211.909505,211.909505,214.40442,0,3,3,3,1,8,7,1,html/resources/stimuli_practice_decision/03_squirrel.jpg,html/resources/stimuli_practice_decision/05_glasses.jpg,squirrel,glasses,,,,,,,,,,,,,,,,,,,,,,,,,,,,,,,,,,,,,,,,,,,,,,,,,,,,,,,,,,,,,,,,,,,,,,,,,,,,,
,,,,,1,2020-07-01_09h31.38.037,retriever_ti,2020.1.3,Win32,60,Chrome,1366,768,215.406735,13,left,1.062425,canary,1,215.43983,215.43983,217.933565,0,4,4,4,1,5,3,1,html/resources/stimuli_practice_decision/02_canary.jpg,html/resources/stimuli_practice_decision/07_sock.jpg,canary,sock,,,,,,,,,,,,,,,,,,,,,,,,,,,,,,,,,,,,,,,,,,,,,,,,,,,,,,,,,,,,,,,,,,,,,,,,,,,,,
,,,,,1,2020-07-01_09h31.38.037,retriever_ti,2020.1.3,Win32,60,Chrome,1366,768,218.450035,14,right,0.89484,squirrel,1,218.468215,218.468215,220.965045,0,5,5,5,1,7,8,1,html/resources/stimuli_practice_decision/05_glasses.jpg,html/resources/stimuli_practice_decision/03_squirrel.jpg,glasses,squirrel,,,,,,,,,,,,,,,,,,,,,,,,,,,,,,,,,,,,,,,,,,,,,,,,,,,,,,,,,,,,,,,,,,,,,,,,,,,,,
,,,,,1,2020-07-01_09h31.38.037,retriever_ti,2020.1.3,Win32,60,Chrome,1366,768,221.964015,15,left,0.90596,canary,1,221.99915,221.99915,224.49522,0,6,6,6,1,5,4,1,html/resources/stimuli_practice_decision/02_canary.jpg,html/resources/stimuli_practice_decision/01_rabbit.jpg,canary,rabbit,,,,,,,,,,,,,,,,,,,,,,,,,,,,,,,,,,,,,,,,,,,,,,,,,,,,,,,,,,,,,,,,,,,,,,,,,,,,,
,,,,,1,2020-07-01_09h31.38.037,retriever_ti,2020.1.3,Win32,60,Chrome,1366,768,225.4947,16,left,1.159965,canary,1,225.52855,225.52855,228.024895,0,7,7,7,1,5,3,1,html/resources/stimuli_practice_decision/02_canary.jpg,html/resources/stimuli_practice_decision/07_sock.jpg,canary,sock,,,,,,,,,,,,,,,,,,,,,,,,,,,,,,,,,,,,,,,,,,,,,,,,,,,,,,,,,,,,,,,,,,,,,,,,,,,,,
,,,,,1,2020-07-01_09h31.38.037,retriever_ti,2020.1.3,Win32,60,Chrome,1366,768,,,,,,,,,,,,,,,,,,,,,,up,1,1.946145,1,0,0,0,0,1,html/resources/sequences_IDs/circle.png,circle ↑,square →,triangle ↓,← star ,up,,,,,,,,,,,,,,,,,,,,,,,,,,,,,,,,,,,,,,,,,,,,,,,,,,,,,,,,,,,,,,
,,,,,1,2020-07-01_09h31.38.037,retriever_ti,2020.1.3,Win32,60,Chrome,1366,768,,,,,,,,,,,,,,,,,,,,,,down,1,2.080945,1,0,1,1,3,1,html/resources/sequences_IDs/triangle.png,star ↑,square →,triangle ↓,← circle,down,,,,,,,,,,,,,,,,,,,,,,,,,,,,,,,,,,,,,,,,,,,,,,,,,,,,,,,,,,,,,,
,,,,,1,2020-07-01_09h31.38.037,retriever_ti,2020.1.3,Win32,60,Chrome,1366,768,,,,,,,,,,,,,,,,,,,,,,down,1,2.69064,1,0,2,2,1,1,html/resources/sequences_IDs/star.png,square ↑,circle →,star ↓,← triangle,down,,,,,,,,,,,,,,,,,,,,,,,,,,,,,,,,,,,,,,,,,,,,,,,,,,,,,,,,,,,,,,
,,,,,1,2020-07-01_09h31.38.037,retriever_ti,2020.1.3,Win32,60,Chrome,1366,768,,,,,,,,,,,,,,,,,,,,,,left,1,2.155365,1,0,3,3,2,1,html/resources/sequences_IDs/square1.png,star ↑,triangle →,circle ↓,← square,left,,,,,,,,,,,,,,,,,,,,,,,,,,,,,,,,,,,,,,,,,,,,,,,,,,,,,,,,,,,,,,
,,,,,1,2020-07-01_09h31.38.037,retriever_ti,2020.1.3,Win32,60,Chrome,1366,768,,,,,,,,,,,,,,,,,,,,,,,,,,,,,,,,,,,,,0,3.9126,1,0,1,0,1,,,,,,,,,,,,,,,,,,,,,,,,,,,,,,,,,,,,,,,,,,,,,,,,,,,,,,,
,,,,,1,2020-07-01_09h31.38.037,retriever_ti,2020.1.3,Win32,60,Chrome,1366,768,,,,,,,,,,,,,,,,,1,,,,,,,,,,,,,,,,,,,,,,,,,,,252.66826,1,right,0.598255,sport_tshirt,7,7,2,1,3,252.685,252.685,255.181335,0,0,0,0,1,1,5,7,giraffe     ,sport_tshirt,html/resources/sequences_IDs/B/03_giraffe.jpg,html/resources/sequences_IDs/B/07_sport_tshirt.jpg,3,7,1,1,3,2,2,5,0,1,,,,,,,,,,,,,,,,,,,,
,,,,,1,2020-07-01_09h31.38.037,retriever_ti,2020.1.3,Win32,60,Chrome,1366,768,,,,,,,,,,,,,,,,,1,,,,,,,,,,,,,,,,,,,,,,,,,,,255.79892,2,left,0.68049,hat           ,6,8,4,1,3,255.830885,255.830885,258.32853,0,1,1,1,1,2,6,2,hat           ,peacock       ,html/resources/sequences_IDs/A/08_hat.jpg,html/resources/sequences_IDs/A/05_peacock.jpg,8,5,3,2,2,1,6,4,0,1,,,,,,,,,,,,,,,,,,,,
,,,,,1,2020-07-01_09h31.38.037,retriever_ti,2020.1.3,Win32,60,Chrome,1366,768,,,,,,,,,,,,,,,,,1,,,,,,,,,,,,,,,,,,,,,,,,,,,258.94738,3,right,0.629945,hat           ,6,8,1,1,1,258.980545,258.980545,261.475625,0,2,2,2,1,3,5,6,giraffe     ,hat           ,html/resources/sequences_IDs/B/03_giraffe.jpg,html/resources/sequences_IDs/A/08_hat.jpg,3,8,1,1,3,2,2,6,0,1,,,,,,,,,,,,,,,,,,,,
,,,,,1,2020-07-01_09h31.38.037,retriever_ti,2020.1.3,Win32,60,Chrome,1366,768,,,,,,,,,,,,,,,,,1,,,,,,,,,,,,,,,,,,,,,,,,,,,262.57694,4,left,0.897925,peacock       ,2,5,1,1,1,262.59401,262.59401,265.08846,0,3,3,3,1,4,2,1,peacock       ,radio       ,html/resources/sequences_IDs/A/05_peacock.jpg,html/resources/sequences_IDs/B/10_radio.jpg,5,10,2,1,4,2,4,8,0,1,,,,,,,,,,,,,,,,,,,,
,,,,,1,2020-07-01_09h31.38.037,retriever_ti,2020.1.3,Win32,60,Chrome,1366,768,,,,,,,,,,,,,,,,,1,,,,,,,,,,,,,,,,,,,,,,,,,,,266.188035,5,right,1.07068,radio       ,1,10,-7,0,3,266.20451,266.20451,268.7019,0,4,4,4,1,5,8,1,clownfish     ,radio       ,html/resources/sequences_IDs/A/04_clownfish.jpg,html/resources/sequences_IDs/B/10_radio.jpg,4,10,2,1,4,2,3,8,0,1,,,,,,,,,,,,,,,,,,,,
,,,,,1,2020-07-01_09h31.38.037,retriever_ti,2020.1.3,Win32,60,Chrome,1366,768,,,,,,,,,,,,,,,,,1,,,,,,,,,,,,,,,,,,,,,,,,,,,269.318715,6,right,0.913275,clownfish     ,8,4,4,1,3,269.337325,269.337325,271.831375,0,5,5,5,1,6,4,8,seaturtle     ,clownfish     ,html/resources/sequences_IDs/A/02_seaturtle.jpg,html/resources/sequences_IDs/A/04_clownfish.jpg,2,4,2,1,2,1,1,3,0,1,,,,,,,,,,,,,,,,,,,,
,,,,,1,2020-07-01_09h31.38.037,retriever_ti,2020.1.3,Win32,60,Chrome,1366,768,,,,,,,,,,,,,,,,,1,,,,,,,,,,,,,,,,,,,,,,,,,,,272.45149,7,right,0.85369,sport_tshirt,7,7,-1,0,0,272.484735,272.484735,274.978195,0,6,6,6,1,7,8,7,clownfish     ,sport_tshirt,html/resources/sequences_IDs/A/04_clownfish.jpg,html/resources/sequences_IDs/B/07_sport_tshirt.jpg,4,7,2,1,3,2,3,5,0,1,,,,,,,,,,,,,,,,,,,,
,,,,,1,2020-07-01_09h31.38.037,retriever_ti,2020.1.3,Win32,60,Chrome,1366,768,,,,,,,,,,,,,,,,,1,,,,,,,,,,,,,,,,,,,,,,,,,,,276.07838,8,left,0.612975,peacock       ,2,5,-2,0,3,276.09666,276.09666,278.592,0,7,7,7,1,8,2,4,peacock       ,seaturtle     ,html/resources/sequences_IDs/A/05_peacock.jpg,html/resources/sequences_IDs/A/02_seaturtle.jpg,5,2,2,1,2,1,4,1,0,1,,,,,,,,,,,,,,,,,,,,
,,,,,1,2020-07-01_09h31.38.037,retriever_ti,2020.1.3,Win32,60,Chrome,1366,768,,,,,,,,,,,,,,,,,1,,,,,,,,,,,,,,,,,,,,,,,,,,,279.211115,9,left,1.127435,hat           ,6,8,5,1,3,279.2279,279.2279,281.94133,0,8,8,8,1,9,6,1,hat           ,radio       ,html/resources/sequences_IDs/A/08_hat.jpg,html/resources/sequences_IDs/B/10_radio.jpg,8,10,3,2,4,2,6,8,0,1,,,,,,,,,,,,,,,,,,,,
,,,,,1,2020-07-01_09h31.38.037,retriever_ti,2020.1.3,Win32,60,Chrome,1366,768,,,,,,,,,,,,,,,,,1,,,,,,,,,,,,,,,,,,,,,,,,,,,282.55617,10,right,0.926845,hat           ,6,8,1,1,1,282.59156,282.59156,285.091265,0,9,9,9,1,10,5,6,giraffe     ,hat           ,html/resources/sequences_IDs/B/03_giraffe.jpg,html/resources/sequences_IDs/A/08_hat.jpg,3,8,1,1,3,2,2,6,0,1,,,,,,,,,,,,,,,,,,,,
,,,,,1,2020-07-01_09h31.38.037,retriever_ti,2020.1.3,Win32,60,Chrome,1366,768,,,,,,,,,,,,,,,,,1,,,,,,,,,,,,,,,,,,,,,,,,,,,286.188215,11,right,0.82224,hat           ,6,8,-1,0,0,286.22648,286.22648,288.715625,0,10,10,10,1,11,7,6,sport_tshirt,hat           ,html/resources/sequences_IDs/B/07_sport_tshirt.jpg,html/resources/sequences_IDs/A/08_hat.jpg,7,8,3,2,3,2,5,6,0,1,,,,,,,,,,,,,,,,,,,,
,,,,,1,2020-07-01_09h31.38.037,retriever_ti,2020.1.3,Win32,60,Chrome,1366,768,,,,,,,,,,,,,,,,,1,,,,,,,,,,,,,,,,,,,,,,,,,,,289.81599,12,right,0.86816,giraffe     ,5,3,1,1,1,289.8331,289.8331,292.328125,0,11,11,11,1,12,4,5,seaturtle     ,giraffe     ,html/resources/sequences_IDs/A/02_seaturtle.jpg,html/resources/sequences_IDs/B/03_giraffe.jpg,2,3,2,1,1,1,1,2,0,1,,,,,,,,,,,,,,,,,,,,
,,,,,1,2020-07-01_09h31.38.037,retriever_ti,2020.1.3,Win32,60,Chrome,1366,768,,,,,,,,,,,,,,,,,1,,,,,,,,,,,,,,,,,,,,,,,,,,,293.429805,13,right,0.53772,peacock       ,2,5,-2,0,3,293.446565,293.446565,295.94098,0,12,12,12,1,13,4,2,seaturtle     ,peacock       ,html/resources/sequences_IDs/A/02_seaturtle.jpg,html/resources/sequences_IDs/A/05_peacock.jpg,2,5,2,1,2,1,1,4,0,1,,,,,,,,,,,,,,,,,,,,
,,,,,1,2020-07-01_09h31.38.037,retriever_ti,2020.1.3,Win32,60,Chrome,1366,768,,,,,,,,,,,,,,,,,1,,,,,,,,,,,,,,,,,,,,,,,,,,,296.558375,14,left,1.09413,radio       ,1,10,-4,0,3,296.576995,296.576995,299.0717,0,13,13,13,1,14,1,5,radio       ,giraffe     ,html/resources/sequences_IDs/B/10_radio.jpg,html/resources/sequences_IDs/B/03_giraffe.jpg,10,3,4,2,1,1,8,2,0,1,,,,,,,,,,,,,,,,,,,,
,,,,,1,2020-07-01_09h31.38.037,retriever_ti,2020.1.3,Win32,60,Chrome,1366,768,,,,,,,,,,,,,,,,,1,,,,,,,,,,,,,,,,,,,,,,,,,,,299.688565,15,left,0.85789,clownfish     ,8,4,6,1,3,299.72693,299.72693,302.21899,0,14,14,14,1,15,8,2,clownfish     ,peacock       ,html/resources/sequences_IDs/A/04_clownfish.jpg,html/resources/sequences_IDs/A/05_peacock.jpg,4,5,2,1,2,1,3,4,0,1,,,,,,,,,,,,,,,,,,,,
,,,,,1,2020-07-01_09h31.38.037,retriever_ti,2020.1.3,Win32,60,Chrome,1366,768,,,,,,,,,,,,,,,,,1,,,,,,,,,,,,,,,,,,,,,,,,,,,302.840185,16,left,0.6768,seaturtle     ,4,2,-1,0,0,302.8518,302.8518,305.348565,0,15,15,15,1,16,4,5,seaturtle     ,giraffe     ,html/resources/sequences_IDs/A/02_seaturtle.jpg,html/resources/sequences_IDs/B/03_giraffe.jpg,2,3,2,1,1,1,1,2,0,1,,,,,,,,,,,,,,,,,,,,
,,,,,1,2020-07-01_09h31.38.037,retriever_ti,2020.1.3,Win32,60,Chrome,1366,768,,,,,,,,,,,,,,,,,1,,,,,,,,,,,,,,,,,,,,,,,,,,,306.44985,17,left,0.709005,phone       ,3,9,1,1,1,306.484225,306.484225,308.97799,0,16,16,16,1,17,3,2,phone       ,peacock       ,html/resources/sequences_IDs/B/09_phone.jpg,html/resources/sequences_IDs/A/05_peacock.jpg,9,5,4,2,2,1,7,4,0,1,,,,,,,,,,,,,,,,,,,,
,,,,,1,2020-07-01_09h31.38.037,retriever_ti,2020.1.3,Win32,60,Chrome,1366,768,,,,,,,,,,,,,,,,,1,,,,,,,,,,,,,,,,,,,,,,,,,,,310.07855,18,left,0.854865,phone       ,3,9,-1,0,0,310.113925,310.113925,312.60854,0,17,17,17,1,18,3,4,phone       ,seaturtle     ,html/resources/sequences_IDs/B/09_phone.jpg,html/resources/sequences_IDs/A/02_seaturtle.jpg,9,2,4,2,2,1,7,1,0,1,,,,,,,,,,,,,,,,,,,,
,,,,,1,2020-07-01_09h31.38.037,retriever_ti,2020.1.3,Win32,60,Chrome,1366,768,,,,,,,,,,,,,,,,,1,,,,,,,,,,,,,,,,,,,,,,,,,,,313.709835,19,right,0.861545,hat           ,6,8,-2,0,3,313.727405,313.727405,316.221665,0,18,18,18,1,19,8,6,clownfish     ,hat           ,html/resources/sequences_IDs/A/04_clownfish.jpg,html/resources/sequences_IDs/A/08_hat.jpg,4,8,2,1,3,2,3,6,0,1,,,,,,,,,,,,,,,,,,,,
,,,,,1,2020-07-01_09h31.38.037,retriever_ti,2020.1.3,Win32,60,Chrome,1366,768,,,,,,,,,,,,,,,,,1,,,,,,,,,,,,,,,,,,,,,,,,,,,316.83928,20,right,0.881055,phone       ,3,9,2,1,3,316.874565,316.874565,319.36821,0,19,19,19,1,20,1,3,radio       ,phone       ,html/resources/sequences_IDs/B/10_radio.jpg,html/resources/sequences_IDs/B/09_phone.jpg,10,9,4,2,4,2,8,7,0,1,,,,,,,,,,,,,,,,,,,,
,,,,,1,2020-07-01_09h31.38.037,retriever_ti,2020.1.3,Win32,60,Chrome,1366,768,,,,,,,,,,,,,,,,,1,,,,,,,,,,,,,,,,,,,,,,,,,,,319.98716,21,right,1.255985,peacock       ,2,5,1,1,1,320.00367,320.00367,322.49878,0,20,20,20,1,21,1,2,radio       ,peacock       ,html/resources/sequences_IDs/B/10_radio.jpg,html/resources/sequences_IDs/A/05_peacock.jpg,10,5,4,2,2,1,8,4,0,1,,,,,,,,,,,,,,,,,,,,
,,,,,1,2020-07-01_09h31.38.037,retriever_ti,2020.1.3,Win32,60,Chrome,1366,768,,,,,,,,,,,,,,,,,1,,,,,,,,,,,,,,,,,,,,,,,,,,,323.598055,22,left,0.997475,giraffe     ,5,3,3,1,3,323.617505,323.617505,326.111915,0,21,21,21,1,22,5,2,giraffe     ,peacock       ,html/resources/sequences_IDs/B/03_giraffe.jpg,html/resources/sequences_IDs/A/05_peacock.jpg,3,5,1,1,2,1,2,4,0,1,,,,,,,,,,,,,,,,,,,,
,,,,,1,2020-07-01_09h31.38.037,retriever_ti,2020.1.3,Win32,60,Chrome,1366,768,,,,,,,,,,,,,,,,,1,,,,,,,,,,,,,,,,,,,,,,,,,,,326.72999,23,left,0.745265,radio       ,1,10,-1,0,0,326.74684,326.74684,329.242705,0,22,22,22,1,23,1,2,radio       ,peacock       ,html/resources/sequences_IDs/B/10_radio.jpg,html/resources/sequences_IDs/A/05_peacock.jpg,10,5,4,2,2,1,8,4,0,1,,,,,,,,,,,,,,,,,,,,
,,,,,1,2020-07-01_09h31.38.037,retriever_ti,2020.1.3,Win32,60,Chrome,1366,768,,,,,,,,,,,,,,,,,1,,,,,,,,,,,,,,,,,,,,,,,,,,,330.34286,24,right,0.806085,giraffe     ,5,3,2,1,3,330.36217,330.36217,332.855845,0,23,23,23,1,24,3,5,phone       ,giraffe     ,html/resources/sequences_IDs/B/09_phone.jpg,html/resources/sequences_IDs/B/03_giraffe.jpg,9,3,4,2,1,1,7,2,0,1,,,,,,,,,,,,,,,,,,,,
,,,,,1,2020-07-01_09h31.38.037,retriever_ti,2020.1.3,Win32,60,Chrome,1366,768,,,,,,,,,,,,,,,,,1,,,,,,,,,,,,,,,,,,,,,,,,,,,333.474885,25,left,1.099585,radio       ,1,10,-3,0,3,333.488205,333.488205,335.985345,0,24,24,24,1,25,1,4,radio       ,seaturtle     ,html/resources/sequences_IDs/B/10_radio.jpg,html/resources/sequences_IDs/A/02_seaturtle.jpg,10,2,4,2,2,1,8,1,0,1,,,,,,,,,,,,,,,,,,,,
,,,,,1,2020-07-01_09h31.38.037,retriever_ti,2020.1.3,Win32,60,Chrome,1366,768,,,,,,,,,,,,,,,,,1,,,,,,,,,,,,,,,,,,,,,,,,,,,336.60323,26,left,0.87174,giraffe     ,5,3,2,1,3,336.62126,336.62126,339.115505,0,25,25,25,1,26,5,3,giraffe     ,phone       ,html/resources/sequences_IDs/B/03_giraffe.jpg,html/resources/sequences_IDs/B/09_phone.jpg,3,9,1,1,4,2,2,7,0,1,,,,,,,,,,,,,,,,,,,,
,,,,,1,2020-07-01_09h31.38.037,retriever_ti,2020.1.3,Win32,60,Chrome,1366,768,,,,,,,,,,,,,,,,,1,,,,,,,,,,,,,,,,,,,,,,,,,,,339.733455,27,left,0.76198,hat           ,6,8,-2,0,3,339.75087,339.75087,342.2461,0,26,26,26,1,27,6,8,hat           ,clownfish     ,html/resources/sequences_IDs/A/08_hat.jpg,html/resources/sequences_IDs/A/04_clownfish.jpg,8,4,3,2,2,1,6,3,0,1,,,,,,,,,,,,,,,,,,,,
,,,,,1,2020-07-01_09h31.38.037,retriever_ti,2020.1.3,Win32,60,Chrome,1366,768,,,,,,,,,,,,,,,,,1,,,,,,,,,,,,,,,,,,,,,,,,,,,342.86288,28,left,0.83427,giraffe     ,5,3,-3,0,3,342.88127,342.88127,345.394415,0,27,27,27,1,28,5,8,giraffe     ,clownfish     ,html/resources/sequences_IDs/B/03_giraffe.jpg,html/resources/sequences_IDs/A/04_clownfish.jpg,3,4,1,1,2,1,2,3,0,1,,,,,,,,,,,,,,,,,,,,
,,,,,1,2020-07-01_09h31.38.037,retriever_ti,2020.1.3,Win32,60,Chrome,1366,768,,,,,,,,,,,,,,,,,1,,,,,,,,,,,,,,,,,,,,,,,,,,,346.010075,29,right,0.677515,sport_tshirt,7,7,6,1,3,346.042465,346.042465,348.53939,0,28,28,28,1,29,1,7,radio       ,sport_tshirt,html/resources/sequences_IDs/B/10_radio.jpg,html/resources/sequences_IDs/B/07_sport_tshirt.jpg,10,7,4,2,3,2,8,5,0,1,,,,,,,,,,,,,,,,,,,,
,,,,,1,2020-07-01_09h31.38.037,retriever_ti,2020.1.3,Win32,60,Chrome,1366,768,,,,,,,,,,,,,,,,,1,,,,,,,,,,,,,,,,,,,,,,,,,,,349.156515,30,left,0.77535,peacock       ,2,5,-1,0,0,349.17787,349.17787,351.66987,0,29,29,29,1,30,2,3,peacock       ,phone       ,html/resources/sequences_IDs/A/05_peacock.jpg,html/resources/sequences_IDs/B/09_phone.jpg,5,9,2,1,4,2,4,7,0,1,,,,,,,,,,,,,,,,,,,,
,,,,,1,2020-07-01_09h31.38.037,retriever_ti,2020.1.3,Win32,60,Chrome,1366,768,,,,,,,,,,,,,,,,,1,,,,,,,,,,,,,,,,,,,,,,,,,,,352.770755,31,left,0.828465,peacock       ,2,5,-6,0,3,352.80515,352.80515,355.299675,0,30,30,30,1,31,2,8,peacock       ,clownfish     ,html/resources/sequences_IDs/A/05_peacock.jpg,html/resources/sequences_IDs/A/04_clownfish.jpg,5,4,2,1,2,1,4,3,0,1,,,,,,,,,,,,,,,,,,,,
,,,,,1,2020-07-01_09h31.38.037,retriever_ti,2020.1.3,Win32,60,Chrome,1366,768,,,,,,,,,,,,,,,,,1,,,,,,,,,,,,,,,,,,,,,,,,,,,355.915815,32,right,0.92444,phone       ,3,9,-1,0,1,355.951295,355.951295,358.46253,0,31,31,31,1,32,4,3,seaturtle     ,phone       ,html/resources/sequences_IDs/A/02_seaturtle.jpg,html/resources/sequences_IDs/B/09_phone.jpg,2,9,2,1,4,2,1,7,1,1,,,,,,,,,,,,,,,,,,,,
,,,,,1,2020-07-01_09h31.38.037,retriever_ti,2020.1.3,Win32,60,Chrome,1366,768,,,,,,,,,,,,,,,,,1,,,,,,,,,,,,,,,,,,,,,,,,,,,359.56285,33,left,0.923365,sport_tshirt,7,7,3,1,3,359.579665,359.579665,362.0756,0,32,32,32,1,33,7,4,sport_tshirt,seaturtle     ,html/resources/sequences_IDs/B/07_sport_tshirt.jpg,html/resources/sequences_IDs/A/02_seaturtle.jpg,7,2,3,2,2,1,5,1,0,1,,,,,,,,,,,,,,,,,,,,
,,,,,1,2020-07-01_09h31.38.037,retriever_ti,2020.1.3,Win32,60,Chrome,1366,768,,,,,,,,,,,,,,,,,1,,,,,,,,,,,,,,,,,,,,,,,,,,,362.693565,34,left,1.037965,seaturtle     ,4,2,-1,0,1,362.72831,362.72831,365.2228,0,33,33,33,1,34,4,5,seaturtle     ,giraffe     ,html/resources/sequences_IDs/A/02_seaturtle.jpg,html/resources/sequences_IDs/B/03_giraffe.jpg,2,3,2,1,1,1,1,2,1,1,,,,,,,,,,,,,,,,,,,,
,,,,,1,2020-07-01_09h31.38.037,retriever_ti,2020.1.3,Win32,60,Chrome,1366,768,,,,,,,,,,,,,,,,,1,,,,,,,,,,,,,,,,,,,,,,,,,,,366.32463,35,left,0.63442,sport_tshirt,7,7,-1,0,0,366.34153,366.34153,368.8355,0,34,34,34,1,35,7,8,sport_tshirt,clownfish     ,html/resources/sequences_IDs/B/07_sport_tshirt.jpg,html/resources/sequences_IDs/A/04_clownfish.jpg,7,4,3,2,2,1,5,3,0,1,,,,,,,,,,,,,,,,,,,,
,,,,,1,2020-07-01_09h31.38.037,retriever_ti,2020.1.3,Win32,60,Chrome,1366,768,,,,,,,,,,,,,,,,,1,,,,,,,,,,,,,,,,,,,,,,,,,,,369.93625,36,left,0.824315,seaturtle     ,4,2,3,1,3,369.970225,369.970225,372.465445,0,35,35,35,1,36,4,1,seaturtle     ,radio       ,html/resources/sequences_IDs/A/02_seaturtle.jpg,html/resources/sequences_IDs/B/10_radio.jpg,2,10,2,1,4,2,1,8,0,1,,,,,,,,,,,,,,,,,,,,
,,,,,1,2020-07-01_09h31.38.037,retriever_ti,2020.1.3,Win32,60,Chrome,1366,768,,,,,,,,,,,,,,,,,1,,,,,,,,,,,,,,,,,,,,,,,,,,,373.08526,37,left,1.31075,radio       ,1,10,-7,0,3,373.102555,373.102555,375.596125,0,36,36,36,1,37,1,8,radio       ,clownfish     ,html/resources/sequences_IDs/B/10_radio.jpg,html/resources/sequences_IDs/A/04_clownfish.jpg,10,4,4,2,2,1,8,3,0,1,,,,,,,,,,,,,,,,,,,,
,,,,,1,2020-07-01_09h31.38.037,retriever_ti,2020.1.3,Win32,60,Chrome,1366,768,,,,,,,,,,,,,,,,,1,,,,,,,,,,,,,,,,,,,,,,,,,,,376.21374,38,right,0.699645,sport_tshirt,7,7,-1,0,1,376.249125,376.249125,378.74332,0,37,37,37,1,38,8,7,clownfish     ,sport_tshirt,html/resources/sequences_IDs/A/04_clownfish.jpg,html/resources/sequences_IDs/B/07_sport_tshirt.jpg,4,7,2,1,3,2,3,5,1,1,,,,,,,,,,,,,,,,,,,,
,,,,,1,2020-07-01_09h31.38.037,retriever_ti,2020.1.3,Win32,60,Chrome,1366,768,,,,,,,,,,,,,,,,,1,,,,,,,,,,,,,,,,,,,,,,,,,,,379.846695,39,left,0.968535,phone       ,3,9,-3,0,3,379.87942,379.87942,382.37263,0,38,38,38,1,39,3,6,phone       ,hat           ,html/resources/sequences_IDs/B/09_phone.jpg,html/resources/sequences_IDs/A/08_hat.jpg,9,8,4,2,3,2,7,6,0,1,,,,,,,,,,,,,,,,,,,,
,,,,,1,2020-07-01_09h31.38.037,retriever_ti,2020.1.3,Win32,60,Chrome,1366,768,,,,,,,,,,,,,,,,,1,,,,,,,,,,,,,,,,,,,,,,,,,,,382.99001,40,left,0.887595,sport_tshirt,7,7,4,1,3,383.00856,383.00856,385.503415,0,39,39,39,1,40,7,3,sport_tshirt,phone       ,html/resources/sequences_IDs/B/07_sport_tshirt.jpg,html/resources/sequences_IDs/B/09_phone.jpg,7,9,3,2,4,2,5,7,0,1,,,,,,,,,,,,,,,,,,,,
,,,,,1,2020-07-01_09h31.38.037,retriever_ti,2020.1.3,Win32,60,Chrome,1366,768,,,,,,,,,,,,,,,,,1,,,,,,,,,,,,,,,,,,,,,,,,,,,386.122025,41,left,0.999835,clownfish     ,8,4,3,1,3,386.138555,386.138555,388.633445,0,40,40,40,1,41,8,5,clownfish     ,giraffe     ,html/resources/sequences_IDs/A/04_clownfish.jpg,html/resources/sequences_IDs/B/03_giraffe.jpg,4,3,2,1,1,1,3,2,0,1,,,,,,,,,,,,,,,,,,,,
,,,,,1,2020-07-01_09h31.38.037,retriever_ti,2020.1.3,Win32,60,Chrome,1366,768,,,,,,,,,,,,,,,,,1,,,,,,,,,,,,,,,,,,,,,,,,,,,389.251865,42,right,0.82125,phone       ,3,9,-1,0,0,389.269105,389.269105,391.76453,0,41,41,41,1,42,4,3,seaturtle     ,phone       ,html/resources/sequences_IDs/A/02_seaturtle.jpg,html/resources/sequences_IDs/B/09_phone.jpg,2,9,2,1,4,2,1,7,0,1,,,,,,,,,,,,,,,,,,,,
,,,,,1,2020-07-01_09h31.38.037,retriever_ti,2020.1.3,Win32,60,Chrome,1366,768,,,,,,,,,,,,,,,,,1,,,,,,,,,,,,,,,,,,,,,,,,,,,392.865825,43,NaN,NaN,No_response,NaN,NaN,NaN,2,2,392.88259,392.88259,395.376395,0,42,42,42,1,43,8,4,clownfish     ,seaturtle     ,html/resources/sequences_IDs/A/04_clownfish.jpg,html/resources/sequences_IDs/A/02_seaturtle.jpg,4,2,2,1,2,1,3,1,0,1,,,,,,,,,,,,,,,,,,,,
,,,,,1,2020-07-01_09h31.38.037,retriever_ti,2020.1.3,Win32,60,Chrome,1366,768,,,,,,,,,,,,,,,,,1,,,,,,,,,,,,,,,,,,,,,,,,,,,396.477255,44,left,0.305145,phone       ,3,9,-5,0,3,396.509905,396.509905,399.00689,0,43,43,43,1,44,3,8,phone       ,clownfish     ,html/resources/sequences_IDs/B/09_phone.jpg,html/resources/sequences_IDs/A/04_clownfish.jpg,9,4,4,2,2,1,7,3,0,1,,,,,,,,,,,,,,,,,,,,
,,,,,1,2020-07-01_09h31.38.037,retriever_ti,2020.1.3,Win32,60,Chrome,1366,768,,,,,,,,,,,,,,,,,1,,,,,,,,,,,,,,,,,,,,,,,,,,,399.62581,45,left,0.671315,sport_tshirt,7,7,-1,0,0,399.659325,399.659325,402.153165,0,44,44,44,1,45,7,8,sport_tshirt,clownfish     ,html/resources/sequences_IDs/B/07_sport_tshirt.jpg,html/resources/sequences_IDs/A/04_clownfish.jpg,7,4,3,2,2,1,5,3,0,1,,,,,,,,,,,,,,,,,,,,
,,,,,1,2020-07-01_09h31.38.037,retriever_ti,2020.1.3,Win32,60,Chrome,1366,768,,,,,,,,,,,,,,,,,1,,,,,,,,,,,,,,,,,,,,,,,,,,,403.252415,46,left,1.0714,sport_tshirt,7,7,5,1,3,403.287655,403.287655,405.783275,0,45,45,45,1,46,7,2,sport_tshirt,peacock       ,html/resources/sequences_IDs/B/07_sport_tshirt.jpg,html/resources/sequences_IDs/A/05_peacock.jpg,7,5,3,2,2,1,5,4,0,1,,,,,,,,,,,,,,,,,,,,
,,,,,1,2020-07-01_09h31.38.037,retriever_ti,2020.1.3,Win32,60,Chrome,1366,768,,,,,,,,,,,,,,,,,1,,,,,,,,,,,,,,,,,,,,,,,,,,,406.402895,47,right,1.042585,radio       ,1,10,-2,0,3,406.43623,406.43623,408.930265,0,46,46,46,1,47,3,1,phone       ,radio       ,html/resources/sequences_IDs/B/09_phone.jpg,html/resources/sequences_IDs/B/10_radio.jpg,9,10,4,2,4,2,7,8,0,1,,,,,,,,,,,,,,,,,,,,
,,,,,1,2020-07-01_09h31.38.037,retriever_ti,2020.1.3,Win32,60,Chrome,1366,768,,,,,,,,,,,,,,,,,1,,,,,,,,,,,,,,,,,,,,,,,,,,,409.54682,48,right,0.83191,hat           ,6,8,2,1,3,409.58276,409.58276,412.07717,0,47,47,47,1,48,4,6,seaturtle     ,hat           ,html/resources/sequences_IDs/A/02_seaturtle.jpg,html/resources/sequences_IDs/A/08_hat.jpg,2,8,2,1,3,2,1,6,0,1,,,,,,,,,,,,,,,,,,,,
,,,,,1,2020-07-01_09h31.38.037,retriever_ti,2020.1.3,Win32,60,Chrome,1366,768,,,,,,,,,,,,,,,,,1,,,,,,,,,,,,,,,,,,,,,,,,,,,412.697675,49,right,1.116565,radio       ,1,10,-1,0,1,412.730085,412.730085,415.224665,0,48,48,48,1,49,2,1,peacock       ,radio       ,html/resources/sequences_IDs/A/05_peacock.jpg,html/resources/sequences_IDs/B/10_radio.jpg,5,10,2,1,4,2,4,8,1,1,,,,,,,,,,,,,,,,,,,,
,,,,,1,2020-07-01_09h31.38.037,retriever_ti,2020.1.3,Win32,60,Chrome,1366,768,,,,,,,,,,,,,,,,,1,,,,,,,,,,,,,,,,,,,,,,,,,,,416.323845,50,left,0.97224,seaturtle     ,4,2,1,1,1,416.35849,416.35849,418.85417,0,49,49,49,1,50,4,3,seaturtle     ,phone       ,html/resources/sequences_IDs/A/02_seaturtle.jpg,html/resources/sequences_IDs/B/09_phone.jpg,2,9,2,1,4,2,1,7,0,1,,,,,,,,,,,,,,,,,,,,
,,,,,1,2020-07-01_09h31.38.037,retriever_ti,2020.1.3,Win32,60,Chrome,1366,768,,,,,,,,,,,,,,,,,1,,,,,,,,,,,,,,,,,,,,,,,,,,,419.96074,51,right,1.141945,sport_tshirt,7,7,-1,0,0,419.988045,419.988045,422.483015,0,50,50,50,1,51,8,7,clownfish     ,sport_tshirt,html/resources/sequences_IDs/A/04_clownfish.jpg,html/resources/sequences_IDs/B/07_sport_tshirt.jpg,4,7,2,1,3,2,3,5,0,1,,,,,,,,,,,,,,,,,,,,
,,,,,1,2020-07-01_09h31.38.037,retriever_ti,2020.1.3,Win32,60,Chrome,1366,768,,,,,,,,,,,,,,,,,1,,,,,,,,,,,,,,,,,,,,,,,,,,,423.58456,52,left,1.049,peacock       ,2,5,-4,0,3,423.60188,423.60188,426.09694,0,51,51,51,1,52,2,6,peacock       ,hat           ,html/resources/sequences_IDs/A/05_peacock.jpg,html/resources/sequences_IDs/A/08_hat.jpg,5,8,2,1,3,2,4,6,0,1,,,,,,,,,,,,,,,,,,,,
,,,,,1,2020-07-01_09h31.38.037,retriever_ti,2020.1.3,Win32,60,Chrome,1366,768,,,,,,,,,,,,,,,,,1,,,,,,,,,,,,,,,,,,,,,,,,,,,426.71591,53,right,0.88422,hat           ,6,8,1,1,0,426.750105,426.750105,429.24335,0,52,52,52,1,53,5,6,giraffe     ,hat           ,html/resources/sequences_IDs/B/03_giraffe.jpg,html/resources/sequences_IDs/A/08_hat.jpg,3,8,1,1,3,2,2,6,1,1,,,,,,,,,,,,,,,,,,,,
,,,,,1,2020-07-01_09h31.38.037,retriever_ti,2020.1.3,Win32,60,Chrome,1366,768,,,,,,,,,,,,,,,,,1,,,,,,,,,,,,,,,,,,,,,,,,,,,430.34768,54,left,0.660685,sport_tshirt,7,7,6,1,3,430.36001,430.36001,432.856185,0,53,53,53,1,54,7,1,sport_tshirt,radio       ,html/resources/sequences_IDs/B/07_sport_tshirt.jpg,html/resources/sequences_IDs/B/10_radio.jpg,7,10,3,2,4,2,5,8,0,1,,,,,,,,,,,,,,,,,,,,
,,,,,1,2020-07-01_09h31.38.037,retriever_ti,2020.1.3,Win32,60,Chrome,1366,768,,,,,,,,,,,,,,,,,1,,,,,,,,,,,,,,,,,,,,,,,,,,,433.47469,55,right,0.877955,sport_tshirt,7,7,1,1,1,433.49082,433.49082,435.987245,0,54,54,54,1,55,6,7,hat           ,sport_tshirt,html/resources/sequences_IDs/A/08_hat.jpg,html/resources/sequences_IDs/B/07_sport_tshirt.jpg,8,7,3,2,3,2,6,5,0,1,,,,,,,,,,,,,,,,,,,,
,,,,,1,2020-07-01_09h31.38.037,retriever_ti,2020.1.3,Win32,60,Chrome,1366,768,,,,,,,,,,,,,,,,,1,,,,,,,,,,,,,,,,,,,,,,,,,,,437.08598,56,right,0.882965,sport_tshirt,7,7,1,1,1,437.10364,437.10364,439.60099,0,55,55,55,1,56,6,7,hat           ,sport_tshirt,html/resources/sequences_IDs/A/08_hat.jpg,html/resources/sequences_IDs/B/07_sport_tshirt.jpg,8,7,3,2,3,2,6,5,0,1,,,,,,,,,,,,,,,,,,,,
,,,,,1,2020-07-01_09h31.38.037,retriever_ti,2020.1.3,Win32,60,Chrome,1366,768,,,,,,,,,,,,,,,,,1,,,,,,,,,,,,,,,,,,,,,,,,,,,440.70232,57,right,0.98009,radio       ,1,10,-4,0,3,440.7193,440.7193,443.213395,0,56,56,56,1,57,5,1,giraffe     ,radio       ,html/resources/sequences_IDs/B/03_giraffe.jpg,html/resources/sequences_IDs/B/10_radio.jpg,3,10,1,1,4,2,2,8,0,1,,,,,,,,,,,,,,,,,,,,
,,,,,1,2020-07-01_09h31.38.037,retriever_ti,2020.1.3,Win32,60,Chrome,1366,768,,,,,,,,,,,,,,,,,1,,,,,,,,,,,,,,,,,,,,,,,,,,,443.83145,58,right,0.66924,sport_tshirt,7,7,3,1,3,443.864615,443.864615,446.36064,0,57,57,57,1,58,4,7,seaturtle     ,sport_tshirt,html/resources/sequences_IDs/A/02_seaturtle.jpg,html/resources/sequences_IDs/B/07_sport_tshirt.jpg,2,7,2,1,3,2,1,5,0,1,,,,,,,,,,,,,,,,,,,,
,,,,,1,2020-07-01_09h31.38.037,retriever_ti,2020.1.3,Win32,60,Chrome,1366,768,,,,,,,,,,,,,,,,,1,,,,,,,,,,,,,,,,,,,,,,,,,,,446.978675,59,right,0.66276,phone       ,3,9,1,1,1,447.01039,447.01039,449.508095,0,58,58,58,1,59,2,3,peacock       ,phone       ,html/resources/sequences_IDs/A/05_peacock.jpg,html/resources/sequences_IDs/B/09_phone.jpg,5,9,2,1,4,2,4,7,0,1,,,,,,,,,,,,,,,,,,,,
,,,,,1,2020-07-01_09h31.38.037,retriever_ti,2020.1.3,Win32,60,Chrome,1366,768,,,,,,,,,,,,,,,,,1,,,,,,,,,,,,,,,,,,,,,,,,,,,450.606755,60,right,0.668015,phone       ,3,9,1,1,0,450.64402,450.64402,453.137465,0,59,59,59,1,60,2,3,peacock       ,phone       ,html/resources/sequences_IDs/A/05_peacock.jpg,html/resources/sequences_IDs/B/09_phone.jpg,5,9,2,1,4,2,4,7,1,1,,,,,,,,,,,,,,,,,,,,
,,,,,1,2020-07-01_09h31.38.037,retriever_ti,2020.1.3,Win32,60,Chrome,1366,768,,,,,,,,,,,,,,,,,1,,,,,,,,,,,,,,,,,,,,,,,,,,,454.23884,61,left,0.740065,sport_tshirt,7,7,1,1,1,454.26766,454.26766,456.750075,0,60,60,60,1,61,7,6,sport_tshirt,hat           ,html/resources/sequences_IDs/B/07_sport_tshirt.jpg,html/resources/sequences_IDs/A/08_hat.jpg,7,8,3,2,3,2,5,6,0,1,,,,,,,,,,,,,,,,,,,,
,,,,,1,2020-07-01_09h31.38.037,retriever_ti,2020.1.3,Win32,60,Chrome,1366,768,,,,,,,,,,,,,,,,,1,,,,,,,,,,,,,,,,,,,,,,,,,,,457.84993,62,right,0.33747,giraffe     ,5,3,-1,0,0,457.86817,457.86817,460.3641,0,61,61,61,1,62,6,5,hat           ,giraffe     ,html/resources/sequences_IDs/A/08_hat.jpg,html/resources/sequences_IDs/B/03_giraffe.jpg,8,3,3,2,1,1,6,2,0,1,,,,,,,,,,,,,,,,,,,,
,,,,,1,2020-07-01_09h31.38.037,retriever_ti,2020.1.3,Win32,60,Chrome,1366,768,,,,,,,,,,,,,,,,,1,,,,,,,,,,,,,,,,,,,,,,,,,,,461.46251,63,left,0.771455,peacock       ,2,5,-3,0,3,461.47996,461.47996,463.97568,0,62,62,62,1,63,2,5,peacock       ,giraffe     ,html/resources/sequences_IDs/A/05_peacock.jpg,html/resources/sequences_IDs/B/03_giraffe.jpg,5,3,2,1,1,1,4,2,0,1,,,,,,,,,,,,,,,,,,,,
,,,,,1,2020-07-01_09h31.38.037,retriever_ti,2020.1.3,Win32,60,Chrome,1366,768,,,,,,,,,,,,,,,,,1,,,,,,,,,,,,,,,,,,,,,,,,,,,464.593655,64,left,0.581575,peacock       ,2,5,1,1,1,464.62845,464.62845,467.123755,0,63,63,63,1,64,2,1,peacock       ,radio       ,html/resources/sequences_IDs/A/05_peacock.jpg,html/resources/sequences_IDs/B/10_radio.jpg,5,10,2,1,4,2,4,8,0,1,,,,,,,,,,,,,,,,,,,,
,,,,,1,2020-07-01_09h31.38.037,retriever_ti,2020.1.3,Win32,60,Chrome,1366,768,,,,,,,,,,,,,,,,,1,,,,,,,,,,,,,,,,,,,,,,,,,,,468.22474,65,left,0.964225,hat           ,6,8,2,1,3,468.25879,468.25879,470.754385,0,64,64,64,1,65,6,4,hat           ,seaturtle     ,html/resources/sequences_IDs/A/08_hat.jpg,html/resources/sequences_IDs/A/02_seaturtle.jpg,8,2,3,2,2,1,6,1,0,1,,,,,,,,,,,,,,,,,,,,
,,,,,1,2020-07-01_09h31.38.037,retriever_ti,2020.1.3,Win32,60,Chrome,1366,768,,,,,,,,,,,,,,,,,1,,,,,,,,,,,,,,,,,,,,,,,,,,,471.483985,66,right,0.83019,seaturtle     ,4,2,1,1,1,471.54849,471.54849,474.03403,0,65,65,65,1,66,3,4,phone       ,seaturtle     ,html/resources/sequences_IDs/B/09_phone.jpg,html/resources/sequences_IDs/A/02_seaturtle.jpg,9,2,4,2,2,1,7,1,0,1,,,,,,,,,,,,,,,,,,,,
,,,,,1,2020-07-01_09h31.38.037,retriever_ti,2020.1.3,Win32,60,Chrome,1366,768,,,,,,,,,,,,,,,,,1,,,,,,,,,,,,,,,,,,,,,,,,,,,475.134445,67,left,0.5617,phone       ,3,9,1,1,1,475.15098,475.15098,477.645765,0,66,66,66,1,67,3,2,phone       ,peacock       ,html/resources/sequences_IDs/B/09_phone.jpg,html/resources/sequences_IDs/A/05_peacock.jpg,9,5,4,2,2,1,7,4,0,1,,,,,,,,,,,,,,,,,,,,
,,,,,1,2020-07-01_09h31.38.037,retriever_ti,2020.1.3,Win32,60,Chrome,1366,768,,,,,,,,,,,,,,,,,1,,,,,,,,,,,,,,,,,,,,,,,,,,,478.749955,68,right,0.44228,seaturtle     ,4,2,-1,0,0,478.78005,478.78005,481.276745,0,67,67,67,1,68,5,4,giraffe     ,seaturtle     ,html/resources/sequences_IDs/B/03_giraffe.jpg,html/resources/sequences_IDs/A/02_seaturtle.jpg,3,2,1,1,2,1,2,1,0,1,,,,,,,,,,,,,,,,,,,,
,,,,,1,2020-07-01_09h31.38.037,retriever_ti,2020.1.3,Win32,60,Chrome,1366,768,,,,,,,,,,,,,,,,,1,,,,,,,,,,,,,,,,,,,,,,,,,,,482.37776,69,right,0.57717,hat           ,6,8,5,1,3,482.39486,482.39486,484.88875,0,68,68,68,1,69,1,6,radio       ,hat           ,html/resources/sequences_IDs/B/10_radio.jpg,html/resources/sequences_IDs/A/08_hat.jpg,10,8,4,2,3,2,8,6,0,1,,,,,,,,,,,,,,,,,,,,
,,,,,1,2020-07-01_09h31.38.037,retriever_ti,2020.1.3,Win32,60,Chrome,1366,768,,,,,,,,,,,,,,,,,1,,,,,,,,,,,,,,,,,,,,,,,,,,,485.506145,70,right,1.367525,sport_tshirt,7,7,4,1,3,485.5249,485.5249,488.019725,0,69,69,69,1,70,3,7,phone       ,sport_tshirt,html/resources/sequences_IDs/B/09_phone.jpg,html/resources/sequences_IDs/B/07_sport_tshirt.jpg,9,7,4,2,3,2,7,5,0,1,,,,,,,,,,,,,,,,,,,,
,,,,,1,2020-07-01_09h31.38.037,retriever_ti,2020.1.3,Win32,60,Chrome,1366,768,,,,,,,,,,,,,,,,,1,,,,,,,,,,,,,,,,,,,,,,,,,,,488.644585,71,left,0.49712,giraffe     ,5,3,1,1,1,488.68148,488.68148,491.16673,0,70,70,70,1,71,5,4,giraffe     ,seaturtle     ,html/resources/sequences_IDs/B/03_giraffe.jpg,html/resources/sequences_IDs/A/02_seaturtle.jpg,3,2,1,1,2,1,2,1,0,1,,,,,,,,,,,,,,,,,,,,
,,,,,1,2020-07-01_09h31.38.037,retriever_ti,2020.1.3,Win32,60,Chrome,1366,768,,,,,,,,,,,,,,,,,1,,,,,,,,,,,,,,,,,,,,,,,,,,,492.26621,72,left,0.450625,sport_tshirt,7,7,2,1,3,492.302005,492.302005,494.79618,0,71,71,71,1,72,7,5,sport_tshirt,giraffe     ,html/resources/sequences_IDs/B/07_sport_tshirt.jpg,html/resources/sequences_IDs/B/03_giraffe.jpg,7,3,3,2,1,1,5,2,0,1,,,,,,,,,,,,,,,,,,,,
,,,,,1,2020-07-01_09h31.38.037,retriever_ti,2020.1.3,Win32,60,Chrome,1366,768,,,,,,,,,,,,,,,,,1,,,,,,,,,,,,,,,,,,,,,,,,,,,495.41412,73,left,0.700225,clownfish     ,8,4,5,1,3,495.448185,495.448185,497.944345,0,72,72,72,1,73,8,3,clownfish     ,phone       ,html/resources/sequences_IDs/A/04_clownfish.jpg,html/resources/sequences_IDs/B/09_phone.jpg,4,9,2,1,4,2,3,7,0,1,,,,,,,,,,,,,,,,,,,,
,,,,,1,2020-07-01_09h31.38.037,retriever_ti,2020.1.3,Win32,60,Chrome,1366,768,,,,,,,,,,,,,,,,,1,,,,,,,,,,,,,,,,,,,,,,,,,,,498.560535,74,left,0.652035,sport_tshirt,7,7,1,1,0,498.59964,498.59964,501.09104,0,73,73,73,1,74,7,6,sport_tshirt,hat           ,html/resources/sequences_IDs/B/07_sport_tshirt.jpg,html/resources/sequences_IDs/A/08_hat.jpg,7,8,3,2,3,2,5,6,1,1,,,,,,,,,,,,,,,,,,,,
,,,,,1,2020-07-01_09h31.38.037,retriever_ti,2020.1.3,Win32,60,Chrome,1366,768,,,,,,,,,,,,,,,,,1,,,,,,,,,,,,,,,,,,,,,,,,,,,502.19018,75,right,0.931945,sport_tshirt,7,7,5,1,3,502.22535,502.22535,504.71929,0,74,74,74,1,75,2,7,peacock       ,sport_tshirt,html/resources/sequences_IDs/A/05_peacock.jpg,html/resources/sequences_IDs/B/07_sport_tshirt.jpg,5,7,2,1,3,2,4,5,0,1,,,,,,,,,,,,,,,,,,,,
,,,,,1,2020-07-01_09h31.38.037,retriever_ti,2020.1.3,Win32,60,Chrome,1366,768,,,,,,,,,,,,,,,,,1,,,,,,,,,,,,,,,,,,,,,,,,,,,505.336655,76,left,0.84588,hat           ,6,8,3,1,3,505.372565,505.372565,507.86662,0,75,75,75,1,76,6,3,hat           ,phone       ,html/resources/sequences_IDs/A/08_hat.jpg,html/resources/sequences_IDs/B/09_phone.jpg,8,9,3,2,4,2,6,7,0,1,,,,,,,,,,,,,,,,,,,,
,,,,,1,2020-07-01_09h31.38.037,retriever_ti,2020.1.3,Win32,60,Chrome,1366,768,,,,,,,,,,,,,,,,,1,,,,,,,,,,,,,,,,,,,,,,,,,,,508.484435,77,left,1.13069,hat           ,6,8,1,1,1,508.517555,508.517555,511.012925,0,76,76,76,1,77,6,5,hat           ,giraffe     ,html/resources/sequences_IDs/A/08_hat.jpg,html/resources/sequences_IDs/B/03_giraffe.jpg,8,3,3,2,1,1,6,2,0,1,,,,,,,,,,,,,,,,,,,,
,,,,,1,2020-07-01_09h31.38.037,retriever_ti,2020.1.3,Win32,60,Chrome,1366,768,,,,,,,,,,,,,,,,,,,,,,,,,,,,,,,,,,,,,1,1.93224,,,,,,,,,,,,,,,,,,,,,,,,,,,,,,,,,,,,,,,,,0,0,0,0,1,,,,,,,,,,,,,,,
,,,,,1,2020-07-01_09h31.38.037,retriever_ti,2020.1.3,Win32,60,Chrome,1366,768,,,,,,,,,,,,,,,,,2,,,,,,,,,,,,,,,,,,,,,,,,,,,525.628025,78,left,1.04157,radio       ,1,10,-1,0,0,525.650225,525.650225,528.14716,0,0,0,0,1,78,1,2,radio       ,peacock       ,html/resources/sequences_IDs/B/10_radio.jpg,html/resources/sequences_IDs/A/05_peacock.jpg,10,5,4,2,2,1,8,4,0,1,,,,,,,,,,,,,,,,,,,,
,,,,,1,2020-07-01_09h31.38.037,retriever_ti,2020.1.3,Win32,60,Chrome,1366,768,,,,,,,,,,,,,,,,,2,,,,,,,,,,,,,,,,,,,,,,,,,,,529.24685,79,left,1.01294,giraffe     ,5,3,1,1,1,529.280045,529.280045,531.77713,0,1,1,1,1,79,5,4,giraffe     ,seaturtle     ,html/resources/sequences_IDs/B/03_giraffe.jpg,html/resources/sequences_IDs/A/02_seaturtle.jpg,3,2,1,1,2,1,2,1,0,1,,,,,,,,,,,,,,,,,,,,
,,,,,1,2020-07-01_09h31.38.037,retriever_ti,2020.1.3,Win32,60,Chrome,1366,768,,,,,,,,,,,,,,,,,2,,,,,,,,,,,,,,,,,,,,,,,,,,,532.876705,80,right,0.900765,clownfish     ,8,4,5,1,3,532.91169,532.91169,535.40622,0,2,2,2,1,80,3,8,phone       ,clownfish     ,html/resources/sequences_IDs/B/09_phone.jpg,html/resources/sequences_IDs/A/04_clownfish.jpg,9,4,4,2,2,1,7,3,0,1,,,,,,,,,,,,,,,,,,,,
,,,,,1,2020-07-01_09h31.38.037,retriever_ti,2020.1.3,Win32,60,Chrome,1366,768,,,,,,,,,,,,,,,,,2,,,,,,,,,,,,,,,,,,,,,,,,,,,536.025955,81,left,0.87238,hat           ,6,8,2,1,3,536.041925,536.041925,538.536535,0,3,3,3,1,81,6,4,hat           ,seaturtle     ,html/resources/sequences_IDs/A/08_hat.jpg,html/resources/sequences_IDs/A/02_seaturtle.jpg,8,2,3,2,2,1,6,1,0,1,,,,,,,,,,,,,,,,,,,,
,,,,,1,2020-07-01_09h31.38.037,retriever_ti,2020.1.3,Win32,60,Chrome,1366,768,,,,,,,,,,,,,,,,,2,,,,,,,,,,,,,,,,,,,,,,,,,,,539.15361,82,right,0.665065,giraffe     ,5,3,1,1,1,539.18774,539.18774,541.683605,0,4,4,4,1,82,4,5,seaturtle     ,giraffe     ,html/resources/sequences_IDs/A/02_seaturtle.jpg,html/resources/sequences_IDs/B/03_giraffe.jpg,2,3,2,1,1,1,1,2,0,1,,,,,,,,,,,,,,,,,,,,
,,,,,1,2020-07-01_09h31.38.037,retriever_ti,2020.1.3,Win32,60,Chrome,1366,768,,,,,,,,,,,,,,,,,2,,,,,,,,,,,,,,,,,,,,,,,,,,,542.78607,83,right,0.84762,sport_tshirt,7,7,4,1,3,542.80297,542.80297,545.296075,0,5,5,5,1,83,3,7,phone       ,sport_tshirt,html/resources/sequences_IDs/B/09_phone.jpg,html/resources/sequences_IDs/B/07_sport_tshirt.jpg,9,7,4,2,3,2,7,5,0,1,,,,,,,,,,,,,,,,,,,,
,,,,,1,2020-07-01_09h31.38.037,retriever_ti,2020.1.3,Win32,60,Chrome,1366,768,,,,,,,,,,,,,,,,,2,,,,,,,,,,,,,,,,,,,,,,,,,,,545.91555,84,right,0.77723,sport_tshirt,7,7,5,1,3,545.933015,545.933015,548.42678,0,6,6,6,1,84,2,7,peacock       ,sport_tshirt,html/resources/sequences_IDs/A/05_peacock.jpg,html/resources/sequences_IDs/B/07_sport_tshirt.jpg,5,7,2,1,3,2,4,5,0,1,,,,,,,,,,,,,,,,,,,,
,,,,,1,2020-07-01_09h31.38.037,retriever_ti,2020.1.3,Win32,60,Chrome,1366,768,,,,,,,,,,,,,,,,,2,,,,,,,,,,,,,,,,,,,,,,,,,,,549.045365,85,left,1.249155,peacock       ,2,5,1,1,1,549.063015,549.063015,551.557535,0,7,7,7,1,85,2,1,peacock       ,radio       ,html/resources/sequences_IDs/A/05_peacock.jpg,html/resources/sequences_IDs/B/10_radio.jpg,5,10,2,1,4,2,4,8,0,1,,,,,,,,,,,,,,,,,,,,
,,,,,1,2020-07-01_09h31.38.037,retriever_ti,2020.1.3,Win32,60,Chrome,1366,768,,,,,,,,,,,,,,,,,2,,,,,,,,,,,,,,,,,,,,,,,,,,,552.65716,86,right,0.87713,peacock       ,2,5,-6,0,3,552.67436,552.67436,555.170055,0,8,8,8,1,86,8,2,clownfish     ,peacock       ,html/resources/sequences_IDs/A/04_clownfish.jpg,html/resources/sequences_IDs/A/05_peacock.jpg,4,5,2,1,2,1,3,4,0,1,,,,,,,,,,,,,,,,,,,,
,,,,,1,2020-07-01_09h31.38.037,retriever_ti,2020.1.3,Win32,60,Chrome,1366,768,,,,,,,,,,,,,,,,,2,,,,,,,,,,,,,,,,,,,,,,,,,,,555.78655,87,left,0.97653,hat           ,6,8,-1,0,1,555.82197,555.82197,558.31707,0,9,9,9,1,87,6,7,hat           ,sport_tshirt,html/resources/sequences_IDs/A/08_hat.jpg,html/resources/sequences_IDs/B/07_sport_tshirt.jpg,8,7,3,2,3,2,6,5,1,1,,,,,,,,,,,,,,,,,,,,
,,,,,1,2020-07-01_09h31.38.037,retriever_ti,2020.1.3,Win32,60,Chrome,1366,768,,,,,,,,,,,,,,,,,2,,,,,,,,,,,,,,,,,,,,,,,,,,,559.41803,88,right,1.330425,sport_tshirt,7,7,6,1,3,559.45302,559.45302,561.947375,0,10,10,10,1,88,1,7,radio       ,sport_tshirt,html/resources/sequences_IDs/B/10_radio.jpg,html/resources/sequences_IDs/B/07_sport_tshirt.jpg,10,7,4,2,3,2,8,5,0,1,,,,,,,,,,,,,,,,,,,,
,,,,,1,2020-07-01_09h31.38.037,retriever_ti,2020.1.3,Win32,60,Chrome,1366,768,,,,,,,,,,,,,,,,,2,,,,,,,,,,,,,,,,,,,,,,,,,,,562.566615,89,left,0.92604,clownfish     ,8,4,1,1,1,562.58395,562.58395,565.07706,0,11,11,11,1,89,8,7,clownfish     ,sport_tshirt,html/resources/sequences_IDs/A/04_clownfish.jpg,html/resources/sequences_IDs/B/07_sport_tshirt.jpg,4,7,2,1,3,2,3,5,0,1,,,,,,,,,,,,,,,,,,,,
,,,,,1,2020-07-01_09h31.38.037,retriever_ti,2020.1.3,Win32,60,Chrome,1366,768,,,,,,,,,,,,,,,,,2,,,,,,,,,,,,,,,,,,,,,,,,,,,566.17763,90,right,1.15476,sport_tshirt,7,7,1,1,1,566.21239,566.21239,568.706525,0,12,12,12,1,90,6,7,hat           ,sport_tshirt,html/resources/sequences_IDs/A/08_hat.jpg,html/resources/sequences_IDs/B/07_sport_tshirt.jpg,8,7,3,2,3,2,6,5,0,1,,,,,,,,,,,,,,,,,,,,
,,,,,1,2020-07-01_09h31.38.037,retriever_ti,2020.1.3,Win32,60,Chrome,1366,768,,,,,,,,,,,,,,,,,2,,,,,,,,,,,,,,,,,,,,,,,,,,,569.80682,91,right,1.145,hat           ,6,8,1,1,1,569.84017,569.84017,572.336835,0,13,13,13,1,91,5,6,giraffe     ,hat           ,html/resources/sequences_IDs/B/03_giraffe.jpg,html/resources/sequences_IDs/A/08_hat.jpg,3,8,1,1,3,2,2,6,0,1,,,,,,,,,,,,,,,,,,,,
,,,,,1,2020-07-01_09h31.38.037,retriever_ti,2020.1.3,Win32,60,Chrome,1366,768,,,,,,,,,,,,,,,,,2,,,,,,,,,,,,,,,,,,,,,,,,,,,573.43769,92,left,0.968265,sport_tshirt,7,7,6,1,3,573.456965,573.456965,575.950265,0,14,14,14,1,92,7,1,sport_tshirt,radio       ,html/resources/sequences_IDs/B/07_sport_tshirt.jpg,html/resources/sequences_IDs/B/10_radio.jpg,7,10,3,2,4,2,5,8,0,1,,,,,,,,,,,,,,,,,,,,
,,,,,1,2020-07-01_09h31.38.037,retriever_ti,2020.1.3,Win32,60,Chrome,1366,768,,,,,,,,,,,,,,,,,2,,,,,,,,,,,,,,,,,,,,,,,,,,,576.57278,93,left,0.69397,hat           ,6,8,5,1,3,576.587405,576.587405,579.08013,0,15,15,15,1,93,6,1,hat           ,radio       ,html/resources/sequences_IDs/A/08_hat.jpg,html/resources/sequences_IDs/B/10_radio.jpg,8,10,3,2,4,2,6,8,0,1,,,,,,,,,,,,,,,,,,,,
,,,,,1,2020-07-01_09h31.38.037,retriever_ti,2020.1.3,Win32,60,Chrome,1366,768,,,,,,,,,,,,,,,,,2,,,,,,,,,,,,,,,,,,,,,,,,,,,579.69736,94,right,0.522575,giraffe     ,5,3,-3,0,3,579.717115,579.717115,582.20968,0,16,16,16,1,94,8,5,clownfish     ,giraffe     ,html/resources/sequences_IDs/A/04_clownfish.jpg,html/resources/sequences_IDs/B/03_giraffe.jpg,4,3,2,1,1,1,3,2,0,1,,,,,,,,,,,,,,,,,,,,
,,,,,1,2020-07-01_09h31.38.037,retriever_ti,2020.1.3,Win32,60,Chrome,1366,768,,,,,,,,,,,,,,,,,2,,,,,,,,,,,,,,,,,,,,,,,,,,,582.82897,95,left,0.645575,sport_tshirt,7,7,1,1,1,582.86341,582.86341,585.35666,0,17,17,17,1,95,7,6,sport_tshirt,hat           ,html/resources/sequences_IDs/B/07_sport_tshirt.jpg,html/resources/sequences_IDs/A/08_hat.jpg,7,8,3,2,3,2,5,6,0,1,,,,,,,,,,,,,,,,,,,,
,,,,,1,2020-07-01_09h31.38.037,retriever_ti,2020.1.3,Win32,60,Chrome,1366,768,,,,,,,,,,,,,,,,,2,,,,,,,,,,,,,,,,,,,,,,,,,,,586.457285,96,left,0.94238,seaturtle     ,4,2,1,1,1,586.492465,586.492465,588.987895,0,18,18,18,1,96,4,3,seaturtle     ,phone       ,html/resources/sequences_IDs/A/02_seaturtle.jpg,html/resources/sequences_IDs/B/09_phone.jpg,2,9,2,1,4,2,1,7,0,1,,,,,,,,,,,,,,,,,,,,
,,,,,1,2020-07-01_09h31.38.037,retriever_ti,2020.1.3,Win32,60,Chrome,1366,768,,,,,,,,,,,,,,,,,2,,,,,,,,,,,,,,,,,,,,,,,,,,,590.08792,97,right,0.368095,phone       ,3,9,2,1,3,590.120725,590.120725,592.61719,0,19,19,19,1,97,1,3,radio       ,phone       ,html/resources/sequences_IDs/B/10_radio.jpg,html/resources/sequences_IDs/B/09_phone.jpg,10,9,4,2,4,2,8,7,0,1,,,,,,,,,,,,,,,,,,,,
,,,,,1,2020-07-01_09h31.38.037,retriever_ti,2020.1.3,Win32,60,Chrome,1366,768,,,,,,,,,,,,,,,,,2,,,,,,,,,,,,,,,,,,,,,,,,,,,593.234725,98,left,0.563785,radio       ,1,10,-3,0,3,593.270045,593.270045,595.76404,0,20,20,20,1,98,1,4,radio       ,seaturtle     ,html/resources/sequences_IDs/B/10_radio.jpg,html/resources/sequences_IDs/A/02_seaturtle.jpg,10,2,4,2,2,1,8,1,0,1,,,,,,,,,,,,,,,,,,,,
,,,,,1,2020-07-01_09h31.38.037,retriever_ti,2020.1.3,Win32,60,Chrome,1366,768,,,,,,,,,,,,,,,,,2,,,,,,,,,,,,,,,,,,,,,,,,,,,596.38258,99,right,0.564515,peacock       ,2,5,-4,0,3,596.417295,596.417295,598.911385,0,21,21,21,1,99,6,2,hat           ,peacock       ,html/resources/sequences_IDs/A/08_hat.jpg,html/resources/sequences_IDs/A/05_peacock.jpg,8,5,3,2,2,1,6,4,0,1,,,,,,,,,,,,,,,,,,,,
,,,,,1,2020-07-01_09h31.38.037,retriever_ti,2020.1.3,Win32,60,Chrome,1366,768,,,,,,,,,,,,,,,,,2,,,,,,,,,,,,,,,,,,,,,,,,,,,599.52842,100,left,0.66781,seaturtle     ,4,2,1,1,1,599.563745,599.563745,602.058145,0,22,22,22,1,100,4,3,seaturtle     ,phone       ,html/resources/sequences_IDs/A/02_seaturtle.jpg,html/resources/sequences_IDs/B/09_phone.jpg,2,9,2,1,4,2,1,7,0,1,,,,,,,,,,,,,,,,,,,,
,,,,,1,2020-07-01_09h31.38.037,retriever_ti,2020.1.3,Win32,60,Chrome,1366,768,,,,,,,,,,,,,,,,,2,,,,,,,,,,,,,,,,,,,,,,,,,,,603.15876,101,right,0.559015,phone       ,3,9,-4,0,3,603.176825,603.176825,605.670995,0,23,23,23,1,101,7,3,sport_tshirt,phone       ,html/resources/sequences_IDs/B/07_sport_tshirt.jpg,html/resources/sequences_IDs/B/09_phone.jpg,7,9,3,2,4,2,5,7,0,1,,,,,,,,,,,,,,,,,,,,
,,,,,1,2020-07-01_09h31.38.037,retriever_ti,2020.1.3,Win32,60,Chrome,1366,768,,,,,,,,,,,,,,,,,2,,,,,,,,,,,,,,,,,,,,,,,,,,,606.30451,102,left,0.97377,sport_tshirt,7,7,3,1,3,606.324225,606.324225,608.82301,0,24,24,24,1,102,7,4,sport_tshirt,seaturtle     ,html/resources/sequences_IDs/B/07_sport_tshirt.jpg,html/resources/sequences_IDs/A/02_seaturtle.jpg,7,2,3,2,2,1,5,1,0,1,,,,,,,,,,,,,,,,,,,,
,,,,,1,2020-07-01_09h31.38.037,retriever_ti,2020.1.3,Win32,60,Chrome,1366,768,,,,,,,,,,,,,,,,,2,,,,,,,,,,,,,,,,,,,,,,,,,,,609.438725,103,left,0.852875,phone       ,3,9,-1,0,0,609.478045,609.478045,611.96434,0,25,25,25,1,103,3,4,phone       ,seaturtle     ,html/resources/sequences_IDs/B/09_phone.jpg,html/resources/sequences_IDs/A/02_seaturtle.jpg,9,2,4,2,2,1,7,1,0,1,,,,,,,,,,,,,,,,,,,,
,,,,,1,2020-07-01_09h31.38.037,retriever_ti,2020.1.3,Win32,60,Chrome,1366,768,,,,,,,,,,,,,,,,,2,,,,,,,,,,,,,,,,,,,,,,,,,,,613.06423,104,right,0.559405,peacock       ,2,5,-1,0,0,613.098185,613.098185,615.594285,0,26,26,26,1,104,3,2,phone       ,peacock       ,html/resources/sequences_IDs/B/09_phone.jpg,html/resources/sequences_IDs/A/05_peacock.jpg,9,5,4,2,2,1,7,4,0,1,,,,,,,,,,,,,,,,,,,,
,,,,,1,2020-07-01_09h31.38.037,retriever_ti,2020.1.3,Win32,60,Chrome,1366,768,,,,,,,,,,,,,,,,,2,,,,,,,,,,,,,,,,,,,,,,,,,,,616.695965,105,left,0.681135,hat           ,6,8,1,1,1,616.72918,616.72918,619.223405,0,27,27,27,1,105,6,5,hat           ,giraffe     ,html/resources/sequences_IDs/A/08_hat.jpg,html/resources/sequences_IDs/B/03_giraffe.jpg,8,3,3,2,1,1,6,2,0,1,,,,,,,,,,,,,,,,,,,,
,,,,,1,2020-07-01_09h31.38.037,retriever_ti,2020.1.3,Win32,60,Chrome,1366,768,,,,,,,,,,,,,,,,,2,,,,,,,,,,,,,,,,,,,,,,,,,,,620.323525,106,right,0.777495,hat           ,6,8,-2,0,3,620.357815,620.357815,622.853715,0,28,28,28,1,106,8,6,clownfish     ,hat           ,html/resources/sequences_IDs/A/04_clownfish.jpg,html/resources/sequences_IDs/A/08_hat.jpg,4,8,2,1,3,2,3,6,0,1,,,,,,,,,,,,,,,,,,,,
,,,,,1,2020-07-01_09h31.38.037,retriever_ti,2020.1.3,Win32,60,Chrome,1366,768,,,,,,,,,,,,,,,,,2,,,,,,,,,,,,,,,,,,,,,,,,,,,623.457195,107,left,0.69693,peacock       ,2,5,-3,0,3,623.475235,623.475235,625.967845,0,29,29,29,1,107,2,5,peacock       ,giraffe     ,html/resources/sequences_IDs/A/05_peacock.jpg,html/resources/sequences_IDs/B/03_giraffe.jpg,5,3,2,1,1,1,4,2,0,1,,,,,,,,,,,,,,,,,,,,
,,,,,1,2020-07-01_09h31.38.037,retriever_ti,2020.1.3,Win32,60,Chrome,1366,768,,,,,,,,,,,,,,,,,2,,,,,,,,,,,,,,,,,,,,,,,,,,,626.58336,108,left,1.250005,hat           ,6,8,1,1,1,626.601535,626.601535,629.0971,0,30,30,30,1,108,6,5,hat           ,giraffe     ,html/resources/sequences_IDs/A/08_hat.jpg,html/resources/sequences_IDs/B/03_giraffe.jpg,8,3,3,2,1,1,6,2,0,1,,,,,,,,,,,,,,,,,,,,
,,,,,1,2020-07-01_09h31.38.037,retriever_ti,2020.1.3,Win32,60,Chrome,1366,768,,,,,,,,,,,,,,,,,2,,,,,,,,,,,,,,,,,,,,,,,,,,,630.19957,109,left,0.847855,sport_tshirt,7,7,5,1,3,630.234175,630.234175,632.727665,0,31,31,31,1,109,7,2,sport_tshirt,peacock       ,html/resources/sequences_IDs/B/07_sport_tshirt.jpg,html/resources/sequences_IDs/A/05_peacock.jpg,7,5,3,2,2,1,5,4,0,1,,,,,,,,,,,,,,,,,,,,
,,,,,1,2020-07-01_09h31.38.037,retriever_ti,2020.1.3,Win32,60,Chrome,1366,768,,,,,,,,,,,,,,,,,2,,,,,,,,,,,,,,,,,,,,,,,,,,,633.343595,110,left,0.54407,giraffe     ,5,3,4,1,3,633.378125,633.378125,635.87462,0,32,32,32,1,110,5,1,giraffe     ,radio       ,html/resources/sequences_IDs/B/03_giraffe.jpg,html/resources/sequences_IDs/B/10_radio.jpg,3,10,1,1,4,2,2,8,0,1,,,,,,,,,,,,,,,,,,,,
,,,,,1,2020-07-01_09h31.38.037,retriever_ti,2020.1.3,Win32,60,Chrome,1366,768,,,,,,,,,,,,,,,,,2,,,,,,,,,,,,,,,,,,,,,,,,,,,636.49414,111,right,0.48422,phone       ,3,9,1,1,1,636.51037,636.51037,639.0049,0,33,33,33,1,111,2,3,peacock       ,phone       ,html/resources/sequences_IDs/A/05_peacock.jpg,html/resources/sequences_IDs/B/09_phone.jpg,5,9,2,1,4,2,4,7,0,1,,,,,,,,,,,,,,,,,,,,
,,,,,1,2020-07-01_09h31.38.037,retriever_ti,2020.1.3,Win32,60,Chrome,1366,768,,,,,,,,,,,,,,,,,2,,,,,,,,,,,,,,,,,,,,,,,,,,,640.10509,112,left,0.59216,seaturtle     ,4,2,-4,0,3,640.124,640.124,642.617825,0,34,34,34,1,112,4,8,seaturtle     ,clownfish     ,html/resources/sequences_IDs/A/02_seaturtle.jpg,html/resources/sequences_IDs/A/04_clownfish.jpg,2,4,2,1,2,1,1,3,0,1,,,,,,,,,,,,,,,,,,,,
,,,,,1,2020-07-01_09h31.38.037,retriever_ti,2020.1.3,Win32,60,Chrome,1366,768,,,,,,,,,,,,,,,,,2,,,,,,,,,,,,,,,,,,,,,,,,,,,643.237005,113,right,0.54689,giraffe     ,5,3,-2,0,3,643.27005,643.27005,645.76478,0,35,35,35,1,113,7,5,sport_tshirt,giraffe     ,html/resources/sequences_IDs/B/07_sport_tshirt.jpg,html/resources/sequences_IDs/B/03_giraffe.jpg,7,3,3,2,1,1,5,2,0,1,,,,,,,,,,,,,,,,,,,,
,,,,,1,2020-07-01_09h31.38.037,retriever_ti,2020.1.3,Win32,60,Chrome,1366,768,,,,,,,,,,,,,,,,,2,,,,,,,,,,,,,,,,,,,,,,,,,,,646.381575,114,left,0.463965,clownfish     ,8,4,5,1,3,646.399025,646.399025,648.89429,0,36,36,36,1,114,8,3,clownfish     ,phone       ,html/resources/sequences_IDs/A/04_clownfish.jpg,html/resources/sequences_IDs/B/09_phone.jpg,4,9,2,1,4,2,3,7,0,1,,,,,,,,,,,,,,,,,,,,
,,,,,1,2020-07-01_09h31.38.037,retriever_ti,2020.1.3,Win32,60,Chrome,1366,768,,,,,,,,,,,,,,,,,2,,,,,,,,,,,,,,,,,,,,,,,,,,,649.51501,115,left,0.761795,giraffe     ,5,3,-2,0,3,649.547275,649.547275,652.042025,0,37,37,37,1,115,5,7,giraffe     ,sport_tshirt,html/resources/sequences_IDs/B/03_giraffe.jpg,html/resources/sequences_IDs/B/07_sport_tshirt.jpg,3,7,1,1,3,2,2,5,0,1,,,,,,,,,,,,,,,,,,,,
,,,,,1,2020-07-01_09h31.38.037,retriever_ti,2020.1.3,Win32,60,Chrome,1366,768,,,,,,,,,,,,,,,,,2,,,,,,,,,,,,,,,,,,,,,,,,,,,652.659075,116,left,0.81205,seaturtle     ,4,2,3,1,3,652.677505,652.677505,655.173305,0,38,38,38,1,116,4,1,seaturtle     ,radio       ,html/resources/sequences_IDs/A/02_seaturtle.jpg,html/resources/sequences_IDs/B/10_radio.jpg,2,10,2,1,4,2,1,8,0,1,,,,,,,,,,,,,,,,,,,,
,,,,,1,2020-07-01_09h31.38.037,retriever_ti,2020.1.3,Win32,60,Chrome,1366,768,,,,,,,,,,,,,,,,,2,,,,,,,,,,,,,,,,,,,,,,,,,,,655.794875,117,left,0.503,giraffe     ,5,3,-3,0,3,655.807435,655.807435,658.307665,0,39,39,39,1,117,5,8,giraffe     ,clownfish     ,html/resources/sequences_IDs/B/03_giraffe.jpg,html/resources/sequences_IDs/A/04_clownfish.jpg,3,4,1,1,2,1,2,3,0,1,,,,,,,,,,,,,,,,,,,,
,,,,,1,2020-07-01_09h31.38.037,retriever_ti,2020.1.3,Win32,60,Chrome,1366,768,,,,,,,,,,,,,,,,,2,,,,,,,,,,,,,,,,,,,,,,,,,,,658.920455,118,left,0.462805,clownfish     ,8,4,1,1,1,658.93828,658.93828,661.43288,0,40,40,40,1,118,8,7,clownfish     ,sport_tshirt,html/resources/sequences_IDs/A/04_clownfish.jpg,html/resources/sequences_IDs/B/07_sport_tshirt.jpg,4,7,2,1,3,2,3,5,0,1,,,,,,,,,,,,,,,,,,,,
,,,,,1,2020-07-01_09h31.38.037,retriever_ti,2020.1.3,Win32,60,Chrome,1366,768,,,,,,,,,,,,,,,,,2,,,,,,,,,,,,,,,,,,,,,,,,,,,662.53429,119,right,0.44071,radio       ,1,10,-1,0,0,662.567175,662.567175,665.06173,0,41,41,41,1,119,2,1,peacock       ,radio       ,html/resources/sequences_IDs/A/05_peacock.jpg,html/resources/sequences_IDs/B/10_radio.jpg,5,10,2,1,4,2,4,8,0,1,,,,,,,,,,,,,,,,,,,,
,,,,,1,2020-07-01_09h31.38.037,retriever_ti,2020.1.3,Win32,60,Chrome,1366,768,,,,,,,,,,,,,,,,,2,,,,,,,,,,,,,,,,,,,,,,,,,,,666.163045,120,right,0.274585,giraffe     ,5,3,1,1,1,666.199425,666.199425,668.692895,0,42,42,42,1,120,4,5,seaturtle     ,giraffe     ,html/resources/sequences_IDs/A/02_seaturtle.jpg,html/resources/sequences_IDs/B/03_giraffe.jpg,2,3,2,1,1,1,1,2,0,1,,,,,,,,,,,,,,,,,,,,
,,,,,1,2020-07-01_09h31.38.037,retriever_ti,2020.1.3,Win32,60,Chrome,1366,768,,,,,,,,,,,,,,,,,2,,,,,,,,,,,,,,,,,,,,,,,,,,,669.795745,121,right,0.38379,giraffe     ,5,3,4,1,3,669.8122,669.8122,672.305,0,43,43,43,1,121,1,5,radio       ,giraffe     ,html/resources/sequences_IDs/B/10_radio.jpg,html/resources/sequences_IDs/B/03_giraffe.jpg,10,3,4,2,1,1,8,2,0,1,,,,,,,,,,,,,,,,,,,,
,,,,,1,2020-07-01_09h31.38.037,retriever_ti,2020.1.3,Win32,60,Chrome,1366,768,,,,,,,,,,,,,,,,,2,,,,,,,,,,,,,,,,,,,,,,,,,,,672.923715,122,left,0.519145,hat           ,6,8,-2,0,3,672.94132,672.94132,675.435045,0,44,44,44,1,122,6,8,hat           ,clownfish     ,html/resources/sequences_IDs/A/08_hat.jpg,html/resources/sequences_IDs/A/04_clownfish.jpg,8,4,3,2,2,1,6,3,0,1,,,,,,,,,,,,,,,,,,,,
,,,,,1,2020-07-01_09h31.38.037,retriever_ti,2020.1.3,Win32,60,Chrome,1366,768,,,,,,,,,,,,,,,,,2,,,,,,,,,,,,,,,,,,,,,,,,,,,676.05352,123,left,0.421315,seaturtle     ,4,2,-2,0,3,676.069225,676.069225,678.56618,0,45,45,45,1,123,4,6,seaturtle     ,hat           ,html/resources/sequences_IDs/A/02_seaturtle.jpg,html/resources/sequences_IDs/A/08_hat.jpg,2,8,2,1,3,2,1,6,0,1,,,,,,,,,,,,,,,,,,,,
,,,,,1,2020-07-01_09h31.38.037,retriever_ti,2020.1.3,Win32,60,Chrome,1366,768,,,,,,,,,,,,,,,,,2,,,,,,,,,,,,,,,,,,,,,,,,,,,679.183395,124,right,0.290705,sport_tshirt,7,7,1,1,1,679.201855,679.201855,681.69609,0,46,46,46,1,124,6,7,hat           ,sport_tshirt,html/resources/sequences_IDs/A/08_hat.jpg,html/resources/sequences_IDs/B/07_sport_tshirt.jpg,8,7,3,2,3,2,6,5,0,1,,,,,,,,,,,,,,,,,,,,
,,,,,1,2020-07-01_09h31.38.037,retriever_ti,2020.1.3,Win32,60,Chrome,1366,768,,,,,,,,,,,,,,,,,2,,,,,,,,,,,,,,,,,,,,,,,,,,,682.79743,125,right,0.274175,phone       ,3,9,-2,0,3,682.82956,682.82956,685.33173,0,47,47,47,1,125,5,3,giraffe     ,phone       ,html/resources/sequences_IDs/B/03_giraffe.jpg,html/resources/sequences_IDs/B/09_phone.jpg,3,9,1,1,4,2,2,7,0,1,,,,,,,,,,,,,,,,,,,,
,,,,,1,2020-07-01_09h31.38.037,retriever_ti,2020.1.3,Win32,60,Chrome,1366,768,,,,,,,,,,,,,,,,,2,,,,,,,,,,,,,,,,,,,,,,,,,,,685.94896,126,left,0.4505,radio       ,1,10,-7,0,3,685.97659,685.97659,688.472915,0,48,48,48,1,126,1,8,radio       ,clownfish     ,html/resources/sequences_IDs/B/10_radio.jpg,html/resources/sequences_IDs/A/04_clownfish.jpg,10,4,4,2,2,1,8,3,0,1,,,,,,,,,,,,,,,,,,,,
,,,,,1,2020-07-01_09h31.38.037,retriever_ti,2020.1.3,Win32,60,Chrome,1366,768,,,,,,,,,,,,,,,,,2,,,,,,,,,,,,,,,,,,,,,,,,,,,689.094575,127,left,0.39014,phone       ,3,9,-2,0,3,689.124785,689.124785,691.61932,0,49,49,49,1,127,3,5,phone       ,giraffe     ,html/resources/sequences_IDs/B/09_phone.jpg,html/resources/sequences_IDs/B/03_giraffe.jpg,9,3,4,2,1,1,7,2,0,1,,,,,,,,,,,,,,,,,,,,
,,,,,1,2020-07-01_09h31.38.037,retriever_ti,2020.1.3,Win32,60,Chrome,1366,768,,,,,,,,,,,,,,,,,2,,,,,,,,,,,,,,,,,,,,,,,,,,,692.220155,128,left,0.74612,phone       ,3,9,-1,0,1,692.239615,692.239615,695.01652,0,50,50,50,1,128,3,4,phone       ,seaturtle     ,html/resources/sequences_IDs/B/09_phone.jpg,html/resources/sequences_IDs/A/02_seaturtle.jpg,9,2,4,2,2,1,7,1,1,1,,,,,,,,,,,,,,,,,,,,
,,,,,1,2020-07-01_09h31.38.037,retriever_ti,2020.1.3,Win32,60,Chrome,1366,768,,,,,,,,,,,,,,,,,2,,,,,,,,,,,,,,,,,,,,,,,,,,,696.125015,129,right,0.519975,seaturtle     ,4,2,-1,0,0,696.153915,696.153915,698.64597,0,51,51,51,1,129,5,4,giraffe     ,seaturtle     ,html/resources/sequences_IDs/B/03_giraffe.jpg,html/resources/sequences_IDs/A/02_seaturtle.jpg,3,2,1,1,2,1,2,1,0,1,,,,,,,,,,,,,,,,,,,,
,,,,,1,2020-07-01_09h31.38.037,retriever_ti,2020.1.3,Win32,60,Chrome,1366,768,,,,,,,,,,,,,,,,,2,,,,,,,,,,,,,,,,,,,,,,,,,,,699.74527,130,left,0.77803,giraffe     ,5,3,3,1,3,699.78215,699.78215,702.27571,0,52,52,52,1,130,5,2,giraffe     ,peacock       ,html/resources/sequences_IDs/B/03_giraffe.jpg,html/resources/sequences_IDs/A/05_peacock.jpg,3,5,1,1,2,1,2,4,0,1,,,,,,,,,,,,,,,,,,,,
,,,,,1,2020-07-01_09h31.38.037,retriever_ti,2020.1.3,Win32,60,Chrome,1366,768,,,,,,,,,,,,,,,,,2,,,,,,,,,,,,,,,,,,,,,,,,,,,702.89385,131,right,0.974095,sport_tshirt,7,7,3,1,3,702.92663,702.92663,705.423485,0,53,53,53,1,131,4,7,seaturtle     ,sport_tshirt,html/resources/sequences_IDs/A/02_seaturtle.jpg,html/resources/sequences_IDs/B/07_sport_tshirt.jpg,2,7,2,1,3,2,1,5,0,1,,,,,,,,,,,,,,,,,,,,
,,,,,1,2020-07-01_09h31.38.037,retriever_ti,2020.1.3,Win32,60,Chrome,1366,768,,,,,,,,,,,,,,,,,2,,,,,,,,,,,,,,,,,,,,,,,,,,,706.02814,132,right,1.13499,peacock       ,2,5,1,1,1,706.062235,706.062235,708.55258,0,54,54,54,1,132,1,2,radio       ,peacock       ,html/resources/sequences_IDs/B/10_radio.jpg,html/resources/sequences_IDs/A/05_peacock.jpg,10,5,4,2,2,1,8,4,0,1,,,,,,,,,,,,,,,,,,,,
,,,,,1,2020-07-01_09h31.38.037,retriever_ti,2020.1.3,Win32,60,Chrome,1366,768,,,,,,,,,,,,,,,,,2,,,,,,,,,,,,,,,,,,,,,,,,,,,709.652845,133,left,0.962265,peacock       ,2,5,-6,0,3,709.68894,709.68894,712.18232,0,55,55,55,1,133,2,8,peacock       ,clownfish     ,html/resources/sequences_IDs/A/05_peacock.jpg,html/resources/sequences_IDs/A/04_clownfish.jpg,5,4,2,1,2,1,4,3,0,1,,,,,,,,,,,,,,,,,,,,
,,,,,1,2020-07-01_09h31.38.037,retriever_ti,2020.1.3,Win32,60,Chrome,1366,768,,,,,,,,,,,,,,,,,2,,,,,,,,,,,,,,,,,,,,,,,,,,,712.784205,134,left,1.17716,phone       ,3,9,1,1,1,712.821145,712.821145,715.313005,0,56,56,56,1,134,3,2,phone       ,peacock       ,html/resources/sequences_IDs/B/09_phone.jpg,html/resources/sequences_IDs/A/05_peacock.jpg,9,5,4,2,2,1,7,4,0,1,,,,,,,,,,,,,,,,,,,,
,,,,,1,2020-07-01_09h31.38.037,retriever_ti,2020.1.3,Win32,60,Chrome,1366,768,,,,,,,,,,,,,,,,,2,,,,,,,,,,,,,,,,,,,,,,,,,,,716.41426,135,left,1.10019,radio       ,1,10,-1,0,1,716.43035,716.43035,718.92666,0,57,57,57,1,135,1,2,radio       ,peacock       ,html/resources/sequences_IDs/B/10_radio.jpg,html/resources/sequences_IDs/A/05_peacock.jpg,10,5,4,2,2,1,8,4,1,1,,,,,,,,,,,,,,,,,,,,
,,,,,1,2020-07-01_09h31.38.037,retriever_ti,2020.1.3,Win32,60,Chrome,1366,768,,,,,,,,,,,,,,,,,2,,,,,,,,,,,,,,,,,,,,,,,,,,,720.027345,136,left,0.64593,seaturtle     ,4,2,2,1,3,720.061825,720.061825,722.55663,0,58,58,58,1,136,4,2,seaturtle     ,peacock       ,html/resources/sequences_IDs/A/02_seaturtle.jpg,html/resources/sequences_IDs/A/05_peacock.jpg,2,5,2,1,2,1,1,4,0,1,,,,,,,,,,,,,,,,,,,,
,,,,,1,2020-07-01_09h31.38.037,retriever_ti,2020.1.3,Win32,60,Chrome,1366,768,,,,,,,,,,,,,,,,,2,,,,,,,,,,,,,,,,,,,,,,,,,,,723.175955,137,left,0.70238,phone       ,3,9,-3,0,3,723.20871,723.20871,725.702925,0,59,59,59,1,137,3,6,phone       ,hat           ,html/resources/sequences_IDs/B/09_phone.jpg,html/resources/sequences_IDs/A/08_hat.jpg,9,8,4,2,3,2,7,6,0,1,,,,,,,,,,,,,,,,,,,,
,,,,,1,2020-07-01_09h31.38.037,retriever_ti,2020.1.3,Win32,60,Chrome,1366,768,,,,,,,,,,,,,,,,,2,,,,,,,,,,,,,,,,,,,,,,,,,,,726.320405,138,right,0.938345,phone       ,3,9,-3,0,3,726.338445,726.338445,728.83446,0,60,60,60,1,138,6,3,hat           ,phone       ,html/resources/sequences_IDs/A/08_hat.jpg,html/resources/sequences_IDs/B/09_phone.jpg,8,9,3,2,4,2,6,7,0,1,,,,,,,,,,,,,,,,,,,,
,,,,,1,2020-07-01_09h31.38.037,retriever_ti,2020.1.3,Win32,60,Chrome,1366,768,,,,,,,,,,,,,,,,,2,,,,,,,,,,,,,,,,,,,,,,,,,,,729.45043,139,right,0.90858,seaturtle     ,4,2,-1,0,1,729.46846,729.46846,731.964495,0,61,61,61,1,139,5,4,giraffe     ,seaturtle     ,html/resources/sequences_IDs/B/03_giraffe.jpg,html/resources/sequences_IDs/A/02_seaturtle.jpg,3,2,1,1,2,1,2,1,1,1,,,,,,,,,,,,,,,,,,,,
,,,,,1,2020-07-01_09h31.38.037,retriever_ti,2020.1.3,Win32,60,Chrome,1366,768,,,,,,,,,,,,,,,,,2,,,,,,,,,,,,,,,,,,,,,,,,,,,733.064835,140,left,0.89904,peacock       ,2,5,-4,0,3,733.100155,733.100155,735.593115,0,62,62,62,1,140,2,6,peacock       ,hat           ,html/resources/sequences_IDs/A/05_peacock.jpg,html/resources/sequences_IDs/A/08_hat.jpg,5,8,2,1,3,2,4,6,0,1,,,,,,,,,,,,,,,,,,,,
,,,,,1,2020-07-01_09h31.38.037,retriever_ti,2020.1.3,Win32,60,Chrome,1366,768,,,,,,,,,,,,,,,,,2,,,,,,,,,,,,,,,,,,,,,,,,,,,736.20996,141,left,0.729075,phone       ,3,9,1,1,0,736.22931,736.22931,738.724065,0,63,63,63,1,141,3,2,phone       ,peacock       ,html/resources/sequences_IDs/B/09_phone.jpg,html/resources/sequences_IDs/A/05_peacock.jpg,9,5,4,2,2,1,7,4,1,1,,,,,,,,,,,,,,,,,,,,
,,,,,1,2020-07-01_09h31.38.037,retriever_ti,2020.1.3,Win32,60,Chrome,1366,768,,,,,,,,,,,,,,,,,2,,,,,,,,,,,,,,,,,,,,,,,,,,,739.82396,142,right,0.845735,clownfish     ,8,4,1,1,1,739.858855,739.858855,742.353915,0,64,64,64,1,142,7,8,sport_tshirt,clownfish     ,html/resources/sequences_IDs/B/07_sport_tshirt.jpg,html/resources/sequences_IDs/A/04_clownfish.jpg,7,4,3,2,2,1,5,3,0,1,,,,,,,,,,,,,,,,,,,,
,,,,,1,2020-07-01_09h31.38.037,retriever_ti,2020.1.3,Win32,60,Chrome,1366,768,,,,,,,,,,,,,,,,,2,,,,,,,,,,,,,,,,,,,,,,,,,,,743.454095,143,right,0.85755,phone       ,3,9,1,1,1,743.48858,743.48858,745.982885,0,65,65,65,1,143,2,3,peacock       ,phone       ,html/resources/sequences_IDs/A/05_peacock.jpg,html/resources/sequences_IDs/B/09_phone.jpg,5,9,2,1,4,2,4,7,0,1,,,,,,,,,,,,,,,,,,,,
,,,,,1,2020-07-01_09h31.38.037,retriever_ti,2020.1.3,Win32,60,Chrome,1366,768,,,,,,,,,,,,,,,,,2,,,,,,,,,,,,,,,,,,,,,,,,,,,747.08265,144,left,0.636995,phone       ,3,9,2,1,3,747.133725,747.133725,749.629495,0,66,66,66,1,144,3,1,phone       ,radio       ,html/resources/sequences_IDs/B/09_phone.jpg,html/resources/sequences_IDs/B/10_radio.jpg,9,10,4,2,4,2,7,8,0,1,,,,,,,,,,,,,,,,,,,,
,,,,,1,2020-07-01_09h31.38.037,retriever_ti,2020.1.3,Win32,60,Chrome,1366,768,,,,,,,,,,,,,,,,,2,,,,,,,,,,,,,,,,,,,,,,,,,,,750.24822,145,left,0.568075,phone       ,3,9,-1,0,0,750.26536,750.26536,752.760565,0,67,67,67,1,145,3,4,phone       ,seaturtle     ,html/resources/sequences_IDs/B/09_phone.jpg,html/resources/sequences_IDs/A/02_seaturtle.jpg,9,2,4,2,2,1,7,1,0,1,,,,,,,,,,,,,,,,,,,,
,,,,,1,2020-07-01_09h31.38.037,retriever_ti,2020.1.3,Win32,60,Chrome,1366,768,,,,,,,,,,,,,,,,,2,,,,,,,,,,,,,,,,,,,,,,,,,,,753.860105,146,left,0.96666,radio       ,1,10,-5,0,3,753.89566,753.89566,756.389925,0,68,68,68,1,146,1,6,radio       ,hat           ,html/resources/sequences_IDs/B/10_radio.jpg,html/resources/sequences_IDs/A/08_hat.jpg,10,8,4,2,3,2,8,6,0,1,,,,,,,,,,,,,,,,,,,,
,,,,,1,2020-07-01_09h31.38.037,retriever_ti,2020.1.3,Win32,60,Chrome,1366,768,,,,,,,,,,,,,,,,,2,,,,,,,,,,,,,,,,,,,,,,,,,,,757.00843,147,right,0.71612,hat           ,6,8,-1,0,0,757.04424,757.04424,759.536765,0,69,69,69,1,147,7,6,sport_tshirt,hat           ,html/resources/sequences_IDs/B/07_sport_tshirt.jpg,html/resources/sequences_IDs/A/08_hat.jpg,7,8,3,2,3,2,5,6,0,1,,,,,,,,,,,,,,,,,,,,
,,,,,1,2020-07-01_09h31.38.037,retriever_ti,2020.1.3,Win32,60,Chrome,1366,768,,,,,,,,,,,,,,,,,2,,,,,,,,,,,,,,,,,,,,,,,,,,,760.63709,148,right,0.65989,seaturtle     ,4,2,2,1,3,760.672665,760.672665,763.165745,0,70,70,70,1,148,2,4,peacock       ,seaturtle     ,html/resources/sequences_IDs/A/05_peacock.jpg,html/resources/sequences_IDs/A/02_seaturtle.jpg,5,2,2,1,2,1,4,1,0,1,,,,,,,,,,,,,,,,,,,,
,,,,,1,2020-07-01_09h31.38.037,retriever_ti,2020.1.3,Win32,60,Chrome,1366,768,,,,,,,,,,,,,,,,,2,,,,,,,,,,,,,,,,,,,,,,,,,,,763.78296,149,left,0.784205,giraffe     ,5,3,-1,0,0,763.79997,763.79997,766.296435,0,71,71,71,1,149,5,6,giraffe     ,hat           ,html/resources/sequences_IDs/B/03_giraffe.jpg,html/resources/sequences_IDs/A/08_hat.jpg,3,8,1,1,3,2,2,6,0,1,,,,,,,,,,,,,,,,,,,,
,,,,,1,2020-07-01_09h31.38.037,retriever_ti,2020.1.3,Win32,60,Chrome,1366,768,,,,,,,,,,,,,,,,,2,,,,,,,,,,,,,,,,,,,,,,,,,,,767.39672,150,right,0.91984,radio       ,1,10,-7,0,3,767.41559,767.41559,769.91006,0,72,72,72,1,150,8,1,clownfish     ,radio       ,html/resources/sequences_IDs/A/04_clownfish.jpg,html/resources/sequences_IDs/B/10_radio.jpg,4,10,2,1,4,2,3,8,0,1,,,,,,,,,,,,,,,,,,,,
,,,,,1,2020-07-01_09h31.38.037,retriever_ti,2020.1.3,Win32,60,Chrome,1366,768,,,,,,,,,,,,,,,,,2,,,,,,,,,,,,,,,,,,,,,,,,,,,770.527055,151,right,0.85299,seaturtle     ,4,2,-4,0,3,770.54322,770.54322,773.039645,0,73,73,73,1,151,8,4,clownfish     ,seaturtle     ,html/resources/sequences_IDs/A/04_clownfish.jpg,html/resources/sequences_IDs/A/02_seaturtle.jpg,4,2,2,1,2,1,3,1,0,1,,,,,,,,,,,,,,,,,,,,
,,,,,1,2020-07-01_09h31.38.037,retriever_ti,2020.1.3,Win32,60,Chrome,1366,768,,,,,,,,,,,,,,,,,2,,,,,,,,,,,,,,,,,,,,,,,,,,,773.658205,152,left,0.73947,sport_tshirt,7,7,-1,0,0,773.67702,773.67702,776.320265,0,74,74,74,1,152,7,8,sport_tshirt,clownfish     ,html/resources/sequences_IDs/B/07_sport_tshirt.jpg,html/resources/sequences_IDs/A/04_clownfish.jpg,7,4,3,2,2,1,5,3,0,1,,,,,,,,,,,,,,,,,,,,
,,,,,1,2020-07-01_09h31.38.037,retriever_ti,2020.1.3,Win32,60,Chrome,1366,768,,,,,,,,,,,,,,,,,2,,,,,,,,,,,,,,,,,,,,,,,,,,,777.428125,153,left,0.41399,hat           ,6,8,1,1,0,777.439035,777.439035,779.933435,0,75,75,75,1,153,6,5,hat           ,giraffe     ,html/resources/sequences_IDs/A/08_hat.jpg,html/resources/sequences_IDs/B/03_giraffe.jpg,8,3,3,2,1,1,6,2,1,1,,,,,,,,,,,,,,,,,,,,
,,,,,1,2020-07-01_09h31.38.037,retriever_ti,2020.1.3,Win32,60,Chrome,1366,768,,,,,,,,,,,,,,,,,2,,,,,,,,,,,,,,,,,,,,,,,,,,,781.03364,154,left,0.0041,sport_tshirt,7,7,-1,0,1,781.07033,781.07033,783.56291,0,76,76,76,1,154,7,8,sport_tshirt,clownfish     ,html/resources/sequences_IDs/B/07_sport_tshirt.jpg,html/resources/sequences_IDs/A/04_clownfish.jpg,7,4,3,2,2,1,5,3,1,1,,,,,,,,,,,,,,,,,,,,
,,,,,1,2020-07-01_09h31.38.037,retriever_ti,2020.1.3,Win32,60,Chrome,1366,768,,,,,,,,,,,,,,,,,,,,,,,,,,,,,,,,,,,,,1,1.519155,,,,,,,,,,,,,,,,,,,,,,,,,,,,,,,,,,,,,,,,,1,0,1,0,1,,,,,,,,,,,,,,,
,,,,,1,2020-07-01_09h31.38.037,retriever_ti,2020.1.3,Win32,60,Chrome,1366,768,,,,,,,,,,,,,,,,,3,,,,,,,,,,,,,,,,,,,,,,,,,,,793.18799,155,left,0.579795,sport_tshirt,7,7,3,1,3,793.20386,793.20386,795.701205,0,0,0,0,1,155,7,4,sport_tshirt,seaturtle     ,html/resources/sequences_IDs/B/07_sport_tshirt.jpg,html/resources/sequences_IDs/A/02_seaturtle.jpg,7,2,3,2,2,1,5,1,0,1,,,,,,,,,,,,,,,,,,,,
,,,,,1,2020-07-01_09h31.38.037,retriever_ti,2020.1.3,Win32,60,Chrome,1366,768,,,,,,,,,,,,,,,,,3,,,,,,,,,,,,,,,,,,,,,,,,,,,796.3187,156,left,0.588875,radio       ,1,10,-7,0,3,796.337285,796.337285,798.8316,0,1,1,1,1,156,1,8,radio       ,clownfish     ,html/resources/sequences_IDs/B/10_radio.jpg,html/resources/sequences_IDs/A/04_clownfish.jpg,10,4,4,2,2,1,8,3,0,1,,,,,,,,,,,,,,,,,,,,
,,,,,1,2020-07-01_09h31.38.037,retriever_ti,2020.1.3,Win32,60,Chrome,1366,768,,,,,,,,,,,,,,,,,3,,,,,,,,,,,,,,,,,,,,,,,,,,,799.449635,157,left,0.9265,phone       ,3,9,-3,0,3,799.46724,799.46724,801.961385,0,2,2,2,1,157,3,6,phone       ,hat           ,html/resources/sequences_IDs/B/09_phone.jpg,html/resources/sequences_IDs/A/08_hat.jpg,9,8,4,2,3,2,7,6,0,1,,,,,,,,,,,,,,,,,,,,
,,,,,1,2020-07-01_09h31.38.037,retriever_ti,2020.1.3,Win32,60,Chrome,1366,768,,,,,,,,,,,,,,,,,3,,,,,,,,,,,,,,,,,,,,,,,,,,,802.57954,158,left,1.162415,giraffe     ,5,3,-1,0,0,802.598145,802.598145,805.09239,0,3,3,3,1,158,5,6,giraffe     ,hat           ,html/resources/sequences_IDs/B/03_giraffe.jpg,html/resources/sequences_IDs/A/08_hat.jpg,3,8,1,1,3,2,2,6,0,1,,,,,,,,,,,,,,,,,,,,
,,,,,1,2020-07-01_09h31.38.037,retriever_ti,2020.1.3,Win32,60,Chrome,1366,768,,,,,,,,,,,,,,,,,3,,,,,,,,,,,,,,,,,,,,,,,,,,,806.1936,159,left,0.91816,phone       ,3,9,-1,0,0,806.210935,806.210935,808.70577,0,4,4,4,1,159,3,4,phone       ,seaturtle     ,html/resources/sequences_IDs/B/09_phone.jpg,html/resources/sequences_IDs/A/02_seaturtle.jpg,9,2,4,2,2,1,7,1,0,1,,,,,,,,,,,,,,,,,,,,
,,,,,1,2020-07-01_09h31.38.037,retriever_ti,2020.1.3,Win32,60,Chrome,1366,768,,,,,,,,,,,,,,,,,3,,,,,,,,,,,,,,,,,,,,,,,,,,,809.803615,160,right,0.671895,phone       ,3,9,-4,0,3,809.82135,809.82135,812.317985,0,5,5,5,1,160,7,3,sport_tshirt,phone       ,html/resources/sequences_IDs/B/07_sport_tshirt.jpg,html/resources/sequences_IDs/B/09_phone.jpg,7,9,3,2,4,2,5,7,0,1,,,,,,,,,,,,,,,,,,,,
,,,,,1,2020-07-01_09h31.38.037,retriever_ti,2020.1.3,Win32,60,Chrome,1366,768,,,,,,,,,,,,,,,,,3,,,,,,,,,,,,,,,,,,,,,,,,,,,812.937885,161,right,0.40347,seaturtle     ,4,2,-1,0,0,812.971525,812.971525,815.46537,0,6,6,6,1,161,5,4,giraffe     ,seaturtle     ,html/resources/sequences_IDs/B/03_giraffe.jpg,html/resources/sequences_IDs/A/02_seaturtle.jpg,3,2,1,1,2,1,2,1,0,1,,,,,,,,,,,,,,,,,,,,
,,,,,1,2020-07-01_09h31.38.037,retriever_ti,2020.1.3,Win32,60,Chrome,1366,768,,,,,,,,,,,,,,,,,3,,,,,,,,,,,,,,,,,,,,,,,,,,,816.564975,162,left,0.975375,hat           ,6,8,4,1,3,816.58261,816.58261,819.068715,0,7,7,7,1,162,6,2,hat           ,peacock       ,html/resources/sequences_IDs/A/08_hat.jpg,html/resources/sequences_IDs/A/05_peacock.jpg,8,5,3,2,2,1,6,4,0,1,,,,,,,,,,,,,,,,,,,,
,,,,,1,2020-07-01_09h31.38.037,retriever_ti,2020.1.3,Win32,60,Chrome,1366,768,,,,,,,,,,,,,,,,,3,,,,,,,,,,,,,,,,,,,,,,,,,,,819.681755,163,left,0.983185,clownfish     ,8,4,1,1,1,819.708655,819.708655,822.192255,0,8,8,8,1,163,8,7,clownfish     ,sport_tshirt,html/resources/sequences_IDs/A/04_clownfish.jpg,html/resources/sequences_IDs/B/07_sport_tshirt.jpg,4,7,2,1,3,2,3,5,0,1,,,,,,,,,,,,,,,,,,,,
,,,,,1,2020-07-01_09h31.38.037,retriever_ti,2020.1.3,Win32,60,Chrome,1366,768,,,,,,,,,,,,,,,,,3,,,,,,,,,,,,,,,,,,,,,,,,,,,823.29202,164,left,1.00823,phone       ,3,9,1,1,1,823.326955,823.326955,825.82249,0,9,9,9,1,164,3,2,phone       ,peacock       ,html/resources/sequences_IDs/B/09_phone.jpg,html/resources/sequences_IDs/A/05_peacock.jpg,9,5,4,2,2,1,7,4,0,1,,,,,,,,,,,,,,,,,,,,
,,,,,1,2020-07-01_09h31.38.037,retriever_ti,2020.1.3,Win32,60,Chrome,1366,768,,,,,,,,,,,,,,,,,3,,,,,,,,,,,,,,,,,,,,,,,,,,,826.922885,165,left,0.69752,seaturtle     ,4,2,-4,0,3,826.957,826.957,829.451875,0,10,10,10,1,165,4,8,seaturtle     ,clownfish     ,html/resources/sequences_IDs/A/02_seaturtle.jpg,html/resources/sequences_IDs/A/04_clownfish.jpg,2,4,2,1,2,1,1,3,0,1,,,,,,,,,,,,,,,,,,,,
,,,,,1,2020-07-01_09h31.38.037,retriever_ti,2020.1.3,Win32,60,Chrome,1366,768,,,,,,,,,,,,,,,,,3,,,,,,,,,,,,,,,,,,,,,,,,,,,830.06961,166,right,0.75593,phone       ,3,9,-1,0,1,830.087815,830.087815,832.58272,0,11,11,11,1,166,4,3,seaturtle     ,phone       ,html/resources/sequences_IDs/A/02_seaturtle.jpg,html/resources/sequences_IDs/B/09_phone.jpg,2,9,2,1,4,2,1,7,1,1,,,,,,,,,,,,,,,,,,,,
,,,,,1,2020-07-01_09h31.38.037,retriever_ti,2020.1.3,Win32,60,Chrome,1366,768,,,,,,,,,,,,,,,,,3,,,,,,,,,,,,,,,,,,,,,,,,,,,833.683905,167,right,1.056065,radio       ,1,10,-3,0,3,833.70055,833.70055,836.1942,0,12,12,12,1,167,4,1,seaturtle     ,radio       ,html/resources/sequences_IDs/A/02_seaturtle.jpg,html/resources/sequences_IDs/B/10_radio.jpg,2,10,2,1,4,2,1,8,0,1,,,,,,,,,,,,,,,,,,,,
,,,,,1,2020-07-01_09h31.38.037,retriever_ti,2020.1.3,Win32,60,Chrome,1366,768,,,,,,,,,,,,,,,,,3,,,,,,,,,,,,,,,,,,,,,,,,,,,836.81201,168,right,0.717585,giraffe     ,5,3,-3,0,3,836.83031,836.83031,839.32527,0,13,13,13,1,168,8,5,clownfish     ,giraffe     ,html/resources/sequences_IDs/A/04_clownfish.jpg,html/resources/sequences_IDs/B/03_giraffe.jpg,4,3,2,1,1,1,3,2,0,1,,,,,,,,,,,,,,,,,,,,
,,,,,1,2020-07-01_09h31.38.037,retriever_ti,2020.1.3,Win32,60,Chrome,1366,768,,,,,,,,,,,,,,,,,3,,,,,,,,,,,,,,,,,,,,,,,,,,,839.943595,169,right,1.15597,phone       ,3,9,-5,0,3,839.97709,839.97709,842.472655,0,14,14,14,1,169,8,3,clownfish     ,phone       ,html/resources/sequences_IDs/A/04_clownfish.jpg,html/resources/sequences_IDs/B/09_phone.jpg,4,9,2,1,4,2,3,7,0,1,,,,,,,,,,,,,,,,,,,,
,,,,,1,2020-07-01_09h31.38.037,retriever_ti,2020.1.3,Win32,60,Chrome,1366,768,,,,,,,,,,,,,,,,,3,,,,,,,,,,,,,,,,,,,,,,,,,,,843.090125,170,left,0.952325,giraffe     ,5,3,-2,0,3,843.109435,843.109435,845.60135,0,15,15,15,1,170,5,7,giraffe     ,sport_tshirt,html/resources/sequences_IDs/B/03_giraffe.jpg,html/resources/sequences_IDs/B/07_sport_tshirt.jpg,3,7,1,1,3,2,2,5,0,1,,,,,,,,,,,,,,,,,,,,
,,,,,1,2020-07-01_09h31.38.037,retriever_ti,2020.1.3,Win32,60,Chrome,1366,768,,,,,,,,,,,,,,,,,3,,,,,,,,,,,,,,,,,,,,,,,,,,,846.220795,171,right,0.612315,giraffe     ,5,3,4,1,3,846.25539,846.25539,848.749065,0,16,16,16,1,171,1,5,radio       ,giraffe     ,html/resources/sequences_IDs/B/10_radio.jpg,html/resources/sequences_IDs/B/03_giraffe.jpg,10,3,4,2,1,1,8,2,0,1,,,,,,,,,,,,,,,,,,,,
,,,,,1,2020-07-01_09h31.38.037,retriever_ti,2020.1.3,Win32,60,Chrome,1366,768,,,,,,,,,,,,,,,,,3,,,,,,,,,,,,,,,,,,,,,,,,,,,849.372055,172,left,0.58943,seaturtle     ,4,2,2,1,3,849.403465,849.403465,851.89605,0,17,17,17,1,172,4,2,seaturtle     ,peacock       ,html/resources/sequences_IDs/A/02_seaturtle.jpg,html/resources/sequences_IDs/A/05_peacock.jpg,2,5,2,1,2,1,1,4,0,1,,,,,,,,,,,,,,,,,,,,
,,,,,1,2020-07-01_09h31.38.037,retriever_ti,2020.1.3,Win32,60,Chrome,1366,768,,,,,,,,,,,,,,,,,3,,,,,,,,,,,,,,,,,,,,,,,,,,,852.515225,173,right,0.985035,clownfish     ,8,4,5,1,3,852.531955,852.531955,855.026855,0,18,18,18,1,173,3,8,phone       ,clownfish     ,html/resources/sequences_IDs/B/09_phone.jpg,html/resources/sequences_IDs/A/04_clownfish.jpg,9,4,4,2,2,1,7,3,0,1,,,,,,,,,,,,,,,,,,,,
,,,,,1,2020-07-01_09h31.38.037,retriever_ti,2020.1.3,Win32,60,Chrome,1366,768,,,,,,,,,,,,,,,,,3,,,,,,,,,,,,,,,,,,,,,,,,,,,855.647995,174,left,1.08109,sport_tshirt,7,7,1,1,0,855.66009,855.66009,858.15635,0,19,19,19,1,174,7,6,sport_tshirt,hat           ,html/resources/sequences_IDs/B/07_sport_tshirt.jpg,html/resources/sequences_IDs/A/08_hat.jpg,7,8,3,2,3,2,5,6,1,1,,,,,,,,,,,,,,,,,,,,
,,,,,1,2020-07-01_09h31.38.037,retriever_ti,2020.1.3,Win32,60,Chrome,1366,768,,,,,,,,,,,,,,,,,3,,,,,,,,,,,,,,,,,,,,,,,,,,,859.258085,175,left,0.77892,giraffe     ,5,3,4,1,3,859.29191,859.29191,861.78674,0,20,20,20,1,175,5,1,giraffe     ,radio       ,html/resources/sequences_IDs/B/03_giraffe.jpg,html/resources/sequences_IDs/B/10_radio.jpg,3,10,1,1,4,2,2,8,0,1,,,,,,,,,,,,,,,,,,,,
,,,,,1,2020-07-01_09h31.38.037,retriever_ti,2020.1.3,Win32,60,Chrome,1366,768,,,,,,,,,,,,,,,,,3,,,,,,,,,,,,,,,,,,,,,,,,,,,862.408975,176,left,0.65531,clownfish     ,8,4,1,1,1,862.42255,862.42255,864.916825,0,21,21,21,1,176,8,7,clownfish     ,sport_tshirt,html/resources/sequences_IDs/A/04_clownfish.jpg,html/resources/sequences_IDs/B/07_sport_tshirt.jpg,4,7,2,1,3,2,3,5,0,1,,,,,,,,,,,,,,,,,,,,
,,,,,1,2020-07-01_09h31.38.037,retriever_ti,2020.1.3,Win32,60,Chrome,1366,768,,,,,,,,,,,,,,,,,3,,,,,,,,,,,,,,,,,,,,,,,,,,,866.018035,177,right,0.846335,giraffe     ,5,3,-2,0,3,866.052645,866.052645,868.546735,0,22,22,22,1,177,7,5,sport_tshirt,giraffe     ,html/resources/sequences_IDs/B/07_sport_tshirt.jpg,html/resources/sequences_IDs/B/03_giraffe.jpg,7,3,3,2,1,1,5,2,0,1,,,,,,,,,,,,,,,,,,,,
,,,,,1,2020-07-01_09h31.38.037,retriever_ti,2020.1.3,Win32,60,Chrome,1366,768,,,,,,,,,,,,,,,,,3,,,,,,,,,,,,,,,,,,,,,,,,,,,869.169695,178,left,0.643605,phone       ,3,9,1,1,1,869.19926,869.19926,871.693595,0,23,23,23,1,178,3,2,phone       ,peacock       ,html/resources/sequences_IDs/B/09_phone.jpg,html/resources/sequences_IDs/A/05_peacock.jpg,9,5,4,2,2,1,7,4,0,1,,,,,,,,,,,,,,,,,,,,
,,,,,1,2020-07-01_09h31.38.037,retriever_ti,2020.1.3,Win32,60,Chrome,1366,768,,,,,,,,,,,,,,,,,3,,,,,,,,,,,,,,,,,,,,,,,,,,,872.794845,179,right,0.78157,giraffe     ,5,3,1,1,1,872.811885,872.811885,875.30594,0,24,24,24,1,179,4,5,seaturtle     ,giraffe     ,html/resources/sequences_IDs/A/02_seaturtle.jpg,html/resources/sequences_IDs/B/03_giraffe.jpg,2,3,2,1,1,1,1,2,0,1,,,,,,,,,,,,,,,,,,,,
,,,,,1,2020-07-01_09h31.38.037,retriever_ti,2020.1.3,Win32,60,Chrome,1366,768,,,,,,,,,,,,,,,,,3,,,,,,,,,,,,,,,,,,,,,,,,,,,876.406505,180,right,1.332595,giraffe     ,5,3,-1,0,0,876.42526,876.42526,878.919925,0,25,25,25,1,180,6,5,hat           ,giraffe     ,html/resources/sequences_IDs/A/08_hat.jpg,html/resources/sequences_IDs/B/03_giraffe.jpg,8,3,3,2,1,1,6,2,0,1,,,,,,,,,,,,,,,,,,,,
,,,,,1,2020-07-01_09h31.38.037,retriever_ti,2020.1.3,Win32,60,Chrome,1366,768,,,,,,,,,,,,,,,,,3,,,,,,,,,,,,,,,,,,,,,,,,,,,880.01949,181,left,0.68686,peacock       ,2,5,-1,0,0,880.03702,880.03702,882.53215,0,26,26,26,1,181,2,3,peacock       ,phone       ,html/resources/sequences_IDs/A/05_peacock.jpg,html/resources/sequences_IDs/B/09_phone.jpg,5,9,2,1,4,2,4,7,0,1,,,,,,,,,,,,,,,,,,,,
,,,,,1,2020-07-01_09h31.38.037,retriever_ti,2020.1.3,Win32,60,Chrome,1366,768,,,,,,,,,,,,,,,,,3,,,,,,,,,,,,,,,,,,,,,,,,,,,883.63147,182,left,0.92822,radio       ,1,10,-3,0,3,883.648885,883.648885,886.14588,0,27,27,27,1,182,1,4,radio       ,seaturtle     ,html/resources/sequences_IDs/B/10_radio.jpg,html/resources/sequences_IDs/A/02_seaturtle.jpg,10,2,4,2,2,1,8,1,0,1,,,,,,,,,,,,,,,,,,,,
,,,,,1,2020-07-01_09h31.38.037,retriever_ti,2020.1.3,Win32,60,Chrome,1366,768,,,,,,,,,,,,,,,,,3,,,,,,,,,,,,,,,,,,,,,,,,,,,886.76355,183,right,1.030195,giraffe     ,5,3,1,1,1,886.796375,886.796375,889.29313,0,28,28,28,1,183,4,5,seaturtle     ,giraffe     ,html/resources/sequences_IDs/A/02_seaturtle.jpg,html/resources/sequences_IDs/B/03_giraffe.jpg,2,3,2,1,1,1,1,2,0,1,,,,,,,,,,,,,,,,,,,,
,,,,,1,2020-07-01_09h31.38.037,retriever_ti,2020.1.3,Win32,60,Chrome,1366,768,,,,,,,,,,,,,,,,,3,,,,,,,,,,,,,,,,,,,,,,,,,,,890.39357,184,right,0.651775,giraffe     ,5,3,2,1,3,890.411345,890.411345,892.905015,0,29,29,29,1,184,3,5,phone       ,giraffe     ,html/resources/sequences_IDs/B/09_phone.jpg,html/resources/sequences_IDs/B/03_giraffe.jpg,9,3,4,2,1,1,7,2,0,1,,,,,,,,,,,,,,,,,,,,
,,,,,1,2020-07-01_09h31.38.037,retriever_ti,2020.1.3,Win32,60,Chrome,1366,768,,,,,,,,,,,,,,,,,3,,,,,,,,,,,,,,,,,,,,,,,,,,,893.52399,185,left,0.68804,hat           ,6,8,-2,0,3,893.557945,893.557945,896.052605,0,30,30,30,1,185,6,8,hat           ,clownfish     ,html/resources/sequences_IDs/A/08_hat.jpg,html/resources/sequences_IDs/A/04_clownfish.jpg,8,4,3,2,2,1,6,3,0,1,,,,,,,,,,,,,,,,,,,,
,,,,,1,2020-07-01_09h31.38.037,retriever_ti,2020.1.3,Win32,60,Chrome,1366,768,,,,,,,,,,,,,,,,,3,,,,,,,,,,,,,,,,,,,,,,,,,,,896.67025,186,left,1.15791,peacock       ,2,5,1,1,1,896.717675,896.717675,899.1991,0,31,31,31,1,186,2,1,peacock       ,radio       ,html/resources/sequences_IDs/A/05_peacock.jpg,html/resources/sequences_IDs/B/10_radio.jpg,5,10,2,1,4,2,4,8,0,1,,,,,,,,,,,,,,,,,,,,
,,,,,1,2020-07-01_09h31.38.037,retriever_ti,2020.1.3,Win32,60,Chrome,1366,768,,,,,,,,,,,,,,,,,3,,,,,,,,,,,,,,,,,,,,,,,,,,,900.305195,187,right,0.908565,peacock       ,2,5,-6,0,3,900.322335,900.322335,902.81357,0,32,32,32,1,187,8,2,clownfish     ,peacock       ,html/resources/sequences_IDs/A/04_clownfish.jpg,html/resources/sequences_IDs/A/05_peacock.jpg,4,5,2,1,2,1,3,4,0,1,,,,,,,,,,,,,,,,,,,,
,,,,,1,2020-07-01_09h31.38.037,retriever_ti,2020.1.3,Win32,60,Chrome,1366,768,,,,,,,,,,,,,,,,,3,,,,,,,,,,,,,,,,,,,,,,,,,,,903.431155,188,left,0.783095,sport_tshirt,7,7,-1,0,0,903.46821,903.46821,905.959495,0,33,33,33,1,188,7,8,sport_tshirt,clownfish     ,html/resources/sequences_IDs/B/07_sport_tshirt.jpg,html/resources/sequences_IDs/A/04_clownfish.jpg,7,4,3,2,2,1,5,3,0,1,,,,,,,,,,,,,,,,,,,,
,,,,,1,2020-07-01_09h31.38.037,retriever_ti,2020.1.3,Win32,60,Chrome,1366,768,,,,,,,,,,,,,,,,,3,,,,,,,,,,,,,,,,,,,,,,,,,,,907.06174,189,left,0.97449,hat           ,6,8,3,1,3,907.08,907.08,909.5732,0,34,34,34,1,189,6,3,hat           ,phone       ,html/resources/sequences_IDs/A/08_hat.jpg,html/resources/sequences_IDs/B/09_phone.jpg,8,9,3,2,4,2,6,7,0,1,,,,,,,,,,,,,,,,,,,,
,,,,,1,2020-07-01_09h31.38.037,retriever_ti,2020.1.3,Win32,60,Chrome,1366,768,,,,,,,,,,,,,,,,,3,,,,,,,,,,,,,,,,,,,,,,,,,,,910.190525,190,right,1.23978,hat           ,6,8,-1,0,0,910.225405,910.225405,912.719755,0,35,35,35,1,190,7,6,sport_tshirt,hat           ,html/resources/sequences_IDs/B/07_sport_tshirt.jpg,html/resources/sequences_IDs/A/08_hat.jpg,7,8,3,2,3,2,5,6,0,1,,,,,,,,,,,,,,,,,,,,
,,,,,1,2020-07-01_09h31.38.037,retriever_ti,2020.1.3,Win32,60,Chrome,1366,768,,,,,,,,,,,,,,,,,3,,,,,,,,,,,,,,,,,,,,,,,,,,,913.821245,191,right,0.873045,phone       ,3,9,-1,0,0,913.855275,913.855275,916.349575,0,36,36,36,1,191,4,3,seaturtle     ,phone       ,html/resources/sequences_IDs/A/02_seaturtle.jpg,html/resources/sequences_IDs/B/09_phone.jpg,2,9,2,1,4,2,1,7,0,1,,,,,,,,,,,,,,,,,,,,
,,,,,1,2020-07-01_09h31.38.037,retriever_ti,2020.1.3,Win32,60,Chrome,1366,768,,,,,,,,,,,,,,,,,3,,,,,,,,,,,,,,,,,,,,,,,,,,,917.448115,192,left,1.05195,giraffe     ,5,3,2,1,3,917.482585,917.482585,919.979815,0,37,37,37,1,192,5,3,giraffe     ,phone       ,html/resources/sequences_IDs/B/03_giraffe.jpg,html/resources/sequences_IDs/B/09_phone.jpg,3,9,1,1,4,2,2,7,0,1,,,,,,,,,,,,,,,,,,,,
,,,,,1,2020-07-01_09h31.38.037,retriever_ti,2020.1.3,Win32,60,Chrome,1366,768,,,,,,,,,,,,,,,,,3,,,,,,,,,,,,,,,,,,,,,,,,,,,920.597765,193,right,1.109395,sport_tshirt,7,7,6,1,3,920.615585,920.615585,923.109835,0,38,38,38,1,193,1,7,radio       ,sport_tshirt,html/resources/sequences_IDs/B/10_radio.jpg,html/resources/sequences_IDs/B/07_sport_tshirt.jpg,10,7,4,2,3,2,8,5,0,1,,,,,,,,,,,,,,,,,,,,
,,,,,1,2020-07-01_09h31.38.037,retriever_ti,2020.1.3,Win32,60,Chrome,1366,768,,,,,,,,,,,,,,,,,3,,,,,,,,,,,,,,,,,,,,,,,,,,,923.727435,194,right,1.144085,radio       ,1,10,-1,0,1,923.763485,923.763485,926.25731,0,39,39,39,1,194,2,1,peacock       ,radio       ,html/resources/sequences_IDs/A/05_peacock.jpg,html/resources/sequences_IDs/B/10_radio.jpg,5,10,2,1,4,2,4,8,1,1,,,,,,,,,,,,,,,,,,,,
,,,,,1,2020-07-01_09h31.38.037,retriever_ti,2020.1.3,Win32,60,Chrome,1366,768,,,,,,,,,,,,,,,,,3,,,,,,,,,,,,,,,,,,,,,,,,,,,927.36116,195,right,1.048225,phone       ,3,9,1,1,1,927.375805,927.375805,929.870225,0,40,40,40,1,195,2,3,peacock       ,phone       ,html/resources/sequences_IDs/A/05_peacock.jpg,html/resources/sequences_IDs/B/09_phone.jpg,5,9,2,1,4,2,4,7,0,1,,,,,,,,,,,,,,,,,,,,
,,,,,1,2020-07-01_09h31.38.037,retriever_ti,2020.1.3,Win32,60,Chrome,1366,768,,,,,,,,,,,,,,,,,3,,,,,,,,,,,,,,,,,,,,,,,,,,,930.969715,196,left,1.393465,clownfish     ,8,4,2,1,3,931.00618,931.00618,933.50012,0,41,41,41,1,196,8,6,clownfish     ,hat           ,html/resources/sequences_IDs/A/04_clownfish.jpg,html/resources/sequences_IDs/A/08_hat.jpg,4,8,2,1,3,2,3,6,0,1,,,,,,,,,,,,,,,,,,,,
,,,,,1,2020-07-01_09h31.38.037,retriever_ti,2020.1.3,Win32,60,Chrome,1366,768,,,,,,,,,,,,,,,,,3,,,,,,,,,,,,,,,,,,,,,,,,,,,934.118825,197,right,1.483905,hat           ,6,8,5,1,3,934.151695,934.151695,936.646475,0,42,42,42,1,197,1,6,radio       ,hat           ,html/resources/sequences_IDs/B/10_radio.jpg,html/resources/sequences_IDs/A/08_hat.jpg,10,8,4,2,3,2,8,6,0,1,,,,,,,,,,,,,,,,,,,,
,,,,,1,2020-07-01_09h31.38.037,retriever_ti,2020.1.3,Win32,60,Chrome,1366,768,,,,,,,,,,,,,,,,,3,,,,,,,,,,,,,,,,,,,,,,,,,,,937.269175,198,left,0.88154,sport_tshirt,7,7,6,1,3,937.28291,937.28291,939.776755,0,43,43,43,1,198,7,1,sport_tshirt,radio       ,html/resources/sequences_IDs/B/07_sport_tshirt.jpg,html/resources/sequences_IDs/B/10_radio.jpg,7,10,3,2,4,2,5,8,0,1,,,,,,,,,,,,,,,,,,,,
,,,,,1,2020-07-01_09h31.38.037,retriever_ti,2020.1.3,Win32,60,Chrome,1366,768,,,,,,,,,,,,,,,,,3,,,,,,,,,,,,,,,,,,,,,,,,,,,940.39583,199,right,0.90037,giraffe     ,5,3,1,1,0,940.429325,940.429325,942.92344,0,44,44,44,1,199,4,5,seaturtle     ,giraffe     ,html/resources/sequences_IDs/A/02_seaturtle.jpg,html/resources/sequences_IDs/B/03_giraffe.jpg,2,3,2,1,1,1,1,2,1,1,,,,,,,,,,,,,,,,,,,,
,,,,,1,2020-07-01_09h31.38.037,retriever_ti,2020.1.3,Win32,60,Chrome,1366,768,,,,,,,,,,,,,,,,,3,,,,,,,,,,,,,,,,,,,,,,,,,,,944.02313,200,right,0.841865,hat           ,6,8,1,1,0,944.05842,944.05842,946.552875,0,45,45,45,1,200,5,6,giraffe     ,hat           ,html/resources/sequences_IDs/B/03_giraffe.jpg,html/resources/sequences_IDs/A/08_hat.jpg,3,8,1,1,3,2,2,6,1,1,,,,,,,,,,,,,,,,,,,,
,,,,,1,2020-07-01_09h31.38.037,retriever_ti,2020.1.3,Win32,60,Chrome,1366,768,,,,,,,,,,,,,,,,,3,,,,,,,,,,,,,,,,,,,,,,,,,,,947.654975,201,right,0.967785,sport_tshirt,7,7,3,1,3,947.67168,947.67168,950.16663,0,46,46,46,1,201,4,7,seaturtle     ,sport_tshirt,html/resources/sequences_IDs/A/02_seaturtle.jpg,html/resources/sequences_IDs/B/07_sport_tshirt.jpg,2,7,2,1,3,2,1,5,0,1,,,,,,,,,,,,,,,,,,,,
,,,,,1,2020-07-01_09h31.38.037,retriever_ti,2020.1.3,Win32,60,Chrome,1366,768,,,,,,,,,,,,,,,,,3,,,,,,,,,,,,,,,,,,,,,,,,,,,950.78333,202,left,0.56679,phone       ,3,9,-1,0,0,950.816675,950.816675,953.31397,0,47,47,47,1,202,3,4,phone       ,seaturtle     ,html/resources/sequences_IDs/B/09_phone.jpg,html/resources/sequences_IDs/A/02_seaturtle.jpg,9,2,4,2,2,1,7,1,0,1,,,,,,,,,,,,,,,,,,,,
,,,,,1,2020-07-01_09h31.38.037,retriever_ti,2020.1.3,Win32,60,Chrome,1366,768,,,,,,,,,,,,,,,,,3,,,,,,,,,,,,,,,,,,,,,,,,,,,954.413865,203,right,0.9601,hat           ,6,8,2,1,3,954.42999,954.42999,956.92654,0,48,48,48,1,203,4,6,seaturtle     ,hat           ,html/resources/sequences_IDs/A/02_seaturtle.jpg,html/resources/sequences_IDs/A/08_hat.jpg,2,8,2,1,3,2,1,6,0,1,,,,,,,,,,,,,,,,,,,,
,,,,,1,2020-07-01_09h31.38.037,retriever_ti,2020.1.3,Win32,60,Chrome,1366,768,,,,,,,,,,,,,,,,,3,,,,,,,,,,,,,,,,,,,,,,,,,,,957.544295,204,left,1.0711,clownfish     ,8,4,4,1,3,957.57953,957.57953,960.073085,0,49,49,49,1,204,8,4,clownfish     ,seaturtle     ,html/resources/sequences_IDs/A/04_clownfish.jpg,html/resources/sequences_IDs/A/02_seaturtle.jpg,4,2,2,1,2,1,3,1,0,1,,,,,,,,,,,,,,,,,,,,
,,,,,1,2020-07-01_09h31.38.037,retriever_ti,2020.1.3,Win32,60,Chrome,1366,768,,,,,,,,,,,,,,,,,3,,,,,,,,,,,,,,,,,,,,,,,,,,,960.69232,205,left,0.9974,giraffe     ,5,3,1,1,1,960.70883,960.70883,963.202735,0,50,50,50,1,205,5,4,giraffe     ,seaturtle     ,html/resources/sequences_IDs/B/03_giraffe.jpg,html/resources/sequences_IDs/A/02_seaturtle.jpg,3,2,1,1,2,1,2,1,0,1,,,,,,,,,,,,,,,,,,,,
,,,,,1,2020-07-01_09h31.38.037,retriever_ti,2020.1.3,Win32,60,Chrome,1366,768,,,,,,,,,,,,,,,,,3,,,,,,,,,,,,,,,,,,,,,,,,,,,964.303485,206,right,1.067795,hat           ,6,8,4,1,3,964.322045,964.322045,966.816195,0,51,51,51,1,206,2,6,peacock       ,hat           ,html/resources/sequences_IDs/A/05_peacock.jpg,html/resources/sequences_IDs/A/08_hat.jpg,5,8,2,1,3,2,4,6,0,1,,,,,,,,,,,,,,,,,,,,
,,,,,1,2020-07-01_09h31.38.037,retriever_ti,2020.1.3,Win32,60,Chrome,1366,768,,,,,,,,,,,,,,,,,3,,,,,,,,,,,,,,,,,,,,,,,,,,,967.41889,207,right,1.00908,sport_tshirt,7,7,5,1,3,967.45335,967.45335,969.946455,0,52,52,52,1,207,2,7,peacock       ,sport_tshirt,html/resources/sequences_IDs/A/05_peacock.jpg,html/resources/sequences_IDs/B/07_sport_tshirt.jpg,5,7,2,1,3,2,4,5,0,1,,,,,,,,,,,,,,,,,,,,
,,,,,1,2020-07-01_09h31.38.037,retriever_ti,2020.1.3,Win32,60,Chrome,1366,768,,,,,,,,,,,,,,,,,3,,,,,,,,,,,,,,,,,,,,,,,,,,,970.56282,208,left,0.81832,hat           ,6,8,-1,0,0,970.5969,970.5969,973.095055,0,53,53,53,1,208,6,7,hat           ,sport_tshirt,html/resources/sequences_IDs/A/08_hat.jpg,html/resources/sequences_IDs/B/07_sport_tshirt.jpg,8,7,3,2,3,2,6,5,0,1,,,,,,,,,,,,,,,,,,,,
,,,,,1,2020-07-01_09h31.38.037,retriever_ti,2020.1.3,Win32,60,Chrome,1366,768,,,,,,,,,,,,,,,,,3,,,,,,,,,,,,,,,,,,,,,,,,,,,974.195475,209,left,0.47601,hat           ,6,8,2,1,3,974.24005,974.24005,976.723845,0,54,54,54,1,209,6,4,hat           ,seaturtle     ,html/resources/sequences_IDs/A/08_hat.jpg,html/resources/sequences_IDs/A/02_seaturtle.jpg,8,2,3,2,2,1,6,1,0,1,,,,,,,,,,,,,,,,,,,,
,,,,,1,2020-07-01_09h31.38.037,retriever_ti,2020.1.3,Win32,60,Chrome,1366,768,,,,,,,,,,,,,,,,,3,,,,,,,,,,,,,,,,,,,,,,,,,,,977.34449,210,right,0.738645,phone       ,3,9,-1,0,0,977.35867,977.35867,979.853915,0,55,55,55,1,210,4,3,seaturtle     ,phone       ,html/resources/sequences_IDs/A/02_seaturtle.jpg,html/resources/sequences_IDs/B/09_phone.jpg,2,9,2,1,4,2,1,7,0,1,,,,,,,,,,,,,,,,,,,,
,,,,,1,2020-07-01_09h31.38.037,retriever_ti,2020.1.3,Win32,60,Chrome,1366,768,,,,,,,,,,,,,,,,,3,,,,,,,,,,,,,,,,,,,,,,,,,,,980.95521,211,right,0.967235,radio       ,1,10,-2,0,3,981.00261,981.00261,983.48398,0,56,56,56,1,211,3,1,phone       ,radio       ,html/resources/sequences_IDs/B/09_phone.jpg,html/resources/sequences_IDs/B/10_radio.jpg,9,10,4,2,4,2,7,8,0,1,,,,,,,,,,,,,,,,,,,,
,,,,,1,2020-07-01_09h31.38.037,retriever_ti,2020.1.3,Win32,60,Chrome,1366,768,,,,,,,,,,,,,,,,,3,,,,,,,,,,,,,,,,,,,,,,,,,,,984.10624,212,left,1.460085,sport_tshirt,7,7,5,1,3,984.120145,984.120145,986.614535,0,57,57,57,1,212,7,2,sport_tshirt,peacock       ,html/resources/sequences_IDs/B/07_sport_tshirt.jpg,html/resources/sequences_IDs/A/05_peacock.jpg,7,5,3,2,2,1,5,4,0,1,,,,,,,,,,,,,,,,,,,,
,,,,,1,2020-07-01_09h31.38.037,retriever_ti,2020.1.3,Win32,60,Chrome,1366,768,,,,,,,,,,,,,,,,,3,,,,,,,,,,,,,,,,,,,,,,,,,,,987.23166,213,right,1.52008,giraffe     ,5,3,-1,0,0,987.26567,987.26567,989.761345,0,58,58,58,1,213,6,5,hat           ,giraffe     ,html/resources/sequences_IDs/A/08_hat.jpg,html/resources/sequences_IDs/B/03_giraffe.jpg,8,3,3,2,1,1,6,2,0,1,,,,,,,,,,,,,,,,,,,,
,,,,,1,2020-07-01_09h31.38.037,retriever_ti,2020.1.3,Win32,60,Chrome,1366,768,,,,,,,,,,,,,,,,,3,,,,,,,,,,,,,,,,,,,,,,,,,,,990.86126,214,right,0.70002,hat           ,6,8,-1,0,0,990.879515,990.879515,993.374055,0,59,59,59,1,214,7,6,sport_tshirt,hat           ,html/resources/sequences_IDs/B/07_sport_tshirt.jpg,html/resources/sequences_IDs/A/08_hat.jpg,7,8,3,2,3,2,5,6,0,1,,,,,,,,,,,,,,,,,,,,
,,,,,1,2020-07-01_09h31.38.037,retriever_ti,2020.1.3,Win32,60,Chrome,1366,768,,,,,,,,,,,,,,,,,3,,,,,,,,,,,,,,,,,,,,,,,,,,,994.476535,215,left,1.18343,peacock       ,2,5,-6,0,3,994.498235,994.498235,996.98788,0,60,60,60,1,215,2,8,peacock       ,clownfish     ,html/resources/sequences_IDs/A/05_peacock.jpg,html/resources/sequences_IDs/A/04_clownfish.jpg,5,4,2,1,2,1,4,3,0,1,,,,,,,,,,,,,,,,,,,,
,,,,,1,2020-07-01_09h31.38.037,retriever_ti,2020.1.3,Win32,60,Chrome,1366,768,,,,,,,,,,,,,,,,,3,,,,,,,,,,,,,,,,,,,,,,,,,,,997.610445,216,left,0.631545,radio       ,1,10,-1,0,0,997.623315,997.623315,1000.1175,0,61,61,61,1,216,1,2,radio       ,peacock       ,html/resources/sequences_IDs/B/10_radio.jpg,html/resources/sequences_IDs/A/05_peacock.jpg,10,5,4,2,2,1,8,4,0,1,,,,,,,,,,,,,,,,,,,,
,,,,,1,2020-07-01_09h31.38.037,retriever_ti,2020.1.3,Win32,60,Chrome,1366,768,,,,,,,,,,,,,,,,,3,,,,,,,,,,,,,,,,,,,,,,,,,,,1001.218845,217,left,0.73772,giraffe     ,5,3,3,1,3,1001.23611,1001.23611,1003.729725,0,62,62,62,1,217,5,2,giraffe     ,peacock       ,html/resources/sequences_IDs/B/03_giraffe.jpg,html/resources/sequences_IDs/A/05_peacock.jpg,3,5,1,1,2,1,2,4,0,1,,,,,,,,,,,,,,,,,,,,
,,,,,1,2020-07-01_09h31.38.037,retriever_ti,2020.1.3,Win32,60,Chrome,1366,768,,,,,,,,,,,,,,,,,3,,,,,,,,,,,,,,,,,,,,,,,,,,,1004.346355,218,left,1.34595,radio       ,1,10,-2,0,3,1004.363885,1004.363885,1006.86082,0,63,63,63,1,218,1,3,radio       ,phone       ,html/resources/sequences_IDs/B/10_radio.jpg,html/resources/sequences_IDs/B/09_phone.jpg,10,9,4,2,4,2,8,7,0,1,,,,,,,,,,,,,,,,,,,,
,,,,,1,2020-07-01_09h31.38.037,retriever_ti,2020.1.3,Win32,60,Chrome,1366,768,,,,,,,,,,,,,,,,,3,,,,,,,,,,,,,,,,,,,,,,,,,,,1007.48041,219,left,0.90637,clownfish     ,8,4,7,1,3,1007.515345,1007.515345,1010.007405,0,64,64,64,1,219,8,1,clownfish     ,radio       ,html/resources/sequences_IDs/A/04_clownfish.jpg,html/resources/sequences_IDs/B/10_radio.jpg,4,10,2,1,4,2,3,8,0,1,,,,,,,,,,,,,,,,,,,,
,,,,,1,2020-07-01_09h31.38.037,retriever_ti,2020.1.3,Win32,60,Chrome,1366,768,,,,,,,,,,,,,,,,,3,,,,,,,,,,,,,,,,,,,,,,,,,,,1010.62551,220,left,0.51522,peacock       ,2,5,-2,0,3,1010.65508,1010.65508,1013.137955,0,65,65,65,1,220,2,4,peacock       ,seaturtle     ,html/resources/sequences_IDs/A/05_peacock.jpg,html/resources/sequences_IDs/A/02_seaturtle.jpg,5,2,2,1,2,1,4,1,0,1,,,,,,,,,,,,,,,,,,,,
,,,,,1,2020-07-01_09h31.38.037,retriever_ti,2020.1.3,Win32,60,Chrome,1366,768,,,,,,,,,,,,,,,,,3,,,,,,,,,,,,,,,,,,,,,,,,,,,1013.756555,221,left,1.024415,peacock       ,2,5,1,1,1,1013.774405,1013.774405,1016.26738,0,66,66,66,1,221,2,1,peacock       ,radio       ,html/resources/sequences_IDs/A/05_peacock.jpg,html/resources/sequences_IDs/B/10_radio.jpg,5,10,2,1,4,2,4,8,0,1,,,,,,,,,,,,,,,,,,,,
,,,,,1,2020-07-01_09h31.38.037,retriever_ti,2020.1.3,Win32,60,Chrome,1366,768,,,,,,,,,,,,,,,,,3,,,,,,,,,,,,,,,,,,,,,,,,,,,1017.36789,222,right,0.64759,giraffe     ,5,3,3,1,3,1017.40327,1017.40327,1019.89717,0,67,67,67,1,222,2,5,peacock       ,giraffe     ,html/resources/sequences_IDs/A/05_peacock.jpg,html/resources/sequences_IDs/B/03_giraffe.jpg,5,3,2,1,1,1,4,2,0,1,,,,,,,,,,,,,,,,,,,,
,,,,,1,2020-07-01_09h31.38.037,retriever_ti,2020.1.3,Win32,60,Chrome,1366,768,,,,,,,,,,,,,,,,,3,,,,,,,,,,,,,,,,,,,,,,,,,,,1020.51433,223,right,1.08662,phone       ,3,9,1,1,0,1020.53169,1020.53169,1023.029025,0,68,68,68,1,223,2,3,peacock       ,phone       ,html/resources/sequences_IDs/A/05_peacock.jpg,html/resources/sequences_IDs/B/09_phone.jpg,5,9,2,1,4,2,4,7,1,1,,,,,,,,,,,,,,,,,,,,
,,,,,1,2020-07-01_09h31.38.037,retriever_ti,2020.1.3,Win32,60,Chrome,1366,768,,,,,,,,,,,,,,,,,3,,,,,,,,,,,,,,,,,,,,,,,,,,,1024.128415,224,right,0.5456,clownfish     ,8,4,1,1,1,1024.163355,1024.163355,1026.65823,0,69,69,69,1,224,7,8,sport_tshirt,clownfish     ,html/resources/sequences_IDs/B/07_sport_tshirt.jpg,html/resources/sequences_IDs/A/04_clownfish.jpg,7,4,3,2,2,1,5,3,0,1,,,,,,,,,,,,,,,,,,,,
,,,,,1,2020-07-01_09h31.38.037,retriever_ti,2020.1.3,Win32,60,Chrome,1366,768,,,,,,,,,,,,,,,,,3,,,,,,,,,,,,,,,,,,,,,,,,,,,1027.75981,225,left,0.380965,hat           ,6,8,5,1,3,1027.79356,1027.79356,1030.288485,0,70,70,70,1,225,6,1,hat           ,radio       ,html/resources/sequences_IDs/A/08_hat.jpg,html/resources/sequences_IDs/B/10_radio.jpg,8,10,3,2,4,2,6,8,0,1,,,,,,,,,,,,,,,,,,,,
