instructionsLoop.thisRepN,instructionsLoop.thisTrialN,instructionsLoop.thisN,instructionsLoop.thisIndex,instructionsLoop.ran,participant,date,expName,psychopyVersion,OS,frameRate,browser,xResolution,yResolution,fix_onset,tprac,practiceKey.keys,practiceKey.rt,pracitem_chosen_name,acc_practice,P1_onsetPrac,P2_onsetPrac,onsetFeedbPrac,practiceTrials.thisRepN,practiceTrials.thisTrialN,practiceTrials.thisN,practiceTrials.thisIndex,practiceTrials.ran,P1,P2,Block,LocItem1,LocItem2,NameItem1,NameItem2,key_respAC_prac.keys,key_respAC_prac.corr,key_respAC_prac.rt,AC_acc,Attentions.thisRepN,Attentions.thisTrialN,Attentions.thisN,Attentions.thisIndex,Attentions.ran,Stim,Loc1,Loc2,Loc3,Loc4,CorrAns,keyDisturbed.keys,keyDisturbed.rt,repPractice.thisRepN,repPractice.thisTrialN,repPractice.thisN,repPractice.thisIndex,repPractice.ran,fixcross_onsetMain,trialNumber,key_resp.keys,key_resp.rt,item_chosen_name,item_chosen_value,item_chosen_ID,diff_chosen_minus_reject,acc_real,acc_feedback,P1_onset,P2_onset,feedb_onset,trials.thisRepN,trials.thisTrialN,trials.thisN,trials.thisIndex,trials.ran,Trial,ValueP1,ValueP2,P1name,P2name,P1Loc,P2Loc,P1id,P2id,Micro_categoryP1,Macro_categoryP1,Micro_categoryP2,Macro_categoryP2,ID_sequenceP1,ID_sequenceP2,InverseFb,pNumber,repBlocks.thisRepN,repBlocks.thisTrialN,repBlocks.thisN,repBlocks.thisIndex,repBlocks.ran,key_respAC.keys,key_respAC.corr,key_respAC.rt,trials_AC.thisRepN,trials_AC.thisTrialN,trials_AC.thisN,trials_AC.thisIndex,trials_AC.ran,Bonus,BonusLoop.thisRepN,BonusLoop.thisTrialN,BonusLoop.thisN,BonusLoop.thisIndex,BonusLoop.ran,comments
0,0,0,0,1,1,2020-07-01_09h31.29.650,retriever_ti,2020.1.3,Win32,60,Chrome,1536,864,,,,,,,,,,,,,,,,,,,,,,,,,,,,,,,,,,,,,,,,,,,,,,,,,,,,,,,,,,,,,,,,,,,,,,,,,,,,,,,,,,,,,,,,,,,,,,,,,,
1,0,1,0,1,1,2020-07-01_09h31.29.650,retriever_ti,2020.1.3,Win32,60,Chrome,1536,864,,,,,,,,,,,,,,,,,,,,,,,,,,,,,,,,,,,,,,,,,,,,,,,,,,,,,,,,,,,,,,,,,,,,,,,,,,,,,,,,,,,,,,,,,,,,,,,,,,
2,0,2,0,1,1,2020-07-01_09h31.29.650,retriever_ti,2020.1.3,Win32,60,Chrome,1536,864,,,,,,,,,,,,,,,,,,,,,,,,,,,,,,,,,,,,,,,,,,,,,,,,,,,,,,,,,,,,,,,,,,,,,,,,,,,,,,,,,,,,,,,,,,,,,,,,,,
3,0,3,0,1,1,2020-07-01_09h31.29.650,retriever_ti,2020.1.3,Win32,60,Chrome,1536,864,,,,,,,,,,,,,,,,,,,,,,,,,,,,,,,,,,,,,,,,,,,,,,,,,,,,,,,,,,,,,,,,,,,,,,,,,,,,,,,,,,,,,,,,,,,,,,,,,,
4,0,4,0,1,1,2020-07-01_09h31.29.650,retriever_ti,2020.1.3,Win32,60,Chrome,1536,864,,,,,,,,,,,,,,,,,,,,,,,,,,,,,,,,,,,,,,,,,,,,,,,,,,,,,,,,,,,,,,,,,,,,,,,,,,,,,,,,,,,,,,,,,,,,,,,,,,
5,0,5,0,1,1,2020-07-01_09h31.29.650,retriever_ti,2020.1.3,Win32,60,Chrome,1536,864,,,,,,,,,,,,,,,,,,,,,,,,,,,,,,,,,,,,,,,,,,,,,,,,,,,,,,,,,,,,,,,,,,,,,,,,,,,,,,,,,,,,,,,,,,,,,,,,,,
6,0,6,0,1,1,2020-07-01_09h31.29.650,retriever_ti,2020.1.3,Win32,60,Chrome,1536,864,,,,,,,,,,,,,,,,,,,,,,,,,,,,,,,,,,,,,,,,,,,,,,,,,,,,,,,,,,,,,,,,,,,,,,,,,,,,,,,,,,,,,,,,,,,,,,,,,,
7,0,7,0,1,1,2020-07-01_09h31.29.650,retriever_ti,2020.1.3,Win32,60,Chrome,1536,864,,,,,,,,,,,,,,,,,,,,,,,,,,,,,,,,,,,,,,,,,,,,,,,,,,,,,,,,,,,,,,,,,,,,,,,,,,,,,,,,,,,,,,,,,,,,,,,,,,
8,0,8,0,1,1,2020-07-01_09h31.29.650,retriever_ti,2020.1.3,Win32,60,Chrome,1536,864,,,,,,,,,,,,,,,,,,,,,,,,,,,,,,,,,,,,,,,,,,,,,,,,,,,,,,,,,,,,,,,,,,,,,,,,,,,,,,,,,,,,,,,,,,,,,,,,,,
9,0,9,0,1,1,2020-07-01_09h31.29.650,retriever_ti,2020.1.3,Win32,60,Chrome,1536,864,,,,,,,,,,,,,,,,,,,,,,,,,,,,,,,,,,,,,,,,,,,,,,,,,,,,,,,,,,,,,,,,,,,,,,,,,,,,,,,,,,,,,,,,,,,,,,,,,,
10,0,10,0,1,1,2020-07-01_09h31.29.650,retriever_ti,2020.1.3,Win32,60,Chrome,1536,864,,,,,,,,,,,,,,,,,,,,,,,,,,,,,,,,,,,,,,,,,,,,,,,,,,,,,,,,,,,,,,,,,,,,,,,,,,,,,,,,,,,,,,,,,,,,,,,,,,
11,0,11,0,1,1,2020-07-01_09h31.29.650,retriever_ti,2020.1.3,Win32,60,Chrome,1536,864,,,,,,,,,,,,,,,,,,,,,,,,,,,,,,,,,,,,,,,,,,,,,,,,,,,,,,,,,,,,,,,,,,,,,,,,,,,,,,,,,,,,,,,,,,,,,,,,,,
12,0,12,0,1,1,2020-07-01_09h31.29.650,retriever_ti,2020.1.3,Win32,60,Chrome,1536,864,,,,,,,,,,,,,,,,,,,,,,,,,,,,,,,,,,,,,,,,,,,,,,,,,,,,,,,,,,,,,,,,,,,,,,,,,,,,,,,,,,,,,,,,,,,,,,,,,,
13,0,13,0,1,1,2020-07-01_09h31.29.650,retriever_ti,2020.1.3,Win32,60,Chrome,1536,864,,,,,,,,,,,,,,,,,,,,,,,,,,,,,,,,,,,,,,,,,,,,,,,,,,,,,,,,,,,,,,,,,,,,,,,,,,,,,,,,,,,,,,,,,,,,,,,,,,
14,0,14,0,1,1,2020-07-01_09h31.29.650,retriever_ti,2020.1.3,Win32,60,Chrome,1536,864,,,,,,,,,,,,,,,,,,,,,,,,,,,,,,,,,,,,,,,,,,,,,,,,,,,,,,,,,,,,,,,,,,,,,,,,,,,,,,,,,,,,,,,,,,,,,,,,,,
15,0,15,0,1,1,2020-07-01_09h31.29.650,retriever_ti,2020.1.3,Win32,60,Chrome,1536,864,,,,,,,,,,,,,,,,,,,,,,,,,,,,,,,,,,,,,,,,,,,,,,,,,,,,,,,,,,,,,,,,,,,,,,,,,,,,,,,,,,,,,,,,,,,,,,,,,,
16,0,16,0,1,1,2020-07-01_09h31.29.650,retriever_ti,2020.1.3,Win32,60,Chrome,1536,864,,,,,,,,,,,,,,,,,,,,,,,,,,,,,,,,,,,,,,,,,,,,,,,,,,,,,,,,,,,,,,,,,,,,,,,,,,,,,,,,,,,,,,,,,,,,,,,,,,
,,,,,1,2020-07-01_09h31.29.650,retriever_ti,2020.1.3,Win32,60,Chrome,1536,864,88.574345,1,right,1.5279,canary,1,88.58417,88.58417,91.081645,0,0,0,0,1,2,5,1,html/resources/stimuli_practice_decision/04_beetle.jpg,html/resources/stimuli_practice_decision/02_canary.jpg,beetle,canary,,,,,,,,,,,,,,,,,,,,,,,,,,,,,,,,,,,,,,,,,,,,,,,,,,,,,,,,,,,,,,,,,,,,,,,,,,,,,
,,,,,1,2020-07-01_09h31.29.650,retriever_ti,2020.1.3,Win32,60,Chrome,1536,864,91.64197,2,left,1.354885,rabbit,1,91.679975,91.679975,94.177535,0,1,1,1,1,4,3,1,html/resources/stimuli_practice_decision/01_rabbit.jpg,html/resources/stimuli_practice_decision/07_sock.jpg,rabbit,sock,,,,,,,,,,,,,,,,,,,,,,,,,,,,,,,,,,,,,,,,,,,,,,,,,,,,,,,,,,,,,,,,,,,,,,,,,,,,,
,,,,,1,2020-07-01_09h31.29.650,retriever_ti,2020.1.3,Win32,60,Chrome,1536,864,95.17853,3,left,1.02356,pullover,1,95.196035,95.196035,97.690635,0,2,2,2,1,6,2,1,html/resources/stimuli_practice_decision/06_pullover.jpg,html/resources/stimuli_practice_decision/04_beetle.jpg,pullover,beetle,,,,,,,,,,,,,,,,,,,,,,,,,,,,,,,,,,,,,,,,,,,,,,,,,,,,,,,,,,,,,,,,,,,,,,,,,,,,,
,,,,,1,2020-07-01_09h31.29.650,retriever_ti,2020.1.3,Win32,60,Chrome,1536,864,98.20711,4,right,0.90344,handmixer,0,98.224205,98.224205,100.72111,0,3,3,3,1,7,1,1,html/resources/stimuli_practice_decision/05_glasses.jpg,html/resources/stimuli_practice_decision/08_handmixer.jpg,glasses,handmixer,,,,,,,,,,,,,,,,,,,,,,,,,,,,,,,,,,,,,,,,,,,,,,,,,,,,,,,,,,,,,,,,,,,,,,,,,,,,,
,,,,,1,2020-07-01_09h31.29.650,retriever_ti,2020.1.3,Win32,60,Chrome,1536,864,101.238585,5,left,1.531915,glasses,1,101.256695,101.256695,103.752675,0,4,4,4,1,7,6,1,html/resources/stimuli_practice_decision/05_glasses.jpg,html/resources/stimuli_practice_decision/06_pullover.jpg,glasses,pullover,,,,,,,,,,,,,,,,,,,,,,,,,,,,,,,,,,,,,,,,,,,,,,,,,,,,,,,,,,,,,,,,,,,,,,,,,,,,,
,,,,,1,2020-07-01_09h31.29.650,retriever_ti,2020.1.3,Win32,60,Chrome,1536,864,104.75384,6,left,0.962255,rabbit,0,104.77054,104.77054,107.264645,0,5,5,5,1,4,7,1,html/resources/stimuli_practice_decision/01_rabbit.jpg,html/resources/stimuli_practice_decision/05_glasses.jpg,rabbit,glasses,,,,,,,,,,,,,,,,,,,,,,,,,,,,,,,,,,,,,,,,,,,,,,,,,,,,,,,,,,,,,,,,,,,,,,,,,,,,,
,,,,,1,2020-07-01_09h31.29.650,retriever_ti,2020.1.3,Win32,60,Chrome,1536,864,107.76586,7,left,1.832125,handmixer,0,107.78398,107.78398,110.27932,0,6,6,6,1,1,2,1,html/resources/stimuli_practice_decision/08_handmixer.jpg,html/resources/stimuli_practice_decision/04_beetle.jpg,handmixer,beetle,,,,,,,,,,,,,,,,,,,,,,,,,,,,,,,,,,,,,,,,,,,,,,,,,,,,,,,,,,,,,,,,,,,,,,,,,,,,,
,,,,,1,2020-07-01_09h31.29.650,retriever_ti,2020.1.3,Win32,60,Chrome,1536,864,111.28087,8,left,1.795575,rabbit,1,111.298805,111.298805,113.79306,0,7,7,7,1,4,3,1,html/resources/stimuli_practice_decision/01_rabbit.jpg,html/resources/stimuli_practice_decision/07_sock.jpg,rabbit,sock,,,,,,,,,,,,,,,,,,,,,,,,,,,,,,,,,,,,,,,,,,,,,,,,,,,,,,,,,,,,,,,,,,,,,,,,,,,,,
,,,,,1,2020-07-01_09h31.29.650,retriever_ti,2020.1.3,Win32,60,Chrome,1536,864,,,,,,,,,,,,,,,,,,,,,,down,1,2.993515,1,0,0,0,3,1,html/resources/sequences_IDs/triangle.png,star ↑,square →,triangle ↓,← circle,down,,,,,,,,,,,,,,,,,,,,,,,,,,,,,,,,,,,,,,,,,,,,,,,,,,,,,,,,,,,,,,
,,,,,1,2020-07-01_09h31.29.650,retriever_ti,2020.1.3,Win32,60,Chrome,1536,864,,,,,,,,,,,,,,,,,,,,,,up,1,1.24622,1,0,1,1,0,1,html/resources/sequences_IDs/circle.png,circle ↑,square →,triangle ↓,← star ,up,,,,,,,,,,,,,,,,,,,,,,,,,,,,,,,,,,,,,,,,,,,,,,,,,,,,,,,,,,,,,,
,,,,,1,2020-07-01_09h31.29.650,retriever_ti,2020.1.3,Win32,60,Chrome,1536,864,,,,,,,,,,,,,,,,,,,,,,left,1,1.78076,1,0,2,2,2,1,html/resources/sequences_IDs/square1.png,star ↑,triangle →,circle ↓,← square,left,,,,,,,,,,,,,,,,,,,,,,,,,,,,,,,,,,,,,,,,,,,,,,,,,,,,,,,,,,,,,,
,,,,,1,2020-07-01_09h31.29.650,retriever_ti,2020.1.3,Win32,60,Chrome,1536,864,,,,,,,,,,,,,,,,,,,,,,down,1,2.94882,1,0,3,3,1,1,html/resources/sequences_IDs/star.png,square ↑,circle →,star ↓,← triangle,down,,,,,,,,,,,,,,,,,,,,,,,,,,,,,,,,,,,,,,,,,,,,,,,,,,,,,,,,,,,,,,
,,,,,1,2020-07-01_09h31.29.650,retriever_ti,2020.1.3,Win32,60,Chrome,1536,864,,,,,,,,,,,,,,,,,,,,,,,,,,,,,,,,,,,,,0,6.442195,0,0,0,0,1,,,,,,,,,,,,,,,,,,,,,,,,,,,,,,,,,,,,,,,,,,,,,,,,,,,,,,,
,,,,,1,2020-07-01_09h31.29.650,retriever_ti,2020.1.3,Win32,60,Chrome,1536,864,134.34511,9,left,1.0768,pullover,0,134.37328,134.37328,136.87092,0,0,0,0,1,6,7,1,html/resources/stimuli_practice_decision/06_pullover.jpg,html/resources/stimuli_practice_decision/05_glasses.jpg,pullover,glasses,,,,,,,,,,,,,,,,,,,,,,,,,,,,,,,,,,,,,,,,,,,,,,,,,,,,,,,,,,,,,,,,,,,,,,,,,,,,,
,,,,,1,2020-07-01_09h31.29.650,retriever_ti,2020.1.3,Win32,60,Chrome,1536,864,137.8723,10,left,0.532205,pullover,1,137.889235,137.889235,140.384315,0,1,1,1,1,6,2,1,html/resources/stimuli_practice_decision/06_pullover.jpg,html/resources/stimuli_practice_decision/04_beetle.jpg,pullover,beetle,,,,,,,,,,,,,,,,,,,,,,,,,,,,,,,,,,,,,,,,,,,,,,,,,,,,,,,,,,,,,,,,,,,,,,,,,,,,,
,,,,,1,2020-07-01_09h31.29.650,retriever_ti,2020.1.3,Win32,60,Chrome,1536,864,140.903085,11,left,0.87889,canary,0,140.91963,140.91963,143.41535,0,2,2,2,1,5,6,1,html/resources/stimuli_practice_decision/02_canary.jpg,html/resources/stimuli_practice_decision/06_pullover.jpg,canary,pullover,,,,,,,,,,,,,,,,,,,,,,,,,,,,,,,,,,,,,,,,,,,,,,,,,,,,,,,,,,,,,,,,,,,,,,,,,,,,,
,,,,,1,2020-07-01_09h31.29.650,retriever_ti,2020.1.3,Win32,60,Chrome,1536,864,144.415315,12,left,1.461265,squirrel,1,144.433835,144.433835,146.92828,0,3,3,3,1,8,7,1,html/resources/stimuli_practice_decision/03_squirrel.jpg,html/resources/stimuli_practice_decision/05_glasses.jpg,squirrel,glasses,,,,,,,,,,,,,,,,,,,,,,,,,,,,,,,,,,,,,,,,,,,,,,,,,,,,,,,,,,,,,,,,,,,,,,,,,,,,,
,,,,,1,2020-07-01_09h31.29.650,retriever_ti,2020.1.3,Win32,60,Chrome,1536,864,147.92926,13,left,2.065785,canary,1,147.946405,147.946405,150.44133,0,4,4,4,1,5,3,1,html/resources/stimuli_practice_decision/02_canary.jpg,html/resources/stimuli_practice_decision/07_sock.jpg,canary,sock,,,,,,,,,,,,,,,,,,,,,,,,,,,,,,,,,,,,,,,,,,,,,,,,,,,,,,,,,,,,,,,,,,,,,,,,,,,,,
,,,,,1,2020-07-01_09h31.29.650,retriever_ti,2020.1.3,Win32,60,Chrome,1536,864,150.959925,14,left,1.28851,glasses,0,150.99316,150.99316,153.48793,0,5,5,5,1,7,8,1,html/resources/stimuli_practice_decision/05_glasses.jpg,html/resources/stimuli_practice_decision/03_squirrel.jpg,glasses,squirrel,,,,,,,,,,,,,,,,,,,,,,,,,,,,,,,,,,,,,,,,,,,,,,,,,,,,,,,,,,,,,,,,,,,,,,,,,,,,,
,,,,,1,2020-07-01_09h31.29.650,retriever_ti,2020.1.3,Win32,60,Chrome,1536,864,154.488735,15,left,0.854105,canary,1,154.50692,154.50692,157.00163,0,6,6,6,1,5,4,1,html/resources/stimuli_practice_decision/02_canary.jpg,html/resources/stimuli_practice_decision/01_rabbit.jpg,canary,rabbit,,,,,,,,,,,,,,,,,,,,,,,,,,,,,,,,,,,,,,,,,,,,,,,,,,,,,,,,,,,,,,,,,,,,,,,,,,,,,
,,,,,1,2020-07-01_09h31.29.650,retriever_ti,2020.1.3,Win32,60,Chrome,1536,864,158.001755,16,left,1.11335,canary,1,158.035255,158.035255,160.53271,0,7,7,7,1,5,3,1,html/resources/stimuli_practice_decision/02_canary.jpg,html/resources/stimuli_practice_decision/07_sock.jpg,canary,sock,,,,,,,,,,,,,,,,,,,,,,,,,,,,,,,,,,,,,,,,,,,,,,,,,,,,,,,,,,,,,,,,,,,,,,,,,,,,,
,,,,,1,2020-07-01_09h31.29.650,retriever_ti,2020.1.3,Win32,60,Chrome,1536,864,,,,,,,,,,,,,,,,,,,,,,down,1,1.68455,1,0,0,0,1,1,html/resources/sequences_IDs/star.png,square ↑,circle →,star ↓,← triangle,down,,,,,,,,,,,,,,,,,,,,,,,,,,,,,,,,,,,,,,,,,,,,,,,,,,,,,,,,,,,,,,
,,,,,1,2020-07-01_09h31.29.650,retriever_ti,2020.1.3,Win32,60,Chrome,1536,864,,,,,,,,,,,,,,,,,,,,,,up,1,1.13103,1,0,1,1,0,1,html/resources/sequences_IDs/circle.png,circle ↑,square →,triangle ↓,← star ,up,,,,,,,,,,,,,,,,,,,,,,,,,,,,,,,,,,,,,,,,,,,,,,,,,,,,,,,,,,,,,,
,,,,,1,2020-07-01_09h31.29.650,retriever_ti,2020.1.3,Win32,60,Chrome,1536,864,,,,,,,,,,,,,,,,,,,,,,left,1,1.13211,1,0,2,2,2,1,html/resources/sequences_IDs/square1.png,star ↑,triangle →,circle ↓,← square,left,,,,,,,,,,,,,,,,,,,,,,,,,,,,,,,,,,,,,,,,,,,,,,,,,,,,,,,,,,,,,,
,,,,,1,2020-07-01_09h31.29.650,retriever_ti,2020.1.3,Win32,60,Chrome,1536,864,,,,,,,,,,,,,,,,,,,,,,down,1,1.142645,1,0,3,3,3,1,html/resources/sequences_IDs/triangle.png,star ↑,square →,triangle ↓,← circle,down,,,,,,,,,,,,,,,,,,,,,,,,,,,,,,,,,,,,,,,,,,,,,,,,,,,,,,,,,,,,,,
,,,,,1,2020-07-01_09h31.29.650,retriever_ti,2020.1.3,Win32,60,Chrome,1536,864,,,,,,,,,,,,,,,,,,,,,,,,,,,,,,,,,,,,,0,2.03775,1,0,1,0,1,,,,,,,,,,,,,,,,,,,,,,,,,,,,,,,,,,,,,,,,,,,,,,,,,,,,,,,
,,,,,1,2020-07-01_09h31.29.650,retriever_ti,2020.1.3,Win32,60,Chrome,1536,864,,,,,,,,,,,,,,,,,1,,,,,,,,,,,,,,,,,,,,,,,,,,,203.702105,1,left,0.838625,giraffe     ,5,3,-2,0,3,203.7099,203.7099,206.20764,0,0,0,0,1,1,5,7,giraffe     ,sport_tshirt,html/resources/sequences_IDs/B/03_giraffe.jpg,html/resources/sequences_IDs/B/07_sport_tshirt.jpg,3,7,1,1,3,2,2,5,0,1,,,,,,,,,,,,,,,,,,,,
,,,,,1,2020-07-01_09h31.29.650,retriever_ti,2020.1.3,Win32,60,Chrome,1536,864,,,,,,,,,,,,,,,,,1,,,,,,,,,,,,,,,,,,,,,,,,,,,206.82532,2,right,1.20717,peacock       ,2,5,-4,0,3,206.843095,206.843095,209.3364,0,1,1,1,1,2,6,2,hat           ,peacock       ,html/resources/sequences_IDs/A/08_hat.jpg,html/resources/sequences_IDs/A/05_peacock.jpg,8,5,3,2,2,1,6,4,0,1,,,,,,,,,,,,,,,,,,,,
,,,,,1,2020-07-01_09h31.29.650,retriever_ti,2020.1.3,Win32,60,Chrome,1536,864,,,,,,,,,,,,,,,,,1,,,,,,,,,,,,,,,,,,,,,,,,,,,209.95482,3,left,0.49892,giraffe     ,5,3,-1,0,0,209.98992,209.98992,212.482955,0,2,2,2,1,3,5,6,giraffe     ,hat           ,html/resources/sequences_IDs/B/03_giraffe.jpg,html/resources/sequences_IDs/A/08_hat.jpg,3,8,1,1,3,2,2,6,0,1,,,,,,,,,,,,,,,,,,,,
,,,,,1,2020-07-01_09h31.29.650,retriever_ti,2020.1.3,Win32,60,Chrome,1536,864,,,,,,,,,,,,,,,,,1,,,,,,,,,,,,,,,,,,,,,,,,,,,213.58355,4,left,0.731715,peacock       ,2,5,1,1,1,213.601605,213.601605,216.096745,0,3,3,3,1,4,2,1,peacock       ,radio       ,html/resources/sequences_IDs/A/05_peacock.jpg,html/resources/sequences_IDs/B/10_radio.jpg,5,10,2,1,4,2,4,8,0,1,,,,,,,,,,,,,,,,,,,,
,,,,,1,2020-07-01_09h31.29.650,retriever_ti,2020.1.3,Win32,60,Chrome,1536,864,,,,,,,,,,,,,,,,,1,,,,,,,,,,,,,,,,,,,,,,,,,,,217.198085,5,right,0.97487,radio       ,1,10,-7,0,3,217.21499,217.21499,219.71058,0,4,4,4,1,5,8,1,clownfish     ,radio       ,html/resources/sequences_IDs/A/04_clownfish.jpg,html/resources/sequences_IDs/B/10_radio.jpg,4,10,2,1,4,2,3,8,0,1,,,,,,,,,,,,,,,,,,,,
,,,,,1,2020-07-01_09h31.29.650,retriever_ti,2020.1.3,Win32,60,Chrome,1536,864,,,,,,,,,,,,,,,,,1,,,,,,,,,,,,,,,,,,,,,,,,,,,220.32913,6,left,1.439445,seaturtle     ,4,2,-4,0,3,220.345955,220.345955,222.840115,0,5,5,5,1,6,4,8,seaturtle     ,clownfish     ,html/resources/sequences_IDs/A/02_seaturtle.jpg,html/resources/sequences_IDs/A/04_clownfish.jpg,2,4,2,1,2,1,1,3,0,1,,,,,,,,,,,,,,,,,,,,
,,,,,1,2020-07-01_09h31.29.650,retriever_ti,2020.1.3,Win32,60,Chrome,1536,864,,,,,,,,,,,,,,,,,1,,,,,,,,,,,,,,,,,,,,,,,,,,,223.456035,7,left,1.85975,clownfish     ,8,4,1,1,1,223.48975,223.48975,225.98722,0,6,6,6,1,7,8,7,clownfish     ,sport_tshirt,html/resources/sequences_IDs/A/04_clownfish.jpg,html/resources/sequences_IDs/B/07_sport_tshirt.jpg,4,7,2,1,3,2,3,5,0,1,,,,,,,,,,,,,,,,,,,,
,,,,,1,2020-07-01_09h31.29.650,retriever_ti,2020.1.3,Win32,60,Chrome,1536,864,,,,,,,,,,,,,,,,,1,,,,,,,,,,,,,,,,,,,,,,,,,,,227.08833,8,right,1.98513,seaturtle     ,4,2,2,1,3,227.105975,227.105975,229.60036,0,7,7,7,1,8,2,4,peacock       ,seaturtle     ,html/resources/sequences_IDs/A/05_peacock.jpg,html/resources/sequences_IDs/A/02_seaturtle.jpg,5,2,2,1,2,1,4,1,0,1,,,,,,,,,,,,,,,,,,,,
,,,,,1,2020-07-01_09h31.29.650,retriever_ti,2020.1.3,Win32,60,Chrome,1536,864,,,,,,,,,,,,,,,,,1,,,,,,,,,,,,,,,,,,,,,,,,,,,230.2167,9,left,0.96089,hat           ,6,8,5,1,3,230.23354,230.23354,232.73136,0,8,8,8,1,9,6,1,hat           ,radio       ,html/resources/sequences_IDs/A/08_hat.jpg,html/resources/sequences_IDs/B/10_radio.jpg,8,10,3,2,4,2,6,8,0,1,,,,,,,,,,,,,,,,,,,,
,,,,,1,2020-07-01_09h31.29.650,retriever_ti,2020.1.3,Win32,60,Chrome,1536,864,,,,,,,,,,,,,,,,,1,,,,,,,,,,,,,,,,,,,,,,,,,,,233.34865,10,right,0.45903,hat           ,6,8,1,1,1,233.36719,233.36719,235.861655,0,9,9,9,1,10,5,6,giraffe     ,hat           ,html/resources/sequences_IDs/B/03_giraffe.jpg,html/resources/sequences_IDs/A/08_hat.jpg,3,8,1,1,3,2,2,6,0,1,,,,,,,,,,,,,,,,,,,,
,,,,,1,2020-07-01_09h31.29.650,retriever_ti,2020.1.3,Win32,60,Chrome,1536,864,,,,,,,,,,,,,,,,,1,,,,,,,,,,,,,,,,,,,,,,,,,,,236.96289,11,right,0.491735,hat           ,6,8,-1,0,0,236.97961,236.97961,239.474945,0,10,10,10,1,11,7,6,sport_tshirt,hat           ,html/resources/sequences_IDs/B/07_sport_tshirt.jpg,html/resources/sequences_IDs/A/08_hat.jpg,7,8,3,2,3,2,5,6,0,1,,,,,,,,,,,,,,,,,,,,
,,,,,1,2020-07-01_09h31.29.650,retriever_ti,2020.1.3,Win32,60,Chrome,1536,864,,,,,,,,,,,,,,,,,1,,,,,,,,,,,,,,,,,,,,,,,,,,,240.576485,12,left,0.801835,seaturtle     ,4,2,-1,0,0,240.592765,240.592765,243.087785,0,11,11,11,1,12,4,5,seaturtle     ,giraffe     ,html/resources/sequences_IDs/A/02_seaturtle.jpg,html/resources/sequences_IDs/B/03_giraffe.jpg,2,3,2,1,1,1,1,2,0,1,,,,,,,,,,,,,,,,,,,,
,,,,,1,2020-07-01_09h31.29.650,retriever_ti,2020.1.3,Win32,60,Chrome,1536,864,,,,,,,,,,,,,,,,,1,,,,,,,,,,,,,,,,,,,,,,,,,,,244.18918,13,right,0.889525,peacock       ,2,5,-2,0,3,244.222545,244.222545,246.717865,0,12,12,12,1,13,4,2,seaturtle     ,peacock       ,html/resources/sequences_IDs/A/02_seaturtle.jpg,html/resources/sequences_IDs/A/05_peacock.jpg,2,5,2,1,2,1,1,4,0,1,,,,,,,,,,,,,,,,,,,,
,,,,,1,2020-07-01_09h31.29.650,retriever_ti,2020.1.3,Win32,60,Chrome,1536,864,,,,,,,,,,,,,,,,,1,,,,,,,,,,,,,,,,,,,,,,,,,,,247.33533,14,left,1.45618,radio       ,1,10,-4,0,3,247.370125,247.370125,249.8655,0,13,13,13,1,14,1,5,radio       ,giraffe     ,html/resources/sequences_IDs/B/10_radio.jpg,html/resources/sequences_IDs/B/03_giraffe.jpg,10,3,4,2,1,1,8,2,0,1,,,,,,,,,,,,,,,,,,,,
,,,,,1,2020-07-01_09h31.29.650,retriever_ti,2020.1.3,Win32,60,Chrome,1536,864,,,,,,,,,,,,,,,,,1,,,,,,,,,,,,,,,,,,,,,,,,,,,250.483575,15,right,0.718505,peacock       ,2,5,-6,0,3,250.500205,250.500205,252.995675,0,14,14,14,1,15,8,2,clownfish     ,peacock       ,html/resources/sequences_IDs/A/04_clownfish.jpg,html/resources/sequences_IDs/A/05_peacock.jpg,4,5,2,1,2,1,3,4,0,1,,,,,,,,,,,,,,,,,,,,
,,,,,1,2020-07-01_09h31.29.650,retriever_ti,2020.1.3,Win32,60,Chrome,1536,864,,,,,,,,,,,,,,,,,1,,,,,,,,,,,,,,,,,,,,,,,,,,,253.61174,16,right,1.099585,giraffe     ,5,3,1,1,1,253.645815,253.645815,256.14224,0,15,15,15,1,16,4,5,seaturtle     ,giraffe     ,html/resources/sequences_IDs/A/02_seaturtle.jpg,html/resources/sequences_IDs/B/03_giraffe.jpg,2,3,2,1,1,1,1,2,0,1,,,,,,,,,,,,,,,,,,,,
,,,,,1,2020-07-01_09h31.29.650,retriever_ti,2020.1.3,Win32,60,Chrome,1536,864,,,,,,,,,,,,,,,,,1,,,,,,,,,,,,,,,,,,,,,,,,,,,257.24388,17,left,0.960915,phone       ,3,9,1,1,1,257.277235,257.277235,259.77243,0,16,16,16,1,17,3,2,phone       ,peacock       ,html/resources/sequences_IDs/B/09_phone.jpg,html/resources/sequences_IDs/A/05_peacock.jpg,9,5,4,2,2,1,7,4,0,1,,,,,,,,,,,,,,,,,,,,
,,,,,1,2020-07-01_09h31.29.650,retriever_ti,2020.1.3,Win32,60,Chrome,1536,864,,,,,,,,,,,,,,,,,1,,,,,,,,,,,,,,,,,,,,,,,,,,,260.8739,18,left,0.533415,phone       ,3,9,-1,0,0,260.907575,260.907575,263.40238,0,17,17,17,1,18,3,4,phone       ,seaturtle     ,html/resources/sequences_IDs/B/09_phone.jpg,html/resources/sequences_IDs/A/02_seaturtle.jpg,9,2,4,2,2,1,7,1,0,1,,,,,,,,,,,,,,,,,,,,
,,,,,1,2020-07-01_09h31.29.650,retriever_ti,2020.1.3,Win32,60,Chrome,1536,864,,,,,,,,,,,,,,,,,1,,,,,,,,,,,,,,,,,,,,,,,,,,,264.503435,19,right,0.81138,hat           ,6,8,-2,0,3,264.5208,264.5208,267.016015,0,18,18,18,1,19,8,6,clownfish     ,hat           ,html/resources/sequences_IDs/A/04_clownfish.jpg,html/resources/sequences_IDs/A/08_hat.jpg,4,8,2,1,3,2,3,6,0,1,,,,,,,,,,,,,,,,,,,,
,,,,,1,2020-07-01_09h31.29.650,retriever_ti,2020.1.3,Win32,60,Chrome,1536,864,,,,,,,,,,,,,,,,,1,,,,,,,,,,,,,,,,,,,,,,,,,,,267.63294,20,left,0.7795,radio       ,1,10,-2,0,3,267.65107,267.65107,270.14585,0,19,19,19,1,20,1,3,radio       ,phone       ,html/resources/sequences_IDs/B/10_radio.jpg,html/resources/sequences_IDs/B/09_phone.jpg,10,9,4,2,4,2,8,7,0,1,,,,,,,,,,,,,,,,,,,,
,,,,,1,2020-07-01_09h31.29.650,retriever_ti,2020.1.3,Win32,60,Chrome,1536,864,,,,,,,,,,,,,,,,,1,,,,,,,,,,,,,,,,,,,,,,,,,,,270.764495,21,left,1.130935,radio       ,1,10,-1,0,0,270.78142,270.78142,273.27668,0,20,20,20,1,21,1,2,radio       ,peacock       ,html/resources/sequences_IDs/B/10_radio.jpg,html/resources/sequences_IDs/A/05_peacock.jpg,10,5,4,2,2,1,8,4,0,1,,,,,,,,,,,,,,,,,,,,
,,,,,1,2020-07-01_09h31.29.650,retriever_ti,2020.1.3,Win32,60,Chrome,1536,864,,,,,,,,,,,,,,,,,1,,,,,,,,,,,,,,,,,,,,,,,,,,,274.3778,22,right,0.278875,peacock       ,2,5,-3,0,3,274.41144,274.41144,276.90689,0,21,21,21,1,22,5,2,giraffe     ,peacock       ,html/resources/sequences_IDs/B/03_giraffe.jpg,html/resources/sequences_IDs/A/05_peacock.jpg,3,5,1,1,2,1,2,4,0,1,,,,,,,,,,,,,,,,,,,,
,,,,,1,2020-07-01_09h31.29.650,retriever_ti,2020.1.3,Win32,60,Chrome,1536,864,,,,,,,,,,,,,,,,,1,,,,,,,,,,,,,,,,,,,,,,,,,,,277.52451,23,left,0.519545,radio       ,1,10,-1,0,0,277.54263,277.54263,280.03672,0,22,22,22,1,23,1,2,radio       ,peacock       ,html/resources/sequences_IDs/B/10_radio.jpg,html/resources/sequences_IDs/A/05_peacock.jpg,10,5,4,2,2,1,8,4,0,1,,,,,,,,,,,,,,,,,,,,
,,,,,1,2020-07-01_09h31.29.650,retriever_ti,2020.1.3,Win32,60,Chrome,1536,864,,,,,,,,,,,,,,,,,1,,,,,,,,,,,,,,,,,,,,,,,,,,,281.137715,24,left,0.596605,phone       ,3,9,-2,0,3,281.171455,281.171455,283.667655,0,23,23,23,1,24,3,5,phone       ,giraffe     ,html/resources/sequences_IDs/B/09_phone.jpg,html/resources/sequences_IDs/B/03_giraffe.jpg,9,3,4,2,1,1,7,2,0,1,,,,,,,,,,,,,,,,,,,,
,,,,,1,2020-07-01_09h31.29.650,retriever_ti,2020.1.3,Win32,60,Chrome,1536,864,,,,,,,,,,,,,,,,,1,,,,,,,,,,,,,,,,,,,,,,,,,,,284.285495,25,left,0.618175,radio       ,1,10,-3,0,3,284.319295,284.319295,286.814745,0,24,24,24,1,25,1,4,radio       ,seaturtle     ,html/resources/sequences_IDs/B/10_radio.jpg,html/resources/sequences_IDs/A/02_seaturtle.jpg,10,2,4,2,2,1,8,1,0,1,,,,,,,,,,,,,,,,,,,,
,,,,,1,2020-07-01_09h31.29.650,retriever_ti,2020.1.3,Win32,60,Chrome,1536,864,,,,,,,,,,,,,,,,,1,,,,,,,,,,,,,,,,,,,,,,,,,,,287.43122,26,right,0.932195,phone       ,3,9,-2,0,3,287.44904,287.44904,289.94398,0,25,25,25,1,26,5,3,giraffe     ,phone       ,html/resources/sequences_IDs/B/03_giraffe.jpg,html/resources/sequences_IDs/B/09_phone.jpg,3,9,1,1,4,2,2,7,0,1,,,,,,,,,,,,,,,,,,,,
,,,,,1,2020-07-01_09h31.29.650,retriever_ti,2020.1.3,Win32,60,Chrome,1536,864,,,,,,,,,,,,,,,,,1,,,,,,,,,,,,,,,,,,,,,,,,,,,290.562525,27,left,0.502595,hat           ,6,8,-2,0,3,290.596385,290.596385,293.090985,0,26,26,26,1,27,6,8,hat           ,clownfish     ,html/resources/sequences_IDs/A/08_hat.jpg,html/resources/sequences_IDs/A/04_clownfish.jpg,8,4,3,2,2,1,6,3,0,1,,,,,,,,,,,,,,,,,,,,
,,,,,1,2020-07-01_09h31.29.650,retriever_ti,2020.1.3,Win32,60,Chrome,1536,864,,,,,,,,,,,,,,,,,1,,,,,,,,,,,,,,,,,,,,,,,,,,,293.708625,28,right,0.56456,clownfish     ,8,4,3,1,3,293.7265,293.7265,296.221685,0,27,27,27,1,28,5,8,giraffe     ,clownfish     ,html/resources/sequences_IDs/B/03_giraffe.jpg,html/resources/sequences_IDs/A/04_clownfish.jpg,3,4,1,1,2,1,2,3,0,1,,,,,,,,,,,,,,,,,,,,
,,,,,1,2020-07-01_09h31.29.650,retriever_ti,2020.1.3,Win32,60,Chrome,1536,864,,,,,,,,,,,,,,,,,1,,,,,,,,,,,,,,,,,,,,,,,,,,,296.8403,29,left,0.45636,radio       ,1,10,-6,0,3,296.87394,296.87394,299.369,0,28,28,28,1,29,1,7,radio       ,sport_tshirt,html/resources/sequences_IDs/B/10_radio.jpg,html/resources/sequences_IDs/B/07_sport_tshirt.jpg,10,7,4,2,3,2,8,5,0,1,,,,,,,,,,,,,,,,,,,,
,,,,,1,2020-07-01_09h31.29.650,retriever_ti,2020.1.3,Win32,60,Chrome,1536,864,,,,,,,,,,,,,,,,,1,,,,,,,,,,,,,,,,,,,,,,,,,,,299.987465,30,left,0.614975,peacock       ,2,5,-1,0,0,300.02115,300.02115,302.516055,0,29,29,29,1,30,2,3,peacock       ,phone       ,html/resources/sequences_IDs/A/05_peacock.jpg,html/resources/sequences_IDs/B/09_phone.jpg,5,9,2,1,4,2,4,7,0,1,,,,,,,,,,,,,,,,,,,,
,,,,,1,2020-07-01_09h31.29.650,retriever_ti,2020.1.3,Win32,60,Chrome,1536,864,,,,,,,,,,,,,,,,,1,,,,,,,,,,,,,,,,,,,,,,,,,,,303.615925,31,right,0.188185,clownfish     ,8,4,6,1,3,303.634075,303.634075,306.12874,0,30,30,30,1,31,2,8,peacock       ,clownfish     ,html/resources/sequences_IDs/A/05_peacock.jpg,html/resources/sequences_IDs/A/04_clownfish.jpg,5,4,2,1,2,1,4,3,0,1,,,,,,,,,,,,,,,,,,,,
,,,,,1,2020-07-01_09h31.29.650,retriever_ti,2020.1.3,Win32,60,Chrome,1536,864,,,,,,,,,,,,,,,,,1,,,,,,,,,,,,,,,,,,,,,,,,,,,306.747375,32,right,0.628975,phone       ,3,9,-1,0,1,306.78127,306.78127,309.27619,0,31,31,31,1,32,4,3,seaturtle     ,phone       ,html/resources/sequences_IDs/A/02_seaturtle.jpg,html/resources/sequences_IDs/B/09_phone.jpg,2,9,2,1,4,2,1,7,1,1,,,,,,,,,,,,,,,,,,,,
,,,,,1,2020-07-01_09h31.29.650,retriever_ti,2020.1.3,Win32,60,Chrome,1536,864,,,,,,,,,,,,,,,,,1,,,,,,,,,,,,,,,,,,,,,,,,,,,310.377325,33,left,0.693975,sport_tshirt,7,7,3,1,3,310.411005,310.411005,312.90599,0,32,32,32,1,33,7,4,sport_tshirt,seaturtle     ,html/resources/sequences_IDs/B/07_sport_tshirt.jpg,html/resources/sequences_IDs/A/02_seaturtle.jpg,7,2,3,2,2,1,5,1,0,1,,,,,,,,,,,,,,,,,,,,
,,,,,1,2020-07-01_09h31.29.650,retriever_ti,2020.1.3,Win32,60,Chrome,1536,864,,,,,,,,,,,,,,,,,1,,,,,,,,,,,,,,,,,,,,,,,,,,,313.52322,34,left,0.816875,seaturtle     ,4,2,-1,0,1,313.55763,313.55763,316.05298,0,33,33,33,1,34,4,5,seaturtle     ,giraffe     ,html/resources/sequences_IDs/A/02_seaturtle.jpg,html/resources/sequences_IDs/B/03_giraffe.jpg,2,3,2,1,1,1,1,2,1,1,,,,,,,,,,,,,,,,,,,,
,,,,,1,2020-07-01_09h31.29.650,retriever_ti,2020.1.3,Win32,60,Chrome,1536,864,,,,,,,,,,,,,,,,,1,,,,,,,,,,,,,,,,,,,,,,,,,,,317.152885,35,right,0.454065,clownfish     ,8,4,1,1,1,317.187305,317.187305,319.683205,0,34,34,34,1,35,7,8,sport_tshirt,clownfish     ,html/resources/sequences_IDs/B/07_sport_tshirt.jpg,html/resources/sequences_IDs/A/04_clownfish.jpg,7,4,3,2,2,1,5,3,0,1,,,,,,,,,,,,,,,,,,,,
,,,,,1,2020-07-01_09h31.29.650,retriever_ti,2020.1.3,Win32,60,Chrome,1536,864,,,,,,,,,,,,,,,,,1,,,,,,,,,,,,,,,,,,,,,,,,,,,320.78417,36,right,0.96626,radio       ,1,10,-3,0,3,320.800985,320.800985,323.295945,0,35,35,35,1,36,4,1,seaturtle     ,radio       ,html/resources/sequences_IDs/A/02_seaturtle.jpg,html/resources/sequences_IDs/B/10_radio.jpg,2,10,2,1,4,2,1,8,0,1,,,,,,,,,,,,,,,,,,,,
,,,,,1,2020-07-01_09h31.29.650,retriever_ti,2020.1.3,Win32,60,Chrome,1536,864,,,,,,,,,,,,,,,,,1,,,,,,,,,,,,,,,,,,,,,,,,,,,323.91488,37,left,0.59912,radio       ,1,10,-7,0,3,323.93204,323.93204,326.426575,0,36,36,36,1,37,1,8,radio       ,clownfish     ,html/resources/sequences_IDs/B/10_radio.jpg,html/resources/sequences_IDs/A/04_clownfish.jpg,10,4,4,2,2,1,8,3,0,1,,,,,,,,,,,,,,,,,,,,
,,,,,1,2020-07-01_09h31.29.650,retriever_ti,2020.1.3,Win32,60,Chrome,1536,864,,,,,,,,,,,,,,,,,1,,,,,,,,,,,,,,,,,,,,,,,,,,,327.04417,38,left,0.42297,clownfish     ,8,4,1,1,0,327.07896,327.07896,329.57935,0,37,37,37,1,38,8,7,clownfish     ,sport_tshirt,html/resources/sequences_IDs/A/04_clownfish.jpg,html/resources/sequences_IDs/B/07_sport_tshirt.jpg,4,7,2,1,3,2,3,5,1,1,,,,,,,,,,,,,,,,,,,,
,,,,,1,2020-07-01_09h31.29.650,retriever_ti,2020.1.3,Win32,60,Chrome,1536,864,,,,,,,,,,,,,,,,,1,,,,,,,,,,,,,,,,,,,,,,,,,,,330.675245,39,right,0.53817,hat           ,6,8,3,1,3,330.69227,330.69227,333.18705,0,38,38,38,1,39,3,6,phone       ,hat           ,html/resources/sequences_IDs/B/09_phone.jpg,html/resources/sequences_IDs/A/08_hat.jpg,9,8,4,2,3,2,7,6,0,1,,,,,,,,,,,,,,,,,,,,
,,,,,1,2020-07-01_09h31.29.650,retriever_ti,2020.1.3,Win32,60,Chrome,1536,864,,,,,,,,,,,,,,,,,1,,,,,,,,,,,,,,,,,,,,,,,,,,,333.804435,40,left,0.88136,sport_tshirt,7,7,4,1,3,333.822535,333.822535,336.31729,0,39,39,39,1,40,7,3,sport_tshirt,phone       ,html/resources/sequences_IDs/B/07_sport_tshirt.jpg,html/resources/sequences_IDs/B/09_phone.jpg,7,9,3,2,4,2,5,7,0,1,,,,,,,,,,,,,,,,,,,,
,,,,,1,2020-07-01_09h31.29.650,retriever_ti,2020.1.3,Win32,60,Chrome,1536,864,,,,,,,,,,,,,,,,,1,,,,,,,,,,,,,,,,,,,,,,,,,,,336.936185,41,left,0.4849,clownfish     ,8,4,3,1,3,336.95295,336.95295,339.44777,0,40,40,40,1,41,8,5,clownfish     ,giraffe     ,html/resources/sequences_IDs/A/04_clownfish.jpg,html/resources/sequences_IDs/B/03_giraffe.jpg,4,3,2,1,1,1,3,2,0,1,,,,,,,,,,,,,,,,,,,,
,,,,,1,2020-07-01_09h31.29.650,retriever_ti,2020.1.3,Win32,60,Chrome,1536,864,,,,,,,,,,,,,,,,,1,,,,,,,,,,,,,,,,,,,,,,,,,,,340.066455,42,right,0.603975,phone       ,3,9,-1,0,0,340.100055,340.100055,342.595055,0,41,41,41,1,42,4,3,seaturtle     ,phone       ,html/resources/sequences_IDs/A/02_seaturtle.jpg,html/resources/sequences_IDs/B/09_phone.jpg,2,9,2,1,4,2,1,7,0,1,,,,,,,,,,,,,,,,,,,,
,,,,,1,2020-07-01_09h31.29.650,retriever_ti,2020.1.3,Win32,60,Chrome,1536,864,,,,,,,,,,,,,,,,,1,,,,,,,,,,,,,,,,,,,,,,,,,,,343.694875,43,left,0.82496,clownfish     ,8,4,4,1,3,343.7134,343.7134,346.204435,0,42,42,42,1,43,8,4,clownfish     ,seaturtle     ,html/resources/sequences_IDs/A/04_clownfish.jpg,html/resources/sequences_IDs/A/02_seaturtle.jpg,4,2,2,1,2,1,3,1,0,1,,,,,,,,,,,,,,,,,,,,
,,,,,1,2020-07-01_09h31.29.650,retriever_ti,2020.1.3,Win32,60,Chrome,1536,864,,,,,,,,,,,,,,,,,1,,,,,,,,,,,,,,,,,,,,,,,,,,,346.81319,44,left,0.7409,phone       ,3,9,-5,0,3,346.84717,346.84717,349.338925,0,43,43,43,1,44,3,8,phone       ,clownfish     ,html/resources/sequences_IDs/B/09_phone.jpg,html/resources/sequences_IDs/A/04_clownfish.jpg,9,4,4,2,2,1,7,3,0,1,,,,,,,,,,,,,,,,,,,,
,,,,,1,2020-07-01_09h31.29.650,retriever_ti,2020.1.3,Win32,60,Chrome,1536,864,,,,,,,,,,,,,,,,,1,,,,,,,,,,,,,,,,,,,,,,,,,,,349.95596,45,left,0.82014,sport_tshirt,7,7,-1,0,0,349.973995,349.973995,352.46969,0,44,44,44,1,45,7,8,sport_tshirt,clownfish     ,html/resources/sequences_IDs/B/07_sport_tshirt.jpg,html/resources/sequences_IDs/A/04_clownfish.jpg,7,4,3,2,2,1,5,3,0,1,,,,,,,,,,,,,,,,,,,,
,,,,,1,2020-07-01_09h31.29.650,retriever_ti,2020.1.3,Win32,60,Chrome,1536,864,,,,,,,,,,,,,,,,,1,,,,,,,,,,,,,,,,,,,,,,,,,,,353.570565,46,left,0.544795,sport_tshirt,7,7,5,1,3,353.604105,353.604105,356.09878,0,45,45,45,1,46,7,2,sport_tshirt,peacock       ,html/resources/sequences_IDs/B/07_sport_tshirt.jpg,html/resources/sequences_IDs/A/05_peacock.jpg,7,5,3,2,2,1,5,4,0,1,,,,,,,,,,,,,,,,,,,,
,,,,,1,2020-07-01_09h31.29.650,retriever_ti,2020.1.3,Win32,60,Chrome,1536,864,,,,,,,,,,,,,,,,,1,,,,,,,,,,,,,,,,,,,,,,,,,,,356.71752,47,left,0.472385,phone       ,3,9,2,1,3,356.734225,356.734225,359.229725,0,46,46,46,1,47,3,1,phone       ,radio       ,html/resources/sequences_IDs/B/09_phone.jpg,html/resources/sequences_IDs/B/10_radio.jpg,9,10,4,2,4,2,7,8,0,1,,,,,,,,,,,,,,,,,,,,
,,,,,1,2020-07-01_09h31.29.650,retriever_ti,2020.1.3,Win32,60,Chrome,1536,864,,,,,,,,,,,,,,,,,1,,,,,,,,,,,,,,,,,,,,,,,,,,,359.8468,48,right,0.454245,hat           ,6,8,2,1,3,359.86482,359.86482,362.359855,0,47,47,47,1,48,4,6,seaturtle     ,hat           ,html/resources/sequences_IDs/A/02_seaturtle.jpg,html/resources/sequences_IDs/A/08_hat.jpg,2,8,2,1,3,2,1,6,0,1,,,,,,,,,,,,,,,,,,,,
,,,,,1,2020-07-01_09h31.29.650,retriever_ti,2020.1.3,Win32,60,Chrome,1536,864,,,,,,,,,,,,,,,,,1,,,,,,,,,,,,,,,,,,,,,,,,,,,362.978355,49,left,0.52883,peacock       ,2,5,1,1,0,363.011865,363.011865,365.507385,0,48,48,48,1,49,2,1,peacock       ,radio       ,html/resources/sequences_IDs/A/05_peacock.jpg,html/resources/sequences_IDs/B/10_radio.jpg,5,10,2,1,4,2,4,8,1,1,,,,,,,,,,,,,,,,,,,,
,,,,,1,2020-07-01_09h31.29.650,retriever_ti,2020.1.3,Win32,60,Chrome,1536,864,,,,,,,,,,,,,,,,,1,,,,,,,,,,,,,,,,,,,,,,,,,,,366.60884,50,right,0.491435,phone       ,3,9,-1,0,0,366.62592,366.62592,369.12003,0,49,49,49,1,50,4,3,seaturtle     ,phone       ,html/resources/sequences_IDs/A/02_seaturtle.jpg,html/resources/sequences_IDs/B/09_phone.jpg,2,9,2,1,4,2,1,7,0,1,,,,,,,,,,,,,,,,,,,,
,,,,,1,2020-07-01_09h31.29.650,retriever_ti,2020.1.3,Win32,60,Chrome,1536,864,,,,,,,,,,,,,,,,,1,,,,,,,,,,,,,,,,,,,,,,,,,,,370.22159,51,right,0.6513,sport_tshirt,7,7,-1,0,0,370.238355,370.238355,372.733575,0,50,50,50,1,51,8,7,clownfish     ,sport_tshirt,html/resources/sequences_IDs/A/04_clownfish.jpg,html/resources/sequences_IDs/B/07_sport_tshirt.jpg,4,7,2,1,3,2,3,5,0,1,,,,,,,,,,,,,,,,,,,,
,,,,,1,2020-07-01_09h31.29.650,retriever_ti,2020.1.3,Win32,60,Chrome,1536,864,,,,,,,,,,,,,,,,,1,,,,,,,,,,,,,,,,,,,,,,,,,,,373.83357,52,left,0.54882,peacock       ,2,5,-4,0,3,373.86841,373.86841,376.363635,0,51,51,51,1,52,2,6,peacock       ,hat           ,html/resources/sequences_IDs/A/05_peacock.jpg,html/resources/sequences_IDs/A/08_hat.jpg,5,8,2,1,3,2,4,6,0,1,,,,,,,,,,,,,,,,,,,,
,,,,,1,2020-07-01_09h31.29.650,retriever_ti,2020.1.3,Win32,60,Chrome,1536,864,,,,,,,,,,,,,,,,,1,,,,,,,,,,,,,,,,,,,,,,,,,,,376.98192,53,right,0.94138,hat           ,6,8,1,1,0,376.998745,376.998745,379.493755,0,52,52,52,1,53,5,6,giraffe     ,hat           ,html/resources/sequences_IDs/B/03_giraffe.jpg,html/resources/sequences_IDs/A/08_hat.jpg,3,8,1,1,3,2,2,6,1,1,,,,,,,,,,,,,,,,,,,,
,,,,,1,2020-07-01_09h31.29.650,retriever_ti,2020.1.3,Win32,60,Chrome,1536,864,,,,,,,,,,,,,,,,,1,,,,,,,,,,,,,,,,,,,,,,,,,,,380.59527,54,left,0.646775,sport_tshirt,7,7,6,1,3,380.628625,380.628625,383.12334,0,53,53,53,1,54,7,1,sport_tshirt,radio       ,html/resources/sequences_IDs/B/07_sport_tshirt.jpg,html/resources/sequences_IDs/B/10_radio.jpg,7,10,3,2,4,2,5,8,0,1,,,,,,,,,,,,,,,,,,,,
,,,,,1,2020-07-01_09h31.29.650,retriever_ti,2020.1.3,Win32,60,Chrome,1536,864,,,,,,,,,,,,,,,,,1,,,,,,,,,,,,,,,,,,,,,,,,,,,383.740435,55,right,0.531565,sport_tshirt,7,7,1,1,1,383.758305,383.758305,386.2541,0,54,54,54,1,55,6,7,hat           ,sport_tshirt,html/resources/sequences_IDs/A/08_hat.jpg,html/resources/sequences_IDs/B/07_sport_tshirt.jpg,8,7,3,2,3,2,6,5,0,1,,,,,,,,,,,,,,,,,,,,
,,,,,1,2020-07-01_09h31.29.650,retriever_ti,2020.1.3,Win32,60,Chrome,1536,864,,,,,,,,,,,,,,,,,1,,,,,,,,,,,,,,,,,,,,,,,,,,,387.35563,56,left,0.343395,hat           ,6,8,-1,0,0,387.38912,387.38912,389.884015,0,55,55,55,1,56,6,7,hat           ,sport_tshirt,html/resources/sequences_IDs/A/08_hat.jpg,html/resources/sequences_IDs/B/07_sport_tshirt.jpg,8,7,3,2,3,2,6,5,0,1,,,,,,,,,,,,,,,,,,,,
,,,,,1,2020-07-01_09h31.29.650,retriever_ti,2020.1.3,Win32,60,Chrome,1536,864,,,,,,,,,,,,,,,,,1,,,,,,,,,,,,,,,,,,,,,,,,,,,390.98653,57,right,1.473385,radio       ,1,10,-4,0,3,391.0025,391.0025,393.49711,0,56,56,56,1,57,5,1,giraffe     ,radio       ,html/resources/sequences_IDs/B/03_giraffe.jpg,html/resources/sequences_IDs/B/10_radio.jpg,3,10,1,1,4,2,2,8,0,1,,,,,,,,,,,,,,,,,,,,
,,,,,1,2020-07-01_09h31.29.650,retriever_ti,2020.1.3,Win32,60,Chrome,1536,864,,,,,,,,,,,,,,,,,1,,,,,,,,,,,,,,,,,,,,,,,,,,,394.11463,58,right,0.98437,sport_tshirt,7,7,3,1,3,394.149425,394.149425,396.644955,0,57,57,57,1,58,4,7,seaturtle     ,sport_tshirt,html/resources/sequences_IDs/A/02_seaturtle.jpg,html/resources/sequences_IDs/B/07_sport_tshirt.jpg,2,7,2,1,3,2,1,5,0,1,,,,,,,,,,,,,,,,,,,,
,,,,,1,2020-07-01_09h31.29.650,retriever_ti,2020.1.3,Win32,60,Chrome,1536,864,,,,,,,,,,,,,,,,,1,,,,,,,,,,,,,,,,,,,,,,,,,,,397.263365,59,right,0.601545,phone       ,3,9,1,1,1,397.280605,397.280605,399.774905,0,58,58,58,1,59,2,3,peacock       ,phone       ,html/resources/sequences_IDs/A/05_peacock.jpg,html/resources/sequences_IDs/B/09_phone.jpg,5,9,2,1,4,2,4,7,0,1,,,,,,,,,,,,,,,,,,,,
,,,,,1,2020-07-01_09h31.29.650,retriever_ti,2020.1.3,Win32,60,Chrome,1536,864,,,,,,,,,,,,,,,,,1,,,,,,,,,,,,,,,,,,,,,,,,,,,400.876905,60,right,0.724555,phone       ,3,9,1,1,0,400.91047,400.91047,403.404745,0,59,59,59,1,60,2,3,peacock       ,phone       ,html/resources/sequences_IDs/A/05_peacock.jpg,html/resources/sequences_IDs/B/09_phone.jpg,5,9,2,1,4,2,4,7,1,1,,,,,,,,,,,,,,,,,,,,
,,,,,1,2020-07-01_09h31.29.650,retriever_ti,2020.1.3,Win32,60,Chrome,1536,864,,,,,,,,,,,,,,,,,1,,,,,,,,,,,,,,,,,,,,,,,,,,,404.506045,61,left,0.7189,sport_tshirt,7,7,1,1,1,404.52315,404.52315,407.01779,0,60,60,60,1,61,7,6,sport_tshirt,hat           ,html/resources/sequences_IDs/B/07_sport_tshirt.jpg,html/resources/sequences_IDs/A/08_hat.jpg,7,8,3,2,3,2,5,6,0,1,,,,,,,,,,,,,,,,,,,,
,,,,,1,2020-07-01_09h31.29.650,retriever_ti,2020.1.3,Win32,60,Chrome,1536,864,,,,,,,,,,,,,,,,,1,,,,,,,,,,,,,,,,,,,,,,,,,,,408.117355,62,left,1.104515,hat           ,6,8,1,1,1,408.152425,408.152425,410.648015,0,61,61,61,1,62,6,5,hat           ,giraffe     ,html/resources/sequences_IDs/A/08_hat.jpg,html/resources/sequences_IDs/B/03_giraffe.jpg,8,3,3,2,1,1,6,2,0,1,,,,,,,,,,,,,,,,,,,,
,,,,,1,2020-07-01_09h31.29.650,retriever_ti,2020.1.3,Win32,60,Chrome,1536,864,,,,,,,,,,,,,,,,,1,,,,,,,,,,,,,,,,,,,,,,,,,,,411.749315,63,left,0.969705,peacock       ,2,5,-3,0,3,411.78301,411.78301,414.27821,0,62,62,62,1,63,2,5,peacock       ,giraffe     ,html/resources/sequences_IDs/A/05_peacock.jpg,html/resources/sequences_IDs/B/03_giraffe.jpg,5,3,2,1,1,1,4,2,0,1,,,,,,,,,,,,,,,,,,,,
,,,,,1,2020-07-01_09h31.29.650,retriever_ti,2020.1.3,Win32,60,Chrome,1536,864,,,,,,,,,,,,,,,,,1,,,,,,,,,,,,,,,,,,,,,,,,,,,414.89709,64,left,1.34945,peacock       ,2,5,1,1,1,414.91407,414.91407,417.408395,0,63,63,63,1,64,2,1,peacock       ,radio       ,html/resources/sequences_IDs/A/05_peacock.jpg,html/resources/sequences_IDs/B/10_radio.jpg,5,10,2,1,4,2,4,8,0,1,,,,,,,,,,,,,,,,,,,,
,,,,,1,2020-07-01_09h31.29.650,retriever_ti,2020.1.3,Win32,60,Chrome,1536,864,,,,,,,,,,,,,,,,,1,,,,,,,,,,,,,,,,,,,,,,,,,,,418.509775,65,left,0.97151,hat           ,6,8,2,1,3,418.543415,418.543415,421.03831,0,64,64,64,1,65,6,4,hat           ,seaturtle     ,html/resources/sequences_IDs/A/08_hat.jpg,html/resources/sequences_IDs/A/02_seaturtle.jpg,8,2,3,2,2,1,6,1,0,1,,,,,,,,,,,,,,,,,,,,
,,,,,1,2020-07-01_09h31.29.650,retriever_ti,2020.1.3,Win32,60,Chrome,1536,864,,,,,,,,,,,,,,,,,1,,,,,,,,,,,,,,,,,,,,,,,,,,,421.65538,66,left,1.25197,phone       ,3,9,-1,0,0,421.690445,421.690445,424.18529,0,65,65,65,1,66,3,4,phone       ,seaturtle     ,html/resources/sequences_IDs/B/09_phone.jpg,html/resources/sequences_IDs/A/02_seaturtle.jpg,9,2,4,2,2,1,7,1,0,1,,,,,,,,,,,,,,,,,,,,
,,,,,1,2020-07-01_09h31.29.650,retriever_ti,2020.1.3,Win32,60,Chrome,1536,864,,,,,,,,,,,,,,,,,1,,,,,,,,,,,,,,,,,,,,,,,,,,,425.28654,67,left,1.230075,phone       ,3,9,1,1,1,425.320435,425.320435,427.81518,0,66,66,66,1,67,3,2,phone       ,peacock       ,html/resources/sequences_IDs/B/09_phone.jpg,html/resources/sequences_IDs/A/05_peacock.jpg,9,5,4,2,2,1,7,4,0,1,,,,,,,,,,,,,,,,,,,,
,,,,,1,2020-07-01_09h31.29.650,retriever_ti,2020.1.3,Win32,60,Chrome,1536,864,,,,,,,,,,,,,,,,,1,,,,,,,,,,,,,,,,,,,,,,,,,,,428.916785,68,right,1.173305,seaturtle     ,4,2,-1,0,0,428.95005,428.95005,431.444855,0,67,67,67,1,68,5,4,giraffe     ,seaturtle     ,html/resources/sequences_IDs/B/03_giraffe.jpg,html/resources/sequences_IDs/A/02_seaturtle.jpg,3,2,1,1,2,1,2,1,0,1,,,,,,,,,,,,,,,,,,,,
,,,,,1,2020-07-01_09h31.29.650,retriever_ti,2020.1.3,Win32,60,Chrome,1536,864,,,,,,,,,,,,,,,,,1,,,,,,,,,,,,,,,,,,,,,,,,,,,432.54508,69,right,0.718295,hat           ,6,8,5,1,3,432.578495,432.578495,435.075185,0,68,68,68,1,69,1,6,radio       ,hat           ,html/resources/sequences_IDs/B/10_radio.jpg,html/resources/sequences_IDs/A/08_hat.jpg,10,8,4,2,3,2,8,6,0,1,,,,,,,,,,,,,,,,,,,,
,,,,,1,2020-07-01_09h31.29.650,retriever_ti,2020.1.3,Win32,60,Chrome,1536,864,,,,,,,,,,,,,,,,,1,,,,,,,,,,,,,,,,,,,,,,,,,,,435.69252,70,right,1.10231,sport_tshirt,7,7,4,1,3,435.710765,435.710765,438.20601,0,69,69,69,1,70,3,7,phone       ,sport_tshirt,html/resources/sequences_IDs/B/09_phone.jpg,html/resources/sequences_IDs/B/07_sport_tshirt.jpg,9,7,4,2,3,2,7,5,0,1,,,,,,,,,,,,,,,,,,,,
,,,,,1,2020-07-01_09h31.29.650,retriever_ti,2020.1.3,Win32,60,Chrome,1536,864,,,,,,,,,,,,,,,,,1,,,,,,,,,,,,,,,,,,,,,,,,,,,438.824795,71,right,1.66572,seaturtle     ,4,2,-1,0,0,438.85823,438.85823,441.353075,0,70,70,70,1,71,5,4,giraffe     ,seaturtle     ,html/resources/sequences_IDs/B/03_giraffe.jpg,html/resources/sequences_IDs/A/02_seaturtle.jpg,3,2,1,1,2,1,2,1,0,1,,,,,,,,,,,,,,,,,,,,
,,,,,1,2020-07-01_09h31.29.650,retriever_ti,2020.1.3,Win32,60,Chrome,1536,864,,,,,,,,,,,,,,,,,1,,,,,,,,,,,,,,,,,,,,,,,,,,,442.45457,72,left,0.52331,sport_tshirt,7,7,2,1,3,442.488305,442.488305,444.982685,0,71,71,71,1,72,7,5,sport_tshirt,giraffe     ,html/resources/sequences_IDs/B/07_sport_tshirt.jpg,html/resources/sequences_IDs/B/03_giraffe.jpg,7,3,3,2,1,1,5,2,0,1,,,,,,,,,,,,,,,,,,,,
,,,,,1,2020-07-01_09h31.29.650,retriever_ti,2020.1.3,Win32,60,Chrome,1536,864,,,,,,,,,,,,,,,,,1,,,,,,,,,,,,,,,,,,,,,,,,,,,445.599955,73,right,1.153635,phone       ,3,9,-5,0,3,445.634835,445.634835,448.129625,0,72,72,72,1,73,8,3,clownfish     ,phone       ,html/resources/sequences_IDs/A/04_clownfish.jpg,html/resources/sequences_IDs/B/09_phone.jpg,4,9,2,1,4,2,3,7,0,1,,,,,,,,,,,,,,,,,,,,
,,,,,1,2020-07-01_09h31.29.650,retriever_ti,2020.1.3,Win32,60,Chrome,1536,864,,,,,,,,,,,,,,,,,1,,,,,,,,,,,,,,,,,,,,,,,,,,,448.748285,74,left,0.855835,sport_tshirt,7,7,1,1,0,448.76507,448.76507,451.26001,0,73,73,73,1,74,7,6,sport_tshirt,hat           ,html/resources/sequences_IDs/B/07_sport_tshirt.jpg,html/resources/sequences_IDs/A/08_hat.jpg,7,8,3,2,3,2,5,6,1,1,,,,,,,,,,,,,,,,,,,,
,,,,,1,2020-07-01_09h31.29.650,retriever_ti,2020.1.3,Win32,60,Chrome,1536,864,,,,,,,,,,,,,,,,,1,,,,,,,,,,,,,,,,,,,,,,,,,,,452.36135,75,right,0.547835,sport_tshirt,7,7,5,1,3,452.37821,452.37821,454.87386,0,74,74,74,1,75,2,7,peacock       ,sport_tshirt,html/resources/sequences_IDs/A/05_peacock.jpg,html/resources/sequences_IDs/B/07_sport_tshirt.jpg,5,7,2,1,3,2,4,5,0,1,,,,,,,,,,,,,,,,,,,,
,,,,,1,2020-07-01_09h31.29.650,retriever_ti,2020.1.3,Win32,60,Chrome,1536,864,,,,,,,,,,,,,,,,,1,,,,,,,,,,,,,,,,,,,,,,,,,,,455.49115,76,left,0.907875,hat           ,6,8,3,1,3,455.52611,455.52611,458.02012,0,75,75,75,1,76,6,3,hat           ,phone       ,html/resources/sequences_IDs/A/08_hat.jpg,html/resources/sequences_IDs/B/09_phone.jpg,8,9,3,2,4,2,6,7,0,1,,,,,,,,,,,,,,,,,,,,
,,,,,1,2020-07-01_09h31.29.650,retriever_ti,2020.1.3,Win32,60,Chrome,1536,864,,,,,,,,,,,,,,,,,1,,,,,,,,,,,,,,,,,,,,,,,,,,,458.638935,77,left,1.94609,hat           ,6,8,1,1,1,458.672455,458.672455,461.16757,0,76,76,76,1,77,6,5,hat           ,giraffe     ,html/resources/sequences_IDs/A/08_hat.jpg,html/resources/sequences_IDs/B/03_giraffe.jpg,8,3,3,2,1,1,6,2,0,1,,,,,,,,,,,,,,,,,,,,
,,,,,1,2020-07-01_09h31.29.650,retriever_ti,2020.1.3,Win32,60,Chrome,1536,864,,,,,,,,,,,,,,,,,,,,,,,,,,,,,,,,,,,,,0,1.73671,,,,,,,,,,,,,,,,,,,,,,,,,,,,,,,,,,,,,,,,,0,0,0,0,1,,,,,,,,,,,,,,,
,,,,,1,2020-07-01_09h31.29.650,retriever_ti,2020.1.3,Win32,60,Chrome,1536,864,,,,,,,,,,,,,,,,,2,,,,,,,,,,,,,,,,,,,,,,,,,,,522.54637,78,left,1.098715,radio       ,1,10,-1,0,0,522.56288,522.56288,525.058415,0,0,0,0,1,78,1,2,radio       ,peacock       ,html/resources/sequences_IDs/B/10_radio.jpg,html/resources/sequences_IDs/A/05_peacock.jpg,10,5,4,2,2,1,8,4,0,1,,,,,,,,,,,,,,,,,,,,
,,,,,1,2020-07-01_09h31.29.650,retriever_ti,2020.1.3,Win32,60,Chrome,1536,864,,,,,,,,,,,,,,,,,2,,,,,,,,,,,,,,,,,,,,,,,,,,,526.15844,79,left,1.408135,giraffe     ,5,3,1,1,1,526.192835,526.192835,528.68759,0,1,1,1,1,79,5,4,giraffe     ,seaturtle     ,html/resources/sequences_IDs/B/03_giraffe.jpg,html/resources/sequences_IDs/A/02_seaturtle.jpg,3,2,1,1,2,1,2,1,0,1,,,,,,,,,,,,,,,,,,,,
,,,,,1,2020-07-01_09h31.29.650,retriever_ti,2020.1.3,Win32,60,Chrome,1536,864,,,,,,,,,,,,,,,,,2,,,,,,,,,,,,,,,,,,,,,,,,,,,529.789135,80,right,0.49489,clownfish     ,8,4,5,1,3,529.822605,529.822605,532.318185,0,2,2,2,1,80,3,8,phone       ,clownfish     ,html/resources/sequences_IDs/B/09_phone.jpg,html/resources/sequences_IDs/A/04_clownfish.jpg,9,4,4,2,2,1,7,3,0,1,,,,,,,,,,,,,,,,,,,,
,,,,,1,2020-07-01_09h31.29.650,retriever_ti,2020.1.3,Win32,60,Chrome,1536,864,,,,,,,,,,,,,,,,,2,,,,,,,,,,,,,,,,,,,,,,,,,,,532.93623,81,left,0.46174,hat           ,6,8,2,1,3,532.95304,532.95304,535.44781,0,3,3,3,1,81,6,4,hat           ,seaturtle     ,html/resources/sequences_IDs/A/08_hat.jpg,html/resources/sequences_IDs/A/02_seaturtle.jpg,8,2,3,2,2,1,6,1,0,1,,,,,,,,,,,,,,,,,,,,
,,,,,1,2020-07-01_09h31.29.650,retriever_ti,2020.1.3,Win32,60,Chrome,1536,864,,,,,,,,,,,,,,,,,2,,,,,,,,,,,,,,,,,,,,,,,,,,,536.06473,82,left,0.801625,seaturtle     ,4,2,-1,0,0,536.08265,536.08265,538.57902,0,4,4,4,1,82,4,5,seaturtle     ,giraffe     ,html/resources/sequences_IDs/A/02_seaturtle.jpg,html/resources/sequences_IDs/B/03_giraffe.jpg,2,3,2,1,1,1,1,2,0,1,,,,,,,,,,,,,,,,,,,,
,,,,,1,2020-07-01_09h31.29.650,retriever_ti,2020.1.3,Win32,60,Chrome,1536,864,,,,,,,,,,,,,,,,,2,,,,,,,,,,,,,,,,,,,,,,,,,,,539.67884,83,right,0.57964,sport_tshirt,7,7,4,1,3,539.712875,539.712875,542.208665,0,5,5,5,1,83,3,7,phone       ,sport_tshirt,html/resources/sequences_IDs/B/09_phone.jpg,html/resources/sequences_IDs/B/07_sport_tshirt.jpg,9,7,4,2,3,2,7,5,0,1,,,,,,,,,,,,,,,,,,,,
,,,,,1,2020-07-01_09h31.29.650,retriever_ti,2020.1.3,Win32,60,Chrome,1536,864,,,,,,,,,,,,,,,,,2,,,,,,,,,,,,,,,,,,,,,,,,,,,542.82752,84,right,0.52562,sport_tshirt,7,7,5,1,3,542.86108,542.86108,545.35594,0,6,6,6,1,84,2,7,peacock       ,sport_tshirt,html/resources/sequences_IDs/A/05_peacock.jpg,html/resources/sequences_IDs/B/07_sport_tshirt.jpg,5,7,2,1,3,2,4,5,0,1,,,,,,,,,,,,,,,,,,,,
,,,,,1,2020-07-01_09h31.29.650,retriever_ti,2020.1.3,Win32,60,Chrome,1536,864,,,,,,,,,,,,,,,,,2,,,,,,,,,,,,,,,,,,,,,,,,,,,545.972765,85,left,0.360805,peacock       ,2,5,1,1,1,546.006965,546.006965,548.50247,0,7,7,7,1,85,2,1,peacock       ,radio       ,html/resources/sequences_IDs/A/05_peacock.jpg,html/resources/sequences_IDs/B/10_radio.jpg,5,10,2,1,4,2,4,8,0,1,,,,,,,,,,,,,,,,,,,,
,,,,,1,2020-07-01_09h31.29.650,retriever_ti,2020.1.3,Win32,60,Chrome,1536,864,,,,,,,,,,,,,,,,,2,,,,,,,,,,,,,,,,,,,,,,,,,,,549.603925,86,left,1.04556,clownfish     ,8,4,6,1,3,549.637385,549.637385,552.13247,0,8,8,8,1,86,8,2,clownfish     ,peacock       ,html/resources/sequences_IDs/A/04_clownfish.jpg,html/resources/sequences_IDs/A/05_peacock.jpg,4,5,2,1,2,1,3,4,0,1,,,,,,,,,,,,,,,,,,,,
,,,,,1,2020-07-01_09h31.29.650,retriever_ti,2020.1.3,Win32,60,Chrome,1536,864,,,,,,,,,,,,,,,,,2,,,,,,,,,,,,,,,,,,,,,,,,,,,552.75097,87,left,1.76482,hat           ,6,8,-1,0,1,552.784585,552.784585,555.279335,0,9,9,9,1,87,6,7,hat           ,sport_tshirt,html/resources/sequences_IDs/A/08_hat.jpg,html/resources/sequences_IDs/B/07_sport_tshirt.jpg,8,7,3,2,3,2,6,5,1,1,,,,,,,,,,,,,,,,,,,,
,,,,,1,2020-07-01_09h31.29.650,retriever_ti,2020.1.3,Win32,60,Chrome,1536,864,,,,,,,,,,,,,,,,,2,,,,,,,,,,,,,,,,,,,,,,,,,,,556.380155,88,right,0.901655,sport_tshirt,7,7,6,1,3,556.413785,556.413785,558.91005,0,10,10,10,1,88,1,7,radio       ,sport_tshirt,html/resources/sequences_IDs/B/10_radio.jpg,html/resources/sequences_IDs/B/07_sport_tshirt.jpg,10,7,4,2,3,2,8,5,0,1,,,,,,,,,,,,,,,,,,,,
,,,,,1,2020-07-01_09h31.29.650,retriever_ti,2020.1.3,Win32,60,Chrome,1536,864,,,,,,,,,,,,,,,,,2,,,,,,,,,,,,,,,,,,,,,,,,,,,559.527305,89,right,0.547795,sport_tshirt,7,7,-1,0,0,559.545635,559.545635,562.03998,0,11,11,11,1,89,8,7,clownfish     ,sport_tshirt,html/resources/sequences_IDs/A/04_clownfish.jpg,html/resources/sequences_IDs/B/07_sport_tshirt.jpg,4,7,2,1,3,2,3,5,0,1,,,,,,,,,,,,,,,,,,,,
,,,,,1,2020-07-01_09h31.29.650,retriever_ti,2020.1.3,Win32,60,Chrome,1536,864,,,,,,,,,,,,,,,,,2,,,,,,,,,,,,,,,,,,,,,,,,,,,563.140655,90,left,0.32767,hat           ,6,8,-1,0,0,563.157425,563.157425,565.653045,0,12,12,12,1,90,6,7,hat           ,sport_tshirt,html/resources/sequences_IDs/A/08_hat.jpg,html/resources/sequences_IDs/B/07_sport_tshirt.jpg,8,7,3,2,3,2,6,5,0,1,,,,,,,,,,,,,,,,,,,,
,,,,,1,2020-07-01_09h31.29.650,retriever_ti,2020.1.3,Win32,60,Chrome,1536,864,,,,,,,,,,,,,,,,,2,,,,,,,,,,,,,,,,,,,,,,,,,,,566.75309,91,right,0.251115,hat           ,6,8,1,1,1,566.77018,566.77018,569.26629,0,13,13,13,1,91,5,6,giraffe     ,hat           ,html/resources/sequences_IDs/B/03_giraffe.jpg,html/resources/sequences_IDs/A/08_hat.jpg,3,8,1,1,3,2,2,6,0,1,,,,,,,,,,,,,,,,,,,,
,,,,,1,2020-07-01_09h31.29.650,retriever_ti,2020.1.3,Win32,60,Chrome,1536,864,,,,,,,,,,,,,,,,,2,,,,,,,,,,,,,,,,,,,,,,,,,,,570.366205,92,left,1.008205,sport_tshirt,7,7,6,1,3,570.40046,570.40046,572.896425,0,14,14,14,1,92,7,1,sport_tshirt,radio       ,html/resources/sequences_IDs/B/07_sport_tshirt.jpg,html/resources/sequences_IDs/B/10_radio.jpg,7,10,3,2,4,2,5,8,0,1,,,,,,,,,,,,,,,,,,,,
,,,,,1,2020-07-01_09h31.29.650,retriever_ti,2020.1.3,Win32,60,Chrome,1536,864,,,,,,,,,,,,,,,,,2,,,,,,,,,,,,,,,,,,,,,,,,,,,573.51608,93,left,0.925555,hat           ,6,8,5,1,3,573.532045,573.532045,576.026615,0,15,15,15,1,93,6,1,hat           ,radio       ,html/resources/sequences_IDs/A/08_hat.jpg,html/resources/sequences_IDs/B/10_radio.jpg,8,10,3,2,4,2,6,8,0,1,,,,,,,,,,,,,,,,,,,,
,,,,,1,2020-07-01_09h31.29.650,retriever_ti,2020.1.3,Win32,60,Chrome,1536,864,,,,,,,,,,,,,,,,,2,,,,,,,,,,,,,,,,,,,,,,,,,,,576.64535,94,left,0.810595,clownfish     ,8,4,3,1,3,576.67877,576.67877,579.17446,0,16,16,16,1,94,8,5,clownfish     ,giraffe     ,html/resources/sequences_IDs/A/04_clownfish.jpg,html/resources/sequences_IDs/B/03_giraffe.jpg,4,3,2,1,1,1,3,2,0,1,,,,,,,,,,,,,,,,,,,,
,,,,,1,2020-07-01_09h31.29.650,retriever_ti,2020.1.3,Win32,60,Chrome,1536,864,,,,,,,,,,,,,,,,,2,,,,,,,,,,,,,,,,,,,,,,,,,,,579.79139,95,right,0.54217,hat           ,6,8,-1,0,0,579.809995,579.809995,582.304325,0,17,17,17,1,95,7,6,sport_tshirt,hat           ,html/resources/sequences_IDs/B/07_sport_tshirt.jpg,html/resources/sequences_IDs/A/08_hat.jpg,7,8,3,2,3,2,5,6,0,1,,,,,,,,,,,,,,,,,,,,
,,,,,1,2020-07-01_09h31.29.650,retriever_ti,2020.1.3,Win32,60,Chrome,1536,864,,,,,,,,,,,,,,,,,2,,,,,,,,,,,,,,,,,,,,,,,,,,,583.40524,96,right,0.72474,phone       ,3,9,-1,0,0,583.438815,583.438815,585.9342,0,18,18,18,1,96,4,3,seaturtle     ,phone       ,html/resources/sequences_IDs/A/02_seaturtle.jpg,html/resources/sequences_IDs/B/09_phone.jpg,2,9,2,1,4,2,1,7,0,1,,,,,,,,,,,,,,,,,,,,
,,,,,1,2020-07-01_09h31.29.650,retriever_ti,2020.1.3,Win32,60,Chrome,1536,864,,,,,,,,,,,,,,,,,2,,,,,,,,,,,,,,,,,,,,,,,,,,,587.034355,97,left,0.97492,radio       ,1,10,-2,0,3,587.051845,587.051845,589.5472,0,19,19,19,1,97,1,3,radio       ,phone       ,html/resources/sequences_IDs/B/10_radio.jpg,html/resources/sequences_IDs/B/09_phone.jpg,10,9,4,2,4,2,8,7,0,1,,,,,,,,,,,,,,,,,,,,
,,,,,1,2020-07-01_09h31.29.650,retriever_ti,2020.1.3,Win32,60,Chrome,1536,864,,,,,,,,,,,,,,,,,2,,,,,,,,,,,,,,,,,,,,,,,,,,,590.164725,98,left,0.64666,radio       ,1,10,-3,0,3,590.19912,590.19912,592.694365,0,20,20,20,1,98,1,4,radio       ,seaturtle     ,html/resources/sequences_IDs/B/10_radio.jpg,html/resources/sequences_IDs/A/02_seaturtle.jpg,10,2,4,2,2,1,8,1,0,1,,,,,,,,,,,,,,,,,,,,
,,,,,1,2020-07-01_09h31.29.650,retriever_ti,2020.1.3,Win32,60,Chrome,1536,864,,,,,,,,,,,,,,,,,2,,,,,,,,,,,,,,,,,,,,,,,,,,,593.31305,99,left,0.632575,hat           ,6,8,4,1,3,593.329805,593.329805,595.82485,0,21,21,21,1,99,6,2,hat           ,peacock       ,html/resources/sequences_IDs/A/08_hat.jpg,html/resources/sequences_IDs/A/05_peacock.jpg,8,5,3,2,2,1,6,4,0,1,,,,,,,,,,,,,,,,,,,,
,,,,,1,2020-07-01_09h31.29.650,retriever_ti,2020.1.3,Win32,60,Chrome,1536,864,,,,,,,,,,,,,,,,,2,,,,,,,,,,,,,,,,,,,,,,,,,,,596.442495,100,right,0.51853,phone       ,3,9,-1,0,0,596.476235,596.476235,598.97155,0,22,22,22,1,100,4,3,seaturtle     ,phone       ,html/resources/sequences_IDs/A/02_seaturtle.jpg,html/resources/sequences_IDs/B/09_phone.jpg,2,9,2,1,4,2,1,7,0,1,,,,,,,,,,,,,,,,,,,,
,,,,,1,2020-07-01_09h31.29.650,retriever_ti,2020.1.3,Win32,60,Chrome,1536,864,,,,,,,,,,,,,,,,,2,,,,,,,,,,,,,,,,,,,,,,,,,,,600.072215,101,left,1.0913,sport_tshirt,7,7,4,1,3,600.090185,600.090185,602.58541,0,23,23,23,1,101,7,3,sport_tshirt,phone       ,html/resources/sequences_IDs/B/07_sport_tshirt.jpg,html/resources/sequences_IDs/B/09_phone.jpg,7,9,3,2,4,2,5,7,0,1,,,,,,,,,,,,,,,,,,,,
,,,,,1,2020-07-01_09h31.29.650,retriever_ti,2020.1.3,Win32,60,Chrome,1536,864,,,,,,,,,,,,,,,,,2,,,,,,,,,,,,,,,,,,,,,,,,,,,603.203655,102,left,1.20159,sport_tshirt,7,7,3,1,3,603.22061,603.22061,605.716425,0,24,24,24,1,102,7,4,sport_tshirt,seaturtle     ,html/resources/sequences_IDs/B/07_sport_tshirt.jpg,html/resources/sequences_IDs/A/02_seaturtle.jpg,7,2,3,2,2,1,5,1,0,1,,,,,,,,,,,,,,,,,,,,
,,,,,1,2020-07-01_09h31.29.650,retriever_ti,2020.1.3,Win32,60,Chrome,1536,864,,,,,,,,,,,,,,,,,2,,,,,,,,,,,,,,,,,,,,,,,,,,,606.33347,103,right,0.921785,seaturtle     ,4,2,1,1,1,606.351745,606.351745,608.846295,0,25,25,25,1,103,3,4,phone       ,seaturtle     ,html/resources/sequences_IDs/B/09_phone.jpg,html/resources/sequences_IDs/A/02_seaturtle.jpg,9,2,4,2,2,1,7,1,0,1,,,,,,,,,,,,,,,,,,,,
,,,,,1,2020-07-01_09h31.29.650,retriever_ti,2020.1.3,Win32,60,Chrome,1536,864,,,,,,,,,,,,,,,,,2,,,,,,,,,,,,,,,,,,,,,,,,,,,609.947505,104,right,0.860035,peacock       ,2,5,-1,0,0,609.96454,609.96454,612.460165,0,26,26,26,1,104,3,2,phone       ,peacock       ,html/resources/sequences_IDs/B/09_phone.jpg,html/resources/sequences_IDs/A/05_peacock.jpg,9,5,4,2,2,1,7,4,0,1,,,,,,,,,,,,,,,,,,,,
,,,,,1,2020-07-01_09h31.29.650,retriever_ti,2020.1.3,Win32,60,Chrome,1536,864,,,,,,,,,,,,,,,,,2,,,,,,,,,,,,,,,,,,,,,,,,,,,613.560755,105,left,0.560865,hat           ,6,8,1,1,1,613.576905,613.576905,616.072415,0,27,27,27,1,105,6,5,hat           ,giraffe     ,html/resources/sequences_IDs/A/08_hat.jpg,html/resources/sequences_IDs/B/03_giraffe.jpg,8,3,3,2,1,1,6,2,0,1,,,,,,,,,,,,,,,,,,,,
,,,,,1,2020-07-01_09h31.29.650,retriever_ti,2020.1.3,Win32,60,Chrome,1536,864,,,,,,,,,,,,,,,,,2,,,,,,,,,,,,,,,,,,,,,,,,,,,617.17326,106,right,0.73513,hat           ,6,8,-2,0,3,617.20578,617.20578,619.702475,0,28,28,28,1,106,8,6,clownfish     ,hat           ,html/resources/sequences_IDs/A/04_clownfish.jpg,html/resources/sequences_IDs/A/08_hat.jpg,4,8,2,1,3,2,3,6,0,1,,,,,,,,,,,,,,,,,,,,
,,,,,1,2020-07-01_09h31.29.650,retriever_ti,2020.1.3,Win32,60,Chrome,1536,864,,,,,,,,,,,,,,,,,2,,,,,,,,,,,,,,,,,,,,,,,,,,,620.31998,107,left,0.631695,peacock       ,2,5,-3,0,3,620.3379,620.3379,622.833515,0,29,29,29,1,107,2,5,peacock       ,giraffe     ,html/resources/sequences_IDs/A/05_peacock.jpg,html/resources/sequences_IDs/B/03_giraffe.jpg,5,3,2,1,1,1,4,2,0,1,,,,,,,,,,,,,,,,,,,,
,,,,,1,2020-07-01_09h31.29.650,retriever_ti,2020.1.3,Win32,60,Chrome,1536,864,,,,,,,,,,,,,,,,,2,,,,,,,,,,,,,,,,,,,,,,,,,,,623.45206,108,left,0.468785,hat           ,6,8,1,1,1,623.485895,623.485895,625.980005,0,30,30,30,1,108,6,5,hat           ,giraffe     ,html/resources/sequences_IDs/A/08_hat.jpg,html/resources/sequences_IDs/B/03_giraffe.jpg,8,3,3,2,1,1,6,2,0,1,,,,,,,,,,,,,,,,,,,,
,,,,,1,2020-07-01_09h31.29.650,retriever_ti,2020.1.3,Win32,60,Chrome,1536,864,,,,,,,,,,,,,,,,,2,,,,,,,,,,,,,,,,,,,,,,,,,,,627.080495,109,left,0.59566,sport_tshirt,7,7,5,1,3,627.097635,627.097635,629.59312,0,31,31,31,1,109,7,2,sport_tshirt,peacock       ,html/resources/sequences_IDs/B/07_sport_tshirt.jpg,html/resources/sequences_IDs/A/05_peacock.jpg,7,5,3,2,2,1,5,4,0,1,,,,,,,,,,,,,,,,,,,,
,,,,,1,2020-07-01_09h31.29.650,retriever_ti,2020.1.3,Win32,60,Chrome,1536,864,,,,,,,,,,,,,,,,,2,,,,,,,,,,,,,,,,,,,,,,,,,,,630.209415,110,left,1.696375,giraffe     ,5,3,4,1,3,630.243565,630.243565,632.740365,0,32,32,32,1,110,5,1,giraffe     ,radio       ,html/resources/sequences_IDs/B/03_giraffe.jpg,html/resources/sequences_IDs/B/10_radio.jpg,3,10,1,1,4,2,2,8,0,1,,,,,,,,,,,,,,,,,,,,
,,,,,1,2020-07-01_09h31.29.650,retriever_ti,2020.1.3,Win32,60,Chrome,1536,864,,,,,,,,,,,,,,,,,2,,,,,,,,,,,,,,,,,,,,,,,,,,,633.358555,111,left,1.144695,peacock       ,2,5,-1,0,0,633.37548,633.37548,635.870765,0,33,33,33,1,111,2,3,peacock       ,phone       ,html/resources/sequences_IDs/A/05_peacock.jpg,html/resources/sequences_IDs/B/09_phone.jpg,5,9,2,1,4,2,4,7,0,1,,,,,,,,,,,,,,,,,,,,
,,,,,1,2020-07-01_09h31.29.650,retriever_ti,2020.1.3,Win32,60,Chrome,1536,864,,,,,,,,,,,,,,,,,2,,,,,,,,,,,,,,,,,,,,,,,,,,,636.97232,112,left,1.45978,seaturtle     ,4,2,-4,0,3,636.98957,636.98957,639.4847,0,34,34,34,1,112,4,8,seaturtle     ,clownfish     ,html/resources/sequences_IDs/A/02_seaturtle.jpg,html/resources/sequences_IDs/A/04_clownfish.jpg,2,4,2,1,2,1,1,3,0,1,,,,,,,,,,,,,,,,,,,,
,,,,,1,2020-07-01_09h31.29.650,retriever_ti,2020.1.3,Win32,60,Chrome,1536,864,,,,,,,,,,,,,,,,,2,,,,,,,,,,,,,,,,,,,,,,,,,,,640.101615,113,right,0.578235,giraffe     ,5,3,-2,0,3,640.119575,640.119575,642.614545,0,35,35,35,1,113,7,5,sport_tshirt,giraffe     ,html/resources/sequences_IDs/B/07_sport_tshirt.jpg,html/resources/sequences_IDs/B/03_giraffe.jpg,7,3,3,2,1,1,5,2,0,1,,,,,,,,,,,,,,,,,,,,
,,,,,1,2020-07-01_09h31.29.650,retriever_ti,2020.1.3,Win32,60,Chrome,1536,864,,,,,,,,,,,,,,,,,2,,,,,,,,,,,,,,,,,,,,,,,,,,,643.232525,114,right,0.837,phone       ,3,9,-5,0,3,643.249315,643.249315,645.7448,0,36,36,36,1,114,8,3,clownfish     ,phone       ,html/resources/sequences_IDs/A/04_clownfish.jpg,html/resources/sequences_IDs/B/09_phone.jpg,4,9,2,1,4,2,3,7,0,1,,,,,,,,,,,,,,,,,,,,
,,,,,1,2020-07-01_09h31.29.650,retriever_ti,2020.1.3,Win32,60,Chrome,1536,864,,,,,,,,,,,,,,,,,2,,,,,,,,,,,,,,,,,,,,,,,,,,,646.36238,115,right,0.746485,sport_tshirt,7,7,2,1,3,646.397405,646.397405,648.891695,0,37,37,37,1,115,5,7,giraffe     ,sport_tshirt,html/resources/sequences_IDs/B/03_giraffe.jpg,html/resources/sequences_IDs/B/07_sport_tshirt.jpg,3,7,1,1,3,2,2,5,0,1,,,,,,,,,,,,,,,,,,,,
,,,,,1,2020-07-01_09h31.29.650,retriever_ti,2020.1.3,Win32,60,Chrome,1536,864,,,,,,,,,,,,,,,,,2,,,,,,,,,,,,,,,,,,,,,,,,,,,649.5106,116,left,0.67819,seaturtle     ,4,2,3,1,3,649.52748,649.52748,652.02265,0,38,38,38,1,116,4,1,seaturtle     ,radio       ,html/resources/sequences_IDs/A/02_seaturtle.jpg,html/resources/sequences_IDs/B/10_radio.jpg,2,10,2,1,4,2,1,8,0,1,,,,,,,,,,,,,,,,,,,,
,,,,,1,2020-07-01_09h31.29.650,retriever_ti,2020.1.3,Win32,60,Chrome,1536,864,,,,,,,,,,,,,,,,,2,,,,,,,,,,,,,,,,,,,,,,,,,,,652.641405,117,left,0.872265,giraffe     ,5,3,-3,0,3,652.662075,652.662075,655.15244,0,39,39,39,1,117,5,8,giraffe     ,clownfish     ,html/resources/sequences_IDs/B/03_giraffe.jpg,html/resources/sequences_IDs/A/04_clownfish.jpg,3,4,1,1,2,1,2,3,0,1,,,,,,,,,,,,,,,,,,,,
,,,,,1,2020-07-01_09h31.29.650,retriever_ti,2020.1.3,Win32,60,Chrome,1536,864,,,,,,,,,,,,,,,,,2,,,,,,,,,,,,,,,,,,,,,,,,,,,655.76996,118,right,0.484705,sport_tshirt,7,7,-1,0,0,655.805045,655.805045,658.300205,0,40,40,40,1,118,8,7,clownfish     ,sport_tshirt,html/resources/sequences_IDs/A/04_clownfish.jpg,html/resources/sequences_IDs/B/07_sport_tshirt.jpg,4,7,2,1,3,2,3,5,0,1,,,,,,,,,,,,,,,,,,,,
,,,,,1,2020-07-01_09h31.29.650,retriever_ti,2020.1.3,Win32,60,Chrome,1536,864,,,,,,,,,,,,,,,,,2,,,,,,,,,,,,,,,,,,,,,,,,,,,659.400845,119,left,0.43778,peacock       ,2,5,1,1,1,659.418055,659.418055,661.91294,0,41,41,41,1,119,2,1,peacock       ,radio       ,html/resources/sequences_IDs/A/05_peacock.jpg,html/resources/sequences_IDs/B/10_radio.jpg,5,10,2,1,4,2,4,8,0,1,,,,,,,,,,,,,,,,,,,,
,,,,,1,2020-07-01_09h31.29.650,retriever_ti,2020.1.3,Win32,60,Chrome,1536,864,,,,,,,,,,,,,,,,,2,,,,,,,,,,,,,,,,,,,,,,,,,,,663.01463,120,left,0.12796,seaturtle     ,4,2,-1,0,0,663.03155,663.03155,665.52623,0,42,42,42,1,120,4,5,seaturtle     ,giraffe     ,html/resources/sequences_IDs/A/02_seaturtle.jpg,html/resources/sequences_IDs/B/03_giraffe.jpg,2,3,2,1,1,1,1,2,0,1,,,,,,,,,,,,,,,,,,,,
,,,,,1,2020-07-01_09h31.29.650,retriever_ti,2020.1.3,Win32,60,Chrome,1536,864,,,,,,,,,,,,,,,,,2,,,,,,,,,,,,,,,,,,,,,,,,,,,666.627215,121,right,0.39901,giraffe     ,5,3,4,1,3,666.64434,666.64434,669.139525,0,43,43,43,1,121,1,5,radio       ,giraffe     ,html/resources/sequences_IDs/B/10_radio.jpg,html/resources/sequences_IDs/B/03_giraffe.jpg,10,3,4,2,1,1,8,2,0,1,,,,,,,,,,,,,,,,,,,,
,,,,,1,2020-07-01_09h31.29.650,retriever_ti,2020.1.3,Win32,60,Chrome,1536,864,,,,,,,,,,,,,,,,,2,,,,,,,,,,,,,,,,,,,,,,,,,,,669.75656,122,right,0.555525,clownfish     ,8,4,2,1,3,669.774595,669.774595,672.269965,0,44,44,44,1,122,6,8,hat           ,clownfish     ,html/resources/sequences_IDs/A/08_hat.jpg,html/resources/sequences_IDs/A/04_clownfish.jpg,8,4,3,2,2,1,6,3,0,1,,,,,,,,,,,,,,,,,,,,
,,,,,1,2020-07-01_09h31.29.650,retriever_ti,2020.1.3,Win32,60,Chrome,1536,864,,,,,,,,,,,,,,,,,2,,,,,,,,,,,,,,,,,,,,,,,,,,,672.88823,123,left,0.908495,seaturtle     ,4,2,-2,0,3,672.90488,672.90488,675.40046,0,45,45,45,1,123,4,6,seaturtle     ,hat           ,html/resources/sequences_IDs/A/02_seaturtle.jpg,html/resources/sequences_IDs/A/08_hat.jpg,2,8,2,1,3,2,1,6,0,1,,,,,,,,,,,,,,,,,,,,
,,,,,1,2020-07-01_09h31.29.650,retriever_ti,2020.1.3,Win32,60,Chrome,1536,864,,,,,,,,,,,,,,,,,2,,,,,,,,,,,,,,,,,,,,,,,,,,,676.01713,124,left,0.811695,hat           ,6,8,-1,0,0,676.03484,676.03484,678.53097,0,46,46,46,1,124,6,7,hat           ,sport_tshirt,html/resources/sequences_IDs/A/08_hat.jpg,html/resources/sequences_IDs/B/07_sport_tshirt.jpg,8,7,3,2,3,2,6,5,0,1,,,,,,,,,,,,,,,,,,,,
,,,,,1,2020-07-01_09h31.29.650,retriever_ti,2020.1.3,Win32,60,Chrome,1536,864,,,,,,,,,,,,,,,,,2,,,,,,,,,,,,,,,,,,,,,,,,,,,679.63101,125,right,0.58305,phone       ,3,9,-2,0,3,679.66433,679.66433,682.16082,0,47,47,47,1,125,5,3,giraffe     ,phone       ,html/resources/sequences_IDs/B/03_giraffe.jpg,html/resources/sequences_IDs/B/09_phone.jpg,3,9,1,1,4,2,2,7,0,1,,,,,,,,,,,,,,,,,,,,
,,,,,1,2020-07-01_09h31.29.650,retriever_ti,2020.1.3,Win32,60,Chrome,1536,864,,,,,,,,,,,,,,,,,2,,,,,,,,,,,,,,,,,,,,,,,,,,,682.779015,126,left,0.394355,radio       ,1,10,-7,0,3,682.81295,682.81295,685.308695,0,48,48,48,1,126,1,8,radio       ,clownfish     ,html/resources/sequences_IDs/B/10_radio.jpg,html/resources/sequences_IDs/A/04_clownfish.jpg,10,4,4,2,2,1,8,3,0,1,,,,,,,,,,,,,,,,,,,,
,,,,,1,2020-07-01_09h31.29.650,retriever_ti,2020.1.3,Win32,60,Chrome,1536,864,,,,,,,,,,,,,,,,,2,,,,,,,,,,,,,,,,,,,,,,,,,,,685.92565,127,left,0.53916,phone       ,3,9,-2,0,3,685.944215,685.944215,688.43825,0,49,49,49,1,127,3,5,phone       ,giraffe     ,html/resources/sequences_IDs/B/09_phone.jpg,html/resources/sequences_IDs/B/03_giraffe.jpg,9,3,4,2,1,1,7,2,0,1,,,,,,,,,,,,,,,,,,,,
,,,,,1,2020-07-01_09h31.29.650,retriever_ti,2020.1.3,Win32,60,Chrome,1536,864,,,,,,,,,,,,,,,,,2,,,,,,,,,,,,,,,,,,,,,,,,,,,689.05595,128,left,0.943905,phone       ,3,9,-1,0,1,689.089725,689.089725,691.58603,0,50,50,50,1,128,3,4,phone       ,seaturtle     ,html/resources/sequences_IDs/B/09_phone.jpg,html/resources/sequences_IDs/A/02_seaturtle.jpg,9,2,4,2,2,1,7,1,1,1,,,,,,,,,,,,,,,,,,,,
,,,,,1,2020-07-01_09h31.29.650,retriever_ti,2020.1.3,Win32,60,Chrome,1536,864,,,,,,,,,,,,,,,,,2,,,,,,,,,,,,,,,,,,,,,,,,,,,692.68668,129,right,1.38711,seaturtle     ,4,2,-1,0,0,692.70399,692.70399,695.198565,0,51,51,51,1,129,5,4,giraffe     ,seaturtle     ,html/resources/sequences_IDs/B/03_giraffe.jpg,html/resources/sequences_IDs/A/02_seaturtle.jpg,3,2,1,1,2,1,2,1,0,1,,,,,,,,,,,,,,,,,,,,
,,,,,1,2020-07-01_09h31.29.650,retriever_ti,2020.1.3,Win32,60,Chrome,1536,864,,,,,,,,,,,,,,,,,2,,,,,,,,,,,,,,,,,,,,,,,,,,,696.2977,130,right,0.51688,peacock       ,2,5,-3,0,3,696.31535,696.31535,698.81205,0,52,52,52,1,130,5,2,giraffe     ,peacock       ,html/resources/sequences_IDs/B/03_giraffe.jpg,html/resources/sequences_IDs/A/05_peacock.jpg,3,5,1,1,2,1,2,4,0,1,,,,,,,,,,,,,,,,,,,,
,,,,,1,2020-07-01_09h31.29.650,retriever_ti,2020.1.3,Win32,60,Chrome,1536,864,,,,,,,,,,,,,,,,,2,,,,,,,,,,,,,,,,,,,,,,,,,,,699.430295,131,right,2.276165,sport_tshirt,7,7,3,1,3,699.44742,699.44742,701.942115,0,53,53,53,1,131,4,7,seaturtle     ,sport_tshirt,html/resources/sequences_IDs/A/02_seaturtle.jpg,html/resources/sequences_IDs/B/07_sport_tshirt.jpg,2,7,2,1,3,2,1,5,0,1,,,,,,,,,,,,,,,,,,,,
,,,,,1,2020-07-01_09h31.29.650,retriever_ti,2020.1.3,Win32,60,Chrome,1536,864,,,,,,,,,,,,,,,,,2,,,,,,,,,,,,,,,,,,,,,,,,,,,702.560815,132,right,2.02266,peacock       ,2,5,1,1,1,702.59456,702.59456,705.088995,0,54,54,54,1,132,1,2,radio       ,peacock       ,html/resources/sequences_IDs/B/10_radio.jpg,html/resources/sequences_IDs/A/05_peacock.jpg,10,5,4,2,2,1,8,4,0,1,,,,,,,,,,,,,,,,,,,,
,,,,,1,2020-07-01_09h31.29.650,retriever_ti,2020.1.3,Win32,60,Chrome,1536,864,,,,,,,,,,,,,,,,,2,,,,,,,,,,,,,,,,,,,,,,,,,,,706.18848,133,right,0.29439,clownfish     ,8,4,6,1,3,706.206025,706.206025,708.70236,0,55,55,55,1,133,2,8,peacock       ,clownfish     ,html/resources/sequences_IDs/A/05_peacock.jpg,html/resources/sequences_IDs/A/04_clownfish.jpg,5,4,2,1,2,1,4,3,0,1,,,,,,,,,,,,,,,,,,,,
,,,,,1,2020-07-01_09h31.29.650,retriever_ti,2020.1.3,Win32,60,Chrome,1536,864,,,,,,,,,,,,,,,,,2,,,,,,,,,,,,,,,,,,,,,,,,,,,709.321265,134,left,0.329655,phone       ,3,9,1,1,1,709.35465,709.35465,711.84958,0,56,56,56,1,134,3,2,phone       ,peacock       ,html/resources/sequences_IDs/B/09_phone.jpg,html/resources/sequences_IDs/A/05_peacock.jpg,9,5,4,2,2,1,7,4,0,1,,,,,,,,,,,,,,,,,,,,
,,,,,1,2020-07-01_09h31.29.650,retriever_ti,2020.1.3,Win32,60,Chrome,1536,864,,,,,,,,,,,,,,,,,2,,,,,,,,,,,,,,,,,,,,,,,,,,,712.94934,135,left,0.559975,radio       ,1,10,-1,0,1,712.983035,712.983035,715.47979,0,57,57,57,1,135,1,2,radio       ,peacock       ,html/resources/sequences_IDs/B/10_radio.jpg,html/resources/sequences_IDs/A/05_peacock.jpg,10,5,4,2,2,1,8,4,1,1,,,,,,,,,,,,,,,,,,,,
,,,,,1,2020-07-01_09h31.29.650,retriever_ti,2020.1.3,Win32,60,Chrome,1536,864,,,,,,,,,,,,,,,,,2,,,,,,,,,,,,,,,,,,,,,,,,,,,716.579755,136,right,2.09657,peacock       ,2,5,-2,0,3,716.61391,716.61391,719.10934,0,58,58,58,1,136,4,2,seaturtle     ,peacock       ,html/resources/sequences_IDs/A/02_seaturtle.jpg,html/resources/sequences_IDs/A/05_peacock.jpg,2,5,2,1,2,1,1,4,0,1,,,,,,,,,,,,,,,,,,,,
,,,,,1,2020-07-01_09h31.29.650,retriever_ti,2020.1.3,Win32,60,Chrome,1536,864,,,,,,,,,,,,,,,,,2,,,,,,,,,,,,,,,,,,,,,,,,,,,719.726375,137,left,1.11084,phone       ,3,9,-3,0,3,719.76121,719.76121,722.256445,0,59,59,59,1,137,3,6,phone       ,hat           ,html/resources/sequences_IDs/B/09_phone.jpg,html/resources/sequences_IDs/A/08_hat.jpg,9,8,4,2,3,2,7,6,0,1,,,,,,,,,,,,,,,,,,,,
,,,,,1,2020-07-01_09h31.29.650,retriever_ti,2020.1.3,Win32,60,Chrome,1536,864,,,,,,,,,,,,,,,,,2,,,,,,,,,,,,,,,,,,,,,,,,,,,722.875045,138,right,1.032485,phone       ,3,9,-3,0,3,722.89203,722.89203,725.38723,0,60,60,60,1,138,6,3,hat           ,phone       ,html/resources/sequences_IDs/A/08_hat.jpg,html/resources/sequences_IDs/B/09_phone.jpg,8,9,3,2,4,2,6,7,0,1,,,,,,,,,,,,,,,,,,,,
,,,,,1,2020-07-01_09h31.29.650,retriever_ti,2020.1.3,Win32,60,Chrome,1536,864,,,,,,,,,,,,,,,,,2,,,,,,,,,,,,,,,,,,,,,,,,,,,726.004495,139,right,1.98834,seaturtle     ,4,2,-1,0,1,726.02249,726.02249,728.517045,0,61,61,61,1,139,5,4,giraffe     ,seaturtle     ,html/resources/sequences_IDs/B/03_giraffe.jpg,html/resources/sequences_IDs/A/02_seaturtle.jpg,3,2,1,1,2,1,2,1,1,1,,,,,,,,,,,,,,,,,,,,
,,,,,1,2020-07-01_09h31.29.650,retriever_ti,2020.1.3,Win32,60,Chrome,1536,864,,,,,,,,,,,,,,,,,2,,,,,,,,,,,,,,,,,,,,,,,,,,,729.61878,140,right,0.807355,hat           ,6,8,4,1,3,729.65232,729.65232,732.147175,0,62,62,62,1,140,2,6,peacock       ,hat           ,html/resources/sequences_IDs/A/05_peacock.jpg,html/resources/sequences_IDs/A/08_hat.jpg,5,8,2,1,3,2,4,6,0,1,,,,,,,,,,,,,,,,,,,,
,,,,,1,2020-07-01_09h31.29.650,retriever_ti,2020.1.3,Win32,60,Chrome,1536,864,,,,,,,,,,,,,,,,,2,,,,,,,,,,,,,,,,,,,,,,,,,,,732.765635,141,right,0.397095,peacock       ,2,5,-1,0,1,732.79929,732.79929,735.2951,0,63,63,63,1,141,3,2,phone       ,peacock       ,html/resources/sequences_IDs/B/09_phone.jpg,html/resources/sequences_IDs/A/05_peacock.jpg,9,5,4,2,2,1,7,4,1,1,,,,,,,,,,,,,,,,,,,,
,,,,,1,2020-07-01_09h31.29.650,retriever_ti,2020.1.3,Win32,60,Chrome,1536,864,,,,,,,,,,,,,,,,,2,,,,,,,,,,,,,,,,,,,,,,,,,,,736.394945,142,left,0.1704,sport_tshirt,7,7,-1,0,0,736.412995,736.412995,738.907905,0,64,64,64,1,142,7,8,sport_tshirt,clownfish     ,html/resources/sequences_IDs/B/07_sport_tshirt.jpg,html/resources/sequences_IDs/A/04_clownfish.jpg,7,4,3,2,2,1,5,3,0,1,,,,,,,,,,,,,,,,,,,,
,,,,,1,2020-07-01_09h31.29.650,retriever_ti,2020.1.3,Win32,60,Chrome,1536,864,,,,,,,,,,,,,,,,,2,,,,,,,,,,,,,,,,,,,,,,,,,,,740.00763,143,right,0.93248,phone       ,3,9,1,1,1,740.041115,740.041115,742.537665,0,65,65,65,1,143,2,3,peacock       ,phone       ,html/resources/sequences_IDs/A/05_peacock.jpg,html/resources/sequences_IDs/B/09_phone.jpg,5,9,2,1,4,2,4,7,0,1,,,,,,,,,,,,,,,,,,,,
,,,,,1,2020-07-01_09h31.29.650,retriever_ti,2020.1.3,Win32,60,Chrome,1536,864,,,,,,,,,,,,,,,,,2,,,,,,,,,,,,,,,,,,,,,,,,,,,743.63829,144,left,0.60823,phone       ,3,9,2,1,3,743.67208,743.67208,746.167815,0,66,66,66,1,144,3,1,phone       ,radio       ,html/resources/sequences_IDs/B/09_phone.jpg,html/resources/sequences_IDs/B/10_radio.jpg,9,10,4,2,4,2,7,8,0,1,,,,,,,,,,,,,,,,,,,,
,,,,,1,2020-07-01_09h31.29.650,retriever_ti,2020.1.3,Win32,60,Chrome,1536,864,,,,,,,,,,,,,,,,,2,,,,,,,,,,,,,,,,,,,,,,,,,,,746.786235,145,left,0.58559,phone       ,3,9,-1,0,0,746.819825,746.819825,749.314695,0,67,67,67,1,145,3,4,phone       ,seaturtle     ,html/resources/sequences_IDs/B/09_phone.jpg,html/resources/sequences_IDs/A/02_seaturtle.jpg,9,2,4,2,2,1,7,1,0,1,,,,,,,,,,,,,,,,,,,,
,,,,,1,2020-07-01_09h31.29.650,retriever_ti,2020.1.3,Win32,60,Chrome,1536,864,,,,,,,,,,,,,,,,,2,,,,,,,,,,,,,,,,,,,,,,,,,,,750.414575,146,right,0.437665,hat           ,6,8,5,1,3,750.44959,750.44959,752.944635,0,68,68,68,1,146,1,6,radio       ,hat           ,html/resources/sequences_IDs/B/10_radio.jpg,html/resources/sequences_IDs/A/08_hat.jpg,10,8,4,2,3,2,8,6,0,1,,,,,,,,,,,,,,,,,,,,
,,,,,1,2020-07-01_09h31.29.650,retriever_ti,2020.1.3,Win32,60,Chrome,1536,864,,,,,,,,,,,,,,,,,2,,,,,,,,,,,,,,,,,,,,,,,,,,,753.562565,147,right,1.0423,hat           ,6,8,-1,0,0,753.57937,753.57937,756.07496,0,69,69,69,1,147,7,6,sport_tshirt,hat           ,html/resources/sequences_IDs/B/07_sport_tshirt.jpg,html/resources/sequences_IDs/A/08_hat.jpg,7,8,3,2,3,2,5,6,0,1,,,,,,,,,,,,,,,,,,,,
,,,,,1,2020-07-01_09h31.29.650,retriever_ti,2020.1.3,Win32,60,Chrome,1536,864,,,,,,,,,,,,,,,,,2,,,,,,,,,,,,,,,,,,,,,,,,,,,757.175815,148,right,1.194075,seaturtle     ,4,2,2,1,3,757.2094,757.2094,759.704865,0,70,70,70,1,148,2,4,peacock       ,seaturtle     ,html/resources/sequences_IDs/A/05_peacock.jpg,html/resources/sequences_IDs/A/02_seaturtle.jpg,5,2,2,1,2,1,4,1,0,1,,,,,,,,,,,,,,,,,,,,
,,,,,1,2020-07-01_09h31.29.650,retriever_ti,2020.1.3,Win32,60,Chrome,1536,864,,,,,,,,,,,,,,,,,2,,,,,,,,,,,,,,,,,,,,,,,,,,,760.322045,149,NaN,NaN,No_response,NaN,NaN,NaN,2,2,760.35641,760.35641,762.851915,0,71,71,71,1,149,5,6,giraffe     ,hat           ,html/resources/sequences_IDs/B/03_giraffe.jpg,html/resources/sequences_IDs/A/08_hat.jpg,3,8,1,1,3,2,2,6,0,1,,,,,,,,,,,,,,,,,,,,
,,,,,1,2020-07-01_09h31.29.650,retriever_ti,2020.1.3,Win32,60,Chrome,1536,864,,,,,,,,,,,,,,,,,2,,,,,,,,,,,,,,,,,,,,,,,,,,,763.95358,150,right,0.28507,radio       ,1,10,-7,0,3,763.97044,763.97044,766.464835,0,72,72,72,1,150,8,1,clownfish     ,radio       ,html/resources/sequences_IDs/A/04_clownfish.jpg,html/resources/sequences_IDs/B/10_radio.jpg,4,10,2,1,4,2,3,8,0,1,,,,,,,,,,,,,,,,,,,,
,,,,,1,2020-07-01_09h31.29.650,retriever_ti,2020.1.3,Win32,60,Chrome,1536,864,,,,,,,,,,,,,,,,,2,,,,,,,,,,,,,,,,,,,,,,,,,,,767.082,151,right,0.35593,seaturtle     ,4,2,-4,0,3,767.09873,767.09873,769.59519,0,73,73,73,1,151,8,4,clownfish     ,seaturtle     ,html/resources/sequences_IDs/A/04_clownfish.jpg,html/resources/sequences_IDs/A/02_seaturtle.jpg,4,2,2,1,2,1,3,1,0,1,,,,,,,,,,,,,,,,,,,,
,,,,,1,2020-07-01_09h31.29.650,retriever_ti,2020.1.3,Win32,60,Chrome,1536,864,,,,,,,,,,,,,,,,,2,,,,,,,,,,,,,,,,,,,,,,,,,,,770.21174,152,right,0.634265,clownfish     ,8,4,1,1,1,770.229095,770.229095,772.72591,0,74,74,74,1,152,7,8,sport_tshirt,clownfish     ,html/resources/sequences_IDs/B/07_sport_tshirt.jpg,html/resources/sequences_IDs/A/04_clownfish.jpg,7,4,3,2,2,1,5,3,0,1,,,,,,,,,,,,,,,,,,,,
,,,,,1,2020-07-01_09h31.29.650,retriever_ti,2020.1.3,Win32,60,Chrome,1536,864,,,,,,,,,,,,,,,,,2,,,,,,,,,,,,,,,,,,,,,,,,,,,773.827235,153,left,0.717,hat           ,6,8,1,1,0,773.844015,773.844015,776.33976,0,75,75,75,1,153,6,5,hat           ,giraffe     ,html/resources/sequences_IDs/A/08_hat.jpg,html/resources/sequences_IDs/B/03_giraffe.jpg,8,3,3,2,1,1,6,2,1,1,,,,,,,,,,,,,,,,,,,,
,,,,,1,2020-07-01_09h31.29.650,retriever_ti,2020.1.3,Win32,60,Chrome,1536,864,,,,,,,,,,,,,,,,,2,,,,,,,,,,,,,,,,,,,,,,,,,,,777.44037,154,left,0.42848,sport_tshirt,7,7,-1,0,1,777.457125,777.457125,779.952475,0,76,76,76,1,154,7,8,sport_tshirt,clownfish     ,html/resources/sequences_IDs/B/07_sport_tshirt.jpg,html/resources/sequences_IDs/A/04_clownfish.jpg,7,4,3,2,2,1,5,3,1,1,,,,,,,,,,,,,,,,,,,,
,,,,,1,2020-07-01_09h31.29.650,retriever_ti,2020.1.3,Win32,60,Chrome,1536,864,,,,,,,,,,,,,,,,,,,,,,,,,,,,,,,,,,,,,0,1.97368,,,,,,,,,,,,,,,,,,,,,,,,,,,,,,,,,,,,,,,,,1,0,1,0,1,,,,,,,,,,,,,,,
,,,,,1,2020-07-01_09h31.29.650,retriever_ti,2020.1.3,Win32,60,Chrome,1536,864,,,,,,,,,,,,,,,,,3,,,,,,,,,,,,,,,,,,,,,,,,,,,877.070575,155,left,0.812505,sport_tshirt,7,7,3,1,3,877.163045,877.163045,879.659395,0,0,0,0,1,155,7,4,sport_tshirt,seaturtle     ,html/resources/sequences_IDs/B/07_sport_tshirt.jpg,html/resources/sequences_IDs/A/02_seaturtle.jpg,7,2,3,2,2,1,5,1,0,1,,,,,,,,,,,,,,,,,,,,
,,,,,1,2020-07-01_09h31.29.650,retriever_ti,2020.1.3,Win32,60,Chrome,1536,864,,,,,,,,,,,,,,,,,3,,,,,,,,,,,,,,,,,,,,,,,,,,,880.276735,156,left,0.982895,radio       ,1,10,-7,0,3,880.29461,880.29461,882.790345,0,1,1,1,1,156,1,8,radio       ,clownfish     ,html/resources/sequences_IDs/B/10_radio.jpg,html/resources/sequences_IDs/A/04_clownfish.jpg,10,4,4,2,2,1,8,3,0,1,,,,,,,,,,,,,,,,,,,,
,,,,,1,2020-07-01_09h31.29.650,retriever_ti,2020.1.3,Win32,60,Chrome,1536,864,,,,,,,,,,,,,,,,,3,,,,,,,,,,,,,,,,,,,,,,,,,,,883.40792,157,right,0.74757,hat           ,6,8,3,1,3,883.42506,883.42506,885.920455,0,2,2,2,1,157,3,6,phone       ,hat           ,html/resources/sequences_IDs/B/09_phone.jpg,html/resources/sequences_IDs/A/08_hat.jpg,9,8,4,2,3,2,7,6,0,1,,,,,,,,,,,,,,,,,,,,
,,,,,1,2020-07-01_09h31.29.650,retriever_ti,2020.1.3,Win32,60,Chrome,1536,864,,,,,,,,,,,,,,,,,3,,,,,,,,,,,,,,,,,,,,,,,,,,,886.537645,158,right,0.80898,hat           ,6,8,1,1,1,886.572425,886.572425,889.06709,0,3,3,3,1,158,5,6,giraffe     ,hat           ,html/resources/sequences_IDs/B/03_giraffe.jpg,html/resources/sequences_IDs/A/08_hat.jpg,3,8,1,1,3,2,2,6,0,1,,,,,,,,,,,,,,,,,,,,
,,,,,1,2020-07-01_09h31.29.650,retriever_ti,2020.1.3,Win32,60,Chrome,1536,864,,,,,,,,,,,,,,,,,3,,,,,,,,,,,,,,,,,,,,,,,,,,,890.16886,159,left,0.547095,phone       ,3,9,-1,0,0,890.185805,890.185805,892.681235,0,4,4,4,1,159,3,4,phone       ,seaturtle     ,html/resources/sequences_IDs/B/09_phone.jpg,html/resources/sequences_IDs/A/02_seaturtle.jpg,9,2,4,2,2,1,7,1,0,1,,,,,,,,,,,,,,,,,,,,
,,,,,1,2020-07-01_09h31.29.650,retriever_ti,2020.1.3,Win32,60,Chrome,1536,864,,,,,,,,,,,,,,,,,3,,,,,,,,,,,,,,,,,,,,,,,,,,,893.78271,160,right,0.47697,phone       ,3,9,-4,0,3,893.8165,893.8165,896.310705,0,5,5,5,1,160,7,3,sport_tshirt,phone       ,html/resources/sequences_IDs/B/07_sport_tshirt.jpg,html/resources/sequences_IDs/B/09_phone.jpg,7,9,3,2,4,2,5,7,0,1,,,,,,,,,,,,,,,,,,,,
,,,,,1,2020-07-01_09h31.29.650,retriever_ti,2020.1.3,Win32,60,Chrome,1536,864,,,,,,,,,,,,,,,,,3,,,,,,,,,,,,,,,,,,,,,,,,,,,896.92779,161,right,0.346755,seaturtle     ,4,2,-1,0,0,896.94602,896.94602,899.441815,0,6,6,6,1,161,5,4,giraffe     ,seaturtle     ,html/resources/sequences_IDs/B/03_giraffe.jpg,html/resources/sequences_IDs/A/02_seaturtle.jpg,3,2,1,1,2,1,2,1,0,1,,,,,,,,,,,,,,,,,,,,
,,,,,1,2020-07-01_09h31.29.650,retriever_ti,2020.1.3,Win32,60,Chrome,1536,864,,,,,,,,,,,,,,,,,3,,,,,,,,,,,,,,,,,,,,,,,,,,,900.542535,162,left,0.4952,hat           ,6,8,4,1,3,900.55963,900.55963,903.053955,0,7,7,7,1,162,6,2,hat           ,peacock       ,html/resources/sequences_IDs/A/08_hat.jpg,html/resources/sequences_IDs/A/05_peacock.jpg,8,5,3,2,2,1,6,4,0,1,,,,,,,,,,,,,,,,,,,,
,,,,,1,2020-07-01_09h31.29.650,retriever_ti,2020.1.3,Win32,60,Chrome,1536,864,,,,,,,,,,,,,,,,,3,,,,,,,,,,,,,,,,,,,,,,,,,,,903.673035,163,left,0.776935,clownfish     ,8,4,1,1,1,903.689575,903.689575,906.184785,0,8,8,8,1,163,8,7,clownfish     ,sport_tshirt,html/resources/sequences_IDs/A/04_clownfish.jpg,html/resources/sequences_IDs/B/07_sport_tshirt.jpg,4,7,2,1,3,2,3,5,0,1,,,,,,,,,,,,,,,,,,,,
,,,,,1,2020-07-01_09h31.29.650,retriever_ti,2020.1.3,Win32,60,Chrome,1536,864,,,,,,,,,,,,,,,,,3,,,,,,,,,,,,,,,,,,,,,,,,,,,907.285615,164,left,0.921575,phone       ,3,9,1,1,1,907.302625,907.302625,909.79816,0,9,9,9,1,164,3,2,phone       ,peacock       ,html/resources/sequences_IDs/B/09_phone.jpg,html/resources/sequences_IDs/A/05_peacock.jpg,9,5,4,2,2,1,7,4,0,1,,,,,,,,,,,,,,,,,,,,
,,,,,1,2020-07-01_09h31.29.650,retriever_ti,2020.1.3,Win32,60,Chrome,1536,864,,,,,,,,,,,,,,,,,3,,,,,,,,,,,,,,,,,,,,,,,,,,,910.89783,165,right,0.695205,clownfish     ,8,4,4,1,3,910.93259,910.93259,913.428195,0,10,10,10,1,165,4,8,seaturtle     ,clownfish     ,html/resources/sequences_IDs/A/02_seaturtle.jpg,html/resources/sequences_IDs/A/04_clownfish.jpg,2,4,2,1,2,1,1,3,0,1,,,,,,,,,,,,,,,,,,,,
,,,,,1,2020-07-01_09h31.29.650,retriever_ti,2020.1.3,Win32,60,Chrome,1536,864,,,,,,,,,,,,,,,,,3,,,,,,,,,,,,,,,,,,,,,,,,,,,914.04689,166,left,0.8287,seaturtle     ,4,2,1,1,0,914.063605,914.063605,916.55894,0,11,11,11,1,166,4,3,seaturtle     ,phone       ,html/resources/sequences_IDs/A/02_seaturtle.jpg,html/resources/sequences_IDs/B/09_phone.jpg,2,9,2,1,4,2,1,7,1,1,,,,,,,,,,,,,,,,,,,,
,,,,,1,2020-07-01_09h31.29.650,retriever_ti,2020.1.3,Win32,60,Chrome,1536,864,,,,,,,,,,,,,,,,,3,,,,,,,,,,,,,,,,,,,,,,,,,,,917.66043,167,right,0.914675,radio       ,1,10,-3,0,3,917.67783,917.67783,920.172535,0,12,12,12,1,167,4,1,seaturtle     ,radio       ,html/resources/sequences_IDs/A/02_seaturtle.jpg,html/resources/sequences_IDs/B/10_radio.jpg,2,10,2,1,4,2,1,8,0,1,,,,,,,,,,,,,,,,,,,,
,,,,,1,2020-07-01_09h31.29.650,retriever_ti,2020.1.3,Win32,60,Chrome,1536,864,,,,,,,,,,,,,,,,,3,,,,,,,,,,,,,,,,,,,,,,,,,,,920.78953,168,left,0.92881,clownfish     ,8,4,3,1,3,920.807815,920.807815,923.302255,0,13,13,13,1,168,8,5,clownfish     ,giraffe     ,html/resources/sequences_IDs/A/04_clownfish.jpg,html/resources/sequences_IDs/B/03_giraffe.jpg,4,3,2,1,1,1,3,2,0,1,,,,,,,,,,,,,,,,,,,,
,,,,,1,2020-07-01_09h31.29.650,retriever_ti,2020.1.3,Win32,60,Chrome,1536,864,,,,,,,,,,,,,,,,,3,,,,,,,,,,,,,,,,,,,,,,,,,,,923.92076,169,left,1.206655,clownfish     ,8,4,5,1,3,923.937445,923.937445,926.432375,0,14,14,14,1,169,8,3,clownfish     ,phone       ,html/resources/sequences_IDs/A/04_clownfish.jpg,html/resources/sequences_IDs/B/09_phone.jpg,4,9,2,1,4,2,3,7,0,1,,,,,,,,,,,,,,,,,,,,
,,,,,1,2020-07-01_09h31.29.650,retriever_ti,2020.1.3,Win32,60,Chrome,1536,864,,,,,,,,,,,,,,,,,3,,,,,,,,,,,,,,,,,,,,,,,,,,,927.048625,170,right,1.053835,sport_tshirt,7,7,2,1,3,927.06658,927.06658,929.562555,0,15,15,15,1,170,5,7,giraffe     ,sport_tshirt,html/resources/sequences_IDs/B/03_giraffe.jpg,html/resources/sequences_IDs/B/07_sport_tshirt.jpg,3,7,1,1,3,2,2,5,0,1,,,,,,,,,,,,,,,,,,,,
,,,,,1,2020-07-01_09h31.29.650,retriever_ti,2020.1.3,Win32,60,Chrome,1536,864,,,,,,,,,,,,,,,,,3,,,,,,,,,,,,,,,,,,,,,,,,,,,930.181395,171,left,0.6909,radio       ,1,10,-4,0,3,930.213095,930.213095,932.70977,0,16,16,16,1,171,1,5,radio       ,giraffe     ,html/resources/sequences_IDs/B/10_radio.jpg,html/resources/sequences_IDs/B/03_giraffe.jpg,10,3,4,2,1,1,8,2,0,1,,,,,,,,,,,,,,,,,,,,
,,,,,1,2020-07-01_09h31.29.650,retriever_ti,2020.1.3,Win32,60,Chrome,1536,864,,,,,,,,,,,,,,,,,3,,,,,,,,,,,,,,,,,,,,,,,,,,,933.32853,172,left,0.459565,seaturtle     ,4,2,2,1,3,933.345495,933.345495,935.840595,0,17,17,17,1,172,4,2,seaturtle     ,peacock       ,html/resources/sequences_IDs/A/02_seaturtle.jpg,html/resources/sequences_IDs/A/05_peacock.jpg,2,5,2,1,2,1,1,4,0,1,,,,,,,,,,,,,,,,,,,,
,,,,,1,2020-07-01_09h31.29.650,retriever_ti,2020.1.3,Win32,60,Chrome,1536,864,,,,,,,,,,,,,,,,,3,,,,,,,,,,,,,,,,,,,,,,,,,,,936.457705,173,left,0.828205,phone       ,3,9,-5,0,3,936.49228,936.49228,938.9881,0,18,18,18,1,173,3,8,phone       ,clownfish     ,html/resources/sequences_IDs/B/09_phone.jpg,html/resources/sequences_IDs/A/04_clownfish.jpg,9,4,4,2,2,1,7,3,0,1,,,,,,,,,,,,,,,,,,,,
,,,,,1,2020-07-01_09h31.29.650,retriever_ti,2020.1.3,Win32,60,Chrome,1536,864,,,,,,,,,,,,,,,,,3,,,,,,,,,,,,,,,,,,,,,,,,,,,939.60654,174,left,0.46463,sport_tshirt,7,7,1,1,0,939.623395,939.623395,942.117775,0,19,19,19,1,174,7,6,sport_tshirt,hat           ,html/resources/sequences_IDs/B/07_sport_tshirt.jpg,html/resources/sequences_IDs/A/08_hat.jpg,7,8,3,2,3,2,5,6,1,1,,,,,,,,,,,,,,,,,,,,
,,,,,1,2020-07-01_09h31.29.650,retriever_ti,2020.1.3,Win32,60,Chrome,1536,864,,,,,,,,,,,,,,,,,3,,,,,,,,,,,,,,,,,,,,,,,,,,,943.217335,175,right,0.341375,radio       ,1,10,-4,0,3,943.234145,943.234145,945.730835,0,20,20,20,1,175,5,1,giraffe     ,radio       ,html/resources/sequences_IDs/B/03_giraffe.jpg,html/resources/sequences_IDs/B/10_radio.jpg,3,10,1,1,4,2,2,8,0,1,,,,,,,,,,,,,,,,,,,,
,,,,,1,2020-07-01_09h31.29.650,retriever_ti,2020.1.3,Win32,60,Chrome,1536,864,,,,,,,,,,,,,,,,,3,,,,,,,,,,,,,,,,,,,,,,,,,,,946.34802,176,right,0.25833,sport_tshirt,7,7,-1,0,0,946.366025,946.366025,948.861275,0,21,21,21,1,176,8,7,clownfish     ,sport_tshirt,html/resources/sequences_IDs/A/04_clownfish.jpg,html/resources/sequences_IDs/B/07_sport_tshirt.jpg,4,7,2,1,3,2,3,5,0,1,,,,,,,,,,,,,,,,,,,,
,,,,,1,2020-07-01_09h31.29.650,retriever_ti,2020.1.3,Win32,60,Chrome,1536,864,,,,,,,,,,,,,,,,,3,,,,,,,,,,,,,,,,,,,,,,,,,,,949.96108,177,left,0.4235,sport_tshirt,7,7,2,1,3,949.994495,949.994495,952.49269,0,22,22,22,1,177,7,5,sport_tshirt,giraffe     ,html/resources/sequences_IDs/B/07_sport_tshirt.jpg,html/resources/sequences_IDs/B/03_giraffe.jpg,7,3,3,2,1,1,5,2,0,1,,,,,,,,,,,,,,,,,,,,
,,,,,1,2020-07-01_09h31.29.650,retriever_ti,2020.1.3,Win32,60,Chrome,1536,864,,,,,,,,,,,,,,,,,3,,,,,,,,,,,,,,,,,,,,,,,,,,,953.109235,178,left,0.56151,phone       ,3,9,1,1,1,953.14394,953.14394,955.63952,0,23,23,23,1,178,3,2,phone       ,peacock       ,html/resources/sequences_IDs/B/09_phone.jpg,html/resources/sequences_IDs/A/05_peacock.jpg,9,5,4,2,2,1,7,4,0,1,,,,,,,,,,,,,,,,,,,,
,,,,,1,2020-07-01_09h31.29.650,retriever_ti,2020.1.3,Win32,60,Chrome,1536,864,,,,,,,,,,,,,,,,,3,,,,,,,,,,,,,,,,,,,,,,,,,,,956.740515,179,left,0.399095,seaturtle     ,4,2,-1,0,0,956.757615,956.757615,959.25204,0,24,24,24,1,179,4,5,seaturtle     ,giraffe     ,html/resources/sequences_IDs/A/02_seaturtle.jpg,html/resources/sequences_IDs/B/03_giraffe.jpg,2,3,2,1,1,1,1,2,0,1,,,,,,,,,,,,,,,,,,,,
,,,,,1,2020-07-01_09h31.29.650,retriever_ti,2020.1.3,Win32,60,Chrome,1536,864,,,,,,,,,,,,,,,,,3,,,,,,,,,,,,,,,,,,,,,,,,,,,960.353285,180,right,0.44082,giraffe     ,5,3,-1,0,0,960.38703,960.38703,962.881975,0,25,25,25,1,180,6,5,hat           ,giraffe     ,html/resources/sequences_IDs/A/08_hat.jpg,html/resources/sequences_IDs/B/03_giraffe.jpg,8,3,3,2,1,1,6,2,0,1,,,,,,,,,,,,,,,,,,,,
,,,,,1,2020-07-01_09h31.29.650,retriever_ti,2020.1.3,Win32,60,Chrome,1536,864,,,,,,,,,,,,,,,,,3,,,,,,,,,,,,,,,,,,,,,,,,,,,963.983245,181,right,0.43231,phone       ,3,9,1,1,1,964.016805,964.016805,966.512415,0,26,26,26,1,181,2,3,peacock       ,phone       ,html/resources/sequences_IDs/A/05_peacock.jpg,html/resources/sequences_IDs/B/09_phone.jpg,5,9,2,1,4,2,4,7,0,1,,,,,,,,,,,,,,,,,,,,
,,,,,1,2020-07-01_09h31.29.650,retriever_ti,2020.1.3,Win32,60,Chrome,1536,864,,,,,,,,,,,,,,,,,3,,,,,,,,,,,,,,,,,,,,,,,,,,,967.612935,182,left,0.417155,radio       ,1,10,-3,0,3,967.646925,967.646925,970.14231,0,27,27,27,1,182,1,4,radio       ,seaturtle     ,html/resources/sequences_IDs/B/10_radio.jpg,html/resources/sequences_IDs/A/02_seaturtle.jpg,10,2,4,2,2,1,8,1,0,1,,,,,,,,,,,,,,,,,,,,
,,,,,1,2020-07-01_09h31.29.650,retriever_ti,2020.1.3,Win32,60,Chrome,1536,864,,,,,,,,,,,,,,,,,3,,,,,,,,,,,,,,,,,,,,,,,,,,,970.759145,183,left,0.57559,seaturtle     ,4,2,-1,0,0,970.777335,970.777335,973.272165,0,28,28,28,1,183,4,5,seaturtle     ,giraffe     ,html/resources/sequences_IDs/A/02_seaturtle.jpg,html/resources/sequences_IDs/B/03_giraffe.jpg,2,3,2,1,1,1,1,2,0,1,,,,,,,,,,,,,,,,,,,,
,,,,,1,2020-07-01_09h31.29.650,retriever_ti,2020.1.3,Win32,60,Chrome,1536,864,,,,,,,,,,,,,,,,,3,,,,,,,,,,,,,,,,,,,,,,,,,,,974.37349,184,right,0.69973,giraffe     ,5,3,2,1,3,974.390485,974.390485,976.88542,0,29,29,29,1,184,3,5,phone       ,giraffe     ,html/resources/sequences_IDs/B/09_phone.jpg,html/resources/sequences_IDs/B/03_giraffe.jpg,9,3,4,2,1,1,7,2,0,1,,,,,,,,,,,,,,,,,,,,
,,,,,1,2020-07-01_09h31.29.650,retriever_ti,2020.1.3,Win32,60,Chrome,1536,864,,,,,,,,,,,,,,,,,3,,,,,,,,,,,,,,,,,,,,,,,,,,,977.503955,185,right,0.64356,clownfish     ,8,4,2,1,3,977.537525,977.537525,980.03233,0,30,30,30,1,185,6,8,hat           ,clownfish     ,html/resources/sequences_IDs/A/08_hat.jpg,html/resources/sequences_IDs/A/04_clownfish.jpg,8,4,3,2,2,1,6,3,0,1,,,,,,,,,,,,,,,,,,,,
,,,,,1,2020-07-01_09h31.29.650,retriever_ti,2020.1.3,Win32,60,Chrome,1536,864,,,,,,,,,,,,,,,,,3,,,,,,,,,,,,,,,,,,,,,,,,,,,980.649805,186,right,0.61938,radio       ,1,10,-1,0,0,980.66789,980.66789,983.163475,0,31,31,31,1,186,2,1,peacock       ,radio       ,html/resources/sequences_IDs/A/05_peacock.jpg,html/resources/sequences_IDs/B/10_radio.jpg,5,10,2,1,4,2,4,8,0,1,,,,,,,,,,,,,,,,,,,,
,,,,,1,2020-07-01_09h31.29.650,retriever_ti,2020.1.3,Win32,60,Chrome,1536,864,,,,,,,,,,,,,,,,,3,,,,,,,,,,,,,,,,,,,,,,,,,,,984.26481,187,left,0.4017,clownfish     ,8,4,6,1,3,984.28187,984.28187,986.77677,0,32,32,32,1,187,8,2,clownfish     ,peacock       ,html/resources/sequences_IDs/A/04_clownfish.jpg,html/resources/sequences_IDs/A/05_peacock.jpg,4,5,2,1,2,1,3,4,0,1,,,,,,,,,,,,,,,,,,,,
,,,,,1,2020-07-01_09h31.29.650,retriever_ti,2020.1.3,Win32,60,Chrome,1536,864,,,,,,,,,,,,,,,,,3,,,,,,,,,,,,,,,,,,,,,,,,,,,987.393785,188,right,0.27874,clownfish     ,8,4,1,1,1,987.41099,987.41099,989.906865,0,33,33,33,1,188,7,8,sport_tshirt,clownfish     ,html/resources/sequences_IDs/B/07_sport_tshirt.jpg,html/resources/sequences_IDs/A/04_clownfish.jpg,7,4,3,2,2,1,5,3,0,1,,,,,,,,,,,,,,,,,,,,
,,,,,1,2020-07-01_09h31.29.650,retriever_ti,2020.1.3,Win32,60,Chrome,1536,864,,,,,,,,,,,,,,,,,3,,,,,,,,,,,,,,,,,,,,,,,,,,,991.007375,189,left,0.32388,hat           ,6,8,3,1,3,991.04234,991.04234,993.536905,0,34,34,34,1,189,6,3,hat           ,phone       ,html/resources/sequences_IDs/A/08_hat.jpg,html/resources/sequences_IDs/B/09_phone.jpg,8,9,3,2,4,2,6,7,0,1,,,,,,,,,,,,,,,,,,,,
,,,,,1,2020-07-01_09h31.29.650,retriever_ti,2020.1.3,Win32,60,Chrome,1536,864,,,,,,,,,,,,,,,,,3,,,,,,,,,,,,,,,,,,,,,,,,,,,994.15567,190,left,0.247825,sport_tshirt,7,7,1,1,1,994.18922,994.18922,996.68355,0,35,35,35,1,190,7,6,sport_tshirt,hat           ,html/resources/sequences_IDs/B/07_sport_tshirt.jpg,html/resources/sequences_IDs/A/08_hat.jpg,7,8,3,2,3,2,5,6,0,1,,,,,,,,,,,,,,,,,,,,
,,,,,1,2020-07-01_09h31.29.650,retriever_ti,2020.1.3,Win32,60,Chrome,1536,864,,,,,,,,,,,,,,,,,3,,,,,,,,,,,,,,,,,,,,,,,,,,,997.785025,191,right,0.186495,phone       ,3,9,-1,0,0,997.818575,997.818575,1000.31339,0,36,36,36,1,191,4,3,seaturtle     ,phone       ,html/resources/sequences_IDs/A/02_seaturtle.jpg,html/resources/sequences_IDs/B/09_phone.jpg,2,9,2,1,4,2,1,7,0,1,,,,,,,,,,,,,,,,,,,,
,,,,,1,2020-07-01_09h31.29.650,retriever_ti,2020.1.3,Win32,60,Chrome,1536,864,,,,,,,,,,,,,,,,,3,,,,,,,,,,,,,,,,,,,,,,,,,,,1001.41488,192,left,0.343225,giraffe     ,5,3,2,1,3,1001.431815,1001.431815,1003.92644,0,37,37,37,1,192,5,3,giraffe     ,phone       ,html/resources/sequences_IDs/B/03_giraffe.jpg,html/resources/sequences_IDs/B/09_phone.jpg,3,9,1,1,4,2,2,7,0,1,,,,,,,,,,,,,,,,,,,,
,,,,,1,2020-07-01_09h31.29.650,retriever_ti,2020.1.3,Win32,60,Chrome,1536,864,,,,,,,,,,,,,,,,,3,,,,,,,,,,,,,,,,,,,,,,,,,,,1004.54346,193,right,0.77072,sport_tshirt,7,7,6,1,3,1004.57725,1004.57725,1007.07338,0,38,38,38,1,193,1,7,radio       ,sport_tshirt,html/resources/sequences_IDs/B/10_radio.jpg,html/resources/sequences_IDs/B/07_sport_tshirt.jpg,10,7,4,2,3,2,8,5,0,1,,,,,,,,,,,,,,,,,,,,
,,,,,1,2020-07-01_09h31.29.650,retriever_ti,2020.1.3,Win32,60,Chrome,1536,864,,,,,,,,,,,,,,,,,3,,,,,,,,,,,,,,,,,,,,,,,,,,,1007.69052,194,right,0.41699,radio       ,1,10,-1,0,1,1007.724135,1007.724135,1010.22084,0,39,39,39,1,194,2,1,peacock       ,radio       ,html/resources/sequences_IDs/A/05_peacock.jpg,html/resources/sequences_IDs/B/10_radio.jpg,5,10,2,1,4,2,4,8,1,1,,,,,,,,,,,,,,,,,,,,
,,,,,1,2020-07-01_09h31.29.650,retriever_ti,2020.1.3,Win32,60,Chrome,1536,864,,,,,,,,,,,,,,,,,3,,,,,,,,,,,,,,,,,,,,,,,,,,,1011.32107,195,right,0.356365,phone       ,3,9,1,1,1,1011.35532,1011.35532,1013.85048,0,40,40,40,1,195,2,3,peacock       ,phone       ,html/resources/sequences_IDs/A/05_peacock.jpg,html/resources/sequences_IDs/B/09_phone.jpg,5,9,2,1,4,2,4,7,0,1,,,,,,,,,,,,,,,,,,,,
,,,,,1,2020-07-01_09h31.29.650,retriever_ti,2020.1.3,Win32,60,Chrome,1536,864,,,,,,,,,,,,,,,,,3,,,,,,,,,,,,,,,,,,,,,,,,,,,1014.950955,196,right,0.22647,hat           ,6,8,-2,0,3,1014.986075,1014.986075,1017.48049,0,41,41,41,1,196,8,6,clownfish     ,hat           ,html/resources/sequences_IDs/A/04_clownfish.jpg,html/resources/sequences_IDs/A/08_hat.jpg,4,8,2,1,3,2,3,6,0,1,,,,,,,,,,,,,,,,,,,,
,,,,,1,2020-07-01_09h31.29.650,retriever_ti,2020.1.3,Win32,60,Chrome,1536,864,,,,,,,,,,,,,,,,,3,,,,,,,,,,,,,,,,,,,,,,,,,,,1018.098955,197,right,0.230935,hat           ,6,8,5,1,3,1018.132755,1018.132755,1020.62773,0,42,42,42,1,197,1,6,radio       ,hat           ,html/resources/sequences_IDs/B/10_radio.jpg,html/resources/sequences_IDs/A/08_hat.jpg,10,8,4,2,3,2,8,6,0,1,,,,,,,,,,,,,,,,,,,,
,,,,,1,2020-07-01_09h31.29.650,retriever_ti,2020.1.3,Win32,60,Chrome,1536,864,,,,,,,,,,,,,,,,,3,,,,,,,,,,,,,,,,,,,,,,,,,,,1021.24514,198,left,0.571895,sport_tshirt,7,7,6,1,3,1021.279785,1021.279785,1023.7745,0,43,43,43,1,198,7,1,sport_tshirt,radio       ,html/resources/sequences_IDs/B/07_sport_tshirt.jpg,html/resources/sequences_IDs/B/10_radio.jpg,7,10,3,2,4,2,5,8,0,1,,,,,,,,,,,,,,,,,,,,
,,,,,1,2020-07-01_09h31.29.650,retriever_ti,2020.1.3,Win32,60,Chrome,1536,864,,,,,,,,,,,,,,,,,3,,,,,,,,,,,,,,,,,,,,,,,,,,,1024.393415,199,right,0.408425,giraffe     ,5,3,1,1,0,1024.41033,1024.41033,1026.905,0,44,44,44,1,199,4,5,seaturtle     ,giraffe     ,html/resources/sequences_IDs/A/02_seaturtle.jpg,html/resources/sequences_IDs/B/03_giraffe.jpg,2,3,2,1,1,1,1,2,1,1,,,,,,,,,,,,,,,,,,,,
,,,,,1,2020-07-01_09h31.29.650,retriever_ti,2020.1.3,Win32,60,Chrome,1536,864,,,,,,,,,,,,,,,,,3,,,,,,,,,,,,,,,,,,,,,,,,,,,1028.00525,200,left,0.134855,giraffe     ,5,3,-1,0,1,1028.02232,1028.02232,1030.51818,0,45,45,45,1,200,5,6,giraffe     ,hat           ,html/resources/sequences_IDs/B/03_giraffe.jpg,html/resources/sequences_IDs/A/08_hat.jpg,3,8,1,1,3,2,2,6,1,1,,,,,,,,,,,,,,,,,,,,
,,,,,1,2020-07-01_09h31.29.650,retriever_ti,2020.1.3,Win32,60,Chrome,1536,864,,,,,,,,,,,,,,,,,3,,,,,,,,,,,,,,,,,,,,,,,,,,,1031.61985,201,right,0.28063,sport_tshirt,7,7,3,1,3,1031.65342,1031.65342,1034.148435,0,46,46,46,1,201,4,7,seaturtle     ,sport_tshirt,html/resources/sequences_IDs/A/02_seaturtle.jpg,html/resources/sequences_IDs/B/07_sport_tshirt.jpg,2,7,2,1,3,2,1,5,0,1,,,,,,,,,,,,,,,,,,,,
,,,,,1,2020-07-01_09h31.29.650,retriever_ti,2020.1.3,Win32,60,Chrome,1536,864,,,,,,,,,,,,,,,,,3,,,,,,,,,,,,,,,,,,,,,,,,,,,1034.765825,202,right,0.395205,seaturtle     ,4,2,1,1,1,1034.78398,1034.78398,1037.27977,0,47,47,47,1,202,3,4,phone       ,seaturtle     ,html/resources/sequences_IDs/B/09_phone.jpg,html/resources/sequences_IDs/A/02_seaturtle.jpg,9,2,4,2,2,1,7,1,0,1,,,,,,,,,,,,,,,,,,,,
,,,,,1,2020-07-01_09h31.29.650,retriever_ti,2020.1.3,Win32,60,Chrome,1536,864,,,,,,,,,,,,,,,,,3,,,,,,,,,,,,,,,,,,,,,,,,,,,1038.37981,203,left,0.26934,seaturtle     ,4,2,-2,0,3,1038.397015,1038.397015,1040.89243,0,48,48,48,1,203,4,6,seaturtle     ,hat           ,html/resources/sequences_IDs/A/02_seaturtle.jpg,html/resources/sequences_IDs/A/08_hat.jpg,2,8,2,1,3,2,1,6,0,1,,,,,,,,,,,,,,,,,,,,
,,,,,1,2020-07-01_09h31.29.650,retriever_ti,2020.1.3,Win32,60,Chrome,1536,864,,,,,,,,,,,,,,,,,3,,,,,,,,,,,,,,,,,,,,,,,,,,,1041.51023,204,right,0.32472,seaturtle     ,4,2,-4,0,3,1041.527195,1041.527195,1044.02241,0,49,49,49,1,204,8,4,clownfish     ,seaturtle     ,html/resources/sequences_IDs/A/04_clownfish.jpg,html/resources/sequences_IDs/A/02_seaturtle.jpg,4,2,2,1,2,1,3,1,0,1,,,,,,,,,,,,,,,,,,,,
,,,,,1,2020-07-01_09h31.29.650,retriever_ti,2020.1.3,Win32,60,Chrome,1536,864,,,,,,,,,,,,,,,,,3,,,,,,,,,,,,,,,,,,,,,,,,,,,1044.63997,205,right,0.28134,seaturtle     ,4,2,-1,0,0,1044.675005,1044.675005,1047.16975,0,50,50,50,1,205,5,4,giraffe     ,seaturtle     ,html/resources/sequences_IDs/B/03_giraffe.jpg,html/resources/sequences_IDs/A/02_seaturtle.jpg,3,2,1,1,2,1,2,1,0,1,,,,,,,,,,,,,,,,,,,,
,,,,,1,2020-07-01_09h31.29.650,retriever_ti,2020.1.3,Win32,60,Chrome,1536,864,,,,,,,,,,,,,,,,,3,,,,,,,,,,,,,,,,,,,,,,,,,,,1048.270985,206,right,0.399625,hat           ,6,8,4,1,3,1048.287845,1048.287845,1050.78284,0,51,51,51,1,206,2,6,peacock       ,hat           ,html/resources/sequences_IDs/A/05_peacock.jpg,html/resources/sequences_IDs/A/08_hat.jpg,5,8,2,1,3,2,4,6,0,1,,,,,,,,,,,,,,,,,,,,
,,,,,1,2020-07-01_09h31.29.650,retriever_ti,2020.1.3,Win32,60,Chrome,1536,864,,,,,,,,,,,,,,,,,3,,,,,,,,,,,,,,,,,,,,,,,,,,,1051.40143,207,right,0.359855,sport_tshirt,7,7,5,1,3,1051.435125,1051.435125,1053.930215,0,52,52,52,1,207,2,7,peacock       ,sport_tshirt,html/resources/sequences_IDs/A/05_peacock.jpg,html/resources/sequences_IDs/B/07_sport_tshirt.jpg,5,7,2,1,3,2,4,5,0,1,,,,,,,,,,,,,,,,,,,,
,,,,,1,2020-07-01_09h31.29.650,retriever_ti,2020.1.3,Win32,60,Chrome,1536,864,,,,,,,,,,,,,,,,,3,,,,,,,,,,,,,,,,,,,,,,,,,,,1054.547265,208,left,0.410615,hat           ,6,8,-1,0,0,1054.565305,1054.565305,1057.061165,0,53,53,53,1,208,6,7,hat           ,sport_tshirt,html/resources/sequences_IDs/A/08_hat.jpg,html/resources/sequences_IDs/B/07_sport_tshirt.jpg,8,7,3,2,3,2,6,5,0,1,,,,,,,,,,,,,,,,,,,,
,,,,,1,2020-07-01_09h31.29.650,retriever_ti,2020.1.3,Win32,60,Chrome,1536,864,,,,,,,,,,,,,,,,,3,,,,,,,,,,,,,,,,,,,,,,,,,,,1058.162005,209,right,1.829995,seaturtle     ,4,2,-2,0,3,1058.178595,1058.178595,1060.67356,0,54,54,54,1,209,6,4,hat           ,seaturtle     ,html/resources/sequences_IDs/A/08_hat.jpg,html/resources/sequences_IDs/A/02_seaturtle.jpg,8,2,3,2,2,1,6,1,0,1,,,,,,,,,,,,,,,,,,,,
,,,,,1,2020-07-01_09h31.29.650,retriever_ti,2020.1.3,Win32,60,Chrome,1536,864,,,,,,,,,,,,,,,,,3,,,,,,,,,,,,,,,,,,,,,,,,,,,1061.290805,210,NaN,NaN,No_response,NaN,NaN,NaN,2,2,1061.32585,1061.32585,1063.821675,0,55,55,55,1,210,4,3,seaturtle     ,phone       ,html/resources/sequences_IDs/A/02_seaturtle.jpg,html/resources/sequences_IDs/B/09_phone.jpg,2,9,2,1,4,2,1,7,0,1,,,,,,,,,,,,,,,,,,,,
,,,,,1,2020-07-01_09h31.29.650,retriever_ti,2020.1.3,Win32,60,Chrome,1536,864,,,,,,,,,,,,,,,,,3,,,,,,,,,,,,,,,,,,,,,,,,,,,1064.922195,211,right,0.078945,radio       ,1,10,-2,0,3,1064.939035,1064.939035,1067.43479,0,56,56,56,1,211,3,1,phone       ,radio       ,html/resources/sequences_IDs/B/09_phone.jpg,html/resources/sequences_IDs/B/10_radio.jpg,9,10,4,2,4,2,7,8,0,1,,,,,,,,,,,,,,,,,,,,
,,,,,1,2020-07-01_09h31.29.650,retriever_ti,2020.1.3,Win32,60,Chrome,1536,864,,,,,,,,,,,,,,,,,3,,,,,,,,,,,,,,,,,,,,,,,,,,,1068.05255,212,left,0.499115,sport_tshirt,7,7,5,1,3,1068.06929,1068.06929,1070.565025,0,57,57,57,1,212,7,2,sport_tshirt,peacock       ,html/resources/sequences_IDs/B/07_sport_tshirt.jpg,html/resources/sequences_IDs/A/05_peacock.jpg,7,5,3,2,2,1,5,4,0,1,,,,,,,,,,,,,,,,,,,,
,,,,,1,2020-07-01_09h31.29.650,retriever_ti,2020.1.3,Win32,60,Chrome,1536,864,,,,,,,,,,,,,,,,,3,,,,,,,,,,,,,,,,,,,,,,,,,,,1071.18223,213,left,0.341395,hat           ,6,8,1,1,1,1071.21726,1071.21726,1073.711585,0,58,58,58,1,213,6,5,hat           ,giraffe     ,html/resources/sequences_IDs/A/08_hat.jpg,html/resources/sequences_IDs/B/03_giraffe.jpg,8,3,3,2,1,1,6,2,0,1,,,,,,,,,,,,,,,,,,,,
,,,,,1,2020-07-01_09h31.29.650,retriever_ti,2020.1.3,Win32,60,Chrome,1536,864,,,,,,,,,,,,,,,,,3,,,,,,,,,,,,,,,,,,,,,,,,,,,1074.81301,214,right,0.39212,hat           ,6,8,-1,0,0,1074.846445,1074.846445,1077.341265,0,59,59,59,1,214,7,6,sport_tshirt,hat           ,html/resources/sequences_IDs/B/07_sport_tshirt.jpg,html/resources/sequences_IDs/A/08_hat.jpg,7,8,3,2,3,2,5,6,0,1,,,,,,,,,,,,,,,,,,,,
,,,,,1,2020-07-01_09h31.29.650,retriever_ti,2020.1.3,Win32,60,Chrome,1536,864,,,,,,,,,,,,,,,,,3,,,,,,,,,,,,,,,,,,,,,,,,,,,1078.442155,215,left,0.40042,peacock       ,2,5,-6,0,3,1078.47576,1078.47576,1080.971975,0,60,60,60,1,215,2,8,peacock       ,clownfish     ,html/resources/sequences_IDs/A/05_peacock.jpg,html/resources/sequences_IDs/A/04_clownfish.jpg,5,4,2,1,2,1,4,3,0,1,,,,,,,,,,,,,,,,,,,,
,,,,,1,2020-07-01_09h31.29.650,retriever_ti,2020.1.3,Win32,60,Chrome,1536,864,,,,,,,,,,,,,,,,,3,,,,,,,,,,,,,,,,,,,,,,,,,,,1081.59044,216,right,0.5292,peacock       ,2,5,1,1,1,1081.62417,1081.62417,1084.11915,0,61,61,61,1,216,1,2,radio       ,peacock       ,html/resources/sequences_IDs/B/10_radio.jpg,html/resources/sequences_IDs/A/05_peacock.jpg,10,5,4,2,2,1,8,4,0,1,,,,,,,,,,,,,,,,,,,,
,,,,,1,2020-07-01_09h31.29.650,retriever_ti,2020.1.3,Win32,60,Chrome,1536,864,,,,,,,,,,,,,,,,,3,,,,,,,,,,,,,,,,,,,,,,,,,,,1085.2189,217,left,0.49616,giraffe     ,5,3,3,1,3,1085.23689,1085.23689,1087.731695,0,62,62,62,1,217,5,2,giraffe     ,peacock       ,html/resources/sequences_IDs/B/03_giraffe.jpg,html/resources/sequences_IDs/A/05_peacock.jpg,3,5,1,1,2,1,2,4,0,1,,,,,,,,,,,,,,,,,,,,
,,,,,1,2020-07-01_09h31.29.650,retriever_ti,2020.1.3,Win32,60,Chrome,1536,864,,,,,,,,,,,,,,,,,3,,,,,,,,,,,,,,,,,,,,,,,,,,,1088.35027,218,left,0.561555,radio       ,1,10,-2,0,3,1088.36726,1088.36726,1090.86267,0,63,63,63,1,218,1,3,radio       ,phone       ,html/resources/sequences_IDs/B/10_radio.jpg,html/resources/sequences_IDs/B/09_phone.jpg,10,9,4,2,4,2,8,7,0,1,,,,,,,,,,,,,,,,,,,,
,,,,,1,2020-07-01_09h31.29.650,retriever_ti,2020.1.3,Win32,60,Chrome,1536,864,,,,,,,,,,,,,,,,,3,,,,,,,,,,,,,,,,,,,,,,,,,,,1091.47951,219,right,0.40532,radio       ,1,10,-7,0,3,1091.514105,1091.514105,1094.0093,0,64,64,64,1,219,8,1,clownfish     ,radio       ,html/resources/sequences_IDs/A/04_clownfish.jpg,html/resources/sequences_IDs/B/10_radio.jpg,4,10,2,1,4,2,3,8,0,1,,,,,,,,,,,,,,,,,,,,
,,,,,1,2020-07-01_09h31.29.650,retriever_ti,2020.1.3,Win32,60,Chrome,1536,864,,,,,,,,,,,,,,,,,3,,,,,,,,,,,,,,,,,,,,,,,,,,,1094.627665,220,left,0.617705,peacock       ,2,5,-2,0,3,1094.661095,1094.661095,1097.15599,0,65,65,65,1,220,2,4,peacock       ,seaturtle     ,html/resources/sequences_IDs/A/05_peacock.jpg,html/resources/sequences_IDs/A/02_seaturtle.jpg,5,2,2,1,2,1,4,1,0,1,,,,,,,,,,,,,,,,,,,,
,,,,,1,2020-07-01_09h31.29.650,retriever_ti,2020.1.3,Win32,60,Chrome,1536,864,,,,,,,,,,,,,,,,,3,,,,,,,,,,,,,,,,,,,,,,,,,,,1097.774435,221,right,0.624025,radio       ,1,10,-1,0,0,1097.80804,1097.80804,1100.303095,0,66,66,66,1,221,2,1,peacock       ,radio       ,html/resources/sequences_IDs/A/05_peacock.jpg,html/resources/sequences_IDs/B/10_radio.jpg,5,10,2,1,4,2,4,8,0,1,,,,,,,,,,,,,,,,,,,,
,,,,,1,2020-07-01_09h31.29.650,retriever_ti,2020.1.3,Win32,60,Chrome,1536,864,,,,,,,,,,,,,,,,,3,,,,,,,,,,,,,,,,,,,,,,,,,,,1101.40313,222,right,0.434455,giraffe     ,5,3,3,1,3,1101.437875,1101.437875,1103.93333,0,67,67,67,1,222,2,5,peacock       ,giraffe     ,html/resources/sequences_IDs/A/05_peacock.jpg,html/resources/sequences_IDs/B/03_giraffe.jpg,5,3,2,1,1,1,4,2,0,1,,,,,,,,,,,,,,,,,,,,
,,,,,1,2020-07-01_09h31.29.650,retriever_ti,2020.1.3,Win32,60,Chrome,1536,864,,,,,,,,,,,,,,,,,3,,,,,,,,,,,,,,,,,,,,,,,,,,,1104.5519,223,right,0.2726,phone       ,3,9,1,1,0,1104.56872,1104.56872,1107.06373,0,68,68,68,1,223,2,3,peacock       ,phone       ,html/resources/sequences_IDs/A/05_peacock.jpg,html/resources/sequences_IDs/B/09_phone.jpg,5,9,2,1,4,2,4,7,1,1,,,,,,,,,,,,,,,,,,,,
