instructionsLoop.thisRepN,instructionsLoop.thisTrialN,instructionsLoop.thisN,instructionsLoop.thisIndex,instructionsLoop.ran,participant,date,expName,psychopyVersion,OS,frameRate,browser,xResolution,yResolution,fix_onset,tprac,practiceKey.keys,practiceKey.rt,pracitem_chosen_name,acc_practice,P1_onsetPrac,P2_onsetPrac,onsetFeedbPrac,practiceTrials.thisRepN,practiceTrials.thisTrialN,practiceTrials.thisN,practiceTrials.thisIndex,practiceTrials.ran,P1,P2,Block,LocItem1,LocItem2,NameItem1,NameItem2,key_respAC_prac.keys,key_respAC_prac.corr,key_respAC_prac.rt,AC_acc,Attentions.thisRepN,Attentions.thisTrialN,Attentions.thisN,Attentions.thisIndex,Attentions.ran,Stim,Loc1,Loc2,Loc3,Loc4,CorrAns,keyDisturbed.keys,keyDisturbed.rt,repPractice.thisRepN,repPractice.thisTrialN,repPractice.thisN,repPractice.thisIndex,repPractice.ran,fixcross_onsetMain,trialNumber,key_resp.keys,key_resp.rt,item_chosen_name,item_chosen_value,item_chosen_ID,diff_chosen_minus_reject,acc_real,acc_feedback,P1_onset,P2_onset,feedb_onset,trials.thisRepN,trials.thisTrialN,trials.thisN,trials.thisIndex,trials.ran,Trial,ValueP1,ValueP2,P1name,P2name,P1Loc,P2Loc,P1id,P2id,Micro_categoryP1,Macro_categoryP1,Micro_categoryP2,Macro_categoryP2,ID_sequenceP1,ID_sequenceP2,InverseFb,pNumber,repBlocks.thisRepN,repBlocks.thisTrialN,repBlocks.thisN,repBlocks.thisIndex,repBlocks.ran,key_respAC.keys,key_respAC.corr,key_respAC.rt,trials_AC.thisRepN,trials_AC.thisTrialN,trials_AC.thisN,trials_AC.thisIndex,trials_AC.ran,Bonus,BonusLoop.thisRepN,BonusLoop.thisTrialN,BonusLoop.thisN,BonusLoop.thisIndex,BonusLoop.ran,comments
0,0,0,0,1,20,2020-07-01_10h35.20.973,retriever_ti,2020.1.3,Win32,60,Chrome,1536,864,,,,,,,,,,,,,,,,,,,,,,,,,,,,,,,,,,,,,,,,,,,,,,,,,,,,,,,,,,,,,,,,,,,,,,,,,,,,,,,,,,,,,,,,,,,,,,,,,,
1,0,1,0,1,20,2020-07-01_10h35.20.973,retriever_ti,2020.1.3,Win32,60,Chrome,1536,864,,,,,,,,,,,,,,,,,,,,,,,,,,,,,,,,,,,,,,,,,,,,,,,,,,,,,,,,,,,,,,,,,,,,,,,,,,,,,,,,,,,,,,,,,,,,,,,,,,
2,0,2,0,1,20,2020-07-01_10h35.20.973,retriever_ti,2020.1.3,Win32,60,Chrome,1536,864,,,,,,,,,,,,,,,,,,,,,,,,,,,,,,,,,,,,,,,,,,,,,,,,,,,,,,,,,,,,,,,,,,,,,,,,,,,,,,,,,,,,,,,,,,,,,,,,,,
3,0,3,0,1,20,2020-07-01_10h35.20.973,retriever_ti,2020.1.3,Win32,60,Chrome,1536,864,,,,,,,,,,,,,,,,,,,,,,,,,,,,,,,,,,,,,,,,,,,,,,,,,,,,,,,,,,,,,,,,,,,,,,,,,,,,,,,,,,,,,,,,,,,,,,,,,,
4,0,4,0,1,20,2020-07-01_10h35.20.973,retriever_ti,2020.1.3,Win32,60,Chrome,1536,864,,,,,,,,,,,,,,,,,,,,,,,,,,,,,,,,,,,,,,,,,,,,,,,,,,,,,,,,,,,,,,,,,,,,,,,,,,,,,,,,,,,,,,,,,,,,,,,,,,
5,0,5,0,1,20,2020-07-01_10h35.20.973,retriever_ti,2020.1.3,Win32,60,Chrome,1536,864,,,,,,,,,,,,,,,,,,,,,,,,,,,,,,,,,,,,,,,,,,,,,,,,,,,,,,,,,,,,,,,,,,,,,,,,,,,,,,,,,,,,,,,,,,,,,,,,,,
6,0,6,0,1,20,2020-07-01_10h35.20.973,retriever_ti,2020.1.3,Win32,60,Chrome,1536,864,,,,,,,,,,,,,,,,,,,,,,,,,,,,,,,,,,,,,,,,,,,,,,,,,,,,,,,,,,,,,,,,,,,,,,,,,,,,,,,,,,,,,,,,,,,,,,,,,,
7,0,7,0,1,20,2020-07-01_10h35.20.973,retriever_ti,2020.1.3,Win32,60,Chrome,1536,864,,,,,,,,,,,,,,,,,,,,,,,,,,,,,,,,,,,,,,,,,,,,,,,,,,,,,,,,,,,,,,,,,,,,,,,,,,,,,,,,,,,,,,,,,,,,,,,,,,
8,0,8,0,1,20,2020-07-01_10h35.20.973,retriever_ti,2020.1.3,Win32,60,Chrome,1536,864,,,,,,,,,,,,,,,,,,,,,,,,,,,,,,,,,,,,,,,,,,,,,,,,,,,,,,,,,,,,,,,,,,,,,,,,,,,,,,,,,,,,,,,,,,,,,,,,,,
9,0,9,0,1,20,2020-07-01_10h35.20.973,retriever_ti,2020.1.3,Win32,60,Chrome,1536,864,,,,,,,,,,,,,,,,,,,,,,,,,,,,,,,,,,,,,,,,,,,,,,,,,,,,,,,,,,,,,,,,,,,,,,,,,,,,,,,,,,,,,,,,,,,,,,,,,,
10,0,10,0,1,20,2020-07-01_10h35.20.973,retriever_ti,2020.1.3,Win32,60,Chrome,1536,864,,,,,,,,,,,,,,,,,,,,,,,,,,,,,,,,,,,,,,,,,,,,,,,,,,,,,,,,,,,,,,,,,,,,,,,,,,,,,,,,,,,,,,,,,,,,,,,,,,
11,0,11,0,1,20,2020-07-01_10h35.20.973,retriever_ti,2020.1.3,Win32,60,Chrome,1536,864,,,,,,,,,,,,,,,,,,,,,,,,,,,,,,,,,,,,,,,,,,,,,,,,,,,,,,,,,,,,,,,,,,,,,,,,,,,,,,,,,,,,,,,,,,,,,,,,,,
12,0,12,0,1,20,2020-07-01_10h35.20.973,retriever_ti,2020.1.3,Win32,60,Chrome,1536,864,,,,,,,,,,,,,,,,,,,,,,,,,,,,,,,,,,,,,,,,,,,,,,,,,,,,,,,,,,,,,,,,,,,,,,,,,,,,,,,,,,,,,,,,,,,,,,,,,,
13,0,13,0,1,20,2020-07-01_10h35.20.973,retriever_ti,2020.1.3,Win32,60,Chrome,1536,864,,,,,,,,,,,,,,,,,,,,,,,,,,,,,,,,,,,,,,,,,,,,,,,,,,,,,,,,,,,,,,,,,,,,,,,,,,,,,,,,,,,,,,,,,,,,,,,,,,
14,0,14,0,1,20,2020-07-01_10h35.20.973,retriever_ti,2020.1.3,Win32,60,Chrome,1536,864,,,,,,,,,,,,,,,,,,,,,,,,,,,,,,,,,,,,,,,,,,,,,,,,,,,,,,,,,,,,,,,,,,,,,,,,,,,,,,,,,,,,,,,,,,,,,,,,,,
15,0,15,0,1,20,2020-07-01_10h35.20.973,retriever_ti,2020.1.3,Win32,60,Chrome,1536,864,,,,,,,,,,,,,,,,,,,,,,,,,,,,,,,,,,,,,,,,,,,,,,,,,,,,,,,,,,,,,,,,,,,,,,,,,,,,,,,,,,,,,,,,,,,,,,,,,,
16,0,16,0,1,20,2020-07-01_10h35.20.973,retriever_ti,2020.1.3,Win32,60,Chrome,1536,864,,,,,,,,,,,,,,,,,,,,,,,,,,,,,,,,,,,,,,,,,,,,,,,,,,,,,,,,,,,,,,,,,,,,,,,,,,,,,,,,,,,,,,,,,,,,,,,,,,
17,0,17,0,1,20,2020-07-01_10h35.20.973,retriever_ti,2020.1.3,Win32,60,Chrome,1536,864,,,,,,,,,,,,,,,,,,,,,,,,,,,,,,,,,,,,,,,,,,,,,,,,,,,,,,,,,,,,,,,,,,,,,,,,,,,,,,,,,,,,,,,,,,,,,,,,,,
18,0,18,0,1,20,2020-07-01_10h35.20.973,retriever_ti,2020.1.3,Win32,60,Chrome,1536,864,,,,,,,,,,,,,,,,,,,,,,,,,,,,,,,,,,,,,,,,,,,,,,,,,,,,,,,,,,,,,,,,,,,,,,,,,,,,,,,,,,,,,,,,,,,,,,,,,,
,,,,,20,2020-07-01_10h35.20.973,retriever_ti,2020.1.3,Win32,60,Chrome,1536,864,273.239005,1,NaN,NaN,No_response,2,273.277065,273.277065,275.775415,0,0,0,0,1,2,5,1,html/resources/stimuli_practice_decision/04_beetle.jpg,html/resources/stimuli_practice_decision/02_canary.jpg,beetle,canary,,,,,,,,,,,,,,,,,,,,,,,,,,,,,,,,,,,,,,,,,,,,,,,,,,,,,,,,,,,,,,,,,,,,,,,,,,,,,
,,,,,20,2020-07-01_10h35.20.973,retriever_ti,2020.1.3,Win32,60,Chrome,1536,864,276.31201,2,right,0.871245,sock,0,276.342025,276.342025,278.84011,0,1,1,1,1,4,3,1,html/resources/stimuli_practice_decision/01_rabbit.jpg,html/resources/stimuli_practice_decision/07_sock.jpg,rabbit,sock,,,,,,,,,,,,,,,,,,,,,,,,,,,,,,,,,,,,,,,,,,,,,,,,,,,,,,,,,,,,,,,,,,,,,,,,,,,,,
,,,,,20,2020-07-01_10h35.20.973,retriever_ti,2020.1.3,Win32,60,Chrome,1536,864,279.840315,3,right,1.086405,beetle,0,279.857595,279.857595,282.355365,0,2,2,2,1,6,2,1,html/resources/stimuli_practice_decision/06_pullover.jpg,html/resources/stimuli_practice_decision/04_beetle.jpg,pullover,beetle,,,,,,,,,,,,,,,,,,,,,,,,,,,,,,,,,,,,,,,,,,,,,,,,,,,,,,,,,,,,,,,,,,,,,,,,,,,,,
,,,,,20,2020-07-01_10h35.20.973,retriever_ti,2020.1.3,Win32,60,Chrome,1536,864,282.871965,4,right,1.104635,handmixer,0,282.905715,282.905715,285.403915,0,3,3,3,1,7,1,1,html/resources/stimuli_practice_decision/05_glasses.jpg,html/resources/stimuli_practice_decision/08_handmixer.jpg,glasses,handmixer,,,,,,,,,,,,,,,,,,,,,,,,,,,,,,,,,,,,,,,,,,,,,,,,,,,,,,,,,,,,,,,,,,,,,,,,,,,,,
,,,,,20,2020-07-01_10h35.20.973,retriever_ti,2020.1.3,Win32,60,Chrome,1536,864,285.920765,5,left,0.700265,glasses,1,285.93771,285.93771,288.435835,0,4,4,4,1,7,6,1,html/resources/stimuli_practice_decision/05_glasses.jpg,html/resources/stimuli_practice_decision/06_pullover.jpg,glasses,pullover,,,,,,,,,,,,,,,,,,,,,,,,,,,,,,,,,,,,,,,,,,,,,,,,,,,,,,,,,,,,,,,,,,,,,,,,,,,,,
,,,,,20,2020-07-01_10h35.20.973,retriever_ti,2020.1.3,Win32,60,Chrome,1536,864,289.4361,6,right,1.16086,glasses,1,289.452765,289.452765,291.95095,0,5,5,5,1,4,7,1,html/resources/stimuli_practice_decision/01_rabbit.jpg,html/resources/stimuli_practice_decision/05_glasses.jpg,rabbit,glasses,,,,,,,,,,,,,,,,,,,,,,,,,,,,,,,,,,,,,,,,,,,,,,,,,,,,,,,,,,,,,,,,,,,,,,,,,,,,,
,,,,,20,2020-07-01_10h35.20.973,retriever_ti,2020.1.3,Win32,60,Chrome,1536,864,292.46759,7,left,1.192825,handmixer,0,292.501305,292.501305,294.999615,0,6,6,6,1,1,2,1,html/resources/stimuli_practice_decision/08_handmixer.jpg,html/resources/stimuli_practice_decision/04_beetle.jpg,handmixer,beetle,,,,,,,,,,,,,,,,,,,,,,,,,,,,,,,,,,,,,,,,,,,,,,,,,,,,,,,,,,,,,,,,,,,,,,,,,,,,,
,,,,,20,2020-07-01_10h35.20.973,retriever_ti,2020.1.3,Win32,60,Chrome,1536,864,295.99978,8,left,1.58629,rabbit,1,296.032945,296.032945,298.53131,0,7,7,7,1,4,3,1,html/resources/stimuli_practice_decision/01_rabbit.jpg,html/resources/stimuli_practice_decision/07_sock.jpg,rabbit,sock,,,,,,,,,,,,,,,,,,,,,,,,,,,,,,,,,,,,,,,,,,,,,,,,,,,,,,,,,,,,,,,,,,,,,,,,,,,,,
,,,,,20,2020-07-01_10h35.20.973,retriever_ti,2020.1.3,Win32,60,Chrome,1536,864,,,,,,,,,,,,,,,,,,,,,,up,1,3.58831,1,0,0,0,0,1,html/resources/sequences_IDs/circle.png,circle ↑,square →,triangle ↓,← star ,up,,,,,,,,,,,,,,,,,,,,,,,,,,,,,,,,,,,,,,,,,,,,,,,,,,,,,,,,,,,,,,
,,,,,20,2020-07-01_10h35.20.973,retriever_ti,2020.1.3,Win32,60,Chrome,1536,864,,,,,,,,,,,,,,,,,,,,,,down,1,2.2422,1,0,1,1,3,1,html/resources/sequences_IDs/triangle.png,star ↑,square →,triangle ↓,← circle,down,,,,,,,,,,,,,,,,,,,,,,,,,,,,,,,,,,,,,,,,,,,,,,,,,,,,,,,,,,,,,,
,,,,,20,2020-07-01_10h35.20.973,retriever_ti,2020.1.3,Win32,60,Chrome,1536,864,,,,,,,,,,,,,,,,,,,,,,down,1,2.11509,1,0,2,2,1,1,html/resources/sequences_IDs/star.png,square ↑,circle →,star ↓,← triangle,down,,,,,,,,,,,,,,,,,,,,,,,,,,,,,,,,,,,,,,,,,,,,,,,,,,,,,,,,,,,,,,
,,,,,20,2020-07-01_10h35.20.973,retriever_ti,2020.1.3,Win32,60,Chrome,1536,864,,,,,,,,,,,,,,,,,,,,,,left,1,1.674745,1,0,3,3,2,1,html/resources/sequences_IDs/square1.png,star ↑,triangle →,circle ↓,← square,left,,,,,,,,,,,,,,,,,,,,,,,,,,,,,,,,,,,,,,,,,,,,,,,,,,,,,,,,,,,,,,
,,,,,20,2020-07-01_10h35.20.973,retriever_ti,2020.1.3,Win32,60,Chrome,1536,864,,,,,,,,,,,,,,,,,,,,,,,,,,,,,,,,,,,,,1,9.642925,0,0,0,0,1,,,,,,,,,,,,,,,,,,,,,,,,,,,,,,,,,,,,,,,,,,,,,,,,,,,,,,,
,,,,,20,2020-07-01_10h35.20.973,retriever_ti,2020.1.3,Win32,60,Chrome,1536,864,326.728965,9,right,1.07065,glasses,1,326.752725,326.752725,329.25065,0,0,0,0,1,6,7,1,html/resources/stimuli_practice_decision/06_pullover.jpg,html/resources/stimuli_practice_decision/05_glasses.jpg,pullover,glasses,,,,,,,,,,,,,,,,,,,,,,,,,,,,,,,,,,,,,,,,,,,,,,,,,,,,,,,,,,,,,,,,,,,,,,,,,,,,,
,,,,,20,2020-07-01_10h35.20.973,retriever_ti,2020.1.3,Win32,60,Chrome,1536,864,330.25053,10,left,1.7466,pullover,1,330.267385,330.267385,332.765715,0,1,1,1,1,6,2,1,html/resources/stimuli_practice_decision/06_pullover.jpg,html/resources/stimuli_practice_decision/04_beetle.jpg,pullover,beetle,,,,,,,,,,,,,,,,,,,,,,,,,,,,,,,,,,,,,,,,,,,,,,,,,,,,,,,,,,,,,,,,,,,,,,,,,,,,,
,,,,,20,2020-07-01_10h35.20.973,retriever_ti,2020.1.3,Win32,60,Chrome,1536,864,333.282665,11,right,1.781025,pullover,1,333.299535,333.299535,335.7977,0,2,2,2,1,5,6,1,html/resources/stimuli_practice_decision/02_canary.jpg,html/resources/stimuli_practice_decision/06_pullover.jpg,canary,pullover,,,,,,,,,,,,,,,,,,,,,,,,,,,,,,,,,,,,,,,,,,,,,,,,,,,,,,,,,,,,,,,,,,,,,,,,,,,,,
,,,,,20,2020-07-01_10h35.20.973,retriever_ti,2020.1.3,Win32,60,Chrome,1536,864,336.79763,12,right,1.19214,glasses,0,336.81456,336.81456,339.312765,0,3,3,3,1,8,7,1,html/resources/stimuli_practice_decision/03_squirrel.jpg,html/resources/stimuli_practice_decision/05_glasses.jpg,squirrel,glasses,,,,,,,,,,,,,,,,,,,,,,,,,,,,,,,,,,,,,,,,,,,,,,,,,,,,,,,,,,,,,,,,,,,,,,,,,,,,,
,,,,,20,2020-07-01_10h35.20.973,retriever_ti,2020.1.3,Win32,60,Chrome,1536,864,340.312575,13,left,2.246155,canary,1,340.346195,340.346195,342.84455,0,4,4,4,1,5,3,1,html/resources/stimuli_practice_decision/02_canary.jpg,html/resources/stimuli_practice_decision/07_sock.jpg,canary,sock,,,,,,,,,,,,,,,,,,,,,,,,,,,,,,,,,,,,,,,,,,,,,,,,,,,,,,,,,,,,,,,,,,,,,,,,,,,,,
,,,,,20,2020-07-01_10h35.20.973,retriever_ti,2020.1.3,Win32,60,Chrome,1536,864,343.36151,14,left,1.772205,glasses,0,343.395095,343.395095,345.89316,0,5,5,5,1,7,8,1,html/resources/stimuli_practice_decision/05_glasses.jpg,html/resources/stimuli_practice_decision/03_squirrel.jpg,glasses,squirrel,,,,,,,,,,,,,,,,,,,,,,,,,,,,,,,,,,,,,,,,,,,,,,,,,,,,,,,,,,,,,,,,,,,,,,,,,,,,,
,,,,,20,2020-07-01_10h35.20.973,retriever_ti,2020.1.3,Win32,60,Chrome,1536,864,346.89331,15,NaN,NaN,No_response,2,346.909955,346.909955,349.40819,0,6,6,6,1,5,4,1,html/resources/stimuli_practice_decision/02_canary.jpg,html/resources/stimuli_practice_decision/01_rabbit.jpg,canary,rabbit,,,,,,,,,,,,,,,,,,,,,,,,,,,,,,,,,,,,,,,,,,,,,,,,,,,,,,,,,,,,,,,,,,,,,,,,,,,,,
,,,,,20,2020-07-01_10h35.20.973,retriever_ti,2020.1.3,Win32,60,Chrome,1536,864,350.407945,16,left,1.31676,canary,1,350.441755,350.441755,352.93988,0,7,7,7,1,5,3,1,html/resources/stimuli_practice_decision/02_canary.jpg,html/resources/stimuli_practice_decision/07_sock.jpg,canary,sock,,,,,,,,,,,,,,,,,,,,,,,,,,,,,,,,,,,,,,,,,,,,,,,,,,,,,,,,,,,,,,,,,,,,,,,,,,,,,
,,,,,20,2020-07-01_10h35.20.973,retriever_ti,2020.1.3,Win32,60,Chrome,1536,864,,,,,,,,,,,,,,,,,,,,,,down,1,2.366555,1,0,0,0,1,1,html/resources/sequences_IDs/star.png,square ↑,circle →,star ↓,← triangle,down,,,,,,,,,,,,,,,,,,,,,,,,,,,,,,,,,,,,,,,,,,,,,,,,,,,,,,,,,,,,,,
,,,,,20,2020-07-01_10h35.20.973,retriever_ti,2020.1.3,Win32,60,Chrome,1536,864,,,,,,,,,,,,,,,,,,,,,,up,1,1.25571,1,0,1,1,0,1,html/resources/sequences_IDs/circle.png,circle ↑,square →,triangle ↓,← star ,up,,,,,,,,,,,,,,,,,,,,,,,,,,,,,,,,,,,,,,,,,,,,,,,,,,,,,,,,,,,,,,
,,,,,20,2020-07-01_10h35.20.973,retriever_ti,2020.1.3,Win32,60,Chrome,1536,864,,,,,,,,,,,,,,,,,,,,,,down,1,1.86819,1,0,2,2,3,1,html/resources/sequences_IDs/triangle.png,star ↑,square →,triangle ↓,← circle,down,,,,,,,,,,,,,,,,,,,,,,,,,,,,,,,,,,,,,,,,,,,,,,,,,,,,,,,,,,,,,,
,,,,,20,2020-07-01_10h35.20.973,retriever_ti,2020.1.3,Win32,60,Chrome,1536,864,,,,,,,,,,,,,,,,,,,,,,left,1,1.168775,1,0,3,3,2,1,html/resources/sequences_IDs/square1.png,star ↑,triangle →,circle ↓,← square,left,,,,,,,,,,,,,,,,,,,,,,,,,,,,,,,,,,,,,,,,,,,,,,,,,,,,,,,,,,,,,,
,,,,,20,2020-07-01_10h35.20.973,retriever_ti,2020.1.3,Win32,60,Chrome,1536,864,,,,,,,,,,,,,,,,,,,,,,,,,,,,,,,,,,,,,0,4.173355,1,0,1,0,1,,,,,,,,,,,,,,,,,,,,,,,,,,,,,,,,,,,,,,,,,,,,,,,,,,,,,,,
,,,,,20,2020-07-01_10h35.20.973,retriever_ti,2020.1.3,Win32,60,Chrome,1536,864,,,,,,,,,,,,,,,,,1,,,,,,,,,,,,,,,,,,,,,,,,,,,379.31273,1,left,1.056025,scarf         ,3,6,1,1,1,379.34563,379.34563,381.84396,0,0,0,0,1,1,3,2,scarf         ,dolphin     ,html/resources/sequences_IDs/A/06_scarf.jpg,html/resources/sequences_IDs/B/02_dolphin.jpg,6,2,3,2,1,1,5,2,0,20,,,,,,,,,,,,,,,,,,,,
,,,,,20,2020-07-01_10h35.20.973,retriever_ti,2020.1.3,Win32,60,Chrome,1536,864,,,,,,,,,,,,,,,,,1,,,,,,,,,,,,,,,,,,,,,,,,,,,382.94372,2,right,1.158815,satellite_dish,7,10,-1,0,0,382.976975,382.976975,385.47522,0,1,1,1,1,2,8,7,slipper     ,satellite_dish,html/resources/sequences_IDs/B/08_slipper.jpg,html/resources/sequences_IDs/A/10_satellite_dish.jpg,8,10,3,2,4,2,7,8,0,20,,,,,,,,,,,,,,,,,,,,
,,,,,20,2020-07-01_10h35.20.973,retriever_ti,2020.1.3,Win32,60,Chrome,1536,864,,,,,,,,,,,,,,,,,1,,,,,,,,,,,,,,,,,,,,,,,,,,,386.575225,3,right,0.96499,slipper     ,8,8,4,1,3,386.592015,386.592015,389.09029,0,2,2,2,1,3,4,8,sport_tshirt,slipper     ,html/resources/sequences_IDs/B/07_sport_tshirt.jpg,html/resources/sequences_IDs/B/08_slipper.jpg,7,8,3,2,3,2,6,7,0,20,,,,,,,,,,,,,,,,,,,,
,,,,,20,2020-07-01_10h35.20.973,retriever_ti,2020.1.3,Win32,60,Chrome,1536,864,,,,,,,,,,,,,,,,,1,,,,,,,,,,,,,,,,,,,,,,,,,,,389.70685,4,left,1.0028,slipper     ,8,8,1,1,1,389.740595,389.740595,392.23882,0,3,3,3,1,4,8,7,slipper     ,satellite_dish,html/resources/sequences_IDs/B/08_slipper.jpg,html/resources/sequences_IDs/A/10_satellite_dish.jpg,8,10,3,2,4,2,7,8,0,20,,,,,,,,,,,,,,,,,,,,
,,,,,20,2020-07-01_10h35.20.973,retriever_ti,2020.1.3,Win32,60,Chrome,1536,864,,,,,,,,,,,,,,,,,1,,,,,,,,,,,,,,,,,,,,,,,,,,,393.338895,5,right,1.384735,sport_tshirt,4,7,2,1,3,393.35574,393.35574,395.853805,0,4,4,4,1,5,2,4,dolphin     ,sport_tshirt,html/resources/sequences_IDs/B/02_dolphin.jpg,html/resources/sequences_IDs/B/07_sport_tshirt.jpg,2,7,1,1,3,2,2,6,0,20,,,,,,,,,,,,,,,,,,,,
,,,,,20,2020-07-01_10h35.20.973,retriever_ti,2020.1.3,Win32,60,Chrome,1536,864,,,,,,,,,,,,,,,,,1,,,,,,,,,,,,,,,,,,,,,,,,,,,396.47083,6,left,0.998605,satellite_dish,7,10,2,1,3,396.487545,396.487545,398.985555,0,5,5,5,1,6,7,5,satellite_dish,peacock       ,html/resources/sequences_IDs/A/10_satellite_dish.jpg,html/resources/sequences_IDs/A/05_peacock.jpg,10,5,4,2,2,1,8,4,0,20,,,,,,,,,,,,,,,,,,,,
,,,,,20,2020-07-01_10h35.20.973,retriever_ti,2020.1.3,Win32,60,Chrome,1536,864,,,,,,,,,,,,,,,,,1,,,,,,,,,,,,,,,,,,,,,,,,,,,399.602195,7,left,1.57688,peacock       ,5,5,4,1,3,399.61938,399.61938,402.11737,0,6,6,6,1,7,5,1,peacock       ,wolf          ,html/resources/sequences_IDs/A/05_peacock.jpg,html/resources/sequences_IDs/A/01_wolf.jpg,5,1,2,1,1,1,4,1,0,20,,,,,,,,,,,,,,,,,,,,
,,,,,20,2020-07-01_10h35.20.973,retriever_ti,2020.1.3,Win32,60,Chrome,1536,864,,,,,,,,,,,,,,,,,1,,,,,,,,,,,,,,,,,,,,,,,,,,,402.73436,8,left,0.892435,satellite_dish,7,10,-1,0,1,402.75123,402.75123,405.2494,0,7,7,7,1,8,7,8,satellite_dish,slipper     ,html/resources/sequences_IDs/A/10_satellite_dish.jpg,html/resources/sequences_IDs/B/08_slipper.jpg,10,8,4,2,3,2,8,7,1,20,,,,,,,,,,,,,,,,,,,,
,,,,,20,2020-07-01_10h35.20.973,retriever_ti,2020.1.3,Win32,60,Chrome,1536,864,,,,,,,,,,,,,,,,,1,,,,,,,,,,,,,,,,,,,,,,,,,,,406.34939,9,right,1.75967,dolphin     ,2,2,-6,0,3,406.3835,406.3835,408.881145,0,8,8,8,1,9,8,2,slipper     ,dolphin     ,html/resources/sequences_IDs/B/08_slipper.jpg,html/resources/sequences_IDs/B/02_dolphin.jpg,8,2,3,2,1,1,7,2,0,20,,,,,,,,,,,,,,,,,,,,
,,,,,20,2020-07-01_10h35.20.973,retriever_ti,2020.1.3,Win32,60,Chrome,1536,864,,,,,,,,,,,,,,,,,1,,,,,,,,,,,,,,,,,,,,,,,,,,,409.498255,10,right,1.576155,wolf          ,1,1,-3,0,3,409.51498,409.51498,412.012975,0,9,9,9,1,10,4,1,sport_tshirt,wolf          ,html/resources/sequences_IDs/B/07_sport_tshirt.jpg,html/resources/sequences_IDs/A/01_wolf.jpg,7,1,3,2,1,1,6,1,0,20,,,,,,,,,,,,,,,,,,,,
,,,,,20,2020-07-01_10h35.20.973,retriever_ti,2020.1.3,Win32,60,Chrome,1536,864,,,,,,,,,,,,,,,,,1,,,,,,,,,,,,,,,,,,,,,,,,,,,412.629985,11,right,2.053865,slipper     ,8,8,7,1,3,412.66352,412.66352,415.16153,0,10,10,10,1,11,1,8,wolf          ,slipper     ,html/resources/sequences_IDs/A/01_wolf.jpg,html/resources/sequences_IDs/B/08_slipper.jpg,1,8,1,1,3,2,1,7,0,20,,,,,,,,,,,,,,,,,,,,
,,,,,20,2020-07-01_10h35.20.973,retriever_ti,2020.1.3,Win32,60,Chrome,1536,864,,,,,,,,,,,,,,,,,1,,,,,,,,,,,,,,,,,,,,,,,,,,,415.778315,12,NaN,NaN,No_response,NaN,NaN,NaN,2,2,415.79553,415.79553,418.29365,0,11,11,11,1,12,2,7,dolphin     ,satellite_dish,html/resources/sequences_IDs/B/02_dolphin.jpg,html/resources/sequences_IDs/A/10_satellite_dish.jpg,2,10,1,1,4,2,2,8,0,20,,,,,,,,,,,,,,,,,,,,
,,,,,20,2020-07-01_10h35.20.973,retriever_ti,2020.1.3,Win32,60,Chrome,1536,864,,,,,,,,,,,,,,,,,1,,,,,,,,,,,,,,,,,,,,,,,,,,,419.393885,13,left,1.301645,satellite_dish,7,10,1,1,0,419.410555,419.410555,421.90856,0,12,12,12,1,13,7,6,satellite_dish,holdfast    ,html/resources/sequences_IDs/A/10_satellite_dish.jpg,html/resources/sequences_IDs/B/04_holdfast.jpg,10,4,4,2,2,1,8,3,1,20,,,,,,,,,,,,,,,,,,,,
,,,,,20,2020-07-01_10h35.20.973,retriever_ti,2020.1.3,Win32,60,Chrome,1536,864,,,,,,,,,,,,,,,,,1,,,,,,,,,,,,,,,,,,,,,,,,,,,423.008615,14,right,1.51063,wolf          ,1,1,-1,0,0,423.025505,423.025505,425.52368,0,13,13,13,1,14,2,1,dolphin     ,wolf          ,html/resources/sequences_IDs/B/02_dolphin.jpg,html/resources/sequences_IDs/A/01_wolf.jpg,2,1,1,1,1,1,2,1,0,20,,,,,,,,,,,,,,,,,,,,
,,,,,20,2020-07-01_10h35.20.973,retriever_ti,2020.1.3,Win32,60,Chrome,1536,864,,,,,,,,,,,,,,,,,1,,,,,,,,,,,,,,,,,,,,,,,,,,,426.62385,15,left,1.11273,slipper     ,8,8,7,1,3,426.64052,426.64052,429.138765,0,14,14,14,1,15,8,1,slipper     ,wolf          ,html/resources/sequences_IDs/B/08_slipper.jpg,html/resources/sequences_IDs/A/01_wolf.jpg,8,1,3,2,1,1,7,1,0,20,,,,,,,,,,,,,,,,,,,,
,,,,,20,2020-07-01_10h35.20.973,retriever_ti,2020.1.3,Win32,60,Chrome,1536,864,,,,,,,,,,,,,,,,,1,,,,,,,,,,,,,,,,,,,,,,,,,,,429.755355,16,right,0.94542,slipper     ,8,8,1,1,1,429.789105,429.789105,432.28728,0,15,15,15,1,16,7,8,satellite_dish,slipper     ,html/resources/sequences_IDs/A/10_satellite_dish.jpg,html/resources/sequences_IDs/B/08_slipper.jpg,10,8,4,2,3,2,8,7,0,20,,,,,,,,,,,,,,,,,,,,
,,,,,20,2020-07-01_10h35.20.973,retriever_ti,2020.1.3,Win32,60,Chrome,1536,864,,,,,,,,,,,,,,,,,1,,,,,,,,,,,,,,,,,,,,,,,,,,,433.387395,17,right,1.264805,scarf         ,3,6,-4,0,3,433.40425,433.40425,435.90216,0,16,16,16,1,17,7,3,satellite_dish,scarf         ,html/resources/sequences_IDs/A/10_satellite_dish.jpg,html/resources/sequences_IDs/A/06_scarf.jpg,10,6,4,2,3,2,8,5,0,20,,,,,,,,,,,,,,,,,,,,
,,,,,20,2020-07-01_10h35.20.973,retriever_ti,2020.1.3,Win32,60,Chrome,1536,864,,,,,,,,,,,,,,,,,1,,,,,,,,,,,,,,,,,,,,,,,,,,,436.51897,18,right,0.845365,holdfast    ,6,4,-1,0,0,436.55266,436.55266,439.050705,0,17,17,17,1,18,7,6,satellite_dish,holdfast    ,html/resources/sequences_IDs/A/10_satellite_dish.jpg,html/resources/sequences_IDs/B/04_holdfast.jpg,10,4,4,2,2,1,8,3,0,20,,,,,,,,,,,,,,,,,,,,
,,,,,20,2020-07-01_10h35.20.973,retriever_ti,2020.1.3,Win32,60,Chrome,1536,864,,,,,,,,,,,,,,,,,1,,,,,,,,,,,,,,,,,,,,,,,,,,,440.150545,19,left,1.75474,slipper     ,8,8,5,1,3,440.184285,440.184285,442.68254,0,18,18,18,1,19,8,3,slipper     ,scarf         ,html/resources/sequences_IDs/B/08_slipper.jpg,html/resources/sequences_IDs/A/06_scarf.jpg,8,6,3,2,3,2,7,5,0,20,,,,,,,,,,,,,,,,,,,,
,,,,,20,2020-07-01_10h35.20.973,retriever_ti,2020.1.3,Win32,60,Chrome,1536,864,,,,,,,,,,,,,,,,,1,,,,,,,,,,,,,,,,,,,,,,,,,,,443.29961,20,right,1.000545,scarf         ,3,6,1,1,1,443.316355,443.316355,445.814515,0,19,19,19,1,20,2,3,dolphin     ,scarf         ,html/resources/sequences_IDs/B/02_dolphin.jpg,html/resources/sequences_IDs/A/06_scarf.jpg,2,6,1,1,3,2,2,5,0,20,,,,,,,,,,,,,,,,,,,,
,,,,,20,2020-07-01_10h35.20.973,retriever_ti,2020.1.3,Win32,60,Chrome,1536,864,,,,,,,,,,,,,,,,,1,,,,,,,,,,,,,,,,,,,,,,,,,,,446.914615,21,right,0.688285,scarf         ,3,6,1,1,1,446.93127,446.93127,449.429465,0,20,20,20,1,21,2,3,dolphin     ,scarf         ,html/resources/sequences_IDs/B/02_dolphin.jpg,html/resources/sequences_IDs/A/06_scarf.jpg,2,6,1,1,3,2,2,5,0,20,,,,,,,,,,,,,,,,,,,,
,,,,,20,2020-07-01_10h35.20.973,retriever_ti,2020.1.3,Win32,60,Chrome,1536,864,,,,,,,,,,,,,,,,,1,,,,,,,,,,,,,,,,,,,,,,,,,,,450.529475,22,left,1.287845,peacock       ,5,5,-2,0,3,450.562925,450.562925,453.061105,0,21,21,21,1,22,5,7,peacock       ,satellite_dish,html/resources/sequences_IDs/A/05_peacock.jpg,html/resources/sequences_IDs/A/10_satellite_dish.jpg,5,10,2,1,4,2,4,8,0,20,,,,,,,,,,,,,,,,,,,,
,,,,,20,2020-07-01_10h35.20.973,retriever_ti,2020.1.3,Win32,60,Chrome,1536,864,,,,,,,,,,,,,,,,,1,,,,,,,,,,,,,,,,,,,,,,,,,,,453.677765,23,right,0.768125,slipper     ,8,8,6,1,3,453.711495,453.711495,456.209745,0,22,22,22,1,23,2,8,dolphin     ,slipper     ,html/resources/sequences_IDs/B/02_dolphin.jpg,html/resources/sequences_IDs/B/08_slipper.jpg,2,8,1,1,3,2,2,7,0,20,,,,,,,,,,,,,,,,,,,,
,,,,,20,2020-07-01_10h35.20.973,retriever_ti,2020.1.3,Win32,60,Chrome,1536,864,,,,,,,,,,,,,,,,,1,,,,,,,,,,,,,,,,,,,,,,,,,,,456.826865,24,right,1.02945,sport_tshirt,4,7,3,1,3,456.843595,456.843595,459.341775,0,23,23,23,1,24,1,4,wolf          ,sport_tshirt,html/resources/sequences_IDs/A/01_wolf.jpg,html/resources/sequences_IDs/B/07_sport_tshirt.jpg,1,7,1,1,3,2,1,6,0,20,,,,,,,,,,,,,,,,,,,,
,,,,,20,2020-07-01_10h35.20.973,retriever_ti,2020.1.3,Win32,60,Chrome,1536,864,,,,,,,,,,,,,,,,,1,,,,,,,,,,,,,,,,,,,,,,,,,,,459.95839,25,right,1.810845,wolf          ,1,1,-6,0,3,459.992045,459.992045,462.49015,0,24,24,24,1,25,7,1,satellite_dish,wolf          ,html/resources/sequences_IDs/A/10_satellite_dish.jpg,html/resources/sequences_IDs/A/01_wolf.jpg,10,1,4,2,1,1,8,1,0,20,,,,,,,,,,,,,,,,,,,,
,,,,,20,2020-07-01_10h35.20.973,retriever_ti,2020.1.3,Win32,60,Chrome,1536,864,,,,,,,,,,,,,,,,,1,,,,,,,,,,,,,,,,,,,,,,,,,,,463.107325,26,right,1.436385,scarf         ,3,6,-3,0,3,463.14061,463.14061,465.638695,0,25,25,25,1,26,6,3,holdfast    ,scarf         ,html/resources/sequences_IDs/B/04_holdfast.jpg,html/resources/sequences_IDs/A/06_scarf.jpg,4,6,2,1,3,2,3,5,0,20,,,,,,,,,,,,,,,,,,,,
,,,,,20,2020-07-01_10h35.20.973,retriever_ti,2020.1.3,Win32,60,Chrome,1536,864,,,,,,,,,,,,,,,,,1,,,,,,,,,,,,,,,,,,,,,,,,,,,466.25553,27,left,0.8443,peacock       ,5,5,1,1,1,466.289255,466.289255,468.787255,0,26,26,26,1,27,5,4,peacock       ,sport_tshirt,html/resources/sequences_IDs/A/05_peacock.jpg,html/resources/sequences_IDs/B/07_sport_tshirt.jpg,5,7,2,1,3,2,4,6,0,20,,,,,,,,,,,,,,,,,,,,
,,,,,20,2020-07-01_10h35.20.973,retriever_ti,2020.1.3,Win32,60,Chrome,1536,864,,,,,,,,,,,,,,,,,1,,,,,,,,,,,,,,,,,,,,,,,,,,,469.887515,28,right,1.72871,peacock       ,5,5,-1,0,0,469.920775,469.920775,472.41904,0,27,27,27,1,28,6,5,holdfast    ,peacock       ,html/resources/sequences_IDs/B/04_holdfast.jpg,html/resources/sequences_IDs/A/05_peacock.jpg,4,5,2,1,2,1,3,4,0,20,,,,,,,,,,,,,,,,,,,,
,,,,,20,2020-07-01_10h35.20.973,retriever_ti,2020.1.3,Win32,60,Chrome,1536,864,,,,,,,,,,,,,,,,,1,,,,,,,,,,,,,,,,,,,,,,,,,,,473.519085,29,right,0.85503,dolphin     ,2,2,1,1,1,473.55253,473.55253,476.050645,0,28,28,28,1,29,1,2,wolf          ,dolphin     ,html/resources/sequences_IDs/A/01_wolf.jpg,html/resources/sequences_IDs/B/02_dolphin.jpg,1,2,1,1,1,1,1,2,0,20,,,,,,,,,,,,,,,,,,,,
,,,,,20,2020-07-01_10h35.20.973,retriever_ti,2020.1.3,Win32,60,Chrome,1536,864,,,,,,,,,,,,,,,,,1,,,,,,,,,,,,,,,,,,,,,,,,,,,477.1509,30,left,1.102865,dolphin     ,2,2,-4,0,3,477.167475,477.167475,479.665785,0,29,29,29,1,30,2,6,dolphin     ,holdfast    ,html/resources/sequences_IDs/B/02_dolphin.jpg,html/resources/sequences_IDs/B/04_holdfast.jpg,2,4,1,1,2,1,2,3,0,20,,,,,,,,,,,,,,,,,,,,
,,,,,20,2020-07-01_10h35.20.973,retriever_ti,2020.1.3,Win32,60,Chrome,1536,864,,,,,,,,,,,,,,,,,1,,,,,,,,,,,,,,,,,,,,,,,,,,,480.28247,31,left,0.767245,sport_tshirt,4,7,-1,0,1,480.299495,480.299495,482.797645,0,30,30,30,1,31,4,5,sport_tshirt,peacock       ,html/resources/sequences_IDs/B/07_sport_tshirt.jpg,html/resources/sequences_IDs/A/05_peacock.jpg,7,5,3,2,2,1,6,4,1,20,,,,,,,,,,,,,,,,,,,,
,,,,,20,2020-07-01_10h35.20.973,retriever_ti,2020.1.3,Win32,60,Chrome,1536,864,,,,,,,,,,,,,,,,,1,,,,,,,,,,,,,,,,,,,,,,,,,,,483.897765,32,right,1.30367,holdfast    ,6,4,-1,0,0,483.91444,483.91444,486.412815,0,31,31,31,1,32,7,6,satellite_dish,holdfast    ,html/resources/sequences_IDs/A/10_satellite_dish.jpg,html/resources/sequences_IDs/B/04_holdfast.jpg,10,4,4,2,2,1,8,3,0,20,,,,,,,,,,,,,,,,,,,,
,,,,,20,2020-07-01_10h35.20.973,retriever_ti,2020.1.3,Win32,60,Chrome,1536,864,,,,,,,,,,,,,,,,,1,,,,,,,,,,,,,,,,,,,,,,,,,,,487.512805,33,left,1.02121,slipper     ,8,8,4,1,3,487.529595,487.529595,490.02773,0,32,32,32,1,33,8,4,slipper     ,sport_tshirt,html/resources/sequences_IDs/B/08_slipper.jpg,html/resources/sequences_IDs/B/07_sport_tshirt.jpg,8,7,3,2,3,2,7,6,0,20,,,,,,,,,,,,,,,,,,,,
,,,,,20,2020-07-01_10h35.20.973,retriever_ti,2020.1.3,Win32,60,Chrome,1536,864,,,,,,,,,,,,,,,,,1,,,,,,,,,,,,,,,,,,,,,,,,,,,490.644715,34,right,0.90623,dolphin     ,2,2,-1,0,0,490.67812,490.67812,493.1763,0,33,33,33,1,34,3,2,scarf         ,dolphin     ,html/resources/sequences_IDs/A/06_scarf.jpg,html/resources/sequences_IDs/B/02_dolphin.jpg,6,2,3,2,1,1,5,2,0,20,,,,,,,,,,,,,,,,,,,,
,,,,,20,2020-07-01_10h35.20.973,retriever_ti,2020.1.3,Win32,60,Chrome,1536,864,,,,,,,,,,,,,,,,,1,,,,,,,,,,,,,,,,,,,,,,,,,,,494.27611,35,right,0.802635,scarf         ,3,6,2,1,3,494.30992,494.30992,496.80797,0,34,34,34,1,35,1,3,wolf          ,scarf         ,html/resources/sequences_IDs/A/01_wolf.jpg,html/resources/sequences_IDs/A/06_scarf.jpg,1,6,1,1,3,2,1,5,0,20,,,,,,,,,,,,,,,,,,,,
,,,,,20,2020-07-01_10h35.20.973,retriever_ti,2020.1.3,Win32,60,Chrome,1536,864,,,,,,,,,,,,,,,,,1,,,,,,,,,,,,,,,,,,,,,,,,,,,497.42502,36,left,1.641725,dolphin     ,2,2,1,1,1,497.44178,497.44178,499.939745,0,35,35,35,1,36,2,1,dolphin     ,wolf          ,html/resources/sequences_IDs/B/02_dolphin.jpg,html/resources/sequences_IDs/A/01_wolf.jpg,2,1,1,1,1,1,2,1,0,20,,,,,,,,,,,,,,,,,,,,
,,,,,20,2020-07-01_10h35.20.973,retriever_ti,2020.1.3,Win32,60,Chrome,1536,864,,,,,,,,,,,,,,,,,1,,,,,,,,,,,,,,,,,,,,,,,,,,,501.040095,37,right,1.23183,sport_tshirt,4,7,-3,0,3,501.073535,501.073535,503.57158,0,36,36,36,1,37,7,4,satellite_dish,sport_tshirt,html/resources/sequences_IDs/A/10_satellite_dish.jpg,html/resources/sequences_IDs/B/07_sport_tshirt.jpg,10,7,4,2,3,2,8,6,0,20,,,,,,,,,,,,,,,,,,,,
,,,,,20,2020-07-01_10h35.20.973,retriever_ti,2020.1.3,Win32,60,Chrome,1536,864,,,,,,,,,,,,,,,,,1,,,,,,,,,,,,,,,,,,,,,,,,,,,504.188475,38,left,1.64827,holdfast    ,6,4,-1,0,0,504.22201,504.22201,506.72007,0,37,37,37,1,38,6,7,holdfast    ,satellite_dish,html/resources/sequences_IDs/B/04_holdfast.jpg,html/resources/sequences_IDs/A/10_satellite_dish.jpg,4,10,2,1,4,2,3,8,0,20,,,,,,,,,,,,,,,,,,,,
,,,,,20,2020-07-01_10h35.20.973,retriever_ti,2020.1.3,Win32,60,Chrome,1536,864,,,,,,,,,,,,,,,,,1,,,,,,,,,,,,,,,,,,,,,,,,,,,507.82041,39,left,1.654665,dolphin     ,2,2,-3,0,3,507.8537,507.8537,510.351865,0,38,38,38,1,39,2,5,dolphin     ,peacock       ,html/resources/sequences_IDs/B/02_dolphin.jpg,html/resources/sequences_IDs/A/05_peacock.jpg,2,5,1,1,2,1,2,4,0,20,,,,,,,,,,,,,,,,,,,,
,,,,,20,2020-07-01_10h35.20.973,retriever_ti,2020.1.3,Win32,60,Chrome,1536,864,,,,,,,,,,,,,,,,,1,,,,,,,,,,,,,,,,,,,,,,,,,,,510.96902,40,left,1.32188,scarf         ,3,6,1,1,0,511.002165,511.002165,513.500435,0,39,39,39,1,40,3,2,scarf         ,dolphin     ,html/resources/sequences_IDs/A/06_scarf.jpg,html/resources/sequences_IDs/B/02_dolphin.jpg,6,2,3,2,1,1,5,2,1,20,,,,,,,,,,,,,,,,,,,,
,,,,,20,2020-07-01_10h35.20.973,retriever_ti,2020.1.3,Win32,60,Chrome,1536,864,,,,,,,,,,,,,,,,,1,,,,,,,,,,,,,,,,,,,,,,,,,,,514.600625,41,left,1.28677,sport_tshirt,4,7,-2,0,3,514.617235,514.617235,517.115525,0,40,40,40,1,41,4,6,sport_tshirt,holdfast    ,html/resources/sequences_IDs/B/07_sport_tshirt.jpg,html/resources/sequences_IDs/B/04_holdfast.jpg,7,4,3,2,2,1,6,3,0,20,,,,,,,,,,,,,,,,,,,,
,,,,,20,2020-07-01_10h35.20.973,retriever_ti,2020.1.3,Win32,60,Chrome,1536,864,,,,,,,,,,,,,,,,,1,,,,,,,,,,,,,,,,,,,,,,,,,,,517.7321,42,right,0.75503,holdfast    ,6,4,1,1,1,517.765815,517.765815,520.26409,0,41,41,41,1,42,5,6,peacock       ,holdfast    ,html/resources/sequences_IDs/A/05_peacock.jpg,html/resources/sequences_IDs/B/04_holdfast.jpg,5,4,2,1,2,1,4,3,0,20,,,,,,,,,,,,,,,,,,,,
,,,,,20,2020-07-01_10h35.20.973,retriever_ti,2020.1.3,Win32,60,Chrome,1536,864,,,,,,,,,,,,,,,,,1,,,,,,,,,,,,,,,,,,,,,,,,,,,521.36412,43,right,1.14704,wolf          ,1,1,-1,0,1,521.39758,521.39758,523.895705,0,42,42,42,1,43,2,1,dolphin     ,wolf          ,html/resources/sequences_IDs/B/02_dolphin.jpg,html/resources/sequences_IDs/A/01_wolf.jpg,2,1,1,1,1,1,2,1,1,20,,,,,,,,,,,,,,,,,,,,
,,,,,20,2020-07-01_10h35.20.973,retriever_ti,2020.1.3,Win32,60,Chrome,1536,864,,,,,,,,,,,,,,,,,1,,,,,,,,,,,,,,,,,,,,,,,,,,,524.995865,44,left,0.988205,scarf         ,3,6,2,1,3,525.029155,525.029155,527.527415,0,43,43,43,1,44,3,1,scarf         ,wolf          ,html/resources/sequences_IDs/A/06_scarf.jpg,html/resources/sequences_IDs/A/01_wolf.jpg,6,1,3,2,1,1,5,1,0,20,,,,,,,,,,,,,,,,,,,,
,,,,,20,2020-07-01_10h35.20.973,retriever_ti,2020.1.3,Win32,60,Chrome,1536,864,,,,,,,,,,,,,,,,,1,,,,,,,,,,,,,,,,,,,,,,,,,,,528.14404,45,left,1.13259,scarf         ,3,6,-2,0,3,528.177745,528.177745,530.67598,0,44,44,44,1,45,3,5,scarf         ,peacock       ,html/resources/sequences_IDs/A/06_scarf.jpg,html/resources/sequences_IDs/A/05_peacock.jpg,6,5,3,2,2,1,5,4,0,20,,,,,,,,,,,,,,,,,,,,
,,,,,20,2020-07-01_10h35.20.973,retriever_ti,2020.1.3,Win32,60,Chrome,1536,864,,,,,,,,,,,,,,,,,1,,,,,,,,,,,,,,,,,,,,,,,,,,,531.29307,46,left,0.99918,sport_tshirt,4,7,1,1,1,531.30957,531.30957,533.8079,0,45,45,45,1,46,4,3,sport_tshirt,scarf         ,html/resources/sequences_IDs/B/07_sport_tshirt.jpg,html/resources/sequences_IDs/A/06_scarf.jpg,7,6,3,2,3,2,6,5,0,20,,,,,,,,,,,,,,,,,,,,
,,,,,20,2020-07-01_10h35.20.973,retriever_ti,2020.1.3,Win32,60,Chrome,1536,864,,,,,,,,,,,,,,,,,1,,,,,,,,,,,,,,,,,,,,,,,,,,,534.907895,47,left,1.615515,slipper     ,8,8,2,1,3,534.924715,534.924715,537.42295,0,46,46,46,1,47,8,6,slipper     ,holdfast    ,html/resources/sequences_IDs/B/08_slipper.jpg,html/resources/sequences_IDs/B/04_holdfast.jpg,8,4,3,2,2,1,7,3,0,20,,,,,,,,,,,,,,,,,,,,
,,,,,20,2020-07-01_10h35.20.973,retriever_ti,2020.1.3,Win32,60,Chrome,1536,864,,,,,,,,,,,,,,,,,1,,,,,,,,,,,,,,,,,,,,,,,,,,,538.03958,48,right,1.081275,satellite_dish,7,10,3,1,3,538.05648,538.05648,540.55474,0,47,47,47,1,48,4,7,sport_tshirt,satellite_dish,html/resources/sequences_IDs/B/07_sport_tshirt.jpg,html/resources/sequences_IDs/A/10_satellite_dish.jpg,7,10,3,2,4,2,6,8,0,20,,,,,,,,,,,,,,,,,,,,
,,,,,20,2020-07-01_10h35.20.973,retriever_ti,2020.1.3,Win32,60,Chrome,1536,864,,,,,,,,,,,,,,,,,1,,,,,,,,,,,,,,,,,,,,,,,,,,,541.17187,49,right,1.93491,holdfast    ,6,4,5,1,3,541.20524,541.20524,543.703435,0,48,48,48,1,49,1,6,wolf          ,holdfast    ,html/resources/sequences_IDs/A/01_wolf.jpg,html/resources/sequences_IDs/B/04_holdfast.jpg,1,4,1,1,2,1,1,3,0,20,,,,,,,,,,,,,,,,,,,,
,,,,,20,2020-07-01_10h35.20.973,retriever_ti,2020.1.3,Win32,60,Chrome,1536,864,,,,,,,,,,,,,,,,,1,,,,,,,,,,,,,,,,,,,,,,,,,,,544.32008,50,left,1.782125,peacock       ,5,5,-1,0,1,544.353735,544.353735,546.85185,0,49,49,49,1,50,5,6,peacock       ,holdfast    ,html/resources/sequences_IDs/A/05_peacock.jpg,html/resources/sequences_IDs/B/04_holdfast.jpg,5,4,2,1,2,1,4,3,1,20,,,,,,,,,,,,,,,,,,,,
,,,,,20,2020-07-01_10h35.20.973,retriever_ti,2020.1.3,Win32,60,Chrome,1536,864,,,,,,,,,,,,,,,,,1,,,,,,,,,,,,,,,,,,,,,,,,,,,547.952025,51,right,1.579985,dolphin     ,2,2,-4,0,3,547.968795,547.968795,550.467,0,50,50,50,1,51,6,2,holdfast    ,dolphin     ,html/resources/sequences_IDs/B/04_holdfast.jpg,html/resources/sequences_IDs/B/02_dolphin.jpg,4,2,2,1,1,1,3,2,0,20,,,,,,,,,,,,,,,,,,,,
,,,,,20,2020-07-01_10h35.20.973,retriever_ti,2020.1.3,Win32,60,Chrome,1536,864,,,,,,,,,,,,,,,,,1,,,,,,,,,,,,,,,,,,,,,,,,,,,551.08406,52,left,0.57796,sport_tshirt,4,7,1,1,0,551.117405,551.117405,553.61569,0,51,51,51,1,52,4,3,sport_tshirt,scarf         ,html/resources/sequences_IDs/B/07_sport_tshirt.jpg,html/resources/sequences_IDs/A/06_scarf.jpg,7,6,3,2,3,2,6,5,1,20,,,,,,,,,,,,,,,,,,,,
,,,,,20,2020-07-01_10h35.20.973,retriever_ti,2020.1.3,Win32,60,Chrome,1536,864,,,,,,,,,,,,,,,,,1,,,,,,,,,,,,,,,,,,,,,,,,,,,554.71585,53,right,1.312505,peacock       ,5,5,-1,0,0,554.74899,554.74899,557.247265,0,52,52,52,1,53,6,5,holdfast    ,peacock       ,html/resources/sequences_IDs/B/04_holdfast.jpg,html/resources/sequences_IDs/A/05_peacock.jpg,4,5,2,1,2,1,3,4,0,20,,,,,,,,,,,,,,,,,,,,
,,,,,20,2020-07-01_10h35.20.973,retriever_ti,2020.1.3,Win32,60,Chrome,1536,864,,,,,,,,,,,,,,,,,1,,,,,,,,,,,,,,,,,,,,,,,,,,,558.34697,54,right,1.734445,satellite_dish,7,10,6,1,3,558.36409,558.36409,560.862325,0,53,53,53,1,54,1,7,wolf          ,satellite_dish,html/resources/sequences_IDs/A/01_wolf.jpg,html/resources/sequences_IDs/A/10_satellite_dish.jpg,1,10,1,1,4,2,1,8,0,20,,,,,,,,,,,,,,,,,,,,
,,,,,20,2020-07-01_10h35.20.973,retriever_ti,2020.1.3,Win32,60,Chrome,1536,864,,,,,,,,,,,,,,,,,1,,,,,,,,,,,,,,,,,,,,,,,,,,,561.47935,55,left,1.21366,scarf         ,3,6,-3,0,3,561.49591,561.49591,563.99423,0,54,54,54,1,55,3,6,scarf         ,holdfast    ,html/resources/sequences_IDs/A/06_scarf.jpg,html/resources/sequences_IDs/B/04_holdfast.jpg,6,4,3,2,2,1,5,3,0,20,,,,,,,,,,,,,,,,,,,,
,,,,,20,2020-07-01_10h35.20.973,retriever_ti,2020.1.3,Win32,60,Chrome,1536,864,,,,,,,,,,,,,,,,,1,,,,,,,,,,,,,,,,,,,,,,,,,,,564.61124,56,right,1.50186,peacock       ,5,5,1,1,1,564.644415,564.644415,567.142805,0,55,55,55,1,56,4,5,sport_tshirt,peacock       ,html/resources/sequences_IDs/B/07_sport_tshirt.jpg,html/resources/sequences_IDs/A/05_peacock.jpg,7,5,3,2,2,1,6,4,0,20,,,,,,,,,,,,,,,,,,,,
,,,,,20,2020-07-01_10h35.20.973,retriever_ti,2020.1.3,Win32,60,Chrome,1536,864,,,,,,,,,,,,,,,,,1,,,,,,,,,,,,,,,,,,,,,,,,,,,568.24236,57,left,0.83153,holdfast    ,6,4,5,1,3,568.276395,568.276395,570.7744,0,56,56,56,1,57,6,1,holdfast    ,wolf          ,html/resources/sequences_IDs/B/04_holdfast.jpg,html/resources/sequences_IDs/A/01_wolf.jpg,4,1,2,1,1,1,3,1,0,20,,,,,,,,,,,,,,,,,,,,
,,,,,20,2020-07-01_10h35.20.973,retriever_ti,2020.1.3,Win32,60,Chrome,1536,864,,,,,,,,,,,,,,,,,1,,,,,,,,,,,,,,,,,,,,,,,,,,,571.39143,58,right,0.91148,scarf         ,3,6,-2,0,3,571.408335,571.408335,573.906445,0,57,57,57,1,58,5,3,peacock       ,scarf         ,html/resources/sequences_IDs/A/05_peacock.jpg,html/resources/sequences_IDs/A/06_scarf.jpg,5,6,2,1,3,2,4,5,0,20,,,,,,,,,,,,,,,,,,,,
,,,,,20,2020-07-01_10h35.20.973,retriever_ti,2020.1.3,Win32,60,Chrome,1536,864,,,,,,,,,,,,,,,,,1,,,,,,,,,,,,,,,,,,,,,,,,,,,574.522975,59,right,0.870535,dolphin     ,2,2,1,1,1,574.540025,574.540025,577.038375,0,58,58,58,1,59,1,2,wolf          ,dolphin     ,html/resources/sequences_IDs/A/01_wolf.jpg,html/resources/sequences_IDs/B/02_dolphin.jpg,1,2,1,1,1,1,1,2,0,20,,,,,,,,,,,,,,,,,,,,
,,,,,20,2020-07-01_10h35.20.973,retriever_ti,2020.1.3,Win32,60,Chrome,1536,864,,,,,,,,,,,,,,,,,1,,,,,,,,,,,,,,,,,,,,,,,,,,,578.13837,60,left,0.663685,slipper     ,8,8,3,1,3,578.17185,578.17185,580.66987,0,59,59,59,1,60,8,5,slipper     ,peacock       ,html/resources/sequences_IDs/B/08_slipper.jpg,html/resources/sequences_IDs/A/05_peacock.jpg,8,5,3,2,2,1,7,4,0,20,,,,,,,,,,,,,,,,,,,,
,,,,,20,2020-07-01_10h35.20.973,retriever_ti,2020.1.3,Win32,60,Chrome,1536,864,,,,,,,,,,,,,,,,,1,,,,,,,,,,,,,,,,,,,,,,,,,,,581.286835,61,right,0.56702,sport_tshirt,4,7,1,1,1,581.30375,581.30375,583.80193,0,60,60,60,1,61,3,4,scarf         ,sport_tshirt,html/resources/sequences_IDs/A/06_scarf.jpg,html/resources/sequences_IDs/B/07_sport_tshirt.jpg,6,7,3,2,3,2,5,6,0,20,,,,,,,,,,,,,,,,,,,,
,,,,,20,2020-07-01_10h35.20.973,retriever_ti,2020.1.3,Win32,60,Chrome,1536,864,,,,,,,,,,,,,,,,,1,,,,,,,,,,,,,,,,,,,,,,,,,,,584.902085,62,right,1.068915,peacock       ,5,5,4,1,3,584.935255,584.935255,587.433565,0,61,61,61,1,62,1,5,wolf          ,peacock       ,html/resources/sequences_IDs/A/01_wolf.jpg,html/resources/sequences_IDs/A/05_peacock.jpg,1,5,1,1,2,1,1,4,0,20,,,,,,,,,,,,,,,,,,,,
,,,,,20,2020-07-01_10h35.20.973,retriever_ti,2020.1.3,Win32,60,Chrome,1536,864,,,,,,,,,,,,,,,,,1,,,,,,,,,,,,,,,,,,,,,,,,,,,588.050235,63,left,0.81299,holdfast    ,6,4,-1,0,0,588.083875,588.083875,590.582295,0,62,62,62,1,63,6,7,holdfast    ,satellite_dish,html/resources/sequences_IDs/B/04_holdfast.jpg,html/resources/sequences_IDs/A/10_satellite_dish.jpg,4,10,2,1,4,2,3,8,0,20,,,,,,,,,,,,,,,,,,,,
,,,,,20,2020-07-01_10h35.20.973,retriever_ti,2020.1.3,Win32,60,Chrome,1536,864,,,,,,,,,,,,,,,,,1,,,,,,,,,,,,,,,,,,,,,,,,,,,591.68218,64,right,1.04631,slipper     ,8,8,5,1,3,591.698845,591.698845,594.19719,0,63,63,63,1,64,3,8,scarf         ,slipper     ,html/resources/sequences_IDs/A/06_scarf.jpg,html/resources/sequences_IDs/B/08_slipper.jpg,6,8,3,2,3,2,5,7,0,20,,,,,,,,,,,,,,,,,,,,
,,,,,20,2020-07-01_10h35.20.973,retriever_ti,2020.1.3,Win32,60,Chrome,1536,864,,,,,,,,,,,,,,,,,1,,,,,,,,,,,,,,,,,,,,,,,,,,,594.81424,65,left,0.981025,holdfast    ,6,4,2,1,3,594.830765,594.830765,597.329085,0,64,64,64,1,65,6,4,holdfast    ,sport_tshirt,html/resources/sequences_IDs/B/04_holdfast.jpg,html/resources/sequences_IDs/B/07_sport_tshirt.jpg,4,7,2,1,3,2,3,6,0,20,,,,,,,,,,,,,,,,,,,,
,,,,,20,2020-07-01_10h35.20.973,retriever_ti,2020.1.3,Win32,60,Chrome,1536,864,,,,,,,,,,,,,,,,,1,,,,,,,,,,,,,,,,,,,,,,,,,,,597.94581,66,right,1.246005,slipper     ,8,8,2,1,3,597.979355,597.979355,600.47766,0,65,65,65,1,66,6,8,holdfast    ,slipper     ,html/resources/sequences_IDs/B/04_holdfast.jpg,html/resources/sequences_IDs/B/08_slipper.jpg,4,8,2,1,3,2,3,7,0,20,,,,,,,,,,,,,,,,,,,,
,,,,,20,2020-07-01_10h35.20.973,retriever_ti,2020.1.3,Win32,60,Chrome,1536,864,,,,,,,,,,,,,,,,,1,,,,,,,,,,,,,,,,,,,,,,,,,,,601.094705,67,left,1.887545,satellite_dish,7,10,5,1,3,601.12787,601.12787,603.62625,0,66,66,66,1,67,7,2,satellite_dish,dolphin     ,html/resources/sequences_IDs/A/10_satellite_dish.jpg,html/resources/sequences_IDs/B/02_dolphin.jpg,10,2,4,2,1,1,8,2,0,20,,,,,,,,,,,,,,,,,,,,
,,,,,20,2020-07-01_10h35.20.973,retriever_ti,2020.1.3,Win32,60,Chrome,1536,864,,,,,,,,,,,,,,,,,1,,,,,,,,,,,,,,,,,,,,,,,,,,,604.24289,68,left,1.134475,sport_tshirt,4,7,-1,0,0,604.26001,604.26001,606.75817,0,67,67,67,1,68,4,5,sport_tshirt,peacock       ,html/resources/sequences_IDs/B/07_sport_tshirt.jpg,html/resources/sequences_IDs/A/05_peacock.jpg,7,5,3,2,2,1,6,4,0,20,,,,,,,,,,,,,,,,,,,,
,,,,,20,2020-07-01_10h35.20.973,retriever_ti,2020.1.3,Win32,60,Chrome,1536,864,,,,,,,,,,,,,,,,,1,,,,,,,,,,,,,,,,,,,,,,,,,,,607.85815,69,right,0.662525,holdfast    ,6,4,1,1,1,607.8748,607.8748,610.37321,0,68,68,68,1,69,5,6,peacock       ,holdfast    ,html/resources/sequences_IDs/A/05_peacock.jpg,html/resources/sequences_IDs/B/04_holdfast.jpg,5,4,2,1,2,1,4,3,0,20,,,,,,,,,,,,,,,,,,,,
,,,,,20,2020-07-01_10h35.20.973,retriever_ti,2020.1.3,Win32,60,Chrome,1536,864,,,,,,,,,,,,,,,,,1,,,,,,,,,,,,,,,,,,,,,,,,,,,611.47309,70,right,1.164525,dolphin     ,2,2,-3,0,3,611.490035,611.490035,613.98817,0,69,69,69,1,70,5,2,peacock       ,dolphin     ,html/resources/sequences_IDs/A/05_peacock.jpg,html/resources/sequences_IDs/B/02_dolphin.jpg,5,2,2,1,1,1,4,2,0,20,,,,,,,,,,,,,,,,,,,,
,,,,,20,2020-07-01_10h35.20.973,retriever_ti,2020.1.3,Win32,60,Chrome,1536,864,,,,,,,,,,,,,,,,,1,,,,,,,,,,,,,,,,,,,,,,,,,,,614.604835,71,left,1.2265,scarf         ,3,6,-4,0,3,614.63864,614.63864,617.1367,0,70,70,70,1,71,3,7,scarf         ,satellite_dish,html/resources/sequences_IDs/A/06_scarf.jpg,html/resources/sequences_IDs/A/10_satellite_dish.jpg,6,10,3,2,4,2,5,8,0,20,,,,,,,,,,,,,,,,,,,,
,,,,,20,2020-07-01_10h35.20.973,retriever_ti,2020.1.3,Win32,60,Chrome,1536,864,,,,,,,,,,,,,,,,,1,,,,,,,,,,,,,,,,,,,,,,,,,,,617.753435,72,right,1.261015,scarf         ,3,6,-1,0,0,617.78716,617.78716,620.285435,0,71,71,71,1,72,4,3,sport_tshirt,scarf         ,html/resources/sequences_IDs/B/07_sport_tshirt.jpg,html/resources/sequences_IDs/A/06_scarf.jpg,7,6,3,2,3,2,6,5,0,20,,,,,,,,,,,,,,,,,,,,
,,,,,20,2020-07-01_10h35.20.973,retriever_ti,2020.1.3,Win32,60,Chrome,1536,864,,,,,,,,,,,,,,,,,1,,,,,,,,,,,,,,,,,,,,,,,,,,,621.38542,73,right,0.979635,dolphin     ,2,2,-2,0,3,621.418825,621.418825,623.917095,0,72,72,72,1,73,4,2,sport_tshirt,dolphin     ,html/resources/sequences_IDs/B/07_sport_tshirt.jpg,html/resources/sequences_IDs/B/02_dolphin.jpg,7,2,3,2,1,1,6,2,0,20,,,,,,,,,,,,,,,,,,,,
,,,,,20,2020-07-01_10h35.20.973,retriever_ti,2020.1.3,Win32,60,Chrome,1536,864,,,,,,,,,,,,,,,,,1,,,,,,,,,,,,,,,,,,,,,,,,,,,624.53369,74,left,0.878155,scarf         ,3,6,-1,0,0,624.550735,624.550735,627.04882,0,73,73,73,1,74,3,4,scarf         ,sport_tshirt,html/resources/sequences_IDs/A/06_scarf.jpg,html/resources/sequences_IDs/B/07_sport_tshirt.jpg,6,7,3,2,3,2,5,6,0,20,,,,,,,,,,,,,,,,,,,,
,,,,,20,2020-07-01_10h35.20.973,retriever_ti,2020.1.3,Win32,60,Chrome,1536,864,,,,,,,,,,,,,,,,,1,,,,,,,,,,,,,,,,,,,,,,,,,,,628.148995,75,right,0.43033,sport_tshirt,4,7,-1,0,0,628.18246,628.18246,630.68063,0,74,74,74,1,75,5,4,peacock       ,sport_tshirt,html/resources/sequences_IDs/A/05_peacock.jpg,html/resources/sequences_IDs/B/07_sport_tshirt.jpg,5,7,2,1,3,2,4,6,0,20,,,,,,,,,,,,,,,,,,,,
,,,,,20,2020-07-01_10h35.20.973,retriever_ti,2020.1.3,Win32,60,Chrome,1536,864,,,,,,,,,,,,,,,,,1,,,,,,,,,,,,,,,,,,,,,,,,,,,631.780705,76,right,0.620065,slipper     ,8,8,1,1,1,631.814145,631.814145,634.312405,0,75,75,75,1,76,7,8,satellite_dish,slipper     ,html/resources/sequences_IDs/A/10_satellite_dish.jpg,html/resources/sequences_IDs/B/08_slipper.jpg,10,8,4,2,3,2,8,7,0,20,,,,,,,,,,,,,,,,,,,,
,,,,,20,2020-07-01_10h35.20.973,retriever_ti,2020.1.3,Win32,60,Chrome,1536,864,,,,,,,,,,,,,,,,,1,,,,,,,,,,,,,,,,,,,,,,,,,,,635.41243,77,right,0.895695,slipper     ,8,8,3,1,3,635.44579,635.44579,637.94397,0,76,76,76,1,77,5,8,peacock       ,slipper     ,html/resources/sequences_IDs/A/05_peacock.jpg,html/resources/sequences_IDs/B/08_slipper.jpg,5,8,2,1,3,2,4,7,0,20,,,,,,,,,,,,,,,,,,,,
,,,,,20,2020-07-01_10h35.20.973,retriever_ti,2020.1.3,Win32,60,Chrome,1536,864,,,,,,,,,,,,,,,,,,,,,,,,,,,,,,,,,,,,,0,5.20889,,,,,,,,,,,,,,,,,,,,,,,,,,,,,,,,,,,,,,,,,0,0,0,0,1,,,,,,,,,,,,,,,
,,,,,20,2020-07-01_10h35.20.973,retriever_ti,2020.1.3,Win32,60,Chrome,1536,864,,,,,,,,,,,,,,,,,2,,,,,,,,,,,,,,,,,,,,,,,,,,,654.27912,78,left,0.948205,scarf         ,3,6,-3,0,3,654.32078,654.32078,656.818915,0,0,0,0,1,78,3,6,scarf         ,holdfast    ,html/resources/sequences_IDs/A/06_scarf.jpg,html/resources/sequences_IDs/B/04_holdfast.jpg,6,4,3,2,2,1,5,3,0,20,,,,,,,,,,,,,,,,,,,,
,,,,,20,2020-07-01_10h35.20.973,retriever_ti,2020.1.3,Win32,60,Chrome,1536,864,,,,,,,,,,,,,,,,,2,,,,,,,,,,,,,,,,,,,,,,,,,,,657.43538,79,right,0.75291,dolphin     ,2,2,-3,0,3,657.452475,657.452475,659.95073,0,1,1,1,1,79,5,2,peacock       ,dolphin     ,html/resources/sequences_IDs/A/05_peacock.jpg,html/resources/sequences_IDs/B/02_dolphin.jpg,5,2,2,1,1,1,4,2,0,20,,,,,,,,,,,,,,,,,,,,
,,,,,20,2020-07-01_10h35.20.973,retriever_ti,2020.1.3,Win32,60,Chrome,1536,864,,,,,,,,,,,,,,,,,2,,,,,,,,,,,,,,,,,,,,,,,,,,,660.56737,80,left,1.648075,sport_tshirt,4,7,-1,0,1,660.601145,660.601145,663.09938,0,2,2,2,1,80,4,5,sport_tshirt,peacock       ,html/resources/sequences_IDs/B/07_sport_tshirt.jpg,html/resources/sequences_IDs/A/05_peacock.jpg,7,5,3,2,2,1,6,4,1,20,,,,,,,,,,,,,,,,,,,,
,,,,,20,2020-07-01_10h35.20.973,retriever_ti,2020.1.3,Win32,60,Chrome,1536,864,,,,,,,,,,,,,,,,,2,,,,,,,,,,,,,,,,,,,,,,,,,,,664.199275,81,right,1.445985,dolphin     ,2,2,-1,0,1,664.232735,664.232735,666.73099,0,3,3,3,1,81,3,2,scarf         ,dolphin     ,html/resources/sequences_IDs/A/06_scarf.jpg,html/resources/sequences_IDs/B/02_dolphin.jpg,6,2,3,2,1,1,5,2,1,20,,,,,,,,,,,,,,,,,,,,
,,,,,20,2020-07-01_10h35.20.973,retriever_ti,2020.1.3,Win32,60,Chrome,1536,864,,,,,,,,,,,,,,,,,2,,,,,,,,,,,,,,,,,,,,,,,,,,,667.830955,82,right,1.73492,holdfast    ,6,4,1,1,1,667.84771,667.84771,670.34598,0,4,4,4,1,82,5,6,peacock       ,holdfast    ,html/resources/sequences_IDs/A/05_peacock.jpg,html/resources/sequences_IDs/B/04_holdfast.jpg,5,4,2,1,2,1,4,3,0,20,,,,,,,,,,,,,,,,,,,,
,,,,,20,2020-07-01_10h35.20.973,retriever_ti,2020.1.3,Win32,60,Chrome,1536,864,,,,,,,,,,,,,,,,,2,,,,,,,,,,,,,,,,,,,,,,,,,,,671.445685,83,left,1.347625,sport_tshirt,4,7,2,1,3,671.479415,671.479415,673.977545,0,5,5,5,1,83,4,2,sport_tshirt,dolphin     ,html/resources/sequences_IDs/B/07_sport_tshirt.jpg,html/resources/sequences_IDs/B/02_dolphin.jpg,7,2,3,2,1,1,6,2,0,20,,,,,,,,,,,,,,,,,,,,
,,,,,20,2020-07-01_10h35.20.973,retriever_ti,2020.1.3,Win32,60,Chrome,1536,864,,,,,,,,,,,,,,,,,2,,,,,,,,,,,,,,,,,,,,,,,,,,,674.594185,84,left,0.99805,slipper     ,8,8,7,1,3,674.628345,674.628345,677.12613,0,6,6,6,1,84,8,1,slipper     ,wolf          ,html/resources/sequences_IDs/B/08_slipper.jpg,html/resources/sequences_IDs/A/01_wolf.jpg,8,1,3,2,1,1,7,1,0,20,,,,,,,,,,,,,,,,,,,,
,,,,,20,2020-07-01_10h35.20.973,retriever_ti,2020.1.3,Win32,60,Chrome,1536,864,,,,,,,,,,,,,,,,,2,,,,,,,,,,,,,,,,,,,,,,,,,,,677.74314,85,right,0.879005,scarf         ,3,6,2,1,3,677.759965,677.759965,680.2582,0,7,7,7,1,85,1,3,wolf          ,scarf         ,html/resources/sequences_IDs/A/01_wolf.jpg,html/resources/sequences_IDs/A/06_scarf.jpg,1,6,1,1,3,2,1,5,0,20,,,,,,,,,,,,,,,,,,,,
,,,,,20,2020-07-01_10h35.20.973,retriever_ti,2020.1.3,Win32,60,Chrome,1536,864,,,,,,,,,,,,,,,,,2,,,,,,,,,,,,,,,,,,,,,,,,,,,680.874895,86,left,1.1028,satellite_dish,7,10,5,1,3,680.89176,680.89176,683.39007,0,8,8,8,1,86,7,2,satellite_dish,dolphin     ,html/resources/sequences_IDs/A/10_satellite_dish.jpg,html/resources/sequences_IDs/B/02_dolphin.jpg,10,2,4,2,1,1,8,2,0,20,,,,,,,,,,,,,,,,,,,,
,,,,,20,2020-07-01_10h35.20.973,retriever_ti,2020.1.3,Win32,60,Chrome,1536,864,,,,,,,,,,,,,,,,,2,,,,,,,,,,,,,,,,,,,,,,,,,,,684.00714,87,right,0.86288,scarf         ,3,6,-1,0,0,684.023775,684.023775,686.521985,0,9,9,9,1,87,4,3,sport_tshirt,scarf         ,html/resources/sequences_IDs/B/07_sport_tshirt.jpg,html/resources/sequences_IDs/A/06_scarf.jpg,7,6,3,2,3,2,6,5,0,20,,,,,,,,,,,,,,,,,,,,
,,,,,20,2020-07-01_10h35.20.973,retriever_ti,2020.1.3,Win32,60,Chrome,1536,864,,,,,,,,,,,,,,,,,2,,,,,,,,,,,,,,,,,,,,,,,,,,,687.622115,88,left,1.088795,holdfast    ,6,4,1,1,1,687.655445,687.655445,690.15358,0,10,10,10,1,88,6,5,holdfast    ,peacock       ,html/resources/sequences_IDs/B/04_holdfast.jpg,html/resources/sequences_IDs/A/05_peacock.jpg,4,5,2,1,2,1,3,4,0,20,,,,,,,,,,,,,,,,,,,,
,,,,,20,2020-07-01_10h35.20.973,retriever_ti,2020.1.3,Win32,60,Chrome,1536,864,,,,,,,,,,,,,,,,,2,,,,,,,,,,,,,,,,,,,,,,,,,,,691.253395,89,left,1.457375,wolf          ,1,1,-1,0,0,691.270395,691.270395,693.768655,0,11,11,11,1,89,1,2,wolf          ,dolphin     ,html/resources/sequences_IDs/A/01_wolf.jpg,html/resources/sequences_IDs/B/02_dolphin.jpg,1,2,1,1,1,1,1,2,0,20,,,,,,,,,,,,,,,,,,,,
,,,,,20,2020-07-01_10h35.20.973,retriever_ti,2020.1.3,Win32,60,Chrome,1536,864,,,,,,,,,,,,,,,,,2,,,,,,,,,,,,,,,,,,,,,,,,,,,694.86867,90,left,1.250245,satellite_dish,7,10,1,1,1,694.885385,694.885385,697.383735,0,12,12,12,1,90,7,6,satellite_dish,holdfast    ,html/resources/sequences_IDs/A/10_satellite_dish.jpg,html/resources/sequences_IDs/B/04_holdfast.jpg,10,4,4,2,2,1,8,3,0,20,,,,,,,,,,,,,,,,,,,,
,,,,,20,2020-07-01_10h35.20.973,retriever_ti,2020.1.3,Win32,60,Chrome,1536,864,,,,,,,,,,,,,,,,,2,,,,,,,,,,,,,,,,,,,,,,,,,,,698.48371,91,right,1.01272,sport_tshirt,4,7,-1,0,0,698.51725,698.51725,701.01528,0,13,13,13,1,91,5,4,peacock       ,sport_tshirt,html/resources/sequences_IDs/A/05_peacock.jpg,html/resources/sequences_IDs/B/07_sport_tshirt.jpg,5,7,2,1,3,2,4,6,0,20,,,,,,,,,,,,,,,,,,,,
,,,,,20,2020-07-01_10h35.20.973,retriever_ti,2020.1.3,Win32,60,Chrome,1536,864,,,,,,,,,,,,,,,,,2,,,,,,,,,,,,,,,,,,,,,,,,,,,702.115585,92,left,1.48788,holdfast    ,6,4,1,1,1,702.1321,702.1321,704.630495,0,14,14,14,1,92,6,5,holdfast    ,peacock       ,html/resources/sequences_IDs/B/04_holdfast.jpg,html/resources/sequences_IDs/A/05_peacock.jpg,4,5,2,1,2,1,3,4,0,20,,,,,,,,,,,,,,,,,,,,
,,,,,20,2020-07-01_10h35.20.973,retriever_ti,2020.1.3,Win32,60,Chrome,1536,864,,,,,,,,,,,,,,,,,2,,,,,,,,,,,,,,,,,,,,,,,,,,,705.731045,93,left,1.66677,dolphin     ,2,2,-6,0,3,705.763985,705.763985,708.261975,0,15,15,15,1,93,2,8,dolphin     ,slipper     ,html/resources/sequences_IDs/B/02_dolphin.jpg,html/resources/sequences_IDs/B/08_slipper.jpg,2,8,1,1,3,2,2,7,0,20,,,,,,,,,,,,,,,,,,,,
,,,,,20,2020-07-01_10h35.20.973,retriever_ti,2020.1.3,Win32,60,Chrome,1536,864,,,,,,,,,,,,,,,,,2,,,,,,,,,,,,,,,,,,,,,,,,,,,708.878605,94,right,1.03066,dolphin     ,2,2,1,1,1,708.912315,708.912315,711.410585,0,16,16,16,1,94,1,2,wolf          ,dolphin     ,html/resources/sequences_IDs/A/01_wolf.jpg,html/resources/sequences_IDs/B/02_dolphin.jpg,1,2,1,1,1,1,1,2,0,20,,,,,,,,,,,,,,,,,,,,
,,,,,20,2020-07-01_10h35.20.973,retriever_ti,2020.1.3,Win32,60,Chrome,1536,864,,,,,,,,,,,,,,,,,2,,,,,,,,,,,,,,,,,,,,,,,,,,,712.510955,95,right,0.886165,slipper     ,8,8,7,1,3,712.52725,712.52725,715.025705,0,17,17,17,1,95,1,8,wolf          ,slipper     ,html/resources/sequences_IDs/A/01_wolf.jpg,html/resources/sequences_IDs/B/08_slipper.jpg,1,8,1,1,3,2,1,7,0,20,,,,,,,,,,,,,,,,,,,,
,,,,,20,2020-07-01_10h35.20.973,retriever_ti,2020.1.3,Win32,60,Chrome,1536,864,,,,,,,,,,,,,,,,,2,,,,,,,,,,,,,,,,,,,,,,,,,,,715.642805,96,left,1.091805,satellite_dish,7,10,2,1,3,715.659445,715.659445,718.157485,0,18,18,18,1,96,7,5,satellite_dish,peacock       ,html/resources/sequences_IDs/A/10_satellite_dish.jpg,html/resources/sequences_IDs/A/05_peacock.jpg,10,5,4,2,2,1,8,4,0,20,,,,,,,,,,,,,,,,,,,,
,,,,,20,2020-07-01_10h35.20.973,retriever_ti,2020.1.3,Win32,60,Chrome,1536,864,,,,,,,,,,,,,,,,,2,,,,,,,,,,,,,,,,,,,,,,,,,,,718.77413,97,right,1.3177,sport_tshirt,4,7,3,1,3,718.80818,718.80818,721.306045,0,19,19,19,1,97,1,4,wolf          ,sport_tshirt,html/resources/sequences_IDs/A/01_wolf.jpg,html/resources/sequences_IDs/B/07_sport_tshirt.jpg,1,7,1,1,3,2,1,6,0,20,,,,,,,,,,,,,,,,,,,,
,,,,,20,2020-07-01_10h35.20.973,retriever_ti,2020.1.3,Win32,60,Chrome,1536,864,,,,,,,,,,,,,,,,,2,,,,,,,,,,,,,,,,,,,,,,,,,,,721.923075,98,right,1.683795,holdfast    ,6,4,4,1,3,721.956655,721.956655,724.45457,0,20,20,20,1,98,2,6,dolphin     ,holdfast    ,html/resources/sequences_IDs/B/02_dolphin.jpg,html/resources/sequences_IDs/B/04_holdfast.jpg,2,4,1,1,2,1,2,3,0,20,,,,,,,,,,,,,,,,,,,,
,,,,,20,2020-07-01_10h35.20.973,retriever_ti,2020.1.3,Win32,60,Chrome,1536,864,,,,,,,,,,,,,,,,,2,,,,,,,,,,,,,,,,,,,,,,,,,,,725.071185,99,right,0.71303,sport_tshirt,4,7,-3,0,3,725.105195,725.105195,727.60321,0,21,21,21,1,99,7,4,satellite_dish,sport_tshirt,html/resources/sequences_IDs/A/10_satellite_dish.jpg,html/resources/sequences_IDs/B/07_sport_tshirt.jpg,10,7,4,2,3,2,8,6,0,20,,,,,,,,,,,,,,,,,,,,
,,,,,20,2020-07-01_10h35.20.973,retriever_ti,2020.1.3,Win32,60,Chrome,1536,864,,,,,,,,,,,,,,,,,2,,,,,,,,,,,,,,,,,,,,,,,,,,,728.2202,100,left,0.80507,sport_tshirt,4,7,1,1,1,728.237085,728.237085,730.735315,0,22,22,22,1,100,4,3,sport_tshirt,scarf         ,html/resources/sequences_IDs/B/07_sport_tshirt.jpg,html/resources/sequences_IDs/A/06_scarf.jpg,7,6,3,2,3,2,6,5,0,20,,,,,,,,,,,,,,,,,,,,
,,,,,20,2020-07-01_10h35.20.973,retriever_ti,2020.1.3,Win32,60,Chrome,1536,864,,,,,,,,,,,,,,,,,2,,,,,,,,,,,,,,,,,,,,,,,,,,,731.8354,101,left,0.88186,dolphin     ,2,2,-3,0,3,731.868635,731.868635,734.36698,0,23,23,23,1,101,2,5,dolphin     ,peacock       ,html/resources/sequences_IDs/B/02_dolphin.jpg,html/resources/sequences_IDs/A/05_peacock.jpg,2,5,1,1,2,1,2,4,0,20,,,,,,,,,,,,,,,,,,,,
,,,,,20,2020-07-01_10h35.20.973,retriever_ti,2020.1.3,Win32,60,Chrome,1536,864,,,,,,,,,,,,,,,,,2,,,,,,,,,,,,,,,,,,,,,,,,,,,734.98361,102,left,1.115185,holdfast    ,6,4,2,1,3,735.000795,735.000795,737.498835,0,24,24,24,1,102,6,4,holdfast    ,sport_tshirt,html/resources/sequences_IDs/B/04_holdfast.jpg,html/resources/sequences_IDs/B/07_sport_tshirt.jpg,4,7,2,1,3,2,3,6,0,20,,,,,,,,,,,,,,,,,,,,
,,,,,20,2020-07-01_10h35.20.973,retriever_ti,2020.1.3,Win32,60,Chrome,1536,864,,,,,,,,,,,,,,,,,2,,,,,,,,,,,,,,,,,,,,,,,,,,,738.115745,103,right,0.948665,scarf         ,3,6,-1,0,1,738.149255,738.149255,740.64732,0,25,25,25,1,103,4,3,sport_tshirt,scarf         ,html/resources/sequences_IDs/B/07_sport_tshirt.jpg,html/resources/sequences_IDs/A/06_scarf.jpg,7,6,3,2,3,2,6,5,1,20,,,,,,,,,,,,,,,,,,,,
,,,,,20,2020-07-01_10h35.20.973,retriever_ti,2020.1.3,Win32,60,Chrome,1536,864,,,,,,,,,,,,,,,,,2,,,,,,,,,,,,,,,,,,,,,,,,,,,741.747545,104,right,1.661385,sport_tshirt,4,7,-1,0,0,741.76424,741.76424,744.26246,0,26,26,26,1,104,5,4,peacock       ,sport_tshirt,html/resources/sequences_IDs/A/05_peacock.jpg,html/resources/sequences_IDs/B/07_sport_tshirt.jpg,5,7,2,1,3,2,4,6,0,20,,,,,,,,,,,,,,,,,,,,
,,,,,20,2020-07-01_10h35.20.973,retriever_ti,2020.1.3,Win32,60,Chrome,1536,864,,,,,,,,,,,,,,,,,2,,,,,,,,,,,,,,,,,,,,,,,,,,,745.36206,105,left,1.021665,slipper     ,8,8,3,1,3,745.395995,745.395995,747.89402,0,27,27,27,1,105,8,5,slipper     ,peacock       ,html/resources/sequences_IDs/B/08_slipper.jpg,html/resources/sequences_IDs/A/05_peacock.jpg,8,5,3,2,2,1,7,4,0,20,,,,,,,,,,,,,,,,,,,,
,,,,,20,2020-07-01_10h35.20.973,retriever_ti,2020.1.3,Win32,60,Chrome,1536,864,,,,,,,,,,,,,,,,,2,,,,,,,,,,,,,,,,,,,,,,,,,,,748.51103,106,right,1.08098,scarf         ,3,6,-4,0,3,748.544555,748.544555,751.04256,0,28,28,28,1,106,7,3,satellite_dish,scarf         ,html/resources/sequences_IDs/A/10_satellite_dish.jpg,html/resources/sequences_IDs/A/06_scarf.jpg,10,6,4,2,3,2,8,5,0,20,,,,,,,,,,,,,,,,,,,,
,,,,,20,2020-07-01_10h35.20.973,retriever_ti,2020.1.3,Win32,60,Chrome,1536,864,,,,,,,,,,,,,,,,,2,,,,,,,,,,,,,,,,,,,,,,,,,,,751.659605,107,right,1.04714,holdfast    ,6,4,5,1,3,751.67646,751.67646,754.17491,0,29,29,29,1,107,1,6,wolf          ,holdfast    ,html/resources/sequences_IDs/A/01_wolf.jpg,html/resources/sequences_IDs/B/04_holdfast.jpg,1,4,1,1,2,1,1,3,0,20,,,,,,,,,,,,,,,,,,,,
,,,,,20,2020-07-01_10h35.20.973,retriever_ti,2020.1.3,Win32,60,Chrome,1536,864,,,,,,,,,,,,,,,,,2,,,,,,,,,,,,,,,,,,,,,,,,,,,754.791275,108,left,1.530455,scarf         ,3,6,2,1,3,754.82495,754.82495,757.32316,0,30,30,30,1,108,3,1,scarf         ,wolf          ,html/resources/sequences_IDs/A/06_scarf.jpg,html/resources/sequences_IDs/A/01_wolf.jpg,6,1,3,2,1,1,5,1,0,20,,,,,,,,,,,,,,,,,,,,
,,,,,20,2020-07-01_10h35.20.973,retriever_ti,2020.1.3,Win32,60,Chrome,1536,864,,,,,,,,,,,,,,,,,2,,,,,,,,,,,,,,,,,,,,,,,,,,,757.940125,109,left,0.87136,dolphin     ,2,2,1,1,1,757.95681,757.95681,760.45512,0,31,31,31,1,109,2,1,dolphin     ,wolf          ,html/resources/sequences_IDs/B/02_dolphin.jpg,html/resources/sequences_IDs/A/01_wolf.jpg,2,1,1,1,1,1,2,1,0,20,,,,,,,,,,,,,,,,,,,,
,,,,,20,2020-07-01_10h35.20.973,retriever_ti,2020.1.3,Win32,60,Chrome,1536,864,,,,,,,,,,,,,,,,,2,,,,,,,,,,,,,,,,,,,,,,,,,,,761.555045,110,left,0.56846,dolphin     ,2,2,1,1,0,761.58863,761.58863,764.086735,0,32,32,32,1,110,2,1,dolphin     ,wolf          ,html/resources/sequences_IDs/B/02_dolphin.jpg,html/resources/sequences_IDs/A/01_wolf.jpg,2,1,1,1,1,1,2,1,1,20,,,,,,,,,,,,,,,,,,,,
,,,,,20,2020-07-01_10h35.20.973,retriever_ti,2020.1.3,Win32,60,Chrome,1536,864,,,,,,,,,,,,,,,,,2,,,,,,,,,,,,,,,,,,,,,,,,,,,765.186595,111,left,1.37808,wolf          ,1,1,-6,0,3,765.203745,765.203745,767.70188,0,33,33,33,1,111,1,7,wolf          ,satellite_dish,html/resources/sequences_IDs/A/01_wolf.jpg,html/resources/sequences_IDs/A/10_satellite_dish.jpg,1,10,1,1,4,2,1,8,0,20,,,,,,,,,,,,,,,,,,,,
,,,,,20,2020-07-01_10h35.20.973,retriever_ti,2020.1.3,Win32,60,Chrome,1536,864,,,,,,,,,,,,,,,,,2,,,,,,,,,,,,,,,,,,,,,,,,,,,768.31885,112,right,1.190575,slipper     ,8,8,1,1,1,768.335555,768.335555,770.833655,0,34,34,34,1,112,7,8,satellite_dish,slipper     ,html/resources/sequences_IDs/A/10_satellite_dish.jpg,html/resources/sequences_IDs/B/08_slipper.jpg,10,8,4,2,3,2,8,7,0,20,,,,,,,,,,,,,,,,,,,,
,,,,,20,2020-07-01_10h35.20.973,retriever_ti,2020.1.3,Win32,60,Chrome,1536,864,,,,,,,,,,,,,,,,,2,,,,,,,,,,,,,,,,,,,,,,,,,,,771.933905,113,right,1.11355,wolf          ,1,1,-4,0,3,771.96717,771.96717,774.46546,0,35,35,35,1,113,5,1,peacock       ,wolf          ,html/resources/sequences_IDs/A/05_peacock.jpg,html/resources/sequences_IDs/A/01_wolf.jpg,5,1,2,1,1,1,4,1,0,20,,,,,,,,,,,,,,,,,,,,
,,,,,20,2020-07-01_10h35.20.973,retriever_ti,2020.1.3,Win32,60,Chrome,1536,864,,,,,,,,,,,,,,,,,2,,,,,,,,,,,,,,,,,,,,,,,,,,,775.082075,114,right,0.706715,holdfast    ,6,4,-1,0,0,775.115835,775.115835,777.613855,0,36,36,36,1,114,7,6,satellite_dish,holdfast    ,html/resources/sequences_IDs/A/10_satellite_dish.jpg,html/resources/sequences_IDs/B/04_holdfast.jpg,10,4,4,2,2,1,8,3,0,20,,,,,,,,,,,,,,,,,,,,
,,,,,20,2020-07-01_10h35.20.973,retriever_ti,2020.1.3,Win32,60,Chrome,1536,864,,,,,,,,,,,,,,,,,2,,,,,,,,,,,,,,,,,,,,,,,,,,,778.714115,115,right,1.117765,slipper     ,8,8,2,1,3,778.74749,778.74749,781.245665,0,37,37,37,1,115,6,8,holdfast    ,slipper     ,html/resources/sequences_IDs/B/04_holdfast.jpg,html/resources/sequences_IDs/B/08_slipper.jpg,4,8,2,1,3,2,3,7,0,20,,,,,,,,,,,,,,,,,,,,
,,,,,20,2020-07-01_10h35.20.973,retriever_ti,2020.1.3,Win32,60,Chrome,1536,864,,,,,,,,,,,,,,,,,2,,,,,,,,,,,,,,,,,,,,,,,,,,,781.86279,116,left,0.9687,scarf         ,3,6,-5,0,3,781.89614,781.89614,784.394185,0,38,38,38,1,116,3,8,scarf         ,slipper     ,html/resources/sequences_IDs/A/06_scarf.jpg,html/resources/sequences_IDs/B/08_slipper.jpg,6,8,3,2,3,2,5,7,0,20,,,,,,,,,,,,,,,,,,,,
,,,,,20,2020-07-01_10h35.20.973,retriever_ti,2020.1.3,Win32,60,Chrome,1536,864,,,,,,,,,,,,,,,,,2,,,,,,,,,,,,,,,,,,,,,,,,,,,785.0119,117,left,0.916605,slipper     ,8,8,1,1,1,785.02802,785.02802,787.526195,0,39,39,39,1,117,8,7,slipper     ,satellite_dish,html/resources/sequences_IDs/B/08_slipper.jpg,html/resources/sequences_IDs/A/10_satellite_dish.jpg,8,10,3,2,4,2,7,8,0,20,,,,,,,,,,,,,,,,,,,,
,,,,,20,2020-07-01_10h35.20.973,retriever_ti,2020.1.3,Win32,60,Chrome,1536,864,,,,,,,,,,,,,,,,,2,,,,,,,,,,,,,,,,,,,,,,,,,,,788.626195,118,right,0.76317,scarf         ,3,6,-3,0,3,788.65963,788.65963,791.15778,0,40,40,40,1,118,6,3,holdfast    ,scarf         ,html/resources/sequences_IDs/B/04_holdfast.jpg,html/resources/sequences_IDs/A/06_scarf.jpg,4,6,2,1,3,2,3,5,0,20,,,,,,,,,,,,,,,,,,,,
,,,,,20,2020-07-01_10h35.20.973,retriever_ti,2020.1.3,Win32,60,Chrome,1536,864,,,,,,,,,,,,,,,,,2,,,,,,,,,,,,,,,,,,,,,,,,,,,791.77481,119,right,1.080755,holdfast    ,6,4,1,1,0,791.791685,791.791685,794.289845,0,41,41,41,1,119,5,6,peacock       ,holdfast    ,html/resources/sequences_IDs/A/05_peacock.jpg,html/resources/sequences_IDs/B/04_holdfast.jpg,5,4,2,1,2,1,4,3,1,20,,,,,,,,,,,,,,,,,,,,
,,,,,20,2020-07-01_10h35.20.973,retriever_ti,2020.1.3,Win32,60,Chrome,1536,864,,,,,,,,,,,,,,,,,2,,,,,,,,,,,,,,,,,,,,,,,,,,,795.389525,120,left,0.744735,peacock       ,5,5,-2,0,3,795.4066,795.4066,797.904905,0,42,42,42,1,120,5,7,peacock       ,satellite_dish,html/resources/sequences_IDs/A/05_peacock.jpg,html/resources/sequences_IDs/A/10_satellite_dish.jpg,5,10,2,1,4,2,4,8,0,20,,,,,,,,,,,,,,,,,,,,
,,,,,20,2020-07-01_10h35.20.973,retriever_ti,2020.1.3,Win32,60,Chrome,1536,864,,,,,,,,,,,,,,,,,2,,,,,,,,,,,,,,,,,,,,,,,,,,,798.52172,121,left,1.063375,scarf         ,3,6,1,1,1,798.55519,798.55519,801.05332,0,43,43,43,1,121,3,2,scarf         ,dolphin     ,html/resources/sequences_IDs/A/06_scarf.jpg,html/resources/sequences_IDs/B/02_dolphin.jpg,6,2,3,2,1,1,5,2,0,20,,,,,,,,,,,,,,,,,,,,
,,,,,20,2020-07-01_10h35.20.973,retriever_ti,2020.1.3,Win32,60,Chrome,1536,864,,,,,,,,,,,,,,,,,2,,,,,,,,,,,,,,,,,,,,,,,,,,,802.153515,122,right,0.796485,slipper     ,8,8,1,1,0,802.186865,802.186865,804.68509,0,44,44,44,1,122,7,8,satellite_dish,slipper     ,html/resources/sequences_IDs/A/10_satellite_dish.jpg,html/resources/sequences_IDs/B/08_slipper.jpg,10,8,4,2,3,2,8,7,1,20,,,,,,,,,,,,,,,,,,,,
,,,,,20,2020-07-01_10h35.20.973,retriever_ti,2020.1.3,Win32,60,Chrome,1536,864,,,,,,,,,,,,,,,,,2,,,,,,,,,,,,,,,,,,,,,,,,,,,805.78519,123,right,0.7183,slipper     ,8,8,3,1,3,805.801895,805.801895,808.299985,0,45,45,45,1,123,5,8,peacock       ,slipper     ,html/resources/sequences_IDs/A/05_peacock.jpg,html/resources/sequences_IDs/B/08_slipper.jpg,5,8,2,1,3,2,4,7,0,20,,,,,,,,,,,,,,,,,,,,
,,,,,20,2020-07-01_10h35.20.973,retriever_ti,2020.1.3,Win32,60,Chrome,1536,864,,,,,,,,,,,,,,,,,2,,,,,,,,,,,,,,,,,,,,,,,,,,,808.916625,124,left,0.883215,scarf         ,3,6,-1,0,0,808.93385,808.93385,811.431935,0,46,46,46,1,124,3,4,scarf         ,sport_tshirt,html/resources/sequences_IDs/A/06_scarf.jpg,html/resources/sequences_IDs/B/07_sport_tshirt.jpg,6,7,3,2,3,2,5,6,0,20,,,,,,,,,,,,,,,,,,,,
,,,,,20,2020-07-01_10h35.20.973,retriever_ti,2020.1.3,Win32,60,Chrome,1536,864,,,,,,,,,,,,,,,,,2,,,,,,,,,,,,,,,,,,,,,,,,,,,812.532125,125,left,0.93945,sport_tshirt,4,7,-1,0,0,812.56555,812.56555,815.06364,0,47,47,47,1,125,4,5,sport_tshirt,peacock       ,html/resources/sequences_IDs/B/07_sport_tshirt.jpg,html/resources/sequences_IDs/A/05_peacock.jpg,7,5,3,2,2,1,6,4,0,20,,,,,,,,,,,,,,,,,,,,
,,,,,20,2020-07-01_10h35.20.973,retriever_ti,2020.1.3,Win32,60,Chrome,1536,864,,,,,,,,,,,,,,,,,2,,,,,,,,,,,,,,,,,,,,,,,,,,,816.16365,126,right,0.829165,scarf         ,3,6,1,1,1,816.18062,816.18062,818.6786,0,48,48,48,1,126,2,3,dolphin     ,scarf         ,html/resources/sequences_IDs/B/02_dolphin.jpg,html/resources/sequences_IDs/A/06_scarf.jpg,2,6,1,1,3,2,2,5,0,20,,,,,,,,,,,,,,,,,,,,
,,,,,20,2020-07-01_10h35.20.973,retriever_ti,2020.1.3,Win32,60,Chrome,1536,864,,,,,,,,,,,,,,,,,2,,,,,,,,,,,,,,,,,,,,,,,,,,,819.778695,127,left,0.59816,slipper     ,8,8,6,1,3,819.8122,819.8122,822.310485,0,49,49,49,1,127,8,2,slipper     ,dolphin     ,html/resources/sequences_IDs/B/08_slipper.jpg,html/resources/sequences_IDs/B/02_dolphin.jpg,8,2,3,2,1,1,7,2,0,20,,,,,,,,,,,,,,,,,,,,
,,,,,20,2020-07-01_10h35.20.973,retriever_ti,2020.1.3,Win32,60,Chrome,1536,864,,,,,,,,,,,,,,,,,2,,,,,,,,,,,,,,,,,,,,,,,,,,,822.926875,128,right,0.69641,peacock       ,5,5,4,1,3,822.960705,822.960705,825.458865,0,50,50,50,1,128,1,5,wolf          ,peacock       ,html/resources/sequences_IDs/A/01_wolf.jpg,html/resources/sequences_IDs/A/05_peacock.jpg,1,5,1,1,2,1,1,4,0,20,,,,,,,,,,,,,,,,,,,,
,,,,,20,2020-07-01_10h35.20.973,retriever_ti,2020.1.3,Win32,60,Chrome,1536,864,,,,,,,,,,,,,,,,,2,,,,,,,,,,,,,,,,,,,,,,,,,,,826.07597,129,left,0.621415,dolphin     ,2,2,1,1,1,826.10946,826.10946,828.60746,0,51,51,51,1,129,2,1,dolphin     ,wolf          ,html/resources/sequences_IDs/B/02_dolphin.jpg,html/resources/sequences_IDs/A/01_wolf.jpg,2,1,1,1,1,1,2,1,0,20,,,,,,,,,,,,,,,,,,,,
,,,,,20,2020-07-01_10h35.20.973,retriever_ti,2020.1.3,Win32,60,Chrome,1536,864,,,,,,,,,,,,,,,,,2,,,,,,,,,,,,,,,,,,,,,,,,,,,829.70754,130,right,0.66345,holdfast    ,6,4,-1,0,1,829.724585,829.724585,832.22243,0,52,52,52,1,130,7,6,satellite_dish,holdfast    ,html/resources/sequences_IDs/A/10_satellite_dish.jpg,html/resources/sequences_IDs/B/04_holdfast.jpg,10,4,4,2,2,1,8,3,1,20,,,,,,,,,,,,,,,,,,,,
,,,,,20,2020-07-01_10h35.20.973,retriever_ti,2020.1.3,Win32,60,Chrome,1536,864,,,,,,,,,,,,,,,,,2,,,,,,,,,,,,,,,,,,,,,,,,,,,833.322225,131,right,0.723355,sport_tshirt,4,7,-4,0,3,833.33924,833.33924,835.83736,0,53,53,53,1,131,8,4,slipper     ,sport_tshirt,html/resources/sequences_IDs/B/08_slipper.jpg,html/resources/sequences_IDs/B/07_sport_tshirt.jpg,8,7,3,2,3,2,7,6,0,20,,,,,,,,,,,,,,,,,,,,
,,,,,20,2020-07-01_10h35.20.973,retriever_ti,2020.1.3,Win32,60,Chrome,1536,864,,,,,,,,,,,,,,,,,2,,,,,,,,,,,,,,,,,,,,,,,,,,,836.45453,132,right,0.717855,holdfast    ,6,4,2,1,3,836.48787,836.48787,838.986075,0,54,54,54,1,132,4,6,sport_tshirt,holdfast    ,html/resources/sequences_IDs/B/07_sport_tshirt.jpg,html/resources/sequences_IDs/B/04_holdfast.jpg,7,4,3,2,2,1,6,3,0,20,,,,,,,,,,,,,,,,,,,,
,,,,,20,2020-07-01_10h35.20.973,retriever_ti,2020.1.3,Win32,60,Chrome,1536,864,,,,,,,,,,,,,,,,,2,,,,,,,,,,,,,,,,,,,,,,,,,,,839.602825,133,right,1.18094,satellite_dish,7,10,1,1,1,839.619875,839.619875,842.11813,0,55,55,55,1,133,6,7,holdfast    ,satellite_dish,html/resources/sequences_IDs/B/04_holdfast.jpg,html/resources/sequences_IDs/A/10_satellite_dish.jpg,4,10,2,1,4,2,3,8,0,20,,,,,,,,,,,,,,,,,,,,
,,,,,20,2020-07-01_10h35.20.973,retriever_ti,2020.1.3,Win32,60,Chrome,1536,864,,,,,,,,,,,,,,,,,2,,,,,,,,,,,,,,,,,,,,,,,,,,,843.217845,134,left,1.01269,scarf         ,3,6,1,1,1,843.25163,843.25163,845.749815,0,56,56,56,1,134,3,2,scarf         ,dolphin     ,html/resources/sequences_IDs/A/06_scarf.jpg,html/resources/sequences_IDs/B/02_dolphin.jpg,6,2,3,2,1,1,5,2,0,20,,,,,,,,,,,,,,,,,,,,
,,,,,20,2020-07-01_10h35.20.973,retriever_ti,2020.1.3,Win32,60,Chrome,1536,864,,,,,,,,,,,,,,,,,2,,,,,,,,,,,,,,,,,,,,,,,,,,,846.84993,135,right,0.55341,satellite_dish,7,10,5,1,3,846.88332,846.88332,849.38149,0,57,57,57,1,135,2,7,dolphin     ,satellite_dish,html/resources/sequences_IDs/B/02_dolphin.jpg,html/resources/sequences_IDs/A/10_satellite_dish.jpg,2,10,1,1,4,2,2,8,0,20,,,,,,,,,,,,,,,,,,,,
,,,,,20,2020-07-01_10h35.20.973,retriever_ti,2020.1.3,Win32,60,Chrome,1536,864,,,,,,,,,,,,,,,,,2,,,,,,,,,,,,,,,,,,,,,,,,,,,849.99835,136,right,0.902405,sport_tshirt,4,7,2,1,3,850.031945,850.031945,852.53012,0,58,58,58,1,136,2,4,dolphin     ,sport_tshirt,html/resources/sequences_IDs/B/02_dolphin.jpg,html/resources/sequences_IDs/B/07_sport_tshirt.jpg,2,7,1,1,3,2,2,6,0,20,,,,,,,,,,,,,,,,,,,,
,,,,,20,2020-07-01_10h35.20.973,retriever_ti,2020.1.3,Win32,60,Chrome,1536,864,,,,,,,,,,,,,,,,,2,,,,,,,,,,,,,,,,,,,,,,,,,,,853.1467,137,right,0.964275,satellite_dish,7,10,1,1,1,853.16366,853.16366,855.662,0,59,59,59,1,137,6,7,holdfast    ,satellite_dish,html/resources/sequences_IDs/B/04_holdfast.jpg,html/resources/sequences_IDs/A/10_satellite_dish.jpg,4,10,2,1,4,2,3,8,0,20,,,,,,,,,,,,,,,,,,,,
,,,,,20,2020-07-01_10h35.20.973,retriever_ti,2020.1.3,Win32,60,Chrome,1536,864,,,,,,,,,,,,,,,,,2,,,,,,,,,,,,,,,,,,,,,,,,,,,856.761995,138,left,1.367275,satellite_dish,7,10,-1,0,0,856.77882,856.77882,859.276915,0,60,60,60,1,138,7,8,satellite_dish,slipper     ,html/resources/sequences_IDs/A/10_satellite_dish.jpg,html/resources/sequences_IDs/B/08_slipper.jpg,10,8,4,2,3,2,8,7,0,20,,,,,,,,,,,,,,,,,,,,
,,,,,20,2020-07-01_10h35.20.973,retriever_ti,2020.1.3,Win32,60,Chrome,1536,864,,,,,,,,,,,,,,,,,2,,,,,,,,,,,,,,,,,,,,,,,,,,,860.377115,139,left,1.19838,holdfast    ,6,4,5,1,3,860.41046,860.41046,862.908825,0,61,61,61,1,139,6,1,holdfast    ,wolf          ,html/resources/sequences_IDs/B/04_holdfast.jpg,html/resources/sequences_IDs/A/01_wolf.jpg,4,1,2,1,1,1,3,1,0,20,,,,,,,,,,,,,,,,,,,,
,,,,,20,2020-07-01_10h35.20.973,retriever_ti,2020.1.3,Win32,60,Chrome,1536,864,,,,,,,,,,,,,,,,,2,,,,,,,,,,,,,,,,,,,,,,,,,,,863.525385,140,right,1.18136,satellite_dish,7,10,-1,0,0,863.542365,863.542365,866.040585,0,62,62,62,1,140,8,7,slipper     ,satellite_dish,html/resources/sequences_IDs/B/08_slipper.jpg,html/resources/sequences_IDs/A/10_satellite_dish.jpg,8,10,3,2,4,2,7,8,0,20,,,,,,,,,,,,,,,,,,,,
,,,,,20,2020-07-01_10h35.20.973,retriever_ti,2020.1.3,Win32,60,Chrome,1536,864,,,,,,,,,,,,,,,,,2,,,,,,,,,,,,,,,,,,,,,,,,,,,867.14068,141,right,0.946665,holdfast    ,6,4,1,1,1,867.174075,867.174075,869.67226,0,63,63,63,1,141,5,6,peacock       ,holdfast    ,html/resources/sequences_IDs/A/05_peacock.jpg,html/resources/sequences_IDs/B/04_holdfast.jpg,5,4,2,1,2,1,4,3,0,20,,,,,,,,,,,,,,,,,,,,
,,,,,20,2020-07-01_10h35.20.973,retriever_ti,2020.1.3,Win32,60,Chrome,1536,864,,,,,,,,,,,,,,,,,2,,,,,,,,,,,,,,,,,,,,,,,,,,,870.772465,142,left,0.93004,scarf         ,3,6,-2,0,3,870.80562,870.80562,873.30394,0,64,64,64,1,142,3,5,scarf         ,peacock       ,html/resources/sequences_IDs/A/06_scarf.jpg,html/resources/sequences_IDs/A/05_peacock.jpg,6,5,3,2,2,1,5,4,0,20,,,,,,,,,,,,,,,,,,,,
,,,,,20,2020-07-01_10h35.20.973,retriever_ti,2020.1.3,Win32,60,Chrome,1536,864,,,,,,,,,,,,,,,,,2,,,,,,,,,,,,,,,,,,,,,,,,,,,873.921035,143,left,1.32331,holdfast    ,6,4,4,1,3,873.954205,873.954205,876.452495,0,65,65,65,1,143,6,2,holdfast    ,dolphin     ,html/resources/sequences_IDs/B/04_holdfast.jpg,html/resources/sequences_IDs/B/02_dolphin.jpg,4,2,2,1,1,1,3,2,0,20,,,,,,,,,,,,,,,,,,,,
,,,,,20,2020-07-01_10h35.20.973,retriever_ti,2020.1.3,Win32,60,Chrome,1536,864,,,,,,,,,,,,,,,,,2,,,,,,,,,,,,,,,,,,,,,,,,,,,877.069185,144,left,0.962035,scarf         ,3,6,-4,0,3,877.10284,877.10284,879.601075,0,66,66,66,1,144,3,7,scarf         ,satellite_dish,html/resources/sequences_IDs/A/06_scarf.jpg,html/resources/sequences_IDs/A/10_satellite_dish.jpg,6,10,3,2,4,2,5,8,0,20,,,,,,,,,,,,,,,,,,,,
,,,,,20,2020-07-01_10h35.20.973,retriever_ti,2020.1.3,Win32,60,Chrome,1536,864,,,,,,,,,,,,,,,,,2,,,,,,,,,,,,,,,,,,,,,,,,,,,880.218155,145,left,1.431445,peacock       ,5,5,2,1,3,880.23472,880.23472,882.73291,0,67,67,67,1,145,5,3,peacock       ,scarf         ,html/resources/sequences_IDs/A/05_peacock.jpg,html/resources/sequences_IDs/A/06_scarf.jpg,5,6,2,1,3,2,4,5,0,20,,,,,,,,,,,,,,,,,,,,
,,,,,20,2020-07-01_10h35.20.973,retriever_ti,2020.1.3,Win32,60,Chrome,1536,864,,,,,,,,,,,,,,,,,2,,,,,,,,,,,,,,,,,,,,,,,,,,,883.349555,146,right,1.485915,sport_tshirt,4,7,1,1,1,883.36678,883.36678,885.864965,0,68,68,68,1,146,3,4,scarf         ,sport_tshirt,html/resources/sequences_IDs/A/06_scarf.jpg,html/resources/sequences_IDs/B/07_sport_tshirt.jpg,6,7,3,2,3,2,5,6,0,20,,,,,,,,,,,,,,,,,,,,
,,,,,20,2020-07-01_10h35.20.973,retriever_ti,2020.1.3,Win32,60,Chrome,1536,864,,,,,,,,,,,,,,,,,2,,,,,,,,,,,,,,,,,,,,,,,,,,,886.965135,147,left,1.420235,dolphin     ,2,2,-1,0,0,886.981725,886.981725,889.479885,0,69,69,69,1,147,2,3,dolphin     ,scarf         ,html/resources/sequences_IDs/B/02_dolphin.jpg,html/resources/sequences_IDs/A/06_scarf.jpg,2,6,1,1,3,2,2,5,0,20,,,,,,,,,,,,,,,,,,,,
,,,,,20,2020-07-01_10h35.20.973,retriever_ti,2020.1.3,Win32,60,Chrome,1536,864,,,,,,,,,,,,,,,,,2,,,,,,,,,,,,,,,,,,,,,,,,,,,890.580125,148,right,0.816055,holdfast    ,6,4,-2,0,3,890.59664,890.59664,893.09495,0,70,70,70,1,148,8,6,slipper     ,holdfast    ,html/resources/sequences_IDs/B/08_slipper.jpg,html/resources/sequences_IDs/B/04_holdfast.jpg,8,4,3,2,2,1,7,3,0,20,,,,,,,,,,,,,,,,,,,,
,,,,,20,2020-07-01_10h35.20.973,retriever_ti,2020.1.3,Win32,60,Chrome,1536,864,,,,,,,,,,,,,,,,,2,,,,,,,,,,,,,,,,,,,,,,,,,,,893.71195,149,right,0.962735,wolf          ,1,1,-6,0,3,893.745255,893.745255,896.24355,0,71,71,71,1,149,7,1,satellite_dish,wolf          ,html/resources/sequences_IDs/A/10_satellite_dish.jpg,html/resources/sequences_IDs/A/01_wolf.jpg,10,1,4,2,1,1,8,1,0,20,,,,,,,,,,,,,,,,,,,,
,,,,,20,2020-07-01_10h35.20.973,retriever_ti,2020.1.3,Win32,60,Chrome,1536,864,,,,,,,,,,,,,,,,,2,,,,,,,,,,,,,,,,,,,,,,,,,,,896.860165,150,right,1.248415,scarf         ,3,6,-5,0,3,896.893865,896.893865,899.39216,0,72,72,72,1,150,8,3,slipper     ,scarf         ,html/resources/sequences_IDs/B/08_slipper.jpg,html/resources/sequences_IDs/A/06_scarf.jpg,8,6,3,2,3,2,7,5,0,20,,,,,,,,,,,,,,,,,,,,
,,,,,20,2020-07-01_10h35.20.973,retriever_ti,2020.1.3,Win32,60,Chrome,1536,864,,,,,,,,,,,,,,,,,2,,,,,,,,,,,,,,,,,,,,,,,,,,,900.009255,151,NaN,NaN,No_response,NaN,NaN,NaN,2,2,900.025885,900.025885,902.52399,0,73,73,73,1,151,4,7,sport_tshirt,satellite_dish,html/resources/sequences_IDs/B/07_sport_tshirt.jpg,html/resources/sequences_IDs/A/10_satellite_dish.jpg,7,10,3,2,4,2,6,8,0,20,,,,,,,,,,,,,,,,,,,,
,,,,,20,2020-07-01_10h35.20.973,retriever_ti,2020.1.3,Win32,60,Chrome,1536,864,,,,,,,,,,,,,,,,,2,,,,,,,,,,,,,,,,,,,,,,,,,,,903.62377,152,right,0.579235,peacock       ,5,5,1,1,1,903.657545,903.657545,906.155695,0,74,74,74,1,152,4,5,sport_tshirt,peacock       ,html/resources/sequences_IDs/B/07_sport_tshirt.jpg,html/resources/sequences_IDs/A/05_peacock.jpg,7,5,3,2,2,1,6,4,0,20,,,,,,,,,,,,,,,,,,,,
,,,,,20,2020-07-01_10h35.20.973,retriever_ti,2020.1.3,Win32,60,Chrome,1536,864,,,,,,,,,,,,,,,,,2,,,,,,,,,,,,,,,,,,,,,,,,,,,907.255505,153,left,0.54726,sport_tshirt,4,7,3,1,3,907.27258,907.27258,909.77061,0,75,75,75,1,153,4,1,sport_tshirt,wolf          ,html/resources/sequences_IDs/B/07_sport_tshirt.jpg,html/resources/sequences_IDs/A/01_wolf.jpg,7,1,3,2,1,1,6,1,0,20,,,,,,,,,,,,,,,,,,,,
,,,,,20,2020-07-01_10h35.20.973,retriever_ti,2020.1.3,Win32,60,Chrome,1536,864,,,,,,,,,,,,,,,,,2,,,,,,,,,,,,,,,,,,,,,,,,,,,910.38754,154,right,0.86369,slipper     ,8,8,4,1,3,910.42115,910.42115,912.919185,0,76,76,76,1,154,4,8,sport_tshirt,slipper     ,html/resources/sequences_IDs/B/07_sport_tshirt.jpg,html/resources/sequences_IDs/B/08_slipper.jpg,7,8,3,2,3,2,6,7,0,20,,,,,,,,,,,,,,,,,,,,
,,,,,20,2020-07-01_10h35.20.973,retriever_ti,2020.1.3,Win32,60,Chrome,1536,864,,,,,,,,,,,,,,,,,,,,,,,,,,,,,,,,,,,,,0,1.69031,,,,,,,,,,,,,,,,,,,,,,,,,,,,,,,,,,,,,,,,,1,0,1,0,1,,,,,,,,,,,,,,,
,,,,,20,2020-07-01_10h35.20.973,retriever_ti,2020.1.3,Win32,60,Chrome,1536,864,,,,,,,,,,,,,,,,,3,,,,,,,,,,,,,,,,,,,,,,,,,,,920.264295,155,left,0.87136,dolphin     ,2,2,-3,0,3,920.283195,920.283195,922.78149,0,0,0,0,1,155,2,5,dolphin     ,peacock       ,html/resources/sequences_IDs/B/02_dolphin.jpg,html/resources/sequences_IDs/A/05_peacock.jpg,2,5,1,1,2,1,2,4,0,20,,,,,,,,,,,,,,,,,,,,
,,,,,20,2020-07-01_10h35.20.973,retriever_ti,2020.1.3,Win32,60,Chrome,1536,864,,,,,,,,,,,,,,,,,3,,,,,,,,,,,,,,,,,,,,,,,,,,,923.39858,156,right,1.26603,scarf         ,3,6,-4,0,3,923.43178,923.43178,925.929995,0,1,1,1,1,156,7,3,satellite_dish,scarf         ,html/resources/sequences_IDs/A/10_satellite_dish.jpg,html/resources/sequences_IDs/A/06_scarf.jpg,10,6,4,2,3,2,8,5,0,20,,,,,,,,,,,,,,,,,,,,
,,,,,20,2020-07-01_10h35.20.973,retriever_ti,2020.1.3,Win32,60,Chrome,1536,864,,,,,,,,,,,,,,,,,3,,,,,,,,,,,,,,,,,,,,,,,,,,,926.546705,157,right,0.66359,satellite_dish,7,10,5,1,3,926.56367,926.56367,929.06203,0,2,2,2,1,157,2,7,dolphin     ,satellite_dish,html/resources/sequences_IDs/B/02_dolphin.jpg,html/resources/sequences_IDs/A/10_satellite_dish.jpg,2,10,1,1,4,2,2,8,0,20,,,,,,,,,,,,,,,,,,,,
,,,,,20,2020-07-01_10h35.20.973,retriever_ti,2020.1.3,Win32,60,Chrome,1536,864,,,,,,,,,,,,,,,,,3,,,,,,,,,,,,,,,,,,,,,,,,,,,929.67899,158,left,1.57866,wolf          ,1,1,-6,0,3,929.69579,929.69579,932.193745,0,3,3,3,1,158,1,7,wolf          ,satellite_dish,html/resources/sequences_IDs/A/01_wolf.jpg,html/resources/sequences_IDs/A/10_satellite_dish.jpg,1,10,1,1,4,2,1,8,0,20,,,,,,,,,,,,,,,,,,,,
,,,,,20,2020-07-01_10h35.20.973,retriever_ti,2020.1.3,Win32,60,Chrome,1536,864,,,,,,,,,,,,,,,,,3,,,,,,,,,,,,,,,,,,,,,,,,,,,932.810395,159,right,0.7503,slipper     ,8,8,4,1,3,932.82772,932.82772,935.32581,0,4,4,4,1,159,4,8,sport_tshirt,slipper     ,html/resources/sequences_IDs/B/07_sport_tshirt.jpg,html/resources/sequences_IDs/B/08_slipper.jpg,7,8,3,2,3,2,6,7,0,20,,,,,,,,,,,,,,,,,,,,
,,,,,20,2020-07-01_10h35.20.973,retriever_ti,2020.1.3,Win32,60,Chrome,1536,864,,,,,,,,,,,,,,,,,3,,,,,,,,,,,,,,,,,,,,,,,,,,,935.942855,160,left,0.665465,scarf         ,3,6,-1,0,0,935.959485,935.959485,938.457695,0,5,5,5,1,160,3,4,scarf         ,sport_tshirt,html/resources/sequences_IDs/A/06_scarf.jpg,html/resources/sequences_IDs/B/07_sport_tshirt.jpg,6,7,3,2,3,2,5,6,0,20,,,,,,,,,,,,,,,,,,,,
,,,,,20,2020-07-01_10h35.20.973,retriever_ti,2020.1.3,Win32,60,Chrome,1536,864,,,,,,,,,,,,,,,,,3,,,,,,,,,,,,,,,,,,,,,,,,,,,939.55771,161,left,0.831085,slipper     ,8,8,3,1,3,939.57462,939.57462,942.072725,0,6,6,6,1,161,8,5,slipper     ,peacock       ,html/resources/sequences_IDs/B/08_slipper.jpg,html/resources/sequences_IDs/A/05_peacock.jpg,8,5,3,2,2,1,7,4,0,20,,,,,,,,,,,,,,,,,,,,
,,,,,20,2020-07-01_10h35.20.973,retriever_ti,2020.1.3,Win32,60,Chrome,1536,864,,,,,,,,,,,,,,,,,3,,,,,,,,,,,,,,,,,,,,,,,,,,,942.68944,162,right,1.23744,satellite_dish,7,10,1,1,1,942.70637,942.70637,945.204805,0,7,7,7,1,162,6,7,holdfast    ,satellite_dish,html/resources/sequences_IDs/B/04_holdfast.jpg,html/resources/sequences_IDs/A/10_satellite_dish.jpg,4,10,2,1,4,2,3,8,0,20,,,,,,,,,,,,,,,,,,,,
,,,,,20,2020-07-01_10h35.20.973,retriever_ti,2020.1.3,Win32,60,Chrome,1536,864,,,,,,,,,,,,,,,,,3,,,,,,,,,,,,,,,,,,,,,,,,,,,946.30454,163,right,2.412695,sport_tshirt,4,7,2,1,3,946.321525,946.321525,948.819825,0,8,8,8,1,163,2,4,dolphin     ,sport_tshirt,html/resources/sequences_IDs/B/02_dolphin.jpg,html/resources/sequences_IDs/B/07_sport_tshirt.jpg,2,7,1,1,3,2,2,6,0,20,,,,,,,,,,,,,,,,,,,,
,,,,,20,2020-07-01_10h35.20.973,retriever_ti,2020.1.3,Win32,60,Chrome,1536,864,,,,,,,,,,,,,,,,,3,,,,,,,,,,,,,,,,,,,,,,,,,,,949.43697,164,right,1.26342,slipper     ,8,8,7,1,3,949.453295,949.453295,951.951655,0,9,9,9,1,164,1,8,wolf          ,slipper     ,html/resources/sequences_IDs/A/01_wolf.jpg,html/resources/sequences_IDs/B/08_slipper.jpg,1,8,1,1,3,2,1,7,0,20,,,,,,,,,,,,,,,,,,,,
,,,,,20,2020-07-01_10h35.20.973,retriever_ti,2020.1.3,Win32,60,Chrome,1536,864,,,,,,,,,,,,,,,,,3,,,,,,,,,,,,,,,,,,,,,,,,,,,952.568255,165,left,0.697135,holdfast    ,6,4,3,1,3,952.585365,952.585365,955.08337,0,10,10,10,1,165,6,3,holdfast    ,scarf         ,html/resources/sequences_IDs/B/04_holdfast.jpg,html/resources/sequences_IDs/A/06_scarf.jpg,4,6,2,1,3,2,3,5,0,20,,,,,,,,,,,,,,,,,,,,
,,,,,20,2020-07-01_10h35.20.973,retriever_ti,2020.1.3,Win32,60,Chrome,1536,864,,,,,,,,,,,,,,,,,3,,,,,,,,,,,,,,,,,,,,,,,,,,,955.70032,166,left,0.78688,slipper     ,8,8,4,1,3,955.73384,955.73384,958.232,0,11,11,11,1,166,8,4,slipper     ,sport_tshirt,html/resources/sequences_IDs/B/08_slipper.jpg,html/resources/sequences_IDs/B/07_sport_tshirt.jpg,8,7,3,2,3,2,7,6,0,20,,,,,,,,,,,,,,,,,,,,
,,,,,20,2020-07-01_10h35.20.973,retriever_ti,2020.1.3,Win32,60,Chrome,1536,864,,,,,,,,,,,,,,,,,3,,,,,,,,,,,,,,,,,,,,,,,,,,,958.848635,167,right,0.899005,dolphin     ,2,2,1,1,0,958.88254,958.88254,961.38055,0,12,12,12,1,167,1,2,wolf          ,dolphin     ,html/resources/sequences_IDs/A/01_wolf.jpg,html/resources/sequences_IDs/B/02_dolphin.jpg,1,2,1,1,1,1,1,2,1,20,,,,,,,,,,,,,,,,,,,,
,,,,,20,2020-07-01_10h35.20.973,retriever_ti,2020.1.3,Win32,60,Chrome,1536,864,,,,,,,,,,,,,,,,,3,,,,,,,,,,,,,,,,,,,,,,,,,,,962.480835,168,left,0.60872,sport_tshirt,4,7,-3,0,3,962.514125,962.514125,965.012335,0,13,13,13,1,168,4,7,sport_tshirt,satellite_dish,html/resources/sequences_IDs/B/07_sport_tshirt.jpg,html/resources/sequences_IDs/A/10_satellite_dish.jpg,7,10,3,2,4,2,6,8,0,20,,,,,,,,,,,,,,,,,,,,
,,,,,20,2020-07-01_10h35.20.973,retriever_ti,2020.1.3,Win32,60,Chrome,1536,864,,,,,,,,,,,,,,,,,3,,,,,,,,,,,,,,,,,,,,,,,,,,,965.629405,169,right,0.631865,peacock       ,5,5,2,1,3,965.662715,965.662715,968.160935,0,14,14,14,1,169,3,5,scarf         ,peacock       ,html/resources/sequences_IDs/A/06_scarf.jpg,html/resources/sequences_IDs/A/05_peacock.jpg,6,5,3,2,2,1,5,4,0,20,,,,,,,,,,,,,,,,,,,,
,,,,,20,2020-07-01_10h35.20.973,retriever_ti,2020.1.3,Win32,60,Chrome,1536,864,,,,,,,,,,,,,,,,,3,,,,,,,,,,,,,,,,,,,,,,,,,,,968.77756,170,left,0.902985,holdfast    ,6,4,4,1,3,968.79456,968.79456,971.292885,0,15,15,15,1,170,6,2,holdfast    ,dolphin     ,html/resources/sequences_IDs/B/04_holdfast.jpg,html/resources/sequences_IDs/B/02_dolphin.jpg,4,2,2,1,1,1,3,2,0,20,,,,,,,,,,,,,,,,,,,,
,,,,,20,2020-07-01_10h35.20.973,retriever_ti,2020.1.3,Win32,60,Chrome,1536,864,,,,,,,,,,,,,,,,,3,,,,,,,,,,,,,,,,,,,,,,,,,,,971.909915,171,left,0.77459,holdfast    ,6,4,-2,0,3,971.943095,971.943095,974.441415,0,16,16,16,1,171,6,8,holdfast    ,slipper     ,html/resources/sequences_IDs/B/04_holdfast.jpg,html/resources/sequences_IDs/B/08_slipper.jpg,4,8,2,1,3,2,3,7,0,20,,,,,,,,,,,,,,,,,,,,
,,,,,20,2020-07-01_10h35.20.973,retriever_ti,2020.1.3,Win32,60,Chrome,1536,864,,,,,,,,,,,,,,,,,3,,,,,,,,,,,,,,,,,,,,,,,,,,,975.05808,172,left,0.68066,sport_tshirt,4,7,1,1,1,975.075155,975.075155,977.57323,0,17,17,17,1,172,4,3,sport_tshirt,scarf         ,html/resources/sequences_IDs/B/07_sport_tshirt.jpg,html/resources/sequences_IDs/A/06_scarf.jpg,7,6,3,2,3,2,6,5,0,20,,,,,,,,,,,,,,,,,,,,
,,,,,20,2020-07-01_10h35.20.973,retriever_ti,2020.1.3,Win32,60,Chrome,1536,864,,,,,,,,,,,,,,,,,3,,,,,,,,,,,,,,,,,,,,,,,,,,,978.67347,173,left,0.895925,scarf         ,3,6,-5,0,3,978.70685,978.70685,981.20499,0,18,18,18,1,173,3,8,scarf         ,slipper     ,html/resources/sequences_IDs/A/06_scarf.jpg,html/resources/sequences_IDs/B/08_slipper.jpg,6,8,3,2,3,2,5,7,0,20,,,,,,,,,,,,,,,,,,,,
,,,,,20,2020-07-01_10h35.20.973,retriever_ti,2020.1.3,Win32,60,Chrome,1536,864,,,,,,,,,,,,,,,,,3,,,,,,,,,,,,,,,,,,,,,,,,,,,981.821965,174,right,0.572605,holdfast    ,6,4,1,1,1,981.83859,981.83859,984.336945,0,19,19,19,1,174,5,6,peacock       ,holdfast    ,html/resources/sequences_IDs/A/05_peacock.jpg,html/resources/sequences_IDs/B/04_holdfast.jpg,5,4,2,1,2,1,4,3,0,20,,,,,,,,,,,,,,,,,,,,
,,,,,20,2020-07-01_10h35.20.973,retriever_ti,2020.1.3,Win32,60,Chrome,1536,864,,,,,,,,,,,,,,,,,3,,,,,,,,,,,,,,,,,,,,,,,,,,,985.43683,175,left,1.163175,scarf         ,3,6,-1,0,0,985.453785,985.453785,987.95217,0,20,20,20,1,175,3,4,scarf         ,sport_tshirt,html/resources/sequences_IDs/A/06_scarf.jpg,html/resources/sequences_IDs/B/07_sport_tshirt.jpg,6,7,3,2,3,2,5,6,0,20,,,,,,,,,,,,,,,,,,,,
,,,,,20,2020-07-01_10h35.20.973,retriever_ti,2020.1.3,Win32,60,Chrome,1536,864,,,,,,,,,,,,,,,,,3,,,,,,,,,,,,,,,,,,,,,,,,,,,989.05177,176,left,0.8772,slipper     ,8,8,7,1,3,989.085365,989.085365,991.583665,0,21,21,21,1,176,8,1,slipper     ,wolf          ,html/resources/sequences_IDs/B/08_slipper.jpg,html/resources/sequences_IDs/A/01_wolf.jpg,8,1,3,2,1,1,7,1,0,20,,,,,,,,,,,,,,,,,,,,
,,,,,20,2020-07-01_10h35.20.973,retriever_ti,2020.1.3,Win32,60,Chrome,1536,864,,,,,,,,,,,,,,,,,3,,,,,,,,,,,,,,,,,,,,,,,,,,,992.20065,177,right,1.16369,slipper     ,8,8,1,1,1,992.23392,992.23392,994.732295,0,22,22,22,1,177,7,8,satellite_dish,slipper     ,html/resources/sequences_IDs/A/10_satellite_dish.jpg,html/resources/sequences_IDs/B/08_slipper.jpg,10,8,4,2,3,2,8,7,0,20,,,,,,,,,,,,,,,,,,,,
,,,,,20,2020-07-01_10h35.20.973,retriever_ti,2020.1.3,Win32,60,Chrome,1536,864,,,,,,,,,,,,,,,,,3,,,,,,,,,,,,,,,,,,,,,,,,,,,995.83224,178,right,0.807855,holdfast    ,6,4,5,1,3,995.849095,995.849095,998.34724,0,23,23,23,1,178,1,6,wolf          ,holdfast    ,html/resources/sequences_IDs/A/01_wolf.jpg,html/resources/sequences_IDs/B/04_holdfast.jpg,1,4,1,1,2,1,1,3,0,20,,,,,,,,,,,,,,,,,,,,
,,,,,20,2020-07-01_10h35.20.973,retriever_ti,2020.1.3,Win32,60,Chrome,1536,864,,,,,,,,,,,,,,,,,3,,,,,,,,,,,,,,,,,,,,,,,,,,,998.96401,179,left,1.085505,wolf          ,1,1,-3,0,3,998.98099,998.98099,1001.47919,0,24,24,24,1,179,1,4,wolf          ,sport_tshirt,html/resources/sequences_IDs/A/01_wolf.jpg,html/resources/sequences_IDs/B/07_sport_tshirt.jpg,1,7,1,1,3,2,1,6,0,20,,,,,,,,,,,,,,,,,,,,
,,,,,20,2020-07-01_10h35.20.973,retriever_ti,2020.1.3,Win32,60,Chrome,1536,864,,,,,,,,,,,,,,,,,3,,,,,,,,,,,,,,,,,,,,,,,,,,,1002.09622,180,right,0.99593,scarf         ,3,6,-2,0,3,1002.11284,1002.11284,1004.61098,0,25,25,25,1,180,5,3,peacock       ,scarf         ,html/resources/sequences_IDs/A/05_peacock.jpg,html/resources/sequences_IDs/A/06_scarf.jpg,5,6,2,1,3,2,4,5,0,20,,,,,,,,,,,,,,,,,,,,
,,,,,20,2020-07-01_10h35.20.973,retriever_ti,2020.1.3,Win32,60,Chrome,1536,864,,,,,,,,,,,,,,,,,3,,,,,,,,,,,,,,,,,,,,,,,,,,,1005.227625,181,right,0.964495,scarf         ,3,6,1,1,1,1005.24476,1005.24476,1007.74299,0,26,26,26,1,181,2,3,dolphin     ,scarf         ,html/resources/sequences_IDs/B/02_dolphin.jpg,html/resources/sequences_IDs/A/06_scarf.jpg,2,6,1,1,3,2,2,5,0,20,,,,,,,,,,,,,,,,,,,,
,,,,,20,2020-07-01_10h35.20.973,retriever_ti,2020.1.3,Win32,60,Chrome,1536,864,,,,,,,,,,,,,,,,,3,,,,,,,,,,,,,,,,,,,,,,,,,,,1008.843095,182,right,1.570475,holdfast    ,6,4,1,1,1,1008.876385,1008.876385,1011.374665,0,27,27,27,1,182,5,6,peacock       ,holdfast    ,html/resources/sequences_IDs/A/05_peacock.jpg,html/resources/sequences_IDs/B/04_holdfast.jpg,5,4,2,1,2,1,4,3,0,20,,,,,,,,,,,,,,,,,,,,
,,,,,20,2020-07-01_10h35.20.973,retriever_ti,2020.1.3,Win32,60,Chrome,1536,864,,,,,,,,,,,,,,,,,3,,,,,,,,,,,,,,,,,,,,,,,,,,,1012.47471,183,right,0.6286,holdfast    ,6,4,2,1,3,1012.5083,1012.5083,1015.00619,0,28,28,28,1,183,4,6,sport_tshirt,holdfast    ,html/resources/sequences_IDs/B/07_sport_tshirt.jpg,html/resources/sequences_IDs/B/04_holdfast.jpg,7,4,3,2,2,1,6,3,0,20,,,,,,,,,,,,,,,,,,,,
,,,,,20,2020-07-01_10h35.20.973,retriever_ti,2020.1.3,Win32,60,Chrome,1536,864,,,,,,,,,,,,,,,,,3,,,,,,,,,,,,,,,,,,,,,,,,,,,1015.623295,184,right,0.78033,scarf         ,3,6,-1,0,0,1015.64008,1015.64008,1018.13825,0,29,29,29,1,184,4,3,sport_tshirt,scarf         ,html/resources/sequences_IDs/B/07_sport_tshirt.jpg,html/resources/sequences_IDs/A/06_scarf.jpg,7,6,3,2,3,2,6,5,0,20,,,,,,,,,,,,,,,,,,,,
,,,,,20,2020-07-01_10h35.20.973,retriever_ti,2020.1.3,Win32,60,Chrome,1536,864,,,,,,,,,,,,,,,,,3,,,,,,,,,,,,,,,,,,,,,,,,,,,1019.23796,185,left,2.067515,satellite_dish,7,10,3,1,3,1019.27192,1019.27192,1021.769965,0,30,30,30,1,185,7,4,satellite_dish,sport_tshirt,html/resources/sequences_IDs/A/10_satellite_dish.jpg,html/resources/sequences_IDs/B/07_sport_tshirt.jpg,10,7,4,2,3,2,8,6,0,20,,,,,,,,,,,,,,,,,,,,
,,,,,20,2020-07-01_10h35.20.973,retriever_ti,2020.1.3,Win32,60,Chrome,1536,864,,,,,,,,,,,,,,,,,3,,,,,,,,,,,,,,,,,,,,,,,,,,,1022.387,186,right,2.265385,wolf          ,1,1,-4,0,3,1022.403685,1022.403685,1024.90174,0,31,31,31,1,186,5,1,peacock       ,wolf          ,html/resources/sequences_IDs/A/05_peacock.jpg,html/resources/sequences_IDs/A/01_wolf.jpg,5,1,2,1,1,1,4,1,0,20,,,,,,,,,,,,,,,,,,,,
,,,,,20,2020-07-01_10h35.20.973,retriever_ti,2020.1.3,Win32,60,Chrome,1536,864,,,,,,,,,,,,,,,,,3,,,,,,,,,,,,,,,,,,,,,,,,,,,1025.51873,187,left,1.046915,scarf         ,3,6,2,1,3,1025.535945,1025.535945,1028.03377,0,32,32,32,1,187,3,1,scarf         ,wolf          ,html/resources/sequences_IDs/A/06_scarf.jpg,html/resources/sequences_IDs/A/01_wolf.jpg,6,1,3,2,1,1,5,1,0,20,,,,,,,,,,,,,,,,,,,,
,,,,,20,2020-07-01_10h35.20.973,retriever_ti,2020.1.3,Win32,60,Chrome,1536,864,,,,,,,,,,,,,,,,,3,,,,,,,,,,,,,,,,,,,,,,,,,,,1028.65041,188,left,1.763785,dolphin     ,2,2,1,1,1,1028.684215,1028.684215,1031.18236,0,33,33,33,1,188,2,1,dolphin     ,wolf          ,html/resources/sequences_IDs/B/02_dolphin.jpg,html/resources/sequences_IDs/A/01_wolf.jpg,2,1,1,1,1,1,2,1,0,20,,,,,,,,,,,,,,,,,,,,
,,,,,20,2020-07-01_10h35.20.973,retriever_ti,2020.1.3,Win32,60,Chrome,1536,864,,,,,,,,,,,,,,,,,3,,,,,,,,,,,,,,,,,,,,,,,,,,,1032.282495,189,right,0.9623,peacock       ,5,5,-1,0,1,1032.299205,1032.299205,1034.79726,0,34,34,34,1,189,6,5,holdfast    ,peacock       ,html/resources/sequences_IDs/B/04_holdfast.jpg,html/resources/sequences_IDs/A/05_peacock.jpg,4,5,2,1,2,1,3,4,1,20,,,,,,,,,,,,,,,,,,,,
,,,,,20,2020-07-01_10h35.20.973,retriever_ti,2020.1.3,Win32,60,Chrome,1536,864,,,,,,,,,,,,,,,,,3,,,,,,,,,,,,,,,,,,,,,,,,,,,1035.897485,190,left,0.71427,peacock       ,5,5,1,1,1,1035.91419,1035.91419,1038.41245,0,35,35,35,1,190,5,4,peacock       ,sport_tshirt,html/resources/sequences_IDs/A/05_peacock.jpg,html/resources/sequences_IDs/B/07_sport_tshirt.jpg,5,7,2,1,3,2,4,6,0,20,,,,,,,,,,,,,,,,,,,,
,,,,,20,2020-07-01_10h35.20.973,retriever_ti,2020.1.3,Win32,60,Chrome,1536,864,,,,,,,,,,,,,,,,,3,,,,,,,,,,,,,,,,,,,,,,,,,,,1039.5126,191,right,1.599975,holdfast    ,6,4,-1,0,0,1039.529315,1039.529315,1042.027415,0,36,36,36,1,191,7,6,satellite_dish,holdfast    ,html/resources/sequences_IDs/A/10_satellite_dish.jpg,html/resources/sequences_IDs/B/04_holdfast.jpg,10,4,4,2,2,1,8,3,0,20,,,,,,,,,,,,,,,,,,,,
,,,,,20,2020-07-01_10h35.20.973,retriever_ti,2020.1.3,Win32,60,Chrome,1536,864,,,,,,,,,,,,,,,,,3,,,,,,,,,,,,,,,,,,,,,,,,,,,1043.127205,192,left,1.046715,dolphin     ,2,2,-4,0,3,1043.144295,1043.144295,1045.64235,0,37,37,37,1,192,2,6,dolphin     ,holdfast    ,html/resources/sequences_IDs/B/02_dolphin.jpg,html/resources/sequences_IDs/B/04_holdfast.jpg,2,4,1,1,2,1,2,3,0,20,,,,,,,,,,,,,,,,,,,,
,,,,,20,2020-07-01_10h35.20.973,retriever_ti,2020.1.3,Win32,60,Chrome,1536,864,,,,,,,,,,,,,,,,,3,,,,,,,,,,,,,,,,,,,,,,,,,,,1046.259385,193,left,0.933835,scarf         ,3,6,1,1,1,1046.276285,1046.276285,1048.774355,0,38,38,38,1,193,3,2,scarf         ,dolphin     ,html/resources/sequences_IDs/A/06_scarf.jpg,html/resources/sequences_IDs/B/02_dolphin.jpg,6,2,3,2,1,1,5,2,0,20,,,,,,,,,,,,,,,,,,,,
,,,,,20,2020-07-01_10h35.20.973,retriever_ti,2020.1.3,Win32,60,Chrome,1536,864,,,,,,,,,,,,,,,,,3,,,,,,,,,,,,,,,,,,,,,,,,,,,1049.874475,194,right,0.895635,holdfast    ,6,4,3,1,3,1049.89137,1049.89137,1052.389265,0,39,39,39,1,194,3,6,scarf         ,holdfast    ,html/resources/sequences_IDs/A/06_scarf.jpg,html/resources/sequences_IDs/B/04_holdfast.jpg,6,4,3,2,2,1,5,3,0,20,,,,,,,,,,,,,,,,,,,,
,,,,,20,2020-07-01_10h35.20.973,retriever_ti,2020.1.3,Win32,60,Chrome,1536,864,,,,,,,,,,,,,,,,,3,,,,,,,,,,,,,,,,,,,,,,,,,,,1053.005925,195,left,0.538685,holdfast    ,6,4,1,1,1,1053.0229,1053.0229,1055.52133,0,40,40,40,1,195,6,5,holdfast    ,peacock       ,html/resources/sequences_IDs/B/04_holdfast.jpg,html/resources/sequences_IDs/A/05_peacock.jpg,4,5,2,1,2,1,3,4,0,20,,,,,,,,,,,,,,,,,,,,
,,,,,20,2020-07-01_10h35.20.973,retriever_ti,2020.1.3,Win32,60,Chrome,1536,864,,,,,,,,,,,,,,,,,3,,,,,,,,,,,,,,,,,,,,,,,,,,,1056.62143,196,right,0.33884,dolphin     ,2,2,-3,0,3,1056.63817,1056.63817,1059.136215,0,41,41,41,1,196,5,2,peacock       ,dolphin     ,html/resources/sequences_IDs/A/05_peacock.jpg,html/resources/sequences_IDs/B/02_dolphin.jpg,5,2,2,1,1,1,4,2,0,20,,,,,,,,,,,,,,,,,,,,
,,,,,20,2020-07-01_10h35.20.973,retriever_ti,2020.1.3,Win32,60,Chrome,1536,864,,,,,,,,,,,,,,,,,3,,,,,,,,,,,,,,,,,,,,,,,,,,,1059.753245,197,right,0.679935,wolf          ,1,1,-5,0,3,1059.78677,1059.78677,1062.28477,0,42,42,42,1,197,6,1,holdfast    ,wolf          ,html/resources/sequences_IDs/B/04_holdfast.jpg,html/resources/sequences_IDs/A/01_wolf.jpg,4,1,2,1,1,1,3,1,0,20,,,,,,,,,,,,,,,,,,,,
,,,,,20,2020-07-01_10h35.20.973,retriever_ti,2020.1.3,Win32,60,Chrome,1536,864,,,,,,,,,,,,,,,,,3,,,,,,,,,,,,,,,,,,,,,,,,,,,1062.90142,198,left,0.673955,peacock       ,5,5,-3,0,3,1062.935345,1062.935345,1065.43333,0,43,43,43,1,198,5,8,peacock       ,slipper     ,html/resources/sequences_IDs/A/05_peacock.jpg,html/resources/sequences_IDs/B/08_slipper.jpg,5,8,2,1,3,2,4,7,0,20,,,,,,,,,,,,,,,,,,,,
,,,,,20,2020-07-01_10h35.20.973,retriever_ti,2020.1.3,Win32,60,Chrome,1536,864,,,,,,,,,,,,,,,,,3,,,,,,,,,,,,,,,,,,,,,,,,,,,1066.05038,199,right,0.39031,dolphin     ,2,2,-6,0,3,1066.067235,1066.067235,1068.56541,0,44,44,44,1,199,8,2,slipper     ,dolphin     ,html/resources/sequences_IDs/B/08_slipper.jpg,html/resources/sequences_IDs/B/02_dolphin.jpg,8,2,3,2,1,1,7,2,0,20,,,,,,,,,,,,,,,,,,,,
,,,,,20,2020-07-01_10h35.20.973,retriever_ti,2020.1.3,Win32,60,Chrome,1536,864,,,,,,,,,,,,,,,,,3,,,,,,,,,,,,,,,,,,,,,,,,,,,1069.182025,200,right,0.297805,dolphin     ,2,2,1,1,1,1069.198905,1069.198905,1071.697485,0,45,45,45,1,200,1,2,wolf          ,dolphin     ,html/resources/sequences_IDs/A/01_wolf.jpg,html/resources/sequences_IDs/B/02_dolphin.jpg,1,2,1,1,1,1,1,2,0,20,,,,,,,,,,,,,,,,,,,,
,,,,,20,2020-07-01_10h35.20.973,retriever_ti,2020.1.3,Win32,60,Chrome,1536,864,,,,,,,,,,,,,,,,,3,,,,,,,,,,,,,,,,,,,,,,,,,,,1072.797625,201,right,0.714315,scarf         ,3,6,1,1,1,1072.83081,1072.83081,1075.328915,0,46,46,46,1,201,2,3,dolphin     ,scarf         ,html/resources/sequences_IDs/B/02_dolphin.jpg,html/resources/sequences_IDs/A/06_scarf.jpg,2,6,1,1,3,2,2,5,0,20,,,,,,,,,,,,,,,,,,,,
,,,,,20,2020-07-01_10h35.20.973,retriever_ti,2020.1.3,Win32,60,Chrome,1536,864,,,,,,,,,,,,,,,,,3,,,,,,,,,,,,,,,,,,,,,,,,,,,1076.429215,202,right,0.50032,sport_tshirt,4,7,1,1,0,1076.46255,1076.46255,1078.96069,0,47,47,47,1,202,3,4,scarf         ,sport_tshirt,html/resources/sequences_IDs/A/06_scarf.jpg,html/resources/sequences_IDs/B/07_sport_tshirt.jpg,6,7,3,2,3,2,5,6,1,20,,,,,,,,,,,,,,,,,,,,
,,,,,20,2020-07-01_10h35.20.973,retriever_ti,2020.1.3,Win32,60,Chrome,1536,864,,,,,,,,,,,,,,,,,3,,,,,,,,,,,,,,,,,,,,,,,,,,,1080.061,203,left,0.70471,scarf         ,3,6,1,1,1,1080.07767,1080.07767,1082.575655,0,48,48,48,1,203,3,2,scarf         ,dolphin     ,html/resources/sequences_IDs/A/06_scarf.jpg,html/resources/sequences_IDs/B/02_dolphin.jpg,6,2,3,2,1,1,5,2,0,20,,,,,,,,,,,,,,,,,,,,
,,,,,20,2020-07-01_10h35.20.973,retriever_ti,2020.1.3,Win32,60,Chrome,1536,864,,,,,,,,,,,,,,,,,3,,,,,,,,,,,,,,,,,,,,,,,,,,,1083.676005,204,left,0.53037,peacock       ,5,5,1,1,0,1083.692595,1083.692595,1086.19071,0,49,49,49,1,204,5,4,peacock       ,sport_tshirt,html/resources/sequences_IDs/A/05_peacock.jpg,html/resources/sequences_IDs/B/07_sport_tshirt.jpg,5,7,2,1,3,2,4,6,1,20,,,,,,,,,,,,,,,,,,,,
,,,,,20,2020-07-01_10h35.20.973,retriever_ti,2020.1.3,Win32,60,Chrome,1536,864,,,,,,,,,,,,,,,,,3,,,,,,,,,,,,,,,,,,,,,,,,,,,1087.290575,205,left,0.6017,slipper     ,8,8,1,1,1,1087.324275,1087.324275,1089.8223,0,50,50,50,1,205,8,7,slipper     ,satellite_dish,html/resources/sequences_IDs/B/08_slipper.jpg,html/resources/sequences_IDs/A/10_satellite_dish.jpg,8,10,3,2,4,2,7,8,0,20,,,,,,,,,,,,,,,,,,,,
,,,,,20,2020-07-01_10h35.20.973,retriever_ti,2020.1.3,Win32,60,Chrome,1536,864,,,,,,,,,,,,,,,,,3,,,,,,,,,,,,,,,,,,,,,,,,,,,1090.9226,206,left,0.79521,sport_tshirt,4,7,2,1,3,1090.939235,1090.939235,1093.43745,0,51,51,51,1,206,4,2,sport_tshirt,dolphin     ,html/resources/sequences_IDs/B/07_sport_tshirt.jpg,html/resources/sequences_IDs/B/02_dolphin.jpg,7,2,3,2,1,1,6,2,0,20,,,,,,,,,,,,,,,,,,,,
,,,,,20,2020-07-01_10h35.20.973,retriever_ti,2020.1.3,Win32,60,Chrome,1536,864,,,,,,,,,,,,,,,,,3,,,,,,,,,,,,,,,,,,,,,,,,,,,1094.0544,207,right,0.7988,sport_tshirt,4,7,-1,0,0,1094.071175,1094.071175,1096.56929,0,52,52,52,1,207,5,4,peacock       ,sport_tshirt,html/resources/sequences_IDs/A/05_peacock.jpg,html/resources/sequences_IDs/B/07_sport_tshirt.jpg,5,7,2,1,3,2,4,6,0,20,,,,,,,,,,,,,,,,,,,,
,,,,,20,2020-07-01_10h35.20.973,retriever_ti,2020.1.3,Win32,60,Chrome,1536,864,,,,,,,,,,,,,,,,,3,,,,,,,,,,,,,,,,,,,,,,,,,,,1097.6694,208,left,0.436115,sport_tshirt,4,7,3,1,3,1097.686505,1097.686505,1100.18433,0,53,53,53,1,208,4,1,sport_tshirt,wolf          ,html/resources/sequences_IDs/B/07_sport_tshirt.jpg,html/resources/sequences_IDs/A/01_wolf.jpg,7,1,3,2,1,1,6,1,0,20,,,,,,,,,,,,,,,,,,,,
,,,,,20,2020-07-01_10h35.20.973,retriever_ti,2020.1.3,Win32,60,Chrome,1536,864,,,,,,,,,,,,,,,,,3,,,,,,,,,,,,,,,,,,,,,,,,,,,1100.800895,209,right,1.097635,peacock       ,5,5,-2,0,3,1100.83473,1100.83473,1103.33297,0,54,54,54,1,209,7,5,satellite_dish,peacock       ,html/resources/sequences_IDs/A/10_satellite_dish.jpg,html/resources/sequences_IDs/A/05_peacock.jpg,10,5,4,2,2,1,8,4,0,20,,,,,,,,,,,,,,,,,,,,
,,,,,20,2020-07-01_10h35.20.973,retriever_ti,2020.1.3,Win32,60,Chrome,1536,864,,,,,,,,,,,,,,,,,3,,,,,,,,,,,,,,,,,,,,,,,,,,,1103.949955,210,left,0.756015,holdfast    ,6,4,2,1,3,1103.96676,1103.96676,1106.46478,0,55,55,55,1,210,6,4,holdfast    ,sport_tshirt,html/resources/sequences_IDs/B/04_holdfast.jpg,html/resources/sequences_IDs/B/07_sport_tshirt.jpg,4,7,2,1,3,2,3,6,0,20,,,,,,,,,,,,,,,,,,,,
,,,,,20,2020-07-01_10h35.20.973,retriever_ti,2020.1.3,Win32,60,Chrome,1536,864,,,,,,,,,,,,,,,,,3,,,,,,,,,,,,,,,,,,,,,,,,,,,1107.081605,211,left,0.89615,slipper     ,8,8,2,1,3,1107.0986,1107.0986,1109.59681,0,56,56,56,1,211,8,6,slipper     ,holdfast    ,html/resources/sequences_IDs/B/08_slipper.jpg,html/resources/sequences_IDs/B/04_holdfast.jpg,8,4,3,2,2,1,7,3,0,20,,,,,,,,,,,,,,,,,,,,
,,,,,20,2020-07-01_10h35.20.973,retriever_ti,2020.1.3,Win32,60,Chrome,1536,864,,,,,,,,,,,,,,,,,3,,,,,,,,,,,,,,,,,,,,,,,,,,,1110.21374,212,right,1.01315,wolf          ,1,1,-1,0,0,1110.247135,1110.247135,1112.745365,0,57,57,57,1,212,2,1,dolphin     ,wolf          ,html/resources/sequences_IDs/B/02_dolphin.jpg,html/resources/sequences_IDs/A/01_wolf.jpg,2,1,1,1,1,1,2,1,0,20,,,,,,,,,,,,,,,,,,,,
,,,,,20,2020-07-01_10h35.20.973,retriever_ti,2020.1.3,Win32,60,Chrome,1536,864,,,,,,,,,,,,,,,,,3,,,,,,,,,,,,,,,,,,,,,,,,,,,1113.845475,213,right,0.56855,peacock       ,5,5,-1,0,0,1113.878815,1113.878815,1116.377075,0,58,58,58,1,213,6,5,holdfast    ,peacock       ,html/resources/sequences_IDs/B/04_holdfast.jpg,html/resources/sequences_IDs/A/05_peacock.jpg,4,5,2,1,2,1,3,4,0,20,,,,,,,,,,,,,,,,,,,,
,,,,,20,2020-07-01_10h35.20.973,retriever_ti,2020.1.3,Win32,60,Chrome,1536,864,,,,,,,,,,,,,,,,,3,,,,,,,,,,,,,,,,,,,,,,,,,,,1117.477115,214,left,0.94667,sport_tshirt,4,7,-1,0,0,1117.49384,1117.49384,1119.991935,0,59,59,59,1,214,4,5,sport_tshirt,peacock       ,html/resources/sequences_IDs/B/07_sport_tshirt.jpg,html/resources/sequences_IDs/A/05_peacock.jpg,7,5,3,2,2,1,6,4,0,20,,,,,,,,,,,,,,,,,,,,
,,,,,20,2020-07-01_10h35.20.973,retriever_ti,2020.1.3,Win32,60,Chrome,1536,864,,,,,,,,,,,,,,,,,3,,,,,,,,,,,,,,,,,,,,,,,,,,,1121.09183,215,left,0.380695,holdfast    ,6,4,-1,0,1,1121.125705,1121.125705,1123.623815,0,60,60,60,1,215,6,7,holdfast    ,satellite_dish,html/resources/sequences_IDs/B/04_holdfast.jpg,html/resources/sequences_IDs/A/10_satellite_dish.jpg,4,10,2,1,4,2,3,8,1,20,,,,,,,,,,,,,,,,,,,,
,,,,,20,2020-07-01_10h35.20.973,retriever_ti,2020.1.3,Win32,60,Chrome,1536,864,,,,,,,,,,,,,,,,,3,,,,,,,,,,,,,,,,,,,,,,,,,,,1124.723805,216,right,0.335785,peacock       ,5,5,4,1,3,1124.757365,1124.757365,1127.255445,0,61,61,61,1,216,1,5,wolf          ,peacock       ,html/resources/sequences_IDs/A/01_wolf.jpg,html/resources/sequences_IDs/A/05_peacock.jpg,1,5,1,1,2,1,1,4,0,20,,,,,,,,,,,,,,,,,,,,
,,,,,20,2020-07-01_10h35.20.973,retriever_ti,2020.1.3,Win32,60,Chrome,1536,864,,,,,,,,,,,,,,,,,3,,,,,,,,,,,,,,,,,,,,,,,,,,,1127.872455,217,right,0.39591,slipper     ,8,8,1,1,1,1127.905925,1127.905925,1130.40408,0,62,62,62,1,217,7,8,satellite_dish,slipper     ,html/resources/sequences_IDs/A/10_satellite_dish.jpg,html/resources/sequences_IDs/B/08_slipper.jpg,10,8,4,2,3,2,8,7,0,20,,,,,,,,,,,,,,,,,,,,
,,,,,20,2020-07-01_10h35.20.973,retriever_ti,2020.1.3,Win32,60,Chrome,1536,864,,,,,,,,,,,,,,,,,3,,,,,,,,,,,,,,,,,,,,,,,,,,,1131.504165,218,right,0.29869,peacock       ,5,5,1,1,1,1131.53738,1131.53738,1134.03574,0,63,63,63,1,218,4,5,sport_tshirt,peacock       ,html/resources/sequences_IDs/B/07_sport_tshirt.jpg,html/resources/sequences_IDs/A/05_peacock.jpg,7,5,3,2,2,1,6,4,0,20,,,,,,,,,,,,,,,,,,,,
,,,,,20,2020-07-01_10h35.20.973,retriever_ti,2020.1.3,Win32,60,Chrome,1536,864,,,,,,,,,,,,,,,,,3,,,,,,,,,,,,,,,,,,,,,,,,,,,1135.13538,219,left,0.25361,slipper     ,8,8,5,1,3,1135.152595,1135.152595,1137.65073,0,64,64,64,1,219,8,3,slipper     ,scarf         ,html/resources/sequences_IDs/B/08_slipper.jpg,html/resources/sequences_IDs/A/06_scarf.jpg,8,6,3,2,3,2,7,5,0,20,,,,,,,,,,,,,,,,,,,,
,,,,,20,2020-07-01_10h35.20.973,retriever_ti,2020.1.3,Win32,60,Chrome,1536,864,,,,,,,,,,,,,,,,,3,,,,,,,,,,,,,,,,,,,,,,,,,,,1138.26775,220,left,0.53008,dolphin     ,2,2,-1,0,1,1138.30125,1138.30125,1140.799335,0,65,65,65,1,220,2,3,dolphin     ,scarf         ,html/resources/sequences_IDs/B/02_dolphin.jpg,html/resources/sequences_IDs/A/06_scarf.jpg,2,6,1,1,3,2,2,5,1,20,,,,,,,,,,,,,,,,,,,,
