instructionsLoop.thisRepN,instructionsLoop.thisTrialN,instructionsLoop.thisN,instructionsLoop.thisIndex,instructionsLoop.ran,participant,date,expName,psychopyVersion,OS,frameRate,browser,xResolution,yResolution,fix_onset,tprac,practiceKey.keys,practiceKey.rt,pracitem_chosen_name,acc_practice,P1_onsetPrac,P2_onsetPrac,onsetFeedbPrac,practiceTrials.thisRepN,practiceTrials.thisTrialN,practiceTrials.thisN,practiceTrials.thisIndex,practiceTrials.ran,P1,P2,Block,LocItem1,LocItem2,NameItem1,NameItem2,key_respAC_prac.keys,key_respAC_prac.corr,key_respAC_prac.rt,AC_acc,Attentions.thisRepN,Attentions.thisTrialN,Attentions.thisN,Attentions.thisIndex,Attentions.ran,Stim,Loc1,Loc2,Loc3,Loc4,CorrAns,keyDisturbed.keys,keyDisturbed.rt,repPractice.thisRepN,repPractice.thisTrialN,repPractice.thisN,repPractice.thisIndex,repPractice.ran,fixcross_onsetMain,trialNumber,key_resp.keys,key_resp.rt,item_chosen_name,item_chosen_value,item_chosen_ID,diff_chosen_minus_reject,acc_real,acc_feedback,P1_onset,P2_onset,feedb_onset,trials.thisRepN,trials.thisTrialN,trials.thisN,trials.thisIndex,trials.ran,Trial,ValueP1,ValueP2,P1name,P2name,P1Loc,P2Loc,P1id,P2id,Micro_categoryP1,Macro_categoryP1,Micro_categoryP2,Macro_categoryP2,ID_sequenceP1,ID_sequenceP2,InverseFb,pNumber,repBlocks.thisRepN,repBlocks.thisTrialN,repBlocks.thisN,repBlocks.thisIndex,repBlocks.ran,key_respAC.keys,key_respAC.corr,key_respAC.rt,trials_AC.thisRepN,trials_AC.thisTrialN,trials_AC.thisN,trials_AC.thisIndex,trials_AC.ran,Bonus,BonusLoop.thisRepN,BonusLoop.thisTrialN,BonusLoop.thisN,BonusLoop.thisIndex,BonusLoop.ran,comments
0,0,0,0,1,21,2020-07-01_11h40.54.185,retriever_ti,2020.1.3,Win32,60,Chrome,1536,864,,,,,,,,,,,,,,,,,,,,,,,,,,,,,,,,,,,,,,,,,,,,,,,,,,,,,,,,,,,,,,,,,,,,,,,,,,,,,,,,,,,,,,,,,,,,,,,,,,
1,0,1,0,1,21,2020-07-01_11h40.54.185,retriever_ti,2020.1.3,Win32,60,Chrome,1536,864,,,,,,,,,,,,,,,,,,,,,,,,,,,,,,,,,,,,,,,,,,,,,,,,,,,,,,,,,,,,,,,,,,,,,,,,,,,,,,,,,,,,,,,,,,,,,,,,,,
2,0,2,0,1,21,2020-07-01_11h40.54.185,retriever_ti,2020.1.3,Win32,60,Chrome,1536,864,,,,,,,,,,,,,,,,,,,,,,,,,,,,,,,,,,,,,,,,,,,,,,,,,,,,,,,,,,,,,,,,,,,,,,,,,,,,,,,,,,,,,,,,,,,,,,,,,,
3,0,3,0,1,21,2020-07-01_11h40.54.185,retriever_ti,2020.1.3,Win32,60,Chrome,1536,864,,,,,,,,,,,,,,,,,,,,,,,,,,,,,,,,,,,,,,,,,,,,,,,,,,,,,,,,,,,,,,,,,,,,,,,,,,,,,,,,,,,,,,,,,,,,,,,,,,
4,0,4,0,1,21,2020-07-01_11h40.54.185,retriever_ti,2020.1.3,Win32,60,Chrome,1536,864,,,,,,,,,,,,,,,,,,,,,,,,,,,,,,,,,,,,,,,,,,,,,,,,,,,,,,,,,,,,,,,,,,,,,,,,,,,,,,,,,,,,,,,,,,,,,,,,,,
5,0,5,0,1,21,2020-07-01_11h40.54.185,retriever_ti,2020.1.3,Win32,60,Chrome,1536,864,,,,,,,,,,,,,,,,,,,,,,,,,,,,,,,,,,,,,,,,,,,,,,,,,,,,,,,,,,,,,,,,,,,,,,,,,,,,,,,,,,,,,,,,,,,,,,,,,,
6,0,6,0,1,21,2020-07-01_11h40.54.185,retriever_ti,2020.1.3,Win32,60,Chrome,1536,864,,,,,,,,,,,,,,,,,,,,,,,,,,,,,,,,,,,,,,,,,,,,,,,,,,,,,,,,,,,,,,,,,,,,,,,,,,,,,,,,,,,,,,,,,,,,,,,,,,
7,0,7,0,1,21,2020-07-01_11h40.54.185,retriever_ti,2020.1.3,Win32,60,Chrome,1536,864,,,,,,,,,,,,,,,,,,,,,,,,,,,,,,,,,,,,,,,,,,,,,,,,,,,,,,,,,,,,,,,,,,,,,,,,,,,,,,,,,,,,,,,,,,,,,,,,,,
8,0,8,0,1,21,2020-07-01_11h40.54.185,retriever_ti,2020.1.3,Win32,60,Chrome,1536,864,,,,,,,,,,,,,,,,,,,,,,,,,,,,,,,,,,,,,,,,,,,,,,,,,,,,,,,,,,,,,,,,,,,,,,,,,,,,,,,,,,,,,,,,,,,,,,,,,,
9,0,9,0,1,21,2020-07-01_11h40.54.185,retriever_ti,2020.1.3,Win32,60,Chrome,1536,864,,,,,,,,,,,,,,,,,,,,,,,,,,,,,,,,,,,,,,,,,,,,,,,,,,,,,,,,,,,,,,,,,,,,,,,,,,,,,,,,,,,,,,,,,,,,,,,,,,
10,0,10,0,1,21,2020-07-01_11h40.54.185,retriever_ti,2020.1.3,Win32,60,Chrome,1536,864,,,,,,,,,,,,,,,,,,,,,,,,,,,,,,,,,,,,,,,,,,,,,,,,,,,,,,,,,,,,,,,,,,,,,,,,,,,,,,,,,,,,,,,,,,,,,,,,,,
11,0,11,0,1,21,2020-07-01_11h40.54.185,retriever_ti,2020.1.3,Win32,60,Chrome,1536,864,,,,,,,,,,,,,,,,,,,,,,,,,,,,,,,,,,,,,,,,,,,,,,,,,,,,,,,,,,,,,,,,,,,,,,,,,,,,,,,,,,,,,,,,,,,,,,,,,,
12,0,12,0,1,21,2020-07-01_11h40.54.185,retriever_ti,2020.1.3,Win32,60,Chrome,1536,864,,,,,,,,,,,,,,,,,,,,,,,,,,,,,,,,,,,,,,,,,,,,,,,,,,,,,,,,,,,,,,,,,,,,,,,,,,,,,,,,,,,,,,,,,,,,,,,,,,
13,0,13,0,1,21,2020-07-01_11h40.54.185,retriever_ti,2020.1.3,Win32,60,Chrome,1536,864,,,,,,,,,,,,,,,,,,,,,,,,,,,,,,,,,,,,,,,,,,,,,,,,,,,,,,,,,,,,,,,,,,,,,,,,,,,,,,,,,,,,,,,,,,,,,,,,,,
14,0,14,0,1,21,2020-07-01_11h40.54.185,retriever_ti,2020.1.3,Win32,60,Chrome,1536,864,,,,,,,,,,,,,,,,,,,,,,,,,,,,,,,,,,,,,,,,,,,,,,,,,,,,,,,,,,,,,,,,,,,,,,,,,,,,,,,,,,,,,,,,,,,,,,,,,,
,,,,,21,2020-07-01_11h40.54.185,retriever_ti,2020.1.3,Win32,60,Chrome,1536,864,249.194285,1,right,1.184915,canary,1,249.23413,249.23413,251.728145,0,0,0,0,1,2,5,1,html/resources/stimuli_practice_decision/04_beetle.jpg,html/resources/stimuli_practice_decision/02_canary.jpg,beetle,canary,,,,,,,,,,,,,,,,,,,,,,,,,,,,,,,,,,,,,,,,,,,,,,,,,,,,,,,,,,,,,,,,,,,,,,,,,,,,,
,,,,,21,2020-07-01_11h40.54.185,retriever_ti,2020.1.3,Win32,60,Chrome,1536,864,252.274475,2,left,1.22715,rabbit,1,252.31106,252.31106,254.806005,0,1,1,1,1,4,3,1,html/resources/stimuli_practice_decision/01_rabbit.jpg,html/resources/stimuli_practice_decision/07_sock.jpg,rabbit,sock,,,,,,,,,,,,,,,,,,,,,,,,,,,,,,,,,,,,,,,,,,,,,,,,,,,,,,,,,,,,,,,,,,,,,,,,,,,,,
,,,,,21,2020-07-01_11h40.54.185,retriever_ti,2020.1.3,Win32,60,Chrome,1536,864,255.80461,3,left,1.54038,pullover,1,255.83912,255.83912,258.33339,0,2,2,2,1,6,2,1,html/resources/stimuli_practice_decision/06_pullover.jpg,html/resources/stimuli_practice_decision/04_beetle.jpg,pullover,beetle,,,,,,,,,,,,,,,,,,,,,,,,,,,,,,,,,,,,,,,,,,,,,,,,,,,,,,,,,,,,,,,,,,,,,,,,,,,,,
,,,,,21,2020-07-01_11h40.54.185,retriever_ti,2020.1.3,Win32,60,Chrome,1536,864,258.84924,4,left,2.03954,glasses,1,258.86745,258.86745,261.36114,0,3,3,3,1,7,1,1,html/resources/stimuli_practice_decision/05_glasses.jpg,html/resources/stimuli_practice_decision/08_handmixer.jpg,glasses,handmixer,,,,,,,,,,,,,,,,,,,,,,,,,,,,,,,,,,,,,,,,,,,,,,,,,,,,,,,,,,,,,,,,,,,,,,,,,,,,,
,,,,,21,2020-07-01_11h40.54.185,retriever_ti,2020.1.3,Win32,60,Chrome,1536,864,261.87843,5,left,1.21294,glasses,1,261.89576,261.89576,264.38988,0,4,4,4,1,7,6,1,html/resources/stimuli_practice_decision/05_glasses.jpg,html/resources/stimuli_practice_decision/06_pullover.jpg,glasses,pullover,,,,,,,,,,,,,,,,,,,,,,,,,,,,,,,,,,,,,,,,,,,,,,,,,,,,,,,,,,,,,,,,,,,,,,,,,,,,,
,,,,,21,2020-07-01_11h40.54.185,retriever_ti,2020.1.3,Win32,60,Chrome,1536,864,265.389175,6,right,2.294515,glasses,1,265.40692,265.40692,267.900925,0,5,5,5,1,4,7,1,html/resources/stimuli_practice_decision/01_rabbit.jpg,html/resources/stimuli_practice_decision/05_glasses.jpg,rabbit,glasses,,,,,,,,,,,,,,,,,,,,,,,,,,,,,,,,,,,,,,,,,,,,,,,,,,,,,,,,,,,,,,,,,,,,,,,,,,,,,
,,,,,21,2020-07-01_11h40.54.185,retriever_ti,2020.1.3,Win32,60,Chrome,1536,864,268.417125,7,left,1.798005,handmixer,0,268.43527,268.43527,270.929375,0,6,6,6,1,1,2,1,html/resources/stimuli_practice_decision/08_handmixer.jpg,html/resources/stimuli_practice_decision/04_beetle.jpg,handmixer,beetle,,,,,,,,,,,,,,,,,,,,,,,,,,,,,,,,,,,,,,,,,,,,,,,,,,,,,,,,,,,,,,,,,,,,,,,,,,,,,
,,,,,21,2020-07-01_11h40.54.185,retriever_ti,2020.1.3,Win32,60,Chrome,1536,864,271.928635,8,left,1.729835,rabbit,1,271.96297,271.96297,274.457145,0,7,7,7,1,4,3,1,html/resources/stimuli_practice_decision/01_rabbit.jpg,html/resources/stimuli_practice_decision/07_sock.jpg,rabbit,sock,,,,,,,,,,,,,,,,,,,,,,,,,,,,,,,,,,,,,,,,,,,,,,,,,,,,,,,,,,,,,,,,,,,,,,,,,,,,,
,,,,,21,2020-07-01_11h40.54.185,retriever_ti,2020.1.3,Win32,60,Chrome,1536,864,,,,,,,,,,,,,,,,,,,,,,left,1,1.901225,1,0,0,0,2,1,html/resources/sequences_IDs/square1.png,star ↑,triangle →,circle ↓,← square,left,,,,,,,,,,,,,,,,,,,,,,,,,,,,,,,,,,,,,,,,,,,,,,,,,,,,,,,,,,,,,,
,,,,,21,2020-07-01_11h40.54.185,retriever_ti,2020.1.3,Win32,60,Chrome,1536,864,,,,,,,,,,,,,,,,,,,,,,down,1,2.024475,1,0,1,1,3,1,html/resources/sequences_IDs/triangle.png,star ↑,square →,triangle ↓,← circle,down,,,,,,,,,,,,,,,,,,,,,,,,,,,,,,,,,,,,,,,,,,,,,,,,,,,,,,,,,,,,,,
,,,,,21,2020-07-01_11h40.54.185,retriever_ti,2020.1.3,Win32,60,Chrome,1536,864,,,,,,,,,,,,,,,,,,,,,,down,1,1.646375,1,0,2,2,1,1,html/resources/sequences_IDs/star.png,square ↑,circle →,star ↓,← triangle,down,,,,,,,,,,,,,,,,,,,,,,,,,,,,,,,,,,,,,,,,,,,,,,,,,,,,,,,,,,,,,,
,,,,,21,2020-07-01_11h40.54.185,retriever_ti,2020.1.3,Win32,60,Chrome,1536,864,,,,,,,,,,,,,,,,,,,,,,up,1,1.089945,1,0,3,3,0,1,html/resources/sequences_IDs/circle.png,circle ↑,square →,triangle ↓,← star ,up,,,,,,,,,,,,,,,,,,,,,,,,,,,,,,,,,,,,,,,,,,,,,,,,,,,,,,,,,,,,,,
,,,,,21,2020-07-01_11h40.54.185,retriever_ti,2020.1.3,Win32,60,Chrome,1536,864,,,,,,,,,,,,,,,,,,,,,,,,,,,,,,,,,,,,,0,10.842285,0,0,0,0,1,,,,,,,,,,,,,,,,,,,,,,,,,,,,,,,,,,,,,,,,,,,,,,,,,,,,,,,
,,,,,21,2020-07-01_11h40.54.185,retriever_ti,2020.1.3,Win32,60,Chrome,1536,864,303.536465,9,right,1.253965,glasses,1,303.56249,303.56249,306.056445,0,0,0,0,1,6,7,1,html/resources/stimuli_practice_decision/06_pullover.jpg,html/resources/stimuli_practice_decision/05_glasses.jpg,pullover,glasses,,,,,,,,,,,,,,,,,,,,,,,,,,,,,,,,,,,,,,,,,,,,,,,,,,,,,,,,,,,,,,,,,,,,,,,,,,,,,
,,,,,21,2020-07-01_11h40.54.185,retriever_ti,2020.1.3,Win32,60,Chrome,1536,864,307.0553,10,right,1.402885,beetle,0,307.073375,307.073375,309.567425,0,1,1,1,1,6,2,1,html/resources/stimuli_practice_decision/06_pullover.jpg,html/resources/stimuli_practice_decision/04_beetle.jpg,pullover,beetle,,,,,,,,,,,,,,,,,,,,,,,,,,,,,,,,,,,,,,,,,,,,,,,,,,,,,,,,,,,,,,,,,,,,,,,,,,,,,
,,,,,21,2020-07-01_11h40.54.185,retriever_ti,2020.1.3,Win32,60,Chrome,1536,864,310.084105,11,left,1.646385,canary,0,310.10224,310.10224,312.59645,0,2,2,2,1,5,6,1,html/resources/stimuli_practice_decision/02_canary.jpg,html/resources/stimuli_practice_decision/06_pullover.jpg,canary,pullover,,,,,,,,,,,,,,,,,,,,,,,,,,,,,,,,,,,,,,,,,,,,,,,,,,,,,,,,,,,,,,,,,,,,,,,,,,,,,
,,,,,21,2020-07-01_11h40.54.185,retriever_ti,2020.1.3,Win32,60,Chrome,1536,864,313.595065,12,right,1.276625,glasses,0,313.62962,313.62962,316.12348,0,3,3,3,1,8,7,1,html/resources/stimuli_practice_decision/03_squirrel.jpg,html/resources/stimuli_practice_decision/05_glasses.jpg,squirrel,glasses,,,,,,,,,,,,,,,,,,,,,,,,,,,,,,,,,,,,,,,,,,,,,,,,,,,,,,,,,,,,,,,,,,,,,,,,,,,,,
,,,,,21,2020-07-01_11h40.54.185,retriever_ti,2020.1.3,Win32,60,Chrome,1536,864,317.122315,13,left,0.99739,canary,1,317.1573,317.1573,319.65177,0,4,4,4,1,5,3,1,html/resources/stimuli_practice_decision/02_canary.jpg,html/resources/stimuli_practice_decision/07_sock.jpg,canary,sock,,,,,,,,,,,,,,,,,,,,,,,,,,,,,,,,,,,,,,,,,,,,,,,,,,,,,,,,,,,,,,,,,,,,,,,,,,,,,
,,,,,21,2020-07-01_11h40.54.185,retriever_ti,2020.1.3,Win32,60,Chrome,1536,864,320.168655,14,left,0.84841,glasses,0,320.18629,320.18629,322.679605,0,5,5,5,1,7,8,1,html/resources/stimuli_practice_decision/05_glasses.jpg,html/resources/stimuli_practice_decision/03_squirrel.jpg,glasses,squirrel,,,,,,,,,,,,,,,,,,,,,,,,,,,,,,,,,,,,,,,,,,,,,,,,,,,,,,,,,,,,,,,,,,,,,,,,,,,,,
,,,,,21,2020-07-01_11h40.54.185,retriever_ti,2020.1.3,Win32,60,Chrome,1536,864,323.67891,15,left,1.039925,canary,1,323.69667,323.69667,326.191035,0,6,6,6,1,5,4,1,html/resources/stimuli_practice_decision/02_canary.jpg,html/resources/stimuli_practice_decision/01_rabbit.jpg,canary,rabbit,,,,,,,,,,,,,,,,,,,,,,,,,,,,,,,,,,,,,,,,,,,,,,,,,,,,,,,,,,,,,,,,,,,,,,,,,,,,,
,,,,,21,2020-07-01_11h40.54.185,retriever_ti,2020.1.3,Win32,60,Chrome,1536,864,327.18935,16,left,0.80458,canary,1,327.22446,327.22446,329.71901,0,7,7,7,1,5,3,1,html/resources/stimuli_practice_decision/02_canary.jpg,html/resources/stimuli_practice_decision/07_sock.jpg,canary,sock,,,,,,,,,,,,,,,,,,,,,,,,,,,,,,,,,,,,,,,,,,,,,,,,,,,,,,,,,,,,,,,,,,,,,,,,,,,,,
,,,,,21,2020-07-01_11h40.54.185,retriever_ti,2020.1.3,Win32,60,Chrome,1536,864,,,,,,,,,,,,,,,,,,,,,,left,1,1.36939,1,0,0,0,2,1,html/resources/sequences_IDs/square1.png,star ↑,triangle →,circle ↓,← square,left,,,,,,,,,,,,,,,,,,,,,,,,,,,,,,,,,,,,,,,,,,,,,,,,,,,,,,,,,,,,,,
,,,,,21,2020-07-01_11h40.54.185,retriever_ti,2020.1.3,Win32,60,Chrome,1536,864,,,,,,,,,,,,,,,,,,,,,,down,1,1.90675,1,0,1,1,3,1,html/resources/sequences_IDs/triangle.png,star ↑,square →,triangle ↓,← circle,down,,,,,,,,,,,,,,,,,,,,,,,,,,,,,,,,,,,,,,,,,,,,,,,,,,,,,,,,,,,,,,
,,,,,21,2020-07-01_11h40.54.185,retriever_ti,2020.1.3,Win32,60,Chrome,1536,864,,,,,,,,,,,,,,,,,,,,,,up,1,0.80863,1,0,2,2,0,1,html/resources/sequences_IDs/circle.png,circle ↑,square →,triangle ↓,← star ,up,,,,,,,,,,,,,,,,,,,,,,,,,,,,,,,,,,,,,,,,,,,,,,,,,,,,,,,,,,,,,,
,,,,,21,2020-07-01_11h40.54.185,retriever_ti,2020.1.3,Win32,60,Chrome,1536,864,,,,,,,,,,,,,,,,,,,,,,down,1,1.300545,1,0,3,3,1,1,html/resources/sequences_IDs/star.png,square ↑,circle →,star ↓,← triangle,down,,,,,,,,,,,,,,,,,,,,,,,,,,,,,,,,,,,,,,,,,,,,,,,,,,,,,,,,,,,,,,
,,,,,21,2020-07-01_11h40.54.185,retriever_ti,2020.1.3,Win32,60,Chrome,1536,864,,,,,,,,,,,,,,,,,,,,,,,,,,,,,,,,,,,,,0,4.79876,1,0,1,0,1,,,,,,,,,,,,,,,,,,,,,,,,,,,,,,,,,,,,,,,,,,,,,,,,,,,,,,,
,,,,,21,2020-07-01_11h40.54.185,retriever_ti,2020.1.3,Win32,60,Chrome,1536,864,,,,,,,,,,,,,,,,,1,,,,,,,,,,,,,,,,,,,,,,,,,,,352.43644,1,left,1.099095,giraffe     ,5,3,1,1,1,352.48492,352.48492,354.978855,0,0,0,0,1,1,5,4,giraffe     ,seaturtle     ,html/resources/sequences_IDs/B/03_giraffe.jpg,html/resources/sequences_IDs/A/02_seaturtle.jpg,3,2,1,1,2,1,2,1,0,21,,,,,,,,,,,,,,,,,,,,
,,,,,21,2020-07-01_11h40.54.185,retriever_ti,2020.1.3,Win32,60,Chrome,1536,864,,,,,,,,,,,,,,,,,1,,,,,,,,,,,,,,,,,,,,,,,,,,,356.078785,2,right,1.20335,seaturtle     ,4,2,-2,0,3,356.09608,356.09608,358.58889,0,1,1,1,1,2,6,4,hat           ,seaturtle     ,html/resources/sequences_IDs/A/08_hat.jpg,html/resources/sequences_IDs/A/02_seaturtle.jpg,8,2,3,2,2,1,6,1,0,21,,,,,,,,,,,,,,,,,,,,
,,,,,21,2020-07-01_11h40.54.185,retriever_ti,2020.1.3,Win32,60,Chrome,1536,864,,,,,,,,,,,,,,,,,1,,,,,,,,,,,,,,,,,,,,,,,,,,,359.2052,3,left,0.7554,seaturtle     ,4,2,3,1,3,359.22357,359.22357,361.716695,0,2,2,2,1,3,4,1,seaturtle     ,radio       ,html/resources/sequences_IDs/A/02_seaturtle.jpg,html/resources/sequences_IDs/B/10_radio.jpg,2,10,2,1,4,2,1,8,0,21,,,,,,,,,,,,,,,,,,,,
,,,,,21,2020-07-01_11h40.54.185,retriever_ti,2020.1.3,Win32,60,Chrome,1536,864,,,,,,,,,,,,,,,,,1,,,,,,,,,,,,,,,,,,,,,,,,,,,362.333805,4,left,1.13031,phone       ,3,9,-4,0,3,362.35136,362.35136,364.8454,0,3,3,3,1,4,3,7,phone       ,sport_tshirt,html/resources/sequences_IDs/B/09_phone.jpg,html/resources/sequences_IDs/B/07_sport_tshirt.jpg,9,7,4,2,3,2,7,5,0,21,,,,,,,,,,,,,,,,,,,,
,,,,,21,2020-07-01_11h40.54.185,retriever_ti,2020.1.3,Win32,60,Chrome,1536,864,,,,,,,,,,,,,,,,,1,,,,,,,,,,,,,,,,,,,,,,,,,,,365.46186,5,left,1.21389,seaturtle     ,4,2,-4,0,3,365.479935,365.479935,367.973935,0,4,4,4,1,5,4,8,seaturtle     ,clownfish     ,html/resources/sequences_IDs/A/02_seaturtle.jpg,html/resources/sequences_IDs/A/04_clownfish.jpg,2,4,2,1,2,1,1,3,0,21,,,,,,,,,,,,,,,,,,,,
,,,,,21,2020-07-01_11h40.54.185,retriever_ti,2020.1.3,Win32,60,Chrome,1536,864,,,,,,,,,,,,,,,,,1,,,,,,,,,,,,,,,,,,,,,,,,,,,368.590315,6,left,1.16614,seaturtle     ,4,2,-3,0,3,368.625025,368.625025,371.11925,0,5,5,5,1,6,4,7,seaturtle     ,sport_tshirt,html/resources/sequences_IDs/A/02_seaturtle.jpg,html/resources/sequences_IDs/B/07_sport_tshirt.jpg,2,7,2,1,3,2,1,5,0,21,,,,,,,,,,,,,,,,,,,,
,,,,,21,2020-07-01_11h40.54.185,retriever_ti,2020.1.3,Win32,60,Chrome,1536,864,,,,,,,,,,,,,,,,,1,,,,,,,,,,,,,,,,,,,,,,,,,,,371.7358,7,left,1.009905,clownfish     ,8,4,1,1,1,371.769965,371.769965,374.264225,0,6,6,6,1,7,8,7,clownfish     ,sport_tshirt,html/resources/sequences_IDs/A/04_clownfish.jpg,html/resources/sequences_IDs/B/07_sport_tshirt.jpg,4,7,2,1,3,2,3,5,0,21,,,,,,,,,,,,,,,,,,,,
,,,,,21,2020-07-01_11h40.54.185,retriever_ti,2020.1.3,Win32,60,Chrome,1536,864,,,,,,,,,,,,,,,,,1,,,,,,,,,,,,,,,,,,,,,,,,,,,375.36233,8,left,1.34208,hat           ,6,8,-1,0,0,375.38096,375.38096,377.8752,0,7,7,7,1,8,6,7,hat           ,sport_tshirt,html/resources/sequences_IDs/A/08_hat.jpg,html/resources/sequences_IDs/B/07_sport_tshirt.jpg,8,7,3,2,3,2,6,5,0,21,,,,,,,,,,,,,,,,,,,,
,,,,,21,2020-07-01_11h40.54.185,retriever_ti,2020.1.3,Win32,60,Chrome,1536,864,,,,,,,,,,,,,,,,,1,,,,,,,,,,,,,,,,,,,,,,,,,,,378.974365,9,right,2.14371,hat           ,6,8,4,1,3,379.009205,379.009205,381.501915,0,8,8,8,1,9,2,6,peacock       ,hat           ,html/resources/sequences_IDs/A/05_peacock.jpg,html/resources/sequences_IDs/A/08_hat.jpg,5,8,2,1,3,2,4,6,0,21,,,,,,,,,,,,,,,,,,,,
,,,,,21,2020-07-01_11h40.54.185,retriever_ti,2020.1.3,Win32,60,Chrome,1536,864,,,,,,,,,,,,,,,,,1,,,,,,,,,,,,,,,,,,,,,,,,,,,382.118785,10,left,1.11299,seaturtle     ,4,2,1,1,1,382.15296,382.15296,384.63963,0,9,9,9,1,10,4,3,seaturtle     ,phone       ,html/resources/sequences_IDs/A/02_seaturtle.jpg,html/resources/sequences_IDs/B/09_phone.jpg,2,9,2,1,4,2,1,7,0,21,,,,,,,,,,,,,,,,,,,,
,,,,,21,2020-07-01_11h40.54.185,retriever_ti,2020.1.3,Win32,60,Chrome,1536,864,,,,,,,,,,,,,,,,,1,,,,,,,,,,,,,,,,,,,,,,,,,,,385.73051,11,left,1.367455,phone       ,3,9,1,1,1,385.747345,385.747345,388.241165,0,10,10,10,1,11,3,2,phone       ,peacock       ,html/resources/sequences_IDs/B/09_phone.jpg,html/resources/sequences_IDs/A/05_peacock.jpg,9,5,4,2,2,1,7,4,0,21,,,,,,,,,,,,,,,,,,,,
,,,,,21,2020-07-01_11h40.54.185,retriever_ti,2020.1.3,Win32,60,Chrome,1536,864,,,,,,,,,,,,,,,,,1,,,,,,,,,,,,,,,,,,,,,,,,,,,389.340805,12,right,1.459425,seaturtle     ,4,2,2,1,3,389.359225,389.359225,391.852095,0,11,11,11,1,12,2,4,peacock       ,seaturtle     ,html/resources/sequences_IDs/A/05_peacock.jpg,html/resources/sequences_IDs/A/02_seaturtle.jpg,5,2,2,1,2,1,4,1,0,21,,,,,,,,,,,,,,,,,,,,
,,,,,21,2020-07-01_11h40.54.185,retriever_ti,2020.1.3,Win32,60,Chrome,1536,864,,,,,,,,,,,,,,,,,1,,,,,,,,,,,,,,,,,,,,,,,,,,,392.46875,13,left,1.45379,phone       ,3,9,2,1,3,392.486305,392.486305,394.980295,0,12,12,12,1,13,3,1,phone       ,radio       ,html/resources/sequences_IDs/B/09_phone.jpg,html/resources/sequences_IDs/B/10_radio.jpg,9,10,4,2,4,2,7,8,0,21,,,,,,,,,,,,,,,,,,,,
,,,,,21,2020-07-01_11h40.54.185,retriever_ti,2020.1.3,Win32,60,Chrome,1536,864,,,,,,,,,,,,,,,,,1,,,,,,,,,,,,,,,,,,,,,,,,,,,395.596795,14,right,0.78896,clownfish     ,8,4,7,1,3,395.61471,395.61471,398.108575,0,13,13,13,1,14,1,8,radio       ,clownfish     ,html/resources/sequences_IDs/B/10_radio.jpg,html/resources/sequences_IDs/A/04_clownfish.jpg,10,4,4,2,2,1,8,3,0,21,,,,,,,,,,,,,,,,,,,,
,,,,,21,2020-07-01_11h40.54.185,retriever_ti,2020.1.3,Win32,60,Chrome,1536,864,,,,,,,,,,,,,,,,,1,,,,,,,,,,,,,,,,,,,,,,,,,,,398.731245,15,left,1.6849,seaturtle     ,4,2,2,1,3,398.74391,398.74391,401.237085,0,14,14,14,1,15,4,2,seaturtle     ,peacock       ,html/resources/sequences_IDs/A/02_seaturtle.jpg,html/resources/sequences_IDs/A/05_peacock.jpg,2,5,2,1,2,1,1,4,0,21,,,,,,,,,,,,,,,,,,,,
,,,,,21,2020-07-01_11h40.54.185,retriever_ti,2020.1.3,Win32,60,Chrome,1536,864,,,,,,,,,,,,,,,,,1,,,,,,,,,,,,,,,,,,,,,,,,,,,401.853765,16,left,0.65205,clownfish     ,8,4,2,1,3,401.88801,401.88801,404.38186,0,15,15,15,1,16,8,6,clownfish     ,hat           ,html/resources/sequences_IDs/A/04_clownfish.jpg,html/resources/sequences_IDs/A/08_hat.jpg,4,8,2,1,3,2,3,6,0,21,,,,,,,,,,,,,,,,,,,,
,,,,,21,2020-07-01_11h40.54.185,retriever_ti,2020.1.3,Win32,60,Chrome,1536,864,,,,,,,,,,,,,,,,,1,,,,,,,,,,,,,,,,,,,,,,,,,,,404.998475,17,right,0.799775,seaturtle     ,4,2,-3,0,3,405.033235,405.033235,407.52669,0,16,16,16,1,17,7,4,sport_tshirt,seaturtle     ,html/resources/sequences_IDs/B/07_sport_tshirt.jpg,html/resources/sequences_IDs/A/02_seaturtle.jpg,7,2,3,2,2,1,5,1,0,21,,,,,,,,,,,,,,,,,,,,
,,,,,21,2020-07-01_11h40.54.185,retriever_ti,2020.1.3,Win32,60,Chrome,1536,864,,,,,,,,,,,,,,,,,1,,,,,,,,,,,,,,,,,,,,,,,,,,,408.14355,18,right,2.103275,peacock       ,2,5,-5,0,3,408.161225,408.161225,410.65519,0,17,17,17,1,18,7,2,sport_tshirt,peacock       ,html/resources/sequences_IDs/B/07_sport_tshirt.jpg,html/resources/sequences_IDs/A/05_peacock.jpg,7,5,3,2,2,1,5,4,0,21,,,,,,,,,,,,,,,,,,,,
,,,,,21,2020-07-01_11h40.54.185,retriever_ti,2020.1.3,Win32,60,Chrome,1536,864,,,,,,,,,,,,,,,,,1,,,,,,,,,,,,,,,,,,,,,,,,,,,411.27165,19,right,0.868715,giraffe     ,5,3,-1,0,0,411.28952,411.28952,413.78407,0,18,18,18,1,19,6,5,hat           ,giraffe     ,html/resources/sequences_IDs/A/08_hat.jpg,html/resources/sequences_IDs/B/03_giraffe.jpg,8,3,3,2,1,1,6,2,0,21,,,,,,,,,,,,,,,,,,,,
,,,,,21,2020-07-01_11h40.54.185,retriever_ti,2020.1.3,Win32,60,Chrome,1536,864,,,,,,,,,,,,,,,,,1,,,,,,,,,,,,,,,,,,,,,,,,,,,414.883555,20,left,1.254085,hat           ,6,8,-1,0,0,414.92007,414.92007,417.4116,0,19,19,19,1,20,6,7,hat           ,sport_tshirt,html/resources/sequences_IDs/A/08_hat.jpg,html/resources/sequences_IDs/B/07_sport_tshirt.jpg,8,7,3,2,3,2,6,5,0,21,,,,,,,,,,,,,,,,,,,,
,,,,,21,2020-07-01_11h40.54.185,retriever_ti,2020.1.3,Win32,60,Chrome,1536,864,,,,,,,,,,,,,,,,,1,,,,,,,,,,,,,,,,,,,,,,,,,,,418.51113,21,right,1.072585,giraffe     ,5,3,-1,0,0,418.528915,418.528915,421.0222,0,20,20,20,1,21,6,5,hat           ,giraffe     ,html/resources/sequences_IDs/A/08_hat.jpg,html/resources/sequences_IDs/B/03_giraffe.jpg,8,3,3,2,1,1,6,2,0,21,,,,,,,,,,,,,,,,,,,,
,,,,,21,2020-07-01_11h40.54.185,retriever_ti,2020.1.3,Win32,60,Chrome,1536,864,,,,,,,,,,,,,,,,,1,,,,,,,,,,,,,,,,,,,,,,,,,,,422.12202,22,right,0.98637,hat           ,6,8,1,1,1,422.156545,422.156545,424.65213,0,21,21,21,1,22,5,6,giraffe     ,hat           ,html/resources/sequences_IDs/B/03_giraffe.jpg,html/resources/sequences_IDs/A/08_hat.jpg,3,8,1,1,3,2,2,6,0,21,,,,,,,,,,,,,,,,,,,,
,,,,,21,2020-07-01_11h40.54.185,retriever_ti,2020.1.3,Win32,60,Chrome,1536,864,,,,,,,,,,,,,,,,,1,,,,,,,,,,,,,,,,,,,,,,,,,,,425.76234,23,right,0.510335,hat           ,6,8,3,1,3,425.80263,425.80263,428.294695,0,22,22,22,1,23,3,6,phone       ,hat           ,html/resources/sequences_IDs/B/09_phone.jpg,html/resources/sequences_IDs/A/08_hat.jpg,9,8,4,2,3,2,7,6,0,21,,,,,,,,,,,,,,,,,,,,
,,,,,21,2020-07-01_11h40.54.185,retriever_ti,2020.1.3,Win32,60,Chrome,1536,864,,,,,,,,,,,,,,,,,1,,,,,,,,,,,,,,,,,,,,,,,,,,,428.89761,24,right,1.050775,clownfish     ,8,4,1,1,1,428.935065,428.935065,431.40668,0,23,23,23,1,24,7,8,sport_tshirt,clownfish     ,html/resources/sequences_IDs/B/07_sport_tshirt.jpg,html/resources/sequences_IDs/A/04_clownfish.jpg,7,4,3,2,2,1,5,3,0,21,,,,,,,,,,,,,,,,,,,,
,,,,,21,2020-07-01_11h40.54.185,retriever_ti,2020.1.3,Win32,60,Chrome,1536,864,,,,,,,,,,,,,,,,,1,,,,,,,,,,,,,,,,,,,,,,,,,,,432.505205,25,left,1.431895,seaturtle     ,4,2,-1,0,0,432.53941,432.53941,435.03326,0,24,24,24,1,25,4,5,seaturtle     ,giraffe     ,html/resources/sequences_IDs/A/02_seaturtle.jpg,html/resources/sequences_IDs/B/03_giraffe.jpg,2,3,2,1,1,1,1,2,0,21,,,,,,,,,,,,,,,,,,,,
,,,,,21,2020-07-01_11h40.54.185,retriever_ti,2020.1.3,Win32,60,Chrome,1536,864,,,,,,,,,,,,,,,,,1,,,,,,,,,,,,,,,,,,,,,,,,,,,436.13219,26,left,1.59141,phone       ,3,9,-1,0,0,436.149455,436.149455,438.643755,0,25,25,25,1,26,3,4,phone       ,seaturtle     ,html/resources/sequences_IDs/B/09_phone.jpg,html/resources/sequences_IDs/A/02_seaturtle.jpg,9,2,4,2,2,1,7,1,0,21,,,,,,,,,,,,,,,,,,,,
,,,,,21,2020-07-01_11h40.54.185,retriever_ti,2020.1.3,Win32,60,Chrome,1536,864,,,,,,,,,,,,,,,,,1,,,,,,,,,,,,,,,,,,,,,,,,,,,439.74299,27,right,1.18707,radio       ,1,10,-6,0,3,439.76057,439.76057,442.255095,0,26,26,26,1,27,7,1,sport_tshirt,radio       ,html/resources/sequences_IDs/B/07_sport_tshirt.jpg,html/resources/sequences_IDs/B/10_radio.jpg,7,10,3,2,4,2,5,8,0,21,,,,,,,,,,,,,,,,,,,,
,,,,,21,2020-07-01_11h40.54.185,retriever_ti,2020.1.3,Win32,60,Chrome,1536,864,,,,,,,,,,,,,,,,,1,,,,,,,,,,,,,,,,,,,,,,,,,,,442.87151,28,right,0.983225,phone       ,3,9,1,1,1,442.90647,442.90647,445.39999,0,27,27,27,1,28,2,3,peacock       ,phone       ,html/resources/sequences_IDs/A/05_peacock.jpg,html/resources/sequences_IDs/B/09_phone.jpg,5,9,2,1,4,2,4,7,0,21,,,,,,,,,,,,,,,,,,,,
,,,,,21,2020-07-01_11h40.54.185,retriever_ti,2020.1.3,Win32,60,Chrome,1536,864,,,,,,,,,,,,,,,,,1,,,,,,,,,,,,,,,,,,,,,,,,,,,446.499525,29,right,1.30519,hat           ,6,8,1,1,0,446.56958,446.56958,449.01036,0,28,28,28,1,29,5,6,giraffe     ,hat           ,html/resources/sequences_IDs/B/03_giraffe.jpg,html/resources/sequences_IDs/A/08_hat.jpg,3,8,1,1,3,2,2,6,1,21,,,,,,,,,,,,,,,,,,,,
,,,,,21,2020-07-01_11h40.54.185,retriever_ti,2020.1.3,Win32,60,Chrome,1536,864,,,,,,,,,,,,,,,,,1,,,,,,,,,,,,,,,,,,,,,,,,,,,450.109705,30,right,1.37185,giraffe     ,5,3,-2,0,3,450.14386,450.14386,452.63841,0,29,29,29,1,30,7,5,sport_tshirt,giraffe     ,html/resources/sequences_IDs/B/07_sport_tshirt.jpg,html/resources/sequences_IDs/B/03_giraffe.jpg,7,3,3,2,1,1,5,2,0,21,,,,,,,,,,,,,,,,,,,,
,,,,,21,2020-07-01_11h40.54.185,retriever_ti,2020.1.3,Win32,60,Chrome,1536,864,,,,,,,,,,,,,,,,,1,,,,,,,,,,,,,,,,,,,,,,,,,,,453.2548,31,left,0.52488,giraffe     ,5,3,3,1,3,453.289885,453.289885,455.78249,0,30,30,30,1,31,5,2,giraffe     ,peacock       ,html/resources/sequences_IDs/B/03_giraffe.jpg,html/resources/sequences_IDs/A/05_peacock.jpg,3,5,1,1,2,1,2,4,0,21,,,,,,,,,,,,,,,,,,,,
,,,,,21,2020-07-01_11h40.54.185,retriever_ti,2020.1.3,Win32,60,Chrome,1536,864,,,,,,,,,,,,,,,,,1,,,,,,,,,,,,,,,,,,,,,,,,,,,456.39968,32,left,0.521675,giraffe     ,5,3,-3,0,3,456.433805,456.433805,458.92766,0,31,31,31,1,32,5,8,giraffe     ,clownfish     ,html/resources/sequences_IDs/B/03_giraffe.jpg,html/resources/sequences_IDs/A/04_clownfish.jpg,3,4,1,1,2,1,2,3,0,21,,,,,,,,,,,,,,,,,,,,
,,,,,21,2020-07-01_11h40.54.185,retriever_ti,2020.1.3,Win32,60,Chrome,1536,864,,,,,,,,,,,,,,,,,1,,,,,,,,,,,,,,,,,,,,,,,,,,,459.5569,33,right,1.14381,phone       ,3,9,-1,0,1,459.595125,459.595125,462.09004,0,32,32,32,1,33,4,3,seaturtle     ,phone       ,html/resources/sequences_IDs/A/02_seaturtle.jpg,html/resources/sequences_IDs/B/09_phone.jpg,2,9,2,1,4,2,1,7,1,21,,,,,,,,,,,,,,,,,,,,
,,,,,21,2020-07-01_11h40.54.185,retriever_ti,2020.1.3,Win32,60,Chrome,1536,864,,,,,,,,,,,,,,,,,1,,,,,,,,,,,,,,,,,,,,,,,,,,,463.189735,34,left,0.98105,giraffe     ,5,3,-1,0,0,463.22428,463.22428,465.716875,0,33,33,33,1,34,5,6,giraffe     ,hat           ,html/resources/sequences_IDs/B/03_giraffe.jpg,html/resources/sequences_IDs/A/08_hat.jpg,3,8,1,1,3,2,2,6,0,21,,,,,,,,,,,,,,,,,,,,
,,,,,21,2020-07-01_11h40.54.185,retriever_ti,2020.1.3,Win32,60,Chrome,1536,864,,,,,,,,,,,,,,,,,1,,,,,,,,,,,,,,,,,,,,,,,,,,,466.8162,35,right,0.909955,giraffe     ,5,3,1,1,1,466.850515,466.850515,469.344425,0,34,34,34,1,35,4,5,seaturtle     ,giraffe     ,html/resources/sequences_IDs/A/02_seaturtle.jpg,html/resources/sequences_IDs/B/03_giraffe.jpg,2,3,2,1,1,1,1,2,0,21,,,,,,,,,,,,,,,,,,,,
,,,,,21,2020-07-01_11h40.54.185,retriever_ti,2020.1.3,Win32,60,Chrome,1536,864,,,,,,,,,,,,,,,,,1,,,,,,,,,,,,,,,,,,,,,,,,,,,470.44449,36,left,0.73033,clownfish     ,8,4,7,1,3,470.478845,470.478845,472.971785,0,35,35,35,1,36,8,1,clownfish     ,radio       ,html/resources/sequences_IDs/A/04_clownfish.jpg,html/resources/sequences_IDs/B/10_radio.jpg,4,10,2,1,4,2,3,8,0,21,,,,,,,,,,,,,,,,,,,,
,,,,,21,2020-07-01_11h40.54.185,retriever_ti,2020.1.3,Win32,60,Chrome,1536,864,,,,,,,,,,,,,,,,,1,,,,,,,,,,,,,,,,,,,,,,,,,,,473.587885,37,left,0.943165,peacock       ,2,5,1,1,1,473.623045,473.623045,476.116885,0,36,36,36,1,37,2,1,peacock       ,radio       ,html/resources/sequences_IDs/A/05_peacock.jpg,html/resources/sequences_IDs/B/10_radio.jpg,5,10,2,1,4,2,4,8,0,21,,,,,,,,,,,,,,,,,,,,
,,,,,21,2020-07-01_11h40.54.185,retriever_ti,2020.1.3,Win32,60,Chrome,1536,864,,,,,,,,,,,,,,,,,1,,,,,,,,,,,,,,,,,,,,,,,,,,,477.216095,38,right,0.87515,hat           ,6,8,-1,0,0,477.2504,477.2504,479.744755,0,37,37,37,1,38,7,6,sport_tshirt,hat           ,html/resources/sequences_IDs/B/07_sport_tshirt.jpg,html/resources/sequences_IDs/A/08_hat.jpg,7,8,3,2,3,2,5,6,0,21,,,,,,,,,,,,,,,,,,,,
,,,,,21,2020-07-01_11h40.54.185,retriever_ti,2020.1.3,Win32,60,Chrome,1536,864,,,,,,,,,,,,,,,,,1,,,,,,,,,,,,,,,,,,,,,,,,,,,480.843785,39,left,1.024745,giraffe     ,5,3,1,1,1,480.861295,480.861295,483.35506,0,38,38,38,1,39,5,4,giraffe     ,seaturtle     ,html/resources/sequences_IDs/B/03_giraffe.jpg,html/resources/sequences_IDs/A/02_seaturtle.jpg,3,2,1,1,2,1,2,1,0,21,,,,,,,,,,,,,,,,,,,,
,,,,,21,2020-07-01_11h40.54.185,retriever_ti,2020.1.3,Win32,60,Chrome,1536,864,,,,,,,,,,,,,,,,,1,,,,,,,,,,,,,,,,,,,,,,,,,,,484.454625,40,left,0.66571,giraffe     ,5,3,-2,0,3,484.48874,484.48874,486.98277,0,39,39,39,1,40,5,7,giraffe     ,sport_tshirt,html/resources/sequences_IDs/B/03_giraffe.jpg,html/resources/sequences_IDs/B/07_sport_tshirt.jpg,3,7,1,1,3,2,2,5,0,21,,,,,,,,,,,,,,,,,,,,
,,,,,21,2020-07-01_11h40.54.185,retriever_ti,2020.1.3,Win32,60,Chrome,1536,864,,,,,,,,,,,,,,,,,1,,,,,,,,,,,,,,,,,,,,,,,,,,,487.61837,41,right,1.078545,sport_tshirt,7,7,5,1,3,487.650495,487.650495,490.143975,0,40,40,40,1,41,2,7,peacock       ,sport_tshirt,html/resources/sequences_IDs/A/05_peacock.jpg,html/resources/sequences_IDs/B/07_sport_tshirt.jpg,5,7,2,1,3,2,4,5,0,21,,,,,,,,,,,,,,,,,,,,
,,,,,21,2020-07-01_11h40.54.185,retriever_ti,2020.1.3,Win32,60,Chrome,1536,864,,,,,,,,,,,,,,,,,1,,,,,,,,,,,,,,,,,,,,,,,,,,,490.76128,42,left,0.83723,peacock       ,2,5,1,1,1,490.778765,490.778765,493.273375,0,41,41,41,1,42,2,1,peacock       ,radio       ,html/resources/sequences_IDs/A/05_peacock.jpg,html/resources/sequences_IDs/B/10_radio.jpg,5,10,2,1,4,2,4,8,0,21,,,,,,,,,,,,,,,,,,,,
,,,,,21,2020-07-01_11h40.54.185,retriever_ti,2020.1.3,Win32,60,Chrome,1536,864,,,,,,,,,,,,,,,,,1,,,,,,,,,,,,,,,,,,,,,,,,,,,494.37319,43,left,1.113045,clownfish     ,8,4,5,1,3,494.39094,494.39094,496.883805,0,42,42,42,1,43,8,3,clownfish     ,phone       ,html/resources/sequences_IDs/A/04_clownfish.jpg,html/resources/sequences_IDs/B/09_phone.jpg,4,9,2,1,4,2,3,7,0,21,,,,,,,,,,,,,,,,,,,,
,,,,,21,2020-07-01_11h40.54.185,retriever_ti,2020.1.3,Win32,60,Chrome,1536,864,,,,,,,,,,,,,,,,,1,,,,,,,,,,,,,,,,,,,,,,,,,,,497.500235,44,right,0.756475,peacock       ,2,5,1,1,1,497.535065,497.535065,500.028555,0,43,43,43,1,44,1,2,radio       ,peacock       ,html/resources/sequences_IDs/B/10_radio.jpg,html/resources/sequences_IDs/A/05_peacock.jpg,10,5,4,2,2,1,8,4,0,21,,,,,,,,,,,,,,,,,,,,
,,,,,21,2020-07-01_11h40.54.185,retriever_ti,2020.1.3,Win32,60,Chrome,1536,864,,,,,,,,,,,,,,,,,1,,,,,,,,,,,,,,,,,,,,,,,,,,,501.12784,45,left,0.87648,peacock       ,2,5,-1,0,1,501.16217,501.16217,503.655745,0,44,44,44,1,45,2,3,peacock       ,phone       ,html/resources/sequences_IDs/A/05_peacock.jpg,html/resources/sequences_IDs/B/09_phone.jpg,5,9,2,1,4,2,4,7,1,21,,,,,,,,,,,,,,,,,,,,
,,,,,21,2020-07-01_11h40.54.185,retriever_ti,2020.1.3,Win32,60,Chrome,1536,864,,,,,,,,,,,,,,,,,1,,,,,,,,,,,,,,,,,,,,,,,,,,,504.75572,46,right,1.190455,seaturtle     ,4,2,3,1,3,504.773075,504.773075,507.26659,0,45,45,45,1,46,1,4,radio       ,seaturtle     ,html/resources/sequences_IDs/B/10_radio.jpg,html/resources/sequences_IDs/A/02_seaturtle.jpg,10,2,4,2,2,1,8,1,0,21,,,,,,,,,,,,,,,,,,,,
,,,,,21,2020-07-01_11h40.54.185,retriever_ti,2020.1.3,Win32,60,Chrome,1536,864,,,,,,,,,,,,,,,,,1,,,,,,,,,,,,,,,,,,,,,,,,,,,507.883775,47,right,1.08426,phone       ,3,9,2,1,3,507.901435,507.901435,510.39531,0,46,46,46,1,47,1,3,radio       ,phone       ,html/resources/sequences_IDs/B/10_radio.jpg,html/resources/sequences_IDs/B/09_phone.jpg,10,9,4,2,4,2,8,7,0,21,,,,,,,,,,,,,,,,,,,,
,,,,,21,2020-07-01_11h40.54.185,retriever_ti,2020.1.3,Win32,60,Chrome,1536,864,,,,,,,,,,,,,,,,,1,,,,,,,,,,,,,,,,,,,,,,,,,,,511.011415,48,left,0.866855,hat           ,6,8,5,1,3,511.02969,511.02969,513.523665,0,47,47,47,1,48,6,1,hat           ,radio       ,html/resources/sequences_IDs/A/08_hat.jpg,html/resources/sequences_IDs/B/10_radio.jpg,8,10,3,2,4,2,6,8,0,21,,,,,,,,,,,,,,,,,,,,
,,,,,21,2020-07-01_11h40.54.185,retriever_ti,2020.1.3,Win32,60,Chrome,1536,864,,,,,,,,,,,,,,,,,1,,,,,,,,,,,,,,,,,,,,,,,,,,,514.141,49,left,0.749145,giraffe     ,5,3,2,1,3,514.159045,514.159045,516.651925,0,48,48,48,1,49,5,3,giraffe     ,phone       ,html/resources/sequences_IDs/B/03_giraffe.jpg,html/resources/sequences_IDs/B/09_phone.jpg,3,9,1,1,4,2,2,7,0,21,,,,,,,,,,,,,,,,,,,,
,,,,,21,2020-07-01_11h40.54.185,retriever_ti,2020.1.3,Win32,60,Chrome,1536,864,,,,,,,,,,,,,,,,,1,,,,,,,,,,,,,,,,,,,,,,,,,,,517.268145,50,left,1.33304,sport_tshirt,7,7,1,1,0,517.30284,517.30284,519.796865,0,49,49,49,1,50,7,6,sport_tshirt,hat           ,html/resources/sequences_IDs/B/07_sport_tshirt.jpg,html/resources/sequences_IDs/A/08_hat.jpg,7,8,3,2,3,2,5,6,1,21,,,,,,,,,,,,,,,,,,,,
,,,,,21,2020-07-01_11h40.54.185,retriever_ti,2020.1.3,Win32,60,Chrome,1536,864,,,,,,,,,,,,,,,,,1,,,,,,,,,,,,,,,,,,,,,,,,,,,520.897135,51,right,0.71932,giraffe     ,5,3,1,1,0,520.914995,520.914995,523.416,0,50,50,50,1,51,4,5,seaturtle     ,giraffe     ,html/resources/sequences_IDs/A/02_seaturtle.jpg,html/resources/sequences_IDs/B/03_giraffe.jpg,2,3,2,1,1,1,1,2,1,21,,,,,,,,,,,,,,,,,,,,
,,,,,21,2020-07-01_11h40.54.185,retriever_ti,2020.1.3,Win32,60,Chrome,1536,864,,,,,,,,,,,,,,,,,1,,,,,,,,,,,,,,,,,,,,,,,,,,,524.50841,52,right,0.98946,giraffe     ,5,3,-3,0,3,524.52463,524.52463,527.018615,0,51,51,51,1,52,8,5,clownfish     ,giraffe     ,html/resources/sequences_IDs/A/04_clownfish.jpg,html/resources/sequences_IDs/B/03_giraffe.jpg,4,3,2,1,1,1,3,2,0,21,,,,,,,,,,,,,,,,,,,,
,,,,,21,2020-07-01_11h40.54.185,retriever_ti,2020.1.3,Win32,60,Chrome,1536,864,,,,,,,,,,,,,,,,,1,,,,,,,,,,,,,,,,,,,,,,,,,,,527.634785,53,left,1.42672,peacock       ,2,5,-1,0,0,527.66952,527.66952,530.164085,0,52,52,52,1,53,2,3,peacock       ,phone       ,html/resources/sequences_IDs/A/05_peacock.jpg,html/resources/sequences_IDs/B/09_phone.jpg,5,9,2,1,4,2,4,7,0,21,,,,,,,,,,,,,,,,,,,,
,,,,,21,2020-07-01_11h40.54.185,retriever_ti,2020.1.3,Win32,60,Chrome,1536,864,,,,,,,,,,,,,,,,,1,,,,,,,,,,,,,,,,,,,,,,,,,,,531.263675,54,right,1.078595,sport_tshirt,7,7,-1,0,0,531.297625,531.297625,533.79106,0,53,53,53,1,54,8,7,clownfish     ,sport_tshirt,html/resources/sequences_IDs/A/04_clownfish.jpg,html/resources/sequences_IDs/B/07_sport_tshirt.jpg,4,7,2,1,3,2,3,5,0,21,,,,,,,,,,,,,,,,,,,,
,,,,,21,2020-07-01_11h40.54.185,retriever_ti,2020.1.3,Win32,60,Chrome,1536,864,,,,,,,,,,,,,,,,,1,,,,,,,,,,,,,,,,,,,,,,,,,,,534.890365,55,right,0.86434,clownfish     ,8,4,1,1,1,534.924615,534.924615,537.419675,0,54,54,54,1,55,7,8,sport_tshirt,clownfish     ,html/resources/sequences_IDs/B/07_sport_tshirt.jpg,html/resources/sequences_IDs/A/04_clownfish.jpg,7,4,3,2,2,1,5,3,0,21,,,,,,,,,,,,,,,,,,,,
,,,,,21,2020-07-01_11h40.54.185,retriever_ti,2020.1.3,Win32,60,Chrome,1536,864,,,,,,,,,,,,,,,,,1,,,,,,,,,,,,,,,,,,,,,,,,,,,538.518125,56,right,0.629795,clownfish     ,8,4,5,1,3,538.53534,538.53534,541.029435,0,55,55,55,1,56,3,8,phone       ,clownfish     ,html/resources/sequences_IDs/B/09_phone.jpg,html/resources/sequences_IDs/A/04_clownfish.jpg,9,4,4,2,2,1,7,3,0,21,,,,,,,,,,,,,,,,,,,,
,,,,,21,2020-07-01_11h40.54.185,retriever_ti,2020.1.3,Win32,60,Chrome,1536,864,,,,,,,,,,,,,,,,,1,,,,,,,,,,,,,,,,,,,,,,,,,,,541.64615,57,right,1.528315,sport_tshirt,7,7,6,1,3,541.66381,541.66381,544.15832,0,56,56,56,1,57,1,7,radio       ,sport_tshirt,html/resources/sequences_IDs/B/10_radio.jpg,html/resources/sequences_IDs/B/07_sport_tshirt.jpg,10,7,4,2,3,2,8,5,0,21,,,,,,,,,,,,,,,,,,,,
,,,,,21,2020-07-01_11h40.54.185,retriever_ti,2020.1.3,Win32,60,Chrome,1536,864,,,,,,,,,,,,,,,,,1,,,,,,,,,,,,,,,,,,,,,,,,,,,544.775085,58,left,0.92071,clownfish     ,8,4,6,1,3,544.81003,544.81003,547.302715,0,57,57,57,1,58,8,2,clownfish     ,peacock       ,html/resources/sequences_IDs/A/04_clownfish.jpg,html/resources/sequences_IDs/A/05_peacock.jpg,4,5,2,1,2,1,3,4,0,21,,,,,,,,,,,,,,,,,,,,
,,,,,21,2020-07-01_11h40.54.185,retriever_ti,2020.1.3,Win32,60,Chrome,1536,864,,,,,,,,,,,,,,,,,1,,,,,,,,,,,,,,,,,,,,,,,,,,,547.919305,59,right,0.851565,hat           ,6,8,2,1,3,547.937095,547.937095,550.430945,0,58,58,58,1,59,4,6,seaturtle     ,hat           ,html/resources/sequences_IDs/A/02_seaturtle.jpg,html/resources/sequences_IDs/A/08_hat.jpg,2,8,2,1,3,2,1,6,0,21,,,,,,,,,,,,,,,,,,,,
,,,,,21,2020-07-01_11h40.54.185,retriever_ti,2020.1.3,Win32,60,Chrome,1536,864,,,,,,,,,,,,,,,,,1,,,,,,,,,,,,,,,,,,,,,,,,,,,551.047135,60,right,1.24832,phone       ,3,9,-1,0,0,551.06515,551.06515,553.559895,0,59,59,59,1,60,4,3,seaturtle     ,phone       ,html/resources/sequences_IDs/A/02_seaturtle.jpg,html/resources/sequences_IDs/B/09_phone.jpg,2,9,2,1,4,2,1,7,0,21,,,,,,,,,,,,,,,,,,,,
,,,,,21,2020-07-01_11h40.54.185,retriever_ti,2020.1.3,Win32,60,Chrome,1536,864,,,,,,,,,,,,,,,,,1,,,,,,,,,,,,,,,,,,,,,,,,,,,554.658735,61,left,0.60859,clownfish     ,8,4,1,1,0,554.676315,554.676315,557.170195,0,60,60,60,1,61,8,7,clownfish     ,sport_tshirt,html/resources/sequences_IDs/A/04_clownfish.jpg,html/resources/sequences_IDs/B/07_sport_tshirt.jpg,4,7,2,1,3,2,3,5,1,21,,,,,,,,,,,,,,,,,,,,
,,,,,21,2020-07-01_11h40.54.185,retriever_ti,2020.1.3,Win32,60,Chrome,1536,864,,,,,,,,,,,,,,,,,1,,,,,,,,,,,,,,,,,,,,,,,,,,,558.26968,62,left,0.863375,hat           ,6,8,3,1,3,558.303865,558.303865,560.7978,0,61,61,61,1,62,6,3,hat           ,phone       ,html/resources/sequences_IDs/A/08_hat.jpg,html/resources/sequences_IDs/B/09_phone.jpg,8,9,3,2,4,2,6,7,0,21,,,,,,,,,,,,,,,,,,,,
,,,,,21,2020-07-01_11h40.54.185,retriever_ti,2020.1.3,Win32,60,Chrome,1536,864,,,,,,,,,,,,,,,,,1,,,,,,,,,,,,,,,,,,,,,,,,,,,561.414265,63,right,0.763955,phone       ,3,9,-4,0,3,561.44873,561.44873,563.942685,0,62,62,62,1,63,7,3,sport_tshirt,phone       ,html/resources/sequences_IDs/B/07_sport_tshirt.jpg,html/resources/sequences_IDs/B/09_phone.jpg,7,9,3,2,4,2,5,7,0,21,,,,,,,,,,,,,,,,,,,,
,,,,,21,2020-07-01_11h40.54.185,retriever_ti,2020.1.3,Win32,60,Chrome,1536,864,,,,,,,,,,,,,,,,,1,,,,,,,,,,,,,,,,,,,,,,,,,,,564.559605,64,right,0.76938,seaturtle     ,4,2,1,1,1,564.578025,564.578025,567.071555,0,63,63,63,1,64,3,4,phone       ,seaturtle     ,html/resources/sequences_IDs/B/09_phone.jpg,html/resources/sequences_IDs/A/02_seaturtle.jpg,9,2,4,2,2,1,7,1,0,21,,,,,,,,,,,,,,,,,,,,
,,,,,21,2020-07-01_11h40.54.185,retriever_ti,2020.1.3,Win32,60,Chrome,1536,864,,,,,,,,,,,,,,,,,1,,,,,,,,,,,,,,,,,,,,,,,,,,,568.171105,65,right,1.04941,giraffe     ,5,3,4,1,3,568.188875,568.188875,570.68193,0,64,64,64,1,65,1,5,radio       ,giraffe     ,html/resources/sequences_IDs/B/10_radio.jpg,html/resources/sequences_IDs/B/03_giraffe.jpg,10,3,4,2,1,1,8,2,0,21,,,,,,,,,,,,,,,,,,,,
,,,,,21,2020-07-01_11h40.54.185,retriever_ti,2020.1.3,Win32,60,Chrome,1536,864,,,,,,,,,,,,,,,,,1,,,,,,,,,,,,,,,,,,,,,,,,,,,571.298235,66,left,0.83624,peacock       ,2,5,1,1,0,571.316225,571.316225,573.811005,0,65,65,65,1,66,2,1,peacock       ,radio       ,html/resources/sequences_IDs/A/05_peacock.jpg,html/resources/sequences_IDs/B/10_radio.jpg,5,10,2,1,4,2,4,8,1,21,,,,,,,,,,,,,,,,,,,,
,,,,,21,2020-07-01_11h40.54.185,retriever_ti,2020.1.3,Win32,60,Chrome,1536,864,,,,,,,,,,,,,,,,,1,,,,,,,,,,,,,,,,,,,,,,,,,,,574.910585,67,right,0.95804,hat           ,6,8,5,1,3,574.945125,574.945125,577.43777,0,66,66,66,1,67,1,6,radio       ,hat           ,html/resources/sequences_IDs/B/10_radio.jpg,html/resources/sequences_IDs/A/08_hat.jpg,10,8,4,2,3,2,8,6,0,21,,,,,,,,,,,,,,,,,,,,
,,,,,21,2020-07-01_11h40.54.185,retriever_ti,2020.1.3,Win32,60,Chrome,1536,864,,,,,,,,,,,,,,,,,1,,,,,,,,,,,,,,,,,,,,,,,,,,,578.05521,68,right,0.95121,giraffe     ,5,3,2,1,3,578.072725,578.072725,580.56601,0,67,67,67,1,68,3,5,phone       ,giraffe     ,html/resources/sequences_IDs/B/09_phone.jpg,html/resources/sequences_IDs/B/03_giraffe.jpg,9,3,4,2,1,1,7,2,0,21,,,,,,,,,,,,,,,,,,,,
,,,,,21,2020-07-01_11h40.54.185,retriever_ti,2020.1.3,Win32,60,Chrome,1536,864,,,,,,,,,,,,,,,,,1,,,,,,,,,,,,,,,,,,,,,,,,,,,581.182535,69,right,0.75295,peacock       ,2,5,-1,0,0,581.21737,581.21737,583.710965,0,68,68,68,1,69,3,2,phone       ,peacock       ,html/resources/sequences_IDs/B/09_phone.jpg,html/resources/sequences_IDs/A/05_peacock.jpg,9,5,4,2,2,1,7,4,0,21,,,,,,,,,,,,,,,,,,,,
,,,,,21,2020-07-01_11h40.54.185,retriever_ti,2020.1.3,Win32,60,Chrome,1536,864,,,,,,,,,,,,,,,,,1,,,,,,,,,,,,,,,,,,,,,,,,,,,584.81008,70,left,0.88757,hat           ,6,8,-2,0,3,584.843935,584.843935,587.338495,0,69,69,69,1,70,6,8,hat           ,clownfish     ,html/resources/sequences_IDs/A/08_hat.jpg,html/resources/sequences_IDs/A/04_clownfish.jpg,8,4,3,2,2,1,6,3,0,21,,,,,,,,,,,,,,,,,,,,
,,,,,21,2020-07-01_11h40.54.185,retriever_ti,2020.1.3,Win32,60,Chrome,1536,864,,,,,,,,,,,,,,,,,1,,,,,,,,,,,,,,,,,,,,,,,,,,,587.9551,71,left,0.505535,clownfish     ,8,4,4,1,3,587.97283,587.97283,590.46681,0,70,70,70,1,71,8,4,clownfish     ,seaturtle     ,html/resources/sequences_IDs/A/04_clownfish.jpg,html/resources/sequences_IDs/A/02_seaturtle.jpg,4,2,2,1,2,1,3,1,0,21,,,,,,,,,,,,,,,,,,,,
,,,,,21,2020-07-01_11h40.54.185,retriever_ti,2020.1.3,Win32,60,Chrome,1536,864,,,,,,,,,,,,,,,,,1,,,,,,,,,,,,,,,,,,,,,,,,,,,591.083035,72,right,1.21657,peacock       ,2,5,1,1,1,591.11807,591.11807,593.61214,0,71,71,71,1,72,1,2,radio       ,peacock       ,html/resources/sequences_IDs/B/10_radio.jpg,html/resources/sequences_IDs/A/05_peacock.jpg,10,5,4,2,2,1,8,4,0,21,,,,,,,,,,,,,,,,,,,,
,,,,,21,2020-07-01_11h40.54.185,retriever_ti,2020.1.3,Win32,60,Chrome,1536,864,,,,,,,,,,,,,,,,,1,,,,,,,,,,,,,,,,,,,,,,,,,,,594.711315,73,right,0.95273,peacock       ,2,5,-4,0,3,594.728725,594.728725,597.22241,0,72,72,72,1,73,6,2,hat           ,peacock       ,html/resources/sequences_IDs/A/08_hat.jpg,html/resources/sequences_IDs/A/05_peacock.jpg,8,5,3,2,2,1,6,4,0,21,,,,,,,,,,,,,,,,,,,,
,,,,,21,2020-07-01_11h40.54.185,retriever_ti,2020.1.3,Win32,60,Chrome,1536,864,,,,,,,,,,,,,,,,,1,,,,,,,,,,,,,,,,,,,,,,,,,,,597.83887,74,left,2.159935,giraffe     ,5,3,4,1,3,597.85703,597.85703,600.35101,0,73,73,73,1,74,5,1,giraffe     ,radio       ,html/resources/sequences_IDs/B/03_giraffe.jpg,html/resources/sequences_IDs/B/10_radio.jpg,3,10,1,1,4,2,2,8,0,21,,,,,,,,,,,,,,,,,,,,
,,,,,21,2020-07-01_11h40.54.185,retriever_ti,2020.1.3,Win32,60,Chrome,1536,864,,,,,,,,,,,,,,,,,1,,,,,,,,,,,,,,,,,,,,,,,,,,,600.96786,75,NaN,NaN,No_response,NaN,NaN,NaN,2,2,600.985395,600.985395,603.48005,0,74,74,74,1,75,2,5,peacock       ,giraffe     ,html/resources/sequences_IDs/A/05_peacock.jpg,html/resources/sequences_IDs/B/03_giraffe.jpg,5,3,2,1,1,1,4,2,0,21,,,,,,,,,,,,,,,,,,,,
,,,,,21,2020-07-01_11h40.54.185,retriever_ti,2020.1.3,Win32,60,Chrome,1536,864,,,,,,,,,,,,,,,,,1,,,,,,,,,,,,,,,,,,,,,,,,,,,604.578895,76,left,0.55222,peacock       ,2,5,-6,0,3,604.6128,604.6128,607.106765,0,75,75,75,1,76,2,8,peacock       ,clownfish     ,html/resources/sequences_IDs/A/05_peacock.jpg,html/resources/sequences_IDs/A/04_clownfish.jpg,5,4,2,1,2,1,4,3,0,21,,,,,,,,,,,,,,,,,,,,
,,,,,21,2020-07-01_11h40.54.185,retriever_ti,2020.1.3,Win32,60,Chrome,1536,864,,,,,,,,,,,,,,,,,1,,,,,,,,,,,,,,,,,,,,,,,,,,,607.72322,77,right,0.685925,hat           ,6,8,-1,0,0,607.7411,607.7411,610.235105,0,76,76,76,1,77,7,6,sport_tshirt,hat           ,html/resources/sequences_IDs/B/07_sport_tshirt.jpg,html/resources/sequences_IDs/A/08_hat.jpg,7,8,3,2,3,2,5,6,0,21,,,,,,,,,,,,,,,,,,,,
,,,,,21,2020-07-01_11h40.54.185,retriever_ti,2020.1.3,Win32,60,Chrome,1536,864,,,,,,,,,,,,,,,,,,,,,,,,,,,,,,,,,,,,,0,6.47773,,,,,,,,,,,,,,,,,,,,,,,,,,,,,,,,,,,,,,,,,0,0,0,0,1,,,,,,,,,,,,,,,
,,,,,21,2020-07-01_11h40.54.185,retriever_ti,2020.1.3,Win32,60,Chrome,1536,864,,,,,,,,,,,,,,,,,2,,,,,,,,,,,,,,,,,,,,,,,,,,,633.565115,78,right,0.884685,giraffe     ,5,3,1,1,1,633.60029,633.60029,636.11349,0,0,0,0,1,78,4,5,seaturtle     ,giraffe     ,html/resources/sequences_IDs/A/02_seaturtle.jpg,html/resources/sequences_IDs/B/03_giraffe.jpg,2,3,2,1,1,1,1,2,0,21,,,,,,,,,,,,,,,,,,,,
,,,,,21,2020-07-01_11h40.54.185,retriever_ti,2020.1.3,Win32,60,Chrome,1536,864,,,,,,,,,,,,,,,,,2,,,,,,,,,,,,,,,,,,,,,,,,,,,637.210465,79,left,0.60701,clownfish     ,8,4,2,1,3,637.22751,637.22751,639.72095,0,1,1,1,1,79,8,6,clownfish     ,hat           ,html/resources/sequences_IDs/A/04_clownfish.jpg,html/resources/sequences_IDs/A/08_hat.jpg,4,8,2,1,3,2,3,6,0,21,,,,,,,,,,,,,,,,,,,,
,,,,,21,2020-07-01_11h40.54.185,retriever_ti,2020.1.3,Win32,60,Chrome,1536,864,,,,,,,,,,,,,,,,,2,,,,,,,,,,,,,,,,,,,,,,,,,,,640.33733,80,left,0.551385,hat           ,6,8,4,1,3,640.372215,640.372215,642.866165,0,2,2,2,1,80,6,2,hat           ,peacock       ,html/resources/sequences_IDs/A/08_hat.jpg,html/resources/sequences_IDs/A/05_peacock.jpg,8,5,3,2,2,1,6,4,0,21,,,,,,,,,,,,,,,,,,,,
,,,,,21,2020-07-01_11h40.54.185,retriever_ti,2020.1.3,Win32,60,Chrome,1536,864,,,,,,,,,,,,,,,,,2,,,,,,,,,,,,,,,,,,,,,,,,,,,643.483715,81,right,1.055115,giraffe     ,5,3,-1,0,0,643.50177,643.50177,645.994425,0,3,3,3,1,81,6,5,hat           ,giraffe     ,html/resources/sequences_IDs/A/08_hat.jpg,html/resources/sequences_IDs/B/03_giraffe.jpg,8,3,3,2,1,1,6,2,0,21,,,,,,,,,,,,,,,,,,,,
,,,,,21,2020-07-01_11h40.54.185,retriever_ti,2020.1.3,Win32,60,Chrome,1536,864,,,,,,,,,,,,,,,,,2,,,,,,,,,,,,,,,,,,,,,,,,,,,647.094485,82,right,0.626795,giraffe     ,5,3,4,1,3,647.112445,647.112445,649.605345,0,4,4,4,1,82,1,5,radio       ,giraffe     ,html/resources/sequences_IDs/B/10_radio.jpg,html/resources/sequences_IDs/B/03_giraffe.jpg,10,3,4,2,1,1,8,2,0,21,,,,,,,,,,,,,,,,,,,,
,,,,,21,2020-07-01_11h40.54.185,retriever_ti,2020.1.3,Win32,60,Chrome,1536,864,,,,,,,,,,,,,,,,,2,,,,,,,,,,,,,,,,,,,,,,,,,,,650.222165,83,left,0.856475,clownfish     ,8,4,6,1,3,650.2567,650.2567,652.750255,0,5,5,5,1,83,8,2,clownfish     ,peacock       ,html/resources/sequences_IDs/A/04_clownfish.jpg,html/resources/sequences_IDs/A/05_peacock.jpg,4,5,2,1,2,1,3,4,0,21,,,,,,,,,,,,,,,,,,,,
,,,,,21,2020-07-01_11h40.54.185,retriever_ti,2020.1.3,Win32,60,Chrome,1536,864,,,,,,,,,,,,,,,,,2,,,,,,,,,,,,,,,,,,,,,,,,,,,653.36725,84,right,0.60504,peacock       ,2,5,1,1,1,653.40098,653.40098,655.895235,0,6,6,6,1,84,1,2,radio       ,peacock       ,html/resources/sequences_IDs/B/10_radio.jpg,html/resources/sequences_IDs/A/05_peacock.jpg,10,5,4,2,2,1,8,4,0,21,,,,,,,,,,,,,,,,,,,,
,,,,,21,2020-07-01_11h40.54.185,retriever_ti,2020.1.3,Win32,60,Chrome,1536,864,,,,,,,,,,,,,,,,,2,,,,,,,,,,,,,,,,,,,,,,,,,,,656.99457,85,right,0.997705,hat           ,6,8,2,1,3,657.012295,657.012295,659.50671,0,7,7,7,1,85,4,6,seaturtle     ,hat           ,html/resources/sequences_IDs/A/02_seaturtle.jpg,html/resources/sequences_IDs/A/08_hat.jpg,2,8,2,1,3,2,1,6,0,21,,,,,,,,,,,,,,,,,,,,
,,,,,21,2020-07-01_11h40.54.185,retriever_ti,2020.1.3,Win32,60,Chrome,1536,864,,,,,,,,,,,,,,,,,2,,,,,,,,,,,,,,,,,,,,,,,,,,,660.1224,86,left,1.51842,phone       ,3,9,-1,0,0,660.140465,660.140465,662.634395,0,8,8,8,1,86,3,4,phone       ,seaturtle     ,html/resources/sequences_IDs/B/09_phone.jpg,html/resources/sequences_IDs/A/02_seaturtle.jpg,9,2,4,2,2,1,7,1,0,21,,,,,,,,,,,,,,,,,,,,
,,,,,21,2020-07-01_11h40.54.185,retriever_ti,2020.1.3,Win32,60,Chrome,1536,864,,,,,,,,,,,,,,,,,2,,,,,,,,,,,,,,,,,,,,,,,,,,,663.733785,87,right,0.928725,giraffe     ,5,3,-3,0,3,663.768025,663.768025,666.26197,0,9,9,9,1,87,8,5,clownfish     ,giraffe     ,html/resources/sequences_IDs/A/04_clownfish.jpg,html/resources/sequences_IDs/B/03_giraffe.jpg,4,3,2,1,1,1,3,2,0,21,,,,,,,,,,,,,,,,,,,,
,,,,,21,2020-07-01_11h40.54.185,retriever_ti,2020.1.3,Win32,60,Chrome,1536,864,,,,,,,,,,,,,,,,,2,,,,,,,,,,,,,,,,,,,,,,,,,,,666.87942,88,left,0.556115,giraffe     ,5,3,1,1,1,666.913085,666.913085,669.407615,0,10,10,10,1,88,5,4,giraffe     ,seaturtle     ,html/resources/sequences_IDs/B/03_giraffe.jpg,html/resources/sequences_IDs/A/02_seaturtle.jpg,3,2,1,1,2,1,2,1,0,21,,,,,,,,,,,,,,,,,,,,
,,,,,21,2020-07-01_11h40.54.185,retriever_ti,2020.1.3,Win32,60,Chrome,1536,864,,,,,,,,,,,,,,,,,2,,,,,,,,,,,,,,,,,,,,,,,,,,,670.5058,89,left,1.03215,hat           ,6,8,2,1,3,670.54033,670.54033,673.045045,0,11,11,11,1,89,6,4,hat           ,seaturtle     ,html/resources/sequences_IDs/A/08_hat.jpg,html/resources/sequences_IDs/A/02_seaturtle.jpg,8,2,3,2,2,1,6,1,0,21,,,,,,,,,,,,,,,,,,,,
,,,,,21,2020-07-01_11h40.54.185,retriever_ti,2020.1.3,Win32,60,Chrome,1536,864,,,,,,,,,,,,,,,,,2,,,,,,,,,,,,,,,,,,,,,,,,,,,673.6514,90,right,1.160235,radio       ,1,10,-6,0,3,673.669105,673.669105,676.16333,0,12,12,12,1,90,7,1,sport_tshirt,radio       ,html/resources/sequences_IDs/B/07_sport_tshirt.jpg,html/resources/sequences_IDs/B/10_radio.jpg,7,10,3,2,4,2,5,8,0,21,,,,,,,,,,,,,,,,,,,,
,,,,,21,2020-07-01_11h40.54.185,retriever_ti,2020.1.3,Win32,60,Chrome,1536,864,,,,,,,,,,,,,,,,,2,,,,,,,,,,,,,,,,,,,,,,,,,,,676.78061,91,right,0.723725,hat           ,6,8,-1,0,1,676.81521,676.81521,679.307775,0,13,13,13,1,91,7,6,sport_tshirt,hat           ,html/resources/sequences_IDs/B/07_sport_tshirt.jpg,html/resources/sequences_IDs/A/08_hat.jpg,7,8,3,2,3,2,5,6,1,21,,,,,,,,,,,,,,,,,,,,
,,,,,21,2020-07-01_11h40.54.185,retriever_ti,2020.1.3,Win32,60,Chrome,1536,864,,,,,,,,,,,,,,,,,2,,,,,,,,,,,,,,,,,,,,,,,,,,,680.40685,92,left,0.805705,clownfish     ,8,4,1,1,1,680.42534,680.42534,682.918435,0,14,14,14,1,92,8,7,clownfish     ,sport_tshirt,html/resources/sequences_IDs/A/04_clownfish.jpg,html/resources/sequences_IDs/B/07_sport_tshirt.jpg,4,7,2,1,3,2,3,5,0,21,,,,,,,,,,,,,,,,,,,,
,,,,,21,2020-07-01_11h40.54.185,retriever_ti,2020.1.3,Win32,60,Chrome,1536,864,,,,,,,,,,,,,,,,,2,,,,,,,,,,,,,,,,,,,,,,,,,,,684.019245,93,left,0.886455,seaturtle     ,4,2,1,1,0,684.052075,684.052075,686.54613,0,15,15,15,1,93,4,3,seaturtle     ,phone       ,html/resources/sequences_IDs/A/02_seaturtle.jpg,html/resources/sequences_IDs/B/09_phone.jpg,2,9,2,1,4,2,1,7,1,21,,,,,,,,,,,,,,,,,,,,
,,,,,21,2020-07-01_11h40.54.185,retriever_ti,2020.1.3,Win32,60,Chrome,1536,864,,,,,,,,,,,,,,,,,2,,,,,,,,,,,,,,,,,,,,,,,,,,,687.645975,94,right,1.54772,clownfish     ,8,4,7,1,3,687.66349,687.66349,690.15695,0,16,16,16,1,94,1,8,radio       ,clownfish     ,html/resources/sequences_IDs/B/10_radio.jpg,html/resources/sequences_IDs/A/04_clownfish.jpg,10,4,4,2,2,1,8,3,0,21,,,,,,,,,,,,,,,,,,,,
,,,,,21,2020-07-01_11h40.54.185,retriever_ti,2020.1.3,Win32,60,Chrome,1536,864,,,,,,,,,,,,,,,,,2,,,,,,,,,,,,,,,,,,,,,,,,,,,690.77405,95,left,0.979665,hat           ,6,8,1,1,1,690.79161,690.79161,693.285335,0,17,17,17,1,95,6,5,hat           ,giraffe     ,html/resources/sequences_IDs/A/08_hat.jpg,html/resources/sequences_IDs/B/03_giraffe.jpg,8,3,3,2,1,1,6,2,0,21,,,,,,,,,,,,,,,,,,,,
,,,,,21,2020-07-01_11h40.54.185,retriever_ti,2020.1.3,Win32,60,Chrome,1536,864,,,,,,,,,,,,,,,,,2,,,,,,,,,,,,,,,,,,,,,,,,,,,694.38408,96,right,0.960815,peacock       ,2,5,1,1,1,694.41872,694.41872,696.912785,0,18,18,18,1,96,1,2,radio       ,peacock       ,html/resources/sequences_IDs/B/10_radio.jpg,html/resources/sequences_IDs/A/05_peacock.jpg,10,5,4,2,2,1,8,4,0,21,,,,,,,,,,,,,,,,,,,,
,,,,,21,2020-07-01_11h40.54.185,retriever_ti,2020.1.3,Win32,60,Chrome,1536,864,,,,,,,,,,,,,,,,,2,,,,,,,,,,,,,,,,,,,,,,,,,,,698.012215,97,left,0.67351,giraffe     ,5,3,-2,0,3,698.029665,698.029665,700.523885,0,19,19,19,1,97,5,7,giraffe     ,sport_tshirt,html/resources/sequences_IDs/B/03_giraffe.jpg,html/resources/sequences_IDs/B/07_sport_tshirt.jpg,3,7,1,1,3,2,2,5,0,21,,,,,,,,,,,,,,,,,,,,
,,,,,21,2020-07-01_11h40.54.185,retriever_ti,2020.1.3,Win32,60,Chrome,1536,864,,,,,,,,,,,,,,,,,2,,,,,,,,,,,,,,,,,,,,,,,,,,,701.140555,98,right,0.68119,giraffe     ,5,3,1,1,0,701.15942,701.15942,703.652675,0,20,20,20,1,98,4,5,seaturtle     ,giraffe     ,html/resources/sequences_IDs/A/02_seaturtle.jpg,html/resources/sequences_IDs/B/03_giraffe.jpg,2,3,2,1,1,1,1,2,1,21,,,,,,,,,,,,,,,,,,,,
,,,,,21,2020-07-01_11h40.54.185,retriever_ti,2020.1.3,Win32,60,Chrome,1536,864,,,,,,,,,,,,,,,,,2,,,,,,,,,,,,,,,,,,,,,,,,,,,704.751235,99,left,0.741585,peacock       ,2,5,1,1,1,704.78669,704.78669,707.279465,0,21,21,21,1,99,2,1,peacock       ,radio       ,html/resources/sequences_IDs/A/05_peacock.jpg,html/resources/sequences_IDs/B/10_radio.jpg,5,10,2,1,4,2,4,8,0,21,,,,,,,,,,,,,,,,,,,,
,,,,,21,2020-07-01_11h40.54.185,retriever_ti,2020.1.3,Win32,60,Chrome,1536,864,,,,,,,,,,,,,,,,,2,,,,,,,,,,,,,,,,,,,,,,,,,,,708.37855,100,right,0.53301,hat           ,6,8,-1,0,0,708.41299,708.41299,710.90709,0,22,22,22,1,100,7,6,sport_tshirt,hat           ,html/resources/sequences_IDs/B/07_sport_tshirt.jpg,html/resources/sequences_IDs/A/08_hat.jpg,7,8,3,2,3,2,5,6,0,21,,,,,,,,,,,,,,,,,,,,
,,,,,21,2020-07-01_11h40.54.185,retriever_ti,2020.1.3,Win32,60,Chrome,1536,864,,,,,,,,,,,,,,,,,2,,,,,,,,,,,,,,,,,,,,,,,,,,,712.02617,101,left,1.2073,clownfish     ,8,4,1,1,0,712.04084,712.04084,714.53469,0,23,23,23,1,101,8,7,clownfish     ,sport_tshirt,html/resources/sequences_IDs/A/04_clownfish.jpg,html/resources/sequences_IDs/B/07_sport_tshirt.jpg,4,7,2,1,3,2,3,5,1,21,,,,,,,,,,,,,,,,,,,,
,,,,,21,2020-07-01_11h40.54.185,retriever_ti,2020.1.3,Win32,60,Chrome,1536,864,,,,,,,,,,,,,,,,,2,,,,,,,,,,,,,,,,,,,,,,,,,,,715.6339,102,left,0.64953,clownfish     ,8,4,5,1,3,715.65144,715.65144,718.145395,0,24,24,24,1,102,8,3,clownfish     ,phone       ,html/resources/sequences_IDs/A/04_clownfish.jpg,html/resources/sequences_IDs/B/09_phone.jpg,4,9,2,1,4,2,3,7,0,21,,,,,,,,,,,,,,,,,,,,
,,,,,21,2020-07-01_11h40.54.185,retriever_ti,2020.1.3,Win32,60,Chrome,1536,864,,,,,,,,,,,,,,,,,2,,,,,,,,,,,,,,,,,,,,,,,,,,,718.76208,103,right,0.54537,hat           ,6,8,3,1,3,718.779875,718.779875,721.273715,0,25,25,25,1,103,3,6,phone       ,hat           ,html/resources/sequences_IDs/B/09_phone.jpg,html/resources/sequences_IDs/A/08_hat.jpg,9,8,4,2,3,2,7,6,0,21,,,,,,,,,,,,,,,,,,,,
,,,,,21,2020-07-01_11h40.54.185,retriever_ti,2020.1.3,Win32,60,Chrome,1536,864,,,,,,,,,,,,,,,,,2,,,,,,,,,,,,,,,,,,,,,,,,,,,721.88997,104,left,0.6011,hat           ,6,8,5,1,3,721.90832,721.90832,724.402095,0,26,26,26,1,104,6,1,hat           ,radio       ,html/resources/sequences_IDs/A/08_hat.jpg,html/resources/sequences_IDs/B/10_radio.jpg,8,10,3,2,4,2,6,8,0,21,,,,,,,,,,,,,,,,,,,,
,,,,,21,2020-07-01_11h40.54.185,retriever_ti,2020.1.3,Win32,60,Chrome,1536,864,,,,,,,,,,,,,,,,,2,,,,,,,,,,,,,,,,,,,,,,,,,,,725.018435,105,left,0.94872,seaturtle     ,4,2,3,1,3,725.05303,725.05303,727.547115,0,27,27,27,1,105,4,1,seaturtle     ,radio       ,html/resources/sequences_IDs/A/02_seaturtle.jpg,html/resources/sequences_IDs/B/10_radio.jpg,2,10,2,1,4,2,1,8,0,21,,,,,,,,,,,,,,,,,,,,
,,,,,21,2020-07-01_11h40.54.185,retriever_ti,2020.1.3,Win32,60,Chrome,1536,864,,,,,,,,,,,,,,,,,2,,,,,,,,,,,,,,,,,,,,,,,,,,,728.163375,106,left,0.644985,hat           ,6,8,-1,0,0,728.19999,728.19999,730.691985,0,28,28,28,1,106,6,7,hat           ,sport_tshirt,html/resources/sequences_IDs/A/08_hat.jpg,html/resources/sequences_IDs/B/07_sport_tshirt.jpg,8,7,3,2,3,2,6,5,0,21,,,,,,,,,,,,,,,,,,,,
,,,,,21,2020-07-01_11h40.54.185,retriever_ti,2020.1.3,Win32,60,Chrome,1536,864,,,,,,,,,,,,,,,,,2,,,,,,,,,,,,,,,,,,,,,,,,,,,731.792085,107,left,0.465865,sport_tshirt,7,7,4,1,3,731.809485,731.809485,734.30286,0,29,29,29,1,107,7,3,sport_tshirt,phone       ,html/resources/sequences_IDs/B/07_sport_tshirt.jpg,html/resources/sequences_IDs/B/09_phone.jpg,7,9,3,2,4,2,5,7,0,21,,,,,,,,,,,,,,,,,,,,
,,,,,21,2020-07-01_11h40.54.185,retriever_ti,2020.1.3,Win32,60,Chrome,1536,864,,,,,,,,,,,,,,,,,2,,,,,,,,,,,,,,,,,,,,,,,,,,,734.91948,108,left,1.218215,peacock       ,2,5,-2,0,3,734.95401,734.95401,737.44802,0,30,30,30,1,108,2,4,peacock       ,seaturtle     ,html/resources/sequences_IDs/A/05_peacock.jpg,html/resources/sequences_IDs/A/02_seaturtle.jpg,5,2,2,1,2,1,4,1,0,21,,,,,,,,,,,,,,,,,,,,
,,,,,21,2020-07-01_11h40.54.185,retriever_ti,2020.1.3,Win32,60,Chrome,1536,864,,,,,,,,,,,,,,,,,2,,,,,,,,,,,,,,,,,,,,,,,,,,,738.064105,109,right,1.021735,giraffe     ,5,3,1,1,1,738.09885,738.09885,740.593475,0,31,31,31,1,109,4,5,seaturtle     ,giraffe     ,html/resources/sequences_IDs/A/02_seaturtle.jpg,html/resources/sequences_IDs/B/03_giraffe.jpg,2,3,2,1,1,1,1,2,0,21,,,,,,,,,,,,,,,,,,,,
,,,,,21,2020-07-01_11h40.54.185,retriever_ti,2020.1.3,Win32,60,Chrome,1536,864,,,,,,,,,,,,,,,,,2,,,,,,,,,,,,,,,,,,,,,,,,,,,741.692335,110,left,0.70243,giraffe     ,5,3,2,1,3,741.70999,741.70999,744.2037,0,32,32,32,1,110,5,3,giraffe     ,phone       ,html/resources/sequences_IDs/B/03_giraffe.jpg,html/resources/sequences_IDs/B/09_phone.jpg,3,9,1,1,4,2,2,7,0,21,,,,,,,,,,,,,,,,,,,,
,,,,,21,2020-07-01_11h40.54.185,retriever_ti,2020.1.3,Win32,60,Chrome,1536,864,,,,,,,,,,,,,,,,,2,,,,,,,,,,,,,,,,,,,,,,,,,,,744.821445,111,left,0.490205,giraffe     ,5,3,4,1,3,744.83897,744.83897,747.33192,0,33,33,33,1,111,5,1,giraffe     ,radio       ,html/resources/sequences_IDs/B/03_giraffe.jpg,html/resources/sequences_IDs/B/10_radio.jpg,3,10,1,1,4,2,2,8,0,21,,,,,,,,,,,,,,,,,,,,
,,,,,21,2020-07-01_11h40.54.185,retriever_ti,2020.1.3,Win32,60,Chrome,1536,864,,,,,,,,,,,,,,,,,2,,,,,,,,,,,,,,,,,,,,,,,,,,,747.94813,112,right,0.649885,peacock       ,2,5,-1,0,0,747.9829,747.9829,750.47696,0,34,34,34,1,112,3,2,phone       ,peacock       ,html/resources/sequences_IDs/B/09_phone.jpg,html/resources/sequences_IDs/A/05_peacock.jpg,9,5,4,2,2,1,7,4,0,21,,,,,,,,,,,,,,,,,,,,
,,,,,21,2020-07-01_11h40.54.185,retriever_ti,2020.1.3,Win32,60,Chrome,1536,864,,,,,,,,,,,,,,,,,2,,,,,,,,,,,,,,,,,,,,,,,,,,,751.5763,113,left,1.613715,peacock       ,2,5,-1,0,0,751.59378,751.59378,754.0883,0,35,35,35,1,113,2,3,peacock       ,phone       ,html/resources/sequences_IDs/A/05_peacock.jpg,html/resources/sequences_IDs/B/09_phone.jpg,5,9,2,1,4,2,4,7,0,21,,,,,,,,,,,,,,,,,,,,
,,,,,21,2020-07-01_11h40.54.185,retriever_ti,2020.1.3,Win32,60,Chrome,1536,864,,,,,,,,,,,,,,,,,2,,,,,,,,,,,,,,,,,,,,,,,,,,,755.1875,114,left,0.927955,phone       ,3,9,-4,0,3,755.204835,755.204835,757.69899,0,36,36,36,1,114,3,7,phone       ,sport_tshirt,html/resources/sequences_IDs/B/09_phone.jpg,html/resources/sequences_IDs/B/07_sport_tshirt.jpg,9,7,4,2,3,2,7,5,0,21,,,,,,,,,,,,,,,,,,,,
,,,,,21,2020-07-01_11h40.54.185,retriever_ti,2020.1.3,Win32,60,Chrome,1536,864,,,,,,,,,,,,,,,,,2,,,,,,,,,,,,,,,,,,,,,,,,,,,758.315635,115,left,0.48882,sport_tshirt,7,7,5,1,3,758.351555,758.351555,760.846385,0,37,37,37,1,115,7,2,sport_tshirt,peacock       ,html/resources/sequences_IDs/B/07_sport_tshirt.jpg,html/resources/sequences_IDs/A/05_peacock.jpg,7,5,3,2,2,1,5,4,0,21,,,,,,,,,,,,,,,,,,,,
,,,,,21,2020-07-01_11h40.54.185,retriever_ti,2020.1.3,Win32,60,Chrome,1536,864,,,,,,,,,,,,,,,,,2,,,,,,,,,,,,,,,,,,,,,,,,,,,761.46029,116,right,0.62861,sport_tshirt,7,7,-1,0,0,761.477985,761.477985,763.971975,0,38,38,38,1,116,8,7,clownfish     ,sport_tshirt,html/resources/sequences_IDs/A/04_clownfish.jpg,html/resources/sequences_IDs/B/07_sport_tshirt.jpg,4,7,2,1,3,2,3,5,0,21,,,,,,,,,,,,,,,,,,,,
,,,,,21,2020-07-01_11h40.54.185,retriever_ti,2020.1.3,Win32,60,Chrome,1536,864,,,,,,,,,,,,,,,,,2,,,,,,,,,,,,,,,,,,,,,,,,,,,765.07124,117,left,0.921045,hat           ,6,8,-1,0,0,765.0888,765.0888,767.58512,0,39,39,39,1,117,6,7,hat           ,sport_tshirt,html/resources/sequences_IDs/A/08_hat.jpg,html/resources/sequences_IDs/B/07_sport_tshirt.jpg,8,7,3,2,3,2,6,5,0,21,,,,,,,,,,,,,,,,,,,,
,,,,,21,2020-07-01_11h40.54.185,retriever_ti,2020.1.3,Win32,60,Chrome,1536,864,,,,,,,,,,,,,,,,,2,,,,,,,,,,,,,,,,,,,,,,,,,,,768.681545,118,left,1.117415,peacock       ,2,5,1,1,1,768.699765,768.699765,771.193745,0,40,40,40,1,118,2,1,peacock       ,radio       ,html/resources/sequences_IDs/A/05_peacock.jpg,html/resources/sequences_IDs/B/10_radio.jpg,5,10,2,1,4,2,4,8,0,21,,,,,,,,,,,,,,,,,,,,
,,,,,21,2020-07-01_11h40.54.185,retriever_ti,2020.1.3,Win32,60,Chrome,1536,864,,,,,,,,,,,,,,,,,2,,,,,,,,,,,,,,,,,,,,,,,,,,,772.293065,119,left,0.631095,clownfish     ,8,4,7,1,3,772.310595,772.310595,774.80451,0,41,41,41,1,119,8,1,clownfish     ,radio       ,html/resources/sequences_IDs/A/04_clownfish.jpg,html/resources/sequences_IDs/B/10_radio.jpg,4,10,2,1,4,2,3,8,0,21,,,,,,,,,,,,,,,,,,,,
,,,,,21,2020-07-01_11h40.54.185,retriever_ti,2020.1.3,Win32,60,Chrome,1536,864,,,,,,,,,,,,,,,,,2,,,,,,,,,,,,,,,,,,,,,,,,,,,775.42133,120,right,0.508245,peacock       ,2,5,-1,0,0,775.438885,775.438885,777.93285,0,42,42,42,1,120,3,2,phone       ,peacock       ,html/resources/sequences_IDs/B/09_phone.jpg,html/resources/sequences_IDs/A/05_peacock.jpg,9,5,4,2,2,1,7,4,0,21,,,,,,,,,,,,,,,,,,,,
,,,,,21,2020-07-01_11h40.54.185,retriever_ti,2020.1.3,Win32,60,Chrome,1536,864,,,,,,,,,,,,,,,,,2,,,,,,,,,,,,,,,,,,,,,,,,,,,779.03201,121,left,0.399035,phone       ,3,9,-5,0,3,779.049825,779.049825,781.54378,0,43,43,43,1,121,3,8,phone       ,clownfish     ,html/resources/sequences_IDs/B/09_phone.jpg,html/resources/sequences_IDs/A/04_clownfish.jpg,9,4,4,2,2,1,7,3,0,21,,,,,,,,,,,,,,,,,,,,
,,,,,21,2020-07-01_11h40.54.185,retriever_ti,2020.1.3,Win32,60,Chrome,1536,864,,,,,,,,,,,,,,,,,2,,,,,,,,,,,,,,,,,,,,,,,,,,,782.159705,122,left,1.010445,sport_tshirt,7,7,3,1,3,782.194725,782.194725,784.68845,0,44,44,44,1,122,7,4,sport_tshirt,seaturtle     ,html/resources/sequences_IDs/B/07_sport_tshirt.jpg,html/resources/sequences_IDs/A/02_seaturtle.jpg,7,2,3,2,2,1,5,1,0,21,,,,,,,,,,,,,,,,,,,,
,,,,,21,2020-07-01_11h40.54.185,retriever_ti,2020.1.3,Win32,60,Chrome,1536,864,,,,,,,,,,,,,,,,,2,,,,,,,,,,,,,,,,,,,,,,,,,,,785.305405,123,right,0.826305,phone       ,3,9,2,1,3,785.339795,785.339795,787.83371,0,45,45,45,1,123,1,3,radio       ,phone       ,html/resources/sequences_IDs/B/10_radio.jpg,html/resources/sequences_IDs/B/09_phone.jpg,10,9,4,2,4,2,8,7,0,21,,,,,,,,,,,,,,,,,,,,
,,,,,21,2020-07-01_11h40.54.185,retriever_ti,2020.1.3,Win32,60,Chrome,1536,864,,,,,,,,,,,,,,,,,2,,,,,,,,,,,,,,,,,,,,,,,,,,,788.44985,124,right,0.572275,giraffe     ,5,3,-2,0,3,788.48521,788.48521,790.97871,0,46,46,46,1,124,7,5,sport_tshirt,giraffe     ,html/resources/sequences_IDs/B/07_sport_tshirt.jpg,html/resources/sequences_IDs/B/03_giraffe.jpg,7,3,3,2,1,1,5,2,0,21,,,,,,,,,,,,,,,,,,,,
,,,,,21,2020-07-01_11h40.54.185,retriever_ti,2020.1.3,Win32,60,Chrome,1536,864,,,,,,,,,,,,,,,,,2,,,,,,,,,,,,,,,,,,,,,,,,,,,791.59643,125,right,0.88334,clownfish     ,8,4,4,1,3,791.616215,791.616215,794.106935,0,47,47,47,1,125,4,8,seaturtle     ,clownfish     ,html/resources/sequences_IDs/A/02_seaturtle.jpg,html/resources/sequences_IDs/A/04_clownfish.jpg,2,4,2,1,2,1,1,3,0,21,,,,,,,,,,,,,,,,,,,,
,,,,,21,2020-07-01_11h40.54.185,retriever_ti,2020.1.3,Win32,60,Chrome,1536,864,,,,,,,,,,,,,,,,,2,,,,,,,,,,,,,,,,,,,,,,,,,,,794.72315,126,left,0.72319,phone       ,3,9,-1,0,0,794.741195,794.741195,797.235275,0,48,48,48,1,126,3,4,phone       ,seaturtle     ,html/resources/sequences_IDs/B/09_phone.jpg,html/resources/sequences_IDs/A/02_seaturtle.jpg,9,2,4,2,2,1,7,1,0,21,,,,,,,,,,,,,,,,,,,,
,,,,,21,2020-07-01_11h40.54.185,retriever_ti,2020.1.3,Win32,60,Chrome,1536,864,,,,,,,,,,,,,,,,,2,,,,,,,,,,,,,,,,,,,,,,,,,,,798.334615,127,left,0.91264,peacock       ,2,5,1,1,0,798.3689,798.3689,800.862665,0,49,49,49,1,127,2,1,peacock       ,radio       ,html/resources/sequences_IDs/A/05_peacock.jpg,html/resources/sequences_IDs/B/10_radio.jpg,5,10,2,1,4,2,4,8,1,21,,,,,,,,,,,,,,,,,,,,
,,,,,21,2020-07-01_11h40.54.185,retriever_ti,2020.1.3,Win32,60,Chrome,1536,864,,,,,,,,,,,,,,,,,2,,,,,,,,,,,,,,,,,,,,,,,,,,,801.96178,128,left,1.01808,peacock       ,2,5,-3,0,3,801.98037,801.98037,804.473735,0,50,50,50,1,128,2,5,peacock       ,giraffe     ,html/resources/sequences_IDs/A/05_peacock.jpg,html/resources/sequences_IDs/B/03_giraffe.jpg,5,3,2,1,1,1,4,2,0,21,,,,,,,,,,,,,,,,,,,,
,,,,,21,2020-07-01_11h40.54.185,retriever_ti,2020.1.3,Win32,60,Chrome,1536,864,,,,,,,,,,,,,,,,,2,,,,,,,,,,,,,,,,,,,,,,,,,,,805.091105,129,right,1.031795,clownfish     ,8,4,1,1,1,805.108765,805.108765,807.60202,0,51,51,51,1,129,7,8,sport_tshirt,clownfish     ,html/resources/sequences_IDs/B/07_sport_tshirt.jpg,html/resources/sequences_IDs/A/04_clownfish.jpg,7,4,3,2,2,1,5,3,0,21,,,,,,,,,,,,,,,,,,,,
,,,,,21,2020-07-01_11h40.54.185,retriever_ti,2020.1.3,Win32,60,Chrome,1536,864,,,,,,,,,,,,,,,,,2,,,,,,,,,,,,,,,,,,,,,,,,,,,808.70159,130,right,0.826335,hat           ,6,8,1,1,0,808.73727,808.73727,811.22951,0,52,52,52,1,130,5,6,giraffe     ,hat           ,html/resources/sequences_IDs/B/03_giraffe.jpg,html/resources/sequences_IDs/A/08_hat.jpg,3,8,1,1,3,2,2,6,1,21,,,,,,,,,,,,,,,,,,,,
,,,,,21,2020-07-01_11h40.54.185,retriever_ti,2020.1.3,Win32,60,Chrome,1536,864,,,,,,,,,,,,,,,,,2,,,,,,,,,,,,,,,,,,,,,,,,,,,812.329835,131,left,0.94422,phone       ,3,9,2,1,3,812.36448,812.36448,814.858155,0,53,53,53,1,131,3,1,phone       ,radio       ,html/resources/sequences_IDs/B/09_phone.jpg,html/resources/sequences_IDs/B/10_radio.jpg,9,10,4,2,4,2,7,8,0,21,,,,,,,,,,,,,,,,,,,,
,,,,,21,2020-07-01_11h40.54.185,retriever_ti,2020.1.3,Win32,60,Chrome,1536,864,,,,,,,,,,,,,,,,,2,,,,,,,,,,,,,,,,,,,,,,,,,,,815.474135,132,right,0.65186,hat           ,6,8,-1,0,0,815.49162,815.49162,817.98562,0,54,54,54,1,132,7,6,sport_tshirt,hat           ,html/resources/sequences_IDs/B/07_sport_tshirt.jpg,html/resources/sequences_IDs/A/08_hat.jpg,7,8,3,2,3,2,5,6,0,21,,,,,,,,,,,,,,,,,,,,
,,,,,21,2020-07-01_11h40.54.185,retriever_ti,2020.1.3,Win32,60,Chrome,1536,864,,,,,,,,,,,,,,,,,2,,,,,,,,,,,,,,,,,,,,,,,,,,,819.08503,133,left,0.968255,seaturtle     ,4,2,2,1,3,819.10234,819.10234,821.59623,0,55,55,55,1,133,4,2,seaturtle     ,peacock       ,html/resources/sequences_IDs/A/02_seaturtle.jpg,html/resources/sequences_IDs/A/05_peacock.jpg,2,5,2,1,2,1,1,4,0,21,,,,,,,,,,,,,,,,,,,,
,,,,,21,2020-07-01_11h40.54.185,retriever_ti,2020.1.3,Win32,60,Chrome,1536,864,,,,,,,,,,,,,,,,,2,,,,,,,,,,,,,,,,,,,,,,,,,,,822.21248,134,left,0.50227,peacock       ,2,5,-1,0,0,822.24712,822.24712,824.74115,0,56,56,56,1,134,2,3,peacock       ,phone       ,html/resources/sequences_IDs/A/05_peacock.jpg,html/resources/sequences_IDs/B/09_phone.jpg,5,9,2,1,4,2,4,7,0,21,,,,,,,,,,,,,,,,,,,,
,,,,,21,2020-07-01_11h40.54.185,retriever_ti,2020.1.3,Win32,60,Chrome,1536,864,,,,,,,,,,,,,,,,,2,,,,,,,,,,,,,,,,,,,,,,,,,,,825.84044,135,right,0.56697,phone       ,3,9,-1,0,0,825.858185,825.858185,828.35198,0,57,57,57,1,135,4,3,seaturtle     ,phone       ,html/resources/sequences_IDs/A/02_seaturtle.jpg,html/resources/sequences_IDs/B/09_phone.jpg,2,9,2,1,4,2,1,7,0,21,,,,,,,,,,,,,,,,,,,,
,,,,,21,2020-07-01_11h40.54.185,retriever_ti,2020.1.3,Win32,60,Chrome,1536,864,,,,,,,,,,,,,,,,,2,,,,,,,,,,,,,,,,,,,,,,,,,,,829.45164,136,left,0.784605,giraffe     ,5,3,1,1,1,829.468925,829.468925,831.96358,0,58,58,58,1,136,5,4,giraffe     ,seaturtle     ,html/resources/sequences_IDs/B/03_giraffe.jpg,html/resources/sequences_IDs/A/02_seaturtle.jpg,3,2,1,1,2,1,2,1,0,21,,,,,,,,,,,,,,,,,,,,
,,,,,21,2020-07-01_11h40.54.185,retriever_ti,2020.1.3,Win32,60,Chrome,1536,864,,,,,,,,,,,,,,,,,2,,,,,,,,,,,,,,,,,,,,,,,,,,,833.062895,137,left,0.517075,giraffe     ,5,3,3,1,3,833.081045,833.081045,835.573565,0,59,59,59,1,137,5,2,giraffe     ,peacock       ,html/resources/sequences_IDs/B/03_giraffe.jpg,html/resources/sequences_IDs/A/05_peacock.jpg,3,5,1,1,2,1,2,4,0,21,,,,,,,,,,,,,,,,,,,,
,,,,,21,2020-07-01_11h40.54.185,retriever_ti,2020.1.3,Win32,60,Chrome,1536,864,,,,,,,,,,,,,,,,,2,,,,,,,,,,,,,,,,,,,,,,,,,,,836.189955,138,right,0.617185,hat           ,6,8,5,1,3,836.207945,836.207945,838.702385,0,60,60,60,1,138,1,6,radio       ,hat           ,html/resources/sequences_IDs/B/10_radio.jpg,html/resources/sequences_IDs/A/08_hat.jpg,10,8,4,2,3,2,8,6,0,21,,,,,,,,,,,,,,,,,,,,
,,,,,21,2020-07-01_11h40.54.185,retriever_ti,2020.1.3,Win32,60,Chrome,1536,864,,,,,,,,,,,,,,,,,2,,,,,,,,,,,,,,,,,,,,,,,,,,,839.31886,139,left,0.597865,clownfish     ,8,4,4,1,3,839.33644,839.33644,841.83048,0,61,61,61,1,139,8,4,clownfish     ,seaturtle     ,html/resources/sequences_IDs/A/04_clownfish.jpg,html/resources/sequences_IDs/A/02_seaturtle.jpg,4,2,2,1,2,1,3,1,0,21,,,,,,,,,,,,,,,,,,,,
,,,,,21,2020-07-01_11h40.54.185,retriever_ti,2020.1.3,Win32,60,Chrome,1536,864,,,,,,,,,,,,,,,,,2,,,,,,,,,,,,,,,,,,,,,,,,,,,842.447175,140,left,0.552065,giraffe     ,5,3,-1,0,0,842.48132,842.48132,844.97538,0,62,62,62,1,140,5,6,giraffe     ,hat           ,html/resources/sequences_IDs/B/03_giraffe.jpg,html/resources/sequences_IDs/A/08_hat.jpg,3,8,1,1,3,2,2,6,0,21,,,,,,,,,,,,,,,,,,,,
,,,,,21,2020-07-01_11h40.54.185,retriever_ti,2020.1.3,Win32,60,Chrome,1536,864,,,,,,,,,,,,,,,,,2,,,,,,,,,,,,,,,,,,,,,,,,,,,846.075275,141,right,0.520985,clownfish     ,8,4,1,1,1,846.093275,846.093275,848.58636,0,63,63,63,1,141,7,8,sport_tshirt,clownfish     ,html/resources/sequences_IDs/B/07_sport_tshirt.jpg,html/resources/sequences_IDs/A/04_clownfish.jpg,7,4,3,2,2,1,5,3,0,21,,,,,,,,,,,,,,,,,,,,
,,,,,21,2020-07-01_11h40.54.185,retriever_ti,2020.1.3,Win32,60,Chrome,1536,864,,,,,,,,,,,,,,,,,2,,,,,,,,,,,,,,,,,,,,,,,,,,,849.68604,142,right,0.63891,hat           ,6,8,1,1,1,849.71919,849.71919,852.21372,0,64,64,64,1,142,5,6,giraffe     ,hat           ,html/resources/sequences_IDs/B/03_giraffe.jpg,html/resources/sequences_IDs/A/08_hat.jpg,3,8,1,1,3,2,2,6,0,21,,,,,,,,,,,,,,,,,,,,
,,,,,21,2020-07-01_11h40.54.185,retriever_ti,2020.1.3,Win32,60,Chrome,1536,864,,,,,,,,,,,,,,,,,2,,,,,,,,,,,,,,,,,,,,,,,,,,,853.313115,143,right,0.887465,phone       ,3,9,-1,0,0,853.347105,853.347105,855.841945,0,65,65,65,1,143,4,3,seaturtle     ,phone       ,html/resources/sequences_IDs/A/02_seaturtle.jpg,html/resources/sequences_IDs/B/09_phone.jpg,2,9,2,1,4,2,1,7,0,21,,,,,,,,,,,,,,,,,,,,
,,,,,21,2020-07-01_11h40.54.185,retriever_ti,2020.1.3,Win32,60,Chrome,1536,864,,,,,,,,,,,,,,,,,2,,,,,,,,,,,,,,,,,,,,,,,,,,,856.941165,144,left,0.783315,peacock       ,2,5,-5,0,3,856.95892,856.95892,859.47105,0,66,66,66,1,144,2,7,peacock       ,sport_tshirt,html/resources/sequences_IDs/A/05_peacock.jpg,html/resources/sequences_IDs/B/07_sport_tshirt.jpg,5,7,2,1,3,2,4,5,0,21,,,,,,,,,,,,,,,,,,,,
,,,,,21,2020-07-01_11h40.54.185,retriever_ti,2020.1.3,Win32,60,Chrome,1536,864,,,,,,,,,,,,,,,,,2,,,,,,,,,,,,,,,,,,,,,,,,,,,860.08507,145,right,1.058165,sport_tshirt,7,7,6,1,3,860.103305,860.103305,862.597095,0,67,67,67,1,145,1,7,radio       ,sport_tshirt,html/resources/sequences_IDs/B/10_radio.jpg,html/resources/sequences_IDs/B/07_sport_tshirt.jpg,10,7,4,2,3,2,8,5,0,21,,,,,,,,,,,,,,,,,,,,
,,,,,21,2020-07-01_11h40.54.185,retriever_ti,2020.1.3,Win32,60,Chrome,1536,864,,,,,,,,,,,,,,,,,2,,,,,,,,,,,,,,,,,,,,,,,,,,,863.214725,146,right,1.58712,seaturtle     ,4,2,3,1,3,863.232305,863.232305,865.725375,0,68,68,68,1,146,1,4,radio       ,seaturtle     ,html/resources/sequences_IDs/B/10_radio.jpg,html/resources/sequences_IDs/A/02_seaturtle.jpg,10,2,4,2,2,1,8,1,0,21,,,,,,,,,,,,,,,,,,,,
,,,,,21,2020-07-01_11h40.54.185,retriever_ti,2020.1.3,Win32,60,Chrome,1536,864,,,,,,,,,,,,,,,,,2,,,,,,,,,,,,,,,,,,,,,,,,,,,866.343015,147,left,0.86475,peacock       ,2,5,-6,0,3,866.376335,866.376335,868.87038,0,69,69,69,1,147,2,8,peacock       ,clownfish     ,html/resources/sequences_IDs/A/05_peacock.jpg,html/resources/sequences_IDs/A/04_clownfish.jpg,5,4,2,1,2,1,4,3,0,21,,,,,,,,,,,,,,,,,,,,
,,,,,21,2020-07-01_11h40.54.185,retriever_ti,2020.1.3,Win32,60,Chrome,1536,864,,,,,,,,,,,,,,,,,2,,,,,,,,,,,,,,,,,,,,,,,,,,,869.48826,148,left,0.75335,seaturtle     ,4,2,-3,0,3,869.50659,869.50659,871.998605,0,70,70,70,1,148,4,7,seaturtle     ,sport_tshirt,html/resources/sequences_IDs/A/02_seaturtle.jpg,html/resources/sequences_IDs/B/07_sport_tshirt.jpg,2,7,2,1,3,2,1,5,0,21,,,,,,,,,,,,,,,,,,,,
,,,,,21,2020-07-01_11h40.54.185,retriever_ti,2020.1.3,Win32,60,Chrome,1536,864,,,,,,,,,,,,,,,,,2,,,,,,,,,,,,,,,,,,,,,,,,,,,872.614765,149,left,1.17666,peacock       ,2,5,-1,0,1,872.633,872.633,875.127605,0,71,71,71,1,149,2,3,peacock       ,phone       ,html/resources/sequences_IDs/A/05_peacock.jpg,html/resources/sequences_IDs/B/09_phone.jpg,5,9,2,1,4,2,4,7,1,21,,,,,,,,,,,,,,,,,,,,
,,,,,21,2020-07-01_11h40.54.185,retriever_ti,2020.1.3,Win32,60,Chrome,1536,864,,,,,,,,,,,,,,,,,2,,,,,,,,,,,,,,,,,,,,,,,,,,,876.2274,150,left,0.94317,giraffe     ,5,3,-3,0,3,876.26168,876.26168,878.75463,0,72,72,72,1,150,5,8,giraffe     ,clownfish     ,html/resources/sequences_IDs/B/03_giraffe.jpg,html/resources/sequences_IDs/A/04_clownfish.jpg,3,4,1,1,2,1,2,3,0,21,,,,,,,,,,,,,,,,,,,,
,,,,,21,2020-07-01_11h40.54.185,retriever_ti,2020.1.3,Win32,60,Chrome,1536,864,,,,,,,,,,,,,,,,,2,,,,,,,,,,,,,,,,,,,,,,,,,,,879.37076,151,right,1.10234,giraffe     ,5,3,2,1,3,879.40558,879.40558,881.89951,0,73,73,73,1,151,3,5,phone       ,giraffe     ,html/resources/sequences_IDs/B/09_phone.jpg,html/resources/sequences_IDs/B/03_giraffe.jpg,9,3,4,2,1,1,7,2,0,21,,,,,,,,,,,,,,,,,,,,
,,,,,21,2020-07-01_11h40.54.185,retriever_ti,2020.1.3,Win32,60,Chrome,1536,864,,,,,,,,,,,,,,,,,2,,,,,,,,,,,,,,,,,,,,,,,,,,,882.51646,152,left,0.76068,hat           ,6,8,3,1,3,882.56731,882.56731,885.061045,0,74,74,74,1,152,6,3,hat           ,phone       ,html/resources/sequences_IDs/A/08_hat.jpg,html/resources/sequences_IDs/B/09_phone.jpg,8,9,3,2,4,2,6,7,0,21,,,,,,,,,,,,,,,,,,,,
,,,,,21,2020-07-01_11h40.54.185,retriever_ti,2020.1.3,Win32,60,Chrome,1536,864,,,,,,,,,,,,,,,,,2,,,,,,,,,,,,,,,,,,,,,,,,,,,885.67783,153,left,0.67657,hat           ,6,8,-2,0,3,885.71195,885.71195,888.20648,0,75,75,75,1,153,6,8,hat           ,clownfish     ,html/resources/sequences_IDs/A/08_hat.jpg,html/resources/sequences_IDs/A/04_clownfish.jpg,8,4,3,2,2,1,6,3,0,21,,,,,,,,,,,,,,,,,,,,
,,,,,21,2020-07-01_11h40.54.185,retriever_ti,2020.1.3,Win32,60,Chrome,1536,864,,,,,,,,,,,,,,,,,2,,,,,,,,,,,,,,,,,,,,,,,,,,,888.82235,154,right,1.19579,hat           ,6,8,4,1,3,888.85699,888.85699,891.351265,0,76,76,76,1,154,2,6,peacock       ,hat           ,html/resources/sequences_IDs/A/05_peacock.jpg,html/resources/sequences_IDs/A/08_hat.jpg,5,8,2,1,3,2,4,6,0,21,,,,,,,,,,,,,,,,,,,,
,,,,,21,2020-07-01_11h40.54.185,retriever_ti,2020.1.3,Win32,60,Chrome,1536,864,,,,,,,,,,,,,,,,,,,,,,,,,,,,,,,,,,,,,0,4.3723,,,,,,,,,,,,,,,,,,,,,,,,,,,,,,,,,,,,,,,,,1,0,1,0,1,,,,,,,,,,,,,,,
,,,,,21,2020-07-01_11h40.54.185,retriever_ti,2020.1.3,Win32,60,Chrome,1536,864,,,,,,,,,,,,,,,,,3,,,,,,,,,,,,,,,,,,,,,,,,,,,1009.39945,155,right,0.811495,giraffe     ,5,3,-2,0,3,1009.43029,1009.43029,1011.924285,0,0,0,0,1,155,7,5,sport_tshirt,giraffe     ,html/resources/sequences_IDs/B/07_sport_tshirt.jpg,html/resources/sequences_IDs/B/03_giraffe.jpg,7,3,3,2,1,1,5,2,0,21,,,,,,,,,,,,,,,,,,,,
,,,,,21,2020-07-01_11h40.54.185,retriever_ti,2020.1.3,Win32,60,Chrome,1536,864,,,,,,,,,,,,,,,,,3,,,,,,,,,,,,,,,,,,,,,,,,,,,1012.54055,156,left,0.472625,giraffe     ,5,3,1,1,1,1012.5586,1012.5586,1015.05261,0,1,1,1,1,156,5,4,giraffe     ,seaturtle     ,html/resources/sequences_IDs/B/03_giraffe.jpg,html/resources/sequences_IDs/A/02_seaturtle.jpg,3,2,1,1,2,1,2,1,0,21,,,,,,,,,,,,,,,,,,,,
,,,,,21,2020-07-01_11h40.54.185,retriever_ti,2020.1.3,Win32,60,Chrome,1536,864,,,,,,,,,,,,,,,,,3,,,,,,,,,,,,,,,,,,,,,,,,,,,1016.151915,157,left,0.572565,hat           ,6,8,2,1,3,1016.18644,1016.18644,1018.68014,0,2,2,2,1,157,6,4,hat           ,seaturtle     ,html/resources/sequences_IDs/A/08_hat.jpg,html/resources/sequences_IDs/A/02_seaturtle.jpg,8,2,3,2,2,1,6,1,0,21,,,,,,,,,,,,,,,,,,,,
,,,,,21,2020-07-01_11h40.54.185,retriever_ti,2020.1.3,Win32,60,Chrome,1536,864,,,,,,,,,,,,,,,,,3,,,,,,,,,,,,,,,,,,,,,,,,,,,1019.296745,158,left,0.860475,giraffe     ,5,3,-3,0,3,1019.31474,1019.31474,1021.80841,0,3,3,3,1,158,5,8,giraffe     ,clownfish     ,html/resources/sequences_IDs/B/03_giraffe.jpg,html/resources/sequences_IDs/A/04_clownfish.jpg,3,4,1,1,2,1,2,3,0,21,,,,,,,,,,,,,,,,,,,,
,,,,,21,2020-07-01_11h40.54.185,retriever_ti,2020.1.3,Win32,60,Chrome,1536,864,,,,,,,,,,,,,,,,,3,,,,,,,,,,,,,,,,,,,,,,,,,,,1022.4246,159,left,1.22657,phone       ,3,9,-5,0,3,1022.442895,1022.442895,1024.936745,0,4,4,4,1,159,3,8,phone       ,clownfish     ,html/resources/sequences_IDs/B/09_phone.jpg,html/resources/sequences_IDs/A/04_clownfish.jpg,9,4,4,2,2,1,7,3,0,21,,,,,,,,,,,,,,,,,,,,
,,,,,21,2020-07-01_11h40.54.185,retriever_ti,2020.1.3,Win32,60,Chrome,1536,864,,,,,,,,,,,,,,,,,3,,,,,,,,,,,,,,,,,,,,,,,,,,,1025.553345,160,right,0.63437,giraffe     ,5,3,4,1,3,1025.58861,1025.58861,1028.08172,0,5,5,5,1,160,1,5,radio       ,giraffe     ,html/resources/sequences_IDs/B/10_radio.jpg,html/resources/sequences_IDs/B/03_giraffe.jpg,10,3,4,2,1,1,8,2,0,21,,,,,,,,,,,,,,,,,,,,
,,,,,21,2020-07-01_11h40.54.185,retriever_ti,2020.1.3,Win32,60,Chrome,1536,864,,,,,,,,,,,,,,,,,3,,,,,,,,,,,,,,,,,,,,,,,,,,,1028.697785,161,left,0.63047,phone       ,3,9,-1,0,0,1028.715715,1028.715715,1031.209795,0,6,6,6,1,161,3,4,phone       ,seaturtle     ,html/resources/sequences_IDs/B/09_phone.jpg,html/resources/sequences_IDs/A/02_seaturtle.jpg,9,2,4,2,2,1,7,1,0,21,,,,,,,,,,,,,,,,,,,,
,,,,,21,2020-07-01_11h40.54.185,retriever_ti,2020.1.3,Win32,60,Chrome,1536,864,,,,,,,,,,,,,,,,,3,,,,,,,,,,,,,,,,,,,,,,,,,,,1032.31018,162,left,2.34622,peacock       ,2,5,1,1,1,1032.328015,1032.328015,1034.82078,0,7,7,7,1,162,2,1,peacock       ,radio       ,html/resources/sequences_IDs/A/05_peacock.jpg,html/resources/sequences_IDs/B/10_radio.jpg,5,10,2,1,4,2,4,8,0,21,,,,,,,,,,,,,,,,,,,,
,,,,,21,2020-07-01_11h40.54.185,retriever_ti,2020.1.3,Win32,60,Chrome,1536,864,,,,,,,,,,,,,,,,,3,,,,,,,,,,,,,,,,,,,,,,,,,,,1035.920485,163,left,1.134405,phone       ,3,9,1,1,1,1035.93808,1035.93808,1038.43171,0,8,8,8,1,163,3,2,phone       ,peacock       ,html/resources/sequences_IDs/B/09_phone.jpg,html/resources/sequences_IDs/A/05_peacock.jpg,9,5,4,2,2,1,7,4,0,21,,,,,,,,,,,,,,,,,,,,
,,,,,21,2020-07-01_11h40.54.185,retriever_ti,2020.1.3,Win32,60,Chrome,1536,864,,,,,,,,,,,,,,,,,3,,,,,,,,,,,,,,,,,,,,,,,,,,,1039.53173,164,left,1.46254,clownfish     ,8,4,1,1,1,1039.561145,1039.561145,1042.05932,0,9,9,9,1,164,8,7,clownfish     ,sport_tshirt,html/resources/sequences_IDs/A/04_clownfish.jpg,html/resources/sequences_IDs/B/07_sport_tshirt.jpg,4,7,2,1,3,2,3,5,0,21,,,,,,,,,,,,,,,,,,,,
,,,,,21,2020-07-01_11h40.54.185,retriever_ti,2020.1.3,Win32,60,Chrome,1536,864,,,,,,,,,,,,,,,,,3,,,,,,,,,,,,,,,,,,,,,,,,,,,1043.158425,165,right,0.780755,clownfish     ,8,4,1,1,1,1043.19292,1043.19292,1045.686765,0,10,10,10,1,165,7,8,sport_tshirt,clownfish     ,html/resources/sequences_IDs/B/07_sport_tshirt.jpg,html/resources/sequences_IDs/A/04_clownfish.jpg,7,4,3,2,2,1,5,3,0,21,,,,,,,,,,,,,,,,,,,,
,,,,,21,2020-07-01_11h40.54.185,retriever_ti,2020.1.3,Win32,60,Chrome,1536,864,,,,,,,,,,,,,,,,,3,,,,,,,,,,,,,,,,,,,,,,,,,,,1046.78654,166,left,0.812105,clownfish     ,8,4,1,1,0,1046.80383,1046.80383,1049.29951,0,11,11,11,1,166,8,7,clownfish     ,sport_tshirt,html/resources/sequences_IDs/A/04_clownfish.jpg,html/resources/sequences_IDs/B/07_sport_tshirt.jpg,4,7,2,1,3,2,3,5,1,21,,,,,,,,,,,,,,,,,,,,
,,,,,21,2020-07-01_11h40.54.185,retriever_ti,2020.1.3,Win32,60,Chrome,1536,864,,,,,,,,,,,,,,,,,3,,,,,,,,,,,,,,,,,,,,,,,,,,,1050.39707,167,left,0.75068,peacock       ,2,5,1,1,0,1050.414865,1050.414865,1052.90853,0,12,12,12,1,167,2,1,peacock       ,radio       ,html/resources/sequences_IDs/A/05_peacock.jpg,html/resources/sequences_IDs/B/10_radio.jpg,5,10,2,1,4,2,4,8,1,21,,,,,,,,,,,,,,,,,,,,
,,,,,21,2020-07-01_11h40.54.185,retriever_ti,2020.1.3,Win32,60,Chrome,1536,864,,,,,,,,,,,,,,,,,3,,,,,,,,,,,,,,,,,,,,,,,,,,,1054.008305,168,right,1.58433,seaturtle     ,4,2,-3,0,3,1054.025255,1054.025255,1056.519415,0,13,13,13,1,168,7,4,sport_tshirt,seaturtle     ,html/resources/sequences_IDs/B/07_sport_tshirt.jpg,html/resources/sequences_IDs/A/02_seaturtle.jpg,7,2,3,2,2,1,5,1,0,21,,,,,,,,,,,,,,,,,,,,
,,,,,21,2020-07-01_11h40.54.185,retriever_ti,2020.1.3,Win32,60,Chrome,1536,864,,,,,,,,,,,,,,,,,3,,,,,,,,,,,,,,,,,,,,,,,,,,,1057.136225,169,right,0.907605,hat           ,6,8,1,1,1,1057.17108,1057.17108,1059.664395,0,14,14,14,1,169,5,6,giraffe     ,hat           ,html/resources/sequences_IDs/B/03_giraffe.jpg,html/resources/sequences_IDs/A/08_hat.jpg,3,8,1,1,3,2,2,6,0,21,,,,,,,,,,,,,,,,,,,,
,,,,,21,2020-07-01_11h40.54.185,retriever_ti,2020.1.3,Win32,60,Chrome,1536,864,,,,,,,,,,,,,,,,,3,,,,,,,,,,,,,,,,,,,,,,,,,,,1060.76311,170,right,1.695905,seaturtle     ,4,2,3,1,3,1060.79816,1060.79816,1063.29247,0,15,15,15,1,170,1,4,radio       ,seaturtle     ,html/resources/sequences_IDs/B/10_radio.jpg,html/resources/sequences_IDs/A/02_seaturtle.jpg,10,2,4,2,2,1,8,1,0,21,,,,,,,,,,,,,,,,,,,,
,,,,,21,2020-07-01_11h40.54.185,retriever_ti,2020.1.3,Win32,60,Chrome,1536,864,,,,,,,,,,,,,,,,,3,,,,,,,,,,,,,,,,,,,,,,,,,,,1063.908825,171,left,0.58722,hat           ,6,8,-1,0,0,1063.94324,1063.94324,1066.437575,0,16,16,16,1,171,6,7,hat           ,sport_tshirt,html/resources/sequences_IDs/A/08_hat.jpg,html/resources/sequences_IDs/B/07_sport_tshirt.jpg,8,7,3,2,3,2,6,5,0,21,,,,,,,,,,,,,,,,,,,,
,,,,,21,2020-07-01_11h40.54.185,retriever_ti,2020.1.3,Win32,60,Chrome,1536,864,,,,,,,,,,,,,,,,,3,,,,,,,,,,,,,,,,,,,,,,,,,,,1067.536665,172,left,0.69424,phone       ,3,9,-4,0,3,1067.57074,1067.57074,1070.06453,0,17,17,17,1,172,3,7,phone       ,sport_tshirt,html/resources/sequences_IDs/B/09_phone.jpg,html/resources/sequences_IDs/B/07_sport_tshirt.jpg,9,7,4,2,3,2,7,5,0,21,,,,,,,,,,,,,,,,,,,,
,,,,,21,2020-07-01_11h40.54.185,retriever_ti,2020.1.3,Win32,60,Chrome,1536,864,,,,,,,,,,,,,,,,,3,,,,,,,,,,,,,,,,,,,,,,,,,,,1070.68059,173,right,0.49948,hat           ,6,8,2,1,3,1070.715365,1070.715365,1073.209195,0,18,18,18,1,173,4,6,seaturtle     ,hat           ,html/resources/sequences_IDs/A/02_seaturtle.jpg,html/resources/sequences_IDs/A/08_hat.jpg,2,8,2,1,3,2,1,6,0,21,,,,,,,,,,,,,,,,,,,,
,,,,,21,2020-07-01_11h40.54.185,retriever_ti,2020.1.3,Win32,60,Chrome,1536,864,,,,,,,,,,,,,,,,,3,,,,,,,,,,,,,,,,,,,,,,,,,,,1073.826035,174,right,0.598665,hat           ,6,8,-1,0,1,1073.843775,1073.843775,1076.33821,0,19,19,19,1,174,7,6,sport_tshirt,hat           ,html/resources/sequences_IDs/B/07_sport_tshirt.jpg,html/resources/sequences_IDs/A/08_hat.jpg,7,8,3,2,3,2,5,6,1,21,,,,,,,,,,,,,,,,,,,,
,,,,,21,2020-07-01_11h40.54.185,retriever_ti,2020.1.3,Win32,60,Chrome,1536,864,,,,,,,,,,,,,,,,,3,,,,,,,,,,,,,,,,,,,,,,,,,,,1077.436955,175,right,0.3736,hat           ,6,8,-1,0,0,1077.454655,1077.454655,1079.948575,0,20,20,20,1,175,7,6,sport_tshirt,hat           ,html/resources/sequences_IDs/B/07_sport_tshirt.jpg,html/resources/sequences_IDs/A/08_hat.jpg,7,8,3,2,3,2,5,6,0,21,,,,,,,,,,,,,,,,,,,,
,,,,,21,2020-07-01_11h40.54.185,retriever_ti,2020.1.3,Win32,60,Chrome,1536,864,,,,,,,,,,,,,,,,,3,,,,,,,,,,,,,,,,,,,,,,,,,,,1081.04729,176,left,0.667205,giraffe     ,5,3,1,1,1,1081.08208,1081.08208,1083.576015,0,21,21,21,1,176,5,4,giraffe     ,seaturtle     ,html/resources/sequences_IDs/B/03_giraffe.jpg,html/resources/sequences_IDs/A/02_seaturtle.jpg,3,2,1,1,2,1,2,1,0,21,,,,,,,,,,,,,,,,,,,,
,,,,,21,2020-07-01_11h40.54.185,retriever_ti,2020.1.3,Win32,60,Chrome,1536,864,,,,,,,,,,,,,,,,,3,,,,,,,,,,,,,,,,,,,,,,,,,,,1084.675345,177,right,0.61469,hat           ,6,8,-1,0,0,1084.709435,1084.709435,1087.20356,0,22,22,22,1,177,7,6,sport_tshirt,hat           ,html/resources/sequences_IDs/B/07_sport_tshirt.jpg,html/resources/sequences_IDs/A/08_hat.jpg,7,8,3,2,3,2,5,6,0,21,,,,,,,,,,,,,,,,,,,,
,,,,,21,2020-07-01_11h40.54.185,retriever_ti,2020.1.3,Win32,60,Chrome,1536,864,,,,,,,,,,,,,,,,,3,,,,,,,,,,,,,,,,,,,,,,,,,,,1088.3028,178,left,0.92749,hat           ,6,8,3,1,3,1088.35127,1088.35127,1090.847565,0,23,23,23,1,178,6,3,hat           ,phone       ,html/resources/sequences_IDs/A/08_hat.jpg,html/resources/sequences_IDs/B/09_phone.jpg,8,9,3,2,4,2,6,7,0,21,,,,,,,,,,,,,,,,,,,,
,,,,,21,2020-07-01_11h40.54.185,retriever_ti,2020.1.3,Win32,60,Chrome,1536,864,,,,,,,,,,,,,,,,,3,,,,,,,,,,,,,,,,,,,,,,,,,,,1091.46438,179,left,1.208145,peacock       ,2,5,-1,0,1,1091.482085,1091.482085,1093.97604,0,24,24,24,1,179,2,3,peacock       ,phone       ,html/resources/sequences_IDs/A/05_peacock.jpg,html/resources/sequences_IDs/B/09_phone.jpg,5,9,2,1,4,2,4,7,1,21,,,,,,,,,,,,,,,,,,,,
,,,,,21,2020-07-01_11h40.54.185,retriever_ti,2020.1.3,Win32,60,Chrome,1536,864,,,,,,,,,,,,,,,,,3,,,,,,,,,,,,,,,,,,,,,,,,,,,1095.07492,180,left,0.76589,hat           ,6,8,1,1,1,1095.09293,1095.09293,1097.58692,0,25,25,25,1,180,6,5,hat           ,giraffe     ,html/resources/sequences_IDs/A/08_hat.jpg,html/resources/sequences_IDs/B/03_giraffe.jpg,8,3,3,2,1,1,6,2,0,21,,,,,,,,,,,,,,,,,,,,
,,,,,21,2020-07-01_11h40.54.185,retriever_ti,2020.1.3,Win32,60,Chrome,1536,864,,,,,,,,,,,,,,,,,3,,,,,,,,,,,,,,,,,,,,,,,,,,,1098.68641,181,left,0.93874,seaturtle     ,4,2,2,1,3,1098.70376,1098.70376,1101.197855,0,26,26,26,1,181,4,2,seaturtle     ,peacock       ,html/resources/sequences_IDs/A/02_seaturtle.jpg,html/resources/sequences_IDs/A/05_peacock.jpg,2,5,2,1,2,1,1,4,0,21,,,,,,,,,,,,,,,,,,,,
,,,,,21,2020-07-01_11h40.54.185,retriever_ti,2020.1.3,Win32,60,Chrome,1536,864,,,,,,,,,,,,,,,,,3,,,,,,,,,,,,,,,,,,,,,,,,,,,1101.815585,182,right,0.498345,peacock       ,2,5,-6,0,3,1101.832255,1101.832255,1104.3261,0,27,27,27,1,182,8,2,clownfish     ,peacock       ,html/resources/sequences_IDs/A/04_clownfish.jpg,html/resources/sequences_IDs/A/05_peacock.jpg,4,5,2,1,2,1,3,4,0,21,,,,,,,,,,,,,,,,,,,,
,,,,,21,2020-07-01_11h40.54.185,retriever_ti,2020.1.3,Win32,60,Chrome,1536,864,,,,,,,,,,,,,,,,,3,,,,,,,,,,,,,,,,,,,,,,,,,,,1104.94248,183,right,0.696095,peacock       ,2,5,1,1,1,1104.97732,1104.97732,1107.47101,0,28,28,28,1,183,1,2,radio       ,peacock       ,html/resources/sequences_IDs/B/10_radio.jpg,html/resources/sequences_IDs/A/05_peacock.jpg,10,5,4,2,2,1,8,4,0,21,,,,,,,,,,,,,,,,,,,,
,,,,,21,2020-07-01_11h40.54.185,retriever_ti,2020.1.3,Win32,60,Chrome,1536,864,,,,,,,,,,,,,,,,,3,,,,,,,,,,,,,,,,,,,,,,,,,,,1108.571145,184,right,0.71626,giraffe     ,5,3,1,1,1,1108.60468,1108.60468,1111.098985,0,29,29,29,1,184,4,5,seaturtle     ,giraffe     ,html/resources/sequences_IDs/A/02_seaturtle.jpg,html/resources/sequences_IDs/B/03_giraffe.jpg,2,3,2,1,1,1,1,2,0,21,,,,,,,,,,,,,,,,,,,,
,,,,,21,2020-07-01_11h40.54.185,retriever_ti,2020.1.3,Win32,60,Chrome,1536,864,,,,,,,,,,,,,,,,,3,,,,,,,,,,,,,,,,,,,,,,,,,,,1112.19774,185,left,1.00285,clownfish     ,8,4,7,1,3,1112.215535,1112.215535,1114.7094,0,30,30,30,1,185,8,1,clownfish     ,radio       ,html/resources/sequences_IDs/A/04_clownfish.jpg,html/resources/sequences_IDs/B/10_radio.jpg,4,10,2,1,4,2,3,8,0,21,,,,,,,,,,,,,,,,,,,,
,,,,,21,2020-07-01_11h40.54.185,retriever_ti,2020.1.3,Win32,60,Chrome,1536,864,,,,,,,,,,,,,,,,,3,,,,,,,,,,,,,,,,,,,,,,,,,,,1115.32623,186,left,0.889405,peacock       ,2,5,-6,0,3,1115.34529,1115.34529,1117.837735,0,31,31,31,1,186,2,8,peacock       ,clownfish     ,html/resources/sequences_IDs/A/05_peacock.jpg,html/resources/sequences_IDs/A/04_clownfish.jpg,5,4,2,1,2,1,4,3,0,21,,,,,,,,,,,,,,,,,,,,
,,,,,21,2020-07-01_11h40.54.185,retriever_ti,2020.1.3,Win32,60,Chrome,1536,864,,,,,,,,,,,,,,,,,3,,,,,,,,,,,,,,,,,,,,,,,,,,,1118.45394,187,left,0.59496,hat           ,6,8,-2,0,3,1118.48894,1118.48894,1120.98283,0,32,32,32,1,187,6,8,hat           ,clownfish     ,html/resources/sequences_IDs/A/08_hat.jpg,html/resources/sequences_IDs/A/04_clownfish.jpg,8,4,3,2,2,1,6,3,0,21,,,,,,,,,,,,,,,,,,,,
,,,,,21,2020-07-01_11h40.54.185,retriever_ti,2020.1.3,Win32,60,Chrome,1536,864,,,,,,,,,,,,,,,,,3,,,,,,,,,,,,,,,,,,,,,,,,,,,1121.599805,188,left,0.636245,phone       ,3,9,1,1,1,1121.633815,1121.633815,1124.127585,0,33,33,33,1,188,3,2,phone       ,peacock       ,html/resources/sequences_IDs/B/09_phone.jpg,html/resources/sequences_IDs/A/05_peacock.jpg,9,5,4,2,2,1,7,4,0,21,,,,,,,,,,,,,,,,,,,,
,,,,,21,2020-07-01_11h40.54.185,retriever_ti,2020.1.3,Win32,60,Chrome,1536,864,,,,,,,,,,,,,,,,,3,,,,,,,,,,,,,,,,,,,,,,,,,,,1125.226455,189,right,0.696175,giraffe     ,5,3,1,1,1,1125.26124,1125.26124,1127.75482,0,34,34,34,1,189,4,5,seaturtle     ,giraffe     ,html/resources/sequences_IDs/A/02_seaturtle.jpg,html/resources/sequences_IDs/B/03_giraffe.jpg,2,3,2,1,1,1,1,2,0,21,,,,,,,,,,,,,,,,,,,,
,,,,,21,2020-07-01_11h40.54.185,retriever_ti,2020.1.3,Win32,60,Chrome,1536,864,,,,,,,,,,,,,,,,,3,,,,,,,,,,,,,,,,,,,,,,,,,,,1128.853915,190,left,0.410655,giraffe     ,5,3,-2,0,3,1128.87224,1128.87224,1131.36587,0,35,35,35,1,190,5,7,giraffe     ,sport_tshirt,html/resources/sequences_IDs/B/03_giraffe.jpg,html/resources/sequences_IDs/B/07_sport_tshirt.jpg,3,7,1,1,3,2,2,5,0,21,,,,,,,,,,,,,,,,,,,,
,,,,,21,2020-07-01_11h40.54.185,retriever_ti,2020.1.3,Win32,60,Chrome,1536,864,,,,,,,,,,,,,,,,,3,,,,,,,,,,,,,,,,,,,,,,,,,,,1131.982965,191,right,1.172605,sport_tshirt,7,7,6,1,3,1132.017115,1132.017115,1134.51109,0,36,36,36,1,191,1,7,radio       ,sport_tshirt,html/resources/sequences_IDs/B/10_radio.jpg,html/resources/sequences_IDs/B/07_sport_tshirt.jpg,10,7,4,2,3,2,8,5,0,21,,,,,,,,,,,,,,,,,,,,
,,,,,21,2020-07-01_11h40.54.185,retriever_ti,2020.1.3,Win32,60,Chrome,1536,864,,,,,,,,,,,,,,,,,3,,,,,,,,,,,,,,,,,,,,,,,,,,,1135.12739,192,left,0.485085,sport_tshirt,7,7,6,1,3,1135.1622,1135.1622,1137.655965,0,37,37,37,1,192,7,1,sport_tshirt,radio       ,html/resources/sequences_IDs/B/07_sport_tshirt.jpg,html/resources/sequences_IDs/B/10_radio.jpg,7,10,3,2,4,2,5,8,0,21,,,,,,,,,,,,,,,,,,,,
,,,,,21,2020-07-01_11h40.54.185,retriever_ti,2020.1.3,Win32,60,Chrome,1536,864,,,,,,,,,,,,,,,,,3,,,,,,,,,,,,,,,,,,,,,,,,,,,1138.27279,193,right,0.58776,phone       ,3,9,-1,0,1,1138.290395,1138.290395,1140.78518,0,38,38,38,1,193,4,3,seaturtle     ,phone       ,html/resources/sequences_IDs/A/02_seaturtle.jpg,html/resources/sequences_IDs/B/09_phone.jpg,2,9,2,1,4,2,1,7,1,21,,,,,,,,,,,,,,,,,,,,
,,,,,21,2020-07-01_11h40.54.185,retriever_ti,2020.1.3,Win32,60,Chrome,1536,864,,,,,,,,,,,,,,,,,3,,,,,,,,,,,,,,,,,,,,,,,,,,,1141.88358,194,NaN,NaN,No_response,NaN,NaN,NaN,2,2,1141.901215,1141.901215,1144.395295,0,39,39,39,1,194,4,7,seaturtle     ,sport_tshirt,html/resources/sequences_IDs/A/02_seaturtle.jpg,html/resources/sequences_IDs/B/07_sport_tshirt.jpg,2,7,2,1,3,2,1,5,0,21,,,,,,,,,,,,,,,,,,,,
,,,,,21,2020-07-01_11h40.54.185,retriever_ti,2020.1.3,Win32,60,Chrome,1536,864,,,,,,,,,,,,,,,,,3,,,,,,,,,,,,,,,,,,,,,,,,,,,1145.49443,195,right,0.484615,hat           ,6,8,5,1,3,1145.528935,1145.528935,1148.02348,0,40,40,40,1,195,1,6,radio       ,hat           ,html/resources/sequences_IDs/B/10_radio.jpg,html/resources/sequences_IDs/A/08_hat.jpg,10,8,4,2,3,2,8,6,0,21,,,,,,,,,,,,,,,,,,,,
,,,,,21,2020-07-01_11h40.54.185,retriever_ti,2020.1.3,Win32,60,Chrome,1536,864,,,,,,,,,,,,,,,,,3,,,,,,,,,,,,,,,,,,,,,,,,,,,1148.63908,196,right,0.857,clownfish     ,8,4,7,1,3,1148.674065,1148.674065,1151.16824,0,41,41,41,1,196,1,8,radio       ,clownfish     ,html/resources/sequences_IDs/B/10_radio.jpg,html/resources/sequences_IDs/A/04_clownfish.jpg,10,4,4,2,2,1,8,3,0,21,,,,,,,,,,,,,,,,,,,,
,,,,,21,2020-07-01_11h40.54.185,retriever_ti,2020.1.3,Win32,60,Chrome,1536,864,,,,,,,,,,,,,,,,,3,,,,,,,,,,,,,,,,,,,,,,,,,,,1151.78553,197,right,0.99414,seaturtle     ,4,2,-4,0,3,1151.82005,1151.82005,1154.312635,0,42,42,42,1,197,8,4,clownfish     ,seaturtle     ,html/resources/sequences_IDs/A/04_clownfish.jpg,html/resources/sequences_IDs/A/02_seaturtle.jpg,4,2,2,1,2,1,3,1,0,21,,,,,,,,,,,,,,,,,,,,
,,,,,21,2020-07-01_11h40.54.185,retriever_ti,2020.1.3,Win32,60,Chrome,1536,864,,,,,,,,,,,,,,,,,3,,,,,,,,,,,,,,,,,,,,,,,,,,,1154.928935,198,left,1.2688,seaturtle     ,4,2,1,1,1,1154.963625,1154.963625,1157.45753,0,43,43,43,1,198,4,3,seaturtle     ,phone       ,html/resources/sequences_IDs/A/02_seaturtle.jpg,html/resources/sequences_IDs/B/09_phone.jpg,2,9,2,1,4,2,1,7,0,21,,,,,,,,,,,,,,,,,,,,
,,,,,21,2020-07-01_11h40.54.185,retriever_ti,2020.1.3,Win32,60,Chrome,1536,864,,,,,,,,,,,,,,,,,3,,,,,,,,,,,,,,,,,,,,,,,,,,,1158.556875,199,right,1.2775,clownfish     ,8,4,1,1,1,1158.574505,1158.574505,1161.068485,0,44,44,44,1,199,7,8,sport_tshirt,clownfish     ,html/resources/sequences_IDs/B/07_sport_tshirt.jpg,html/resources/sequences_IDs/A/04_clownfish.jpg,7,4,3,2,2,1,5,3,0,21,,,,,,,,,,,,,,,,,,,,
,,,,,21,2020-07-01_11h40.54.185,retriever_ti,2020.1.3,Win32,60,Chrome,1536,864,,,,,,,,,,,,,,,,,3,,,,,,,,,,,,,,,,,,,,,,,,,,,1162.167835,200,right,0.564855,giraffe     ,5,3,1,1,0,1162.201995,1162.201995,1164.695925,0,45,45,45,1,200,4,5,seaturtle     ,giraffe     ,html/resources/sequences_IDs/A/02_seaturtle.jpg,html/resources/sequences_IDs/B/03_giraffe.jpg,2,3,2,1,1,1,1,2,1,21,,,,,,,,,,,,,,,,,,,,
,,,,,21,2020-07-01_11h40.54.185,retriever_ti,2020.1.3,Win32,60,Chrome,1536,864,,,,,,,,,,,,,,,,,3,,,,,,,,,,,,,,,,,,,,,,,,,,,1165.795475,201,right,0.87362,hat           ,6,8,-2,0,3,1165.829655,1165.829655,1168.323455,0,46,46,46,1,201,8,6,clownfish     ,hat           ,html/resources/sequences_IDs/A/04_clownfish.jpg,html/resources/sequences_IDs/A/08_hat.jpg,4,8,2,1,3,2,3,6,0,21,,,,,,,,,,,,,,,,,,,,
,,,,,21,2020-07-01_11h40.54.185,retriever_ti,2020.1.3,Win32,60,Chrome,1536,864,,,,,,,,,,,,,,,,,3,,,,,,,,,,,,,,,,,,,,,,,,,,,1168.939695,202,right,0.982785,phone       ,3,9,-1,0,0,1168.974425,1168.974425,1171.46893,0,47,47,47,1,202,4,3,seaturtle     ,phone       ,html/resources/sequences_IDs/A/02_seaturtle.jpg,html/resources/sequences_IDs/B/09_phone.jpg,2,9,2,1,4,2,1,7,0,21,,,,,,,,,,,,,,,,,,,,
,,,,,21,2020-07-01_11h40.54.185,retriever_ti,2020.1.3,Win32,60,Chrome,1536,864,,,,,,,,,,,,,,,,,3,,,,,,,,,,,,,,,,,,,,,,,,,,,1172.56789,203,left,0.834135,phone       ,3,9,-1,0,0,1172.602015,1172.602015,1175.09655,0,48,48,48,1,203,3,4,phone       ,seaturtle     ,html/resources/sequences_IDs/B/09_phone.jpg,html/resources/sequences_IDs/A/02_seaturtle.jpg,9,2,4,2,2,1,7,1,0,21,,,,,,,,,,,,,,,,,,,,
,,,,,21,2020-07-01_11h40.54.185,retriever_ti,2020.1.3,Win32,60,Chrome,1536,864,,,,,,,,,,,,,,,,,3,,,,,,,,,,,,,,,,,,,,,,,,,,,1176.195375,204,left,1.26762,giraffe     ,5,3,4,1,3,1176.229515,1176.229515,1178.72341,0,49,49,49,1,204,5,1,giraffe     ,radio       ,html/resources/sequences_IDs/B/03_giraffe.jpg,html/resources/sequences_IDs/B/10_radio.jpg,3,10,1,1,4,2,2,8,0,21,,,,,,,,,,,,,,,,,,,,
,,,,,21,2020-07-01_11h40.54.185,retriever_ti,2020.1.3,Win32,60,Chrome,1536,864,,,,,,,,,,,,,,,,,3,,,,,,,,,,,,,,,,,,,,,,,,,,,1179.34003,205,right,1.03076,hat           ,6,8,3,1,3,1179.374025,1179.374025,1181.868365,0,50,50,50,1,205,3,6,phone       ,hat           ,html/resources/sequences_IDs/B/09_phone.jpg,html/resources/sequences_IDs/A/08_hat.jpg,9,8,4,2,3,2,7,6,0,21,,,,,,,,,,,,,,,,,,,,
,,,,,21,2020-07-01_11h40.54.185,retriever_ti,2020.1.3,Win32,60,Chrome,1536,864,,,,,,,,,,,,,,,,,3,,,,,,,,,,,,,,,,,,,,,,,,,,,1182.485165,206,right,1.19819,giraffe     ,5,3,2,1,3,1182.5194,1182.5194,1185.013565,0,51,51,51,1,206,3,5,phone       ,giraffe     ,html/resources/sequences_IDs/B/09_phone.jpg,html/resources/sequences_IDs/B/03_giraffe.jpg,9,3,4,2,1,1,7,2,0,21,,,,,,,,,,,,,,,,,,,,
,,,,,21,2020-07-01_11h40.54.185,retriever_ti,2020.1.3,Win32,60,Chrome,1536,864,,,,,,,,,,,,,,,,,3,,,,,,,,,,,,,,,,,,,,,,,,,,,1185.630215,207,right,0.781385,hat           ,6,8,1,1,1,1185.66442,1185.66442,1188.1587,0,52,52,52,1,207,5,6,giraffe     ,hat           ,html/resources/sequences_IDs/B/03_giraffe.jpg,html/resources/sequences_IDs/A/08_hat.jpg,3,8,1,1,3,2,2,6,0,21,,,,,,,,,,,,,,,,,,,,
,,,,,21,2020-07-01_11h40.54.185,retriever_ti,2020.1.3,Win32,60,Chrome,1536,864,,,,,,,,,,,,,,,,,3,,,,,,,,,,,,,,,,,,,,,,,,,,,1189.2572,208,left,1.10081,peacock       ,2,5,-1,0,0,1189.291895,1189.291895,1191.786035,0,53,53,53,1,208,2,3,peacock       ,phone       ,html/resources/sequences_IDs/A/05_peacock.jpg,html/resources/sequences_IDs/B/09_phone.jpg,5,9,2,1,4,2,4,7,0,21,,,,,,,,,,,,,,,,,,,,
,,,,,21,2020-07-01_11h40.54.185,retriever_ti,2020.1.3,Win32,60,Chrome,1536,864,,,,,,,,,,,,,,,,,3,,,,,,,,,,,,,,,,,,,,,,,,,,,1192.885105,209,left,0.586655,peacock       ,2,5,-5,0,3,1192.9028,1192.9028,1195.39686,0,54,54,54,1,209,2,7,peacock       ,sport_tshirt,html/resources/sequences_IDs/A/05_peacock.jpg,html/resources/sequences_IDs/B/07_sport_tshirt.jpg,5,7,2,1,3,2,4,5,0,21,,,,,,,,,,,,,,,,,,,,
,,,,,21,2020-07-01_11h40.54.185,retriever_ti,2020.1.3,Win32,60,Chrome,1536,864,,,,,,,,,,,,,,,,,3,,,,,,,,,,,,,,,,,,,,,,,,,,,1196.013435,210,right,0.653125,peacock       ,2,5,1,1,1,1196.0479,1196.0479,1198.542535,0,55,55,55,1,210,1,2,radio       ,peacock       ,html/resources/sequences_IDs/B/10_radio.jpg,html/resources/sequences_IDs/A/05_peacock.jpg,10,5,4,2,2,1,8,4,0,21,,,,,,,,,,,,,,,,,,,,
,,,,,21,2020-07-01_11h40.54.185,retriever_ti,2020.1.3,Win32,60,Chrome,1536,864,,,,,,,,,,,,,,,,,3,,,,,,,,,,,,,,,,,,,,,,,,,,,1199.640915,211,left,0.84913,hat           ,6,8,1,1,1,1199.65857,1199.65857,1202.15209,0,56,56,56,1,211,6,5,hat           ,giraffe     ,html/resources/sequences_IDs/A/08_hat.jpg,html/resources/sequences_IDs/B/03_giraffe.jpg,8,3,3,2,1,1,6,2,0,21,,,,,,,,,,,,,,,,,,,,
,,,,,21,2020-07-01_11h40.54.185,retriever_ti,2020.1.3,Win32,60,Chrome,1536,864,,,,,,,,,,,,,,,,,3,,,,,,,,,,,,,,,,,,,,,,,,,,,1203.251435,212,left,1.07234,giraffe     ,5,3,2,1,3,1203.28617,1203.28617,1205.780535,0,57,57,57,1,212,5,3,giraffe     ,phone       ,html/resources/sequences_IDs/B/03_giraffe.jpg,html/resources/sequences_IDs/B/09_phone.jpg,3,9,1,1,4,2,2,7,0,21,,,,,,,,,,,,,,,,,,,,
,,,,,21,2020-07-01_11h40.54.185,retriever_ti,2020.1.3,Win32,60,Chrome,1536,864,,,,,,,,,,,,,,,,,3,,,,,,,,,,,,,,,,,,,,,,,,,,,1206.40129,213,left,0.982805,seaturtle     ,4,2,3,1,3,1206.41465,1206.41465,1208.908875,0,58,58,58,1,213,4,1,seaturtle     ,radio       ,html/resources/sequences_IDs/A/02_seaturtle.jpg,html/resources/sequences_IDs/B/10_radio.jpg,2,10,2,1,4,2,1,8,0,21,,,,,,,,,,,,,,,,,,,,
,,,,,21,2020-07-01_11h40.54.185,retriever_ti,2020.1.3,Win32,60,Chrome,1536,864,,,,,,,,,,,,,,,,,3,,,,,,,,,,,,,,,,,,,,,,,,,,,1209.525345,214,right,0.79362,hat           ,6,8,4,1,3,1209.560515,1209.560515,1212.053525,0,59,59,59,1,214,2,6,peacock       ,hat           ,html/resources/sequences_IDs/A/05_peacock.jpg,html/resources/sequences_IDs/A/08_hat.jpg,5,8,2,1,3,2,4,6,0,21,,,,,,,,,,,,,,,,,,,,
,,,,,21,2020-07-01_11h40.54.185,retriever_ti,2020.1.3,Win32,60,Chrome,1536,864,,,,,,,,,,,,,,,,,3,,,,,,,,,,,,,,,,,,,,,,,,,,,1212.6702,215,left,0.71045,hat           ,6,8,5,1,3,1212.70444,1212.70444,1215.198695,0,60,60,60,1,215,6,1,hat           ,radio       ,html/resources/sequences_IDs/A/08_hat.jpg,html/resources/sequences_IDs/B/10_radio.jpg,8,10,3,2,4,2,6,8,0,21,,,,,,,,,,,,,,,,,,,,
,,,,,21,2020-07-01_11h40.54.185,retriever_ti,2020.1.3,Win32,60,Chrome,1536,864,,,,,,,,,,,,,,,,,3,,,,,,,,,,,,,,,,,,,,,,,,,,,1215.815875,216,right,1.135835,clownfish     ,8,4,4,1,3,1215.833465,1215.833465,1218.32485,0,61,61,61,1,216,4,8,seaturtle     ,clownfish     ,html/resources/sequences_IDs/A/02_seaturtle.jpg,html/resources/sequences_IDs/A/04_clownfish.jpg,2,4,2,1,2,1,1,3,0,21,,,,,,,,,,,,,,,,,,,,
,,,,,21,2020-07-01_11h40.54.185,retriever_ti,2020.1.3,Win32,60,Chrome,1536,864,,,,,,,,,,,,,,,,,3,,,,,,,,,,,,,,,,,,,,,,,,,,,1218.92612,217,left,0.798035,peacock       ,2,5,-1,0,0,1218.961075,1218.961075,1221.45498,0,62,62,62,1,217,2,3,peacock       ,phone       ,html/resources/sequences_IDs/A/05_peacock.jpg,html/resources/sequences_IDs/B/09_phone.jpg,5,9,2,1,4,2,4,7,0,21,,,,,,,,,,,,,,,,,,,,
,,,,,21,2020-07-01_11h40.54.185,retriever_ti,2020.1.3,Win32,60,Chrome,1536,864,,,,,,,,,,,,,,,,,3,,,,,,,,,,,,,,,,,,,,,,,,,,,1222.554445,218,right,1.399405,hat           ,6,8,1,1,0,1222.588785,1222.588785,1225.08299,0,63,63,63,1,218,5,6,giraffe     ,hat           ,html/resources/sequences_IDs/B/03_giraffe.jpg,html/resources/sequences_IDs/A/08_hat.jpg,3,8,1,1,3,2,2,6,1,21,,,,,,,,,,,,,,,,,,,,
,,,,,21,2020-07-01_11h40.54.185,retriever_ti,2020.1.3,Win32,60,Chrome,1536,864,,,,,,,,,,,,,,,,,3,,,,,,,,,,,,,,,,,,,,,,,,,,,1226.181875,219,right,1.103125,phone       ,3,9,-4,0,3,1226.199345,1226.199345,1228.693405,0,64,64,64,1,219,7,3,sport_tshirt,phone       ,html/resources/sequences_IDs/B/07_sport_tshirt.jpg,html/resources/sequences_IDs/B/09_phone.jpg,7,9,3,2,4,2,5,7,0,21,,,,,,,,,,,,,,,,,,,,
,,,,,21,2020-07-01_11h40.54.185,retriever_ti,2020.1.3,Win32,60,Chrome,1536,864,,,,,,,,,,,,,,,,,3,,,,,,,,,,,,,,,,,,,,,,,,,,,1229.309365,220,right,0.44121,phone       ,3,9,2,1,3,1229.34421,1229.34421,1231.83832,0,65,65,65,1,220,1,3,radio       ,phone       ,html/resources/sequences_IDs/B/10_radio.jpg,html/resources/sequences_IDs/B/09_phone.jpg,10,9,4,2,4,2,8,7,0,21,,,,,,,,,,,,,,,,,,,,
,,,,,21,2020-07-01_11h40.54.185,retriever_ti,2020.1.3,Win32,60,Chrome,1536,864,,,,,,,,,,,,,,,,,3,,,,,,,,,,,,,,,,,,,,,,,,,,,1232.45502,221,right,0.730905,giraffe     ,5,3,-3,0,3,1232.472675,1232.472675,1234.96657,0,66,66,66,1,221,8,5,clownfish     ,giraffe     ,html/resources/sequences_IDs/A/04_clownfish.jpg,html/resources/sequences_IDs/B/03_giraffe.jpg,4,3,2,1,1,1,3,2,0,21,,,,,,,,,,,,,,,,,,,,
,,,,,21,2020-07-01_11h40.54.185,retriever_ti,2020.1.3,Win32,60,Chrome,1536,864,,,,,,,,,,,,,,,,,3,,,,,,,,,,,,,,,,,,,,,,,,,,,1235.58285,222,left,0.588305,hat           ,6,8,4,1,3,1235.62618,1235.62618,1238.111595,0,67,67,67,1,222,6,2,hat           ,peacock       ,html/resources/sequences_IDs/A/08_hat.jpg,html/resources/sequences_IDs/A/05_peacock.jpg,8,5,3,2,2,1,6,4,0,21,,,,,,,,,,,,,,,,,,,,
,,,,,21,2020-07-01_11h40.54.185,retriever_ti,2020.1.3,Win32,60,Chrome,1536,864,,,,,,,,,,,,,,,,,3,,,,,,,,,,,,,,,,,,,,,,,,,,,1238.72833,223,right,0.59155,peacock       ,2,5,-5,0,3,1238.762505,1238.762505,1241.256595,0,68,68,68,1,223,7,2,sport_tshirt,peacock       ,html/resources/sequences_IDs/B/07_sport_tshirt.jpg,html/resources/sequences_IDs/A/05_peacock.jpg,7,5,3,2,2,1,5,4,0,21,,,,,,,,,,,,,,,,,,,,
