instructionsLoop.thisRepN,instructionsLoop.thisTrialN,instructionsLoop.thisN,instructionsLoop.thisIndex,instructionsLoop.ran,participant,date,expName,psychopyVersion,OS,frameRate,browser,xResolution,yResolution,fix_onset,tprac,practiceKey.keys,practiceKey.rt,pracitem_chosen_name,acc_practice,P1_onsetPrac,P2_onsetPrac,onsetFeedbPrac,practiceTrials.thisRepN,practiceTrials.thisTrialN,practiceTrials.thisN,practiceTrials.thisIndex,practiceTrials.ran,P1,P2,Block,LocItem1,LocItem2,NameItem1,NameItem2,key_respAC_prac.keys,key_respAC_prac.corr,key_respAC_prac.rt,AC_acc,Attentions.thisRepN,Attentions.thisTrialN,Attentions.thisN,Attentions.thisIndex,Attentions.ran,Stim,Loc1,Loc2,Loc3,Loc4,CorrAns,keyDisturbed.keys,keyDisturbed.rt,repPractice.thisRepN,repPractice.thisTrialN,repPractice.thisN,repPractice.thisIndex,repPractice.ran,fixcross_onsetMain,trialNumber,key_resp.keys,key_resp.rt,item_chosen_name,item_chosen_value,item_chosen_ID,diff_chosen_minus_reject,acc_real,acc_feedback,P1_onset,P2_onset,feedb_onset,trials.thisRepN,trials.thisTrialN,trials.thisN,trials.thisIndex,trials.ran,Trial,ValueP1,ValueP2,P1name,P2name,P1Loc,P2Loc,P1id,P2id,Micro_categoryP1,Macro_categoryP1,Micro_categoryP2,Macro_categoryP2,ID_sequenceP1,ID_sequenceP2,InverseFb,pNumber,repBlocks.thisRepN,repBlocks.thisTrialN,repBlocks.thisN,repBlocks.thisIndex,repBlocks.ran,key_respAC.keys,key_respAC.corr,key_respAC.rt,trials_AC.thisRepN,trials_AC.thisTrialN,trials_AC.thisN,trials_AC.thisIndex,trials_AC.ran,Bonus,BonusLoop.thisRepN,BonusLoop.thisTrialN,BonusLoop.thisN,BonusLoop.thisIndex,BonusLoop.ran,comments
0,0,0,0,1,22,2020-07-01_09h49.03.758,retriever_ti,2020.1.3,Win32,60,Chrome,1366,768,,,,,,,,,,,,,,,,,,,,,,,,,,,,,,,,,,,,,,,,,,,,,,,,,,,,,,,,,,,,,,,,,,,,,,,,,,,,,,,,,,,,,,,,,,,,,,,,,,
1,0,1,0,1,22,2020-07-01_09h49.03.758,retriever_ti,2020.1.3,Win32,60,Chrome,1366,768,,,,,,,,,,,,,,,,,,,,,,,,,,,,,,,,,,,,,,,,,,,,,,,,,,,,,,,,,,,,,,,,,,,,,,,,,,,,,,,,,,,,,,,,,,,,,,,,,,
2,0,2,0,1,22,2020-07-01_09h49.03.758,retriever_ti,2020.1.3,Win32,60,Chrome,1366,768,,,,,,,,,,,,,,,,,,,,,,,,,,,,,,,,,,,,,,,,,,,,,,,,,,,,,,,,,,,,,,,,,,,,,,,,,,,,,,,,,,,,,,,,,,,,,,,,,,
3,0,3,0,1,22,2020-07-01_09h49.03.758,retriever_ti,2020.1.3,Win32,60,Chrome,1366,768,,,,,,,,,,,,,,,,,,,,,,,,,,,,,,,,,,,,,,,,,,,,,,,,,,,,,,,,,,,,,,,,,,,,,,,,,,,,,,,,,,,,,,,,,,,,,,,,,,
4,0,4,0,1,22,2020-07-01_09h49.03.758,retriever_ti,2020.1.3,Win32,60,Chrome,1366,768,,,,,,,,,,,,,,,,,,,,,,,,,,,,,,,,,,,,,,,,,,,,,,,,,,,,,,,,,,,,,,,,,,,,,,,,,,,,,,,,,,,,,,,,,,,,,,,,,,
5,0,5,0,1,22,2020-07-01_09h49.03.758,retriever_ti,2020.1.3,Win32,60,Chrome,1366,768,,,,,,,,,,,,,,,,,,,,,,,,,,,,,,,,,,,,,,,,,,,,,,,,,,,,,,,,,,,,,,,,,,,,,,,,,,,,,,,,,,,,,,,,,,,,,,,,,,
6,0,6,0,1,22,2020-07-01_09h49.03.758,retriever_ti,2020.1.3,Win32,60,Chrome,1366,768,,,,,,,,,,,,,,,,,,,,,,,,,,,,,,,,,,,,,,,,,,,,,,,,,,,,,,,,,,,,,,,,,,,,,,,,,,,,,,,,,,,,,,,,,,,,,,,,,,
7,0,7,0,1,22,2020-07-01_09h49.03.758,retriever_ti,2020.1.3,Win32,60,Chrome,1366,768,,,,,,,,,,,,,,,,,,,,,,,,,,,,,,,,,,,,,,,,,,,,,,,,,,,,,,,,,,,,,,,,,,,,,,,,,,,,,,,,,,,,,,,,,,,,,,,,,,
8,0,8,0,1,22,2020-07-01_09h49.03.758,retriever_ti,2020.1.3,Win32,60,Chrome,1366,768,,,,,,,,,,,,,,,,,,,,,,,,,,,,,,,,,,,,,,,,,,,,,,,,,,,,,,,,,,,,,,,,,,,,,,,,,,,,,,,,,,,,,,,,,,,,,,,,,,
9,0,9,0,1,22,2020-07-01_09h49.03.758,retriever_ti,2020.1.3,Win32,60,Chrome,1366,768,,,,,,,,,,,,,,,,,,,,,,,,,,,,,,,,,,,,,,,,,,,,,,,,,,,,,,,,,,,,,,,,,,,,,,,,,,,,,,,,,,,,,,,,,,,,,,,,,,
10,0,10,0,1,22,2020-07-01_09h49.03.758,retriever_ti,2020.1.3,Win32,60,Chrome,1366,768,,,,,,,,,,,,,,,,,,,,,,,,,,,,,,,,,,,,,,,,,,,,,,,,,,,,,,,,,,,,,,,,,,,,,,,,,,,,,,,,,,,,,,,,,,,,,,,,,,
11,0,11,0,1,22,2020-07-01_09h49.03.758,retriever_ti,2020.1.3,Win32,60,Chrome,1366,768,,,,,,,,,,,,,,,,,,,,,,,,,,,,,,,,,,,,,,,,,,,,,,,,,,,,,,,,,,,,,,,,,,,,,,,,,,,,,,,,,,,,,,,,,,,,,,,,,,
12,0,12,0,1,22,2020-07-01_09h49.03.758,retriever_ti,2020.1.3,Win32,60,Chrome,1366,768,,,,,,,,,,,,,,,,,,,,,,,,,,,,,,,,,,,,,,,,,,,,,,,,,,,,,,,,,,,,,,,,,,,,,,,,,,,,,,,,,,,,,,,,,,,,,,,,,,
13,0,13,0,1,22,2020-07-01_09h49.03.758,retriever_ti,2020.1.3,Win32,60,Chrome,1366,768,,,,,,,,,,,,,,,,,,,,,,,,,,,,,,,,,,,,,,,,,,,,,,,,,,,,,,,,,,,,,,,,,,,,,,,,,,,,,,,,,,,,,,,,,,,,,,,,,,
14,0,14,0,1,22,2020-07-01_09h49.03.758,retriever_ti,2020.1.3,Win32,60,Chrome,1366,768,,,,,,,,,,,,,,,,,,,,,,,,,,,,,,,,,,,,,,,,,,,,,,,,,,,,,,,,,,,,,,,,,,,,,,,,,,,,,,,,,,,,,,,,,,,,,,,,,,
15,0,15,0,1,22,2020-07-01_09h49.03.758,retriever_ti,2020.1.3,Win32,60,Chrome,1366,768,,,,,,,,,,,,,,,,,,,,,,,,,,,,,,,,,,,,,,,,,,,,,,,,,,,,,,,,,,,,,,,,,,,,,,,,,,,,,,,,,,,,,,,,,,,,,,,,,,
,,,,,22,2020-07-01_09h49.03.758,retriever_ti,2020.1.3,Win32,60,Chrome,1366,768,17.83298,1,right,0.93828,canary,1,17.863,17.863,20.360145,0,0,0,0,1,2,5,1,html/resources/stimuli_practice_decision/04_beetle.jpg,html/resources/stimuli_practice_decision/02_canary.jpg,beetle,canary,,,,,,,,,,,,,,,,,,,,,,,,,,,,,,,,,,,,,,,,,,,,,,,,,,,,,,,,,,,,,,,,,,,,,,,,,,,,,
,,,,,22,2020-07-01_09h49.03.758,retriever_ti,2020.1.3,Win32,60,Chrome,1366,768,20.880805,2,left,0.797245,rabbit,1,20.893815,20.893815,23.39132,0,1,1,1,1,4,3,1,html/resources/stimuli_practice_decision/01_rabbit.jpg,html/resources/stimuli_practice_decision/07_sock.jpg,rabbit,sock,,,,,,,,,,,,,,,,,,,,,,,,,,,,,,,,,,,,,,,,,,,,,,,,,,,,,,,,,,,,,,,,,,,,,,,,,,,,,
,,,,,22,2020-07-01_09h49.03.758,retriever_ti,2020.1.3,Win32,60,Chrome,1366,768,24.392,3,left,0.72956,pullover,1,24.409475,24.409475,26.907795,0,2,2,2,1,6,2,1,html/resources/stimuli_practice_decision/06_pullover.jpg,html/resources/stimuli_practice_decision/04_beetle.jpg,pullover,beetle,,,,,,,,,,,,,,,,,,,,,,,,,,,,,,,,,,,,,,,,,,,,,,,,,,,,,,,,,,,,,,,,,,,,,,,,,,,,,
,,,,,22,2020-07-01_09h49.03.758,retriever_ti,2020.1.3,Win32,60,Chrome,1366,768,27.42534,4,left,0.748135,glasses,1,27.44234,27.44234,29.940745,0,3,3,3,1,7,1,1,html/resources/stimuli_practice_decision/05_glasses.jpg,html/resources/stimuli_practice_decision/08_handmixer.jpg,glasses,handmixer,,,,,,,,,,,,,,,,,,,,,,,,,,,,,,,,,,,,,,,,,,,,,,,,,,,,,,,,,,,,,,,,,,,,,,,,,,,,,
,,,,,22,2020-07-01_09h49.03.758,retriever_ti,2020.1.3,Win32,60,Chrome,1366,768,30.4414,5,left,0.71826,glasses,1,30.47664,30.47664,32.974105,0,4,4,4,1,7,6,1,html/resources/stimuli_practice_decision/05_glasses.jpg,html/resources/stimuli_practice_decision/06_pullover.jpg,glasses,pullover,,,,,,,,,,,,,,,,,,,,,,,,,,,,,,,,,,,,,,,,,,,,,,,,,,,,,,,,,,,,,,,,,,,,,,,,,,,,,
,,,,,22,2020-07-01_09h49.03.758,retriever_ti,2020.1.3,Win32,60,Chrome,1366,768,33.976705,6,right,0.724755,glasses,1,33.993125,33.993125,36.4907,0,5,5,5,1,4,7,1,html/resources/stimuli_practice_decision/01_rabbit.jpg,html/resources/stimuli_practice_decision/05_glasses.jpg,rabbit,glasses,,,,,,,,,,,,,,,,,,,,,,,,,,,,,,,,,,,,,,,,,,,,,,,,,,,,,,,,,,,,,,,,,,,,,,,,,,,,,
,,,,,22,2020-07-01_09h49.03.758,retriever_ti,2020.1.3,Win32,60,Chrome,1366,768,37.00818,7,right,0.651595,beetle,1,37.0256,37.0256,39.52362,0,6,6,6,1,1,2,1,html/resources/stimuli_practice_decision/08_handmixer.jpg,html/resources/stimuli_practice_decision/04_beetle.jpg,handmixer,beetle,,,,,,,,,,,,,,,,,,,,,,,,,,,,,,,,,,,,,,,,,,,,,,,,,,,,,,,,,,,,,,,,,,,,,,,,,,,,,
,,,,,22,2020-07-01_09h49.03.758,retriever_ti,2020.1.3,Win32,60,Chrome,1366,768,40.524995,8,left,1.23414,rabbit,1,40.559385,40.559385,43.05682,0,7,7,7,1,4,3,1,html/resources/stimuli_practice_decision/01_rabbit.jpg,html/resources/stimuli_practice_decision/07_sock.jpg,rabbit,sock,,,,,,,,,,,,,,,,,,,,,,,,,,,,,,,,,,,,,,,,,,,,,,,,,,,,,,,,,,,,,,,,,,,,,,,,,,,,,
,,,,,22,2020-07-01_09h49.03.758,retriever_ti,2020.1.3,Win32,60,Chrome,1366,768,,,,,,,,,,,,,,,,,,,,,,up,1,2.219105,1,0,0,0,0,1,html/resources/sequences_IDs/circle.png,circle ↑,square →,triangle ↓,← star ,up,,,,,,,,,,,,,,,,,,,,,,,,,,,,,,,,,,,,,,,,,,,,,,,,,,,,,,,,,,,,,,
,,,,,22,2020-07-01_09h49.03.758,retriever_ti,2020.1.3,Win32,60,Chrome,1366,768,,,,,,,,,,,,,,,,,,,,,,down,1,1.524775,1,0,1,1,3,1,html/resources/sequences_IDs/triangle.png,star ↑,square →,triangle ↓,← circle,down,,,,,,,,,,,,,,,,,,,,,,,,,,,,,,,,,,,,,,,,,,,,,,,,,,,,,,,,,,,,,,
,,,,,22,2020-07-01_09h49.03.758,retriever_ti,2020.1.3,Win32,60,Chrome,1366,768,,,,,,,,,,,,,,,,,,,,,,down,1,1.006285,1,0,2,2,1,1,html/resources/sequences_IDs/star.png,square ↑,circle →,star ↓,← triangle,down,,,,,,,,,,,,,,,,,,,,,,,,,,,,,,,,,,,,,,,,,,,,,,,,,,,,,,,,,,,,,,
,,,,,22,2020-07-01_09h49.03.758,retriever_ti,2020.1.3,Win32,60,Chrome,1366,768,,,,,,,,,,,,,,,,,,,,,,left,1,1.578365,1,0,3,3,2,1,html/resources/sequences_IDs/square1.png,star ↑,triangle →,circle ↓,← square,left,,,,,,,,,,,,,,,,,,,,,,,,,,,,,,,,,,,,,,,,,,,,,,,,,,,,,,,,,,,,,,
,,,,,22,2020-07-01_09h49.03.758,retriever_ti,2020.1.3,Win32,60,Chrome,1366,768,,,,,,,,,,,,,,,,,,,,,,,,,,,,,,,,,,,,,0,3.583755,0,0,0,0,1,,,,,,,,,,,,,,,,,,,,,,,,,,,,,,,,,,,,,,,,,,,,,,,,,,,,,,,
,,,,,22,2020-07-01_09h49.03.758,retriever_ti,2020.1.3,Win32,60,Chrome,1366,768,57.247275,9,right,1.388505,glasses,1,57.257725,57.257725,59.756565,0,0,0,0,1,6,7,1,html/resources/stimuli_practice_decision/06_pullover.jpg,html/resources/stimuli_practice_decision/05_glasses.jpg,pullover,glasses,,,,,,,,,,,,,,,,,,,,,,,,,,,,,,,,,,,,,,,,,,,,,,,,,,,,,,,,,,,,,,,,,,,,,,,,,,,,,
,,,,,22,2020-07-01_09h49.03.758,retriever_ti,2020.1.3,Win32,60,Chrome,1366,768,60.75757,10,right,1.292305,beetle,0,60.77513,60.77513,63.272675,0,1,1,1,1,6,2,1,html/resources/stimuli_practice_decision/06_pullover.jpg,html/resources/stimuli_practice_decision/04_beetle.jpg,pullover,beetle,,,,,,,,,,,,,,,,,,,,,,,,,,,,,,,,,,,,,,,,,,,,,,,,,,,,,,,,,,,,,,,,,,,,,,,,,,,,,
,,,,,22,2020-07-01_09h49.03.758,retriever_ti,2020.1.3,Win32,60,Chrome,1366,768,63.790195,11,left,0.72157,canary,0,63.82972,63.82972,66.32256,0,2,2,2,1,5,6,1,html/resources/stimuli_practice_decision/02_canary.jpg,html/resources/stimuli_practice_decision/06_pullover.jpg,canary,pullover,,,,,,,,,,,,,,,,,,,,,,,,,,,,,,,,,,,,,,,,,,,,,,,,,,,,,,,,,,,,,,,,,,,,,,,,,,,,,
,,,,,22,2020-07-01_09h49.03.758,retriever_ti,2020.1.3,Win32,60,Chrome,1366,768,67.32381,12,right,1.831735,glasses,0,67.34124,67.34124,69.838825,0,3,3,3,1,8,7,1,html/resources/stimuli_practice_decision/03_squirrel.jpg,html/resources/stimuli_practice_decision/05_glasses.jpg,squirrel,glasses,,,,,,,,,,,,,,,,,,,,,,,,,,,,,,,,,,,,,,,,,,,,,,,,,,,,,,,,,,,,,,,,,,,,,,,,,,,,,
,,,,,22,2020-07-01_09h49.03.758,retriever_ti,2020.1.3,Win32,60,Chrome,1366,768,70.839725,13,left,1.18544,canary,1,70.857405,70.857405,73.355345,0,4,4,4,1,5,3,1,html/resources/stimuli_practice_decision/02_canary.jpg,html/resources/stimuli_practice_decision/07_sock.jpg,canary,sock,,,,,,,,,,,,,,,,,,,,,,,,,,,,,,,,,,,,,,,,,,,,,,,,,,,,,,,,,,,,,,,,,,,,,,,,,,,,,
,,,,,22,2020-07-01_09h49.03.758,retriever_ti,2020.1.3,Win32,60,Chrome,1366,768,73.872465,14,left,1.211495,glasses,0,73.889625,73.889625,76.38848,0,5,5,5,1,7,8,1,html/resources/stimuli_practice_decision/05_glasses.jpg,html/resources/stimuli_practice_decision/03_squirrel.jpg,glasses,squirrel,,,,,,,,,,,,,,,,,,,,,,,,,,,,,,,,,,,,,,,,,,,,,,,,,,,,,,,,,,,,,,,,,,,,,,,,,,,,,
,,,,,22,2020-07-01_09h49.03.758,retriever_ti,2020.1.3,Win32,60,Chrome,1366,768,77.389225,15,left,0.659595,canary,1,77.423025,77.423025,79.921705,0,6,6,6,1,5,4,1,html/resources/stimuli_practice_decision/02_canary.jpg,html/resources/stimuli_practice_decision/01_rabbit.jpg,canary,rabbit,,,,,,,,,,,,,,,,,,,,,,,,,,,,,,,,,,,,,,,,,,,,,,,,,,,,,,,,,,,,,,,,,,,,,,,,,,,,,
,,,,,22,2020-07-01_09h49.03.758,retriever_ti,2020.1.3,Win32,60,Chrome,1366,768,80.922015,16,right,0.565675,sock,0,80.9401,80.9401,83.438895,0,7,7,7,1,5,3,1,html/resources/stimuli_practice_decision/02_canary.jpg,html/resources/stimuli_practice_decision/07_sock.jpg,canary,sock,,,,,,,,,,,,,,,,,,,,,,,,,,,,,,,,,,,,,,,,,,,,,,,,,,,,,,,,,,,,,,,,,,,,,,,,,,,,,
,,,,,22,2020-07-01_09h49.03.758,retriever_ti,2020.1.3,Win32,60,Chrome,1366,768,,,,,,,,,,,,,,,,,,,,,,down,1,1.835255,1,0,0,0,3,1,html/resources/sequences_IDs/triangle.png,star ↑,square →,triangle ↓,← circle,down,,,,,,,,,,,,,,,,,,,,,,,,,,,,,,,,,,,,,,,,,,,,,,,,,,,,,,,,,,,,,,
,,,,,22,2020-07-01_09h49.03.758,retriever_ti,2020.1.3,Win32,60,Chrome,1366,768,,,,,,,,,,,,,,,,,,,,,,down,1,0.989935,1,0,1,1,1,1,html/resources/sequences_IDs/star.png,square ↑,circle →,star ↓,← triangle,down,,,,,,,,,,,,,,,,,,,,,,,,,,,,,,,,,,,,,,,,,,,,,,,,,,,,,,,,,,,,,,
,,,,,22,2020-07-01_09h49.03.758,retriever_ti,2020.1.3,Win32,60,Chrome,1366,768,,,,,,,,,,,,,,,,,,,,,,left,1,1.22891,1,0,2,2,2,1,html/resources/sequences_IDs/square1.png,star ↑,triangle →,circle ↓,← square,left,,,,,,,,,,,,,,,,,,,,,,,,,,,,,,,,,,,,,,,,,,,,,,,,,,,,,,,,,,,,,,
,,,,,22,2020-07-01_09h49.03.758,retriever_ti,2020.1.3,Win32,60,Chrome,1366,768,,,,,,,,,,,,,,,,,,,,,,up,1,1.665145,1,0,3,3,0,1,html/resources/sequences_IDs/circle.png,circle ↑,square →,triangle ↓,← star ,up,,,,,,,,,,,,,,,,,,,,,,,,,,,,,,,,,,,,,,,,,,,,,,,,,,,,,,,,,,,,,,
,,,,,22,2020-07-01_09h49.03.758,retriever_ti,2020.1.3,Win32,60,Chrome,1366,768,,,,,,,,,,,,,,,,,,,,,,,,,,,,,,,,,,,,,0,2.58686,1,0,1,0,1,,,,,,,,,,,,,,,,,,,,,,,,,,,,,,,,,,,,,,,,,,,,,,,,,,,,,,,
,,,,,22,2020-07-01_09h49.03.758,retriever_ti,2020.1.3,Win32,60,Chrome,1366,768,,,,,,,,,,,,,,,,,1,,,,,,,,,,,,,,,,,,,,,,,,,,,149.21249,1,right,0.85863,parrot      ,3,5,2,1,3,149.22015,149.22015,151.71898,0,0,0,0,1,1,1,3,phone       ,parrot      ,html/resources/sequences_IDs/B/09_phone.jpg,html/resources/sequences_IDs/B/05_parrot.jpg,9,5,4,2,2,1,7,4,0,22,,,,,,,,,,,,,,,,,,,,
,,,,,22,2020-07-01_09h49.03.758,retriever_ti,2020.1.3,Win32,60,Chrome,1366,768,,,,,,,,,,,,,,,,,1,,,,,,,,,,,,,,,,,,,,,,,,,,,152.336205,2,left,0.679335,slipper     ,5,8,3,1,3,152.370295,152.370295,154.868225,0,1,1,1,1,2,5,2,slipper     ,satellite_dish,html/resources/sequences_IDs/B/08_slipper.jpg,html/resources/sequences_IDs/A/10_satellite_dish.jpg,8,10,3,2,4,2,6,8,0,22,,,,,,,,,,,,,,,,,,,,
,,,,,22,2020-07-01_09h49.03.758,retriever_ti,2020.1.3,Win32,60,Chrome,1366,768,,,,,,,,,,,,,,,,,1,,,,,,,,,,,,,,,,,,,,,,,,,,,155.48544,3,left,0.67047,parrot      ,3,5,-1,0,1,155.51943,155.51943,158.01793,0,2,2,2,1,3,3,4,parrot      ,clownfish     ,html/resources/sequences_IDs/B/05_parrot.jpg,html/resources/sequences_IDs/A/04_clownfish.jpg,5,4,2,1,2,1,4,3,1,22,,,,,,,,,,,,,,,,,,,,
,,,,,22,2020-07-01_09h49.03.758,retriever_ti,2020.1.3,Win32,60,Chrome,1366,768,,,,,,,,,,,,,,,,,1,,,,,,,,,,,,,,,,,,,,,,,,,,,159.11832,4,right,0.72216,giraffe     ,7,3,1,1,0,159.136145,159.136145,161.63437,0,3,3,3,1,4,6,7,dress         ,giraffe     ,html/resources/sequences_IDs/A/07_dress.jpg,html/resources/sequences_IDs/B/03_giraffe.jpg,7,3,3,2,1,1,5,2,1,22,,,,,,,,,,,,,,,,,,,,
,,,,,22,2020-07-01_09h49.03.758,retriever_ti,2020.1.3,Win32,60,Chrome,1366,768,,,,,,,,,,,,,,,,,1,,,,,,,,,,,,,,,,,,,,,,,,,,,162.7352,5,left,0.7999,slipper     ,5,8,-3,0,3,162.752235,162.752235,165.250835,0,4,4,4,1,5,5,8,slipper     ,seaturtle     ,html/resources/sequences_IDs/B/08_slipper.jpg,html/resources/sequences_IDs/A/02_seaturtle.jpg,8,2,3,2,2,1,6,1,0,22,,,,,,,,,,,,,,,,,,,,
,,,,,22,2020-07-01_09h49.03.758,retriever_ti,2020.1.3,Win32,60,Chrome,1366,768,,,,,,,,,,,,,,,,,1,,,,,,,,,,,,,,,,,,,,,,,,,,,165.868,6,left,0.80717,giraffe     ,7,3,-1,0,0,165.8854,165.8854,168.384005,0,5,5,5,1,6,7,8,giraffe     ,seaturtle     ,html/resources/sequences_IDs/B/03_giraffe.jpg,html/resources/sequences_IDs/A/02_seaturtle.jpg,3,2,1,1,2,1,2,1,0,22,,,,,,,,,,,,,,,,,,,,
,,,,,22,2020-07-01_09h49.03.758,retriever_ti,2020.1.3,Win32,60,Chrome,1366,768,,,,,,,,,,,,,,,,,1,,,,,,,,,,,,,,,,,,,,,,,,,,,169.48478,7,right,0.889275,slipper     ,5,8,-2,0,3,169.5187,169.5187,172.017275,0,6,6,6,1,7,7,5,giraffe     ,slipper     ,html/resources/sequences_IDs/B/03_giraffe.jpg,html/resources/sequences_IDs/B/08_slipper.jpg,3,8,1,1,3,2,2,6,0,22,,,,,,,,,,,,,,,,,,,,
,,,,,22,2020-07-01_09h49.03.758,retriever_ti,2020.1.3,Win32,60,Chrome,1366,768,,,,,,,,,,,,,,,,,1,,,,,,,,,,,,,,,,,,,,,,,,,,,172.634295,8,left,0.76935,parrot      ,3,5,-2,0,3,172.670115,172.670115,175.16707,0,7,7,7,1,8,3,5,parrot      ,slipper     ,html/resources/sequences_IDs/B/05_parrot.jpg,html/resources/sequences_IDs/B/08_slipper.jpg,5,8,2,1,3,2,4,6,0,22,,,,,,,,,,,,,,,,,,,,
,,,,,22,2020-07-01_09h49.03.758,retriever_ti,2020.1.3,Win32,60,Chrome,1366,768,,,,,,,,,,,,,,,,,1,,,,,,,,,,,,,,,,,,,,,,,,,,,175.784725,9,right,0.94873,slipper     ,5,8,1,1,1,175.801845,175.801845,178.3003,0,8,8,8,1,9,4,5,clownfish     ,slipper     ,html/resources/sequences_IDs/A/04_clownfish.jpg,html/resources/sequences_IDs/B/08_slipper.jpg,4,8,2,1,3,2,3,6,0,22,,,,,,,,,,,,,,,,,,,,
,,,,,22,2020-07-01_09h49.03.758,retriever_ti,2020.1.3,Win32,60,Chrome,1366,768,,,,,,,,,,,,,,,,,1,,,,,,,,,,,,,,,,,,,,,,,,,,,179.40054,10,right,0.88419,satellite_dish,2,10,1,1,1,179.418095,179.418095,181.916675,0,9,9,9,1,10,1,2,phone       ,satellite_dish,html/resources/sequences_IDs/B/09_phone.jpg,html/resources/sequences_IDs/A/10_satellite_dish.jpg,9,10,4,2,4,2,7,8,0,22,,,,,,,,,,,,,,,,,,,,
,,,,,22,2020-07-01_09h49.03.758,retriever_ti,2020.1.3,Win32,60,Chrome,1366,768,,,,,,,,,,,,,,,,,1,,,,,,,,,,,,,,,,,,,,,,,,,,,183.01747,11,right,1.118365,clownfish     ,4,4,-4,0,3,183.034455,183.034455,185.53315,0,10,10,10,1,11,8,4,seaturtle     ,clownfish     ,html/resources/sequences_IDs/A/02_seaturtle.jpg,html/resources/sequences_IDs/A/04_clownfish.jpg,2,4,2,1,2,1,1,3,0,22,,,,,,,,,,,,,,,,,,,,
,,,,,22,2020-07-01_09h49.03.758,retriever_ti,2020.1.3,Win32,60,Chrome,1366,768,,,,,,,,,,,,,,,,,1,,,,,,,,,,,,,,,,,,,,,,,,,,,186.1502,12,right,0.610005,parrot      ,3,5,-3,0,3,186.16769,186.16769,188.666525,0,11,11,11,1,12,6,3,dress         ,parrot      ,html/resources/sequences_IDs/A/07_dress.jpg,html/resources/sequences_IDs/B/05_parrot.jpg,7,5,3,2,2,1,5,4,0,22,,,,,,,,,,,,,,,,,,,,
,,,,,22,2020-07-01_09h49.03.758,retriever_ti,2020.1.3,Win32,60,Chrome,1366,768,,,,,,,,,,,,,,,,,1,,,,,,,,,,,,,,,,,,,,,,,,,,,189.284695,13,right,1.274895,dress         ,6,7,2,1,3,189.302465,189.302465,191.799525,0,12,12,12,1,13,4,6,clownfish     ,dress         ,html/resources/sequences_IDs/A/04_clownfish.jpg,html/resources/sequences_IDs/A/07_dress.jpg,4,7,2,1,3,2,3,5,0,22,,,,,,,,,,,,,,,,,,,,
,,,,,22,2020-07-01_09h49.03.758,retriever_ti,2020.1.3,Win32,60,Chrome,1366,768,,,,,,,,,,,,,,,,,1,,,,,,,,,,,,,,,,,,,,,,,,,,,192.416715,14,left,0.7602,satellite_dish,2,10,-6,0,3,192.4512,192.4512,194.94945,0,13,13,13,1,14,2,8,satellite_dish,seaturtle     ,html/resources/sequences_IDs/A/10_satellite_dish.jpg,html/resources/sequences_IDs/A/02_seaturtle.jpg,10,2,4,2,2,1,8,1,0,22,,,,,,,,,,,,,,,,,,,,
,,,,,22,2020-07-01_09h49.03.758,retriever_ti,2020.1.3,Win32,60,Chrome,1366,768,,,,,,,,,,,,,,,,,1,,,,,,,,,,,,,,,,,,,,,,,,,,,195.56701,15,left,0.74844,slipper     ,5,8,4,1,3,195.584205,195.584205,198.08263,0,14,14,14,1,15,5,1,slipper     ,phone       ,html/resources/sequences_IDs/B/08_slipper.jpg,html/resources/sequences_IDs/B/09_phone.jpg,8,9,3,2,4,2,6,7,0,22,,,,,,,,,,,,,,,,,,,,
,,,,,22,2020-07-01_09h49.03.758,retriever_ti,2020.1.3,Win32,60,Chrome,1366,768,,,,,,,,,,,,,,,,,1,,,,,,,,,,,,,,,,,,,,,,,,,,,198.69964,16,left,0.815915,dress         ,6,7,-2,0,3,198.717135,198.717135,201.216455,0,15,15,15,1,16,6,8,dress         ,seaturtle     ,html/resources/sequences_IDs/A/07_dress.jpg,html/resources/sequences_IDs/A/02_seaturtle.jpg,7,2,3,2,2,1,5,1,0,22,,,,,,,,,,,,,,,,,,,,
,,,,,22,2020-07-01_09h49.03.758,retriever_ti,2020.1.3,Win32,60,Chrome,1366,768,,,,,,,,,,,,,,,,,1,,,,,,,,,,,,,,,,,,,,,,,,,,,201.83412,17,left,1.74104,dress         ,6,7,1,1,1,201.867615,201.867615,204.366275,0,16,16,16,1,17,6,5,dress         ,slipper     ,html/resources/sequences_IDs/A/07_dress.jpg,html/resources/sequences_IDs/B/08_slipper.jpg,7,8,3,2,3,2,5,6,0,22,,,,,,,,,,,,,,,,,,,,
,,,,,22,2020-07-01_09h49.03.758,retriever_ti,2020.1.3,Win32,60,Chrome,1366,768,,,,,,,,,,,,,,,,,1,,,,,,,,,,,,,,,,,,,,,,,,,,,205.46787,18,right,1.991075,giraffe     ,7,3,-1,0,0,205.488865,205.488865,207.98291,0,17,17,17,1,18,8,7,seaturtle     ,giraffe     ,html/resources/sequences_IDs/A/02_seaturtle.jpg,html/resources/sequences_IDs/B/03_giraffe.jpg,2,3,2,1,1,1,1,2,0,22,,,,,,,,,,,,,,,,,,,,
,,,,,22,2020-07-01_09h49.03.758,retriever_ti,2020.1.3,Win32,60,Chrome,1366,768,,,,,,,,,,,,,,,,,1,,,,,,,,,,,,,,,,,,,,,,,,,,,209.08361,19,left,1.10537,slipper     ,5,8,1,1,1,209.118045,209.118045,211.615375,0,18,18,18,1,19,5,4,slipper     ,clownfish     ,html/resources/sequences_IDs/B/08_slipper.jpg,html/resources/sequences_IDs/A/04_clownfish.jpg,8,4,3,2,2,1,6,3,0,22,,,,,,,,,,,,,,,,,,,,
,,,,,22,2020-07-01_09h49.03.758,retriever_ti,2020.1.3,Win32,60,Chrome,1366,768,,,,,,,,,,,,,,,,,1,,,,,,,,,,,,,,,,,,,,,,,,,,,212.71574,20,right,0.842035,parrot      ,3,5,1,1,1,212.750095,212.750095,215.248465,0,19,19,19,1,20,2,3,satellite_dish,parrot      ,html/resources/sequences_IDs/A/10_satellite_dish.jpg,html/resources/sequences_IDs/B/05_parrot.jpg,10,5,4,2,2,1,8,4,0,22,,,,,,,,,,,,,,,,,,,,
,,,,,22,2020-07-01_09h49.03.758,retriever_ti,2020.1.3,Win32,60,Chrome,1366,768,,,,,,,,,,,,,,,,,1,,,,,,,,,,,,,,,,,,,,,,,,,,,216.349125,21,right,1.133105,dress         ,6,7,5,1,3,216.366325,216.366325,218.869825,0,20,20,20,1,21,1,6,phone       ,dress         ,html/resources/sequences_IDs/B/09_phone.jpg,html/resources/sequences_IDs/A/07_dress.jpg,9,7,4,2,3,2,7,5,0,22,,,,,,,,,,,,,,,,,,,,
,,,,,22,2020-07-01_09h49.03.758,retriever_ti,2020.1.3,Win32,60,Chrome,1366,768,,,,,,,,,,,,,,,,,1,,,,,,,,,,,,,,,,,,,,,,,,,,,219.482025,22,left,1.40001,dress         ,6,7,4,1,3,219.51653,219.51653,222.01471,0,21,21,21,1,22,6,2,dress         ,satellite_dish,html/resources/sequences_IDs/A/07_dress.jpg,html/resources/sequences_IDs/A/10_satellite_dish.jpg,7,10,3,2,4,2,5,8,0,22,,,,,,,,,,,,,,,,,,,,
,,,,,22,2020-07-01_09h49.03.758,retriever_ti,2020.1.3,Win32,60,Chrome,1366,768,,,,,,,,,,,,,,,,,1,,,,,,,,,,,,,,,,,,,,,,,,,,,222.615805,23,left,0.75393,parrot      ,3,5,1,1,1,222.64946,222.64946,225.147995,0,22,22,22,1,23,3,2,parrot      ,satellite_dish,html/resources/sequences_IDs/B/05_parrot.jpg,html/resources/sequences_IDs/A/10_satellite_dish.jpg,5,10,2,1,4,2,4,8,0,22,,,,,,,,,,,,,,,,,,,,
,,,,,22,2020-07-01_09h49.03.758,retriever_ti,2020.1.3,Win32,60,Chrome,1366,768,,,,,,,,,,,,,,,,,1,,,,,,,,,,,,,,,,,,,,,,,,,,,226.248215,24,left,0.749735,parrot      ,3,5,-4,0,3,226.265985,226.265985,228.76541,0,23,23,23,1,24,3,7,parrot      ,giraffe     ,html/resources/sequences_IDs/B/05_parrot.jpg,html/resources/sequences_IDs/B/03_giraffe.jpg,5,3,2,1,1,1,4,2,0,22,,,,,,,,,,,,,,,,,,,,
,,,,,22,2020-07-01_09h49.03.758,retriever_ti,2020.1.3,Win32,60,Chrome,1366,768,,,,,,,,,,,,,,,,,1,,,,,,,,,,,,,,,,,,,,,,,,,,,229.38249,25,right,1.227985,dress         ,6,7,1,1,1,229.41904,229.41904,231.91516,0,24,24,24,1,25,5,6,slipper     ,dress         ,html/resources/sequences_IDs/B/08_slipper.jpg,html/resources/sequences_IDs/A/07_dress.jpg,8,7,3,2,3,2,6,5,0,22,,,,,,,,,,,,,,,,,,,,
,,,,,22,2020-07-01_09h49.03.758,retriever_ti,2020.1.3,Win32,60,Chrome,1366,768,,,,,,,,,,,,,,,,,1,,,,,,,,,,,,,,,,,,,,,,,,,,,233.015995,26,left,0.918815,satellite_dish,2,10,1,1,0,233.0337,233.0337,235.531075,0,25,25,25,1,26,2,1,satellite_dish,phone       ,html/resources/sequences_IDs/A/10_satellite_dish.jpg,html/resources/sequences_IDs/B/09_phone.jpg,10,9,4,2,4,2,8,7,1,22,,,,,,,,,,,,,,,,,,,,
,,,,,22,2020-07-01_09h49.03.758,retriever_ti,2020.1.3,Win32,60,Chrome,1366,768,,,,,,,,,,,,,,,,,1,,,,,,,,,,,,,,,,,,,,,,,,,,,236.632015,27,right,0.6409,parrot      ,3,5,-4,0,3,236.64986,236.64986,239.14731,0,26,26,26,1,27,7,3,giraffe     ,parrot      ,html/resources/sequences_IDs/B/03_giraffe.jpg,html/resources/sequences_IDs/B/05_parrot.jpg,3,5,1,1,2,1,2,4,0,22,,,,,,,,,,,,,,,,,,,,
,,,,,22,2020-07-01_09h49.03.758,retriever_ti,2020.1.3,Win32,60,Chrome,1366,768,,,,,,,,,,,,,,,,,1,,,,,,,,,,,,,,,,,,,,,,,,,,,239.76431,28,right,0.84971,dress         ,6,7,-1,0,0,239.781795,239.781795,242.280425,0,27,27,27,1,28,7,6,giraffe     ,dress         ,html/resources/sequences_IDs/B/03_giraffe.jpg,html/resources/sequences_IDs/A/07_dress.jpg,3,7,1,1,3,2,2,5,0,22,,,,,,,,,,,,,,,,,,,,
,,,,,22,2020-07-01_09h49.03.758,retriever_ti,2020.1.3,Win32,60,Chrome,1366,768,,,,,,,,,,,,,,,,,1,,,,,,,,,,,,,,,,,,,,,,,,,,,243.38125,29,NaN,NaN,No_response,NaN,NaN,NaN,2,2,243.415035,243.415035,245.91361,0,28,28,28,1,29,5,6,slipper     ,dress         ,html/resources/sequences_IDs/B/08_slipper.jpg,html/resources/sequences_IDs/A/07_dress.jpg,8,7,3,2,3,2,6,5,1,22,,,,,,,,,,,,,,,,,,,,
,,,,,22,2020-07-01_09h49.03.758,retriever_ti,2020.1.3,Win32,60,Chrome,1366,768,,,,,,,,,,,,,,,,,1,,,,,,,,,,,,,,,,,,,,,,,,,,,247.01549,30,right,0.6189,parrot      ,3,5,-1,0,0,247.049535,247.049535,249.54705,0,29,29,29,1,30,4,3,clownfish     ,parrot      ,html/resources/sequences_IDs/A/04_clownfish.jpg,html/resources/sequences_IDs/B/05_parrot.jpg,4,5,2,1,2,1,3,4,0,22,,,,,,,,,,,,,,,,,,,,
,,,,,22,2020-07-01_09h49.03.758,retriever_ti,2020.1.3,Win32,60,Chrome,1366,768,,,,,,,,,,,,,,,,,1,,,,,,,,,,,,,,,,,,,,,,,,,,,250.64889,31,right,0.894045,seaturtle     ,8,2,1,1,1,250.682755,250.682755,253.1799,0,30,30,30,1,31,7,8,giraffe     ,seaturtle     ,html/resources/sequences_IDs/B/03_giraffe.jpg,html/resources/sequences_IDs/A/02_seaturtle.jpg,3,2,1,1,2,1,2,1,0,22,,,,,,,,,,,,,,,,,,,,
,,,,,22,2020-07-01_09h49.03.758,retriever_ti,2020.1.3,Win32,60,Chrome,1366,768,,,,,,,,,,,,,,,,,1,,,,,,,,,,,,,,,,,,,,,,,,,,,254.280865,32,right,1.17544,dress         ,6,7,-2,0,3,254.299135,254.299135,256.79725,0,31,31,31,1,32,8,6,seaturtle     ,dress         ,html/resources/sequences_IDs/A/02_seaturtle.jpg,html/resources/sequences_IDs/A/07_dress.jpg,2,7,2,1,3,2,1,5,0,22,,,,,,,,,,,,,,,,,,,,
,,,,,22,2020-07-01_09h49.03.758,retriever_ti,2020.1.3,Win32,60,Chrome,1366,768,,,,,,,,,,,,,,,,,1,,,,,,,,,,,,,,,,,,,,,,,,,,,257.39896,33,right,1.58529,dress         ,6,7,-1,0,0,257.415275,257.415275,259.912975,0,32,32,32,1,33,7,6,giraffe     ,dress         ,html/resources/sequences_IDs/B/03_giraffe.jpg,html/resources/sequences_IDs/A/07_dress.jpg,3,7,1,1,3,2,2,5,0,22,,,,,,,,,,,,,,,,,,,,
,,,,,22,2020-07-01_09h49.03.758,retriever_ti,2020.1.3,Win32,60,Chrome,1366,768,,,,,,,,,,,,,,,,,1,,,,,,,,,,,,,,,,,,,,,,,,,,,261.013285,34,left,1.68446,satellite_dish,2,10,1,1,1,261.03126,261.03126,263.52942,0,33,33,33,1,34,2,1,satellite_dish,phone       ,html/resources/sequences_IDs/A/10_satellite_dish.jpg,html/resources/sequences_IDs/B/09_phone.jpg,10,9,4,2,4,2,8,7,0,22,,,,,,,,,,,,,,,,,,,,
,,,,,22,2020-07-01_09h49.03.758,retriever_ti,2020.1.3,Win32,60,Chrome,1366,768,,,,,,,,,,,,,,,,,1,,,,,,,,,,,,,,,,,,,,,,,,,,,264.63014,35,right,0.864855,slipper     ,5,8,4,1,3,264.64744,264.64744,267.145955,0,34,34,34,1,35,1,5,phone       ,slipper     ,html/resources/sequences_IDs/B/09_phone.jpg,html/resources/sequences_IDs/B/08_slipper.jpg,9,8,4,2,3,2,7,6,0,22,,,,,,,,,,,,,,,,,,,,
,,,,,22,2020-07-01_09h49.03.758,retriever_ti,2020.1.3,Win32,60,Chrome,1366,768,,,,,,,,,,,,,,,,,1,,,,,,,,,,,,,,,,,,,,,,,,,,,267.763065,36,left,1.12207,dress         ,6,7,2,1,3,267.797305,267.797305,270.29663,0,35,35,35,1,36,6,4,dress         ,clownfish     ,html/resources/sequences_IDs/A/07_dress.jpg,html/resources/sequences_IDs/A/04_clownfish.jpg,7,4,3,2,2,1,5,3,0,22,,,,,,,,,,,,,,,,,,,,
,,,,,22,2020-07-01_09h49.03.758,retriever_ti,2020.1.3,Win32,60,Chrome,1366,768,,,,,,,,,,,,,,,,,1,,,,,,,,,,,,,,,,,,,,,,,,,,,270.915,37,right,1.126865,seaturtle     ,8,2,7,1,3,270.93138,270.93138,273.428925,0,36,36,36,1,37,1,8,phone       ,seaturtle     ,html/resources/sequences_IDs/B/09_phone.jpg,html/resources/sequences_IDs/A/02_seaturtle.jpg,9,2,4,2,2,1,7,1,0,22,,,,,,,,,,,,,,,,,,,,
,,,,,22,2020-07-01_09h49.03.758,retriever_ti,2020.1.3,Win32,60,Chrome,1366,768,,,,,,,,,,,,,,,,,1,,,,,,,,,,,,,,,,,,,,,,,,,,,274.046015,38,right,0.832295,parrot      ,3,5,1,1,0,274.08006,274.08006,276.578885,0,37,37,37,1,38,2,3,satellite_dish,parrot      ,html/resources/sequences_IDs/A/10_satellite_dish.jpg,html/resources/sequences_IDs/B/05_parrot.jpg,10,5,4,2,2,1,8,4,1,22,,,,,,,,,,,,,,,,,,,,
,,,,,22,2020-07-01_09h49.03.758,retriever_ti,2020.1.3,Win32,60,Chrome,1366,768,,,,,,,,,,,,,,,,,1,,,,,,,,,,,,,,,,,,,,,,,,,,,277.679985,39,right,1.767975,slipper     ,5,8,-3,0,3,277.69718,277.69718,280.19565,0,38,38,38,1,39,8,5,seaturtle     ,slipper     ,html/resources/sequences_IDs/A/02_seaturtle.jpg,html/resources/sequences_IDs/B/08_slipper.jpg,2,8,2,1,3,2,1,6,0,22,,,,,,,,,,,,,,,,,,,,
,,,,,22,2020-07-01_09h49.03.758,retriever_ti,2020.1.3,Win32,60,Chrome,1366,768,,,,,,,,,,,,,,,,,1,,,,,,,,,,,,,,,,,,,,,,,,,,,280.8126,40,left,0.849545,giraffe     ,7,3,-1,0,1,280.83062,280.83062,283.328475,0,39,39,39,1,40,7,8,giraffe     ,seaturtle     ,html/resources/sequences_IDs/B/03_giraffe.jpg,html/resources/sequences_IDs/A/02_seaturtle.jpg,3,2,1,1,2,1,2,1,1,22,,,,,,,,,,,,,,,,,,,,
,,,,,22,2020-07-01_09h49.03.758,retriever_ti,2020.1.3,Win32,60,Chrome,1366,768,,,,,,,,,,,,,,,,,1,,,,,,,,,,,,,,,,,,,,,,,,,,,284.429525,41,left,0.88584,dress         ,6,7,1,1,1,284.44683,284.44683,286.945105,0,40,40,40,1,41,6,5,dress         ,slipper     ,html/resources/sequences_IDs/A/07_dress.jpg,html/resources/sequences_IDs/B/08_slipper.jpg,7,8,3,2,3,2,5,6,0,22,,,,,,,,,,,,,,,,,,,,
,,,,,22,2020-07-01_09h49.03.758,retriever_ti,2020.1.3,Win32,60,Chrome,1366,768,,,,,,,,,,,,,,,,,1,,,,,,,,,,,,,,,,,,,,,,,,,,,288.045945,42,left,0.79965,satellite_dish,2,10,-3,0,3,288.08026,288.08026,290.578225,0,41,41,41,1,42,2,5,satellite_dish,slipper     ,html/resources/sequences_IDs/A/10_satellite_dish.jpg,html/resources/sequences_IDs/B/08_slipper.jpg,10,8,4,2,3,2,8,6,0,22,,,,,,,,,,,,,,,,,,,,
,,,,,22,2020-07-01_09h49.03.758,retriever_ti,2020.1.3,Win32,60,Chrome,1366,768,,,,,,,,,,,,,,,,,1,,,,,,,,,,,,,,,,,,,,,,,,,,,291.19589,43,right,1.400495,giraffe     ,7,3,1,1,1,291.229265,291.229265,293.727965,0,42,42,42,1,43,6,7,dress         ,giraffe     ,html/resources/sequences_IDs/A/07_dress.jpg,html/resources/sequences_IDs/B/03_giraffe.jpg,7,3,3,2,1,1,5,2,0,22,,,,,,,,,,,,,,,,,,,,
,,,,,22,2020-07-01_09h49.03.758,retriever_ti,2020.1.3,Win32,60,Chrome,1366,768,,,,,,,,,,,,,,,,,1,,,,,,,,,,,,,,,,,,,,,,,,,,,294.82867,44,right,0.80551,parrot      ,3,5,-5,0,3,294.86341,294.86341,297.362215,0,43,43,43,1,44,8,3,seaturtle     ,parrot      ,html/resources/sequences_IDs/A/02_seaturtle.jpg,html/resources/sequences_IDs/B/05_parrot.jpg,2,5,2,1,2,1,1,4,0,22,,,,,,,,,,,,,,,,,,,,
,,,,,22,2020-07-01_09h49.03.758,retriever_ti,2020.1.3,Win32,60,Chrome,1366,768,,,,,,,,,,,,,,,,,1,,,,,,,,,,,,,,,,,,,,,,,,,,,297.980355,45,right,1.037845,giraffe     ,7,3,1,1,1,297.998545,297.998545,300.49457,0,44,44,44,1,45,6,7,dress         ,giraffe     ,html/resources/sequences_IDs/A/07_dress.jpg,html/resources/sequences_IDs/B/03_giraffe.jpg,7,3,3,2,1,1,5,2,0,22,,,,,,,,,,,,,,,,,,,,
,,,,,22,2020-07-01_09h49.03.758,retriever_ti,2020.1.3,Win32,60,Chrome,1366,768,,,,,,,,,,,,,,,,,1,,,,,,,,,,,,,,,,,,,,,,,,,,,301.595135,46,left,0.88843,giraffe     ,7,3,3,1,3,301.62964,301.62964,304.12755,0,45,45,45,1,46,7,4,giraffe     ,clownfish     ,html/resources/sequences_IDs/B/03_giraffe.jpg,html/resources/sequences_IDs/A/04_clownfish.jpg,3,4,1,1,2,1,2,3,0,22,,,,,,,,,,,,,,,,,,,,
,,,,,22,2020-07-01_09h49.03.758,retriever_ti,2020.1.3,Win32,60,Chrome,1366,768,,,,,,,,,,,,,,,,,1,,,,,,,,,,,,,,,,,,,,,,,,,,,304.729435,47,right,0.988625,parrot      ,3,5,-2,0,3,304.74674,304.74674,307.24402,0,46,46,46,1,47,5,3,slipper     ,parrot      ,html/resources/sequences_IDs/B/08_slipper.jpg,html/resources/sequences_IDs/B/05_parrot.jpg,8,5,3,2,2,1,6,4,0,22,,,,,,,,,,,,,,,,,,,,
,,,,,22,2020-07-01_09h49.03.758,retriever_ti,2020.1.3,Win32,60,Chrome,1366,768,,,,,,,,,,,,,,,,,1,,,,,,,,,,,,,,,,,,,,,,,,,,,307.84499,48,left,1.077345,satellite_dish,2,10,1,1,1,307.863525,307.863525,310.36119,0,47,47,47,1,48,2,1,satellite_dish,phone       ,html/resources/sequences_IDs/A/10_satellite_dish.jpg,html/resources/sequences_IDs/B/09_phone.jpg,10,9,4,2,4,2,8,7,0,22,,,,,,,,,,,,,,,,,,,,
,,,,,22,2020-07-01_09h49.03.758,retriever_ti,2020.1.3,Win32,60,Chrome,1366,768,,,,,,,,,,,,,,,,,1,,,,,,,,,,,,,,,,,,,,,,,,,,,311.46217,49,right,1.11833,phone       ,1,9,-3,0,3,311.49822,311.49822,313.993805,0,48,48,48,1,49,4,1,clownfish     ,phone       ,html/resources/sequences_IDs/A/04_clownfish.jpg,html/resources/sequences_IDs/B/09_phone.jpg,4,9,2,1,4,2,3,7,0,22,,,,,,,,,,,,,,,,,,,,
,,,,,22,2020-07-01_09h49.03.758,retriever_ti,2020.1.3,Win32,60,Chrome,1366,768,,,,,,,,,,,,,,,,,1,,,,,,,,,,,,,,,,,,,,,,,,,,,314.61102,50,right,0.837595,satellite_dish,2,10,1,1,1,314.645775,314.645775,317.14348,0,49,49,49,1,50,1,2,phone       ,satellite_dish,html/resources/sequences_IDs/B/09_phone.jpg,html/resources/sequences_IDs/A/10_satellite_dish.jpg,9,10,4,2,4,2,7,8,0,22,,,,,,,,,,,,,,,,,,,,
,,,,,22,2020-07-01_09h49.03.758,retriever_ti,2020.1.3,Win32,60,Chrome,1366,768,,,,,,,,,,,,,,,,,1,,,,,,,,,,,,,,,,,,,,,,,,,,,318.245345,51,right,0.84208,clownfish     ,4,4,3,1,3,318.261665,318.261665,320.76,0,50,50,50,1,51,1,4,phone       ,clownfish     ,html/resources/sequences_IDs/B/09_phone.jpg,html/resources/sequences_IDs/A/04_clownfish.jpg,9,4,4,2,2,1,7,3,0,22,,,,,,,,,,,,,,,,,,,,
,,,,,22,2020-07-01_09h49.03.758,retriever_ti,2020.1.3,Win32,60,Chrome,1366,768,,,,,,,,,,,,,,,,,1,,,,,,,,,,,,,,,,,,,,,,,,,,,321.360845,52,left,0.933285,clownfish     ,4,4,-4,0,3,321.39608,321.39608,323.893965,0,51,51,51,1,52,4,8,clownfish     ,seaturtle     ,html/resources/sequences_IDs/A/04_clownfish.jpg,html/resources/sequences_IDs/A/02_seaturtle.jpg,4,2,2,1,2,1,3,1,0,22,,,,,,,,,,,,,,,,,,,,
,,,,,22,2020-07-01_09h49.03.758,retriever_ti,2020.1.3,Win32,60,Chrome,1366,768,,,,,,,,,,,,,,,,,1,,,,,,,,,,,,,,,,,,,,,,,,,,,324.512225,53,left,0.69712,parrot      ,3,5,-5,0,3,324.546605,324.546605,327.0432,0,52,52,52,1,53,3,8,parrot      ,seaturtle     ,html/resources/sequences_IDs/B/05_parrot.jpg,html/resources/sequences_IDs/A/02_seaturtle.jpg,5,2,2,1,2,1,4,1,0,22,,,,,,,,,,,,,,,,,,,,
,,,,,22,2020-07-01_09h49.03.758,retriever_ti,2020.1.3,Win32,60,Chrome,1366,768,,,,,,,,,,,,,,,,,1,,,,,,,,,,,,,,,,,,,,,,,,,,,327.66062,54,right,0.87987,parrot      ,3,5,-1,0,0,327.69508,327.69508,330.19293,0,53,53,53,1,54,4,3,clownfish     ,parrot      ,html/resources/sequences_IDs/A/04_clownfish.jpg,html/resources/sequences_IDs/B/05_parrot.jpg,4,5,2,1,2,1,3,4,0,22,,,,,,,,,,,,,,,,,,,,
,,,,,22,2020-07-01_09h49.03.758,retriever_ti,2020.1.3,Win32,60,Chrome,1366,768,,,,,,,,,,,,,,,,,1,,,,,,,,,,,,,,,,,,,,,,,,,,,331.29445,55,left,0.90791,seaturtle     ,8,2,7,1,3,331.311585,331.311585,333.81021,0,54,54,54,1,55,8,1,seaturtle     ,phone       ,html/resources/sequences_IDs/A/02_seaturtle.jpg,html/resources/sequences_IDs/B/09_phone.jpg,2,9,2,1,4,2,1,7,0,22,,,,,,,,,,,,,,,,,,,,
,,,,,22,2020-07-01_09h49.03.758,retriever_ti,2020.1.3,Win32,60,Chrome,1366,768,,,,,,,,,,,,,,,,,1,,,,,,,,,,,,,,,,,,,,,,,,,,,334.411445,56,NaN,NaN,No_response,NaN,NaN,NaN,2,2,334.44611,334.44611,336.94252,0,55,55,55,1,56,3,4,parrot      ,clownfish     ,html/resources/sequences_IDs/B/05_parrot.jpg,html/resources/sequences_IDs/A/04_clownfish.jpg,5,4,2,1,2,1,4,3,0,22,,,,,,,,,,,,,,,,,,,,
,,,,,22,2020-07-01_09h49.03.758,retriever_ti,2020.1.3,Win32,60,Chrome,1366,768,,,,,,,,,,,,,,,,,1,,,,,,,,,,,,,,,,,,,,,,,,,,,338.04411,57,right,0.90448,dress         ,6,7,4,1,3,338.06039,338.06039,340.55908,0,56,56,56,1,57,2,6,satellite_dish,dress         ,html/resources/sequences_IDs/A/10_satellite_dish.jpg,html/resources/sequences_IDs/A/07_dress.jpg,10,7,4,2,3,2,8,5,0,22,,,,,,,,,,,,,,,,,,,,
,,,,,22,2020-07-01_09h49.03.758,retriever_ti,2020.1.3,Win32,60,Chrome,1366,768,,,,,,,,,,,,,,,,,1,,,,,,,,,,,,,,,,,,,,,,,,,,,341.1764,58,left,0.597545,satellite_dish,2,10,-2,0,3,341.19381,341.19381,343.69215,0,57,57,57,1,58,2,4,satellite_dish,clownfish     ,html/resources/sequences_IDs/A/10_satellite_dish.jpg,html/resources/sequences_IDs/A/04_clownfish.jpg,10,4,4,2,2,1,8,3,0,22,,,,,,,,,,,,,,,,,,,,
,,,,,22,2020-07-01_09h49.03.758,retriever_ti,2020.1.3,Win32,60,Chrome,1366,768,,,,,,,,,,,,,,,,,1,,,,,,,,,,,,,,,,,,,,,,,,,,,344.29334,59,right,1.00455,satellite_dish,2,10,-6,0,3,344.310245,344.310245,346.808735,0,58,58,58,1,59,8,2,seaturtle     ,satellite_dish,html/resources/sequences_IDs/A/02_seaturtle.jpg,html/resources/sequences_IDs/A/10_satellite_dish.jpg,2,10,2,1,4,2,1,8,0,22,,,,,,,,,,,,,,,,,,,,
,,,,,22,2020-07-01_09h49.03.758,retriever_ti,2020.1.3,Win32,60,Chrome,1366,768,,,,,,,,,,,,,,,,,1,,,,,,,,,,,,,,,,,,,,,,,,,,,347.42597,60,right,0.71813,giraffe     ,7,3,3,1,3,347.461145,347.461145,349.958665,0,59,59,59,1,60,4,7,clownfish     ,giraffe     ,html/resources/sequences_IDs/A/04_clownfish.jpg,html/resources/sequences_IDs/B/03_giraffe.jpg,4,3,2,1,1,1,3,2,0,22,,,,,,,,,,,,,,,,,,,,
,,,,,22,2020-07-01_09h49.03.758,retriever_ti,2020.1.3,Win32,60,Chrome,1366,768,,,,,,,,,,,,,,,,,1,,,,,,,,,,,,,,,,,,,,,,,,,,,350.575975,61,left,0.796435,parrot      ,3,5,2,1,3,350.609815,350.609815,353.10841,0,60,60,60,1,61,3,1,parrot      ,phone       ,html/resources/sequences_IDs/B/05_parrot.jpg,html/resources/sequences_IDs/B/09_phone.jpg,5,9,2,1,4,2,4,7,0,22,,,,,,,,,,,,,,,,,,,,
,,,,,22,2020-07-01_09h49.03.758,retriever_ti,2020.1.3,Win32,60,Chrome,1366,768,,,,,,,,,,,,,,,,,1,,,,,,,,,,,,,,,,,,,,,,,,,,,353.70899,62,right,1.050265,clownfish     ,4,4,-1,0,1,353.743155,353.743155,356.241685,0,61,61,61,1,62,5,4,slipper     ,clownfish     ,html/resources/sequences_IDs/B/08_slipper.jpg,html/resources/sequences_IDs/A/04_clownfish.jpg,8,4,3,2,2,1,6,3,1,22,,,,,,,,,,,,,,,,,,,,
,,,,,22,2020-07-01_09h49.03.758,retriever_ti,2020.1.3,Win32,60,Chrome,1366,768,,,,,,,,,,,,,,,,,1,,,,,,,,,,,,,,,,,,,,,,,,,,,357.342645,63,right,0.72118,giraffe     ,7,3,-1,0,0,357.37733,357.37733,359.874955,0,62,62,62,1,63,8,7,seaturtle     ,giraffe     ,html/resources/sequences_IDs/A/02_seaturtle.jpg,html/resources/sequences_IDs/B/03_giraffe.jpg,2,3,2,1,1,1,1,2,0,22,,,,,,,,,,,,,,,,,,,,
,,,,,22,2020-07-01_09h49.03.758,retriever_ti,2020.1.3,Win32,60,Chrome,1366,768,,,,,,,,,,,,,,,,,1,,,,,,,,,,,,,,,,,,,,,,,,,,,360.975135,64,left,1.399035,clownfish     ,4,4,-1,0,0,360.992955,360.992955,363.79206,0,63,63,63,1,64,4,5,clownfish     ,slipper     ,html/resources/sequences_IDs/A/04_clownfish.jpg,html/resources/sequences_IDs/B/08_slipper.jpg,4,8,2,1,3,2,3,6,0,22,,,,,,,,,,,,,,,,,,,,
,,,,,22,2020-07-01_09h49.03.758,retriever_ti,2020.1.3,Win32,60,Chrome,1366,768,,,,,,,,,,,,,,,,,1,,,,,,,,,,,,,,,,,,,,,,,,,,,364.89312,65,left,1.19684,parrot      ,3,5,-3,0,3,364.926865,364.926865,367.42457,0,64,64,64,1,65,3,6,parrot      ,dress         ,html/resources/sequences_IDs/B/05_parrot.jpg,html/resources/sequences_IDs/A/07_dress.jpg,5,7,2,1,3,2,4,5,0,22,,,,,,,,,,,,,,,,,,,,
,,,,,22,2020-07-01_09h49.03.758,retriever_ti,2020.1.3,Win32,60,Chrome,1366,768,,,,,,,,,,,,,,,,,1,,,,,,,,,,,,,,,,,,,,,,,,,,,368.041805,66,right,0.95002,parrot      ,3,5,1,1,1,368.059555,368.059555,370.558395,0,65,65,65,1,66,2,3,satellite_dish,parrot      ,html/resources/sequences_IDs/A/10_satellite_dish.jpg,html/resources/sequences_IDs/B/05_parrot.jpg,10,5,4,2,2,1,8,4,0,22,,,,,,,,,,,,,,,,,,,,
,,,,,22,2020-07-01_09h49.03.758,retriever_ti,2020.1.3,Win32,60,Chrome,1366,768,,,,,,,,,,,,,,,,,1,,,,,,,,,,,,,,,,,,,,,,,,,,,371.659825,67,right,0.691885,clownfish     ,4,4,-1,0,0,371.67755,371.67755,374.174295,0,66,66,66,1,67,5,4,slipper     ,clownfish     ,html/resources/sequences_IDs/B/08_slipper.jpg,html/resources/sequences_IDs/A/04_clownfish.jpg,8,4,3,2,2,1,6,3,0,22,,,,,,,,,,,,,,,,,,,,
,,,,,22,2020-07-01_09h49.03.758,retriever_ti,2020.1.3,Win32,60,Chrome,1366,768,,,,,,,,,,,,,,,,,1,,,,,,,,,,,,,,,,,,,,,,,,,,,375.274845,68,right,0.98346,satellite_dish,2,10,-1,0,0,375.309445,375.309445,377.807345,0,67,67,67,1,68,3,2,parrot      ,satellite_dish,html/resources/sequences_IDs/B/05_parrot.jpg,html/resources/sequences_IDs/A/10_satellite_dish.jpg,5,10,2,1,4,2,4,8,0,22,,,,,,,,,,,,,,,,,,,,
,,,,,22,2020-07-01_09h49.03.758,retriever_ti,2020.1.3,Win32,60,Chrome,1366,768,,,,,,,,,,,,,,,,,1,,,,,,,,,,,,,,,,,,,,,,,,,,,378.9087,69,right,0.57774,giraffe     ,7,3,2,1,3,378.94259,378.94259,381.440725,0,68,68,68,1,69,5,7,slipper     ,giraffe     ,html/resources/sequences_IDs/B/08_slipper.jpg,html/resources/sequences_IDs/B/03_giraffe.jpg,8,3,3,2,1,1,6,2,0,22,,,,,,,,,,,,,,,,,,,,
,,,,,22,2020-07-01_09h49.03.758,retriever_ti,2020.1.3,Win32,60,Chrome,1366,768,,,,,,,,,,,,,,,,,1,,,,,,,,,,,,,,,,,,,,,,,,,,,382.05794,70,left,0.560565,giraffe     ,7,3,5,1,3,382.09262,382.09262,384.59032,0,69,69,69,1,70,7,2,giraffe     ,satellite_dish,html/resources/sequences_IDs/B/03_giraffe.jpg,html/resources/sequences_IDs/A/10_satellite_dish.jpg,3,10,1,1,4,2,2,8,0,22,,,,,,,,,,,,,,,,,,,,
,,,,,22,2020-07-01_09h49.03.758,retriever_ti,2020.1.3,Win32,60,Chrome,1366,768,,,,,,,,,,,,,,,,,1,,,,,,,,,,,,,,,,,,,,,,,,,,,385.20817,71,left,0.651075,giraffe     ,7,3,6,1,3,385.22512,385.22512,387.723385,0,70,70,70,1,71,7,1,giraffe     ,phone       ,html/resources/sequences_IDs/B/03_giraffe.jpg,html/resources/sequences_IDs/B/09_phone.jpg,3,9,1,1,4,2,2,7,0,22,,,,,,,,,,,,,,,,,,,,
,,,,,22,2020-07-01_09h49.03.758,retriever_ti,2020.1.3,Win32,60,Chrome,1366,768,,,,,,,,,,,,,,,,,1,,,,,,,,,,,,,,,,,,,,,,,,,,,388.340915,72,right,0.4208,giraffe     ,7,3,6,1,3,388.358285,388.358285,390.85674,0,71,71,71,1,72,1,7,phone       ,giraffe     ,html/resources/sequences_IDs/B/09_phone.jpg,html/resources/sequences_IDs/B/03_giraffe.jpg,9,3,4,2,1,1,7,2,0,22,,,,,,,,,,,,,,,,,,,,
,,,,,22,2020-07-01_09h49.03.758,retriever_ti,2020.1.3,Win32,60,Chrome,1366,768,,,,,,,,,,,,,,,,,1,,,,,,,,,,,,,,,,,,,,,,,,,,,391.47476,73,left,0.725585,dress         ,6,7,5,1,3,391.492595,391.492595,393.98993,0,72,72,72,1,73,6,1,dress         ,phone       ,html/resources/sequences_IDs/A/07_dress.jpg,html/resources/sequences_IDs/B/09_phone.jpg,7,9,3,2,4,2,5,7,0,22,,,,,,,,,,,,,,,,,,,,
,,,,,22,2020-07-01_09h49.03.758,retriever_ti,2020.1.3,Win32,60,Chrome,1366,768,,,,,,,,,,,,,,,,,1,,,,,,,,,,,,,,,,,,,,,,,,,,,394.60681,74,right,0.991785,giraffe     ,7,3,5,1,3,394.64129,394.64129,397.14057,0,73,73,73,1,74,2,7,satellite_dish,giraffe     ,html/resources/sequences_IDs/A/10_satellite_dish.jpg,html/resources/sequences_IDs/B/03_giraffe.jpg,10,3,4,2,1,1,8,2,0,22,,,,,,,,,,,,,,,,,,,,
,,,,,22,2020-07-01_09h49.03.758,retriever_ti,2020.1.3,Win32,60,Chrome,1366,768,,,,,,,,,,,,,,,,,1,,,,,,,,,,,,,,,,,,,,,,,,,,,397.74174,75,left,1.015815,slipper     ,5,8,-1,0,0,397.759015,397.759015,400.256125,0,74,74,74,1,75,5,6,slipper     ,dress         ,html/resources/sequences_IDs/B/08_slipper.jpg,html/resources/sequences_IDs/A/07_dress.jpg,8,7,3,2,3,2,6,5,0,22,,,,,,,,,,,,,,,,,,,,
,,,,,22,2020-07-01_09h49.03.758,retriever_ti,2020.1.3,Win32,60,Chrome,1366,768,,,,,,,,,,,,,,,,,1,,,,,,,,,,,,,,,,,,,,,,,,,,,401.35651,76,left,0.620035,parrot      ,3,5,-1,0,0,401.374075,401.374075,403.87262,0,75,75,75,1,76,3,4,parrot      ,clownfish     ,html/resources/sequences_IDs/B/05_parrot.jpg,html/resources/sequences_IDs/A/04_clownfish.jpg,5,4,2,1,2,1,4,3,0,22,,,,,,,,,,,,,,,,,,,,
,,,,,22,2020-07-01_09h49.03.758,retriever_ti,2020.1.3,Win32,60,Chrome,1366,768,,,,,,,,,,,,,,,,,1,,,,,,,,,,,,,,,,,,,,,,,,,,,404.97389,77,left,1.337075,clownfish     ,4,4,2,1,3,405.007615,405.007615,407.505845,0,76,76,76,1,77,4,2,clownfish     ,satellite_dish,html/resources/sequences_IDs/A/04_clownfish.jpg,html/resources/sequences_IDs/A/10_satellite_dish.jpg,4,10,2,1,4,2,3,8,0,22,,,,,,,,,,,,,,,,,,,,
,,,,,22,2020-07-01_09h49.03.758,retriever_ti,2020.1.3,Win32,60,Chrome,1366,768,,,,,,,,,,,,,,,,,,,,,,,,,,,,,,,,,,,,,0,2.7529,,,,,,,,,,,,,,,,,,,,,,,,,,,,,,,,,,,,,,,,,0,0,0,0,1,,,,,,,,,,,,,,,
,,,,,22,2020-07-01_09h49.03.758,retriever_ti,2020.1.3,Win32,60,Chrome,1366,768,,,,,,,,,,,,,,,,,2,,,,,,,,,,,,,,,,,,,,,,,,,,,472.59603,78,left,1.364815,dress         ,6,7,-1,0,0,472.60426,472.60426,475.102795,0,0,0,0,1,78,6,7,dress         ,giraffe     ,html/resources/sequences_IDs/A/07_dress.jpg,html/resources/sequences_IDs/B/03_giraffe.jpg,7,3,3,2,1,1,5,2,0,22,,,,,,,,,,,,,,,,,,,,
,,,,,22,2020-07-01_09h49.03.758,retriever_ti,2020.1.3,Win32,60,Chrome,1366,768,,,,,,,,,,,,,,,,,2,,,,,,,,,,,,,,,,,,,,,,,,,,,476.204205,79,right,0.876725,giraffe     ,7,3,5,1,3,476.22136,476.22136,478.71898,0,1,1,1,1,79,2,7,satellite_dish,giraffe     ,html/resources/sequences_IDs/A/10_satellite_dish.jpg,html/resources/sequences_IDs/B/03_giraffe.jpg,10,3,4,2,1,1,8,2,0,22,,,,,,,,,,,,,,,,,,,,
,,,,,22,2020-07-01_09h49.03.758,retriever_ti,2020.1.3,Win32,60,Chrome,1366,768,,,,,,,,,,,,,,,,,2,,,,,,,,,,,,,,,,,,,,,,,,,,,479.336445,80,left,0.489165,giraffe     ,7,3,1,1,1,479.370175,479.370175,481.86892,0,2,2,2,1,80,7,6,giraffe     ,dress         ,html/resources/sequences_IDs/B/03_giraffe.jpg,html/resources/sequences_IDs/A/07_dress.jpg,3,7,1,1,3,2,2,5,0,22,,,,,,,,,,,,,,,,,,,,
,,,,,22,2020-07-01_09h49.03.758,retriever_ti,2020.1.3,Win32,60,Chrome,1366,768,,,,,,,,,,,,,,,,,2,,,,,,,,,,,,,,,,,,,,,,,,,,,482.9702,81,left,0.811055,giraffe     ,7,3,5,1,3,483.003865,483.003865,485.502065,0,3,3,3,1,81,7,2,giraffe     ,satellite_dish,html/resources/sequences_IDs/B/03_giraffe.jpg,html/resources/sequences_IDs/A/10_satellite_dish.jpg,3,10,1,1,4,2,2,8,0,22,,,,,,,,,,,,,,,,,,,,
,,,,,22,2020-07-01_09h49.03.758,retriever_ti,2020.1.3,Win32,60,Chrome,1366,768,,,,,,,,,,,,,,,,,2,,,,,,,,,,,,,,,,,,,,,,,,,,,486.119265,82,right,1.0577,clownfish     ,4,4,1,1,0,486.137115,486.137115,488.635165,0,4,4,4,1,82,3,4,parrot      ,clownfish     ,html/resources/sequences_IDs/B/05_parrot.jpg,html/resources/sequences_IDs/A/04_clownfish.jpg,5,4,2,1,2,1,4,3,1,22,,,,,,,,,,,,,,,,,,,,
,,,,,22,2020-07-01_09h49.03.758,retriever_ti,2020.1.3,Win32,60,Chrome,1366,768,,,,,,,,,,,,,,,,,2,,,,,,,,,,,,,,,,,,,,,,,,,,,489.737255,83,left,0.547365,parrot      ,3,5,-2,0,3,489.75484,489.75484,492.25184,0,5,5,5,1,83,3,5,parrot      ,slipper     ,html/resources/sequences_IDs/B/05_parrot.jpg,html/resources/sequences_IDs/B/08_slipper.jpg,5,8,2,1,3,2,4,6,0,22,,,,,,,,,,,,,,,,,,,,
,,,,,22,2020-07-01_09h49.03.758,retriever_ti,2020.1.3,Win32,60,Chrome,1366,768,,,,,,,,,,,,,,,,,2,,,,,,,,,,,,,,,,,,,,,,,,,,,492.868865,84,left,0.984295,slipper     ,5,8,3,1,3,492.903495,492.903495,495.40153,0,6,6,6,1,84,5,2,slipper     ,satellite_dish,html/resources/sequences_IDs/B/08_slipper.jpg,html/resources/sequences_IDs/A/10_satellite_dish.jpg,8,10,3,2,4,2,6,8,0,22,,,,,,,,,,,,,,,,,,,,
,,,,,22,2020-07-01_09h49.03.758,retriever_ti,2020.1.3,Win32,60,Chrome,1366,768,,,,,,,,,,,,,,,,,2,,,,,,,,,,,,,,,,,,,,,,,,,,,496.019155,85,right,1.08562,clownfish     ,4,4,3,1,3,496.03601,496.03601,498.53478,0,7,7,7,1,85,1,4,phone       ,clownfish     ,html/resources/sequences_IDs/B/09_phone.jpg,html/resources/sequences_IDs/A/04_clownfish.jpg,9,4,4,2,2,1,7,3,0,22,,,,,,,,,,,,,,,,,,,,
,,,,,22,2020-07-01_09h49.03.758,retriever_ti,2020.1.3,Win32,60,Chrome,1366,768,,,,,,,,,,,,,,,,,2,,,,,,,,,,,,,,,,,,,,,,,,,,,499.15189,86,left,0.58184,parrot      ,3,5,2,1,3,499.1698,499.1698,501.667955,0,8,8,8,1,86,3,1,parrot      ,phone       ,html/resources/sequences_IDs/B/05_parrot.jpg,html/resources/sequences_IDs/B/09_phone.jpg,5,9,2,1,4,2,4,7,0,22,,,,,,,,,,,,,,,,,,,,
,,,,,22,2020-07-01_09h49.03.758,retriever_ti,2020.1.3,Win32,60,Chrome,1366,768,,,,,,,,,,,,,,,,,2,,,,,,,,,,,,,,,,,,,,,,,,,,,502.28552,87,left,1.176465,dress         ,6,7,5,1,3,502.303255,502.303255,504.80111,0,9,9,9,1,87,6,1,dress         ,phone       ,html/resources/sequences_IDs/A/07_dress.jpg,html/resources/sequences_IDs/B/09_phone.jpg,7,9,3,2,4,2,5,7,0,22,,,,,,,,,,,,,,,,,,,,
,,,,,22,2020-07-01_09h49.03.758,retriever_ti,2020.1.3,Win32,60,Chrome,1366,768,,,,,,,,,,,,,,,,,2,,,,,,,,,,,,,,,,,,,,,,,,,,,505.418415,88,right,1.061805,seaturtle     ,8,2,4,1,3,505.452375,505.452375,507.951305,0,10,10,10,1,88,4,8,clownfish     ,seaturtle     ,html/resources/sequences_IDs/A/04_clownfish.jpg,html/resources/sequences_IDs/A/02_seaturtle.jpg,4,2,2,1,2,1,3,1,0,22,,,,,,,,,,,,,,,,,,,,
,,,,,22,2020-07-01_09h49.03.758,retriever_ti,2020.1.3,Win32,60,Chrome,1366,768,,,,,,,,,,,,,,,,,2,,,,,,,,,,,,,,,,,,,,,,,,,,,508.570365,89,right,1.154165,clownfish     ,4,4,1,1,1,508.58852,508.58852,511.08512,0,11,11,11,1,89,3,4,parrot      ,clownfish     ,html/resources/sequences_IDs/B/05_parrot.jpg,html/resources/sequences_IDs/A/04_clownfish.jpg,5,4,2,1,2,1,4,3,0,22,,,,,,,,,,,,,,,,,,,,
,,,,,22,2020-07-01_09h49.03.758,retriever_ti,2020.1.3,Win32,60,Chrome,1366,768,,,,,,,,,,,,,,,,,2,,,,,,,,,,,,,,,,,,,,,,,,,,,512.185935,90,left,0.931935,seaturtle     ,8,2,7,1,3,512.204125,512.204125,514.70144,0,12,12,12,1,90,8,1,seaturtle     ,phone       ,html/resources/sequences_IDs/A/02_seaturtle.jpg,html/resources/sequences_IDs/B/09_phone.jpg,2,9,2,1,4,2,1,7,0,22,,,,,,,,,,,,,,,,,,,,
,,,,,22,2020-07-01_09h49.03.758,retriever_ti,2020.1.3,Win32,60,Chrome,1366,768,,,,,,,,,,,,,,,,,2,,,,,,,,,,,,,,,,,,,,,,,,,,,515.319115,91,right,1.604445,clownfish     ,4,4,-3,0,3,515.33671,515.33671,517.834185,0,13,13,13,1,91,7,4,giraffe     ,clownfish     ,html/resources/sequences_IDs/B/03_giraffe.jpg,html/resources/sequences_IDs/A/04_clownfish.jpg,3,4,1,1,2,1,2,3,0,22,,,,,,,,,,,,,,,,,,,,
,,,,,22,2020-07-01_09h49.03.758,retriever_ti,2020.1.3,Win32,60,Chrome,1366,768,,,,,,,,,,,,,,,,,2,,,,,,,,,,,,,,,,,,,,,,,,,,,518.452975,92,right,0.987175,giraffe     ,7,3,1,1,1,518.486025,518.486025,520.98371,0,14,14,14,1,92,6,7,dress         ,giraffe     ,html/resources/sequences_IDs/A/07_dress.jpg,html/resources/sequences_IDs/B/03_giraffe.jpg,7,3,3,2,1,1,5,2,0,22,,,,,,,,,,,,,,,,,,,,
,,,,,22,2020-07-01_09h49.03.758,retriever_ti,2020.1.3,Win32,60,Chrome,1366,768,,,,,,,,,,,,,,,,,2,,,,,,,,,,,,,,,,,,,,,,,,,,,522.08482,93,left,1.71711,slipper     ,5,8,2,1,3,522.1019,522.1019,524.60115,0,15,15,15,1,93,5,3,slipper     ,parrot      ,html/resources/sequences_IDs/B/08_slipper.jpg,html/resources/sequences_IDs/B/05_parrot.jpg,8,5,3,2,2,1,6,4,0,22,,,,,,,,,,,,,,,,,,,,
,,,,,22,2020-07-01_09h49.03.758,retriever_ti,2020.1.3,Win32,60,Chrome,1366,768,,,,,,,,,,,,,,,,,2,,,,,,,,,,,,,,,,,,,,,,,,,,,525.218905,94,right,0.876725,slipper     ,5,8,-1,0,0,525.254255,525.254255,527.750105,0,16,16,16,1,94,6,5,dress         ,slipper     ,html/resources/sequences_IDs/A/07_dress.jpg,html/resources/sequences_IDs/B/08_slipper.jpg,7,8,3,2,3,2,5,6,0,22,,,,,,,,,,,,,,,,,,,,
,,,,,22,2020-07-01_09h49.03.758,retriever_ti,2020.1.3,Win32,60,Chrome,1366,768,,,,,,,,,,,,,,,,,2,,,,,,,,,,,,,,,,,,,,,,,,,,,528.851465,95,right,1.46914,parrot      ,3,5,-3,0,3,528.86885,528.86885,531.36663,0,17,17,17,1,95,6,3,dress         ,parrot      ,html/resources/sequences_IDs/A/07_dress.jpg,html/resources/sequences_IDs/B/05_parrot.jpg,7,5,3,2,2,1,5,4,0,22,,,,,,,,,,,,,,,,,,,,
,,,,,22,2020-07-01_09h49.03.758,retriever_ti,2020.1.3,Win32,60,Chrome,1366,768,,,,,,,,,,,,,,,,,2,,,,,,,,,,,,,,,,,,,,,,,,,,,531.983535,96,left,0.91225,satellite_dish,2,10,1,1,1,532.00157,532.00157,534.4996,0,18,18,18,1,96,2,1,satellite_dish,phone       ,html/resources/sequences_IDs/A/10_satellite_dish.jpg,html/resources/sequences_IDs/B/09_phone.jpg,10,9,4,2,4,2,8,7,0,22,,,,,,,,,,,,,,,,,,,,
,,,,,22,2020-07-01_09h49.03.758,retriever_ti,2020.1.3,Win32,60,Chrome,1366,768,,,,,,,,,,,,,,,,,2,,,,,,,,,,,,,,,,,,,,,,,,,,,535.601085,97,right,0.74379,slipper     ,5,8,-3,0,3,535.634645,535.634645,538.132795,0,19,19,19,1,97,8,5,seaturtle     ,slipper     ,html/resources/sequences_IDs/A/02_seaturtle.jpg,html/resources/sequences_IDs/B/08_slipper.jpg,2,8,2,1,3,2,1,6,0,22,,,,,,,,,,,,,,,,,,,,
,,,,,22,2020-07-01_09h49.03.758,retriever_ti,2020.1.3,Win32,60,Chrome,1366,768,,,,,,,,,,,,,,,,,2,,,,,,,,,,,,,,,,,,,,,,,,,,,538.749965,98,right,0.709495,satellite_dish,2,10,1,1,1,538.767465,538.767465,541.26604,0,20,20,20,1,98,1,2,phone       ,satellite_dish,html/resources/sequences_IDs/B/09_phone.jpg,html/resources/sequences_IDs/A/10_satellite_dish.jpg,9,10,4,2,4,2,7,8,0,22,,,,,,,,,,,,,,,,,,,,
,,,,,22,2020-07-01_09h49.03.758,retriever_ti,2020.1.3,Win32,60,Chrome,1366,768,,,,,,,,,,,,,,,,,2,,,,,,,,,,,,,,,,,,,,,,,,,,,542.367125,99,right,0.588565,parrot      ,3,5,1,1,1,542.40063,542.40063,544.899195,0,21,21,21,1,99,2,3,satellite_dish,parrot      ,html/resources/sequences_IDs/A/10_satellite_dish.jpg,html/resources/sequences_IDs/B/05_parrot.jpg,10,5,4,2,2,1,8,4,0,22,,,,,,,,,,,,,,,,,,,,
,,,,,22,2020-07-01_09h49.03.758,retriever_ti,2020.1.3,Win32,60,Chrome,1366,768,,,,,,,,,,,,,,,,,2,,,,,,,,,,,,,,,,,,,,,,,,,,,545.999595,100,right,0.942555,giraffe     ,7,3,2,1,3,546.017275,546.017275,548.5159,0,22,22,22,1,100,5,7,slipper     ,giraffe     ,html/resources/sequences_IDs/B/08_slipper.jpg,html/resources/sequences_IDs/B/03_giraffe.jpg,8,3,3,2,1,1,6,2,0,22,,,,,,,,,,,,,,,,,,,,
,,,,,22,2020-07-01_09h49.03.758,retriever_ti,2020.1.3,Win32,60,Chrome,1366,768,,,,,,,,,,,,,,,,,2,,,,,,,,,,,,,,,,,,,,,,,,,,,549.13349,101,left,1.120985,parrot      ,3,5,1,1,1,549.15093,549.15093,551.649775,0,23,23,23,1,101,3,2,parrot      ,satellite_dish,html/resources/sequences_IDs/B/05_parrot.jpg,html/resources/sequences_IDs/A/10_satellite_dish.jpg,5,10,2,1,4,2,4,8,0,22,,,,,,,,,,,,,,,,,,,,
,,,,,22,2020-07-01_09h49.03.758,retriever_ti,2020.1.3,Win32,60,Chrome,1366,768,,,,,,,,,,,,,,,,,2,,,,,,,,,,,,,,,,,,,,,,,,,,,552.75081,102,right,0.715885,giraffe     ,7,3,-1,0,0,552.78605,552.78605,555.283015,0,24,24,24,1,102,8,7,seaturtle     ,giraffe     ,html/resources/sequences_IDs/A/02_seaturtle.jpg,html/resources/sequences_IDs/B/03_giraffe.jpg,2,3,2,1,1,1,1,2,0,22,,,,,,,,,,,,,,,,,,,,
,,,,,22,2020-07-01_09h49.03.758,retriever_ti,2020.1.3,Win32,60,Chrome,1366,768,,,,,,,,,,,,,,,,,2,,,,,,,,,,,,,,,,,,,,,,,,,,,556.385065,103,right,0.664625,seaturtle     ,8,2,7,1,3,556.41885,556.41885,558.915535,0,25,25,25,1,103,1,8,phone       ,seaturtle     ,html/resources/sequences_IDs/B/09_phone.jpg,html/resources/sequences_IDs/A/02_seaturtle.jpg,9,2,4,2,2,1,7,1,0,22,,,,,,,,,,,,,,,,,,,,
,,,,,22,2020-07-01_09h49.03.758,retriever_ti,2020.1.3,Win32,60,Chrome,1366,768,,,,,,,,,,,,,,,,,2,,,,,,,,,,,,,,,,,,,,,,,,,,,559.53257,104,right,1.463045,slipper     ,5,8,3,1,3,559.567045,559.567045,562.065035,0,26,26,26,1,104,2,5,satellite_dish,slipper     ,html/resources/sequences_IDs/A/10_satellite_dish.jpg,html/resources/sequences_IDs/B/08_slipper.jpg,10,8,4,2,3,2,8,6,0,22,,,,,,,,,,,,,,,,,,,,
,,,,,22,2020-07-01_09h49.03.758,retriever_ti,2020.1.3,Win32,60,Chrome,1366,768,,,,,,,,,,,,,,,,,2,,,,,,,,,,,,,,,,,,,,,,,,,,,562.682865,105,left,1.38313,seaturtle     ,8,2,1,1,1,562.716715,562.716715,565.214995,0,27,27,27,1,105,8,7,seaturtle     ,giraffe     ,html/resources/sequences_IDs/A/02_seaturtle.jpg,html/resources/sequences_IDs/B/03_giraffe.jpg,2,3,2,1,1,1,1,2,0,22,,,,,,,,,,,,,,,,,,,,
,,,,,22,2020-07-01_09h49.03.758,retriever_ti,2020.1.3,Win32,60,Chrome,1366,768,,,,,,,,,,,,,,,,,2,,,,,,,,,,,,,,,,,,,,,,,,,,,566.315255,106,left,1.009145,parrot      ,3,5,1,1,1,566.349665,566.349665,568.8482,0,28,28,28,1,106,3,2,parrot      ,satellite_dish,html/resources/sequences_IDs/B/05_parrot.jpg,html/resources/sequences_IDs/A/10_satellite_dish.jpg,5,10,2,1,4,2,4,8,0,22,,,,,,,,,,,,,,,,,,,,
,,,,,22,2020-07-01_09h49.03.758,retriever_ti,2020.1.3,Win32,60,Chrome,1366,768,,,,,,,,,,,,,,,,,2,,,,,,,,,,,,,,,,,,,,,,,,,,,569.94969,107,right,1.176705,dress         ,6,7,4,1,3,569.96642,569.96642,572.464565,0,29,29,29,1,107,2,6,satellite_dish,dress         ,html/resources/sequences_IDs/A/10_satellite_dish.jpg,html/resources/sequences_IDs/A/07_dress.jpg,10,7,4,2,3,2,8,5,0,22,,,,,,,,,,,,,,,,,,,,
,,,,,22,2020-07-01_09h49.03.758,retriever_ti,2020.1.3,Win32,60,Chrome,1366,768,,,,,,,,,,,,,,,,,2,,,,,,,,,,,,,,,,,,,,,,,,,,,573.081715,108,right,0.712805,seaturtle     ,8,2,1,1,0,573.09961,573.09961,575.597725,0,30,30,30,1,108,7,8,giraffe     ,seaturtle     ,html/resources/sequences_IDs/B/03_giraffe.jpg,html/resources/sequences_IDs/A/02_seaturtle.jpg,3,2,1,1,2,1,2,1,1,22,,,,,,,,,,,,,,,,,,,,
,,,,,22,2020-07-01_09h49.03.758,retriever_ti,2020.1.3,Win32,60,Chrome,1366,768,,,,,,,,,,,,,,,,,2,,,,,,,,,,,,,,,,,,,,,,,,,,,576.699165,109,right,0.56461,phone       ,1,9,-4,0,3,576.71608,576.71608,579.21421,0,31,31,31,1,109,5,1,slipper     ,phone       ,html/resources/sequences_IDs/B/08_slipper.jpg,html/resources/sequences_IDs/B/09_phone.jpg,8,9,3,2,4,2,6,7,0,22,,,,,,,,,,,,,,,,,,,,
,,,,,22,2020-07-01_09h49.03.758,retriever_ti,2020.1.3,Win32,60,Chrome,1366,768,,,,,,,,,,,,,,,,,2,,,,,,,,,,,,,,,,,,,,,,,,,,,579.831885,110,left,0.988725,clownfish     ,4,4,1,1,1,579.86618,579.86618,582.365245,0,32,32,32,1,110,4,3,clownfish     ,parrot      ,html/resources/sequences_IDs/A/04_clownfish.jpg,html/resources/sequences_IDs/B/05_parrot.jpg,4,5,2,1,2,1,3,4,0,22,,,,,,,,,,,,,,,,,,,,
,,,,,22,2020-07-01_09h49.03.758,retriever_ti,2020.1.3,Win32,60,Chrome,1366,768,,,,,,,,,,,,,,,,,2,,,,,,,,,,,,,,,,,,,,,,,,,,,583.465975,111,right,0.87871,clownfish     ,4,4,2,1,3,583.500605,583.500605,585.997145,0,33,33,33,1,111,2,4,satellite_dish,clownfish     ,html/resources/sequences_IDs/A/10_satellite_dish.jpg,html/resources/sequences_IDs/A/04_clownfish.jpg,10,4,4,2,2,1,8,3,0,22,,,,,,,,,,,,,,,,,,,,
,,,,,22,2020-07-01_09h49.03.758,retriever_ti,2020.1.3,Win32,60,Chrome,1366,768,,,,,,,,,,,,,,,,,2,,,,,,,,,,,,,,,,,,,,,,,,,,,586.614475,112,right,0.948865,parrot      ,3,5,2,1,3,586.648715,586.648715,589.14791,0,34,34,34,1,112,1,3,phone       ,parrot      ,html/resources/sequences_IDs/B/09_phone.jpg,html/resources/sequences_IDs/B/05_parrot.jpg,9,5,4,2,2,1,7,4,0,22,,,,,,,,,,,,,,,,,,,,
,,,,,22,2020-07-01_09h49.03.758,retriever_ti,2020.1.3,Win32,60,Chrome,1366,768,,,,,,,,,,,,,,,,,2,,,,,,,,,,,,,,,,,,,,,,,,,,,589.76763,113,left,0.98453,clownfish     ,4,4,-1,0,0,589.78488,589.78488,592.28015,0,35,35,35,1,113,4,5,clownfish     ,slipper     ,html/resources/sequences_IDs/A/04_clownfish.jpg,html/resources/sequences_IDs/B/08_slipper.jpg,4,8,2,1,3,2,3,6,0,22,,,,,,,,,,,,,,,,,,,,
,,,,,22,2020-07-01_09h49.03.758,retriever_ti,2020.1.3,Win32,60,Chrome,1366,768,,,,,,,,,,,,,,,,,2,,,,,,,,,,,,,,,,,,,,,,,,,,,593.38059,114,left,0.67175,giraffe     ,7,3,6,1,3,593.39833,593.39833,595.896685,0,36,36,36,1,114,7,1,giraffe     ,phone       ,html/resources/sequences_IDs/B/03_giraffe.jpg,html/resources/sequences_IDs/B/09_phone.jpg,3,9,1,1,4,2,2,7,0,22,,,,,,,,,,,,,,,,,,,,
,,,,,22,2020-07-01_09h49.03.758,retriever_ti,2020.1.3,Win32,60,Chrome,1366,768,,,,,,,,,,,,,,,,,2,,,,,,,,,,,,,,,,,,,,,,,,,,,596.498185,115,right,1.33434,dress         ,6,7,1,1,1,596.532335,596.532335,599.029845,0,37,37,37,1,115,5,6,slipper     ,dress         ,html/resources/sequences_IDs/B/08_slipper.jpg,html/resources/sequences_IDs/A/07_dress.jpg,8,7,3,2,3,2,6,5,0,22,,,,,,,,,,,,,,,,,,,,
,,,,,22,2020-07-01_09h49.03.758,retriever_ti,2020.1.3,Win32,60,Chrome,1366,768,,,,,,,,,,,,,,,,,2,,,,,,,,,,,,,,,,,,,,,,,,,,,600.13014,116,left,1.36775,giraffe     ,7,3,2,1,3,600.14766,600.14766,602.64637,0,38,38,38,1,116,7,5,giraffe     ,slipper     ,html/resources/sequences_IDs/B/03_giraffe.jpg,html/resources/sequences_IDs/B/08_slipper.jpg,3,8,1,1,3,2,2,6,0,22,,,,,,,,,,,,,,,,,,,,
,,,,,22,2020-07-01_09h49.03.758,retriever_ti,2020.1.3,Win32,60,Chrome,1366,768,,,,,,,,,,,,,,,,,2,,,,,,,,,,,,,,,,,,,,,,,,,,,603.26394,117,right,0.795795,satellite_dish,2,10,1,1,1,603.29777,603.29777,605.796205,0,39,39,39,1,117,1,2,phone       ,satellite_dish,html/resources/sequences_IDs/B/09_phone.jpg,html/resources/sequences_IDs/A/10_satellite_dish.jpg,9,10,4,2,4,2,7,8,0,22,,,,,,,,,,,,,,,,,,,,
,,,,,22,2020-07-01_09h49.03.758,retriever_ti,2020.1.3,Win32,60,Chrome,1366,768,,,,,,,,,,,,,,,,,2,,,,,,,,,,,,,,,,,,,,,,,,,,,606.89677,118,right,1.108365,clownfish     ,4,4,-1,0,0,606.93143,606.93143,609.429385,0,40,40,40,1,118,5,4,slipper     ,clownfish     ,html/resources/sequences_IDs/B/08_slipper.jpg,html/resources/sequences_IDs/A/04_clownfish.jpg,8,4,3,2,2,1,6,3,0,22,,,,,,,,,,,,,,,,,,,,
,,,,,22,2020-07-01_09h49.03.758,retriever_ti,2020.1.3,Win32,60,Chrome,1366,768,,,,,,,,,,,,,,,,,2,,,,,,,,,,,,,,,,,,,,,,,,,,,610.530795,119,right,0.82133,giraffe     ,7,3,6,1,3,610.547425,610.547425,613.04602,0,41,41,41,1,119,1,7,phone       ,giraffe     ,html/resources/sequences_IDs/B/09_phone.jpg,html/resources/sequences_IDs/B/03_giraffe.jpg,9,3,4,2,1,1,7,2,0,22,,,,,,,,,,,,,,,,,,,,
,,,,,22,2020-07-01_09h49.03.758,retriever_ti,2020.1.3,Win32,60,Chrome,1366,768,,,,,,,,,,,,,,,,,2,,,,,,,,,,,,,,,,,,,,,,,,,,,613.663235,120,left,0.67175,clownfish     ,4,4,-3,0,3,613.6977,613.6977,616.19566,0,42,42,42,1,120,4,7,clownfish     ,giraffe     ,html/resources/sequences_IDs/A/04_clownfish.jpg,html/resources/sequences_IDs/B/03_giraffe.jpg,4,3,2,1,1,1,3,2,0,22,,,,,,,,,,,,,,,,,,,,
,,,,,22,2020-07-01_09h49.03.758,retriever_ti,2020.1.3,Win32,60,Chrome,1366,768,,,,,,,,,,,,,,,,,2,,,,,,,,,,,,,,,,,,,,,,,,,,,616.813785,121,right,0.66134,dress         ,6,7,5,1,3,616.84745,616.84745,619.345695,0,43,43,43,1,121,1,6,phone       ,dress         ,html/resources/sequences_IDs/B/09_phone.jpg,html/resources/sequences_IDs/A/07_dress.jpg,9,7,4,2,3,2,7,5,0,22,,,,,,,,,,,,,,,,,,,,
,,,,,22,2020-07-01_09h49.03.758,retriever_ti,2020.1.3,Win32,60,Chrome,1366,768,,,,,,,,,,,,,,,,,2,,,,,,,,,,,,,,,,,,,,,,,,,,,619.963015,122,right,0.661505,slipper     ,5,8,4,1,3,619.997845,619.997845,622.4955,0,44,44,44,1,122,1,5,phone       ,slipper     ,html/resources/sequences_IDs/B/09_phone.jpg,html/resources/sequences_IDs/B/08_slipper.jpg,9,8,4,2,3,2,7,6,0,22,,,,,,,,,,,,,,,,,,,,
,,,,,22,2020-07-01_09h49.03.758,retriever_ti,2020.1.3,Win32,60,Chrome,1366,768,,,,,,,,,,,,,,,,,2,,,,,,,,,,,,,,,,,,,,,,,,,,,623.113205,123,right,0.677395,seaturtle     ,8,2,1,1,1,623.13021,623.13021,625.628595,0,45,45,45,1,123,7,8,giraffe     ,seaturtle     ,html/resources/sequences_IDs/B/03_giraffe.jpg,html/resources/sequences_IDs/A/02_seaturtle.jpg,3,2,1,1,2,1,2,1,0,22,,,,,,,,,,,,,,,,,,,,
,,,,,22,2020-07-01_09h49.03.758,retriever_ti,2020.1.3,Win32,60,Chrome,1366,768,,,,,,,,,,,,,,,,,2,,,,,,,,,,,,,,,,,,,,,,,,,,,626.72923,124,left,1.10749,parrot      ,3,5,-3,0,3,626.746835,626.746835,629.24517,0,46,46,46,1,124,3,6,parrot      ,dress         ,html/resources/sequences_IDs/B/05_parrot.jpg,html/resources/sequences_IDs/A/07_dress.jpg,5,7,2,1,3,2,4,5,0,22,,,,,,,,,,,,,,,,,,,,
,,,,,22,2020-07-01_09h49.03.758,retriever_ti,2020.1.3,Win32,60,Chrome,1366,768,,,,,,,,,,,,,,,,,2,,,,,,,,,,,,,,,,,,,,,,,,,,,629.86284,125,left,0.87203,satellite_dish,2,10,1,1,1,629.880045,629.880045,632.37824,0,47,47,47,1,125,2,1,satellite_dish,phone       ,html/resources/sequences_IDs/A/10_satellite_dish.jpg,html/resources/sequences_IDs/B/09_phone.jpg,10,9,4,2,4,2,8,7,0,22,,,,,,,,,,,,,,,,,,,,
,,,,,22,2020-07-01_09h49.03.758,retriever_ti,2020.1.3,Win32,60,Chrome,1366,768,,,,,,,,,,,,,,,,,2,,,,,,,,,,,,,,,,,,,,,,,,,,,633.47873,126,left,0.861375,dress         ,6,7,4,1,3,633.51342,633.51342,636.011425,0,48,48,48,1,126,6,2,dress         ,satellite_dish,html/resources/sequences_IDs/A/07_dress.jpg,html/resources/sequences_IDs/A/10_satellite_dish.jpg,7,10,3,2,4,2,5,8,0,22,,,,,,,,,,,,,,,,,,,,
,,,,,22,2020-07-01_09h49.03.758,retriever_ti,2020.1.3,Win32,60,Chrome,1366,768,,,,,,,,,,,,,,,,,2,,,,,,,,,,,,,,,,,,,,,,,,,,,636.62923,127,left,0.784575,seaturtle     ,8,2,4,1,3,636.66349,636.66349,639.1613,0,49,49,49,1,127,8,4,seaturtle     ,clownfish     ,html/resources/sequences_IDs/A/02_seaturtle.jpg,html/resources/sequences_IDs/A/04_clownfish.jpg,2,4,2,1,2,1,1,3,0,22,,,,,,,,,,,,,,,,,,,,
,,,,,22,2020-07-01_09h49.03.758,retriever_ti,2020.1.3,Win32,60,Chrome,1366,768,,,,,,,,,,,,,,,,,2,,,,,,,,,,,,,,,,,,,,,,,,,,,639.77822,128,left,1.061,clownfish     ,4,4,1,1,1,639.812605,639.812605,642.311035,0,50,50,50,1,128,4,3,clownfish     ,parrot      ,html/resources/sequences_IDs/A/04_clownfish.jpg,html/resources/sequences_IDs/B/05_parrot.jpg,4,5,2,1,2,1,3,4,0,22,,,,,,,,,,,,,,,,,,,,
,,,,,22,2020-07-01_09h49.03.758,retriever_ti,2020.1.3,Win32,60,Chrome,1366,768,,,,,,,,,,,,,,,,,2,,,,,,,,,,,,,,,,,,,,,,,,,,,643.412,129,right,0.982365,seaturtle     ,8,2,6,1,3,643.44657,643.44657,645.944255,0,51,51,51,1,129,2,8,satellite_dish,seaturtle     ,html/resources/sequences_IDs/A/10_satellite_dish.jpg,html/resources/sequences_IDs/A/02_seaturtle.jpg,10,2,4,2,2,1,8,1,0,22,,,,,,,,,,,,,,,,,,,,
,,,,,22,2020-07-01_09h49.03.758,retriever_ti,2020.1.3,Win32,60,Chrome,1366,768,,,,,,,,,,,,,,,,,2,,,,,,,,,,,,,,,,,,,,,,,,,,,646.561455,130,left,0.92644,dress         ,6,7,1,1,1,646.578785,646.578785,649.077395,0,52,52,52,1,130,6,5,dress         ,slipper     ,html/resources/sequences_IDs/A/07_dress.jpg,html/resources/sequences_IDs/B/08_slipper.jpg,7,8,3,2,3,2,5,6,0,22,,,,,,,,,,,,,,,,,,,,
,,,,,22,2020-07-01_09h49.03.758,retriever_ti,2020.1.3,Win32,60,Chrome,1366,768,,,,,,,,,,,,,,,,,2,,,,,,,,,,,,,,,,,,,,,,,,,,,650.179345,131,right,0.914025,dress         ,6,7,-1,0,0,650.19713,650.19713,652.694105,0,53,53,53,1,131,7,6,giraffe     ,dress         ,html/resources/sequences_IDs/B/03_giraffe.jpg,html/resources/sequences_IDs/A/07_dress.jpg,3,7,1,1,3,2,2,5,0,22,,,,,,,,,,,,,,,,,,,,
,,,,,22,2020-07-01_09h49.03.758,retriever_ti,2020.1.3,Win32,60,Chrome,1366,768,,,,,,,,,,,,,,,,,2,,,,,,,,,,,,,,,,,,,,,,,,,,,653.79463,132,right,2.321705,clownfish     ,4,4,-1,0,1,653.82878,653.82878,656.327385,0,54,54,54,1,132,5,4,slipper     ,clownfish     ,html/resources/sequences_IDs/B/08_slipper.jpg,html/resources/sequences_IDs/A/04_clownfish.jpg,8,4,3,2,2,1,6,3,1,22,,,,,,,,,,,,,,,,,,,,
,,,,,22,2020-07-01_09h49.03.758,retriever_ti,2020.1.3,Win32,60,Chrome,1366,768,,,,,,,,,,,,,,,,,2,,,,,,,,,,,,,,,,,,,,,,,,,,,657.429235,133,right,0.557165,clownfish     ,4,4,-1,0,0,657.46347,657.46347,659.960225,0,55,55,55,1,133,5,4,slipper     ,clownfish     ,html/resources/sequences_IDs/B/08_slipper.jpg,html/resources/sequences_IDs/A/04_clownfish.jpg,8,4,3,2,2,1,6,3,0,22,,,,,,,,,,,,,,,,,,,,
,,,,,22,2020-07-01_09h49.03.758,retriever_ti,2020.1.3,Win32,60,Chrome,1366,768,,,,,,,,,,,,,,,,,2,,,,,,,,,,,,,,,,,,,,,,,,,,,661.060705,134,left,1.527295,clownfish     ,4,4,3,1,3,661.07856,661.07856,663.577535,0,56,56,56,1,134,4,1,clownfish     ,phone       ,html/resources/sequences_IDs/A/04_clownfish.jpg,html/resources/sequences_IDs/B/09_phone.jpg,4,9,2,1,4,2,3,7,0,22,,,,,,,,,,,,,,,,,,,,
,,,,,22,2020-07-01_09h49.03.758,retriever_ti,2020.1.3,Win32,60,Chrome,1366,768,,,,,,,,,,,,,,,,,2,,,,,,,,,,,,,,,,,,,,,,,,,,,664.17915,135,left,0.842305,clownfish     ,4,4,2,1,3,664.19678,664.19678,666.693205,0,57,57,57,1,135,4,2,clownfish     ,satellite_dish,html/resources/sequences_IDs/A/04_clownfish.jpg,html/resources/sequences_IDs/A/10_satellite_dish.jpg,4,10,2,1,4,2,3,8,0,22,,,,,,,,,,,,,,,,,,,,
,,,,,22,2020-07-01_09h49.03.758,retriever_ti,2020.1.3,Win32,60,Chrome,1366,768,,,,,,,,,,,,,,,,,2,,,,,,,,,,,,,,,,,,,,,,,,,,,667.31051,136,right,0.90057,seaturtle     ,8,2,5,1,3,667.327925,667.327925,669.82635,0,58,58,58,1,136,3,8,parrot      ,seaturtle     ,html/resources/sequences_IDs/B/05_parrot.jpg,html/resources/sequences_IDs/A/02_seaturtle.jpg,5,2,2,1,2,1,4,1,0,22,,,,,,,,,,,,,,,,,,,,
,,,,,22,2020-07-01_09h49.03.758,retriever_ti,2020.1.3,Win32,60,Chrome,1366,768,,,,,,,,,,,,,,,,,2,,,,,,,,,,,,,,,,,,,,,,,,,,,670.427605,137,right,1.27152,clownfish     ,4,4,-2,0,3,670.461585,670.461585,672.959735,0,59,59,59,1,137,6,4,dress         ,clownfish     ,html/resources/sequences_IDs/A/07_dress.jpg,html/resources/sequences_IDs/A/04_clownfish.jpg,7,4,3,2,2,1,5,3,0,22,,,,,,,,,,,,,,,,,,,,
,,,,,22,2020-07-01_09h49.03.758,retriever_ti,2020.1.3,Win32,60,Chrome,1366,768,,,,,,,,,,,,,,,,,2,,,,,,,,,,,,,,,,,,,,,,,,,,,673.57671,138,right,1.055335,clownfish     ,4,4,1,1,1,673.610775,673.610775,676.109455,0,60,60,60,1,138,3,4,parrot      ,clownfish     ,html/resources/sequences_IDs/B/05_parrot.jpg,html/resources/sequences_IDs/A/04_clownfish.jpg,5,4,2,1,2,1,4,3,0,22,,,,,,,,,,,,,,,,,,,,
,,,,,22,2020-07-01_09h49.03.758,retriever_ti,2020.1.3,Win32,60,Chrome,1366,768,,,,,,,,,,,,,,,,,2,,,,,,,,,,,,,,,,,,,,,,,,,,,677.21031,139,left,1.09031,clownfish     ,4,4,-1,0,0,677.244325,677.244325,679.742545,0,61,61,61,1,139,4,5,clownfish     ,slipper     ,html/resources/sequences_IDs/A/04_clownfish.jpg,html/resources/sequences_IDs/B/08_slipper.jpg,4,8,2,1,3,2,3,6,0,22,,,,,,,,,,,,,,,,,,,,
,,,,,22,2020-07-01_09h49.03.758,retriever_ti,2020.1.3,Win32,60,Chrome,1366,768,,,,,,,,,,,,,,,,,2,,,,,,,,,,,,,,,,,,,,,,,,,,,680.84296,140,left,0.65043,seaturtle     ,8,2,2,1,3,680.86066,680.86066,683.359115,0,62,62,62,1,140,8,6,seaturtle     ,dress         ,html/resources/sequences_IDs/A/02_seaturtle.jpg,html/resources/sequences_IDs/A/07_dress.jpg,2,7,2,1,3,2,1,5,0,22,,,,,,,,,,,,,,,,,,,,
,,,,,22,2020-07-01_09h49.03.758,retriever_ti,2020.1.3,Win32,60,Chrome,1366,768,,,,,,,,,,,,,,,,,2,,,,,,,,,,,,,,,,,,,,,,,,,,,683.977355,141,right,1.89636,parrot      ,3,5,-4,0,3,684.01101,684.01101,686.50889,0,63,63,63,1,141,7,3,giraffe     ,parrot      ,html/resources/sequences_IDs/B/03_giraffe.jpg,html/resources/sequences_IDs/B/05_parrot.jpg,3,5,1,1,2,1,2,4,0,22,,,,,,,,,,,,,,,,,,,,
,,,,,22,2020-07-01_09h49.03.758,retriever_ti,2020.1.3,Win32,60,Chrome,1366,768,,,,,,,,,,,,,,,,,2,,,,,,,,,,,,,,,,,,,,,,,,,,,687.12604,142,left,0.93074,parrot      ,3,5,-4,0,3,687.160595,687.160595,689.6588,0,64,64,64,1,142,3,7,parrot      ,giraffe     ,html/resources/sequences_IDs/B/05_parrot.jpg,html/resources/sequences_IDs/B/03_giraffe.jpg,5,3,2,1,1,1,4,2,0,22,,,,,,,,,,,,,,,,,,,,
,,,,,22,2020-07-01_09h49.03.758,retriever_ti,2020.1.3,Win32,60,Chrome,1366,768,,,,,,,,,,,,,,,,,2,,,,,,,,,,,,,,,,,,,,,,,,,,,690.27663,143,right,1.61311,seaturtle     ,8,2,2,1,3,690.310065,690.310065,692.80866,0,65,65,65,1,143,6,8,dress         ,seaturtle     ,html/resources/sequences_IDs/A/07_dress.jpg,html/resources/sequences_IDs/A/02_seaturtle.jpg,7,2,3,2,2,1,5,1,0,22,,,,,,,,,,,,,,,,,,,,
,,,,,22,2020-07-01_09h49.03.758,retriever_ti,2020.1.3,Win32,60,Chrome,1366,768,,,,,,,,,,,,,,,,,2,,,,,,,,,,,,,,,,,,,,,,,,,,,693.426095,144,right,1.359915,dress         ,6,7,1,1,0,693.46124,693.46124,695.95861,0,66,66,66,1,144,5,6,slipper     ,dress         ,html/resources/sequences_IDs/B/08_slipper.jpg,html/resources/sequences_IDs/A/07_dress.jpg,8,7,3,2,3,2,6,5,1,22,,,,,,,,,,,,,,,,,,,,
,,,,,22,2020-07-01_09h49.03.758,retriever_ti,2020.1.3,Win32,60,Chrome,1366,768,,,,,,,,,,,,,,,,,2,,,,,,,,,,,,,,,,,,,,,,,,,,,697.059515,145,right,1.43305,parrot      ,3,5,1,1,0,697.076465,697.076465,699.574945,0,67,67,67,1,145,2,3,satellite_dish,parrot      ,html/resources/sequences_IDs/A/10_satellite_dish.jpg,html/resources/sequences_IDs/B/05_parrot.jpg,10,5,4,2,2,1,8,4,1,22,,,,,,,,,,,,,,,,,,,,
,,,,,22,2020-07-01_09h49.03.758,retriever_ti,2020.1.3,Win32,60,Chrome,1366,768,,,,,,,,,,,,,,,,,2,,,,,,,,,,,,,,,,,,,,,,,,,,,700.67546,146,right,1.240695,seaturtle     ,8,2,3,1,3,700.710175,700.710175,703.20816,0,68,68,68,1,146,5,8,slipper     ,seaturtle     ,html/resources/sequences_IDs/B/08_slipper.jpg,html/resources/sequences_IDs/A/02_seaturtle.jpg,8,2,3,2,2,1,6,1,0,22,,,,,,,,,,,,,,,,,,,,
,,,,,22,2020-07-01_09h49.03.758,retriever_ti,2020.1.3,Win32,60,Chrome,1366,768,,,,,,,,,,,,,,,,,2,,,,,,,,,,,,,,,,,,,,,,,,,,,703.825835,147,left,1.359695,satellite_dish,2,10,1,1,0,703.842935,703.842935,706.34135,0,69,69,69,1,147,2,1,satellite_dish,phone       ,html/resources/sequences_IDs/A/10_satellite_dish.jpg,html/resources/sequences_IDs/B/09_phone.jpg,10,9,4,2,4,2,8,7,1,22,,,,,,,,,,,,,,,,,,,,
,,,,,22,2020-07-01_09h49.03.758,retriever_ti,2020.1.3,Win32,60,Chrome,1366,768,,,,,,,,,,,,,,,,,2,,,,,,,,,,,,,,,,,,,,,,,,,,,707.441605,148,left,0.934,slipper     ,5,8,-1,0,0,707.476005,707.476005,709.975275,0,70,70,70,1,148,5,6,slipper     ,dress         ,html/resources/sequences_IDs/B/08_slipper.jpg,html/resources/sequences_IDs/A/07_dress.jpg,8,7,3,2,3,2,6,5,0,22,,,,,,,,,,,,,,,,,,,,
,,,,,22,2020-07-01_09h49.03.758,retriever_ti,2020.1.3,Win32,60,Chrome,1366,768,,,,,,,,,,,,,,,,,2,,,,,,,,,,,,,,,,,,,,,,,,,,,711.07706,149,right,1.29201,parrot      ,3,5,1,1,1,711.11084,711.11084,713.60885,0,71,71,71,1,149,2,3,satellite_dish,parrot      ,html/resources/sequences_IDs/A/10_satellite_dish.jpg,html/resources/sequences_IDs/B/05_parrot.jpg,10,5,4,2,2,1,8,4,0,22,,,,,,,,,,,,,,,,,,,,
,,,,,22,2020-07-01_09h49.03.758,retriever_ti,2020.1.3,Win32,60,Chrome,1366,768,,,,,,,,,,,,,,,,,2,,,,,,,,,,,,,,,,,,,,,,,,,,,714.708505,150,right,0.85342,seaturtle     ,8,2,1,1,1,714.7431,714.7431,717.24095,0,72,72,72,1,150,7,8,giraffe     ,seaturtle     ,html/resources/sequences_IDs/B/03_giraffe.jpg,html/resources/sequences_IDs/A/02_seaturtle.jpg,3,2,1,1,2,1,2,1,0,22,,,,,,,,,,,,,,,,,,,,
,,,,,22,2020-07-01_09h49.03.758,retriever_ti,2020.1.3,Win32,60,Chrome,1366,768,,,,,,,,,,,,,,,,,2,,,,,,,,,,,,,,,,,,,,,,,,,,,718.342475,151,left,1.177105,dress         ,6,7,-1,0,1,718.35949,718.35949,720.85726,0,73,73,73,1,151,6,7,dress         ,giraffe     ,html/resources/sequences_IDs/A/07_dress.jpg,html/resources/sequences_IDs/B/03_giraffe.jpg,7,3,3,2,1,1,5,2,1,22,,,,,,,,,,,,,,,,,,,,
,,,,,22,2020-07-01_09h49.03.758,retriever_ti,2020.1.3,Win32,60,Chrome,1366,768,,,,,,,,,,,,,,,,,2,,,,,,,,,,,,,,,,,,,,,,,,,,,721.95771,152,left,0.71871,seaturtle     ,8,2,5,1,3,721.97548,721.97548,724.823955,0,74,74,74,1,152,8,3,seaturtle     ,parrot      ,html/resources/sequences_IDs/A/02_seaturtle.jpg,html/resources/sequences_IDs/B/05_parrot.jpg,2,5,2,1,2,1,1,4,0,22,,,,,,,,,,,,,,,,,,,,
,,,,,22,2020-07-01_09h49.03.758,retriever_ti,2020.1.3,Win32,60,Chrome,1366,768,,,,,,,,,,,,,,,,,2,,,,,,,,,,,,,,,,,,,,,,,,,,,725.4263,153,left,0.56514,seaturtle     ,8,2,6,1,3,725.44309,725.44309,727.94026,0,75,75,75,1,153,8,2,seaturtle     ,satellite_dish,html/resources/sequences_IDs/A/02_seaturtle.jpg,html/resources/sequences_IDs/A/10_satellite_dish.jpg,2,10,2,1,4,2,1,8,0,22,,,,,,,,,,,,,,,,,,,,
,,,,,22,2020-07-01_09h49.03.758,retriever_ti,2020.1.3,Win32,60,Chrome,1366,768,,,,,,,,,,,,,,,,,2,,,,,,,,,,,,,,,,,,,,,,,,,,,728.557465,154,left,0.727855,clownfish     ,4,4,-2,0,3,728.59233,728.59233,731.091,0,76,76,76,1,154,4,6,clownfish     ,dress         ,html/resources/sequences_IDs/A/04_clownfish.jpg,html/resources/sequences_IDs/A/07_dress.jpg,4,7,2,1,3,2,3,5,0,22,,,,,,,,,,,,,,,,,,,,
,,,,,22,2020-07-01_09h49.03.758,retriever_ti,2020.1.3,Win32,60,Chrome,1366,768,,,,,,,,,,,,,,,,,,,,,,,,,,,,,,,,,,,,,0,2.570605,,,,,,,,,,,,,,,,,,,,,,,,,,,,,,,,,,,,,,,,,1,0,1,0,1,,,,,,,,,,,,,,,
,,,,,22,2020-07-01_09h49.03.758,retriever_ti,2020.1.3,Win32,60,Chrome,1366,768,,,,,,,,,,,,,,,,,3,,,,,,,,,,,,,,,,,,,,,,,,,,,781.68874,155,left,0.91053,parrot      ,3,5,-4,0,3,781.722185,781.722185,784.22187,0,0,0,0,1,155,3,7,parrot      ,giraffe     ,html/resources/sequences_IDs/B/05_parrot.jpg,html/resources/sequences_IDs/B/03_giraffe.jpg,5,3,2,1,1,1,4,2,0,22,,,,,,,,,,,,,,,,,,,,
,,,,,22,2020-07-01_09h49.03.758,retriever_ti,2020.1.3,Win32,60,Chrome,1366,768,,,,,,,,,,,,,,,,,3,,,,,,,,,,,,,,,,,,,,,,,,,,,784.83955,156,left,0.80105,giraffe     ,7,3,5,1,3,784.857205,784.857205,787.35503,0,1,1,1,1,156,7,2,giraffe     ,satellite_dish,html/resources/sequences_IDs/B/03_giraffe.jpg,html/resources/sequences_IDs/A/10_satellite_dish.jpg,3,10,1,1,4,2,2,8,0,22,,,,,,,,,,,,,,,,,,,,
,,,,,22,2020-07-01_09h49.03.758,retriever_ti,2020.1.3,Win32,60,Chrome,1366,768,,,,,,,,,,,,,,,,,3,,,,,,,,,,,,,,,,,,,,,,,,,,,787.97263,157,left,0.66346,seaturtle     ,8,2,2,1,3,788.006795,788.006795,790.504205,0,2,2,2,1,157,8,6,seaturtle     ,dress         ,html/resources/sequences_IDs/A/02_seaturtle.jpg,html/resources/sequences_IDs/A/07_dress.jpg,2,7,2,1,3,2,1,5,0,22,,,,,,,,,,,,,,,,,,,,
,,,,,22,2020-07-01_09h49.03.758,retriever_ti,2020.1.3,Win32,60,Chrome,1366,768,,,,,,,,,,,,,,,,,3,,,,,,,,,,,,,,,,,,,,,,,,,,,791.121885,158,left,0.57843,seaturtle     ,8,2,5,1,3,791.1556,791.1556,793.65387,0,3,3,3,1,158,8,3,seaturtle     ,parrot      ,html/resources/sequences_IDs/A/02_seaturtle.jpg,html/resources/sequences_IDs/B/05_parrot.jpg,2,5,2,1,2,1,1,4,0,22,,,,,,,,,,,,,,,,,,,,
,,,,,22,2020-07-01_09h49.03.758,retriever_ti,2020.1.3,Win32,60,Chrome,1366,768,,,,,,,,,,,,,,,,,3,,,,,,,,,,,,,,,,,,,,,,,,,,,794.27084,159,right,0.953245,slipper     ,5,8,-1,0,0,794.28814,794.28814,796.78834,0,4,4,4,1,159,6,5,dress         ,slipper     ,html/resources/sequences_IDs/A/07_dress.jpg,html/resources/sequences_IDs/B/08_slipper.jpg,7,8,3,2,3,2,5,6,0,22,,,,,,,,,,,,,,,,,,,,
,,,,,22,2020-07-01_09h49.03.758,retriever_ti,2020.1.3,Win32,60,Chrome,1366,768,,,,,,,,,,,,,,,,,3,,,,,,,,,,,,,,,,,,,,,,,,,,,797.89139,160,right,0.61792,clownfish     ,4,4,1,1,1,797.926025,797.926025,800.4203,0,5,5,5,1,160,3,4,parrot      ,clownfish     ,html/resources/sequences_IDs/B/05_parrot.jpg,html/resources/sequences_IDs/A/04_clownfish.jpg,5,4,2,1,2,1,4,3,0,22,,,,,,,,,,,,,,,,,,,,
,,,,,22,2020-07-01_09h49.03.758,retriever_ti,2020.1.3,Win32,60,Chrome,1366,768,,,,,,,,,,,,,,,,,3,,,,,,,,,,,,,,,,,,,,,,,,,,,801.521925,161,left,0.683265,clownfish     ,4,4,3,1,3,801.53943,801.53943,804.037485,0,6,6,6,1,161,4,1,clownfish     ,phone       ,html/resources/sequences_IDs/A/04_clownfish.jpg,html/resources/sequences_IDs/B/09_phone.jpg,4,9,2,1,4,2,3,7,0,22,,,,,,,,,,,,,,,,,,,,
,,,,,22,2020-07-01_09h49.03.758,retriever_ti,2020.1.3,Win32,60,Chrome,1366,768,,,,,,,,,,,,,,,,,3,,,,,,,,,,,,,,,,,,,,,,,,,,,804.639215,162,right,0.92493,seaturtle     ,8,2,2,1,3,804.656075,804.656075,807.15411,0,7,7,7,1,162,6,8,dress         ,seaturtle     ,html/resources/sequences_IDs/A/07_dress.jpg,html/resources/sequences_IDs/A/02_seaturtle.jpg,7,2,3,2,2,1,5,1,0,22,,,,,,,,,,,,,,,,,,,,
,,,,,22,2020-07-01_09h49.03.758,retriever_ti,2020.1.3,Win32,60,Chrome,1366,768,,,,,,,,,,,,,,,,,3,,,,,,,,,,,,,,,,,,,,,,,,,,,807.77149,163,right,0.70981,dress         ,6,7,1,1,1,807.8073,807.8073,810.30314,0,8,8,8,1,163,5,6,slipper     ,dress         ,html/resources/sequences_IDs/B/08_slipper.jpg,html/resources/sequences_IDs/A/07_dress.jpg,8,7,3,2,3,2,6,5,0,22,,,,,,,,,,,,,,,,,,,,
,,,,,22,2020-07-01_09h49.03.758,retriever_ti,2020.1.3,Win32,60,Chrome,1366,768,,,,,,,,,,,,,,,,,3,,,,,,,,,,,,,,,,,,,,,,,,,,,811.404325,164,left,0.54851,seaturtle     ,8,2,7,1,3,811.438395,811.438395,813.93633,0,9,9,9,1,164,8,1,seaturtle     ,phone       ,html/resources/sequences_IDs/A/02_seaturtle.jpg,html/resources/sequences_IDs/B/09_phone.jpg,2,9,2,1,4,2,1,7,0,22,,,,,,,,,,,,,,,,,,,,
,,,,,22,2020-07-01_09h49.03.758,retriever_ti,2020.1.3,Win32,60,Chrome,1366,768,,,,,,,,,,,,,,,,,3,,,,,,,,,,,,,,,,,,,,,,,,,,,814.553395,165,left,1.561815,dress         ,6,7,-1,0,0,814.571235,814.571235,817.069395,0,10,10,10,1,165,6,7,dress         ,giraffe     ,html/resources/sequences_IDs/A/07_dress.jpg,html/resources/sequences_IDs/B/03_giraffe.jpg,7,3,3,2,1,1,5,2,0,22,,,,,,,,,,,,,,,,,,,,
,,,,,22,2020-07-01_09h49.03.758,retriever_ti,2020.1.3,Win32,60,Chrome,1366,768,,,,,,,,,,,,,,,,,3,,,,,,,,,,,,,,,,,,,,,,,,,,,818.170205,166,right,0.585265,giraffe     ,7,3,1,1,1,818.187365,818.187365,820.68585,0,11,11,11,1,166,6,7,dress         ,giraffe     ,html/resources/sequences_IDs/A/07_dress.jpg,html/resources/sequences_IDs/B/03_giraffe.jpg,7,3,3,2,1,1,5,2,0,22,,,,,,,,,,,,,,,,,,,,
,,,,,22,2020-07-01_09h49.03.758,retriever_ti,2020.1.3,Win32,60,Chrome,1366,768,,,,,,,,,,,,,,,,,3,,,,,,,,,,,,,,,,,,,,,,,,,,,821.786365,167,right,0.974425,parrot      ,3,5,1,1,1,821.821145,821.821145,824.318975,0,12,12,12,1,167,2,3,satellite_dish,parrot      ,html/resources/sequences_IDs/A/10_satellite_dish.jpg,html/resources/sequences_IDs/B/05_parrot.jpg,10,5,4,2,2,1,8,4,0,22,,,,,,,,,,,,,,,,,,,,
,,,,,22,2020-07-01_09h49.03.758,retriever_ti,2020.1.3,Win32,60,Chrome,1366,768,,,,,,,,,,,,,,,,,3,,,,,,,,,,,,,,,,,,,,,,,,,,,825.42013,168,left,0.942085,satellite_dish,2,10,1,1,1,825.437415,825.437415,827.936355,0,13,13,13,1,168,2,1,satellite_dish,phone       ,html/resources/sequences_IDs/A/10_satellite_dish.jpg,html/resources/sequences_IDs/B/09_phone.jpg,10,9,4,2,4,2,8,7,0,22,,,,,,,,,,,,,,,,,,,,
,,,,,22,2020-07-01_09h49.03.758,retriever_ti,2020.1.3,Win32,60,Chrome,1366,768,,,,,,,,,,,,,,,,,3,,,,,,,,,,,,,,,,,,,,,,,,,,,829.036775,169,left,0.93371,slipper     ,5,8,3,1,3,829.070825,829.070825,831.568665,0,14,14,14,1,169,5,2,slipper     ,satellite_dish,html/resources/sequences_IDs/B/08_slipper.jpg,html/resources/sequences_IDs/A/10_satellite_dish.jpg,8,10,3,2,4,2,6,8,0,22,,,,,,,,,,,,,,,,,,,,
,,,,,22,2020-07-01_09h49.03.758,retriever_ti,2020.1.3,Win32,60,Chrome,1366,768,,,,,,,,,,,,,,,,,3,,,,,,,,,,,,,,,,,,,,,,,,,,,832.18678,170,left,1.199055,seaturtle     ,8,2,1,1,0,832.220605,832.220605,834.718385,0,15,15,15,1,170,8,7,seaturtle     ,giraffe     ,html/resources/sequences_IDs/A/02_seaturtle.jpg,html/resources/sequences_IDs/B/03_giraffe.jpg,2,3,2,1,1,1,1,2,1,22,,,,,,,,,,,,,,,,,,,,
,,,,,22,2020-07-01_09h49.03.758,retriever_ti,2020.1.3,Win32,60,Chrome,1366,768,,,,,,,,,,,,,,,,,3,,,,,,,,,,,,,,,,,,,,,,,,,,,835.819175,171,left,0.725645,parrot      ,3,5,-3,0,3,835.85537,835.85537,838.35173,0,16,16,16,1,171,3,6,parrot      ,dress         ,html/resources/sequences_IDs/B/05_parrot.jpg,html/resources/sequences_IDs/A/07_dress.jpg,5,7,2,1,3,2,4,5,0,22,,,,,,,,,,,,,,,,,,,,
,,,,,22,2020-07-01_09h49.03.758,retriever_ti,2020.1.3,Win32,60,Chrome,1366,768,,,,,,,,,,,,,,,,,3,,,,,,,,,,,,,,,,,,,,,,,,,,,838.970075,172,left,0.69407,parrot      ,3,5,-2,0,3,838.98732,838.98732,841.4849,0,17,17,17,1,172,3,5,parrot      ,slipper     ,html/resources/sequences_IDs/B/05_parrot.jpg,html/resources/sequences_IDs/B/08_slipper.jpg,5,8,2,1,3,2,4,6,0,22,,,,,,,,,,,,,,,,,,,,
,,,,,22,2020-07-01_09h49.03.758,retriever_ti,2020.1.3,Win32,60,Chrome,1366,768,,,,,,,,,,,,,,,,,3,,,,,,,,,,,,,,,,,,,,,,,,,,,842.10192,173,right,0.574405,clownfish     ,4,4,2,1,3,842.1363,842.1363,844.63466,0,18,18,18,1,173,2,4,satellite_dish,clownfish     ,html/resources/sequences_IDs/A/10_satellite_dish.jpg,html/resources/sequences_IDs/A/04_clownfish.jpg,10,4,4,2,2,1,8,3,0,22,,,,,,,,,,,,,,,,,,,,
,,,,,22,2020-07-01_09h49.03.758,retriever_ti,2020.1.3,Win32,60,Chrome,1366,768,,,,,,,,,,,,,,,,,3,,,,,,,,,,,,,,,,,,,,,,,,,,,845.25263,174,right,1.072855,giraffe     ,7,3,-1,0,0,845.26935,845.26935,847.767845,0,19,19,19,1,174,8,7,seaturtle     ,giraffe     ,html/resources/sequences_IDs/A/02_seaturtle.jpg,html/resources/sequences_IDs/B/03_giraffe.jpg,2,3,2,1,1,1,1,2,0,22,,,,,,,,,,,,,,,,,,,,
,,,,,22,2020-07-01_09h49.03.758,retriever_ti,2020.1.3,Win32,60,Chrome,1366,768,,,,,,,,,,,,,,,,,3,,,,,,,,,,,,,,,,,,,,,,,,,,,848.868205,175,left,1.33459,dress         ,6,7,5,1,3,848.90267,848.90267,851.4018,0,20,20,20,1,175,6,1,dress         ,phone       ,html/resources/sequences_IDs/A/07_dress.jpg,html/resources/sequences_IDs/B/09_phone.jpg,7,9,3,2,4,2,5,7,0,22,,,,,,,,,,,,,,,,,,,,
,,,,,22,2020-07-01_09h49.03.758,retriever_ti,2020.1.3,Win32,60,Chrome,1366,768,,,,,,,,,,,,,,,,,3,,,,,,,,,,,,,,,,,,,,,,,,,,,852.020335,176,right,0.52839,clownfish     ,4,4,-2,0,3,852.03818,852.03818,854.534215,0,21,21,21,1,176,6,4,dress         ,clownfish     ,html/resources/sequences_IDs/A/07_dress.jpg,html/resources/sequences_IDs/A/04_clownfish.jpg,7,4,3,2,2,1,5,3,0,22,,,,,,,,,,,,,,,,,,,,
,,,,,22,2020-07-01_09h49.03.758,retriever_ti,2020.1.3,Win32,60,Chrome,1366,768,,,,,,,,,,,,,,,,,3,,,,,,,,,,,,,,,,,,,,,,,,,,,855.15131,177,left,0.71403,dress         ,6,7,1,1,0,855.185865,855.185865,857.683935,0,22,22,22,1,177,6,5,dress         ,slipper     ,html/resources/sequences_IDs/A/07_dress.jpg,html/resources/sequences_IDs/B/08_slipper.jpg,7,8,3,2,3,2,5,6,1,22,,,,,,,,,,,,,,,,,,,,
,,,,,22,2020-07-01_09h49.03.758,retriever_ti,2020.1.3,Win32,60,Chrome,1366,768,,,,,,,,,,,,,,,,,3,,,,,,,,,,,,,,,,,,,,,,,,,,,858.784865,178,left,0.853685,clownfish     ,4,4,1,1,0,858.801675,858.801675,861.518215,0,23,23,23,1,178,4,3,clownfish     ,parrot      ,html/resources/sequences_IDs/A/04_clownfish.jpg,html/resources/sequences_IDs/B/05_parrot.jpg,4,5,2,1,2,1,3,4,1,22,,,,,,,,,,,,,,,,,,,,
,,,,,22,2020-07-01_09h49.03.758,retriever_ti,2020.1.3,Win32,60,Chrome,1366,768,,,,,,,,,,,,,,,,,3,,,,,,,,,,,,,,,,,,,,,,,,,,,862.619175,179,right,1.026075,parrot      ,3,5,2,1,3,862.63705,862.63705,865.133645,0,24,24,24,1,179,1,3,phone       ,parrot      ,html/resources/sequences_IDs/B/09_phone.jpg,html/resources/sequences_IDs/B/05_parrot.jpg,9,5,4,2,2,1,7,4,0,22,,,,,,,,,,,,,,,,,,,,
,,,,,22,2020-07-01_09h49.03.758,retriever_ti,2020.1.3,Win32,60,Chrome,1366,768,,,,,,,,,,,,,,,,,3,,,,,,,,,,,,,,,,,,,,,,,,,,,865.751535,180,left,0.761615,seaturtle     ,8,2,6,1,3,865.768415,865.768415,868.266865,0,25,25,25,1,180,8,2,seaturtle     ,satellite_dish,html/resources/sequences_IDs/A/02_seaturtle.jpg,html/resources/sequences_IDs/A/10_satellite_dish.jpg,2,10,2,1,4,2,1,8,0,22,,,,,,,,,,,,,,,,,,,,
,,,,,22,2020-07-01_09h49.03.758,retriever_ti,2020.1.3,Win32,60,Chrome,1366,768,,,,,,,,,,,,,,,,,3,,,,,,,,,,,,,,,,,,,,,,,,,,,868.88444,181,right,1.21524,giraffe     ,7,3,6,1,3,868.902225,868.902225,871.399985,0,26,26,26,1,181,1,7,phone       ,giraffe     ,html/resources/sequences_IDs/B/09_phone.jpg,html/resources/sequences_IDs/B/03_giraffe.jpg,9,3,4,2,1,1,7,2,0,22,,,,,,,,,,,,,,,,,,,,
,,,,,22,2020-07-01_09h49.03.758,retriever_ti,2020.1.3,Win32,60,Chrome,1366,768,,,,,,,,,,,,,,,,,3,,,,,,,,,,,,,,,,,,,,,,,,,,,872.017915,182,right,1.37057,parrot      ,3,5,-3,0,3,872.035,872.035,874.533285,0,27,27,27,1,182,6,3,dress         ,parrot      ,html/resources/sequences_IDs/A/07_dress.jpg,html/resources/sequences_IDs/B/05_parrot.jpg,7,5,3,2,2,1,5,4,0,22,,,,,,,,,,,,,,,,,,,,
,,,,,22,2020-07-01_09h49.03.758,retriever_ti,2020.1.3,Win32,60,Chrome,1366,768,,,,,,,,,,,,,,,,,3,,,,,,,,,,,,,,,,,,,,,,,,,,,875.150415,183,right,1.370465,seaturtle     ,8,2,3,1,3,875.16871,875.16871,877.66638,0,28,28,28,1,183,5,8,slipper     ,seaturtle     ,html/resources/sequences_IDs/B/08_slipper.jpg,html/resources/sequences_IDs/A/02_seaturtle.jpg,8,2,3,2,2,1,6,1,0,22,,,,,,,,,,,,,,,,,,,,
,,,,,22,2020-07-01_09h49.03.758,retriever_ti,2020.1.3,Win32,60,Chrome,1366,768,,,,,,,,,,,,,,,,,3,,,,,,,,,,,,,,,,,,,,,,,,,,,878.28427,184,right,1.537735,parrot      ,3,5,-4,0,3,878.3182,878.3182,880.816195,0,29,29,29,1,184,7,3,giraffe     ,parrot      ,html/resources/sequences_IDs/B/03_giraffe.jpg,html/resources/sequences_IDs/B/05_parrot.jpg,3,5,1,1,2,1,2,4,0,22,,,,,,,,,,,,,,,,,,,,
,,,,,22,2020-07-01_09h49.03.758,retriever_ti,2020.1.3,Win32,60,Chrome,1366,768,,,,,,,,,,,,,,,,,3,,,,,,,,,,,,,,,,,,,,,,,,,,,881.417005,185,left,1.284425,clownfish     ,4,4,-1,0,1,881.4516,881.4516,883.949425,0,30,30,30,1,185,4,5,clownfish     ,slipper     ,html/resources/sequences_IDs/A/04_clownfish.jpg,html/resources/sequences_IDs/B/08_slipper.jpg,4,8,2,1,3,2,3,6,1,22,,,,,,,,,,,,,,,,,,,,
,,,,,22,2020-07-01_09h49.03.758,retriever_ti,2020.1.3,Win32,60,Chrome,1366,768,,,,,,,,,,,,,,,,,3,,,,,,,,,,,,,,,,,,,,,,,,,,,885.050565,186,right,0.989395,slipper     ,5,8,3,1,3,885.067645,885.067645,887.56594,0,31,31,31,1,186,2,5,satellite_dish,slipper     ,html/resources/sequences_IDs/A/10_satellite_dish.jpg,html/resources/sequences_IDs/B/08_slipper.jpg,10,8,4,2,3,2,8,6,0,22,,,,,,,,,,,,,,,,,,,,
,,,,,22,2020-07-01_09h49.03.758,retriever_ti,2020.1.3,Win32,60,Chrome,1366,768,,,,,,,,,,,,,,,,,3,,,,,,,,,,,,,,,,,,,,,,,,,,,888.18312,187,left,0.43189,parrot      ,3,5,1,1,1,888.217785,888.217785,890.71589,0,32,32,32,1,187,3,2,parrot      ,satellite_dish,html/resources/sequences_IDs/B/05_parrot.jpg,html/resources/sequences_IDs/A/10_satellite_dish.jpg,5,10,2,1,4,2,4,8,0,22,,,,,,,,,,,,,,,,,,,,
,,,,,22,2020-07-01_09h49.03.758,retriever_ti,2020.1.3,Win32,60,Chrome,1366,768,,,,,,,,,,,,,,,,,3,,,,,,,,,,,,,,,,,,,,,,,,,,,891.8171,188,right,0.416455,parrot      ,3,5,-1,0,0,891.834185,891.834185,894.332235,0,33,33,33,1,188,4,3,clownfish     ,parrot      ,html/resources/sequences_IDs/A/04_clownfish.jpg,html/resources/sequences_IDs/B/05_parrot.jpg,4,5,2,1,2,1,3,4,0,22,,,,,,,,,,,,,,,,,,,,
,,,,,22,2020-07-01_09h49.03.758,retriever_ti,2020.1.3,Win32,60,Chrome,1366,768,,,,,,,,,,,,,,,,,3,,,,,,,,,,,,,,,,,,,,,,,,,,,895.432655,189,left,0.633685,clownfish     ,4,4,-4,0,3,895.46763,895.46763,897.965525,0,34,34,34,1,189,4,8,clownfish     ,seaturtle     ,html/resources/sequences_IDs/A/04_clownfish.jpg,html/resources/sequences_IDs/A/02_seaturtle.jpg,4,2,2,1,2,1,3,1,0,22,,,,,,,,,,,,,,,,,,,,
,,,,,22,2020-07-01_09h49.03.758,retriever_ti,2020.1.3,Win32,60,Chrome,1366,768,,,,,,,,,,,,,,,,,3,,,,,,,,,,,,,,,,,,,,,,,,,,,898.58313,190,right,0.78333,slipper     ,5,8,4,1,3,898.60036,898.60036,901.09874,0,35,35,35,1,190,1,5,phone       ,slipper     ,html/resources/sequences_IDs/B/09_phone.jpg,html/resources/sequences_IDs/B/08_slipper.jpg,9,8,4,2,3,2,7,6,0,22,,,,,,,,,,,,,,,,,,,,
,,,,,22,2020-07-01_09h49.03.758,retriever_ti,2020.1.3,Win32,60,Chrome,1366,768,,,,,,,,,,,,,,,,,3,,,,,,,,,,,,,,,,,,,,,,,,,,,901.71572,191,left,1.057375,giraffe     ,7,3,1,1,1,901.73327,901.73327,904.23179,0,36,36,36,1,191,7,6,giraffe     ,dress         ,html/resources/sequences_IDs/B/03_giraffe.jpg,html/resources/sequences_IDs/A/07_dress.jpg,3,7,1,1,3,2,2,5,0,22,,,,,,,,,,,,,,,,,,,,
,,,,,22,2020-07-01_09h49.03.758,retriever_ti,2020.1.3,Win32,60,Chrome,1366,768,,,,,,,,,,,,,,,,,3,,,,,,,,,,,,,,,,,,,,,,,,,,,905.33295,192,right,0.627205,clownfish     ,4,4,3,1,3,905.367095,905.367095,907.864945,0,37,37,37,1,192,1,4,phone       ,clownfish     ,html/resources/sequences_IDs/B/09_phone.jpg,html/resources/sequences_IDs/A/04_clownfish.jpg,9,4,4,2,2,1,7,3,0,22,,,,,,,,,,,,,,,,,,,,
,,,,,22,2020-07-01_09h49.03.758,retriever_ti,2020.1.3,Win32,60,Chrome,1366,768,,,,,,,,,,,,,,,,,3,,,,,,,,,,,,,,,,,,,,,,,,,,,908.482255,193,right,0.623735,seaturtle     ,8,2,7,1,3,908.49954,908.49954,910.999315,0,38,38,38,1,193,1,8,phone       ,seaturtle     ,html/resources/sequences_IDs/B/09_phone.jpg,html/resources/sequences_IDs/A/02_seaturtle.jpg,9,2,4,2,2,1,7,1,0,22,,,,,,,,,,,,,,,,,,,,
,,,,,22,2020-07-01_09h49.03.758,retriever_ti,2020.1.3,Win32,60,Chrome,1366,768,,,,,,,,,,,,,,,,,3,,,,,,,,,,,,,,,,,,,,,,,,,,,911.61723,194,left,0.925885,satellite_dish,2,10,-1,0,0,911.63458,911.63458,914.132225,0,39,39,39,1,194,2,3,satellite_dish,parrot      ,html/resources/sequences_IDs/A/10_satellite_dish.jpg,html/resources/sequences_IDs/B/05_parrot.jpg,10,5,4,2,2,1,8,4,0,22,,,,,,,,,,,,,,,,,,,,
,,,,,22,2020-07-01_09h49.03.758,retriever_ti,2020.1.3,Win32,60,Chrome,1366,768,,,,,,,,,,,,,,,,,3,,,,,,,,,,,,,,,,,,,,,,,,,,,915.23316,195,right,0.97663,clownfish     ,4,4,1,1,1,915.250755,915.250755,917.748935,0,40,40,40,1,195,3,4,parrot      ,clownfish     ,html/resources/sequences_IDs/B/05_parrot.jpg,html/resources/sequences_IDs/A/04_clownfish.jpg,5,4,2,1,2,1,4,3,0,22,,,,,,,,,,,,,,,,,,,,
,,,,,22,2020-07-01_09h49.03.758,retriever_ti,2020.1.3,Win32,60,Chrome,1366,768,,,,,,,,,,,,,,,,,3,,,,,,,,,,,,,,,,,,,,,,,,,,,918.850085,196,right,0.70081,giraffe     ,7,3,5,1,3,918.86775,918.86775,921.364285,0,41,41,41,1,196,2,7,satellite_dish,giraffe     ,html/resources/sequences_IDs/A/10_satellite_dish.jpg,html/resources/sequences_IDs/B/03_giraffe.jpg,10,3,4,2,1,1,8,2,0,22,,,,,,,,,,,,,,,,,,,,
,,,,,22,2020-07-01_09h49.03.758,retriever_ti,2020.1.3,Win32,60,Chrome,1366,768,,,,,,,,,,,,,,,,,3,,,,,,,,,,,,,,,,,,,,,,,,,,,921.98143,197,left,0.63187,seaturtle     ,8,2,4,1,3,921.999015,921.999015,924.497435,0,42,42,42,1,197,8,4,seaturtle     ,clownfish     ,html/resources/sequences_IDs/A/02_seaturtle.jpg,html/resources/sequences_IDs/A/04_clownfish.jpg,2,4,2,1,2,1,1,3,0,22,,,,,,,,,,,,,,,,,,,,
,,,,,22,2020-07-01_09h49.03.758,retriever_ti,2020.1.3,Win32,60,Chrome,1366,768,,,,,,,,,,,,,,,,,3,,,,,,,,,,,,,,,,,,,,,,,,,,,925.11533,198,right,0.68936,phone       ,1,9,-4,0,3,925.13254,925.13254,927.63226,0,43,43,43,1,198,5,1,slipper     ,phone       ,html/resources/sequences_IDs/B/08_slipper.jpg,html/resources/sequences_IDs/B/09_phone.jpg,8,9,3,2,4,2,6,7,0,22,,,,,,,,,,,,,,,,,,,,
,,,,,22,2020-07-01_09h49.03.758,retriever_ti,2020.1.3,Win32,60,Chrome,1366,768,,,,,,,,,,,,,,,,,3,,,,,,,,,,,,,,,,,,,,,,,,,,,928.24927,199,left,0.83612,seaturtle     ,8,2,1,1,1,928.283515,928.283515,930.781905,0,44,44,44,1,199,8,7,seaturtle     ,giraffe     ,html/resources/sequences_IDs/A/02_seaturtle.jpg,html/resources/sequences_IDs/B/03_giraffe.jpg,2,3,2,1,1,1,1,2,0,22,,,,,,,,,,,,,,,,,,,,
,,,,,22,2020-07-01_09h49.03.758,retriever_ti,2020.1.3,Win32,60,Chrome,1366,768,,,,,,,,,,,,,,,,,3,,,,,,,,,,,,,,,,,,,,,,,,,,,931.88326,200,right,0.615445,dress         ,6,7,5,1,3,931.91802,931.91802,934.41357,0,45,45,45,1,200,1,6,phone       ,dress         ,html/resources/sequences_IDs/B/09_phone.jpg,html/resources/sequences_IDs/A/07_dress.jpg,9,7,4,2,3,2,7,5,0,22,,,,,,,,,,,,,,,,,,,,
,,,,,22,2020-07-01_09h49.03.758,retriever_ti,2020.1.3,Win32,60,Chrome,1366,768,,,,,,,,,,,,,,,,,3,,,,,,,,,,,,,,,,,,,,,,,,,,,935.03087,201,right,0.488375,clownfish     ,4,4,-1,0,0,935.065255,935.065255,937.5635,0,46,46,46,1,201,5,4,slipper     ,clownfish     ,html/resources/sequences_IDs/B/08_slipper.jpg,html/resources/sequences_IDs/A/04_clownfish.jpg,8,4,3,2,2,1,6,3,0,22,,,,,,,,,,,,,,,,,,,,
,,,,,22,2020-07-01_09h49.03.758,retriever_ti,2020.1.3,Win32,60,Chrome,1366,768,,,,,,,,,,,,,,,,,3,,,,,,,,,,,,,,,,,,,,,,,,,,,938.664935,202,right,0.4663,slipper     ,5,8,-2,0,3,938.68173,938.68173,941.180055,0,47,47,47,1,202,7,5,giraffe     ,slipper     ,html/resources/sequences_IDs/B/03_giraffe.jpg,html/resources/sequences_IDs/B/08_slipper.jpg,3,8,1,1,3,2,2,6,0,22,,,,,,,,,,,,,,,,,,,,
,,,,,22,2020-07-01_09h49.03.758,retriever_ti,2020.1.3,Win32,60,Chrome,1366,768,,,,,,,,,,,,,,,,,3,,,,,,,,,,,,,,,,,,,,,,,,,,,941.797325,203,right,0.99926,seaturtle     ,8,2,1,1,1,941.8151,941.8151,944.313255,0,48,48,48,1,203,7,8,giraffe     ,seaturtle     ,html/resources/sequences_IDs/B/03_giraffe.jpg,html/resources/sequences_IDs/A/02_seaturtle.jpg,3,2,1,1,2,1,2,1,0,22,,,,,,,,,,,,,,,,,,,,
,,,,,22,2020-07-01_09h49.03.758,retriever_ti,2020.1.3,Win32,60,Chrome,1366,768,,,,,,,,,,,,,,,,,3,,,,,,,,,,,,,,,,,,,,,,,,,,,945.4146,204,right,0.802035,parrot      ,3,5,-2,0,3,945.431785,945.431785,947.92977,0,49,49,49,1,204,5,3,slipper     ,parrot      ,html/resources/sequences_IDs/B/08_slipper.jpg,html/resources/sequences_IDs/B/05_parrot.jpg,8,5,3,2,2,1,6,4,0,22,,,,,,,,,,,,,,,,,,,,
,,,,,22,2020-07-01_09h49.03.758,retriever_ti,2020.1.3,Win32,60,Chrome,1366,768,,,,,,,,,,,,,,,,,3,,,,,,,,,,,,,,,,,,,,,,,,,,,948.54708,205,left,0.83395,clownfish     ,4,4,-1,0,0,948.56477,948.56477,951.063895,0,50,50,50,1,205,4,5,clownfish     ,slipper     ,html/resources/sequences_IDs/A/04_clownfish.jpg,html/resources/sequences_IDs/B/08_slipper.jpg,4,8,2,1,3,2,3,6,0,22,,,,,,,,,,,,,,,,,,,,
,,,,,22,2020-07-01_09h49.03.758,retriever_ti,2020.1.3,Win32,60,Chrome,1366,768,,,,,,,,,,,,,,,,,3,,,,,,,,,,,,,,,,,,,,,,,,,,,952.16519,206,left,0.61697,giraffe     ,7,3,6,1,3,952.19866,952.19866,954.69721,0,51,51,51,1,206,7,1,giraffe     ,phone       ,html/resources/sequences_IDs/B/03_giraffe.jpg,html/resources/sequences_IDs/B/09_phone.jpg,3,9,1,1,4,2,2,7,0,22,,,,,,,,,,,,,,,,,,,,
,,,,,22,2020-07-01_09h49.03.758,retriever_ti,2020.1.3,Win32,60,Chrome,1366,768,,,,,,,,,,,,,,,,,3,,,,,,,,,,,,,,,,,,,,,,,,,,,955.29896,207,left,0.68207,parrot      ,3,5,1,1,0,955.333095,955.333095,957.829265,0,52,52,52,1,207,3,2,parrot      ,satellite_dish,html/resources/sequences_IDs/B/05_parrot.jpg,html/resources/sequences_IDs/A/10_satellite_dish.jpg,5,10,2,1,4,2,4,8,1,22,,,,,,,,,,,,,,,,,,,,
,,,,,22,2020-07-01_09h49.03.758,retriever_ti,2020.1.3,Win32,60,Chrome,1366,768,,,,,,,,,,,,,,,,,3,,,,,,,,,,,,,,,,,,,,,,,,,,,958.93141,208,left,1.345915,slipper     ,5,8,1,1,1,958.965575,958.965575,961.46239,0,53,53,53,1,208,5,4,slipper     ,clownfish     ,html/resources/sequences_IDs/B/08_slipper.jpg,html/resources/sequences_IDs/A/04_clownfish.jpg,8,4,3,2,2,1,6,3,0,22,,,,,,,,,,,,,,,,,,,,
,,,,,22,2020-07-01_09h49.03.758,retriever_ti,2020.1.3,Win32,60,Chrome,1366,768,,,,,,,,,,,,,,,,,3,,,,,,,,,,,,,,,,,,,,,,,,,,,962.56281,209,left,1.07554,giraffe     ,7,3,3,1,3,962.596995,962.596995,965.095445,0,54,54,54,1,209,7,4,giraffe     ,clownfish     ,html/resources/sequences_IDs/B/03_giraffe.jpg,html/resources/sequences_IDs/A/04_clownfish.jpg,3,4,1,1,2,1,2,3,0,22,,,,,,,,,,,,,,,,,,,,
,,,,,22,2020-07-01_09h49.03.758,retriever_ti,2020.1.3,Win32,60,Chrome,1366,768,,,,,,,,,,,,,,,,,3,,,,,,,,,,,,,,,,,,,,,,,,,,,965.71332,210,right,1.06429,seaturtle     ,8,2,5,1,3,965.747075,965.747075,968.24547,0,55,55,55,1,210,3,8,parrot      ,seaturtle     ,html/resources/sequences_IDs/B/05_parrot.jpg,html/resources/sequences_IDs/A/02_seaturtle.jpg,5,2,2,1,2,1,4,1,0,22,,,,,,,,,,,,,,,,,,,,
,,,,,22,2020-07-01_09h49.03.758,retriever_ti,2020.1.3,Win32,60,Chrome,1366,768,,,,,,,,,,,,,,,,,3,,,,,,,,,,,,,,,,,,,,,,,,,,,968.86268,211,right,1.062915,satellite_dish,2,10,1,1,1,968.88088,968.88088,971.379505,0,56,56,56,1,211,1,2,phone       ,satellite_dish,html/resources/sequences_IDs/B/09_phone.jpg,html/resources/sequences_IDs/A/10_satellite_dish.jpg,9,10,4,2,4,2,7,8,0,22,,,,,,,,,,,,,,,,,,,,
,,,,,22,2020-07-01_09h49.03.758,retriever_ti,2020.1.3,Win32,60,Chrome,1366,768,,,,,,,,,,,,,,,,,3,,,,,,,,,,,,,,,,,,,,,,,,,,,972.481645,212,right,1.16175,seaturtle     ,8,2,1,1,1,972.49845,972.49845,974.996345,0,57,57,57,1,212,7,8,giraffe     ,seaturtle     ,html/resources/sequences_IDs/B/03_giraffe.jpg,html/resources/sequences_IDs/A/02_seaturtle.jpg,3,2,1,1,2,1,2,1,0,22,,,,,,,,,,,,,,,,,,,,
,,,,,22,2020-07-01_09h49.03.758,retriever_ti,2020.1.3,Win32,60,Chrome,1366,768,,,,,,,,,,,,,,,,,3,,,,,,,,,,,,,,,,,,,,,,,,,,,976.09731,213,right,0.676585,seaturtle     ,8,2,6,1,3,976.13212,976.13212,978.62902,0,58,58,58,1,213,2,8,satellite_dish,seaturtle     ,html/resources/sequences_IDs/A/10_satellite_dish.jpg,html/resources/sequences_IDs/A/02_seaturtle.jpg,10,2,4,2,2,1,8,1,0,22,,,,,,,,,,,,,,,,,,,,
,,,,,22,2020-07-01_09h49.03.758,retriever_ti,2020.1.3,Win32,60,Chrome,1366,768,,,,,,,,,,,,,,,,,3,,,,,,,,,,,,,,,,,,,,,,,,,,,979.24783,214,left,1.187755,dress         ,6,7,4,1,3,979.26433,979.26433,981.761425,0,59,59,59,1,214,6,2,dress         ,satellite_dish,html/resources/sequences_IDs/A/07_dress.jpg,html/resources/sequences_IDs/A/10_satellite_dish.jpg,7,10,3,2,4,2,5,8,0,22,,,,,,,,,,,,,,,,,,,,
,,,,,22,2020-07-01_09h49.03.758,retriever_ti,2020.1.3,Win32,60,Chrome,1366,768,,,,,,,,,,,,,,,,,3,,,,,,,,,,,,,,,,,,,,,,,,,,,982.362735,215,left,0.88411,slipper     ,5,8,-1,0,0,982.397455,982.397455,984.894805,0,60,60,60,1,215,5,6,slipper     ,dress         ,html/resources/sequences_IDs/B/08_slipper.jpg,html/resources/sequences_IDs/A/07_dress.jpg,8,7,3,2,3,2,6,5,0,22,,,,,,,,,,,,,,,,,,,,
,,,,,22,2020-07-01_09h49.03.758,retriever_ti,2020.1.3,Win32,60,Chrome,1366,768,,,,,,,,,,,,,,,,,3,,,,,,,,,,,,,,,,,,,,,,,,,,,985.99549,216,left,0.69979,parrot      ,3,5,2,1,3,986.029,986.029,988.527745,0,61,61,61,1,216,3,1,parrot      ,phone       ,html/resources/sequences_IDs/B/05_parrot.jpg,html/resources/sequences_IDs/B/09_phone.jpg,5,9,2,1,4,2,4,7,0,22,,,,,,,,,,,,,,,,,,,,
,,,,,22,2020-07-01_09h49.03.758,retriever_ti,2020.1.3,Win32,60,Chrome,1366,768,,,,,,,,,,,,,,,,,3,,,,,,,,,,,,,,,,,,,,,,,,,,,989.14487,217,left,0.701475,giraffe     ,7,3,1,1,1,989.162695,989.162695,991.66167,0,62,62,62,1,217,7,6,giraffe     ,dress         ,html/resources/sequences_IDs/B/03_giraffe.jpg,html/resources/sequences_IDs/A/07_dress.jpg,3,7,1,1,3,2,2,5,0,22,,,,,,,,,,,,,,,,,,,,
,,,,,22,2020-07-01_09h49.03.758,retriever_ti,2020.1.3,Win32,60,Chrome,1366,768,,,,,,,,,,,,,,,,,3,,,,,,,,,,,,,,,,,,,,,,,,,,,992.76344,218,right,0.849425,slipper     ,5,8,-1,0,0,992.79766,992.79766,995.294105,0,63,63,63,1,218,6,5,dress         ,slipper     ,html/resources/sequences_IDs/A/07_dress.jpg,html/resources/sequences_IDs/B/08_slipper.jpg,7,8,3,2,3,2,5,6,0,22,,,,,,,,,,,,,,,,,,,,
,,,,,22,2020-07-01_09h49.03.758,retriever_ti,2020.1.3,Win32,60,Chrome,1366,768,,,,,,,,,,,,,,,,,3,,,,,,,,,,,,,,,,,,,,,,,,,,,996.395025,219,left,1.178025,satellite_dish,2,10,1,1,1,996.42939,996.42939,998.927195,0,64,64,64,1,219,2,1,satellite_dish,phone       ,html/resources/sequences_IDs/A/10_satellite_dish.jpg,html/resources/sequences_IDs/B/09_phone.jpg,10,9,4,2,4,2,8,7,0,22,,,,,,,,,,,,,,,,,,,,
,,,,,22,2020-07-01_09h49.03.758,retriever_ti,2020.1.3,Win32,60,Chrome,1366,768,,,,,,,,,,,,,,,,,3,,,,,,,,,,,,,,,,,,,,,,,,,,,1000.027995,220,left,1.936285,parrot      ,3,5,1,1,1,1000.045605,1000.045605,1002.5452,0,65,65,65,1,220,3,2,parrot      ,satellite_dish,html/resources/sequences_IDs/B/05_parrot.jpg,html/resources/sequences_IDs/A/10_satellite_dish.jpg,5,10,2,1,4,2,4,8,0,22,,,,,,,,,,,,,,,,,,,,
,,,,,22,2020-07-01_09h49.03.758,retriever_ti,2020.1.3,Win32,60,Chrome,1366,768,,,,,,,,,,,,,,,,,3,,,,,,,,,,,,,,,,,,,,,,,,,,,1003.64596,221,left,1.250035,seaturtle     ,8,2,3,1,3,1003.664665,1003.664665,1006.160135,0,66,66,66,1,221,8,5,seaturtle     ,slipper     ,html/resources/sequences_IDs/A/02_seaturtle.jpg,html/resources/sequences_IDs/B/08_slipper.jpg,2,8,2,1,3,2,1,6,0,22,,,,,,,,,,,,,,,,,,,,
,,,,,22,2020-07-01_09h49.03.758,retriever_ti,2020.1.3,Win32,60,Chrome,1366,768,,,,,,,,,,,,,,,,,3,,,,,,,,,,,,,,,,,,,,,,,,,,,1006.778325,222,right,0.63292,dress         ,6,7,2,1,3,1006.812375,1006.812375,1009.31012,0,67,67,67,1,222,4,6,clownfish     ,dress         ,html/resources/sequences_IDs/A/04_clownfish.jpg,html/resources/sequences_IDs/A/07_dress.jpg,4,7,2,1,3,2,3,5,0,22,,,,,,,,,,,,,,,,,,,,
