instructionsLoop.thisRepN,instructionsLoop.thisTrialN,instructionsLoop.thisN,instructionsLoop.thisIndex,instructionsLoop.ran,participant,date,expName,psychopyVersion,OS,frameRate,browser,xResolution,yResolution,fix_onset,tprac,practiceKey.keys,practiceKey.rt,pracitem_chosen_name,acc_practice,P1_onsetPrac,P2_onsetPrac,onsetFeedbPrac,practiceTrials.thisRepN,practiceTrials.thisTrialN,practiceTrials.thisN,practiceTrials.thisIndex,practiceTrials.ran,P1,P2,Block,LocItem1,LocItem2,NameItem1,NameItem2,key_respAC_prac.keys,key_respAC_prac.corr,key_respAC_prac.rt,AC_acc,Attentions.thisRepN,Attentions.thisTrialN,Attentions.thisN,Attentions.thisIndex,Attentions.ran,Stim,Loc1,Loc2,Loc3,Loc4,CorrAns,keyDisturbed.keys,keyDisturbed.rt,repPractice.thisRepN,repPractice.thisTrialN,repPractice.thisN,repPractice.thisIndex,repPractice.ran,fixcross_onsetMain,trialNumber,key_resp.keys,key_resp.rt,item_chosen_name,item_chosen_value,item_chosen_ID,diff_chosen_minus_reject,acc_real,acc_feedback,P1_onset,P2_onset,feedb_onset,trials.thisRepN,trials.thisTrialN,trials.thisN,trials.thisIndex,trials.ran,Trial,ValueP1,ValueP2,P1name,P2name,P1Loc,P2Loc,P1id,P2id,Micro_categoryP1,Macro_categoryP1,Micro_categoryP2,Macro_categoryP2,ID_sequenceP1,ID_sequenceP2,InverseFb,pNumber,repBlocks.thisRepN,repBlocks.thisTrialN,repBlocks.thisN,repBlocks.thisIndex,repBlocks.ran,key_respAC.keys,key_respAC.corr,key_respAC.rt,trials_AC.thisRepN,trials_AC.thisTrialN,trials_AC.thisN,trials_AC.thisIndex,trials_AC.ran,Bonus,BonusLoop.thisRepN,BonusLoop.thisTrialN,BonusLoop.thisN,BonusLoop.thisIndex,BonusLoop.ran,comments
0,0,0,0,1,23,2020-07-01_13h32.13.922,retriever_ti,2020.1.3,Win32,60,Chrome,1280,720,,,,,,,,,,,,,,,,,,,,,,,,,,,,,,,,,,,,,,,,,,,,,,,,,,,,,,,,,,,,,,,,,,,,,,,,,,,,,,,,,,,,,,,,,,,,,,,,,,
1,0,1,0,1,23,2020-07-01_13h32.13.922,retriever_ti,2020.1.3,Win32,60,Chrome,1280,720,,,,,,,,,,,,,,,,,,,,,,,,,,,,,,,,,,,,,,,,,,,,,,,,,,,,,,,,,,,,,,,,,,,,,,,,,,,,,,,,,,,,,,,,,,,,,,,,,,
2,0,2,0,1,23,2020-07-01_13h32.13.922,retriever_ti,2020.1.3,Win32,60,Chrome,1280,720,,,,,,,,,,,,,,,,,,,,,,,,,,,,,,,,,,,,,,,,,,,,,,,,,,,,,,,,,,,,,,,,,,,,,,,,,,,,,,,,,,,,,,,,,,,,,,,,,,
3,0,3,0,1,23,2020-07-01_13h32.13.922,retriever_ti,2020.1.3,Win32,60,Chrome,1280,720,,,,,,,,,,,,,,,,,,,,,,,,,,,,,,,,,,,,,,,,,,,,,,,,,,,,,,,,,,,,,,,,,,,,,,,,,,,,,,,,,,,,,,,,,,,,,,,,,,
4,0,4,0,1,23,2020-07-01_13h32.13.922,retriever_ti,2020.1.3,Win32,60,Chrome,1280,720,,,,,,,,,,,,,,,,,,,,,,,,,,,,,,,,,,,,,,,,,,,,,,,,,,,,,,,,,,,,,,,,,,,,,,,,,,,,,,,,,,,,,,,,,,,,,,,,,,
5,0,5,0,1,23,2020-07-01_13h32.13.922,retriever_ti,2020.1.3,Win32,60,Chrome,1280,720,,,,,,,,,,,,,,,,,,,,,,,,,,,,,,,,,,,,,,,,,,,,,,,,,,,,,,,,,,,,,,,,,,,,,,,,,,,,,,,,,,,,,,,,,,,,,,,,,,
6,0,6,0,1,23,2020-07-01_13h32.13.922,retriever_ti,2020.1.3,Win32,60,Chrome,1280,720,,,,,,,,,,,,,,,,,,,,,,,,,,,,,,,,,,,,,,,,,,,,,,,,,,,,,,,,,,,,,,,,,,,,,,,,,,,,,,,,,,,,,,,,,,,,,,,,,,
7,0,7,0,1,23,2020-07-01_13h32.13.922,retriever_ti,2020.1.3,Win32,60,Chrome,1280,720,,,,,,,,,,,,,,,,,,,,,,,,,,,,,,,,,,,,,,,,,,,,,,,,,,,,,,,,,,,,,,,,,,,,,,,,,,,,,,,,,,,,,,,,,,,,,,,,,,
8,0,8,0,1,23,2020-07-01_13h32.13.922,retriever_ti,2020.1.3,Win32,60,Chrome,1280,720,,,,,,,,,,,,,,,,,,,,,,,,,,,,,,,,,,,,,,,,,,,,,,,,,,,,,,,,,,,,,,,,,,,,,,,,,,,,,,,,,,,,,,,,,,,,,,,,,,
9,0,9,0,1,23,2020-07-01_13h32.13.922,retriever_ti,2020.1.3,Win32,60,Chrome,1280,720,,,,,,,,,,,,,,,,,,,,,,,,,,,,,,,,,,,,,,,,,,,,,,,,,,,,,,,,,,,,,,,,,,,,,,,,,,,,,,,,,,,,,,,,,,,,,,,,,,
10,0,10,0,1,23,2020-07-01_13h32.13.922,retriever_ti,2020.1.3,Win32,60,Chrome,1280,720,,,,,,,,,,,,,,,,,,,,,,,,,,,,,,,,,,,,,,,,,,,,,,,,,,,,,,,,,,,,,,,,,,,,,,,,,,,,,,,,,,,,,,,,,,,,,,,,,,
11,0,11,0,1,23,2020-07-01_13h32.13.922,retriever_ti,2020.1.3,Win32,60,Chrome,1280,720,,,,,,,,,,,,,,,,,,,,,,,,,,,,,,,,,,,,,,,,,,,,,,,,,,,,,,,,,,,,,,,,,,,,,,,,,,,,,,,,,,,,,,,,,,,,,,,,,,
12,0,12,0,1,23,2020-07-01_13h32.13.922,retriever_ti,2020.1.3,Win32,60,Chrome,1280,720,,,,,,,,,,,,,,,,,,,,,,,,,,,,,,,,,,,,,,,,,,,,,,,,,,,,,,,,,,,,,,,,,,,,,,,,,,,,,,,,,,,,,,,,,,,,,,,,,,
13,0,13,0,1,23,2020-07-01_13h32.13.922,retriever_ti,2020.1.3,Win32,60,Chrome,1280,720,,,,,,,,,,,,,,,,,,,,,,,,,,,,,,,,,,,,,,,,,,,,,,,,,,,,,,,,,,,,,,,,,,,,,,,,,,,,,,,,,,,,,,,,,,,,,,,,,,
14,0,14,0,1,23,2020-07-01_13h32.13.922,retriever_ti,2020.1.3,Win32,60,Chrome,1280,720,,,,,,,,,,,,,,,,,,,,,,,,,,,,,,,,,,,,,,,,,,,,,,,,,,,,,,,,,,,,,,,,,,,,,,,,,,,,,,,,,,,,,,,,,,,,,,,,,,
15,0,15,0,1,23,2020-07-01_13h32.13.922,retriever_ti,2020.1.3,Win32,60,Chrome,1280,720,,,,,,,,,,,,,,,,,,,,,,,,,,,,,,,,,,,,,,,,,,,,,,,,,,,,,,,,,,,,,,,,,,,,,,,,,,,,,,,,,,,,,,,,,,,,,,,,,,
16,0,16,0,1,23,2020-07-01_13h32.13.922,retriever_ti,2020.1.3,Win32,60,Chrome,1280,720,,,,,,,,,,,,,,,,,,,,,,,,,,,,,,,,,,,,,,,,,,,,,,,,,,,,,,,,,,,,,,,,,,,,,,,,,,,,,,,,,,,,,,,,,,,,,,,,,,
17,0,17,0,1,23,2020-07-01_13h32.13.922,retriever_ti,2020.1.3,Win32,60,Chrome,1280,720,,,,,,,,,,,,,,,,,,,,,,,,,,,,,,,,,,,,,,,,,,,,,,,,,,,,,,,,,,,,,,,,,,,,,,,,,,,,,,,,,,,,,,,,,,,,,,,,,,
18,0,18,0,1,23,2020-07-01_13h32.13.922,retriever_ti,2020.1.3,Win32,60,Chrome,1280,720,,,,,,,,,,,,,,,,,,,,,,,,,,,,,,,,,,,,,,,,,,,,,,,,,,,,,,,,,,,,,,,,,,,,,,,,,,,,,,,,,,,,,,,,,,,,,,,,,,
,,,,,23,2020-07-01_13h32.13.922,retriever_ti,2020.1.3,Win32,60,Chrome,1280,720,220.10214,1,right,1.175025,canary,1,220.131965,220.131965,222.641995,0,0,0,0,1,2,5,1,html/resources/stimuli_practice_decision/04_beetle.jpg,html/resources/stimuli_practice_decision/02_canary.jpg,beetle,canary,,,,,,,,,,,,,,,,,,,,,,,,,,,,,,,,,,,,,,,,,,,,,,,,,,,,,,,,,,,,,,,,,,,,,,,,,,,,,
,,,,,23,2020-07-01_13h32.13.922,retriever_ti,2020.1.3,Win32,60,Chrome,1280,720,223.21458,2,left,1.51008,rabbit,1,223.240195,223.240195,225.740565,0,1,1,1,1,4,3,1,html/resources/stimuli_practice_decision/01_rabbit.jpg,html/resources/stimuli_practice_decision/07_sock.jpg,rabbit,sock,,,,,,,,,,,,,,,,,,,,,,,,,,,,,,,,,,,,,,,,,,,,,,,,,,,,,,,,,,,,,,,,,,,,,,,,,,,,,
,,,,,23,2020-07-01_13h32.13.922,retriever_ti,2020.1.3,Win32,60,Chrome,1280,720,226.74341,3,right,1.05557,beetle,0,226.77412,226.77412,229.270095,0,2,2,2,1,6,2,1,html/resources/stimuli_practice_decision/06_pullover.jpg,html/resources/stimuli_practice_decision/04_beetle.jpg,pullover,beetle,,,,,,,,,,,,,,,,,,,,,,,,,,,,,,,,,,,,,,,,,,,,,,,,,,,,,,,,,,,,,,,,,,,,,,,,,,,,,
,,,,,23,2020-07-01_13h32.13.922,retriever_ti,2020.1.3,Win32,60,Chrome,1280,720,229.77839,4,right,1.053195,handmixer,0,229.808725,229.808725,232.297205,0,3,3,3,1,7,1,1,html/resources/stimuli_practice_decision/05_glasses.jpg,html/resources/stimuli_practice_decision/08_handmixer.jpg,glasses,handmixer,,,,,,,,,,,,,,,,,,,,,,,,,,,,,,,,,,,,,,,,,,,,,,,,,,,,,,,,,,,,,,,,,,,,,,,,,,,,,
,,,,,23,2020-07-01_13h32.13.922,retriever_ti,2020.1.3,Win32,60,Chrome,1280,720,232.812555,5,left,1.327215,glasses,1,232.876385,232.876385,235.38774,0,4,4,4,1,7,6,1,html/resources/stimuli_practice_decision/05_glasses.jpg,html/resources/stimuli_practice_decision/06_pullover.jpg,glasses,pullover,,,,,,,,,,,,,,,,,,,,,,,,,,,,,,,,,,,,,,,,,,,,,,,,,,,,,,,,,,,,,,,,,,,,,,,,,,,,,
,,,,,23,2020-07-01_13h32.13.922,retriever_ti,2020.1.3,Win32,60,Chrome,1280,720,236.38834,6,right,0.57971,glasses,1,236.41168,236.41168,238.91766,0,5,5,5,1,4,7,1,html/resources/stimuli_practice_decision/01_rabbit.jpg,html/resources/stimuli_practice_decision/05_glasses.jpg,rabbit,glasses,,,,,,,,,,,,,,,,,,,,,,,,,,,,,,,,,,,,,,,,,,,,,,,,,,,,,,,,,,,,,,,,,,,,,,,,,,,,,
,,,,,23,2020-07-01_13h32.13.922,retriever_ti,2020.1.3,Win32,60,Chrome,1280,720,239.42405,7,left,1.28495,handmixer,0,239.47258,239.47258,241.962325,0,6,6,6,1,1,2,1,html/resources/stimuli_practice_decision/08_handmixer.jpg,html/resources/stimuli_practice_decision/04_beetle.jpg,handmixer,beetle,,,,,,,,,,,,,,,,,,,,,,,,,,,,,,,,,,,,,,,,,,,,,,,,,,,,,,,,,,,,,,,,,,,,,,,,,,,,,
,,,,,23,2020-07-01_13h32.13.922,retriever_ti,2020.1.3,Win32,60,Chrome,1280,720,242.96842,8,left,0.738115,rabbit,1,243.00192,243.00192,245.49315,0,7,7,7,1,4,3,1,html/resources/stimuli_practice_decision/01_rabbit.jpg,html/resources/stimuli_practice_decision/07_sock.jpg,rabbit,sock,,,,,,,,,,,,,,,,,,,,,,,,,,,,,,,,,,,,,,,,,,,,,,,,,,,,,,,,,,,,,,,,,,,,,,,,,,,,,
,,,,,23,2020-07-01_13h32.13.922,retriever_ti,2020.1.3,Win32,60,Chrome,1280,720,,,,,,,,,,,,,,,,,,,,,,up,1,2.54195,1,0,0,0,0,1,html/resources/sequences_IDs/circle.png,circle ↑,square →,triangle ↓,← star ,up,,,,,,,,,,,,,,,,,,,,,,,,,,,,,,,,,,,,,,,,,,,,,,,,,,,,,,,,,,,,,,
,,,,,23,2020-07-01_13h32.13.922,retriever_ti,2020.1.3,Win32,60,Chrome,1280,720,,,,,,,,,,,,,,,,,,,,,,left,1,2.134235,1,0,1,1,2,1,html/resources/sequences_IDs/square1.png,star ↑,triangle →,circle ↓,← square,left,,,,,,,,,,,,,,,,,,,,,,,,,,,,,,,,,,,,,,,,,,,,,,,,,,,,,,,,,,,,,,
,,,,,23,2020-07-01_13h32.13.922,retriever_ti,2020.1.3,Win32,60,Chrome,1280,720,,,,,,,,,,,,,,,,,,,,,,down,1,2.046275,1,0,2,2,1,1,html/resources/sequences_IDs/star.png,square ↑,circle →,star ↓,← triangle,down,,,,,,,,,,,,,,,,,,,,,,,,,,,,,,,,,,,,,,,,,,,,,,,,,,,,,,,,,,,,,,
,,,,,23,2020-07-01_13h32.13.922,retriever_ti,2020.1.3,Win32,60,Chrome,1280,720,,,,,,,,,,,,,,,,,,,,,,down,1,2.766515,1,0,3,3,3,1,html/resources/sequences_IDs/triangle.png,star ↑,square →,triangle ↓,← circle,down,,,,,,,,,,,,,,,,,,,,,,,,,,,,,,,,,,,,,,,,,,,,,,,,,,,,,,,,,,,,,,
,,,,,23,2020-07-01_13h32.13.922,retriever_ti,2020.1.3,Win32,60,Chrome,1280,720,,,,,,,,,,,,,,,,,,,,,,,,,,,,,,,,,,,,,0,47.310695,0,0,0,0,1,,,,,,,,,,,,,,,,,,,,,,,,,,,,,,,,,,,,,,,,,,,,,,,,,,,,,,,
,,,,,23,2020-07-01_13h32.13.922,retriever_ti,2020.1.3,Win32,60,Chrome,1280,720,355.835005,9,right,1.25073,glasses,1,355.856435,355.856435,358.361825,0,0,0,0,1,6,7,1,html/resources/stimuli_practice_decision/06_pullover.jpg,html/resources/stimuli_practice_decision/05_glasses.jpg,pullover,glasses,,,,,,,,,,,,,,,,,,,,,,,,,,,,,,,,,,,,,,,,,,,,,,,,,,,,,,,,,,,,,,,,,,,,,,,,,,,,,
,,,,,23,2020-07-01_13h32.13.922,retriever_ti,2020.1.3,Win32,60,Chrome,1280,720,359.354265,10,right,0.802185,beetle,0,359.38399,359.38399,361.889005,0,1,1,1,1,6,2,1,html/resources/stimuli_practice_decision/06_pullover.jpg,html/resources/stimuli_practice_decision/04_beetle.jpg,pullover,beetle,,,,,,,,,,,,,,,,,,,,,,,,,,,,,,,,,,,,,,,,,,,,,,,,,,,,,,,,,,,,,,,,,,,,,,,,,,,,,
,,,,,23,2020-07-01_13h32.13.922,retriever_ti,2020.1.3,Win32,60,Chrome,1280,720,362.41607,11,left,0.861105,canary,0,362.46802,362.46802,364.96218,0,2,2,2,1,5,6,1,html/resources/stimuli_practice_decision/02_canary.jpg,html/resources/stimuli_practice_decision/06_pullover.jpg,canary,pullover,,,,,,,,,,,,,,,,,,,,,,,,,,,,,,,,,,,,,,,,,,,,,,,,,,,,,,,,,,,,,,,,,,,,,,,,,,,,,
,,,,,23,2020-07-01_13h32.13.922,retriever_ti,2020.1.3,Win32,60,Chrome,1280,720,365.966585,12,right,1.060605,glasses,0,366.022945,366.022945,368.52878,0,3,3,3,1,8,7,1,html/resources/stimuli_practice_decision/03_squirrel.jpg,html/resources/stimuli_practice_decision/05_glasses.jpg,squirrel,glasses,,,,,,,,,,,,,,,,,,,,,,,,,,,,,,,,,,,,,,,,,,,,,,,,,,,,,,,,,,,,,,,,,,,,,,,,,,,,,
,,,,,23,2020-07-01_13h32.13.922,retriever_ti,2020.1.3,Win32,60,Chrome,1280,720,369.54321,13,right,1.66541,sock,0,369.596765,369.596765,372.082085,0,4,4,4,1,5,3,1,html/resources/stimuli_practice_decision/02_canary.jpg,html/resources/stimuli_practice_decision/07_sock.jpg,canary,sock,,,,,,,,,,,,,,,,,,,,,,,,,,,,,,,,,,,,,,,,,,,,,,,,,,,,,,,,,,,,,,,,,,,,,,,,,,,,,
,,,,,23,2020-07-01_13h32.13.922,retriever_ti,2020.1.3,Win32,60,Chrome,1280,720,372.600055,14,left,0.92802,glasses,0,372.61851,372.61851,375.131265,0,5,5,5,1,7,8,1,html/resources/stimuli_practice_decision/05_glasses.jpg,html/resources/stimuli_practice_decision/03_squirrel.jpg,glasses,squirrel,,,,,,,,,,,,,,,,,,,,,,,,,,,,,,,,,,,,,,,,,,,,,,,,,,,,,,,,,,,,,,,,,,,,,,,,,,,,,
,,,,,23,2020-07-01_13h32.13.922,retriever_ti,2020.1.3,Win32,60,Chrome,1280,720,376.132085,15,right,1.774845,rabbit,0,376.158665,376.158665,378.64521,0,6,6,6,1,5,4,1,html/resources/stimuli_practice_decision/02_canary.jpg,html/resources/stimuli_practice_decision/01_rabbit.jpg,canary,rabbit,,,,,,,,,,,,,,,,,,,,,,,,,,,,,,,,,,,,,,,,,,,,,,,,,,,,,,,,,,,,,,,,,,,,,,,,,,,,,
,,,,,23,2020-07-01_13h32.13.922,retriever_ti,2020.1.3,Win32,60,Chrome,1280,720,379.655145,16,left,0.460965,canary,1,379.68048,379.68048,382.17036,0,7,7,7,1,5,3,1,html/resources/stimuli_practice_decision/02_canary.jpg,html/resources/stimuli_practice_decision/07_sock.jpg,canary,sock,,,,,,,,,,,,,,,,,,,,,,,,,,,,,,,,,,,,,,,,,,,,,,,,,,,,,,,,,,,,,,,,,,,,,,,,,,,,,
,,,,,23,2020-07-01_13h32.13.922,retriever_ti,2020.1.3,Win32,60,Chrome,1280,720,,,,,,,,,,,,,,,,,,,,,,down,1,2.37006,1,0,0,0,1,1,html/resources/sequences_IDs/star.png,square ↑,circle →,star ↓,← triangle,down,,,,,,,,,,,,,,,,,,,,,,,,,,,,,,,,,,,,,,,,,,,,,,,,,,,,,,,,,,,,,,
,,,,,23,2020-07-01_13h32.13.922,retriever_ti,2020.1.3,Win32,60,Chrome,1280,720,,,,,,,,,,,,,,,,,,,,,,up,1,1.43042,1,0,1,1,0,1,html/resources/sequences_IDs/circle.png,circle ↑,square →,triangle ↓,← star ,up,,,,,,,,,,,,,,,,,,,,,,,,,,,,,,,,,,,,,,,,,,,,,,,,,,,,,,,,,,,,,,
,,,,,23,2020-07-01_13h32.13.922,retriever_ti,2020.1.3,Win32,60,Chrome,1280,720,,,,,,,,,,,,,,,,,,,,,,left,1,1.34836,1,0,2,2,2,1,html/resources/sequences_IDs/square1.png,star ↑,triangle →,circle ↓,← square,left,,,,,,,,,,,,,,,,,,,,,,,,,,,,,,,,,,,,,,,,,,,,,,,,,,,,,,,,,,,,,,
,,,,,23,2020-07-01_13h32.13.922,retriever_ti,2020.1.3,Win32,60,Chrome,1280,720,,,,,,,,,,,,,,,,,,,,,,down,1,1.30497,1,0,3,3,3,1,html/resources/sequences_IDs/triangle.png,star ↑,square →,triangle ↓,← circle,down,,,,,,,,,,,,,,,,,,,,,,,,,,,,,,,,,,,,,,,,,,,,,,,,,,,,,,,,,,,,,,
,,,,,23,2020-07-01_13h32.13.922,retriever_ti,2020.1.3,Win32,60,Chrome,1280,720,,,,,,,,,,,,,,,,,,,,,,,,,,,,,,,,,,,,,0,3.25603,1,0,1,0,1,,,,,,,,,,,,,,,,,,,,,,,,,,,,,,,,,,,,,,,,,,,,,,,,,,,,,,,
,,,,,23,2020-07-01_13h32.13.922,retriever_ti,2020.1.3,Win32,60,Chrome,1280,720,,,,,,,,,,,,,,,,,1,,,,,,,,,,,,,,,,,,,,,,,,,,,410.49552,1,left,1.066855,peacock       ,4,5,-2,0,3,410.51533,410.51533,413.026125,0,0,0,0,1,1,4,6,peacock       ,scarf         ,html/resources/sequences_IDs/A/05_peacock.jpg,html/resources/sequences_IDs/A/06_scarf.jpg,5,6,2,1,3,2,4,5,0,23,,,,,,,,,,,,,,,,,,,,
,,,,,23,2020-07-01_13h32.13.922,retriever_ti,2020.1.3,Win32,60,Chrome,1280,720,,,,,,,,,,,,,,,,,1,,,,,,,,,,,,,,,,,,,,,,,,,,,413.641105,2,right,0.568285,peacock       ,4,5,-2,0,3,413.696305,413.696305,416.194555,0,1,1,1,1,2,6,4,scarf         ,peacock       ,html/resources/sequences_IDs/A/06_scarf.jpg,html/resources/sequences_IDs/A/05_peacock.jpg,6,5,3,2,2,1,5,4,0,23,,,,,,,,,,,,,,,,,,,,
,,,,,23,2020-07-01_13h32.13.922,retriever_ti,2020.1.3,Win32,60,Chrome,1280,720,,,,,,,,,,,,,,,,,1,,,,,,,,,,,,,,,,,,,,,,,,,,,416.820855,3,right,1.883705,holdfast    ,3,4,1,1,1,416.87148,416.87148,419.371775,0,2,2,2,1,3,2,3,calculator    ,holdfast    ,html/resources/sequences_IDs/A/09_calculator.jpg,html/resources/sequences_IDs/B/04_holdfast.jpg,9,4,4,2,2,1,7,3,0,23,,,,,,,,,,,,,,,,,,,,
,,,,,23,2020-07-01_13h32.13.922,retriever_ti,2020.1.3,Win32,60,Chrome,1280,720,,,,,,,,,,,,,,,,,1,,,,,,,,,,,,,,,,,,,,,,,,,,,420.471095,4,right,1.642465,calculator    ,2,9,-4,0,3,420.497255,420.497255,422.989325,0,3,3,3,1,4,6,2,scarf         ,calculator    ,html/resources/sequences_IDs/A/06_scarf.jpg,html/resources/sequences_IDs/A/09_calculator.jpg,6,9,3,2,4,2,5,7,0,23,,,,,,,,,,,,,,,,,,,,
,,,,,23,2020-07-01_13h32.13.922,retriever_ti,2020.1.3,Win32,60,Chrome,1280,720,,,,,,,,,,,,,,,,,1,,,,,,,,,,,,,,,,,,,,,,,,,,,423.59089,5,right,1.698255,peacock       ,4,5,-1,0,0,423.67044,423.67044,426.180205,0,4,4,4,1,5,5,4,radio       ,peacock       ,html/resources/sequences_IDs/B/10_radio.jpg,html/resources/sequences_IDs/A/05_peacock.jpg,10,5,4,2,2,1,8,4,0,23,,,,,,,,,,,,,,,,,,,,
,,,,,23,2020-07-01_13h32.13.922,retriever_ti,2020.1.3,Win32,60,Chrome,1280,720,,,,,,,,,,,,,,,,,1,,,,,,,,,,,,,,,,,,,,,,,,,,,427.282975,6,left,0.493285,radio       ,5,10,-1,0,0,427.341135,427.341135,429.84945,0,5,5,5,1,6,5,6,radio       ,scarf         ,html/resources/sequences_IDs/B/10_radio.jpg,html/resources/sequences_IDs/A/06_scarf.jpg,10,6,4,2,3,2,8,5,0,23,,,,,,,,,,,,,,,,,,,,
,,,,,23,2020-07-01_13h32.13.922,retriever_ti,2020.1.3,Win32,60,Chrome,1280,720,,,,,,,,,,,,,,,,,1,,,,,,,,,,,,,,,,,,,,,,,,,,,430.954255,7,left,1.10022,holdfast    ,3,4,1,1,1,430.983215,430.983215,433.467465,0,6,6,6,1,7,3,2,holdfast    ,calculator    ,html/resources/sequences_IDs/B/04_holdfast.jpg,html/resources/sequences_IDs/A/09_calculator.jpg,4,9,2,1,4,2,3,7,0,23,,,,,,,,,,,,,,,,,,,,
,,,,,23,2020-07-01_13h32.13.922,retriever_ti,2020.1.3,Win32,60,Chrome,1280,720,,,,,,,,,,,,,,,,,1,,,,,,,,,,,,,,,,,,,,,,,,,,,434.559915,8,left,1.407745,peacock       ,4,5,-3,0,3,434.615015,434.615015,437.10216,0,7,7,7,1,8,4,7,peacock       ,dolphin     ,html/resources/sequences_IDs/A/05_peacock.jpg,html/resources/sequences_IDs/B/02_dolphin.jpg,5,2,2,1,1,1,4,2,0,23,,,,,,,,,,,,,,,,,,,,
,,,,,23,2020-07-01_13h32.13.922,retriever_ti,2020.1.3,Win32,60,Chrome,1280,720,,,,,,,,,,,,,,,,,1,,,,,,,,,,,,,,,,,,,,,,,,,,,437.720205,9,right,1.60243,calculator    ,2,9,-5,0,3,437.75265,437.75265,440.243355,0,8,8,8,1,9,7,2,dolphin     ,calculator    ,html/resources/sequences_IDs/B/02_dolphin.jpg,html/resources/sequences_IDs/A/09_calculator.jpg,2,9,1,1,4,2,2,7,0,23,,,,,,,,,,,,,,,,,,,,
,,,,,23,2020-07-01_13h32.13.922,retriever_ti,2020.1.3,Win32,60,Chrome,1280,720,,,,,,,,,,,,,,,,,1,,,,,,,,,,,,,,,,,,,,,,,,,,,440.860015,10,left,1.67813,radio       ,5,10,1,1,1,440.88502,440.88502,443.380155,0,9,9,9,1,10,5,4,radio       ,peacock       ,html/resources/sequences_IDs/B/10_radio.jpg,html/resources/sequences_IDs/A/05_peacock.jpg,10,5,4,2,2,1,8,4,0,23,,,,,,,,,,,,,,,,,,,,
,,,,,23,2020-07-01_13h32.13.922,retriever_ti,2020.1.3,Win32,60,Chrome,1280,720,,,,,,,,,,,,,,,,,1,,,,,,,,,,,,,,,,,,,,,,,,,,,444.474165,11,left,1.070075,scarf         ,6,6,-2,0,3,444.529295,444.529295,447.013905,0,10,10,10,1,11,6,8,scarf         ,wolf          ,html/resources/sequences_IDs/A/06_scarf.jpg,html/resources/sequences_IDs/A/01_wolf.jpg,6,1,3,2,1,1,5,1,0,23,,,,,,,,,,,,,,,,,,,,
,,,,,23,2020-07-01_13h32.13.922,retriever_ti,2020.1.3,Win32,60,Chrome,1280,720,,,,,,,,,,,,,,,,,1,,,,,,,,,,,,,,,,,,,,,,,,,,,447.61527,12,right,1.467935,calculator    ,2,9,1,1,1,447.66625,447.66625,450.158545,0,11,11,11,1,12,1,2,slipper     ,calculator    ,html/resources/sequences_IDs/B/08_slipper.jpg,html/resources/sequences_IDs/A/09_calculator.jpg,8,9,3,2,4,2,6,7,0,23,,,,,,,,,,,,,,,,,,,,
,,,,,23,2020-07-01_13h32.13.922,retriever_ti,2020.1.3,Win32,60,Chrome,1280,720,,,,,,,,,,,,,,,,,1,,,,,,,,,,,,,,,,,,,,,,,,,,,451.25239,13,left,1.002145,holdfast    ,3,4,1,1,0,451.33378,451.33378,453.838345,0,12,12,12,1,13,3,2,holdfast    ,calculator    ,html/resources/sequences_IDs/B/04_holdfast.jpg,html/resources/sequences_IDs/A/09_calculator.jpg,4,9,2,1,4,2,3,7,1,23,,,,,,,,,,,,,,,,,,,,
,,,,,23,2020-07-01_13h32.13.922,retriever_ti,2020.1.3,Win32,60,Chrome,1280,720,,,,,,,,,,,,,,,,,1,,,,,,,,,,,,,,,,,,,,,,,,,,,454.951825,14,left,0.47251,calculator    ,2,9,1,1,1,454.980075,454.980075,457.46508,0,13,13,13,1,14,2,1,calculator    ,slipper     ,html/resources/sequences_IDs/A/09_calculator.jpg,html/resources/sequences_IDs/B/08_slipper.jpg,9,8,4,2,3,2,7,6,0,23,,,,,,,,,,,,,,,,,,,,
,,,,,23,2020-07-01_13h32.13.922,retriever_ti,2020.1.3,Win32,60,Chrome,1280,720,,,,,,,,,,,,,,,,,1,,,,,,,,,,,,,,,,,,,,,,,,,,,458.57364,15,right,0.78641,holdfast    ,3,4,-5,0,3,458.60652,458.60652,461.105365,0,14,14,14,1,15,8,3,wolf          ,holdfast    ,html/resources/sequences_IDs/A/01_wolf.jpg,html/resources/sequences_IDs/B/04_holdfast.jpg,1,4,1,1,2,1,1,3,0,23,,,,,,,,,,,,,,,,,,,,
,,,,,23,2020-07-01_13h32.13.922,retriever_ti,2020.1.3,Win32,60,Chrome,1280,720,,,,,,,,,,,,,,,,,1,,,,,,,,,,,,,,,,,,,,,,,,,,,461.729525,16,left,0.661145,calculator    ,2,9,1,1,1,461.77618,461.77618,464.294225,0,15,15,15,1,16,2,1,calculator    ,slipper     ,html/resources/sequences_IDs/A/09_calculator.jpg,html/resources/sequences_IDs/B/08_slipper.jpg,9,8,4,2,3,2,7,6,0,23,,,,,,,,,,,,,,,,,,,,
,,,,,23,2020-07-01_13h32.13.922,retriever_ti,2020.1.3,Win32,60,Chrome,1280,720,,,,,,,,,,,,,,,,,1,,,,,,,,,,,,,,,,,,,,,,,,,,,465.419225,17,left,1.25582,slipper     ,1,8,-3,0,3,465.47804,465.47804,467.979985,0,16,16,16,1,17,1,4,slipper     ,peacock       ,html/resources/sequences_IDs/B/08_slipper.jpg,html/resources/sequences_IDs/A/05_peacock.jpg,8,5,3,2,2,1,6,4,0,23,,,,,,,,,,,,,,,,,,,,
,,,,,23,2020-07-01_13h32.13.922,retriever_ti,2020.1.3,Win32,60,Chrome,1280,720,,,,,,,,,,,,,,,,,1,,,,,,,,,,,,,,,,,,,,,,,,,,,468.60161,18,right,0.66659,calculator    ,2,9,1,1,1,468.658205,468.658205,471.15349,0,17,17,17,1,18,1,2,slipper     ,calculator    ,html/resources/sequences_IDs/B/08_slipper.jpg,html/resources/sequences_IDs/A/09_calculator.jpg,8,9,3,2,4,2,6,7,0,23,,,,,,,,,,,,,,,,,,,,
,,,,,23,2020-07-01_13h32.13.922,retriever_ti,2020.1.3,Win32,60,Chrome,1280,720,,,,,,,,,,,,,,,,,1,,,,,,,,,,,,,,,,,,,,,,,,,,,472.253035,19,left,1.273815,wolf          ,8,1,1,1,1,472.305575,472.305575,474.80854,0,18,18,18,1,19,8,7,wolf          ,dolphin     ,html/resources/sequences_IDs/A/01_wolf.jpg,html/resources/sequences_IDs/B/02_dolphin.jpg,1,2,1,1,1,1,1,2,0,23,,,,,,,,,,,,,,,,,,,,
,,,,,23,2020-07-01_13h32.13.922,retriever_ti,2020.1.3,Win32,60,Chrome,1280,720,,,,,,,,,,,,,,,,,1,,,,,,,,,,,,,,,,,,,,,,,,,,,475.919955,20,right,1.77103,holdfast    ,3,4,-2,0,3,475.979465,475.979465,478.47355,0,19,19,19,1,20,5,3,radio       ,holdfast    ,html/resources/sequences_IDs/B/10_radio.jpg,html/resources/sequences_IDs/B/04_holdfast.jpg,10,4,4,2,2,1,8,3,0,23,,,,,,,,,,,,,,,,,,,,
,,,,,23,2020-07-01_13h32.13.922,retriever_ti,2020.1.3,Win32,60,Chrome,1280,720,,,,,,,,,,,,,,,,,1,,,,,,,,,,,,,,,,,,,,,,,,,,,479.083085,21,left,1.653015,wolf          ,8,1,7,1,3,479.118175,479.118175,481.6201,0,20,20,20,1,21,8,1,wolf          ,slipper     ,html/resources/sequences_IDs/A/01_wolf.jpg,html/resources/sequences_IDs/B/08_slipper.jpg,1,8,1,1,3,2,1,6,0,23,,,,,,,,,,,,,,,,,,,,
,,,,,23,2020-07-01_13h32.13.922,retriever_ti,2020.1.3,Win32,60,Chrome,1280,720,,,,,,,,,,,,,,,,,1,,,,,,,,,,,,,,,,,,,,,,,,,,,482.246855,22,right,1.244085,radio       ,5,10,2,1,3,482.300055,482.300055,484.793735,0,21,21,21,1,22,3,5,holdfast    ,radio       ,html/resources/sequences_IDs/B/04_holdfast.jpg,html/resources/sequences_IDs/B/10_radio.jpg,4,10,2,1,4,2,3,8,0,23,,,,,,,,,,,,,,,,,,,,
,,,,,23,2020-07-01_13h32.13.922,retriever_ti,2020.1.3,Win32,60,Chrome,1280,720,,,,,,,,,,,,,,,,,1,,,,,,,,,,,,,,,,,,,,,,,,,,,485.41505,23,right,0.934525,radio       ,5,10,1,1,0,485.467665,485.467665,487.954765,0,22,22,22,1,23,4,5,peacock       ,radio       ,html/resources/sequences_IDs/A/05_peacock.jpg,html/resources/sequences_IDs/B/10_radio.jpg,5,10,2,1,4,2,4,8,1,23,,,,,,,,,,,,,,,,,,,,
,,,,,23,2020-07-01_13h32.13.922,retriever_ti,2020.1.3,Win32,60,Chrome,1280,720,,,,,,,,,,,,,,,,,1,,,,,,,,,,,,,,,,,,,,,,,,,,,489.062525,24,left,0.642865,peacock       ,4,5,-4,0,3,489.10878,489.10878,491.61629,0,23,23,23,1,24,4,8,peacock       ,wolf          ,html/resources/sequences_IDs/A/05_peacock.jpg,html/resources/sequences_IDs/A/01_wolf.jpg,5,1,2,1,1,1,4,1,0,23,,,,,,,,,,,,,,,,,,,,
,,,,,23,2020-07-01_13h32.13.922,retriever_ti,2020.1.3,Win32,60,Chrome,1280,720,,,,,,,,,,,,,,,,,1,,,,,,,,,,,,,,,,,,,,,,,,,,,492.227175,25,left,1.417125,scarf         ,6,6,1,1,1,492.291735,492.291735,494.79194,0,24,24,24,1,25,6,5,scarf         ,radio       ,html/resources/sequences_IDs/A/06_scarf.jpg,html/resources/sequences_IDs/B/10_radio.jpg,6,10,3,2,4,2,5,8,0,23,,,,,,,,,,,,,,,,,,,,
,,,,,23,2020-07-01_13h32.13.922,retriever_ti,2020.1.3,Win32,60,Chrome,1280,720,,,,,,,,,,,,,,,,,1,,,,,,,,,,,,,,,,,,,,,,,,,,,495.904745,26,right,1.065285,holdfast    ,3,4,-1,0,0,495.93782,495.93782,498.4249,0,25,25,25,1,26,4,3,peacock       ,holdfast    ,html/resources/sequences_IDs/A/05_peacock.jpg,html/resources/sequences_IDs/B/04_holdfast.jpg,5,4,2,1,2,1,4,3,0,23,,,,,,,,,,,,,,,,,,,,
,,,,,23,2020-07-01_13h32.13.922,retriever_ti,2020.1.3,Win32,60,Chrome,1280,720,,,,,,,,,,,,,,,,,1,,,,,,,,,,,,,,,,,,,,,,,,,,,499.532505,27,right,1.297455,wolf          ,8,1,5,1,3,499.585655,499.585655,502.079735,0,26,26,26,1,27,3,8,holdfast    ,wolf          ,html/resources/sequences_IDs/B/04_holdfast.jpg,html/resources/sequences_IDs/A/01_wolf.jpg,4,1,2,1,1,1,3,1,0,23,,,,,,,,,,,,,,,,,,,,
,,,,,23,2020-07-01_13h32.13.922,retriever_ti,2020.1.3,Win32,60,Chrome,1280,720,,,,,,,,,,,,,,,,,1,,,,,,,,,,,,,,,,,,,,,,,,,,,502.69653,28,right,1.1782,holdfast    ,3,4,-1,0,0,502.72289,502.72289,505.20623,0,27,27,27,1,28,4,3,peacock       ,holdfast    ,html/resources/sequences_IDs/A/05_peacock.jpg,html/resources/sequences_IDs/B/04_holdfast.jpg,5,4,2,1,2,1,4,3,0,23,,,,,,,,,,,,,,,,,,,,
,,,,,23,2020-07-01_13h32.13.922,retriever_ti,2020.1.3,Win32,60,Chrome,1280,720,,,,,,,,,,,,,,,,,1,,,,,,,,,,,,,,,,,,,,,,,,,,,506.30304,29,left,1.22804,wolf          ,8,1,1,1,0,506.33177,506.33177,508.83817,0,28,28,28,1,29,8,7,wolf          ,dolphin     ,html/resources/sequences_IDs/A/01_wolf.jpg,html/resources/sequences_IDs/B/02_dolphin.jpg,1,2,1,1,1,1,1,2,1,23,,,,,,,,,,,,,,,,,,,,
,,,,,23,2020-07-01_13h32.13.922,retriever_ti,2020.1.3,Win32,60,Chrome,1280,720,,,,,,,,,,,,,,,,,1,,,,,,,,,,,,,,,,,,,,,,,,,,,509.945055,30,left,0.946455,dolphin     ,7,2,-1,0,0,509.968695,509.968695,512.464475,0,29,29,29,1,30,7,8,dolphin     ,wolf          ,html/resources/sequences_IDs/B/02_dolphin.jpg,html/resources/sequences_IDs/A/01_wolf.jpg,2,1,1,1,1,1,2,1,0,23,,,,,,,,,,,,,,,,,,,,
,,,,,23,2020-07-01_13h32.13.922,retriever_ti,2020.1.3,Win32,60,Chrome,1280,720,,,,,,,,,,,,,,,,,1,,,,,,,,,,,,,,,,,,,,,,,,,,,513.565805,31,left,1.965065,radio       ,5,10,4,1,3,513.63101,513.63101,516.13423,0,30,30,30,1,31,5,1,radio       ,slipper     ,html/resources/sequences_IDs/B/10_radio.jpg,html/resources/sequences_IDs/B/08_slipper.jpg,10,8,4,2,3,2,8,6,0,23,,,,,,,,,,,,,,,,,,,,
,,,,,23,2020-07-01_13h32.13.922,retriever_ti,2020.1.3,Win32,60,Chrome,1280,720,,,,,,,,,,,,,,,,,1,,,,,,,,,,,,,,,,,,,,,,,,,,,516.750495,32,left,1.349085,wolf          ,8,1,1,1,1,516.779565,516.779565,519.26959,0,31,31,31,1,32,8,7,wolf          ,dolphin     ,html/resources/sequences_IDs/A/01_wolf.jpg,html/resources/sequences_IDs/B/02_dolphin.jpg,1,2,1,1,1,1,1,2,0,23,,,,,,,,,,,,,,,,,,,,
,,,,,23,2020-07-01_13h32.13.922,retriever_ti,2020.1.3,Win32,60,Chrome,1280,720,,,,,,,,,,,,,,,,,1,,,,,,,,,,,,,,,,,,,,,,,,,,,520.367225,33,right,0.90314,wolf          ,8,1,1,1,1,520.394475,520.394475,522.885045,0,32,32,32,1,33,7,8,dolphin     ,wolf          ,html/resources/sequences_IDs/B/02_dolphin.jpg,html/resources/sequences_IDs/A/01_wolf.jpg,2,1,1,1,1,1,2,1,0,23,,,,,,,,,,,,,,,,,,,,
,,,,,23,2020-07-01_13h32.13.922,retriever_ti,2020.1.3,Win32,60,Chrome,1280,720,,,,,,,,,,,,,,,,,1,,,,,,,,,,,,,,,,,,,,,,,,,,,523.992985,34,left,0.804775,calculator    ,2,9,-1,0,0,524.05348,524.05348,526.54497,0,33,33,33,1,34,2,3,calculator    ,holdfast    ,html/resources/sequences_IDs/A/09_calculator.jpg,html/resources/sequences_IDs/B/04_holdfast.jpg,9,4,4,2,2,1,7,3,0,23,,,,,,,,,,,,,,,,,,,,
,,,,,23,2020-07-01_13h32.13.922,retriever_ti,2020.1.3,Win32,60,Chrome,1280,720,,,,,,,,,,,,,,,,,1,,,,,,,,,,,,,,,,,,,,,,,,,,,527.656225,35,left,1.496675,dolphin     ,7,2,1,1,1,527.71047,527.71047,530.231605,0,34,34,34,1,35,7,6,dolphin     ,scarf         ,html/resources/sequences_IDs/B/02_dolphin.jpg,html/resources/sequences_IDs/A/06_scarf.jpg,2,6,1,1,3,2,2,5,0,23,,,,,,,,,,,,,,,,,,,,
,,,,,23,2020-07-01_13h32.13.922,retriever_ti,2020.1.3,Win32,60,Chrome,1280,720,,,,,,,,,,,,,,,,,1,,,,,,,,,,,,,,,,,,,,,,,,,,,531.3377,36,right,0.97571,scarf         ,6,6,3,1,3,531.398355,531.398355,533.886565,0,35,35,35,1,36,3,6,holdfast    ,scarf         ,html/resources/sequences_IDs/B/04_holdfast.jpg,html/resources/sequences_IDs/A/06_scarf.jpg,4,6,2,1,3,2,3,5,0,23,,,,,,,,,,,,,,,,,,,,
,,,,,23,2020-07-01_13h32.13.922,retriever_ti,2020.1.3,Win32,60,Chrome,1280,720,,,,,,,,,,,,,,,,,1,,,,,,,,,,,,,,,,,,,,,,,,,,,534.499835,37,left,1.448655,wolf          ,8,1,2,1,3,534.529385,534.529385,537.02175,0,36,36,36,1,37,8,6,wolf          ,scarf         ,html/resources/sequences_IDs/A/01_wolf.jpg,html/resources/sequences_IDs/A/06_scarf.jpg,1,6,1,1,3,2,1,5,0,23,,,,,,,,,,,,,,,,,,,,
,,,,,23,2020-07-01_13h32.13.922,retriever_ti,2020.1.3,Win32,60,Chrome,1280,720,,,,,,,,,,,,,,,,,1,,,,,,,,,,,,,,,,,,,,,,,,,,,537.64962,38,left,1.01825,peacock       ,4,5,-1,0,0,537.680195,537.680195,540.17752,0,37,37,37,1,38,4,5,peacock       ,radio       ,html/resources/sequences_IDs/A/05_peacock.jpg,html/resources/sequences_IDs/B/10_radio.jpg,5,10,2,1,4,2,4,8,0,23,,,,,,,,,,,,,,,,,,,,
,,,,,23,2020-07-01_13h32.13.922,retriever_ti,2020.1.3,Win32,60,Chrome,1280,720,,,,,,,,,,,,,,,,,1,,,,,,,,,,,,,,,,,,,,,,,,,,,541.289105,39,right,0.752685,calculator    ,2,9,-1,0,0,541.320115,541.320115,543.81932,0,38,38,38,1,39,3,2,holdfast    ,calculator    ,html/resources/sequences_IDs/B/04_holdfast.jpg,html/resources/sequences_IDs/A/09_calculator.jpg,4,9,2,1,4,2,3,7,0,23,,,,,,,,,,,,,,,,,,,,
,,,,,23,2020-07-01_13h32.13.922,retriever_ti,2020.1.3,Win32,60,Chrome,1280,720,,,,,,,,,,,,,,,,,1,,,,,,,,,,,,,,,,,,,,,,,,,,,544.91463,40,right,1.679025,dolphin     ,7,2,5,1,3,544.96812,544.96812,547.45989,0,39,39,39,1,40,2,7,calculator    ,dolphin     ,html/resources/sequences_IDs/A/09_calculator.jpg,html/resources/sequences_IDs/B/02_dolphin.jpg,9,2,4,2,1,1,7,2,0,23,,,,,,,,,,,,,,,,,,,,
,,,,,23,2020-07-01_13h32.13.922,retriever_ti,2020.1.3,Win32,60,Chrome,1280,720,,,,,,,,,,,,,,,,,1,,,,,,,,,,,,,,,,,,,,,,,,,,,548.077515,41,right,1.316595,wolf          ,8,1,3,1,3,548.12971,548.12971,550.638885,0,40,40,40,1,41,5,8,radio       ,wolf          ,html/resources/sequences_IDs/B/10_radio.jpg,html/resources/sequences_IDs/A/01_wolf.jpg,10,1,4,2,1,1,8,1,0,23,,,,,,,,,,,,,,,,,,,,
,,,,,23,2020-07-01_13h32.13.922,retriever_ti,2020.1.3,Win32,60,Chrome,1280,720,,,,,,,,,,,,,,,,,1,,,,,,,,,,,,,,,,,,,,,,,,,,,551.24735,42,left,1.58462,dolphin     ,7,2,6,1,3,551.280595,551.280595,553.77068,0,41,41,41,1,42,7,1,dolphin     ,slipper     ,html/resources/sequences_IDs/B/02_dolphin.jpg,html/resources/sequences_IDs/B/08_slipper.jpg,2,8,1,1,3,2,2,6,0,23,,,,,,,,,,,,,,,,,,,,
,,,,,23,2020-07-01_13h32.13.922,retriever_ti,2020.1.3,Win32,60,Chrome,1280,720,,,,,,,,,,,,,,,,,1,,,,,,,,,,,,,,,,,,,,,,,,,,,554.37636,43,right,1.065995,dolphin     ,7,2,4,1,3,554.40932,554.40932,556.895815,0,42,42,42,1,43,3,7,holdfast    ,dolphin     ,html/resources/sequences_IDs/B/04_holdfast.jpg,html/resources/sequences_IDs/B/02_dolphin.jpg,4,2,2,1,1,1,3,2,0,23,,,,,,,,,,,,,,,,,,,,
,,,,,23,2020-07-01_13h32.13.922,retriever_ti,2020.1.3,Win32,60,Chrome,1280,720,,,,,,,,,,,,,,,,,1,,,,,,,,,,,,,,,,,,,,,,,,,,,557.51184,44,right,1.45501,scarf         ,6,6,-1,0,0,557.54417,557.54417,560.0309,0,43,43,43,1,44,7,6,dolphin     ,scarf         ,html/resources/sequences_IDs/B/02_dolphin.jpg,html/resources/sequences_IDs/A/06_scarf.jpg,2,6,1,1,3,2,2,5,0,23,,,,,,,,,,,,,,,,,,,,
,,,,,23,2020-07-01_13h32.13.922,retriever_ti,2020.1.3,Win32,60,Chrome,1280,720,,,,,,,,,,,,,,,,,1,,,,,,,,,,,,,,,,,,,,,,,,,,,561.124825,45,right,1.33252,peacock       ,4,5,1,1,1,561.180975,561.180975,563.683545,0,44,44,44,1,45,3,4,holdfast    ,peacock       ,html/resources/sequences_IDs/B/04_holdfast.jpg,html/resources/sequences_IDs/A/05_peacock.jpg,4,5,2,1,2,1,3,4,0,23,,,,,,,,,,,,,,,,,,,,
,,,,,23,2020-07-01_13h32.13.922,retriever_ti,2020.1.3,Win32,60,Chrome,1280,720,,,,,,,,,,,,,,,,,1,,,,,,,,,,,,,,,,,,,,,,,,,,,564.77649,46,right,1.29279,scarf         ,6,6,5,1,3,564.804925,564.804925,567.304285,0,45,45,45,1,46,1,6,slipper     ,scarf         ,html/resources/sequences_IDs/B/08_slipper.jpg,html/resources/sequences_IDs/A/06_scarf.jpg,8,6,3,2,3,2,6,5,0,23,,,,,,,,,,,,,,,,,,,,
,,,,,23,2020-07-01_13h32.13.922,retriever_ti,2020.1.3,Win32,60,Chrome,1280,720,,,,,,,,,,,,,,,,,1,,,,,,,,,,,,,,,,,,,,,,,,,,,567.934715,47,right,1.86113,radio       ,5,10,4,1,3,567.991435,567.991435,570.50257,0,46,46,46,1,47,1,5,slipper     ,radio       ,html/resources/sequences_IDs/B/08_slipper.jpg,html/resources/sequences_IDs/B/10_radio.jpg,8,10,3,2,4,2,6,8,0,23,,,,,,,,,,,,,,,,,,,,
,,,,,23,2020-07-01_13h32.13.922,retriever_ti,2020.1.3,Win32,60,Chrome,1280,720,,,,,,,,,,,,,,,,,1,,,,,,,,,,,,,,,,,,,,,,,,,,,571.1228,48,left,1.272075,scarf         ,6,6,1,1,1,571.18234,571.18234,573.671645,0,47,47,47,1,48,6,5,scarf         ,radio       ,html/resources/sequences_IDs/A/06_scarf.jpg,html/resources/sequences_IDs/B/10_radio.jpg,6,10,3,2,4,2,5,8,0,23,,,,,,,,,,,,,,,,,,,,
,,,,,23,2020-07-01_13h32.13.922,retriever_ti,2020.1.3,Win32,60,Chrome,1280,720,,,,,,,,,,,,,,,,,1,,,,,,,,,,,,,,,,,,,,,,,,,,,574.78635,49,left,1.58217,peacock       ,4,5,2,1,3,574.84652,574.84652,577.33821,0,48,48,48,1,49,4,2,peacock       ,calculator    ,html/resources/sequences_IDs/A/05_peacock.jpg,html/resources/sequences_IDs/A/09_calculator.jpg,5,9,2,1,4,2,4,7,0,23,,,,,,,,,,,,,,,,,,,,
,,,,,23,2020-07-01_13h32.13.922,retriever_ti,2020.1.3,Win32,60,Chrome,1280,720,,,,,,,,,,,,,,,,,1,,,,,,,,,,,,,,,,,,,,,,,,,,,577.94145,50,left,1.21449,dolphin     ,7,2,2,1,3,577.97068,577.97068,580.480355,0,49,49,49,1,50,7,5,dolphin     ,radio       ,html/resources/sequences_IDs/B/02_dolphin.jpg,html/resources/sequences_IDs/B/10_radio.jpg,2,10,1,1,4,2,2,8,0,23,,,,,,,,,,,,,,,,,,,,
,,,,,23,2020-07-01_13h32.13.922,retriever_ti,2020.1.3,Win32,60,Chrome,1280,720,,,,,,,,,,,,,,,,,1,,,,,,,,,,,,,,,,,,,,,,,,,,,581.083425,51,left,1.17827,scarf         ,6,6,-1,0,0,581.115725,581.115725,583.60016,0,50,50,50,1,51,6,7,scarf         ,dolphin     ,html/resources/sequences_IDs/A/06_scarf.jpg,html/resources/sequences_IDs/B/02_dolphin.jpg,6,2,3,2,1,1,5,2,0,23,,,,,,,,,,,,,,,,,,,,
,,,,,23,2020-07-01_13h32.13.922,retriever_ti,2020.1.3,Win32,60,Chrome,1280,720,,,,,,,,,,,,,,,,,1,,,,,,,,,,,,,,,,,,,,,,,,,,,584.70309,52,right,0.839585,dolphin     ,7,2,1,1,1,584.756365,584.756365,587.24154,0,51,51,51,1,52,6,7,scarf         ,dolphin     ,html/resources/sequences_IDs/A/06_scarf.jpg,html/resources/sequences_IDs/B/02_dolphin.jpg,6,2,3,2,1,1,5,2,0,23,,,,,,,,,,,,,,,,,,,,
,,,,,23,2020-07-01_13h32.13.922,retriever_ti,2020.1.3,Win32,60,Chrome,1280,720,,,,,,,,,,,,,,,,,1,,,,,,,,,,,,,,,,,,,,,,,,,,,588.360935,53,left,0.92809,dolphin     ,7,2,3,1,3,588.415205,588.415205,590.90746,0,52,52,52,1,53,7,4,dolphin     ,peacock       ,html/resources/sequences_IDs/B/02_dolphin.jpg,html/resources/sequences_IDs/A/05_peacock.jpg,2,5,1,1,2,1,2,4,0,23,,,,,,,,,,,,,,,,,,,,
,,,,,23,2020-07-01_13h32.13.922,retriever_ti,2020.1.3,Win32,60,Chrome,1280,720,,,,,,,,,,,,,,,,,1,,,,,,,,,,,,,,,,,,,,,,,,,,,591.52307,54,right,1.05599,scarf         ,6,6,4,1,3,591.547655,591.547655,594.05453,0,53,53,53,1,54,2,6,calculator    ,scarf         ,html/resources/sequences_IDs/A/09_calculator.jpg,html/resources/sequences_IDs/A/06_scarf.jpg,9,6,4,2,3,2,7,5,0,23,,,,,,,,,,,,,,,,,,,,
,,,,,23,2020-07-01_13h32.13.922,retriever_ti,2020.1.3,Win32,60,Chrome,1280,720,,,,,,,,,,,,,,,,,1,,,,,,,,,,,,,,,,,,,,,,,,,,,594.66427,55,left,1.08546,calculator    ,2,9,-2,0,3,594.69712,594.69712,597.20932,0,54,54,54,1,55,2,4,calculator    ,peacock       ,html/resources/sequences_IDs/A/09_calculator.jpg,html/resources/sequences_IDs/A/05_peacock.jpg,9,5,4,2,2,1,7,4,0,23,,,,,,,,,,,,,,,,,,,,
,,,,,23,2020-07-01_13h32.13.922,retriever_ti,2020.1.3,Win32,60,Chrome,1280,720,,,,,,,,,,,,,,,,,1,,,,,,,,,,,,,,,,,,,,,,,,,,,597.836975,56,left,1.001115,dolphin     ,7,2,4,1,3,597.895705,597.895705,600.404045,0,55,55,55,1,56,7,3,dolphin     ,holdfast    ,html/resources/sequences_IDs/B/02_dolphin.jpg,html/resources/sequences_IDs/B/04_holdfast.jpg,2,4,1,1,2,1,2,3,0,23,,,,,,,,,,,,,,,,,,,,
,,,,,23,2020-07-01_13h32.13.922,retriever_ti,2020.1.3,Win32,60,Chrome,1280,720,,,,,,,,,,,,,,,,,1,,,,,,,,,,,,,,,,,,,,,,,,,,,601.03748,57,right,1.245225,calculator    ,2,9,1,1,0,601.08757,601.08757,603.5951,0,56,56,56,1,57,1,2,slipper     ,calculator    ,html/resources/sequences_IDs/B/08_slipper.jpg,html/resources/sequences_IDs/A/09_calculator.jpg,8,9,3,2,4,2,6,7,1,23,,,,,,,,,,,,,,,,,,,,
,,,,,23,2020-07-01_13h32.13.922,retriever_ti,2020.1.3,Win32,60,Chrome,1280,720,,,,,,,,,,,,,,,,,1,,,,,,,,,,,,,,,,,,,,,,,,,,,604.70958,58,right,1.37505,dolphin     ,7,2,2,1,3,604.761835,604.761835,607.253355,0,57,57,57,1,58,5,7,radio       ,dolphin     ,html/resources/sequences_IDs/B/10_radio.jpg,html/resources/sequences_IDs/B/02_dolphin.jpg,10,2,4,2,1,1,8,2,0,23,,,,,,,,,,,,,,,,,,,,
,,,,,23,2020-07-01_13h32.13.922,retriever_ti,2020.1.3,Win32,60,Chrome,1280,720,,,,,,,,,,,,,,,,,1,,,,,,,,,,,,,,,,,,,,,,,,,,,607.87087,59,left,0.83588,scarf         ,6,6,3,1,3,607.93344,607.93344,610.43056,0,58,58,58,1,59,6,3,scarf         ,holdfast    ,html/resources/sequences_IDs/A/06_scarf.jpg,html/resources/sequences_IDs/B/04_holdfast.jpg,6,4,3,2,2,1,5,3,0,23,,,,,,,,,,,,,,,,,,,,
,,,,,23,2020-07-01_13h32.13.922,retriever_ti,2020.1.3,Win32,60,Chrome,1280,720,,,,,,,,,,,,,,,,,1,,,,,,,,,,,,,,,,,,,,,,,,,,,611.052205,60,right,1.43556,calculator    ,2,9,-6,0,3,611.079925,611.079925,613.5829,0,59,59,59,1,60,8,2,wolf          ,calculator    ,html/resources/sequences_IDs/A/01_wolf.jpg,html/resources/sequences_IDs/A/09_calculator.jpg,1,9,1,1,4,2,1,7,0,23,,,,,,,,,,,,,,,,,,,,
,,,,,23,2020-07-01_13h32.13.922,retriever_ti,2020.1.3,Win32,60,Chrome,1280,720,,,,,,,,,,,,,,,,,1,,,,,,,,,,,,,,,,,,,,,,,,,,,614.200865,61,left,0.852975,scarf         ,6,6,5,1,3,614.258835,614.258835,616.758965,0,60,60,60,1,61,6,1,scarf         ,slipper     ,html/resources/sequences_IDs/A/06_scarf.jpg,html/resources/sequences_IDs/B/08_slipper.jpg,6,8,3,2,3,2,5,6,0,23,,,,,,,,,,,,,,,,,,,,
,,,,,23,2020-07-01_13h32.13.922,retriever_ti,2020.1.3,Win32,60,Chrome,1280,720,,,,,,,,,,,,,,,,,1,,,,,,,,,,,,,,,,,,,,,,,,,,,617.38349,62,right,0.90694,dolphin     ,7,2,6,1,3,617.41294,617.41294,619.89572,0,61,61,61,1,62,1,7,slipper     ,dolphin     ,html/resources/sequences_IDs/B/08_slipper.jpg,html/resources/sequences_IDs/B/02_dolphin.jpg,8,2,3,2,1,1,6,2,0,23,,,,,,,,,,,,,,,,,,,,
,,,,,23,2020-07-01_13h32.13.922,retriever_ti,2020.1.3,Win32,60,Chrome,1280,720,,,,,,,,,,,,,,,,,1,,,,,,,,,,,,,,,,,,,,,,,,,,,620.497835,63,left,1.11774,dolphin     ,7,2,1,1,0,620.530415,620.530415,623.0342,0,62,62,62,1,63,7,6,dolphin     ,scarf         ,html/resources/sequences_IDs/B/02_dolphin.jpg,html/resources/sequences_IDs/A/06_scarf.jpg,2,6,1,1,3,2,2,5,1,23,,,,,,,,,,,,,,,,,,,,
,,,,,23,2020-07-01_13h32.13.922,retriever_ti,2020.1.3,Win32,60,Chrome,1280,720,,,,,,,,,,,,,,,,,1,,,,,,,,,,,,,,,,,,,,,,,,,,,624.14517,64,right,1.53806,calculator    ,2,9,-3,0,3,624.20231,624.20231,626.71411,0,63,63,63,1,64,5,2,radio       ,calculator    ,html/resources/sequences_IDs/B/10_radio.jpg,html/resources/sequences_IDs/A/09_calculator.jpg,10,9,4,2,4,2,8,7,0,23,,,,,,,,,,,,,,,,,,,,
,,,,,23,2020-07-01_13h32.13.922,retriever_ti,2020.1.3,Win32,60,Chrome,1280,720,,,,,,,,,,,,,,,,,1,,,,,,,,,,,,,,,,,,,,,,,,,,,627.3294,65,right,1.743195,peacock       ,4,5,1,1,0,627.35998,627.35998,629.857645,0,64,64,64,1,65,3,4,holdfast    ,peacock       ,html/resources/sequences_IDs/B/04_holdfast.jpg,html/resources/sequences_IDs/A/05_peacock.jpg,4,5,2,1,2,1,3,4,1,23,,,,,,,,,,,,,,,,,,,,
,,,,,23,2020-07-01_13h32.13.922,retriever_ti,2020.1.3,Win32,60,Chrome,1280,720,,,,,,,,,,,,,,,,,1,,,,,,,,,,,,,,,,,,,,,,,,,,,630.94903,66,right,1.134775,radio       ,5,10,1,1,1,631.01222,631.01222,633.49592,0,65,65,65,1,66,4,5,peacock       ,radio       ,html/resources/sequences_IDs/A/05_peacock.jpg,html/resources/sequences_IDs/B/10_radio.jpg,5,10,2,1,4,2,4,8,0,23,,,,,,,,,,,,,,,,,,,,
,,,,,23,2020-07-01_13h32.13.922,retriever_ti,2020.1.3,Win32,60,Chrome,1280,720,,,,,,,,,,,,,,,,,1,,,,,,,,,,,,,,,,,,,,,,,,,,,634.60411,67,left,1.208365,holdfast    ,3,4,2,1,3,634.655375,634.655375,637.1377,0,66,66,66,1,67,3,1,holdfast    ,slipper     ,html/resources/sequences_IDs/B/04_holdfast.jpg,html/resources/sequences_IDs/B/08_slipper.jpg,4,8,2,1,3,2,3,6,0,23,,,,,,,,,,,,,,,,,,,,
,,,,,23,2020-07-01_13h32.13.922,retriever_ti,2020.1.3,Win32,60,Chrome,1280,720,,,,,,,,,,,,,,,,,1,,,,,,,,,,,,,,,,,,,,,,,,,,,637.766175,68,left,1.352495,wolf          ,8,1,4,1,3,637.820095,637.820095,640.32458,0,67,67,67,1,68,8,4,wolf          ,peacock       ,html/resources/sequences_IDs/A/01_wolf.jpg,html/resources/sequences_IDs/A/05_peacock.jpg,1,5,1,1,2,1,1,4,0,23,,,,,,,,,,,,,,,,,,,,
,,,,,23,2020-07-01_13h32.13.922,retriever_ti,2020.1.3,Win32,60,Chrome,1280,720,,,,,,,,,,,,,,,,,1,,,,,,,,,,,,,,,,,,,,,,,,,,,640.93694,69,left,1.259725,peacock       ,4,5,3,1,3,640.99619,640.99619,643.482095,0,68,68,68,1,69,4,1,peacock       ,slipper     ,html/resources/sequences_IDs/A/05_peacock.jpg,html/resources/sequences_IDs/B/08_slipper.jpg,5,8,2,1,3,2,4,6,0,23,,,,,,,,,,,,,,,,,,,,
,,,,,23,2020-07-01_13h32.13.922,retriever_ti,2020.1.3,Win32,60,Chrome,1280,720,,,,,,,,,,,,,,,,,1,,,,,,,,,,,,,,,,,,,,,,,,,,,644.109425,70,right,1.14954,holdfast    ,3,4,2,1,3,644.140655,644.140655,646.63664,0,69,69,69,1,70,1,3,slipper     ,holdfast    ,html/resources/sequences_IDs/B/08_slipper.jpg,html/resources/sequences_IDs/B/04_holdfast.jpg,8,4,3,2,2,1,6,3,0,23,,,,,,,,,,,,,,,,,,,,
,,,,,23,2020-07-01_13h32.13.922,retriever_ti,2020.1.3,Win32,60,Chrome,1280,720,,,,,,,,,,,,,,,,,1,,,,,,,,,,,,,,,,,,,,,,,,,,,647.24751,71,right,0.81524,scarf         ,6,6,1,1,1,647.271635,647.271635,649.785185,0,70,70,70,1,71,5,6,radio       ,scarf         ,html/resources/sequences_IDs/B/10_radio.jpg,html/resources/sequences_IDs/A/06_scarf.jpg,10,6,4,2,3,2,8,5,0,23,,,,,,,,,,,,,,,,,,,,
,,,,,23,2020-07-01_13h32.13.922,retriever_ti,2020.1.3,Win32,60,Chrome,1280,720,,,,,,,,,,,,,,,,,1,,,,,,,,,,,,,,,,,,,,,,,,,,,650.89748,72,left,1.039765,holdfast    ,3,4,-1,0,0,650.92209,650.92209,653.41238,0,71,71,71,1,72,3,4,holdfast    ,peacock       ,html/resources/sequences_IDs/B/04_holdfast.jpg,html/resources/sequences_IDs/A/05_peacock.jpg,4,5,2,1,2,1,3,4,0,23,,,,,,,,,,,,,,,,,,,,
,,,,,23,2020-07-01_13h32.13.922,retriever_ti,2020.1.3,Win32,60,Chrome,1280,720,,,,,,,,,,,,,,,,,1,,,,,,,,,,,,,,,,,,,,,,,,,,,654.51022,73,right,0.95934,wolf          ,8,1,7,1,3,654.567045,654.567045,657.07558,0,72,72,72,1,73,1,8,slipper     ,wolf          ,html/resources/sequences_IDs/B/08_slipper.jpg,html/resources/sequences_IDs/A/01_wolf.jpg,8,1,3,2,1,1,6,1,0,23,,,,,,,,,,,,,,,,,,,,
,,,,,23,2020-07-01_13h32.13.922,retriever_ti,2020.1.3,Win32,60,Chrome,1280,720,,,,,,,,,,,,,,,,,1,,,,,,,,,,,,,,,,,,,,,,,,,,,657.68233,74,right,1.4773,radio       ,5,10,3,1,3,657.7128,657.7128,660.213965,0,73,73,73,1,74,2,5,calculator    ,radio       ,html/resources/sequences_IDs/A/09_calculator.jpg,html/resources/sequences_IDs/B/10_radio.jpg,9,10,4,2,4,2,7,8,0,23,,,,,,,,,,,,,,,,,,,,
,,,,,23,2020-07-01_13h32.13.922,retriever_ti,2020.1.3,Win32,60,Chrome,1280,720,,,,,,,,,,,,,,,,,1,,,,,,,,,,,,,,,,,,,,,,,,,,,660.83166,75,left,1.096295,scarf         ,6,6,1,1,0,660.88682,660.88682,663.397595,0,74,74,74,1,75,6,5,scarf         ,radio       ,html/resources/sequences_IDs/A/06_scarf.jpg,html/resources/sequences_IDs/B/10_radio.jpg,6,10,3,2,4,2,5,8,1,23,,,,,,,,,,,,,,,,,,,,
,,,,,23,2020-07-01_13h32.13.922,retriever_ti,2020.1.3,Win32,60,Chrome,1280,720,,,,,,,,,,,,,,,,,1,,,,,,,,,,,,,,,,,,,,,,,,,,,664.49757,76,left,1.31238,wolf          ,8,1,3,1,3,664.532895,664.532895,667.02135,0,75,75,75,1,76,8,5,wolf          ,radio       ,html/resources/sequences_IDs/A/01_wolf.jpg,html/resources/sequences_IDs/B/10_radio.jpg,1,10,1,1,4,2,1,8,0,23,,,,,,,,,,,,,,,,,,,,
,,,,,23,2020-07-01_13h32.13.922,retriever_ti,2020.1.3,Win32,60,Chrome,1280,720,,,,,,,,,,,,,,,,,1,,,,,,,,,,,,,,,,,,,,,,,,,,,667.644215,77,right,1.113915,wolf          ,8,1,6,1,3,667.67223,667.67223,670.18489,0,76,76,76,1,77,2,8,calculator    ,wolf          ,html/resources/sequences_IDs/A/09_calculator.jpg,html/resources/sequences_IDs/A/01_wolf.jpg,9,1,4,2,1,1,7,1,0,23,,,,,,,,,,,,,,,,,,,,
,,,,,23,2020-07-01_13h32.13.922,retriever_ti,2020.1.3,Win32,60,Chrome,1280,720,,,,,,,,,,,,,,,,,,,,,,,,,,,,,,,,,,,,,0,3.205095,,,,,,,,,,,,,,,,,,,,,,,,,,,,,,,,,,,,,,,,,0,0,0,0,1,,,,,,,,,,,,,,,
,,,,,23,2020-07-01_13h32.13.922,retriever_ti,2020.1.3,Win32,60,Chrome,1280,720,,,,,,,,,,,,,,,,,2,,,,,,,,,,,,,,,,,,,,,,,,,,,680.61191,78,left,1.22663,radio       ,5,10,1,1,1,680.629105,680.629105,683.132545,0,0,0,0,1,78,5,4,radio       ,peacock       ,html/resources/sequences_IDs/B/10_radio.jpg,html/resources/sequences_IDs/A/05_peacock.jpg,10,5,4,2,2,1,8,4,0,23,,,,,,,,,,,,,,,,,,,,
,,,,,23,2020-07-01_13h32.13.922,retriever_ti,2020.1.3,Win32,60,Chrome,1280,720,,,,,,,,,,,,,,,,,2,,,,,,,,,,,,,,,,,,,,,,,,,,,684.249025,79,right,1.01036,scarf         ,6,6,3,1,3,684.306295,684.306295,686.81307,0,1,1,1,1,79,3,6,holdfast    ,scarf         ,html/resources/sequences_IDs/B/04_holdfast.jpg,html/resources/sequences_IDs/A/06_scarf.jpg,4,6,2,1,3,2,3,5,0,23,,,,,,,,,,,,,,,,,,,,
,,,,,23,2020-07-01_13h32.13.922,retriever_ti,2020.1.3,Win32,60,Chrome,1280,720,,,,,,,,,,,,,,,,,2,,,,,,,,,,,,,,,,,,,,,,,,,,,687.43702,80,left,1.337735,peacock       ,4,5,1,1,1,687.470745,687.470745,689.958955,0,2,2,2,1,80,4,3,peacock       ,holdfast    ,html/resources/sequences_IDs/A/05_peacock.jpg,html/resources/sequences_IDs/B/04_holdfast.jpg,5,4,2,1,2,1,4,3,0,23,,,,,,,,,,,,,,,,,,,,
,,,,,23,2020-07-01_13h32.13.922,retriever_ti,2020.1.3,Win32,60,Chrome,1280,720,,,,,,,,,,,,,,,,,2,,,,,,,,,,,,,,,,,,,,,,,,,,,691.070745,81,NaN,NaN,No_response,NaN,NaN,NaN,2,2,691.102115,691.102115,695.128705,0,3,3,3,1,81,4,6,peacock       ,scarf         ,html/resources/sequences_IDs/A/05_peacock.jpg,html/resources/sequences_IDs/A/06_scarf.jpg,5,6,2,1,3,2,4,5,0,23,,,,,,,,,,,,,,,,,,,,
,,,,,23,2020-07-01_13h32.13.922,retriever_ti,2020.1.3,Win32,60,Chrome,1280,720,,,,,,,,,,,,,,,,,2,,,,,,,,,,,,,,,,,,,,,,,,,,,696.230215,82,right,0.68193,dolphin     ,7,2,-1,0,0,696.315405,696.315405,698.80369,0,4,4,4,1,82,8,7,wolf          ,dolphin     ,html/resources/sequences_IDs/A/01_wolf.jpg,html/resources/sequences_IDs/B/02_dolphin.jpg,1,2,1,1,1,1,1,2,0,23,,,,,,,,,,,,,,,,,,,,
,,,,,23,2020-07-01_13h32.13.922,retriever_ti,2020.1.3,Win32,60,Chrome,1280,720,,,,,,,,,,,,,,,,,2,,,,,,,,,,,,,,,,,,,,,,,,,,,699.908115,83,left,0.959495,peacock       ,4,5,-3,0,3,699.952755,699.952755,702.459685,0,5,5,5,1,83,4,7,peacock       ,dolphin     ,html/resources/sequences_IDs/A/05_peacock.jpg,html/resources/sequences_IDs/B/02_dolphin.jpg,5,2,2,1,1,1,4,2,0,23,,,,,,,,,,,,,,,,,,,,
,,,,,23,2020-07-01_13h32.13.922,retriever_ti,2020.1.3,Win32,60,Chrome,1280,720,,,,,,,,,,,,,,,,,2,,,,,,,,,,,,,,,,,,,,,,,,,,,703.065515,84,right,1.382415,radio       ,5,10,2,1,3,703.09359,703.09359,705.576795,0,6,6,6,1,84,3,5,holdfast    ,radio       ,html/resources/sequences_IDs/B/04_holdfast.jpg,html/resources/sequences_IDs/B/10_radio.jpg,4,10,2,1,4,2,3,8,0,23,,,,,,,,,,,,,,,,,,,,
,,,,,23,2020-07-01_13h32.13.922,retriever_ti,2020.1.3,Win32,60,Chrome,1280,720,,,,,,,,,,,,,,,,,2,,,,,,,,,,,,,,,,,,,,,,,,,,,706.19593,85,left,1.157835,scarf         ,6,6,-1,0,0,706.221975,706.221975,708.726015,0,7,7,7,1,85,6,7,scarf         ,dolphin     ,html/resources/sequences_IDs/A/06_scarf.jpg,html/resources/sequences_IDs/B/02_dolphin.jpg,6,2,3,2,1,1,5,2,0,23,,,,,,,,,,,,,,,,,,,,
,,,,,23,2020-07-01_13h32.13.922,retriever_ti,2020.1.3,Win32,60,Chrome,1280,720,,,,,,,,,,,,,,,,,2,,,,,,,,,,,,,,,,,,,,,,,,,,,709.829245,86,left,1.06808,peacock       ,4,5,1,1,1,709.85534,709.85534,712.354985,0,8,8,8,1,86,4,3,peacock       ,holdfast    ,html/resources/sequences_IDs/A/05_peacock.jpg,html/resources/sequences_IDs/B/04_holdfast.jpg,5,4,2,1,2,1,4,3,0,23,,,,,,,,,,,,,,,,,,,,
,,,,,23,2020-07-01_13h32.13.922,retriever_ti,2020.1.3,Win32,60,Chrome,1280,720,,,,,,,,,,,,,,,,,2,,,,,,,,,,,,,,,,,,,,,,,,,,,713.453295,87,right,0.838885,dolphin     ,7,2,6,1,3,713.51029,713.51029,715.99296,0,9,9,9,1,87,1,7,slipper     ,dolphin     ,html/resources/sequences_IDs/B/08_slipper.jpg,html/resources/sequences_IDs/B/02_dolphin.jpg,8,2,3,2,1,1,6,2,0,23,,,,,,,,,,,,,,,,,,,,
,,,,,23,2020-07-01_13h32.13.922,retriever_ti,2020.1.3,Win32,60,Chrome,1280,720,,,,,,,,,,,,,,,,,2,,,,,,,,,,,,,,,,,,,,,,,,,,,716.613965,88,left,0.798185,dolphin     ,7,2,3,1,3,716.657955,716.657955,719.159095,0,10,10,10,1,88,7,4,dolphin     ,peacock       ,html/resources/sequences_IDs/B/02_dolphin.jpg,html/resources/sequences_IDs/A/05_peacock.jpg,2,5,1,1,2,1,2,4,0,23,,,,,,,,,,,,,,,,,,,,
,,,,,23,2020-07-01_13h32.13.922,retriever_ti,2020.1.3,Win32,60,Chrome,1280,720,,,,,,,,,,,,,,,,,2,,,,,,,,,,,,,,,,,,,,,,,,,,,719.78077,89,left,0.83506,calculator    ,2,9,1,1,1,719.82299,719.82299,722.333485,0,11,11,11,1,89,2,1,calculator    ,slipper     ,html/resources/sequences_IDs/A/09_calculator.jpg,html/resources/sequences_IDs/B/08_slipper.jpg,9,8,4,2,3,2,7,6,0,23,,,,,,,,,,,,,,,,,,,,
,,,,,23,2020-07-01_13h32.13.922,retriever_ti,2020.1.3,Win32,60,Chrome,1280,720,,,,,,,,,,,,,,,,,2,,,,,,,,,,,,,,,,,,,,,,,,,,,723.438765,90,right,0.890265,scarf         ,6,6,1,1,0,723.475085,723.475085,725.976775,0,12,12,12,1,90,5,6,radio       ,scarf         ,html/resources/sequences_IDs/B/10_radio.jpg,html/resources/sequences_IDs/A/06_scarf.jpg,10,6,4,2,3,2,8,5,1,23,,,,,,,,,,,,,,,,,,,,
,,,,,23,2020-07-01_13h32.13.922,retriever_ti,2020.1.3,Win32,60,Chrome,1280,720,,,,,,,,,,,,,,,,,2,,,,,,,,,,,,,,,,,,,,,,,,,,,727.069695,91,left,1.1416,dolphin     ,7,2,-1,0,0,727.093545,727.093545,729.58401,0,13,13,13,1,91,7,8,dolphin     ,wolf          ,html/resources/sequences_IDs/B/02_dolphin.jpg,html/resources/sequences_IDs/A/01_wolf.jpg,2,1,1,1,1,1,2,1,0,23,,,,,,,,,,,,,,,,,,,,
,,,,,23,2020-07-01_13h32.13.922,retriever_ti,2020.1.3,Win32,60,Chrome,1280,720,,,,,,,,,,,,,,,,,2,,,,,,,,,,,,,,,,,,,,,,,,,,,730.680935,92,right,1.73296,holdfast    ,3,4,-1,0,1,730.73081,730.73081,733.21869,0,14,14,14,1,92,4,3,peacock       ,holdfast    ,html/resources/sequences_IDs/A/05_peacock.jpg,html/resources/sequences_IDs/B/04_holdfast.jpg,5,4,2,1,2,1,4,3,1,23,,,,,,,,,,,,,,,,,,,,
,,,,,23,2020-07-01_13h32.13.922,retriever_ti,2020.1.3,Win32,60,Chrome,1280,720,,,,,,,,,,,,,,,,,2,,,,,,,,,,,,,,,,,,,,,,,,,,,734.31903,93,left,0.914925,scarf         ,6,6,3,1,3,734.37471,734.37471,736.871275,0,15,15,15,1,93,6,3,scarf         ,holdfast    ,html/resources/sequences_IDs/A/06_scarf.jpg,html/resources/sequences_IDs/B/04_holdfast.jpg,6,4,3,2,2,1,5,3,0,23,,,,,,,,,,,,,,,,,,,,
,,,,,23,2020-07-01_13h32.13.922,retriever_ti,2020.1.3,Win32,60,Chrome,1280,720,,,,,,,,,,,,,,,,,2,,,,,,,,,,,,,,,,,,,,,,,,,,,737.486455,94,left,0.937255,dolphin     ,7,2,6,1,3,737.511725,737.511725,740.02001,0,16,16,16,1,94,7,1,dolphin     ,slipper     ,html/resources/sequences_IDs/B/02_dolphin.jpg,html/resources/sequences_IDs/B/08_slipper.jpg,2,8,1,1,3,2,2,6,0,23,,,,,,,,,,,,,,,,,,,,
,,,,,23,2020-07-01_13h32.13.922,retriever_ti,2020.1.3,Win32,60,Chrome,1280,720,,,,,,,,,,,,,,,,,2,,,,,,,,,,,,,,,,,,,,,,,,,,,740.62473,95,right,0.96264,wolf          ,8,1,1,1,0,740.676545,740.676545,743.17004,0,17,17,17,1,95,7,8,dolphin     ,wolf          ,html/resources/sequences_IDs/B/02_dolphin.jpg,html/resources/sequences_IDs/A/01_wolf.jpg,2,1,1,1,1,1,2,1,1,23,,,,,,,,,,,,,,,,,,,,
,,,,,23,2020-07-01_13h32.13.922,retriever_ti,2020.1.3,Win32,60,Chrome,1280,720,,,,,,,,,,,,,,,,,2,,,,,,,,,,,,,,,,,,,,,,,,,,,744.274965,96,right,1.7493,peacock       ,4,5,1,1,1,744.300025,744.300025,746.79609,0,18,18,18,1,96,3,4,holdfast    ,peacock       ,html/resources/sequences_IDs/B/04_holdfast.jpg,html/resources/sequences_IDs/A/05_peacock.jpg,4,5,2,1,2,1,3,4,0,23,,,,,,,,,,,,,,,,,,,,
,,,,,23,2020-07-01_13h32.13.922,retriever_ti,2020.1.3,Win32,60,Chrome,1280,720,,,,,,,,,,,,,,,,,2,,,,,,,,,,,,,,,,,,,,,,,,,,,747.89275,97,right,0.909515,calculator    ,2,9,-1,0,0,747.94209,747.94209,750.428135,0,19,19,19,1,97,3,2,holdfast    ,calculator    ,html/resources/sequences_IDs/B/04_holdfast.jpg,html/resources/sequences_IDs/A/09_calculator.jpg,4,9,2,1,4,2,3,7,0,23,,,,,,,,,,,,,,,,,,,,
,,,,,23,2020-07-01_13h32.13.922,retriever_ti,2020.1.3,Win32,60,Chrome,1280,720,,,,,,,,,,,,,,,,,2,,,,,,,,,,,,,,,,,,,,,,,,,,,751.534085,98,right,0.96196,holdfast    ,3,4,1,1,1,751.559455,751.559455,754.065225,0,20,20,20,1,98,2,3,calculator    ,holdfast    ,html/resources/sequences_IDs/A/09_calculator.jpg,html/resources/sequences_IDs/B/04_holdfast.jpg,9,4,4,2,2,1,7,3,0,23,,,,,,,,,,,,,,,,,,,,
,,,,,23,2020-07-01_13h32.13.922,retriever_ti,2020.1.3,Win32,60,Chrome,1280,720,,,,,,,,,,,,,,,,,2,,,,,,,,,,,,,,,,,,,,,,,,,,,755.156495,99,left,1.23428,dolphin     ,7,2,2,1,3,755.17884,755.17884,757.688895,0,21,21,21,1,99,7,5,dolphin     ,radio       ,html/resources/sequences_IDs/B/02_dolphin.jpg,html/resources/sequences_IDs/B/10_radio.jpg,2,10,1,1,4,2,2,8,0,23,,,,,,,,,,,,,,,,,,,,
,,,,,23,2020-07-01_13h32.13.922,retriever_ti,2020.1.3,Win32,60,Chrome,1280,720,,,,,,,,,,,,,,,,,2,,,,,,,,,,,,,,,,,,,,,,,,,,,758.300395,100,left,1.37977,calculator    ,2,9,1,1,1,758.332385,758.332385,760.8262,0,22,22,22,1,100,2,1,calculator    ,slipper     ,html/resources/sequences_IDs/A/09_calculator.jpg,html/resources/sequences_IDs/B/08_slipper.jpg,9,8,4,2,3,2,7,6,0,23,,,,,,,,,,,,,,,,,,,,
,,,,,23,2020-07-01_13h32.13.922,retriever_ti,2020.1.3,Win32,60,Chrome,1280,720,,,,,,,,,,,,,,,,,2,,,,,,,,,,,,,,,,,,,,,,,,,,,761.922565,101,right,1.16741,dolphin     ,7,2,-1,0,0,761.97198,761.97198,764.46968,0,23,23,23,1,101,8,7,wolf          ,dolphin     ,html/resources/sequences_IDs/A/01_wolf.jpg,html/resources/sequences_IDs/B/02_dolphin.jpg,1,2,1,1,1,1,1,2,0,23,,,,,,,,,,,,,,,,,,,,
,,,,,23,2020-07-01_13h32.13.922,retriever_ti,2020.1.3,Win32,60,Chrome,1280,720,,,,,,,,,,,,,,,,,2,,,,,,,,,,,,,,,,,,,,,,,,,,,765.58331,102,right,1.58977,radio       ,5,10,1,1,1,765.62764,765.62764,768.111465,0,24,24,24,1,102,4,5,peacock       ,radio       ,html/resources/sequences_IDs/A/05_peacock.jpg,html/resources/sequences_IDs/B/10_radio.jpg,5,10,2,1,4,2,4,8,0,23,,,,,,,,,,,,,,,,,,,,
,,,,,23,2020-07-01_13h32.13.922,retriever_ti,2020.1.3,Win32,60,Chrome,1280,720,,,,,,,,,,,,,,,,,2,,,,,,,,,,,,,,,,,,,,,,,,,,,769.218215,103,right,1.54321,calculator    ,2,9,1,1,1,769.243515,769.243515,771.728265,0,25,25,25,1,103,1,2,slipper     ,calculator    ,html/resources/sequences_IDs/B/08_slipper.jpg,html/resources/sequences_IDs/A/09_calculator.jpg,8,9,3,2,4,2,6,7,0,23,,,,,,,,,,,,,,,,,,,,
,,,,,23,2020-07-01_13h32.13.922,retriever_ti,2020.1.3,Win32,60,Chrome,1280,720,,,,,,,,,,,,,,,,,2,,,,,,,,,,,,,,,,,,,,,,,,,,,772.83867,104,left,1.89039,scarf         ,6,6,-2,0,3,772.863785,772.863785,775.350875,0,26,26,26,1,104,6,8,scarf         ,wolf          ,html/resources/sequences_IDs/A/06_scarf.jpg,html/resources/sequences_IDs/A/01_wolf.jpg,6,1,3,2,1,1,5,1,0,23,,,,,,,,,,,,,,,,,,,,
,,,,,23,2020-07-01_13h32.13.922,retriever_ti,2020.1.3,Win32,60,Chrome,1280,720,,,,,,,,,,,,,,,,,2,,,,,,,,,,,,,,,,,,,,,,,,,,,775.97142,105,right,1.247705,holdfast    ,3,4,-2,0,3,775.994305,775.994305,778.4969,0,27,27,27,1,105,5,3,radio       ,holdfast    ,html/resources/sequences_IDs/B/10_radio.jpg,html/resources/sequences_IDs/B/04_holdfast.jpg,10,4,4,2,2,1,8,3,0,23,,,,,,,,,,,,,,,,,,,,
,,,,,23,2020-07-01_13h32.13.922,retriever_ti,2020.1.3,Win32,60,Chrome,1280,720,,,,,,,,,,,,,,,,,2,,,,,,,,,,,,,,,,,,,,,,,,,,,779.11175,106,left,0.84712,holdfast    ,3,4,-4,0,3,779.157145,779.157145,781.65947,0,28,28,28,1,106,3,7,holdfast    ,dolphin     ,html/resources/sequences_IDs/B/04_holdfast.jpg,html/resources/sequences_IDs/B/02_dolphin.jpg,4,2,2,1,1,1,3,2,0,23,,,,,,,,,,,,,,,,,,,,
,,,,,23,2020-07-01_13h32.13.922,retriever_ti,2020.1.3,Win32,60,Chrome,1280,720,,,,,,,,,,,,,,,,,2,,,,,,,,,,,,,,,,,,,,,,,,,,,782.277955,107,left,0.965485,dolphin     ,7,2,1,1,1,782.303075,782.303075,784.79459,0,29,29,29,1,107,7,6,dolphin     ,scarf         ,html/resources/sequences_IDs/B/02_dolphin.jpg,html/resources/sequences_IDs/A/06_scarf.jpg,2,6,1,1,3,2,2,5,0,23,,,,,,,,,,,,,,,,,,,,
,,,,,23,2020-07-01_13h32.13.922,retriever_ti,2020.1.3,Win32,60,Chrome,1280,720,,,,,,,,,,,,,,,,,2,,,,,,,,,,,,,,,,,,,,,,,,,,,785.90083,108,left,0.726155,dolphin     ,7,2,1,1,1,785.943825,785.943825,788.44628,0,30,30,30,1,108,7,6,dolphin     ,scarf         ,html/resources/sequences_IDs/B/02_dolphin.jpg,html/resources/sequences_IDs/A/06_scarf.jpg,2,6,1,1,3,2,2,5,0,23,,,,,,,,,,,,,,,,,,,,
,,,,,23,2020-07-01_13h32.13.922,retriever_ti,2020.1.3,Win32,60,Chrome,1280,720,,,,,,,,,,,,,,,,,2,,,,,,,,,,,,,,,,,,,,,,,,,,,789.54269,109,right,0.947555,wolf          ,8,1,3,1,3,789.57079,789.57079,792.05918,0,31,31,31,1,109,5,8,radio       ,wolf          ,html/resources/sequences_IDs/B/10_radio.jpg,html/resources/sequences_IDs/A/01_wolf.jpg,10,1,4,2,1,1,8,1,0,23,,,,,,,,,,,,,,,,,,,,
,,,,,23,2020-07-01_13h32.13.922,retriever_ti,2020.1.3,Win32,60,Chrome,1280,720,,,,,,,,,,,,,,,,,2,,,,,,,,,,,,,,,,,,,,,,,,,,,792.666605,110,right,0.71933,calculator    ,2,9,1,1,1,792.725285,792.725285,795.215445,0,32,32,32,1,110,1,2,slipper     ,calculator    ,html/resources/sequences_IDs/B/08_slipper.jpg,html/resources/sequences_IDs/A/09_calculator.jpg,8,9,3,2,4,2,6,7,0,23,,,,,,,,,,,,,,,,,,,,
,,,,,23,2020-07-01_13h32.13.922,retriever_ti,2020.1.3,Win32,60,Chrome,1280,720,,,,,,,,,,,,,,,,,2,,,,,,,,,,,,,,,,,,,,,,,,,,,796.32049,111,left,1.796875,calculator    ,2,9,-6,0,3,796.36758,796.36758,798.86352,0,33,33,33,1,111,2,8,calculator    ,wolf          ,html/resources/sequences_IDs/A/09_calculator.jpg,html/resources/sequences_IDs/A/01_wolf.jpg,9,1,4,2,1,1,7,1,0,23,,,,,,,,,,,,,,,,,,,,
,,,,,23,2020-07-01_13h32.13.922,retriever_ti,2020.1.3,Win32,60,Chrome,1280,720,,,,,,,,,,,,,,,,,2,,,,,,,,,,,,,,,,,,,,,,,,,,,799.471125,112,right,1.915435,holdfast    ,3,4,-5,0,3,799.49799,799.49799,801.991035,0,34,34,34,1,112,8,3,wolf          ,holdfast    ,html/resources/sequences_IDs/A/01_wolf.jpg,html/resources/sequences_IDs/B/04_holdfast.jpg,1,4,1,1,2,1,1,3,0,23,,,,,,,,,,,,,,,,,,,,
,,,,,23,2020-07-01_13h32.13.922,retriever_ti,2020.1.3,Win32,60,Chrome,1280,720,,,,,,,,,,,,,,,,,2,,,,,,,,,,,,,,,,,,,,,,,,,,,802.600945,113,left,1.19183,scarf         ,6,6,5,1,3,802.648935,802.648935,805.145495,0,35,35,35,1,113,6,1,scarf         ,slipper     ,html/resources/sequences_IDs/A/06_scarf.jpg,html/resources/sequences_IDs/B/08_slipper.jpg,6,8,3,2,3,2,5,6,0,23,,,,,,,,,,,,,,,,,,,,
,,,,,23,2020-07-01_13h32.13.922,retriever_ti,2020.1.3,Win32,60,Chrome,1280,720,,,,,,,,,,,,,,,,,2,,,,,,,,,,,,,,,,,,,,,,,,,,,805.75891,114,right,1.038135,scarf         ,6,6,-2,0,3,805.7838,805.7838,808.280795,0,36,36,36,1,114,8,6,wolf          ,scarf         ,html/resources/sequences_IDs/A/01_wolf.jpg,html/resources/sequences_IDs/A/06_scarf.jpg,1,6,1,1,3,2,1,5,0,23,,,,,,,,,,,,,,,,,,,,
,,,,,23,2020-07-01_13h32.13.922,retriever_ti,2020.1.3,Win32,60,Chrome,1280,720,,,,,,,,,,,,,,,,,2,,,,,,,,,,,,,,,,,,,,,,,,,,,808.88578,115,left,1.415215,dolphin     ,7,2,5,1,3,808.93579,808.93579,811.442805,0,37,37,37,1,115,7,2,dolphin     ,calculator    ,html/resources/sequences_IDs/B/02_dolphin.jpg,html/resources/sequences_IDs/A/09_calculator.jpg,2,9,1,1,4,2,2,7,0,23,,,,,,,,,,,,,,,,,,,,
,,,,,23,2020-07-01_13h32.13.922,retriever_ti,2020.1.3,Win32,60,Chrome,1280,720,,,,,,,,,,,,,,,,,2,,,,,,,,,,,,,,,,,,,,,,,,,,,812.04473,116,right,0.97183,wolf          ,8,1,7,1,3,812.09452,812.09452,814.596865,0,38,38,38,1,116,1,8,slipper     ,wolf          ,html/resources/sequences_IDs/B/08_slipper.jpg,html/resources/sequences_IDs/A/01_wolf.jpg,8,1,3,2,1,1,6,1,0,23,,,,,,,,,,,,,,,,,,,,
,,,,,23,2020-07-01_13h32.13.922,retriever_ti,2020.1.3,Win32,60,Chrome,1280,720,,,,,,,,,,,,,,,,,2,,,,,,,,,,,,,,,,,,,,,,,,,,,815.20212,117,left,1.306735,scarf         ,6,6,1,1,1,815.246415,815.246415,817.743685,0,39,39,39,1,117,6,5,scarf         ,radio       ,html/resources/sequences_IDs/A/06_scarf.jpg,html/resources/sequences_IDs/B/10_radio.jpg,6,10,3,2,4,2,5,8,0,23,,,,,,,,,,,,,,,,,,,,
,,,,,23,2020-07-01_13h32.13.922,retriever_ti,2020.1.3,Win32,60,Chrome,1280,720,,,,,,,,,,,,,,,,,2,,,,,,,,,,,,,,,,,,,,,,,,,,,818.844675,118,left,0.854935,radio       ,5,10,-2,0,3,818.889865,818.889865,821.379435,0,40,40,40,1,118,5,7,radio       ,dolphin     ,html/resources/sequences_IDs/B/10_radio.jpg,html/resources/sequences_IDs/B/02_dolphin.jpg,10,2,4,2,1,1,8,2,0,23,,,,,,,,,,,,,,,,,,,,
,,,,,23,2020-07-01_13h32.13.922,retriever_ti,2020.1.3,Win32,60,Chrome,1280,720,,,,,,,,,,,,,,,,,2,,,,,,,,,,,,,,,,,,,,,,,,,,,822.000105,119,left,1.450975,wolf          ,8,1,6,1,3,822.04541,822.04541,824.531385,0,41,41,41,1,119,8,2,wolf          ,calculator    ,html/resources/sequences_IDs/A/01_wolf.jpg,html/resources/sequences_IDs/A/09_calculator.jpg,1,9,1,1,4,2,1,7,0,23,,,,,,,,,,,,,,,,,,,,
,,,,,23,2020-07-01_13h32.13.922,retriever_ti,2020.1.3,Win32,60,Chrome,1280,720,,,,,,,,,,,,,,,,,2,,,,,,,,,,,,,,,,,,,,,,,,,,,825.15123,120,right,1.640845,calculator    ,2,9,-1,0,0,825.19456,825.19456,827.678935,0,42,42,42,1,120,3,2,holdfast    ,calculator    ,html/resources/sequences_IDs/B/04_holdfast.jpg,html/resources/sequences_IDs/A/09_calculator.jpg,4,9,2,1,4,2,3,7,0,23,,,,,,,,,,,,,,,,,,,,
,,,,,23,2020-07-01_13h32.13.922,retriever_ti,2020.1.3,Win32,60,Chrome,1280,720,,,,,,,,,,,,,,,,,2,,,,,,,,,,,,,,,,,,,,,,,,,,,828.78562,121,left,0.95299,radio       ,5,10,4,1,3,828.825195,828.825195,831.31103,0,43,43,43,1,121,5,1,radio       ,slipper     ,html/resources/sequences_IDs/B/10_radio.jpg,html/resources/sequences_IDs/B/08_slipper.jpg,10,8,4,2,3,2,8,6,0,23,,,,,,,,,,,,,,,,,,,,
,,,,,23,2020-07-01_13h32.13.922,retriever_ti,2020.1.3,Win32,60,Chrome,1280,720,,,,,,,,,,,,,,,,,2,,,,,,,,,,,,,,,,,,,,,,,,,,,831.934025,122,right,0.80748,scarf         ,6,6,4,1,3,831.95757,831.95757,834.4462,0,44,44,44,1,122,2,6,calculator    ,scarf         ,html/resources/sequences_IDs/A/09_calculator.jpg,html/resources/sequences_IDs/A/06_scarf.jpg,9,6,4,2,3,2,7,5,0,23,,,,,,,,,,,,,,,,,,,,
,,,,,23,2020-07-01_13h32.13.922,retriever_ti,2020.1.3,Win32,60,Chrome,1280,720,,,,,,,,,,,,,,,,,2,,,,,,,,,,,,,,,,,,,,,,,,,,,835.071665,123,right,1.97328,peacock       ,4,5,-1,0,1,835.11583,835.11583,837.600245,0,45,45,45,1,123,5,4,radio       ,peacock       ,html/resources/sequences_IDs/B/10_radio.jpg,html/resources/sequences_IDs/A/05_peacock.jpg,10,5,4,2,2,1,8,4,1,23,,,,,,,,,,,,,,,,,,,,
,,,,,23,2020-07-01_13h32.13.922,retriever_ti,2020.1.3,Win32,60,Chrome,1280,720,,,,,,,,,,,,,,,,,2,,,,,,,,,,,,,,,,,,,,,,,,,,,838.703005,124,left,0.994775,scarf         ,6,6,-1,0,0,838.74859,838.74859,841.241915,0,46,46,46,1,124,6,7,scarf         ,dolphin     ,html/resources/sequences_IDs/A/06_scarf.jpg,html/resources/sequences_IDs/B/02_dolphin.jpg,6,2,3,2,1,1,5,2,0,23,,,,,,,,,,,,,,,,,,,,
,,,,,23,2020-07-01_13h32.13.922,retriever_ti,2020.1.3,Win32,60,Chrome,1280,720,,,,,,,,,,,,,,,,,2,,,,,,,,,,,,,,,,,,,,,,,,,,,842.33454,125,left,1.11148,holdfast    ,3,4,2,1,3,842.355295,842.355295,844.843845,0,47,47,47,1,125,3,1,holdfast    ,slipper     ,html/resources/sequences_IDs/B/04_holdfast.jpg,html/resources/sequences_IDs/B/08_slipper.jpg,4,8,2,1,3,2,3,6,0,23,,,,,,,,,,,,,,,,,,,,
,,,,,23,2020-07-01_13h32.13.922,retriever_ti,2020.1.3,Win32,60,Chrome,1280,720,,,,,,,,,,,,,,,,,2,,,,,,,,,,,,,,,,,,,,,,,,,,,845.449415,126,left,0.86265,calculator    ,2,9,1,1,0,845.49459,845.49459,847.98357,0,48,48,48,1,126,2,1,calculator    ,slipper     ,html/resources/sequences_IDs/A/09_calculator.jpg,html/resources/sequences_IDs/B/08_slipper.jpg,9,8,4,2,3,2,7,6,1,23,,,,,,,,,,,,,,,,,,,,
,,,,,23,2020-07-01_13h32.13.922,retriever_ti,2020.1.3,Win32,60,Chrome,1280,720,,,,,,,,,,,,,,,,,2,,,,,,,,,,,,,,,,,,,,,,,,,,,849.086905,127,left,2.016575,scarf         ,6,6,4,1,3,849.13052,849.13052,851.62056,0,49,49,49,1,127,6,2,scarf         ,calculator    ,html/resources/sequences_IDs/A/06_scarf.jpg,html/resources/sequences_IDs/A/09_calculator.jpg,6,9,3,2,4,2,5,7,0,23,,,,,,,,,,,,,,,,,,,,
,,,,,23,2020-07-01_13h32.13.922,retriever_ti,2020.1.3,Win32,60,Chrome,1280,720,,,,,,,,,,,,,,,,,2,,,,,,,,,,,,,,,,,,,,,,,,,,,852.22769,128,right,1.444435,dolphin     ,7,2,1,1,0,852.27506,852.27506,854.780525,0,50,50,50,1,128,6,7,scarf         ,dolphin     ,html/resources/sequences_IDs/A/06_scarf.jpg,html/resources/sequences_IDs/B/02_dolphin.jpg,6,2,3,2,1,1,5,2,1,23,,,,,,,,,,,,,,,,,,,,
,,,,,23,2020-07-01_13h32.13.922,retriever_ti,2020.1.3,Win32,60,Chrome,1280,720,,,,,,,,,,,,,,,,,2,,,,,,,,,,,,,,,,,,,,,,,,,,,855.89416,129,left,1.382095,peacock       ,4,5,-4,0,3,855.92053,855.92053,858.40769,0,51,51,51,1,129,4,8,peacock       ,wolf          ,html/resources/sequences_IDs/A/05_peacock.jpg,html/resources/sequences_IDs/A/01_wolf.jpg,5,1,2,1,1,1,4,1,0,23,,,,,,,,,,,,,,,,,,,,
,,,,,23,2020-07-01_13h32.13.922,retriever_ti,2020.1.3,Win32,60,Chrome,1280,720,,,,,,,,,,,,,,,,,2,,,,,,,,,,,,,,,,,,,,,,,,,,,859.02619,130,left,1.23472,radio       ,5,10,-1,0,0,859.055205,859.055205,861.539465,0,52,52,52,1,130,5,6,radio       ,scarf         ,html/resources/sequences_IDs/B/10_radio.jpg,html/resources/sequences_IDs/A/06_scarf.jpg,10,6,4,2,3,2,8,5,0,23,,,,,,,,,,,,,,,,,,,,
,,,,,23,2020-07-01_13h32.13.922,retriever_ti,2020.1.3,Win32,60,Chrome,1280,720,,,,,,,,,,,,,,,,,2,,,,,,,,,,,,,,,,,,,,,,,,,,,862.648645,131,left,1.14171,peacock       ,4,5,2,1,3,862.67646,862.67646,865.173035,0,53,53,53,1,131,4,2,peacock       ,calculator    ,html/resources/sequences_IDs/A/05_peacock.jpg,html/resources/sequences_IDs/A/09_calculator.jpg,5,9,2,1,4,2,4,7,0,23,,,,,,,,,,,,,,,,,,,,
,,,,,23,2020-07-01_13h32.13.922,retriever_ti,2020.1.3,Win32,60,Chrome,1280,720,,,,,,,,,,,,,,,,,2,,,,,,,,,,,,,,,,,,,,,,,,,,,865.79167,132,left,1.01967,calculator    ,2,9,-2,0,3,865.81352,865.81352,868.31871,0,54,54,54,1,132,2,4,calculator    ,peacock       ,html/resources/sequences_IDs/A/09_calculator.jpg,html/resources/sequences_IDs/A/05_peacock.jpg,9,5,4,2,2,1,7,4,0,23,,,,,,,,,,,,,,,,,,,,
,,,,,23,2020-07-01_13h32.13.922,retriever_ti,2020.1.3,Win32,60,Chrome,1280,720,,,,,,,,,,,,,,,,,2,,,,,,,,,,,,,,,,,,,,,,,,,,,868.938825,133,right,1.76445,radio       ,5,10,1,1,1,868.98884,868.98884,871.48534,0,55,55,55,1,133,4,5,peacock       ,radio       ,html/resources/sequences_IDs/A/05_peacock.jpg,html/resources/sequences_IDs/B/10_radio.jpg,5,10,2,1,4,2,4,8,0,23,,,,,,,,,,,,,,,,,,,,
,,,,,23,2020-07-01_13h32.13.922,retriever_ti,2020.1.3,Win32,60,Chrome,1280,720,,,,,,,,,,,,,,,,,2,,,,,,,,,,,,,,,,,,,,,,,,,,,872.57905,134,right,0.70686,holdfast    ,3,4,2,1,3,872.61173,872.61173,875.099435,0,56,56,56,1,134,1,3,slipper     ,holdfast    ,html/resources/sequences_IDs/B/08_slipper.jpg,html/resources/sequences_IDs/B/04_holdfast.jpg,8,4,3,2,2,1,6,3,0,23,,,,,,,,,,,,,,,,,,,,
,,,,,23,2020-07-01_13h32.13.922,retriever_ti,2020.1.3,Win32,60,Chrome,1280,720,,,,,,,,,,,,,,,,,2,,,,,,,,,,,,,,,,,,,,,,,,,,,875.703095,135,right,1.285435,radio       ,5,10,3,1,3,875.74658,875.74658,878.249175,0,57,57,57,1,135,2,5,calculator    ,radio       ,html/resources/sequences_IDs/A/09_calculator.jpg,html/resources/sequences_IDs/B/10_radio.jpg,9,10,4,2,4,2,7,8,0,23,,,,,,,,,,,,,,,,,,,,
,,,,,23,2020-07-01_13h32.13.922,retriever_ti,2020.1.3,Win32,60,Chrome,1280,720,,,,,,,,,,,,,,,,,2,,,,,,,,,,,,,,,,,,,,,,,,,,,878.854245,136,right,1.558705,peacock       ,4,5,1,1,1,878.902505,878.902505,881.39759,0,58,58,58,1,136,3,4,holdfast    ,peacock       ,html/resources/sequences_IDs/B/04_holdfast.jpg,html/resources/sequences_IDs/A/05_peacock.jpg,4,5,2,1,2,1,3,4,0,23,,,,,,,,,,,,,,,,,,,,
,,,,,23,2020-07-01_13h32.13.922,retriever_ti,2020.1.3,Win32,60,Chrome,1280,720,,,,,,,,,,,,,,,,,2,,,,,,,,,,,,,,,,,,,,,,,,,,,882.498715,137,right,1.14717,peacock       ,4,5,3,1,3,882.5471,882.5471,885.033095,0,59,59,59,1,137,1,4,slipper     ,peacock       ,html/resources/sequences_IDs/B/08_slipper.jpg,html/resources/sequences_IDs/A/05_peacock.jpg,8,5,3,2,2,1,6,4,0,23,,,,,,,,,,,,,,,,,,,,
,,,,,23,2020-07-01_13h32.13.922,retriever_ti,2020.1.3,Win32,60,Chrome,1280,720,,,,,,,,,,,,,,,,,2,,,,,,,,,,,,,,,,,,,,,,,,,,,885.6513,138,right,1.85676,slipper     ,1,8,-7,0,3,885.66825,885.66825,888.17445,0,60,60,60,1,138,8,1,wolf          ,slipper     ,html/resources/sequences_IDs/A/01_wolf.jpg,html/resources/sequences_IDs/B/08_slipper.jpg,1,8,1,1,3,2,1,6,0,23,,,,,,,,,,,,,,,,,,,,
,,,,,23,2020-07-01_13h32.13.922,retriever_ti,2020.1.3,Win32,60,Chrome,1280,720,,,,,,,,,,,,,,,,,2,,,,,,,,,,,,,,,,,,,,,,,,,,,888.78186,139,left,1.39359,scarf         ,6,6,1,1,1,888.83315,888.83315,891.31936,0,61,61,61,1,139,6,5,scarf         ,radio       ,html/resources/sequences_IDs/A/06_scarf.jpg,html/resources/sequences_IDs/B/10_radio.jpg,6,10,3,2,4,2,5,8,0,23,,,,,,,,,,,,,,,,,,,,
,,,,,23,2020-07-01_13h32.13.922,retriever_ti,2020.1.3,Win32,60,Chrome,1280,720,,,,,,,,,,,,,,,,,2,,,,,,,,,,,,,,,,,,,,,,,,,,,892.411175,140,right,0.87679,scarf         ,6,6,1,1,1,892.430145,892.430145,894.92878,0,62,62,62,1,140,5,6,radio       ,scarf         ,html/resources/sequences_IDs/B/10_radio.jpg,html/resources/sequences_IDs/A/06_scarf.jpg,10,6,4,2,3,2,8,5,0,23,,,,,,,,,,,,,,,,,,,,
,,,,,23,2020-07-01_13h32.13.922,retriever_ti,2020.1.3,Win32,60,Chrome,1280,720,,,,,,,,,,,,,,,,,2,,,,,,,,,,,,,,,,,,,,,,,,,,,896.033645,141,left,0.88466,peacock       ,4,5,3,1,3,896.079775,896.079775,898.585755,0,63,63,63,1,141,4,1,peacock       ,slipper     ,html/resources/sequences_IDs/A/05_peacock.jpg,html/resources/sequences_IDs/B/08_slipper.jpg,5,8,2,1,3,2,4,6,0,23,,,,,,,,,,,,,,,,,,,,
,,,,,23,2020-07-01_13h32.13.922,retriever_ti,2020.1.3,Win32,60,Chrome,1280,720,,,,,,,,,,,,,,,,,2,,,,,,,,,,,,,,,,,,,,,,,,,,,899.19656,142,right,0.6719,dolphin     ,7,2,5,1,3,899.2212,899.2212,901.72193,0,64,64,64,1,142,2,7,calculator    ,dolphin     ,html/resources/sequences_IDs/A/09_calculator.jpg,html/resources/sequences_IDs/B/02_dolphin.jpg,9,2,4,2,1,1,7,2,0,23,,,,,,,,,,,,,,,,,,,,
,,,,,23,2020-07-01_13h32.13.922,retriever_ti,2020.1.3,Win32,60,Chrome,1280,720,,,,,,,,,,,,,,,,,2,,,,,,,,,,,,,,,,,,,,,,,,,,,902.3389,143,right,1.26957,calculator    ,2,9,-3,0,3,902.3623,902.3623,904.8586,0,65,65,65,1,143,5,2,radio       ,calculator    ,html/resources/sequences_IDs/B/10_radio.jpg,html/resources/sequences_IDs/A/09_calculator.jpg,10,9,4,2,4,2,8,7,0,23,,,,,,,,,,,,,,,,,,,,
,,,,,23,2020-07-01_13h32.13.922,retriever_ti,2020.1.3,Win32,60,Chrome,1280,720,,,,,,,,,,,,,,,,,2,,,,,,,,,,,,,,,,,,,,,,,,,,,905.47135,144,right,1.15326,peacock       ,4,5,-4,0,3,905.49494,905.49494,907.980785,0,66,66,66,1,144,8,4,wolf          ,peacock       ,html/resources/sequences_IDs/A/01_wolf.jpg,html/resources/sequences_IDs/A/05_peacock.jpg,1,5,1,1,2,1,1,4,0,23,,,,,,,,,,,,,,,,,,,,
,,,,,23,2020-07-01_13h32.13.922,retriever_ti,2020.1.3,Win32,60,Chrome,1280,720,,,,,,,,,,,,,,,,,2,,,,,,,,,,,,,,,,,,,,,,,,,,,908.602625,145,right,1.03963,radio       ,5,10,-3,0,3,908.64768,908.64768,911.13336,0,67,67,67,1,145,8,5,wolf          ,radio       ,html/resources/sequences_IDs/A/01_wolf.jpg,html/resources/sequences_IDs/B/10_radio.jpg,1,10,1,1,4,2,1,8,0,23,,,,,,,,,,,,,,,,,,,,
,,,,,23,2020-07-01_13h32.13.922,retriever_ti,2020.1.3,Win32,60,Chrome,1280,720,,,,,,,,,,,,,,,,,2,,,,,,,,,,,,,,,,,,,,,,,,,,,911.74787,146,left,1.616295,radio       ,5,10,1,1,1,911.782325,911.782325,914.2623,0,68,68,68,1,146,5,4,radio       ,peacock       ,html/resources/sequences_IDs/B/10_radio.jpg,html/resources/sequences_IDs/A/05_peacock.jpg,10,5,4,2,2,1,8,4,0,23,,,,,,,,,,,,,,,,,,,,
,,,,,23,2020-07-01_13h32.13.922,retriever_ti,2020.1.3,Win32,60,Chrome,1280,720,,,,,,,,,,,,,,,,,2,,,,,,,,,,,,,,,,,,,,,,,,,,,915.352125,147,left,1.169965,scarf         ,6,6,2,1,3,915.396925,915.396925,917.885745,0,69,69,69,1,147,6,4,scarf         ,peacock       ,html/resources/sequences_IDs/A/06_scarf.jpg,html/resources/sequences_IDs/A/05_peacock.jpg,6,5,3,2,2,1,5,4,0,23,,,,,,,,,,,,,,,,,,,,
,,,,,23,2020-07-01_13h32.13.922,retriever_ti,2020.1.3,Win32,60,Chrome,1280,720,,,,,,,,,,,,,,,,,2,,,,,,,,,,,,,,,,,,,,,,,,,,,918.495565,148,left,1.50765,holdfast    ,3,4,-5,0,3,918.542265,918.542265,921.02819,0,70,70,70,1,148,3,8,holdfast    ,wolf          ,html/resources/sequences_IDs/B/04_holdfast.jpg,html/resources/sequences_IDs/A/01_wolf.jpg,4,1,2,1,1,1,3,1,0,23,,,,,,,,,,,,,,,,,,,,
,,,,,23,2020-07-01_13h32.13.922,retriever_ti,2020.1.3,Win32,60,Chrome,1280,720,,,,,,,,,,,,,,,,,2,,,,,,,,,,,,,,,,,,,,,,,,,,,921.636075,149,right,0.983525,holdfast    ,3,4,1,1,0,921.6635,921.6635,924.155715,0,71,71,71,1,149,2,3,calculator    ,holdfast    ,html/resources/sequences_IDs/A/09_calculator.jpg,html/resources/sequences_IDs/B/04_holdfast.jpg,9,4,4,2,2,1,7,3,1,23,,,,,,,,,,,,,,,,,,,,
,,,,,23,2020-07-01_13h32.13.922,retriever_ti,2020.1.3,Win32,60,Chrome,1280,720,,,,,,,,,,,,,,,,,2,,,,,,,,,,,,,,,,,,,,,,,,,,,925.26197,150,left,0.684155,calculator    ,2,9,-1,0,0,925.30961,925.30961,927.79531,0,72,72,72,1,150,2,3,calculator    ,holdfast    ,html/resources/sequences_IDs/A/09_calculator.jpg,html/resources/sequences_IDs/B/04_holdfast.jpg,9,4,4,2,2,1,7,3,0,23,,,,,,,,,,,,,,,,,,,,
,,,,,23,2020-07-01_13h32.13.922,retriever_ti,2020.1.3,Win32,60,Chrome,1280,720,,,,,,,,,,,,,,,,,2,,,,,,,,,,,,,,,,,,,,,,,,,,,928.90248,151,left,1.15941,dolphin     ,7,2,4,1,3,928.956335,928.956335,931.45693,0,73,73,73,1,151,7,3,dolphin     ,holdfast    ,html/resources/sequences_IDs/B/02_dolphin.jpg,html/resources/sequences_IDs/B/04_holdfast.jpg,2,4,1,1,2,1,2,3,0,23,,,,,,,,,,,,,,,,,,,,
,,,,,23,2020-07-01_13h32.13.922,retriever_ti,2020.1.3,Win32,60,Chrome,1280,720,,,,,,,,,,,,,,,,,2,,,,,,,,,,,,,,,,,,,,,,,,,,,932.076615,152,right,0.98159,scarf         ,6,6,5,1,3,932.100875,932.100875,934.58769,0,74,74,74,1,152,1,6,slipper     ,scarf         ,html/resources/sequences_IDs/B/08_slipper.jpg,html/resources/sequences_IDs/A/06_scarf.jpg,8,6,3,2,3,2,6,5,0,23,,,,,,,,,,,,,,,,,,,,
,,,,,23,2020-07-01_13h32.13.922,retriever_ti,2020.1.3,Win32,60,Chrome,1280,720,,,,,,,,,,,,,,,,,2,,,,,,,,,,,,,,,,,,,,,,,,,,,935.20806,153,right,1.184675,radio       ,5,10,4,1,3,935.231725,935.231725,937.71592,0,75,75,75,1,153,1,5,slipper     ,radio       ,html/resources/sequences_IDs/B/08_slipper.jpg,html/resources/sequences_IDs/B/10_radio.jpg,8,10,3,2,4,2,6,8,0,23,,,,,,,,,,,,,,,,,,,,
,,,,,23,2020-07-01_13h32.13.922,retriever_ti,2020.1.3,Win32,60,Chrome,1280,720,,,,,,,,,,,,,,,,,2,,,,,,,,,,,,,,,,,,,,,,,,,,,938.330695,154,left,0.924965,dolphin     ,7,2,-1,0,0,938.376945,938.376945,940.865795,0,76,76,76,1,154,7,8,dolphin     ,wolf          ,html/resources/sequences_IDs/B/02_dolphin.jpg,html/resources/sequences_IDs/A/01_wolf.jpg,2,1,1,1,1,1,2,1,0,23,,,,,,,,,,,,,,,,,,,,
,,,,,23,2020-07-01_13h32.13.922,retriever_ti,2020.1.3,Win32,60,Chrome,1280,720,,,,,,,,,,,,,,,,,,,,,,,,,,,,,,,,,,,,,0,2.34222,,,,,,,,,,,,,,,,,,,,,,,,,,,,,,,,,,,,,,,,,1,0,1,0,1,,,,,,,,,,,,,,,
,,,,,23,2020-07-01_13h32.13.922,retriever_ti,2020.1.3,Win32,60,Chrome,1280,720,,,,,,,,,,,,,,,,,3,,,,,,,,,,,,,,,,,,,,,,,,,,,958.27851,155,left,1.21476,calculator    ,2,9,-2,0,3,958.31108,958.31108,960.81144,0,0,0,0,1,155,2,4,calculator    ,peacock       ,html/resources/sequences_IDs/A/09_calculator.jpg,html/resources/sequences_IDs/A/05_peacock.jpg,9,5,4,2,2,1,7,4,0,23,,,,,,,,,,,,,,,,,,,,
,,,,,23,2020-07-01_13h32.13.922,retriever_ti,2020.1.3,Win32,60,Chrome,1280,720,,,,,,,,,,,,,,,,,3,,,,,,,,,,,,,,,,,,,,,,,,,,,961.43124,156,left,0.850315,radio       ,5,10,4,1,3,961.47665,961.47665,963.97011,0,1,1,1,1,156,5,1,radio       ,slipper     ,html/resources/sequences_IDs/B/10_radio.jpg,html/resources/sequences_IDs/B/08_slipper.jpg,10,8,4,2,3,2,8,6,0,23,,,,,,,,,,,,,,,,,,,,
,,,,,23,2020-07-01_13h32.13.922,retriever_ti,2020.1.3,Win32,60,Chrome,1280,720,,,,,,,,,,,,,,,,,3,,,,,,,,,,,,,,,,,,,,,,,,,,,964.57852,157,left,1.08237,scarf         ,6,6,3,1,3,964.604045,964.604045,967.09181,0,2,2,2,1,157,6,3,scarf         ,holdfast    ,html/resources/sequences_IDs/A/06_scarf.jpg,html/resources/sequences_IDs/B/04_holdfast.jpg,6,4,3,2,2,1,5,3,0,23,,,,,,,,,,,,,,,,,,,,
,,,,,23,2020-07-01_13h32.13.922,retriever_ti,2020.1.3,Win32,60,Chrome,1280,720,,,,,,,,,,,,,,,,,3,,,,,,,,,,,,,,,,,,,,,,,,,,,967.703605,158,left,1.4248,radio       ,5,10,1,1,1,967.739625,967.739625,970.232415,0,3,3,3,1,158,5,4,radio       ,peacock       ,html/resources/sequences_IDs/B/10_radio.jpg,html/resources/sequences_IDs/A/05_peacock.jpg,10,5,4,2,2,1,8,4,0,23,,,,,,,,,,,,,,,,,,,,
,,,,,23,2020-07-01_13h32.13.922,retriever_ti,2020.1.3,Win32,60,Chrome,1280,720,,,,,,,,,,,,,,,,,3,,,,,,,,,,,,,,,,,,,,,,,,,,,971.342235,159,right,1.440255,slipper     ,1,8,-3,0,3,971.392475,971.392475,973.88523,0,4,4,4,1,159,4,1,peacock       ,slipper     ,html/resources/sequences_IDs/A/05_peacock.jpg,html/resources/sequences_IDs/B/08_slipper.jpg,5,8,2,1,3,2,4,6,0,23,,,,,,,,,,,,,,,,,,,,
,,,,,23,2020-07-01_13h32.13.922,retriever_ti,2020.1.3,Win32,60,Chrome,1280,720,,,,,,,,,,,,,,,,,3,,,,,,,,,,,,,,,,,,,,,,,,,,,974.49544,160,right,1.44194,peacock       ,4,5,1,1,1,974.521115,974.521115,977.019435,0,5,5,5,1,160,3,4,holdfast    ,peacock       ,html/resources/sequences_IDs/B/04_holdfast.jpg,html/resources/sequences_IDs/A/05_peacock.jpg,4,5,2,1,2,1,3,4,0,23,,,,,,,,,,,,,,,,,,,,
,,,,,23,2020-07-01_13h32.13.922,retriever_ti,2020.1.3,Win32,60,Chrome,1280,720,,,,,,,,,,,,,,,,,3,,,,,,,,,,,,,,,,,,,,,,,,,,,978.126135,161,right,1.3092,peacock       ,4,5,-4,0,3,978.15379,978.15379,980.64713,0,6,6,6,1,161,8,4,wolf          ,peacock       ,html/resources/sequences_IDs/A/01_wolf.jpg,html/resources/sequences_IDs/A/05_peacock.jpg,1,5,1,1,2,1,1,4,0,23,,,,,,,,,,,,,,,,,,,,
,,,,,23,2020-07-01_13h32.13.922,retriever_ti,2020.1.3,Win32,60,Chrome,1280,720,,,,,,,,,,,,,,,,,3,,,,,,,,,,,,,,,,,,,,,,,,,,,981.26507,162,left,0.888455,wolf          ,8,1,7,1,3,981.30832,981.30832,983.80064,0,7,7,7,1,162,8,1,wolf          ,slipper     ,html/resources/sequences_IDs/A/01_wolf.jpg,html/resources/sequences_IDs/B/08_slipper.jpg,1,8,1,1,3,2,1,6,0,23,,,,,,,,,,,,,,,,,,,,
,,,,,23,2020-07-01_13h32.13.922,retriever_ti,2020.1.3,Win32,60,Chrome,1280,720,,,,,,,,,,,,,,,,,3,,,,,,,,,,,,,,,,,,,,,,,,,,,984.412515,163,right,0.80286,peacock       ,4,5,3,1,3,984.459315,984.459315,986.965935,0,8,8,8,1,163,1,4,slipper     ,peacock       ,html/resources/sequences_IDs/B/08_slipper.jpg,html/resources/sequences_IDs/A/05_peacock.jpg,8,5,3,2,2,1,6,4,0,23,,,,,,,,,,,,,,,,,,,,
,,,,,23,2020-07-01_13h32.13.922,retriever_ti,2020.1.3,Win32,60,Chrome,1280,720,,,,,,,,,,,,,,,,,3,,,,,,,,,,,,,,,,,,,,,,,,,,,987.579245,164,right,1.178605,dolphin     ,7,2,-1,0,0,987.62739,987.62739,990.11502,0,9,9,9,1,164,8,7,wolf          ,dolphin     ,html/resources/sequences_IDs/A/01_wolf.jpg,html/resources/sequences_IDs/B/02_dolphin.jpg,1,2,1,1,1,1,1,2,0,23,,,,,,,,,,,,,,,,,,,,
,,,,,23,2020-07-01_13h32.13.922,retriever_ti,2020.1.3,Win32,60,Chrome,1280,720,,,,,,,,,,,,,,,,,3,,,,,,,,,,,,,,,,,,,,,,,,,,,991.228465,165,left,0.82485,wolf          ,8,1,1,1,1,991.27692,991.27692,993.776865,0,10,10,10,1,165,8,7,wolf          ,dolphin     ,html/resources/sequences_IDs/A/01_wolf.jpg,html/resources/sequences_IDs/B/02_dolphin.jpg,1,2,1,1,1,1,1,2,0,23,,,,,,,,,,,,,,,,,,,,
,,,,,23,2020-07-01_13h32.13.922,retriever_ti,2020.1.3,Win32,60,Chrome,1280,720,,,,,,,,,,,,,,,,,3,,,,,,,,,,,,,,,,,,,,,,,,,,,994.874525,166,right,0.94985,peacock       ,4,5,1,1,1,994.90844,994.90844,997.399305,0,11,11,11,1,166,3,4,holdfast    ,peacock       ,html/resources/sequences_IDs/B/04_holdfast.jpg,html/resources/sequences_IDs/A/05_peacock.jpg,4,5,2,1,2,1,3,4,0,23,,,,,,,,,,,,,,,,,,,,
,,,,,23,2020-07-01_13h32.13.922,retriever_ti,2020.1.3,Win32,60,Chrome,1280,720,,,,,,,,,,,,,,,,,3,,,,,,,,,,,,,,,,,,,,,,,,,,,998.49822,167,left,0.88539,dolphin     ,7,2,5,1,3,998.521035,998.521035,1001.00912,0,12,12,12,1,167,7,2,dolphin     ,calculator    ,html/resources/sequences_IDs/B/02_dolphin.jpg,html/resources/sequences_IDs/A/09_calculator.jpg,2,9,1,1,4,2,2,7,0,23,,,,,,,,,,,,,,,,,,,,
,,,,,23,2020-07-01_13h32.13.922,retriever_ti,2020.1.3,Win32,60,Chrome,1280,720,,,,,,,,,,,,,,,,,3,,,,,,,,,,,,,,,,,,,,,,,,,,,1001.62328,168,left,1.62626,calculator    ,2,9,-3,0,3,1001.670905,1001.670905,1004.152605,0,13,13,13,1,168,2,5,calculator    ,radio       ,html/resources/sequences_IDs/A/09_calculator.jpg,html/resources/sequences_IDs/B/10_radio.jpg,9,10,4,2,4,2,7,8,0,23,,,,,,,,,,,,,,,,,,,,
,,,,,23,2020-07-01_13h32.13.922,retriever_ti,2020.1.3,Win32,60,Chrome,1280,720,,,,,,,,,,,,,,,,,3,,,,,,,,,,,,,,,,,,,,,,,,,,,1004.766185,169,right,0.86218,scarf         ,6,6,1,1,1,1004.812365,1004.812365,1007.31834,0,14,14,14,1,169,5,6,radio       ,scarf         ,html/resources/sequences_IDs/B/10_radio.jpg,html/resources/sequences_IDs/A/06_scarf.jpg,10,6,4,2,3,2,8,5,0,23,,,,,,,,,,,,,,,,,,,,
,,,,,23,2020-07-01_13h32.13.922,retriever_ti,2020.1.3,Win32,60,Chrome,1280,720,,,,,,,,,,,,,,,,,3,,,,,,,,,,,,,,,,,,,,,,,,,,,1008.42118,170,right,1.61791,radio       ,5,10,1,1,1,1008.48333,1008.48333,1010.97503,0,15,15,15,1,170,4,5,peacock       ,radio       ,html/resources/sequences_IDs/A/05_peacock.jpg,html/resources/sequences_IDs/B/10_radio.jpg,5,10,2,1,4,2,4,8,0,23,,,,,,,,,,,,,,,,,,,,
,,,,,23,2020-07-01_13h32.13.922,retriever_ti,2020.1.3,Win32,60,Chrome,1280,720,,,,,,,,,,,,,,,,,3,,,,,,,,,,,,,,,,,,,,,,,,,,,1012.065965,171,left,1.300745,wolf          ,8,1,1,1,0,1012.090225,1012.090225,1014.58695,0,16,16,16,1,171,8,7,wolf          ,dolphin     ,html/resources/sequences_IDs/A/01_wolf.jpg,html/resources/sequences_IDs/B/02_dolphin.jpg,1,2,1,1,1,1,1,2,1,23,,,,,,,,,,,,,,,,,,,,
,,,,,23,2020-07-01_13h32.13.922,retriever_ti,2020.1.3,Win32,60,Chrome,1280,720,,,,,,,,,,,,,,,,,3,,,,,,,,,,,,,,,,,,,,,,,,,,,1015.698815,172,left,0.555145,dolphin     ,7,2,2,1,3,1015.71998,1015.71998,1018.20971,0,17,17,17,1,172,7,5,dolphin     ,radio       ,html/resources/sequences_IDs/B/02_dolphin.jpg,html/resources/sequences_IDs/B/10_radio.jpg,2,10,1,1,4,2,2,8,0,23,,,,,,,,,,,,,,,,,,,,
,,,,,23,2020-07-01_13h32.13.922,retriever_ti,2020.1.3,Win32,60,Chrome,1280,720,,,,,,,,,,,,,,,,,3,,,,,,,,,,,,,,,,,,,,,,,,,,,1018.816545,173,right,1.21855,wolf          ,8,1,4,1,3,1018.863525,1018.863525,1021.35076,0,18,18,18,1,173,4,8,peacock       ,wolf          ,html/resources/sequences_IDs/A/05_peacock.jpg,html/resources/sequences_IDs/A/01_wolf.jpg,5,1,2,1,1,1,4,1,0,23,,,,,,,,,,,,,,,,,,,,
,,,,,23,2020-07-01_13h32.13.922,retriever_ti,2020.1.3,Win32,60,Chrome,1280,720,,,,,,,,,,,,,,,,,3,,,,,,,,,,,,,,,,,,,,,,,,,,,1021.96023,174,right,0.812915,dolphin     ,7,2,6,1,3,1022.00535,1022.00535,1024.50641,0,19,19,19,1,174,1,7,slipper     ,dolphin     ,html/resources/sequences_IDs/B/08_slipper.jpg,html/resources/sequences_IDs/B/02_dolphin.jpg,8,2,3,2,1,1,6,2,0,23,,,,,,,,,,,,,,,,,,,,
,,,,,23,2020-07-01_13h32.13.922,retriever_ti,2020.1.3,Win32,60,Chrome,1280,720,,,,,,,,,,,,,,,,,3,,,,,,,,,,,,,,,,,,,,,,,,,,,1025.128585,175,right,0.908645,scarf         ,6,6,3,1,3,1025.15259,1025.15259,1027.649345,0,20,20,20,1,175,3,6,holdfast    ,scarf         ,html/resources/sequences_IDs/B/04_holdfast.jpg,html/resources/sequences_IDs/A/06_scarf.jpg,4,6,2,1,3,2,3,5,0,23,,,,,,,,,,,,,,,,,,,,
,,,,,23,2020-07-01_13h32.13.922,retriever_ti,2020.1.3,Win32,60,Chrome,1280,720,,,,,,,,,,,,,,,,,3,,,,,,,,,,,,,,,,,,,,,,,,,,,1028.26128,176,left,0.77448,scarf         ,6,6,1,1,1,1028.285435,1028.285435,1030.783565,0,21,21,21,1,176,6,5,scarf         ,radio       ,html/resources/sequences_IDs/A/06_scarf.jpg,html/resources/sequences_IDs/B/10_radio.jpg,6,10,3,2,4,2,5,8,0,23,,,,,,,,,,,,,,,,,,,,
,,,,,23,2020-07-01_13h32.13.922,retriever_ti,2020.1.3,Win32,60,Chrome,1280,720,,,,,,,,,,,,,,,,,3,,,,,,,,,,,,,,,,,,,,,,,,,,,1031.881705,177,right,0.68584,dolphin     ,7,2,4,1,3,1031.931735,1031.931735,1034.419775,0,22,22,22,1,177,3,7,holdfast    ,dolphin     ,html/resources/sequences_IDs/B/04_holdfast.jpg,html/resources/sequences_IDs/B/02_dolphin.jpg,4,2,2,1,1,1,3,2,0,23,,,,,,,,,,,,,,,,,,,,
,,,,,23,2020-07-01_13h32.13.922,retriever_ti,2020.1.3,Win32,60,Chrome,1280,720,,,,,,,,,,,,,,,,,3,,,,,,,,,,,,,,,,,,,,,,,,,,,1035.030105,178,left,1.70292,holdfast    ,3,4,-5,0,3,1035.05542,1035.05542,1037.54581,0,23,23,23,1,178,3,8,holdfast    ,wolf          ,html/resources/sequences_IDs/B/04_holdfast.jpg,html/resources/sequences_IDs/A/01_wolf.jpg,4,1,2,1,1,1,3,1,0,23,,,,,,,,,,,,,,,,,,,,
,,,,,23,2020-07-01_13h32.13.922,retriever_ti,2020.1.3,Win32,60,Chrome,1280,720,,,,,,,,,,,,,,,,,3,,,,,,,,,,,,,,,,,,,,,,,,,,,1038.16141,179,left,1.064045,scarf         ,6,6,4,1,3,1038.21332,1038.21332,1040.70071,0,24,24,24,1,179,6,2,scarf         ,calculator    ,html/resources/sequences_IDs/A/06_scarf.jpg,html/resources/sequences_IDs/A/09_calculator.jpg,6,9,3,2,4,2,5,7,0,23,,,,,,,,,,,,,,,,,,,,
,,,,,23,2020-07-01_13h32.13.922,retriever_ti,2020.1.3,Win32,60,Chrome,1280,720,,,,,,,,,,,,,,,,,3,,,,,,,,,,,,,,,,,,,,,,,,,,,1041.306555,180,right,1.38717,radio       ,5,10,2,1,3,1041.35323,1041.35323,1043.83506,0,25,25,25,1,180,3,5,holdfast    ,radio       ,html/resources/sequences_IDs/B/04_holdfast.jpg,html/resources/sequences_IDs/B/10_radio.jpg,4,10,2,1,4,2,3,8,0,23,,,,,,,,,,,,,,,,,,,,
,,,,,23,2020-07-01_13h32.13.922,retriever_ti,2020.1.3,Win32,60,Chrome,1280,720,,,,,,,,,,,,,,,,,3,,,,,,,,,,,,,,,,,,,,,,,,,,,1044.44468,181,right,1.622635,calculator    ,2,9,-2,0,3,1044.47142,1044.47142,1046.96003,0,26,26,26,1,181,4,2,peacock       ,calculator    ,html/resources/sequences_IDs/A/05_peacock.jpg,html/resources/sequences_IDs/A/09_calculator.jpg,5,9,2,1,4,2,4,7,0,23,,,,,,,,,,,,,,,,,,,,
,,,,,23,2020-07-01_13h32.13.922,retriever_ti,2020.1.3,Win32,60,Chrome,1280,720,,,,,,,,,,,,,,,,,3,,,,,,,,,,,,,,,,,,,,,,,,,,,1047.57651,182,right,1.585465,radio       ,5,10,-3,0,3,1047.61811,1047.61811,1050.115675,0,27,27,27,1,182,8,5,wolf          ,radio       ,html/resources/sequences_IDs/A/01_wolf.jpg,html/resources/sequences_IDs/B/10_radio.jpg,1,10,1,1,4,2,1,8,0,23,,,,,,,,,,,,,,,,,,,,
,,,,,23,2020-07-01_13h32.13.922,retriever_ti,2020.1.3,Win32,60,Chrome,1280,720,,,,,,,,,,,,,,,,,3,,,,,,,,,,,,,,,,,,,,,,,,,,,1050.719285,183,right,1.378475,calculator    ,2,9,-6,0,3,1050.742305,1050.742305,1053.226225,0,28,28,28,1,183,8,2,wolf          ,calculator    ,html/resources/sequences_IDs/A/01_wolf.jpg,html/resources/sequences_IDs/A/09_calculator.jpg,1,9,1,1,4,2,1,7,0,23,,,,,,,,,,,,,,,,,,,,
,,,,,23,2020-07-01_13h32.13.922,retriever_ti,2020.1.3,Win32,60,Chrome,1280,720,,,,,,,,,,,,,,,,,3,,,,,,,,,,,,,,,,,,,,,,,,,,,1053.848035,184,right,1.627915,holdfast    ,3,4,-5,0,3,1053.87081,1053.87081,1056.367275,0,29,29,29,1,184,8,3,wolf          ,holdfast    ,html/resources/sequences_IDs/A/01_wolf.jpg,html/resources/sequences_IDs/B/04_holdfast.jpg,1,4,1,1,2,1,1,3,0,23,,,,,,,,,,,,,,,,,,,,
,,,,,23,2020-07-01_13h32.13.922,retriever_ti,2020.1.3,Win32,60,Chrome,1280,720,,,,,,,,,,,,,,,,,3,,,,,,,,,,,,,,,,,,,,,,,,,,,1056.987385,185,left,0.921645,dolphin     ,7,2,6,1,3,1057.03708,1057.03708,1059.53535,0,30,30,30,1,185,7,1,dolphin     ,slipper     ,html/resources/sequences_IDs/B/02_dolphin.jpg,html/resources/sequences_IDs/B/08_slipper.jpg,2,8,1,1,3,2,2,6,0,23,,,,,,,,,,,,,,,,,,,,
,,,,,23,2020-07-01_13h32.13.922,retriever_ti,2020.1.3,Win32,60,Chrome,1280,720,,,,,,,,,,,,,,,,,3,,,,,,,,,,,,,,,,,,,,,,,,,,,1060.13944,186,right,1.08254,calculator    ,2,9,1,1,0,1060.16423,1060.16423,1062.655735,0,31,31,31,1,186,1,2,slipper     ,calculator    ,html/resources/sequences_IDs/B/08_slipper.jpg,html/resources/sequences_IDs/A/09_calculator.jpg,8,9,3,2,4,2,6,7,1,23,,,,,,,,,,,,,,,,,,,,
,,,,,23,2020-07-01_13h32.13.922,retriever_ti,2020.1.3,Win32,60,Chrome,1280,720,,,,,,,,,,,,,,,,,3,,,,,,,,,,,,,,,,,,,,,,,,,,,1063.750305,187,right,1.814135,radio       ,5,10,1,1,0,1063.7669,1063.7669,1066.25776,0,32,32,32,1,187,4,5,peacock       ,radio       ,html/resources/sequences_IDs/A/05_peacock.jpg,html/resources/sequences_IDs/B/10_radio.jpg,5,10,2,1,4,2,4,8,1,23,,,,,,,,,,,,,,,,,,,,
,,,,,23,2020-07-01_13h32.13.922,retriever_ti,2020.1.3,Win32,60,Chrome,1280,720,,,,,,,,,,,,,,,,,3,,,,,,,,,,,,,,,,,,,,,,,,,,,1067.357145,188,right,1.27665,dolphin     ,7,2,2,1,3,1067.382415,1067.382415,1069.880305,0,33,33,33,1,188,5,7,radio       ,dolphin     ,html/resources/sequences_IDs/B/10_radio.jpg,html/resources/sequences_IDs/B/02_dolphin.jpg,10,2,4,2,1,1,8,2,0,23,,,,,,,,,,,,,,,,,,,,
,,,,,23,2020-07-01_13h32.13.922,retriever_ti,2020.1.3,Win32,60,Chrome,1280,720,,,,,,,,,,,,,,,,,3,,,,,,,,,,,,,,,,,,,,,,,,,,,1070.494775,189,left,1.595465,calculator    ,2,9,-1,0,0,1070.53872,1070.53872,1073.028575,0,34,34,34,1,189,2,3,calculator    ,holdfast    ,html/resources/sequences_IDs/A/09_calculator.jpg,html/resources/sequences_IDs/B/04_holdfast.jpg,9,4,4,2,2,1,7,3,0,23,,,,,,,,,,,,,,,,,,,,
,,,,,23,2020-07-01_13h32.13.922,retriever_ti,2020.1.3,Win32,60,Chrome,1280,720,,,,,,,,,,,,,,,,,3,,,,,,,,,,,,,,,,,,,,,,,,,,,1074.119715,190,right,1.086275,scarf         ,6,6,2,1,3,1074.146115,1074.146115,1076.639115,0,35,35,35,1,190,4,6,peacock       ,scarf         ,html/resources/sequences_IDs/A/05_peacock.jpg,html/resources/sequences_IDs/A/06_scarf.jpg,5,6,2,1,3,2,4,5,0,23,,,,,,,,,,,,,,,,,,,,
,,,,,23,2020-07-01_13h32.13.922,retriever_ti,2020.1.3,Win32,60,Chrome,1280,720,,,,,,,,,,,,,,,,,3,,,,,,,,,,,,,,,,,,,,,,,,,,,1077.25273,191,left,0.874955,scarf         ,6,6,1,1,1,1077.299955,1077.299955,1079.80004,0,36,36,36,1,191,6,5,scarf         ,radio       ,html/resources/sequences_IDs/A/06_scarf.jpg,html/resources/sequences_IDs/B/10_radio.jpg,6,10,3,2,4,2,5,8,0,23,,,,,,,,,,,,,,,,,,,,
,,,,,23,2020-07-01_13h32.13.922,retriever_ti,2020.1.3,Win32,60,Chrome,1280,720,,,,,,,,,,,,,,,,,3,,,,,,,,,,,,,,,,,,,,,,,,,,,1080.906795,192,left,1.185555,peacock       ,4,5,1,1,1,1080.93589,1080.93589,1083.424505,0,37,37,37,1,192,4,3,peacock       ,holdfast    ,html/resources/sequences_IDs/A/05_peacock.jpg,html/resources/sequences_IDs/B/04_holdfast.jpg,5,4,2,1,2,1,4,3,0,23,,,,,,,,,,,,,,,,,,,,
,,,,,23,2020-07-01_13h32.13.922,retriever_ti,2020.1.3,Win32,60,Chrome,1280,720,,,,,,,,,,,,,,,,,3,,,,,,,,,,,,,,,,,,,,,,,,,,,1084.529055,193,right,1.4289,dolphin     ,7,2,1,1,1,1084.555555,1084.555555,1087.054875,0,38,38,38,1,193,6,7,scarf         ,dolphin     ,html/resources/sequences_IDs/A/06_scarf.jpg,html/resources/sequences_IDs/B/02_dolphin.jpg,6,2,3,2,1,1,5,2,0,23,,,,,,,,,,,,,,,,,,,,
,,,,,23,2020-07-01_13h32.13.922,retriever_ti,2020.1.3,Win32,60,Chrome,1280,720,,,,,,,,,,,,,,,,,3,,,,,,,,,,,,,,,,,,,,,,,,,,,1088.15204,194,left,1.0987,holdfast    ,3,4,1,1,1,1088.199625,1088.199625,1090.70102,0,39,39,39,1,194,3,2,holdfast    ,calculator    ,html/resources/sequences_IDs/B/04_holdfast.jpg,html/resources/sequences_IDs/A/09_calculator.jpg,4,9,2,1,4,2,3,7,0,23,,,,,,,,,,,,,,,,,,,,
,,,,,23,2020-07-01_13h32.13.922,retriever_ti,2020.1.3,Win32,60,Chrome,1280,720,,,,,,,,,,,,,,,,,3,,,,,,,,,,,,,,,,,,,,,,,,,,,1091.811975,195,left,1.97298,calculator    ,2,9,-6,0,3,1091.8572,1091.8572,1094.34876,0,40,40,40,1,195,2,8,calculator    ,wolf          ,html/resources/sequences_IDs/A/09_calculator.jpg,html/resources/sequences_IDs/A/01_wolf.jpg,9,1,4,2,1,1,7,1,0,23,,,,,,,,,,,,,,,,,,,,
,,,,,23,2020-07-01_13h32.13.922,retriever_ti,2020.1.3,Win32,60,Chrome,1280,720,,,,,,,,,,,,,,,,,3,,,,,,,,,,,,,,,,,,,,,,,,,,,1094.95585,196,right,1.1791,holdfast    ,3,4,2,1,3,1095.004845,1095.004845,1097.50322,0,41,41,41,1,196,1,3,slipper     ,holdfast    ,html/resources/sequences_IDs/B/08_slipper.jpg,html/resources/sequences_IDs/B/04_holdfast.jpg,8,4,3,2,2,1,6,3,0,23,,,,,,,,,,,,,,,,,,,,
,,,,,23,2020-07-01_13h32.13.922,retriever_ti,2020.1.3,Win32,60,Chrome,1280,720,,,,,,,,,,,,,,,,,3,,,,,,,,,,,,,,,,,,,,,,,,,,,1098.11865,197,left,1.87401,radio       ,5,10,2,1,3,1098.144365,1098.144365,1100.635495,0,42,42,42,1,197,5,3,radio       ,holdfast    ,html/resources/sequences_IDs/B/10_radio.jpg,html/resources/sequences_IDs/B/04_holdfast.jpg,10,4,4,2,2,1,8,3,0,23,,,,,,,,,,,,,,,,,,,,
,,,,,23,2020-07-01_13h32.13.922,retriever_ti,2020.1.3,Win32,60,Chrome,1280,720,,,,,,,,,,,,,,,,,3,,,,,,,,,,,,,,,,,,,,,,,,,,,1101.255515,198,left,1.64416,slipper     ,1,8,-4,0,3,1101.28099,1101.28099,1103.779725,0,43,43,43,1,198,1,5,slipper     ,radio       ,html/resources/sequences_IDs/B/08_slipper.jpg,html/resources/sequences_IDs/B/10_radio.jpg,8,10,3,2,4,2,6,8,0,23,,,,,,,,,,,,,,,,,,,,
,,,,,23,2020-07-01_13h32.13.922,retriever_ti,2020.1.3,Win32,60,Chrome,1280,720,,,,,,,,,,,,,,,,,3,,,,,,,,,,,,,,,,,,,,,,,,,,,1104.39013,199,left,1.340315,dolphin     ,7,2,-1,0,0,1104.440135,1104.440135,1106.92579,0,44,44,44,1,199,7,8,dolphin     ,wolf          ,html/resources/sequences_IDs/B/02_dolphin.jpg,html/resources/sequences_IDs/A/01_wolf.jpg,2,1,1,1,1,1,2,1,0,23,,,,,,,,,,,,,,,,,,,,
,,,,,23,2020-07-01_13h32.13.922,retriever_ti,2020.1.3,Win32,60,Chrome,1280,720,,,,,,,,,,,,,,,,,3,,,,,,,,,,,,,,,,,,,,,,,,,,,1108.016025,200,left,1.253365,holdfast    ,3,4,2,1,3,1108.067125,1108.067125,1110.55412,0,45,45,45,1,200,3,1,holdfast    ,slipper     ,html/resources/sequences_IDs/B/04_holdfast.jpg,html/resources/sequences_IDs/B/08_slipper.jpg,4,8,2,1,3,2,3,6,0,23,,,,,,,,,,,,,,,,,,,,
,,,,,23,2020-07-01_13h32.13.922,retriever_ti,2020.1.3,Win32,60,Chrome,1280,720,,,,,,,,,,,,,,,,,3,,,,,,,,,,,,,,,,,,,,,,,,,,,1111.17414,201,right,0.88931,scarf         ,6,6,-2,0,3,1111.22157,1111.22157,1113.724305,0,46,46,46,1,201,8,6,wolf          ,scarf         ,html/resources/sequences_IDs/A/01_wolf.jpg,html/resources/sequences_IDs/A/06_scarf.jpg,1,6,1,1,3,2,1,5,0,23,,,,,,,,,,,,,,,,,,,,
,,,,,23,2020-07-01_13h32.13.922,retriever_ti,2020.1.3,Win32,60,Chrome,1280,720,,,,,,,,,,,,,,,,,3,,,,,,,,,,,,,,,,,,,,,,,,,,,1114.344215,202,right,1.253805,scarf         ,6,6,-1,0,1,1114.37388,1114.37388,1116.873125,0,47,47,47,1,202,7,6,dolphin     ,scarf         ,html/resources/sequences_IDs/B/02_dolphin.jpg,html/resources/sequences_IDs/A/06_scarf.jpg,2,6,1,1,3,2,2,5,1,23,,,,,,,,,,,,,,,,,,,,
,,,,,23,2020-07-01_13h32.13.922,retriever_ti,2020.1.3,Win32,60,Chrome,1280,720,,,,,,,,,,,,,,,,,3,,,,,,,,,,,,,,,,,,,,,,,,,,,1117.9717,203,left,0.83958,scarf         ,6,6,2,1,3,1118.01887,1118.01887,1120.52251,0,48,48,48,1,203,6,4,scarf         ,peacock       ,html/resources/sequences_IDs/A/06_scarf.jpg,html/resources/sequences_IDs/A/05_peacock.jpg,6,5,3,2,2,1,5,4,0,23,,,,,,,,,,,,,,,,,,,,
,,,,,23,2020-07-01_13h32.13.922,retriever_ti,2020.1.3,Win32,60,Chrome,1280,720,,,,,,,,,,,,,,,,,3,,,,,,,,,,,,,,,,,,,,,,,,,,,1121.13073,204,right,1.16328,dolphin     ,7,2,5,1,3,1121.178055,1121.178055,1123.67745,0,49,49,49,1,204,2,7,calculator    ,dolphin     ,html/resources/sequences_IDs/A/09_calculator.jpg,html/resources/sequences_IDs/B/02_dolphin.jpg,9,2,4,2,1,1,7,2,0,23,,,,,,,,,,,,,,,,,,,,
,,,,,23,2020-07-01_13h32.13.922,retriever_ti,2020.1.3,Win32,60,Chrome,1280,720,,,,,,,,,,,,,,,,,3,,,,,,,,,,,,,,,,,,,,,,,,,,,1124.29085,205,left,0.86055,scarf         ,6,6,5,1,3,1124.338885,1124.338885,1126.83144,0,50,50,50,1,205,6,1,scarf         ,slipper     ,html/resources/sequences_IDs/A/06_scarf.jpg,html/resources/sequences_IDs/B/08_slipper.jpg,6,8,3,2,3,2,5,6,0,23,,,,,,,,,,,,,,,,,,,,
,,,,,23,2020-07-01_13h32.13.922,retriever_ti,2020.1.3,Win32,60,Chrome,1280,720,,,,,,,,,,,,,,,,,3,,,,,,,,,,,,,,,,,,,,,,,,,,,1127.44397,206,left,1.732525,peacock       ,4,5,-1,0,0,1127.49813,1127.49813,1130.001245,0,51,51,51,1,206,4,5,peacock       ,radio       ,html/resources/sequences_IDs/A/05_peacock.jpg,html/resources/sequences_IDs/B/10_radio.jpg,5,10,2,1,4,2,4,8,0,23,,,,,,,,,,,,,,,,,,,,
,,,,,23,2020-07-01_13h32.13.922,retriever_ti,2020.1.3,Win32,60,Chrome,1280,720,,,,,,,,,,,,,,,,,3,,,,,,,,,,,,,,,,,,,,,,,,,,,1131.109755,207,right,0.69783,holdfast    ,3,4,1,1,1,1131.159495,1131.159495,1133.66115,0,52,52,52,1,207,2,3,calculator    ,holdfast    ,html/resources/sequences_IDs/A/09_calculator.jpg,html/resources/sequences_IDs/B/04_holdfast.jpg,9,4,4,2,2,1,7,3,0,23,,,,,,,,,,,,,,,,,,,,
,,,,,23,2020-07-01_13h32.13.922,retriever_ti,2020.1.3,Win32,60,Chrome,1280,720,,,,,,,,,,,,,,,,,3,,,,,,,,,,,,,,,,,,,,,,,,,,,1134.75803,208,left,0.780415,calculator    ,2,9,1,1,1,1134.77683,1134.77683,1137.27861,0,53,53,53,1,208,2,1,calculator    ,slipper     ,html/resources/sequences_IDs/A/09_calculator.jpg,html/resources/sequences_IDs/B/08_slipper.jpg,9,8,4,2,3,2,7,6,0,23,,,,,,,,,,,,,,,,,,,,
,,,,,23,2020-07-01_13h32.13.922,retriever_ti,2020.1.3,Win32,60,Chrome,1280,720,,,,,,,,,,,,,,,,,3,,,,,,,,,,,,,,,,,,,,,,,,,,,1138.37856,209,right,1.056925,scarf         ,6,6,-1,0,0,1138.426665,1138.426665,1140.923585,0,54,54,54,1,209,7,6,dolphin     ,scarf         ,html/resources/sequences_IDs/B/02_dolphin.jpg,html/resources/sequences_IDs/A/06_scarf.jpg,2,6,1,1,3,2,2,5,0,23,,,,,,,,,,,,,,,,,,,,
,,,,,23,2020-07-01_13h32.13.922,retriever_ti,2020.1.3,Win32,60,Chrome,1280,720,,,,,,,,,,,,,,,,,3,,,,,,,,,,,,,,,,,,,,,,,,,,,1142.014125,210,left,1.760655,holdfast    ,3,4,1,1,0,1142.041315,1142.041315,1144.538495,0,55,55,55,1,210,3,2,holdfast    ,calculator    ,html/resources/sequences_IDs/B/04_holdfast.jpg,html/resources/sequences_IDs/A/09_calculator.jpg,4,9,2,1,4,2,3,7,1,23,,,,,,,,,,,,,,,,,,,,
,,,,,23,2020-07-01_13h32.13.922,retriever_ti,2020.1.3,Win32,60,Chrome,1280,720,,,,,,,,,,,,,,,,,3,,,,,,,,,,,,,,,,,,,,,,,,,,,1145.63468,211,left,0.934415,scarf         ,6,6,-1,0,0,1145.68001,1145.68001,1148.170765,0,56,56,56,1,211,6,7,scarf         ,dolphin     ,html/resources/sequences_IDs/A/06_scarf.jpg,html/resources/sequences_IDs/B/02_dolphin.jpg,6,2,3,2,1,1,5,2,0,23,,,,,,,,,,,,,,,,,,,,
,,,,,23,2020-07-01_13h32.13.922,retriever_ti,2020.1.3,Win32,60,Chrome,1280,720,,,,,,,,,,,,,,,,,3,,,,,,,,,,,,,,,,,,,,,,,,,,,1149.279475,212,left,1.654235,radio       ,5,10,3,1,3,1149.29789,1149.29789,1151.78536,0,57,57,57,1,212,5,2,radio       ,calculator    ,html/resources/sequences_IDs/B/10_radio.jpg,html/resources/sequences_IDs/A/09_calculator.jpg,10,9,4,2,4,2,8,7,0,23,,,,,,,,,,,,,,,,,,,,
,,,,,23,2020-07-01_13h32.13.922,retriever_ti,2020.1.3,Win32,60,Chrome,1280,720,,,,,,,,,,,,,,,,,3,,,,,,,,,,,,,,,,,,,,,,,,,,,1152.39742,213,left,1.644625,calculator    ,2,9,1,1,1,1152.428615,1152.428615,1154.92066,0,58,58,58,1,213,2,1,calculator    ,slipper     ,html/resources/sequences_IDs/A/09_calculator.jpg,html/resources/sequences_IDs/B/08_slipper.jpg,9,8,4,2,3,2,7,6,0,23,,,,,,,,,,,,,,,,,,,,
,,,,,23,2020-07-01_13h32.13.922,retriever_ti,2020.1.3,Win32,60,Chrome,1280,720,,,,,,,,,,,,,,,,,3,,,,,,,,,,,,,,,,,,,,,,,,,,,1156.016495,214,left,1.286395,scarf         ,6,6,1,1,0,1156.06174,1156.06174,1158.557185,0,59,59,59,1,214,6,5,scarf         ,radio       ,html/resources/sequences_IDs/A/06_scarf.jpg,html/resources/sequences_IDs/B/10_radio.jpg,6,10,3,2,4,2,5,8,1,23,,,,,,,,,,,,,,,,,,,,
,,,,,23,2020-07-01_13h32.13.922,retriever_ti,2020.1.3,Win32,60,Chrome,1280,720,,,,,,,,,,,,,,,,,3,,,,,,,,,,,,,,,,,,,,,,,,,,,1159.65987,215,left,1.277735,dolphin     ,7,2,1,1,1,1159.706985,1159.706985,1162.19503,0,60,60,60,1,215,7,6,dolphin     ,scarf         ,html/resources/sequences_IDs/B/02_dolphin.jpg,html/resources/sequences_IDs/A/06_scarf.jpg,2,6,1,1,3,2,2,5,0,23,,,,,,,,,,,,,,,,,,,,
,,,,,23,2020-07-01_13h32.13.922,retriever_ti,2020.1.3,Win32,60,Chrome,1280,720,,,,,,,,,,,,,,,,,3,,,,,,,,,,,,,,,,,,,,,,,,,,,1163.289435,216,right,0.95475,calculator    ,2,9,1,1,1,1163.33818,1163.33818,1165.841205,0,61,61,61,1,216,1,2,slipper     ,calculator    ,html/resources/sequences_IDs/B/08_slipper.jpg,html/resources/sequences_IDs/A/09_calculator.jpg,8,9,3,2,4,2,6,7,0,23,,,,,,,,,,,,,,,,,,,,
,,,,,23,2020-07-01_13h32.13.922,retriever_ti,2020.1.3,Win32,60,Chrome,1280,720,,,,,,,,,,,,,,,,,3,,,,,,,,,,,,,,,,,,,,,,,,,,,1166.95019,217,left,1.15191,dolphin     ,7,2,4,1,3,1166.973665,1166.973665,1169.468135,0,62,62,62,1,217,7,3,dolphin     ,holdfast    ,html/resources/sequences_IDs/B/02_dolphin.jpg,html/resources/sequences_IDs/B/04_holdfast.jpg,2,4,1,1,2,1,2,3,0,23,,,,,,,,,,,,,,,,,,,,
,,,,,23,2020-07-01_13h32.13.922,retriever_ti,2020.1.3,Win32,60,Chrome,1280,720,,,,,,,,,,,,,,,,,3,,,,,,,,,,,,,,,,,,,,,,,,,,,1170.084325,218,right,1.15282,wolf          ,8,1,7,1,3,1170.133165,1170.133165,1172.63497,0,63,63,63,1,218,1,8,slipper     ,wolf          ,html/resources/sequences_IDs/B/08_slipper.jpg,html/resources/sequences_IDs/A/01_wolf.jpg,8,1,3,2,1,1,6,1,0,23,,,,,,,,,,,,,,,,,,,,
,,,,,23,2020-07-01_13h32.13.922,retriever_ti,2020.1.3,Win32,60,Chrome,1280,720,,,,,,,,,,,,,,,,,3,,,,,,,,,,,,,,,,,,,,,,,,,,,1173.249175,219,right,2.04469,scarf         ,6,6,4,1,3,1173.27081,1173.27081,1175.75582,0,64,64,64,1,219,2,6,calculator    ,scarf         ,html/resources/sequences_IDs/A/09_calculator.jpg,html/resources/sequences_IDs/A/06_scarf.jpg,9,6,4,2,3,2,7,5,0,23,,,,,,,,,,,,,,,,,,,,
,,,,,23,2020-07-01_13h32.13.922,retriever_ti,2020.1.3,Win32,60,Chrome,1280,720,,,,,,,,,,,,,,,,,3,,,,,,,,,,,,,,,,,,,,,,,,,,,1176.36402,220,right,1.82847,calculator    ,2,9,-1,0,0,1176.384155,1176.384155,1178.871745,0,65,65,65,1,220,3,2,holdfast    ,calculator    ,html/resources/sequences_IDs/B/04_holdfast.jpg,html/resources/sequences_IDs/A/09_calculator.jpg,4,9,2,1,4,2,3,7,0,23,,,,,,,,,,,,,,,,,,,,
,,,,,23,2020-07-01_13h32.13.922,retriever_ti,2020.1.3,Win32,60,Chrome,1280,720,,,,,,,,,,,,,,,,,3,,,,,,,,,,,,,,,,,,,,,,,,,,,1179.97931,221,left,1.11919,peacock       ,4,5,-3,0,3,1180.004555,1180.004555,1182.50375,0,66,66,66,1,221,4,7,peacock       ,dolphin     ,html/resources/sequences_IDs/A/05_peacock.jpg,html/resources/sequences_IDs/B/02_dolphin.jpg,5,2,2,1,1,1,4,2,0,23,,,,,,,,,,,,,,,,,,,,
