instructionsLoop.thisRepN,instructionsLoop.thisTrialN,instructionsLoop.thisN,instructionsLoop.thisIndex,instructionsLoop.ran,participant,date,expName,psychopyVersion,OS,frameRate,browser,xResolution,yResolution,fix_onset,tprac,practiceKey.keys,practiceKey.rt,pracitem_chosen_name,acc_practice,P1_onsetPrac,P2_onsetPrac,onsetFeedbPrac,practiceTrials.thisRepN,practiceTrials.thisTrialN,practiceTrials.thisN,practiceTrials.thisIndex,practiceTrials.ran,P1,P2,Block,LocItem1,LocItem2,NameItem1,NameItem2,key_respAC_prac.keys,key_respAC_prac.corr,key_respAC_prac.rt,AC_acc,Attentions.thisRepN,Attentions.thisTrialN,Attentions.thisN,Attentions.thisIndex,Attentions.ran,Stim,Loc1,Loc2,Loc3,Loc4,CorrAns,keyDisturbed.keys,keyDisturbed.rt,repPractice.thisRepN,repPractice.thisTrialN,repPractice.thisN,repPractice.thisIndex,repPractice.ran,fixcross_onsetMain,trialNumber,key_resp.keys,key_resp.rt,item_chosen_name,item_chosen_value,item_chosen_ID,diff_chosen_minus_reject,acc_real,acc_feedback,P1_onset,P2_onset,feedb_onset,trials.thisRepN,trials.thisTrialN,trials.thisN,trials.thisIndex,trials.ran,Trial,ValueP1,ValueP2,P1name,P2name,P1Loc,P2Loc,P1id,P2id,Micro_categoryP1,Macro_categoryP1,Micro_categoryP2,Macro_categoryP2,ID_sequenceP1,ID_sequenceP2,InverseFb,pNumber,repBlocks.thisRepN,repBlocks.thisTrialN,repBlocks.thisN,repBlocks.thisIndex,repBlocks.ran,key_respAC.keys,key_respAC.corr,key_respAC.rt,trials_AC.thisRepN,trials_AC.thisTrialN,trials_AC.thisN,trials_AC.thisIndex,trials_AC.ran,Bonus,BonusLoop.thisRepN,BonusLoop.thisTrialN,BonusLoop.thisN,BonusLoop.thisIndex,BonusLoop.ran,comments
0,0,0,0,1,24,2020-07-03_13h08.11.729,retriever_ti,2020.1.3,Win32,60,Chrome,1920,1080,,,,,,,,,,,,,,,,,,,,,,,,,,,,,,,,,,,,,,,,,,,,,,,,,,,,,,,,,,,,,,,,,,,,,,,,,,,,,,,,,,,,,,,,,,,,,,,,,,
1,0,1,0,1,24,2020-07-03_13h08.11.729,retriever_ti,2020.1.3,Win32,60,Chrome,1920,1080,,,,,,,,,,,,,,,,,,,,,,,,,,,,,,,,,,,,,,,,,,,,,,,,,,,,,,,,,,,,,,,,,,,,,,,,,,,,,,,,,,,,,,,,,,,,,,,,,,
2,0,2,0,1,24,2020-07-03_13h08.11.729,retriever_ti,2020.1.3,Win32,60,Chrome,1920,1080,,,,,,,,,,,,,,,,,,,,,,,,,,,,,,,,,,,,,,,,,,,,,,,,,,,,,,,,,,,,,,,,,,,,,,,,,,,,,,,,,,,,,,,,,,,,,,,,,,
3,0,3,0,1,24,2020-07-03_13h08.11.729,retriever_ti,2020.1.3,Win32,60,Chrome,1920,1080,,,,,,,,,,,,,,,,,,,,,,,,,,,,,,,,,,,,,,,,,,,,,,,,,,,,,,,,,,,,,,,,,,,,,,,,,,,,,,,,,,,,,,,,,,,,,,,,,,
4,0,4,0,1,24,2020-07-03_13h08.11.729,retriever_ti,2020.1.3,Win32,60,Chrome,1920,1080,,,,,,,,,,,,,,,,,,,,,,,,,,,,,,,,,,,,,,,,,,,,,,,,,,,,,,,,,,,,,,,,,,,,,,,,,,,,,,,,,,,,,,,,,,,,,,,,,,
5,0,5,0,1,24,2020-07-03_13h08.11.729,retriever_ti,2020.1.3,Win32,60,Chrome,1920,1080,,,,,,,,,,,,,,,,,,,,,,,,,,,,,,,,,,,,,,,,,,,,,,,,,,,,,,,,,,,,,,,,,,,,,,,,,,,,,,,,,,,,,,,,,,,,,,,,,,
6,0,6,0,1,24,2020-07-03_13h08.11.729,retriever_ti,2020.1.3,Win32,60,Chrome,1920,1080,,,,,,,,,,,,,,,,,,,,,,,,,,,,,,,,,,,,,,,,,,,,,,,,,,,,,,,,,,,,,,,,,,,,,,,,,,,,,,,,,,,,,,,,,,,,,,,,,,
7,0,7,0,1,24,2020-07-03_13h08.11.729,retriever_ti,2020.1.3,Win32,60,Chrome,1920,1080,,,,,,,,,,,,,,,,,,,,,,,,,,,,,,,,,,,,,,,,,,,,,,,,,,,,,,,,,,,,,,,,,,,,,,,,,,,,,,,,,,,,,,,,,,,,,,,,,,
8,0,8,0,1,24,2020-07-03_13h08.11.729,retriever_ti,2020.1.3,Win32,60,Chrome,1920,1080,,,,,,,,,,,,,,,,,,,,,,,,,,,,,,,,,,,,,,,,,,,,,,,,,,,,,,,,,,,,,,,,,,,,,,,,,,,,,,,,,,,,,,,,,,,,,,,,,,
9,0,9,0,1,24,2020-07-03_13h08.11.729,retriever_ti,2020.1.3,Win32,60,Chrome,1920,1080,,,,,,,,,,,,,,,,,,,,,,,,,,,,,,,,,,,,,,,,,,,,,,,,,,,,,,,,,,,,,,,,,,,,,,,,,,,,,,,,,,,,,,,,,,,,,,,,,,
10,0,10,0,1,24,2020-07-03_13h08.11.729,retriever_ti,2020.1.3,Win32,60,Chrome,1920,1080,,,,,,,,,,,,,,,,,,,,,,,,,,,,,,,,,,,,,,,,,,,,,,,,,,,,,,,,,,,,,,,,,,,,,,,,,,,,,,,,,,,,,,,,,,,,,,,,,,
11,0,11,0,1,24,2020-07-03_13h08.11.729,retriever_ti,2020.1.3,Win32,60,Chrome,1920,1080,,,,,,,,,,,,,,,,,,,,,,,,,,,,,,,,,,,,,,,,,,,,,,,,,,,,,,,,,,,,,,,,,,,,,,,,,,,,,,,,,,,,,,,,,,,,,,,,,,
12,0,12,0,1,24,2020-07-03_13h08.11.729,retriever_ti,2020.1.3,Win32,60,Chrome,1920,1080,,,,,,,,,,,,,,,,,,,,,,,,,,,,,,,,,,,,,,,,,,,,,,,,,,,,,,,,,,,,,,,,,,,,,,,,,,,,,,,,,,,,,,,,,,,,,,,,,,
13,0,13,0,1,24,2020-07-03_13h08.11.729,retriever_ti,2020.1.3,Win32,60,Chrome,1920,1080,,,,,,,,,,,,,,,,,,,,,,,,,,,,,,,,,,,,,,,,,,,,,,,,,,,,,,,,,,,,,,,,,,,,,,,,,,,,,,,,,,,,,,,,,,,,,,,,,,
14,0,14,0,1,24,2020-07-03_13h08.11.729,retriever_ti,2020.1.3,Win32,60,Chrome,1920,1080,,,,,,,,,,,,,,,,,,,,,,,,,,,,,,,,,,,,,,,,,,,,,,,,,,,,,,,,,,,,,,,,,,,,,,,,,,,,,,,,,,,,,,,,,,,,,,,,,,
,,,,,24,2020-07-03_13h08.11.729,retriever_ti,2020.1.3,Win32,60,Chrome,1920,1080,233.891515,1,right,1.044355,canary,1,233.92319,233.92319,236.422145,0,0,0,0,1,2,5,1,html/resources/stimuli_practice_decision/04_beetle.jpg,html/resources/stimuli_practice_decision/02_canary.jpg,beetle,canary,,,,,,,,,,,,,,,,,,,,,,,,,,,,,,,,,,,,,,,,,,,,,,,,,,,,,,,,,,,,,,,,,,,,,,,,,,,,,
,,,,,24,2020-07-03_13h08.11.729,retriever_ti,2020.1.3,Win32,60,Chrome,1920,1080,236.962395,2,left,1.17571,rabbit,1,236.988655,236.988655,239.487715,0,1,1,1,1,4,3,1,html/resources/stimuli_practice_decision/01_rabbit.jpg,html/resources/stimuli_practice_decision/07_sock.jpg,rabbit,sock,,,,,,,,,,,,,,,,,,,,,,,,,,,,,,,,,,,,,,,,,,,,,,,,,,,,,,,,,,,,,,,,,,,,,,,,,,,,,
,,,,,24,2020-07-03_13h08.11.729,retriever_ti,2020.1.3,Win32,60,Chrome,1920,1080,240.488205,3,right,1.199425,beetle,0,240.505655,240.505655,243.003655,0,2,2,2,1,6,2,1,html/resources/stimuli_practice_decision/06_pullover.jpg,html/resources/stimuli_practice_decision/04_beetle.jpg,pullover,beetle,,,,,,,,,,,,,,,,,,,,,,,,,,,,,,,,,,,,,,,,,,,,,,,,,,,,,,,,,,,,,,,,,,,,,,,,,,,,,
,,,,,24,2020-07-03_13h08.11.729,retriever_ti,2020.1.3,Win32,60,Chrome,1920,1080,243.504775,4,right,1.39528,handmixer,0,243.53828,243.53828,246.036915,0,3,3,3,1,7,1,1,html/resources/stimuli_practice_decision/05_glasses.jpg,html/resources/stimuli_practice_decision/08_handmixer.jpg,glasses,handmixer,,,,,,,,,,,,,,,,,,,,,,,,,,,,,,,,,,,,,,,,,,,,,,,,,,,,,,,,,,,,,,,,,,,,,,,,,,,,,
,,,,,24,2020-07-03_13h08.11.729,retriever_ti,2020.1.3,Win32,60,Chrome,1920,1080,246.553395,5,left,1.482555,glasses,1,246.57118,246.57118,249.069965,0,4,4,4,1,7,6,1,html/resources/stimuli_practice_decision/05_glasses.jpg,html/resources/stimuli_practice_decision/06_pullover.jpg,glasses,pullover,,,,,,,,,,,,,,,,,,,,,,,,,,,,,,,,,,,,,,,,,,,,,,,,,,,,,,,,,,,,,,,,,,,,,,,,,,,,,
,,,,,24,2020-07-03_13h08.11.729,retriever_ti,2020.1.3,Win32,60,Chrome,1920,1080,250.07051,6,left,1.686735,rabbit,0,250.08728,250.08728,252.585825,0,5,5,5,1,4,7,1,html/resources/stimuli_practice_decision/01_rabbit.jpg,html/resources/stimuli_practice_decision/05_glasses.jpg,rabbit,glasses,,,,,,,,,,,,,,,,,,,,,,,,,,,,,,,,,,,,,,,,,,,,,,,,,,,,,,,,,,,,,,,,,,,,,,,,,,,,,
,,,,,24,2020-07-03_13h08.11.729,retriever_ti,2020.1.3,Win32,60,Chrome,1920,1080,253.10295,7,right,1.562795,beetle,1,253.12023,253.12023,255.61874,0,6,6,6,1,1,2,1,html/resources/stimuli_practice_decision/08_handmixer.jpg,html/resources/stimuli_practice_decision/04_beetle.jpg,handmixer,beetle,,,,,,,,,,,,,,,,,,,,,,,,,,,,,,,,,,,,,,,,,,,,,,,,,,,,,,,,,,,,,,,,,,,,,,,,,,,,,
,,,,,24,2020-07-03_13h08.11.729,retriever_ti,2020.1.3,Win32,60,Chrome,1920,1080,256.6191,8,left,0.865705,rabbit,1,256.65302,256.65302,259.15173,0,7,7,7,1,4,3,1,html/resources/stimuli_practice_decision/01_rabbit.jpg,html/resources/stimuli_practice_decision/07_sock.jpg,rabbit,sock,,,,,,,,,,,,,,,,,,,,,,,,,,,,,,,,,,,,,,,,,,,,,,,,,,,,,,,,,,,,,,,,,,,,,,,,,,,,,
,,,,,24,2020-07-03_13h08.11.729,retriever_ti,2020.1.3,Win32,60,Chrome,1920,1080,,,,,,,,,,,,,,,,,,,,,,up,1,3.665145,1,0,0,0,0,1,html/resources/sequences_IDs/circle.png,circle ↑,square →,triangle ↓,← star ,up,,,,,,,,,,,,,,,,,,,,,,,,,,,,,,,,,,,,,,,,,,,,,,,,,,,,,,,,,,,,,,
,,,,,24,2020-07-03_13h08.11.729,retriever_ti,2020.1.3,Win32,60,Chrome,1920,1080,,,,,,,,,,,,,,,,,,,,,,down,1,2.032495,1,0,1,1,1,1,html/resources/sequences_IDs/star.png,square ↑,circle →,star ↓,← triangle,down,,,,,,,,,,,,,,,,,,,,,,,,,,,,,,,,,,,,,,,,,,,,,,,,,,,,,,,,,,,,,,
,,,,,24,2020-07-03_13h08.11.729,retriever_ti,2020.1.3,Win32,60,Chrome,1920,1080,,,,,,,,,,,,,,,,,,,,,,down,1,2.849005,1,0,2,2,3,1,html/resources/sequences_IDs/triangle.png,star ↑,square →,triangle ↓,← circle,down,,,,,,,,,,,,,,,,,,,,,,,,,,,,,,,,,,,,,,,,,,,,,,,,,,,,,,,,,,,,,,
,,,,,24,2020-07-03_13h08.11.729,retriever_ti,2020.1.3,Win32,60,Chrome,1920,1080,,,,,,,,,,,,,,,,,,,,,,left,1,1.51902,1,0,3,3,2,1,html/resources/sequences_IDs/square1.png,star ↑,triangle →,circle ↓,← square,left,,,,,,,,,,,,,,,,,,,,,,,,,,,,,,,,,,,,,,,,,,,,,,,,,,,,,,,,,,,,,,
,,,,,24,2020-07-03_13h08.11.729,retriever_ti,2020.1.3,Win32,60,Chrome,1920,1080,,,,,,,,,,,,,,,,,,,,,,,,,,,,,,,,,,,,,0,9.294705,0,0,0,0,1,,,,,,,,,,,,,,,,,,,,,,,,,,,,,,,,,,,,,,,,,,,,,,,,,,,,,,,
,,,,,24,2020-07-03_13h08.11.729,retriever_ti,2020.1.3,Win32,60,Chrome,1920,1080,285.06237,9,right,1.358465,glasses,1,285.098895,285.098895,287.59762,0,0,0,0,1,6,7,1,html/resources/stimuli_practice_decision/06_pullover.jpg,html/resources/stimuli_practice_decision/05_glasses.jpg,pullover,glasses,,,,,,,,,,,,,,,,,,,,,,,,,,,,,,,,,,,,,,,,,,,,,,,,,,,,,,,,,,,,,,,,,,,,,,,,,,,,,
,,,,,24,2020-07-03_13h08.11.729,retriever_ti,2020.1.3,Win32,60,Chrome,1920,1080,288.59758,10,right,1.048425,beetle,0,288.63182,288.63182,291.13048,0,1,1,1,1,6,2,1,html/resources/stimuli_practice_decision/06_pullover.jpg,html/resources/stimuli_practice_decision/04_beetle.jpg,pullover,beetle,,,,,,,,,,,,,,,,,,,,,,,,,,,,,,,,,,,,,,,,,,,,,,,,,,,,,,,,,,,,,,,,,,,,,,,,,,,,,
,,,,,24,2020-07-03_13h08.11.729,retriever_ti,2020.1.3,Win32,60,Chrome,1920,1080,291.64787,11,left,1.093445,canary,0,291.66437,291.66437,294.16332,0,2,2,2,1,5,6,1,html/resources/stimuli_practice_decision/02_canary.jpg,html/resources/stimuli_practice_decision/06_pullover.jpg,canary,pullover,,,,,,,,,,,,,,,,,,,,,,,,,,,,,,,,,,,,,,,,,,,,,,,,,,,,,,,,,,,,,,,,,,,,,,,,,,,,,
,,,,,24,2020-07-03_13h08.11.729,retriever_ti,2020.1.3,Win32,60,Chrome,1920,1080,295.16367,12,right,1.25826,glasses,0,295.197865,295.197865,297.696205,0,3,3,3,1,8,7,1,html/resources/stimuli_practice_decision/03_squirrel.jpg,html/resources/stimuli_practice_decision/05_glasses.jpg,squirrel,glasses,,,,,,,,,,,,,,,,,,,,,,,,,,,,,,,,,,,,,,,,,,,,,,,,,,,,,,,,,,,,,,,,,,,,,,,,,,,,,
,,,,,24,2020-07-03_13h08.11.729,retriever_ti,2020.1.3,Win32,60,Chrome,1920,1080,298.69658,13,right,1.64804,sock,0,298.713435,298.713435,301.21209,0,4,4,4,1,5,3,1,html/resources/stimuli_practice_decision/02_canary.jpg,html/resources/stimuli_practice_decision/07_sock.jpg,canary,sock,,,,,,,,,,,,,,,,,,,,,,,,,,,,,,,,,,,,,,,,,,,,,,,,,,,,,,,,,,,,,,,,,,,,,,,,,,,,,
,,,,,24,2020-07-03_13h08.11.729,retriever_ti,2020.1.3,Win32,60,Chrome,1920,1080,301.72905,14,right,2.00756,squirrel,1,301.763475,301.763475,304.262025,0,5,5,5,1,7,8,1,html/resources/stimuli_practice_decision/05_glasses.jpg,html/resources/stimuli_practice_decision/03_squirrel.jpg,glasses,squirrel,,,,,,,,,,,,,,,,,,,,,,,,,,,,,,,,,,,,,,,,,,,,,,,,,,,,,,,,,,,,,,,,,,,,,,,,,,,,,
,,,,,24,2020-07-03_13h08.11.729,retriever_ti,2020.1.3,Win32,60,Chrome,1920,1080,305.2627,15,right,0.988925,rabbit,0,305.295775,305.295775,307.79474,0,6,6,6,1,5,4,1,html/resources/stimuli_practice_decision/02_canary.jpg,html/resources/stimuli_practice_decision/01_rabbit.jpg,canary,rabbit,,,,,,,,,,,,,,,,,,,,,,,,,,,,,,,,,,,,,,,,,,,,,,,,,,,,,,,,,,,,,,,,,,,,,,,,,,,,,
,,,,,24,2020-07-03_13h08.11.729,retriever_ti,2020.1.3,Win32,60,Chrome,1920,1080,308.79473,16,right,1.218305,sock,0,308.81204,308.81204,311.311065,0,7,7,7,1,5,3,1,html/resources/stimuli_practice_decision/02_canary.jpg,html/resources/stimuli_practice_decision/07_sock.jpg,canary,sock,,,,,,,,,,,,,,,,,,,,,,,,,,,,,,,,,,,,,,,,,,,,,,,,,,,,,,,,,,,,,,,,,,,,,,,,,,,,,
,,,,,24,2020-07-03_13h08.11.729,retriever_ti,2020.1.3,Win32,60,Chrome,1920,1080,,,,,,,,,,,,,,,,,,,,,,up,1,1.836895,1,0,0,0,0,1,html/resources/sequences_IDs/circle.png,circle ↑,square →,triangle ↓,← star ,up,,,,,,,,,,,,,,,,,,,,,,,,,,,,,,,,,,,,,,,,,,,,,,,,,,,,,,,,,,,,,,
,,,,,24,2020-07-03_13h08.11.729,retriever_ti,2020.1.3,Win32,60,Chrome,1920,1080,,,,,,,,,,,,,,,,,,,,,,down,1,0.983835,1,0,1,1,3,1,html/resources/sequences_IDs/triangle.png,star ↑,square →,triangle ↓,← circle,down,,,,,,,,,,,,,,,,,,,,,,,,,,,,,,,,,,,,,,,,,,,,,,,,,,,,,,,,,,,,,,
,,,,,24,2020-07-03_13h08.11.729,retriever_ti,2020.1.3,Win32,60,Chrome,1920,1080,,,,,,,,,,,,,,,,,,,,,,down,1,1.34117,1,0,2,2,1,1,html/resources/sequences_IDs/star.png,square ↑,circle →,star ↓,← triangle,down,,,,,,,,,,,,,,,,,,,,,,,,,,,,,,,,,,,,,,,,,,,,,,,,,,,,,,,,,,,,,,
,,,,,24,2020-07-03_13h08.11.729,retriever_ti,2020.1.3,Win32,60,Chrome,1920,1080,,,,,,,,,,,,,,,,,,,,,,left,1,0.988485,1,0,3,3,2,1,html/resources/sequences_IDs/square1.png,star ↑,triangle →,circle ↓,← square,left,,,,,,,,,,,,,,,,,,,,,,,,,,,,,,,,,,,,,,,,,,,,,,,,,,,,,,,,,,,,,,
,,,,,24,2020-07-03_13h08.11.729,retriever_ti,2020.1.3,Win32,60,Chrome,1920,1080,,,,,,,,,,,,,,,,,,,,,,,,,,,,,,,,,,,,,0,2.81432,1,0,1,0,1,,,,,,,,,,,,,,,,,,,,,,,,,,,,,,,,,,,,,,,,,,,,,,,,,,,,,,,
,,,,,24,2020-07-03_13h08.11.729,retriever_ti,2020.1.3,Win32,60,Chrome,1920,1080,,,,,,,,,,,,,,,,,1,,,,,,,,,,,,,,,,,,,,,,,,,,,331.157695,1,left,1.006415,peacock       ,6,5,1,1,1,331.17598,331.17598,333.675305,0,0,0,0,1,1,6,5,peacock       ,phone       ,html/resources/sequences_IDs/A/05_peacock.jpg,html/resources/sequences_IDs/B/09_phone.jpg,5,9,2,1,4,2,4,8,0,24,,,,,,,,,,,,,,,,,,,,
,,,,,24,2020-07-03_13h08.11.729,retriever_ti,2020.1.3,Win32,60,Chrome,1920,1080,,,,,,,,,,,,,,,,,1,,,,,,,,,,,,,,,,,,,,,,,,,,,334.77471,2,right,0.828325,giraffe     ,3,3,1,1,1,334.808725,334.808725,337.307285,0,1,1,1,1,2,2,3,hat           ,giraffe     ,html/resources/sequences_IDs/A/08_hat.jpg,html/resources/sequences_IDs/B/03_giraffe.jpg,8,3,3,2,1,1,7,2,0,24,,,,,,,,,,,,,,,,,,,,
,,,,,24,2020-07-03_13h08.11.729,retriever_ti,2020.1.3,Win32,60,Chrome,1920,1080,,,,,,,,,,,,,,,,,1,,,,,,,,,,,,,,,,,,,,,,,,,,,338.40792,3,right,1.210645,sport_tshirt,1,7,-1,0,0,338.4247,338.4247,340.92338,0,2,2,2,1,3,2,1,hat           ,sport_tshirt,html/resources/sequences_IDs/A/08_hat.jpg,html/resources/sequences_IDs/B/07_sport_tshirt.jpg,8,7,3,2,3,2,7,6,0,24,,,,,,,,,,,,,,,,,,,,
,,,,,24,2020-07-03_13h08.11.729,retriever_ti,2020.1.3,Win32,60,Chrome,1920,1080,,,,,,,,,,,,,,,,,1,,,,,,,,,,,,,,,,,,,,,,,,,,,342.023435,4,right,2.09038,hat           ,2,8,1,1,1,342.04122,342.04122,344.53988,0,3,3,3,1,4,1,2,sport_tshirt,hat           ,html/resources/sequences_IDs/B/07_sport_tshirt.jpg,html/resources/sequences_IDs/A/08_hat.jpg,7,8,3,2,3,2,6,7,0,24,,,,,,,,,,,,,,,,,,,,
,,,,,24,2020-07-03_13h08.11.729,retriever_ti,2020.1.3,Win32,60,Chrome,1920,1080,,,,,,,,,,,,,,,,,1,,,,,,,,,,,,,,,,,,,,,,,,,,,345.639995,5,left,0.875605,giraffe     ,3,3,-2,0,3,345.657315,345.657315,348.155605,0,4,4,4,1,5,3,5,giraffe     ,phone       ,html/resources/sequences_IDs/B/03_giraffe.jpg,html/resources/sequences_IDs/B/09_phone.jpg,3,9,1,1,4,2,2,8,0,24,,,,,,,,,,,,,,,,,,,,
,,,,,24,2020-07-03_13h08.11.729,retriever_ti,2020.1.3,Win32,60,Chrome,1920,1080,,,,,,,,,,,,,,,,,1,,,,,,,,,,,,,,,,,,,,,,,,,,,348.75622,6,left,0.87246,wolf          ,4,1,-1,0,0,348.790405,348.790405,351.288785,0,5,5,5,1,6,4,5,wolf          ,phone       ,html/resources/sequences_IDs/A/01_wolf.jpg,html/resources/sequences_IDs/B/09_phone.jpg,1,9,1,1,4,2,1,8,0,24,,,,,,,,,,,,,,,,,,,,
,,,,,24,2020-07-03_13h08.11.729,retriever_ti,2020.1.3,Win32,60,Chrome,1920,1080,,,,,,,,,,,,,,,,,1,,,,,,,,,,,,,,,,,,,,,,,,,,,352.389565,7,left,1.34925,peacock       ,6,5,4,1,3,352.406825,352.406825,354.904955,0,6,6,6,1,7,6,2,peacock       ,hat           ,html/resources/sequences_IDs/A/05_peacock.jpg,html/resources/sequences_IDs/A/08_hat.jpg,5,8,2,1,3,2,4,7,0,24,,,,,,,,,,,,,,,,,,,,
,,,,,24,2020-07-03_13h08.11.729,retriever_ti,2020.1.3,Win32,60,Chrome,1920,1080,,,,,,,,,,,,,,,,,1,,,,,,,,,,,,,,,,,,,,,,,,,,,355.52151,8,right,1.886605,peacock       ,6,5,2,1,3,355.55538,355.55538,358.054145,0,7,7,7,1,8,4,6,wolf          ,peacock       ,html/resources/sequences_IDs/A/01_wolf.jpg,html/resources/sequences_IDs/A/05_peacock.jpg,1,5,1,1,2,1,1,4,0,24,,,,,,,,,,,,,,,,,,,,
,,,,,24,2020-07-03_13h08.11.729,retriever_ti,2020.1.3,Win32,60,Chrome,1920,1080,,,,,,,,,,,,,,,,,1,,,,,,,,,,,,,,,,,,,,,,,,,,,358.65544,9,right,1.36987,holdfast    ,7,4,1,1,0,358.68891,358.68891,361.18709,0,8,8,8,1,9,6,7,peacock       ,holdfast    ,html/resources/sequences_IDs/A/05_peacock.jpg,html/resources/sequences_IDs/B/04_holdfast.jpg,5,4,2,1,2,1,4,3,1,24,,,,,,,,,,,,,,,,,,,,
,,,,,24,2020-07-03_13h08.11.729,retriever_ti,2020.1.3,Win32,60,Chrome,1920,1080,,,,,,,,,,,,,,,,,1,,,,,,,,,,,,,,,,,,,,,,,,,,,362.28771,10,left,0.991795,hat           ,2,8,1,1,1,362.304395,362.304395,364.803585,0,9,9,9,1,10,2,1,hat           ,sport_tshirt,html/resources/sequences_IDs/A/08_hat.jpg,html/resources/sequences_IDs/B/07_sport_tshirt.jpg,8,7,3,2,3,2,7,6,0,24,,,,,,,,,,,,,,,,,,,,
,,,,,24,2020-07-03_13h08.11.729,retriever_ti,2020.1.3,Win32,60,Chrome,1920,1080,,,,,,,,,,,,,,,,,1,,,,,,,,,,,,,,,,,,,,,,,,,,,365.90379,11,right,1.392935,wolf          ,4,1,-3,0,3,365.920815,365.920815,368.4197,0,10,10,10,1,11,7,4,holdfast    ,wolf          ,html/resources/sequences_IDs/B/04_holdfast.jpg,html/resources/sequences_IDs/A/01_wolf.jpg,4,1,2,1,1,1,3,1,0,24,,,,,,,,,,,,,,,,,,,,
,,,,,24,2020-07-03_13h08.11.729,retriever_ti,2020.1.3,Win32,60,Chrome,1920,1080,,,,,,,,,,,,,,,,,1,,,,,,,,,,,,,,,,,,,,,,,,,,,369.036815,12,left,1.192785,phone       ,5,9,1,1,1,369.07076,369.07076,371.568935,0,11,11,11,1,12,5,4,phone       ,wolf          ,html/resources/sequences_IDs/B/09_phone.jpg,html/resources/sequences_IDs/A/01_wolf.jpg,9,1,4,2,1,1,8,1,0,24,,,,,,,,,,,,,,,,,,,,
,,,,,24,2020-07-03_13h08.11.729,retriever_ti,2020.1.3,Win32,60,Chrome,1920,1080,,,,,,,,,,,,,,,,,1,,,,,,,,,,,,,,,,,,,,,,,,,,,372.66951,13,left,0.819825,peacock       ,6,5,-1,0,0,372.70349,372.70349,375.20186,0,12,12,12,1,13,6,7,peacock       ,holdfast    ,html/resources/sequences_IDs/A/05_peacock.jpg,html/resources/sequences_IDs/B/04_holdfast.jpg,5,4,2,1,2,1,4,3,0,24,,,,,,,,,,,,,,,,,,,,
,,,,,24,2020-07-03_13h08.11.729,retriever_ti,2020.1.3,Win32,60,Chrome,1920,1080,,,,,,,,,,,,,,,,,1,,,,,,,,,,,,,,,,,,,,,,,,,,,376.302125,14,left,2.313845,holdfast    ,7,4,1,1,1,376.335855,376.335855,378.83477,0,13,13,13,1,14,7,6,holdfast    ,peacock       ,html/resources/sequences_IDs/B/04_holdfast.jpg,html/resources/sequences_IDs/A/05_peacock.jpg,4,5,2,1,2,1,3,4,0,24,,,,,,,,,,,,,,,,,,,,
,,,,,24,2020-07-03_13h08.11.729,retriever_ti,2020.1.3,Win32,60,Chrome,1920,1080,,,,,,,,,,,,,,,,,1,,,,,,,,,,,,,,,,,,,,,,,,,,,379.9361,15,left,1.57821,wolf          ,4,1,-3,0,3,379.96938,379.96938,382.46751,0,14,14,14,1,15,4,7,wolf          ,holdfast    ,html/resources/sequences_IDs/A/01_wolf.jpg,html/resources/sequences_IDs/B/04_holdfast.jpg,1,4,1,1,2,1,1,3,0,24,,,,,,,,,,,,,,,,,,,,
,,,,,24,2020-07-03_13h08.11.729,retriever_ti,2020.1.3,Win32,60,Chrome,1920,1080,,,,,,,,,,,,,,,,,1,,,,,,,,,,,,,,,,,,,,,,,,,,,383.08568,16,right,0.74833,giraffe     ,3,3,-5,0,3,383.102075,383.102075,385.6006,0,15,15,15,1,16,8,3,scarf         ,giraffe     ,html/resources/sequences_IDs/A/06_scarf.jpg,html/resources/sequences_IDs/B/03_giraffe.jpg,6,3,3,2,1,1,5,2,0,24,,,,,,,,,,,,,,,,,,,,
,,,,,24,2020-07-03_13h08.11.729,retriever_ti,2020.1.3,Win32,60,Chrome,1920,1080,,,,,,,,,,,,,,,,,1,,,,,,,,,,,,,,,,,,,,,,,,,,,386.201805,17,left,0.85816,giraffe     ,3,3,-4,0,3,386.234385,386.234385,388.73318,0,16,16,16,1,17,3,7,giraffe     ,holdfast    ,html/resources/sequences_IDs/B/03_giraffe.jpg,html/resources/sequences_IDs/B/04_holdfast.jpg,3,4,1,1,2,1,2,3,0,24,,,,,,,,,,,,,,,,,,,,
,,,,,24,2020-07-03_13h08.11.729,retriever_ti,2020.1.3,Win32,60,Chrome,1920,1080,,,,,,,,,,,,,,,,,1,,,,,,,,,,,,,,,,,,,,,,,,,,,389.333875,18,left,1.08734,peacock       ,6,5,5,1,3,389.368025,389.368025,391.866115,0,17,17,17,1,18,6,1,peacock       ,sport_tshirt,html/resources/sequences_IDs/A/05_peacock.jpg,html/resources/sequences_IDs/B/07_sport_tshirt.jpg,5,7,2,1,3,2,4,6,0,24,,,,,,,,,,,,,,,,,,,,
,,,,,24,2020-07-03_13h08.11.729,retriever_ti,2020.1.3,Win32,60,Chrome,1920,1080,,,,,,,,,,,,,,,,,1,,,,,,,,,,,,,,,,,,,,,,,,,,,392.4834,19,right,1.253105,peacock       ,6,5,1,1,1,392.51709,392.51709,395.01564,0,18,18,18,1,19,5,6,phone       ,peacock       ,html/resources/sequences_IDs/B/09_phone.jpg,html/resources/sequences_IDs/A/05_peacock.jpg,9,5,4,2,2,1,8,4,0,24,,,,,,,,,,,,,,,,,,,,
,,,,,24,2020-07-03_13h08.11.729,retriever_ti,2020.1.3,Win32,60,Chrome,1920,1080,,,,,,,,,,,,,,,,,1,,,,,,,,,,,,,,,,,,,,,,,,,,,396.115885,20,left,0.81995,hat           ,2,8,-5,0,3,396.13362,396.13362,398.63207,0,19,19,19,1,20,2,7,hat           ,holdfast    ,html/resources/sequences_IDs/A/08_hat.jpg,html/resources/sequences_IDs/B/04_holdfast.jpg,8,4,3,2,2,1,7,3,0,24,,,,,,,,,,,,,,,,,,,,
,,,,,24,2020-07-03_13h08.11.729,retriever_ti,2020.1.3,Win32,60,Chrome,1920,1080,,,,,,,,,,,,,,,,,1,,,,,,,,,,,,,,,,,,,,,,,,,,,399.249095,21,left,0.700285,hat           ,2,8,1,1,0,399.28316,399.28316,401.78172,0,20,20,20,1,21,2,1,hat           ,sport_tshirt,html/resources/sequences_IDs/A/08_hat.jpg,html/resources/sequences_IDs/B/07_sport_tshirt.jpg,8,7,3,2,3,2,7,6,1,24,,,,,,,,,,,,,,,,,,,,
,,,,,24,2020-07-03_13h08.11.729,retriever_ti,2020.1.3,Win32,60,Chrome,1920,1080,,,,,,,,,,,,,,,,,1,,,,,,,,,,,,,,,,,,,,,,,,,,,402.88205,22,left,1.37524,giraffe     ,3,3,2,1,3,402.91541,402.91541,405.41457,0,21,21,21,1,22,3,1,giraffe     ,sport_tshirt,html/resources/sequences_IDs/B/03_giraffe.jpg,html/resources/sequences_IDs/B/07_sport_tshirt.jpg,3,7,1,1,3,2,2,6,0,24,,,,,,,,,,,,,,,,,,,,
,,,,,24,2020-07-03_13h08.11.729,retriever_ti,2020.1.3,Win32,60,Chrome,1920,1080,,,,,,,,,,,,,,,,,1,,,,,,,,,,,,,,,,,,,,,,,,,,,406.03161,23,right,1.72176,giraffe     ,3,3,-1,0,0,406.06495,406.06495,408.564205,0,22,22,22,1,23,4,3,wolf          ,giraffe     ,html/resources/sequences_IDs/A/01_wolf.jpg,html/resources/sequences_IDs/B/03_giraffe.jpg,1,3,1,1,1,1,1,2,0,24,,,,,,,,,,,,,,,,,,,,
,,,,,24,2020-07-03_13h08.11.729,retriever_ti,2020.1.3,Win32,60,Chrome,1920,1080,,,,,,,,,,,,,,,,,1,,,,,,,,,,,,,,,,,,,,,,,,,,,409.663935,24,left,1.092275,wolf          ,4,1,-4,0,3,409.698425,409.698425,412.19665,0,23,23,23,1,24,4,8,wolf          ,scarf         ,html/resources/sequences_IDs/A/01_wolf.jpg,html/resources/sequences_IDs/A/06_scarf.jpg,1,6,1,1,3,2,1,5,0,24,,,,,,,,,,,,,,,,,,,,
,,,,,24,2020-07-03_13h08.11.729,retriever_ti,2020.1.3,Win32,60,Chrome,1920,1080,,,,,,,,,,,,,,,,,1,,,,,,,,,,,,,,,,,,,,,,,,,,,412.81397,25,right,1.376165,sport_tshirt,1,7,-7,0,3,412.84786,412.84786,415.346245,0,24,24,24,1,25,8,1,scarf         ,sport_tshirt,html/resources/sequences_IDs/A/06_scarf.jpg,html/resources/sequences_IDs/B/07_sport_tshirt.jpg,6,7,3,2,3,2,5,6,0,24,,,,,,,,,,,,,,,,,,,,
,,,,,24,2020-07-03_13h08.11.729,retriever_ti,2020.1.3,Win32,60,Chrome,1920,1080,,,,,,,,,,,,,,,,,1,,,,,,,,,,,,,,,,,,,,,,,,,,,415.96352,26,left,1.371405,giraffe     ,3,3,1,1,1,415.997615,415.997615,418.49597,0,25,25,25,1,26,3,2,giraffe     ,hat           ,html/resources/sequences_IDs/B/03_giraffe.jpg,html/resources/sequences_IDs/A/08_hat.jpg,3,8,1,1,3,2,2,7,0,24,,,,,,,,,,,,,,,,,,,,
,,,,,24,2020-07-03_13h08.11.729,retriever_ti,2020.1.3,Win32,60,Chrome,1920,1080,,,,,,,,,,,,,,,,,1,,,,,,,,,,,,,,,,,,,,,,,,,,,419.596685,27,left,1.579525,phone       ,5,9,-1,0,1,419.613725,419.613725,422.11208,0,26,26,26,1,27,5,6,phone       ,peacock       ,html/resources/sequences_IDs/B/09_phone.jpg,html/resources/sequences_IDs/A/05_peacock.jpg,9,5,4,2,2,1,8,4,1,24,,,,,,,,,,,,,,,,,,,,
,,,,,24,2020-07-03_13h08.11.729,retriever_ti,2020.1.3,Win32,60,Chrome,1920,1080,,,,,,,,,,,,,,,,,1,,,,,,,,,,,,,,,,,,,,,,,,,,,423.212565,28,right,0.862395,peacock       ,6,5,-2,0,3,423.246475,423.246475,425.744945,0,27,27,27,1,28,8,6,scarf         ,peacock       ,html/resources/sequences_IDs/A/06_scarf.jpg,html/resources/sequences_IDs/A/05_peacock.jpg,6,5,3,2,2,1,5,4,0,24,,,,,,,,,,,,,,,,,,,,
,,,,,24,2020-07-03_13h08.11.729,retriever_ti,2020.1.3,Win32,60,Chrome,1920,1080,,,,,,,,,,,,,,,,,1,,,,,,,,,,,,,,,,,,,,,,,,,,,426.362345,29,right,1.7385,sport_tshirt,1,7,-3,0,3,426.37885,426.37885,428.877755,0,28,28,28,1,29,4,1,wolf          ,sport_tshirt,html/resources/sequences_IDs/A/01_wolf.jpg,html/resources/sequences_IDs/B/07_sport_tshirt.jpg,1,7,1,1,3,2,1,6,0,24,,,,,,,,,,,,,,,,,,,,
,,,,,24,2020-07-03_13h08.11.729,retriever_ti,2020.1.3,Win32,60,Chrome,1920,1080,,,,,,,,,,,,,,,,,1,,,,,,,,,,,,,,,,,,,,,,,,,,,429.49459,30,left,0.894955,giraffe     ,3,3,1,1,1,429.511785,429.511785,432.010805,0,29,29,29,1,30,3,2,giraffe     ,hat           ,html/resources/sequences_IDs/B/03_giraffe.jpg,html/resources/sequences_IDs/A/08_hat.jpg,3,8,1,1,3,2,2,7,0,24,,,,,,,,,,,,,,,,,,,,
,,,,,24,2020-07-03_13h08.11.729,retriever_ti,2020.1.3,Win32,60,Chrome,1920,1080,,,,,,,,,,,,,,,,,1,,,,,,,,,,,,,,,,,,,,,,,,,,,433.111055,31,left,0.873995,holdfast    ,7,4,-1,0,0,433.145135,433.145135,435.64361,0,30,30,30,1,31,7,8,holdfast    ,scarf         ,html/resources/sequences_IDs/B/04_holdfast.jpg,html/resources/sequences_IDs/A/06_scarf.jpg,4,6,2,1,3,2,3,5,0,24,,,,,,,,,,,,,,,,,,,,
,,,,,24,2020-07-03_13h08.11.729,retriever_ti,2020.1.3,Win32,60,Chrome,1920,1080,,,,,,,,,,,,,,,,,1,,,,,,,,,,,,,,,,,,,,,,,,,,,436.74394,32,left,1.124195,giraffe     ,3,3,-5,0,3,436.77851,436.77851,439.27624,0,31,31,31,1,32,3,8,giraffe     ,scarf         ,html/resources/sequences_IDs/B/03_giraffe.jpg,html/resources/sequences_IDs/A/06_scarf.jpg,3,6,1,1,3,2,2,5,0,24,,,,,,,,,,,,,,,,,,,,
,,,,,24,2020-07-03_13h08.11.729,retriever_ti,2020.1.3,Win32,60,Chrome,1920,1080,,,,,,,,,,,,,,,,,1,,,,,,,,,,,,,,,,,,,,,,,,,,,439.89383,33,left,0.782725,peacock       ,6,5,-2,0,3,439.910785,439.910785,442.409065,0,32,32,32,1,33,6,8,peacock       ,scarf         ,html/resources/sequences_IDs/A/05_peacock.jpg,html/resources/sequences_IDs/A/06_scarf.jpg,5,6,2,1,3,2,4,5,0,24,,,,,,,,,,,,,,,,,,,,
,,,,,24,2020-07-03_13h08.11.729,retriever_ti,2020.1.3,Win32,60,Chrome,1920,1080,,,,,,,,,,,,,,,,,1,,,,,,,,,,,,,,,,,,,,,,,,,,,443.02613,34,left,0.754265,phone       ,5,9,1,1,1,443.06044,443.06044,445.559015,0,33,33,33,1,34,5,4,phone       ,wolf          ,html/resources/sequences_IDs/B/09_phone.jpg,html/resources/sequences_IDs/A/01_wolf.jpg,9,1,4,2,1,1,8,1,0,24,,,,,,,,,,,,,,,,,,,,
,,,,,24,2020-07-03_13h08.11.729,retriever_ti,2020.1.3,Win32,60,Chrome,1920,1080,,,,,,,,,,,,,,,,,1,,,,,,,,,,,,,,,,,,,,,,,,,,,446.66003,35,left,0.934355,phone       ,5,9,4,1,3,446.692715,446.692715,449.191715,0,34,34,34,1,35,5,1,phone       ,sport_tshirt,html/resources/sequences_IDs/B/09_phone.jpg,html/resources/sequences_IDs/B/07_sport_tshirt.jpg,9,7,4,2,3,2,8,6,0,24,,,,,,,,,,,,,,,,,,,,
,,,,,24,2020-07-03_13h08.11.729,retriever_ti,2020.1.3,Win32,60,Chrome,1920,1080,,,,,,,,,,,,,,,,,1,,,,,,,,,,,,,,,,,,,,,,,,,,,449.80849,36,right,1.66658,peacock       ,6,5,1,1,1,449.842875,449.842875,452.341015,0,35,35,35,1,36,5,6,phone       ,peacock       ,html/resources/sequences_IDs/B/09_phone.jpg,html/resources/sequences_IDs/A/05_peacock.jpg,9,5,4,2,2,1,8,4,0,24,,,,,,,,,,,,,,,,,,,,
,,,,,24,2020-07-03_13h08.11.729,retriever_ti,2020.1.3,Win32,60,Chrome,1920,1080,,,,,,,,,,,,,,,,,1,,,,,,,,,,,,,,,,,,,,,,,,,,,453.44152,37,right,0.80964,phone       ,5,9,1,1,1,453.459015,453.459015,455.95741,0,36,36,36,1,37,4,5,wolf          ,phone       ,html/resources/sequences_IDs/A/01_wolf.jpg,html/resources/sequences_IDs/B/09_phone.jpg,1,9,1,1,4,2,1,8,0,24,,,,,,,,,,,,,,,,,,,,
,,,,,24,2020-07-03_13h08.11.729,retriever_ti,2020.1.3,Win32,60,Chrome,1920,1080,,,,,,,,,,,,,,,,,1,,,,,,,,,,,,,,,,,,,,,,,,,,,457.057755,38,left,1.118605,phone       ,5,9,3,1,3,457.07499,457.07499,459.57336,0,37,37,37,1,38,5,2,phone       ,hat           ,html/resources/sequences_IDs/B/09_phone.jpg,html/resources/sequences_IDs/A/08_hat.jpg,9,8,4,2,3,2,8,7,0,24,,,,,,,,,,,,,,,,,,,,
,,,,,24,2020-07-03_13h08.11.729,retriever_ti,2020.1.3,Win32,60,Chrome,1920,1080,,,,,,,,,,,,,,,,,1,,,,,,,,,,,,,,,,,,,,,,,,,,,460.19074,39,left,1.281405,holdfast    ,7,4,5,1,3,460.207925,460.207925,462.706545,0,38,38,38,1,39,7,2,holdfast    ,hat           ,html/resources/sequences_IDs/B/04_holdfast.jpg,html/resources/sequences_IDs/A/08_hat.jpg,4,8,2,1,3,2,3,7,0,24,,,,,,,,,,,,,,,,,,,,
,,,,,24,2020-07-03_13h08.11.729,retriever_ti,2020.1.3,Win32,60,Chrome,1920,1080,,,,,,,,,,,,,,,,,1,,,,,,,,,,,,,,,,,,,,,,,,,,,463.32318,40,left,1.13436,sport_tshirt,1,7,-6,0,3,463.35718,463.35718,465.85597,0,39,39,39,1,40,1,7,sport_tshirt,holdfast    ,html/resources/sequences_IDs/B/07_sport_tshirt.jpg,html/resources/sequences_IDs/B/04_holdfast.jpg,7,4,3,2,2,1,6,3,0,24,,,,,,,,,,,,,,,,,,,,
,,,,,24,2020-07-03_13h08.11.729,retriever_ti,2020.1.3,Win32,60,Chrome,1920,1080,,,,,,,,,,,,,,,,,1,,,,,,,,,,,,,,,,,,,,,,,,,,,466.47367,41,left,0.909205,phone       ,5,9,1,1,0,466.49069,466.49069,468.98884,0,40,40,40,1,41,5,4,phone       ,wolf          ,html/resources/sequences_IDs/B/09_phone.jpg,html/resources/sequences_IDs/A/01_wolf.jpg,9,1,4,2,1,1,8,1,1,24,,,,,,,,,,,,,,,,,,,,
,,,,,24,2020-07-03_13h08.11.729,retriever_ti,2020.1.3,Win32,60,Chrome,1920,1080,,,,,,,,,,,,,,,,,1,,,,,,,,,,,,,,,,,,,,,,,,,,,470.08923,42,right,1.032875,giraffe     ,3,3,2,1,3,470.10613,470.10613,472.60503,0,41,41,41,1,42,1,3,sport_tshirt,giraffe     ,html/resources/sequences_IDs/B/07_sport_tshirt.jpg,html/resources/sequences_IDs/B/03_giraffe.jpg,7,3,3,2,1,1,6,2,0,24,,,,,,,,,,,,,,,,,,,,
,,,,,24,2020-07-03_13h08.11.729,retriever_ti,2020.1.3,Win32,60,Chrome,1920,1080,,,,,,,,,,,,,,,,,1,,,,,,,,,,,,,,,,,,,,,,,,,,,473.222145,43,right,1.08381,giraffe     ,3,3,-4,0,3,473.25617,473.25617,475.75461,0,42,42,42,1,43,7,3,holdfast    ,giraffe     ,html/resources/sequences_IDs/B/04_holdfast.jpg,html/resources/sequences_IDs/B/03_giraffe.jpg,4,3,2,1,1,1,3,2,0,24,,,,,,,,,,,,,,,,,,,,
,,,,,24,2020-07-03_13h08.11.729,retriever_ti,2020.1.3,Win32,60,Chrome,1920,1080,,,,,,,,,,,,,,,,,1,,,,,,,,,,,,,,,,,,,,,,,,,,,476.371825,44,left,1.723475,scarf         ,8,6,1,1,1,476.405275,476.405275,478.904265,0,43,43,43,1,44,8,7,scarf         ,holdfast    ,html/resources/sequences_IDs/A/06_scarf.jpg,html/resources/sequences_IDs/B/04_holdfast.jpg,6,4,3,2,2,1,5,3,0,24,,,,,,,,,,,,,,,,,,,,
,,,,,24,2020-07-03_13h08.11.729,retriever_ti,2020.1.3,Win32,60,Chrome,1920,1080,,,,,,,,,,,,,,,,,1,,,,,,,,,,,,,,,,,,,,,,,,,,,480.00453,45,left,0.8666,giraffe     ,3,3,-1,0,0,480.021365,480.021365,482.520395,0,44,44,44,1,45,3,4,giraffe     ,wolf          ,html/resources/sequences_IDs/B/03_giraffe.jpg,html/resources/sequences_IDs/A/01_wolf.jpg,3,1,1,1,1,1,2,1,0,24,,,,,,,,,,,,,,,,,,,,
,,,,,24,2020-07-03_13h08.11.729,retriever_ti,2020.1.3,Win32,60,Chrome,1920,1080,,,,,,,,,,,,,,,,,1,,,,,,,,,,,,,,,,,,,,,,,,,,,483.620365,46,right,1.30034,hat           ,2,8,-2,0,3,483.6542,483.6542,486.153285,0,45,45,45,1,46,4,2,wolf          ,hat           ,html/resources/sequences_IDs/A/01_wolf.jpg,html/resources/sequences_IDs/A/08_hat.jpg,1,8,1,1,3,2,1,7,0,24,,,,,,,,,,,,,,,,,,,,
,,,,,24,2020-07-03_13h08.11.729,retriever_ti,2020.1.3,Win32,60,Chrome,1920,1080,,,,,,,,,,,,,,,,,1,,,,,,,,,,,,,,,,,,,,,,,,,,,486.770845,47,left,1.12065,scarf         ,8,6,6,1,3,486.804295,486.804295,489.302815,0,46,46,46,1,47,8,2,scarf         ,hat           ,html/resources/sequences_IDs/A/06_scarf.jpg,html/resources/sequences_IDs/A/08_hat.jpg,6,8,3,2,3,2,5,7,0,24,,,,,,,,,,,,,,,,,,,,
,,,,,24,2020-07-03_13h08.11.729,retriever_ti,2020.1.3,Win32,60,Chrome,1920,1080,,,,,,,,,,,,,,,,,1,,,,,,,,,,,,,,,,,,,,,,,,,,,489.919585,48,left,1.080495,scarf         ,8,6,1,1,0,489.95318,489.95318,492.452285,0,47,47,47,1,48,8,7,scarf         ,holdfast    ,html/resources/sequences_IDs/A/06_scarf.jpg,html/resources/sequences_IDs/B/04_holdfast.jpg,6,4,3,2,2,1,5,3,1,24,,,,,,,,,,,,,,,,,,,,
,,,,,24,2020-07-03_13h08.11.729,retriever_ti,2020.1.3,Win32,60,Chrome,1920,1080,,,,,,,,,,,,,,,,,1,,,,,,,,,,,,,,,,,,,,,,,,,,,493.552685,49,right,0.746445,phone       ,5,9,-2,0,3,493.586705,493.586705,496.08497,0,48,48,48,1,49,7,5,holdfast    ,phone       ,html/resources/sequences_IDs/B/04_holdfast.jpg,html/resources/sequences_IDs/B/09_phone.jpg,4,9,2,1,4,2,3,8,0,24,,,,,,,,,,,,,,,,,,,,
,,,,,24,2020-07-03_13h08.11.729,retriever_ti,2020.1.3,Win32,60,Chrome,1920,1080,,,,,,,,,,,,,,,,,1,,,,,,,,,,,,,,,,,,,,,,,,,,,496.702005,50,left,1.37453,giraffe     ,3,3,-1,0,0,496.719515,496.719515,499.218075,0,49,49,49,1,50,3,4,giraffe     ,wolf          ,html/resources/sequences_IDs/B/03_giraffe.jpg,html/resources/sequences_IDs/A/01_wolf.jpg,3,1,1,1,1,1,2,1,0,24,,,,,,,,,,,,,,,,,,,,
,,,,,24,2020-07-03_13h08.11.729,retriever_ti,2020.1.3,Win32,60,Chrome,1920,1080,,,,,,,,,,,,,,,,,1,,,,,,,,,,,,,,,,,,,,,,,,,,,500.318815,51,right,0.933985,scarf         ,8,6,7,1,3,500.335715,500.335715,502.834165,0,50,50,50,1,51,1,8,sport_tshirt,scarf         ,html/resources/sequences_IDs/B/07_sport_tshirt.jpg,html/resources/sequences_IDs/A/06_scarf.jpg,7,6,3,2,3,2,6,5,0,24,,,,,,,,,,,,,,,,,,,,
,,,,,24,2020-07-03_13h08.11.729,retriever_ti,2020.1.3,Win32,60,Chrome,1920,1080,,,,,,,,,,,,,,,,,1,,,,,,,,,,,,,,,,,,,,,,,,,,,503.45098,52,left,0.995295,scarf         ,8,6,1,1,1,503.46827,503.46827,505.96731,0,51,51,51,1,52,8,7,scarf         ,holdfast    ,html/resources/sequences_IDs/A/06_scarf.jpg,html/resources/sequences_IDs/B/04_holdfast.jpg,6,4,3,2,2,1,5,3,0,24,,,,,,,,,,,,,,,,,,,,
,,,,,24,2020-07-03_13h08.11.729,retriever_ti,2020.1.3,Win32,60,Chrome,1920,1080,,,,,,,,,,,,,,,,,1,,,,,,,,,,,,,,,,,,,,,,,,,,,507.06759,53,left,1.0275,phone       ,5,9,-2,0,3,507.101485,507.101485,509.599995,0,52,52,52,1,53,5,7,phone       ,holdfast    ,html/resources/sequences_IDs/B/09_phone.jpg,html/resources/sequences_IDs/B/04_holdfast.jpg,9,4,4,2,2,1,8,3,0,24,,,,,,,,,,,,,,,,,,,,
,,,,,24,2020-07-03_13h08.11.729,retriever_ti,2020.1.3,Win32,60,Chrome,1920,1080,,,,,,,,,,,,,,,,,1,,,,,,,,,,,,,,,,,,,,,,,,,,,510.21691,54,right,0.958955,scarf         ,8,6,1,1,1,510.23372,510.23372,512.73278,0,53,53,53,1,54,7,8,holdfast    ,scarf         ,html/resources/sequences_IDs/B/04_holdfast.jpg,html/resources/sequences_IDs/A/06_scarf.jpg,4,6,2,1,3,2,3,5,0,24,,,,,,,,,,,,,,,,,,,,
,,,,,24,2020-07-03_13h08.11.729,retriever_ti,2020.1.3,Win32,60,Chrome,1920,1080,,,,,,,,,,,,,,,,,1,,,,,,,,,,,,,,,,,,,,,,,,,,,513.83361,55,right,1.200245,hat           ,2,8,1,1,1,513.867595,513.867595,516.36575,0,54,54,54,1,55,1,2,sport_tshirt,hat           ,html/resources/sequences_IDs/B/07_sport_tshirt.jpg,html/resources/sequences_IDs/A/08_hat.jpg,7,8,3,2,3,2,6,7,0,24,,,,,,,,,,,,,,,,,,,,
,,,,,24,2020-07-03_13h08.11.729,retriever_ti,2020.1.3,Win32,60,Chrome,1920,1080,,,,,,,,,,,,,,,,,1,,,,,,,,,,,,,,,,,,,,,,,,,,,517.466045,56,left,1.01733,giraffe     ,3,3,-1,0,1,517.483295,517.483295,519.981905,0,55,55,55,1,56,3,4,giraffe     ,wolf          ,html/resources/sequences_IDs/B/03_giraffe.jpg,html/resources/sequences_IDs/A/01_wolf.jpg,3,1,1,1,1,1,2,1,1,24,,,,,,,,,,,,,,,,,,,,
,,,,,24,2020-07-03_13h08.11.729,retriever_ti,2020.1.3,Win32,60,Chrome,1920,1080,,,,,,,,,,,,,,,,,1,,,,,,,,,,,,,,,,,,,,,,,,,,,521.082515,57,right,1.064625,peacock       ,6,5,4,1,3,521.099525,521.099525,523.598025,0,56,56,56,1,57,2,6,hat           ,peacock       ,html/resources/sequences_IDs/A/08_hat.jpg,html/resources/sequences_IDs/A/05_peacock.jpg,8,5,3,2,2,1,7,4,0,24,,,,,,,,,,,,,,,,,,,,
,,,,,24,2020-07-03_13h08.11.729,retriever_ti,2020.1.3,Win32,60,Chrome,1920,1080,,,,,,,,,,,,,,,,,1,,,,,,,,,,,,,,,,,,,,,,,,,,,524.21519,58,left,1.326745,sport_tshirt,1,7,-3,0,3,524.248995,524.248995,526.747295,0,57,57,57,1,58,1,4,sport_tshirt,wolf          ,html/resources/sequences_IDs/B/07_sport_tshirt.jpg,html/resources/sequences_IDs/A/01_wolf.jpg,7,1,3,2,1,1,6,1,0,24,,,,,,,,,,,,,,,,,,,,
,,,,,24,2020-07-03_13h08.11.729,retriever_ti,2020.1.3,Win32,60,Chrome,1920,1080,,,,,,,,,,,,,,,,,1,,,,,,,,,,,,,,,,,,,,,,,,,,,527.36505,59,right,0.990945,phone       ,5,9,4,1,3,527.398645,527.398645,529.89721,0,58,58,58,1,59,1,5,sport_tshirt,phone       ,html/resources/sequences_IDs/B/07_sport_tshirt.jpg,html/resources/sequences_IDs/B/09_phone.jpg,7,9,3,2,4,2,6,8,0,24,,,,,,,,,,,,,,,,,,,,
,,,,,24,2020-07-03_13h08.11.729,retriever_ti,2020.1.3,Win32,60,Chrome,1920,1080,,,,,,,,,,,,,,,,,1,,,,,,,,,,,,,,,,,,,,,,,,,,,530.513775,60,right,1.418185,scarf         ,8,6,3,1,3,530.53158,530.53158,533.02979,0,59,59,59,1,60,5,8,phone       ,scarf         ,html/resources/sequences_IDs/B/09_phone.jpg,html/resources/sequences_IDs/A/06_scarf.jpg,9,6,4,2,3,2,8,5,0,24,,,,,,,,,,,,,,,,,,,,
,,,,,24,2020-07-03_13h08.11.729,retriever_ti,2020.1.3,Win32,60,Chrome,1920,1080,,,,,,,,,,,,,,,,,1,,,,,,,,,,,,,,,,,,,,,,,,,,,533.64758,61,right,1.434865,giraffe     ,3,3,1,1,0,533.663905,533.663905,536.16261,0,60,60,60,1,61,2,3,hat           ,giraffe     ,html/resources/sequences_IDs/A/08_hat.jpg,html/resources/sequences_IDs/B/03_giraffe.jpg,8,3,3,2,1,1,7,2,1,24,,,,,,,,,,,,,,,,,,,,
,,,,,24,2020-07-03_13h08.11.729,retriever_ti,2020.1.3,Win32,60,Chrome,1920,1080,,,,,,,,,,,,,,,,,1,,,,,,,,,,,,,,,,,,,,,,,,,,,537.263275,62,left,0.809775,scarf         ,8,6,3,1,3,537.29729,537.29729,539.79557,0,61,61,61,1,62,8,5,scarf         ,phone       ,html/resources/sequences_IDs/A/06_scarf.jpg,html/resources/sequences_IDs/B/09_phone.jpg,6,9,3,2,4,2,5,8,0,24,,,,,,,,,,,,,,,,,,,,
,,,,,24,2020-07-03_13h08.11.729,retriever_ti,2020.1.3,Win32,60,Chrome,1920,1080,,,,,,,,,,,,,,,,,1,,,,,,,,,,,,,,,,,,,,,,,,,,,540.413235,63,left,1.48874,holdfast    ,7,4,6,1,3,540.429665,540.429665,542.928335,0,62,62,62,1,63,7,1,holdfast    ,sport_tshirt,html/resources/sequences_IDs/B/04_holdfast.jpg,html/resources/sequences_IDs/B/07_sport_tshirt.jpg,4,7,2,1,3,2,3,6,0,24,,,,,,,,,,,,,,,,,,,,
,,,,,24,2020-07-03_13h08.11.729,retriever_ti,2020.1.3,Win32,60,Chrome,1920,1080,,,,,,,,,,,,,,,,,1,,,,,,,,,,,,,,,,,,,,,,,,,,,543.54573,64,right,1.20363,scarf         ,8,6,6,1,3,543.562985,543.562985,546.061625,0,63,63,63,1,64,2,8,hat           ,scarf         ,html/resources/sequences_IDs/A/08_hat.jpg,html/resources/sequences_IDs/A/06_scarf.jpg,8,6,3,2,3,2,7,5,0,24,,,,,,,,,,,,,,,,,,,,
,,,,,24,2020-07-03_13h08.11.729,retriever_ti,2020.1.3,Win32,60,Chrome,1920,1080,,,,,,,,,,,,,,,,,1,,,,,,,,,,,,,,,,,,,,,,,,,,,546.678585,65,left,0.858395,peacock       ,6,5,-1,0,0,546.71197,546.71197,549.21113,0,64,64,64,1,65,6,7,peacock       ,holdfast    ,html/resources/sequences_IDs/A/05_peacock.jpg,html/resources/sequences_IDs/B/04_holdfast.jpg,5,4,2,1,2,1,4,3,0,24,,,,,,,,,,,,,,,,,,,,
,,,,,24,2020-07-03_13h08.11.729,retriever_ti,2020.1.3,Win32,60,Chrome,1920,1080,,,,,,,,,,,,,,,,,1,,,,,,,,,,,,,,,,,,,,,,,,,,,550.311395,66,right,0.94094,giraffe     ,3,3,-1,0,0,550.345475,550.345475,552.84389,0,65,65,65,1,66,4,3,wolf          ,giraffe     ,html/resources/sequences_IDs/A/01_wolf.jpg,html/resources/sequences_IDs/B/03_giraffe.jpg,1,3,1,1,1,1,1,2,0,24,,,,,,,,,,,,,,,,,,,,
,,,,,24,2020-07-03_13h08.11.729,retriever_ti,2020.1.3,Win32,60,Chrome,1920,1080,,,,,,,,,,,,,,,,,1,,,,,,,,,,,,,,,,,,,,,,,,,,,553.94442,67,left,0.93032,peacock       ,6,5,3,1,3,553.977855,553.977855,556.47682,0,66,66,66,1,67,6,3,peacock       ,giraffe     ,html/resources/sequences_IDs/A/05_peacock.jpg,html/resources/sequences_IDs/B/03_giraffe.jpg,5,3,2,1,1,1,4,2,0,24,,,,,,,,,,,,,,,,,,,,
,,,,,24,2020-07-03_13h08.11.729,retriever_ti,2020.1.3,Win32,60,Chrome,1920,1080,,,,,,,,,,,,,,,,,1,,,,,,,,,,,,,,,,,,,,,,,,,,,557.09371,68,right,1.252275,phone       ,5,9,3,1,3,557.12716,557.12716,559.625995,0,67,67,67,1,68,2,5,hat           ,phone       ,html/resources/sequences_IDs/A/08_hat.jpg,html/resources/sequences_IDs/B/09_phone.jpg,8,9,3,2,4,2,7,8,0,24,,,,,,,,,,,,,,,,,,,,
,,,,,24,2020-07-03_13h08.11.729,retriever_ti,2020.1.3,Win32,60,Chrome,1920,1080,,,,,,,,,,,,,,,,,1,,,,,,,,,,,,,,,,,,,,,,,,,,,560.227105,69,left,0.963335,scarf         ,8,6,4,1,3,560.260615,560.260615,562.75889,0,68,68,68,1,69,8,4,scarf         ,wolf          ,html/resources/sequences_IDs/A/06_scarf.jpg,html/resources/sequences_IDs/A/01_wolf.jpg,6,1,3,2,1,1,5,1,0,24,,,,,,,,,,,,,,,,,,,,
,,,,,24,2020-07-03_13h08.11.729,retriever_ti,2020.1.3,Win32,60,Chrome,1920,1080,,,,,,,,,,,,,,,,,1,,,,,,,,,,,,,,,,,,,,,,,,,,,563.37584,70,right,1.3829,wolf          ,4,1,2,1,3,563.393065,563.393065,565.891905,0,69,69,69,1,70,2,4,hat           ,wolf          ,html/resources/sequences_IDs/A/08_hat.jpg,html/resources/sequences_IDs/A/01_wolf.jpg,8,1,3,2,1,1,7,1,0,24,,,,,,,,,,,,,,,,,,,,
,,,,,24,2020-07-03_13h08.11.729,retriever_ti,2020.1.3,Win32,60,Chrome,1920,1080,,,,,,,,,,,,,,,,,1,,,,,,,,,,,,,,,,,,,,,,,,,,,566.509505,71,left,1.032835,phone       ,5,9,2,1,3,566.525835,566.525835,569.024995,0,70,70,70,1,71,5,3,phone       ,giraffe     ,html/resources/sequences_IDs/B/09_phone.jpg,html/resources/sequences_IDs/B/03_giraffe.jpg,9,3,4,2,1,1,8,2,0,24,,,,,,,,,,,,,,,,,,,,
,,,,,24,2020-07-03_13h08.11.729,retriever_ti,2020.1.3,Win32,60,Chrome,1920,1080,,,,,,,,,,,,,,,,,1,,,,,,,,,,,,,,,,,,,,,,,,,,,569.641675,72,left,1.109665,sport_tshirt,1,7,-5,0,3,569.658915,569.658915,572.157875,0,71,71,71,1,72,1,6,sport_tshirt,peacock       ,html/resources/sequences_IDs/B/07_sport_tshirt.jpg,html/resources/sequences_IDs/A/05_peacock.jpg,7,5,3,2,2,1,6,4,0,24,,,,,,,,,,,,,,,,,,,,
,,,,,24,2020-07-03_13h08.11.729,retriever_ti,2020.1.3,Win32,60,Chrome,1920,1080,,,,,,,,,,,,,,,,,1,,,,,,,,,,,,,,,,,,,,,,,,,,,572.775245,73,right,1.13408,giraffe     ,3,3,1,1,1,572.808585,572.808585,575.307145,0,72,72,72,1,73,2,3,hat           ,giraffe     ,html/resources/sequences_IDs/A/08_hat.jpg,html/resources/sequences_IDs/B/03_giraffe.jpg,8,3,3,2,1,1,7,2,0,24,,,,,,,,,,,,,,,,,,,,
,,,,,24,2020-07-03_13h08.11.729,retriever_ti,2020.1.3,Win32,60,Chrome,1920,1080,,,,,,,,,,,,,,,,,1,,,,,,,,,,,,,,,,,,,,,,,,,,,576.40727,74,left,1.120295,peacock       ,6,5,2,1,3,576.42462,576.42462,578.923955,0,73,73,73,1,74,6,4,peacock       ,wolf          ,html/resources/sequences_IDs/A/05_peacock.jpg,html/resources/sequences_IDs/A/01_wolf.jpg,5,1,2,1,1,1,4,1,0,24,,,,,,,,,,,,,,,,,,,,
,,,,,24,2020-07-03_13h08.11.729,retriever_ti,2020.1.3,Win32,60,Chrome,1920,1080,,,,,,,,,,,,,,,,,1,,,,,,,,,,,,,,,,,,,,,,,,,,,579.540795,75,right,1.122745,phone       ,5,9,-1,0,0,579.57408,579.57408,582.0732,0,74,74,74,1,75,6,5,peacock       ,phone       ,html/resources/sequences_IDs/A/05_peacock.jpg,html/resources/sequences_IDs/B/09_phone.jpg,5,9,2,1,4,2,4,8,0,24,,,,,,,,,,,,,,,,,,,,
,,,,,24,2020-07-03_13h08.11.729,retriever_ti,2020.1.3,Win32,60,Chrome,1920,1080,,,,,,,,,,,,,,,,,1,,,,,,,,,,,,,,,,,,,,,,,,,,,583.17327,76,right,1.19109,peacock       ,6,5,3,1,3,583.191545,583.191545,585.689045,0,75,75,75,1,76,3,6,giraffe     ,peacock       ,html/resources/sequences_IDs/B/03_giraffe.jpg,html/resources/sequences_IDs/A/05_peacock.jpg,3,5,1,1,2,1,2,4,0,24,,,,,,,,,,,,,,,,,,,,
,,,,,24,2020-07-03_13h08.11.729,retriever_ti,2020.1.3,Win32,60,Chrome,1920,1080,,,,,,,,,,,,,,,,,1,,,,,,,,,,,,,,,,,,,,,,,,,,,586.306465,77,right,1.633815,peacock       ,6,5,-1,0,0,586.34016,586.34016,588.83878,0,76,76,76,1,77,7,6,holdfast    ,peacock       ,html/resources/sequences_IDs/B/04_holdfast.jpg,html/resources/sequences_IDs/A/05_peacock.jpg,4,5,2,1,2,1,3,4,0,24,,,,,,,,,,,,,,,,,,,,
,,,,,24,2020-07-03_13h08.11.729,retriever_ti,2020.1.3,Win32,60,Chrome,1920,1080,,,,,,,,,,,,,,,,,,,,,,,,,,,,,,,,,,,,,0,4.698935,,,,,,,,,,,,,,,,,,,,,,,,,,,,,,,,,,,,,,,,,0,0,0,0,1,,,,,,,,,,,,,,,
,,,,,24,2020-07-03_13h08.11.729,retriever_ti,2020.1.3,Win32,60,Chrome,1920,1080,,,,,,,,,,,,,,,,,2,,,,,,,,,,,,,,,,,,,,,,,,,,,616.09801,78,right,1.239535,holdfast    ,7,4,5,1,3,616.106265,616.106265,618.601115,0,0,0,0,1,78,2,7,hat           ,holdfast    ,html/resources/sequences_IDs/A/08_hat.jpg,html/resources/sequences_IDs/B/04_holdfast.jpg,8,4,3,2,2,1,7,3,0,24,,,,,,,,,,,,,,,,,,,,
,,,,,24,2020-07-03_13h08.11.729,retriever_ti,2020.1.3,Win32,60,Chrome,1920,1080,,,,,,,,,,,,,,,,,2,,,,,,,,,,,,,,,,,,,,,,,,,,,619.20188,79,right,1.267135,giraffe     ,3,3,-4,0,3,619.219125,619.219125,621.717295,0,1,1,1,1,79,7,3,holdfast    ,giraffe     ,html/resources/sequences_IDs/B/04_holdfast.jpg,html/resources/sequences_IDs/B/03_giraffe.jpg,4,3,2,1,1,1,3,2,0,24,,,,,,,,,,,,,,,,,,,,
,,,,,24,2020-07-03_13h08.11.729,retriever_ti,2020.1.3,Win32,60,Chrome,1920,1080,,,,,,,,,,,,,,,,,2,,,,,,,,,,,,,,,,,,,,,,,,,,,622.318315,80,left,1.09695,phone       ,5,9,-2,0,3,622.351705,622.351705,624.85035,0,2,2,2,1,80,5,7,phone       ,holdfast    ,html/resources/sequences_IDs/B/09_phone.jpg,html/resources/sequences_IDs/B/04_holdfast.jpg,9,4,4,2,2,1,8,3,0,24,,,,,,,,,,,,,,,,,,,,
,,,,,24,2020-07-03_13h08.11.729,retriever_ti,2020.1.3,Win32,60,Chrome,1920,1080,,,,,,,,,,,,,,,,,2,,,,,,,,,,,,,,,,,,,,,,,,,,,625.467655,81,left,0.86598,phone       ,5,9,4,1,3,625.50164,625.50164,628.00004,0,3,3,3,1,81,5,1,phone       ,sport_tshirt,html/resources/sequences_IDs/B/09_phone.jpg,html/resources/sequences_IDs/B/07_sport_tshirt.jpg,9,7,4,2,3,2,8,6,0,24,,,,,,,,,,,,,,,,,,,,
,,,,,24,2020-07-03_13h08.11.729,retriever_ti,2020.1.3,Win32,60,Chrome,1920,1080,,,,,,,,,,,,,,,,,2,,,,,,,,,,,,,,,,,,,,,,,,,,,628.617155,82,right,1.279705,phone       ,5,9,-1,0,1,628.650585,628.650585,631.14966,0,4,4,4,1,82,6,5,peacock       ,phone       ,html/resources/sequences_IDs/A/05_peacock.jpg,html/resources/sequences_IDs/B/09_phone.jpg,5,9,2,1,4,2,4,8,1,24,,,,,,,,,,,,,,,,,,,,
,,,,,24,2020-07-03_13h08.11.729,retriever_ti,2020.1.3,Win32,60,Chrome,1920,1080,,,,,,,,,,,,,,,,,2,,,,,,,,,,,,,,,,,,,,,,,,,,,632.249895,83,left,0.73802,giraffe     ,3,3,1,1,1,632.283895,632.283895,634.78249,0,5,5,5,1,83,3,2,giraffe     ,hat           ,html/resources/sequences_IDs/B/03_giraffe.jpg,html/resources/sequences_IDs/A/08_hat.jpg,3,8,1,1,3,2,2,7,0,24,,,,,,,,,,,,,,,,,,,,
,,,,,24,2020-07-03_13h08.11.729,retriever_ti,2020.1.3,Win32,60,Chrome,1920,1080,,,,,,,,,,,,,,,,,2,,,,,,,,,,,,,,,,,,,,,,,,,,,635.88325,84,left,1.411125,giraffe     ,3,3,-4,0,3,635.8995,635.8995,638.398625,0,6,6,6,1,84,3,7,giraffe     ,holdfast    ,html/resources/sequences_IDs/B/03_giraffe.jpg,html/resources/sequences_IDs/B/04_holdfast.jpg,3,4,1,1,2,1,2,3,0,24,,,,,,,,,,,,,,,,,,,,
,,,,,24,2020-07-03_13h08.11.729,retriever_ti,2020.1.3,Win32,60,Chrome,1920,1080,,,,,,,,,,,,,,,,,2,,,,,,,,,,,,,,,,,,,,,,,,,,,639.015745,85,left,0.95224,scarf         ,8,6,6,1,3,639.03248,639.03248,641.531555,0,7,7,7,1,85,8,2,scarf         ,hat           ,html/resources/sequences_IDs/A/06_scarf.jpg,html/resources/sequences_IDs/A/08_hat.jpg,6,8,3,2,3,2,5,7,0,24,,,,,,,,,,,,,,,,,,,,
,,,,,24,2020-07-03_13h08.11.729,retriever_ti,2020.1.3,Win32,60,Chrome,1920,1080,,,,,,,,,,,,,,,,,2,,,,,,,,,,,,,,,,,,,,,,,,,,,642.14878,86,left,1.16215,wolf          ,4,1,-2,0,3,642.182615,642.182615,644.68115,0,8,8,8,1,86,4,6,wolf          ,peacock       ,html/resources/sequences_IDs/A/01_wolf.jpg,html/resources/sequences_IDs/A/05_peacock.jpg,1,5,1,1,2,1,1,4,0,24,,,,,,,,,,,,,,,,,,,,
,,,,,24,2020-07-03_13h08.11.729,retriever_ti,2020.1.3,Win32,60,Chrome,1920,1080,,,,,,,,,,,,,,,,,2,,,,,,,,,,,,,,,,,,,,,,,,,,,645.29822,87,right,0.941645,scarf         ,8,6,6,1,3,645.31484,645.31484,647.813675,0,9,9,9,1,87,2,8,hat           ,scarf         ,html/resources/sequences_IDs/A/08_hat.jpg,html/resources/sequences_IDs/A/06_scarf.jpg,8,6,3,2,3,2,7,5,0,24,,,,,,,,,,,,,,,,,,,,
,,,,,24,2020-07-03_13h08.11.729,retriever_ti,2020.1.3,Win32,60,Chrome,1920,1080,,,,,,,,,,,,,,,,,2,,,,,,,,,,,,,,,,,,,,,,,,,,,648.414825,88,left,0.832,peacock       ,6,5,-1,0,0,648.431145,648.431145,650.929875,0,10,10,10,1,88,6,7,peacock       ,holdfast    ,html/resources/sequences_IDs/A/05_peacock.jpg,html/resources/sequences_IDs/B/04_holdfast.jpg,5,4,2,1,2,1,4,3,0,24,,,,,,,,,,,,,,,,,,,,
,,,,,24,2020-07-03_13h08.11.729,retriever_ti,2020.1.3,Win32,60,Chrome,1920,1080,,,,,,,,,,,,,,,,,2,,,,,,,,,,,,,,,,,,,,,,,,,,,652.030065,89,right,0.81656,scarf         ,8,6,4,1,3,652.06402,652.06402,654.563015,0,11,11,11,1,89,4,8,wolf          ,scarf         ,html/resources/sequences_IDs/A/01_wolf.jpg,html/resources/sequences_IDs/A/06_scarf.jpg,1,6,1,1,3,2,1,5,0,24,,,,,,,,,,,,,,,,,,,,
,,,,,24,2020-07-03_13h08.11.729,retriever_ti,2020.1.3,Win32,60,Chrome,1920,1080,,,,,,,,,,,,,,,,,2,,,,,,,,,,,,,,,,,,,,,,,,,,,655.18048,90,left,1.215335,sport_tshirt,1,7,-1,0,1,655.213405,655.213405,657.712335,0,12,12,12,1,90,1,2,sport_tshirt,hat           ,html/resources/sequences_IDs/B/07_sport_tshirt.jpg,html/resources/sequences_IDs/A/08_hat.jpg,7,8,3,2,3,2,6,7,1,24,,,,,,,,,,,,,,,,,,,,
,,,,,24,2020-07-03_13h08.11.729,retriever_ti,2020.1.3,Win32,60,Chrome,1920,1080,,,,,,,,,,,,,,,,,2,,,,,,,,,,,,,,,,,,,,,,,,,,,658.81256,91,right,1.044085,phone       ,5,9,-2,0,3,658.846365,658.846365,661.345175,0,13,13,13,1,91,7,5,holdfast    ,phone       ,html/resources/sequences_IDs/B/04_holdfast.jpg,html/resources/sequences_IDs/B/09_phone.jpg,4,9,2,1,4,2,3,8,0,24,,,,,,,,,,,,,,,,,,,,
,,,,,24,2020-07-03_13h08.11.729,retriever_ti,2020.1.3,Win32,60,Chrome,1920,1080,,,,,,,,,,,,,,,,,2,,,,,,,,,,,,,,,,,,,,,,,,,,,661.9627,92,left,1.184335,scarf         ,8,6,5,1,3,661.9797,661.9797,664.47799,0,14,14,14,1,92,8,3,scarf         ,giraffe     ,html/resources/sequences_IDs/A/06_scarf.jpg,html/resources/sequences_IDs/B/03_giraffe.jpg,6,3,3,2,1,1,5,2,0,24,,,,,,,,,,,,,,,,,,,,
,,,,,24,2020-07-03_13h08.11.729,retriever_ti,2020.1.3,Win32,60,Chrome,1920,1080,,,,,,,,,,,,,,,,,2,,,,,,,,,,,,,,,,,,,,,,,,,,,665.07877,93,left,1.22142,scarf         ,8,6,3,1,3,665.11271,665.11271,667.611365,0,15,15,15,1,93,8,5,scarf         ,phone       ,html/resources/sequences_IDs/A/06_scarf.jpg,html/resources/sequences_IDs/B/09_phone.jpg,6,9,3,2,4,2,5,8,0,24,,,,,,,,,,,,,,,,,,,,
,,,,,24,2020-07-03_13h08.11.729,retriever_ti,2020.1.3,Win32,60,Chrome,1920,1080,,,,,,,,,,,,,,,,,2,,,,,,,,,,,,,,,,,,,,,,,,,,,668.22893,94,right,1.04168,peacock       ,6,5,4,1,3,668.24493,668.24493,670.743775,0,16,16,16,1,94,2,6,hat           ,peacock       ,html/resources/sequences_IDs/A/08_hat.jpg,html/resources/sequences_IDs/A/05_peacock.jpg,8,5,3,2,2,1,7,4,0,24,,,,,,,,,,,,,,,,,,,,
,,,,,24,2020-07-03_13h08.11.729,retriever_ti,2020.1.3,Win32,60,Chrome,1920,1080,,,,,,,,,,,,,,,,,2,,,,,,,,,,,,,,,,,,,,,,,,,,,671.34449,95,left,1.40496,wolf          ,4,1,1,1,0,671.37841,671.37841,673.877005,0,17,17,17,1,95,4,3,wolf          ,giraffe     ,html/resources/sequences_IDs/A/01_wolf.jpg,html/resources/sequences_IDs/B/03_giraffe.jpg,1,3,1,1,1,1,1,2,1,24,,,,,,,,,,,,,,,,,,,,
,,,,,24,2020-07-03_13h08.11.729,retriever_ti,2020.1.3,Win32,60,Chrome,1920,1080,,,,,,,,,,,,,,,,,2,,,,,,,,,,,,,,,,,,,,,,,,,,,674.977335,96,left,1.00551,sport_tshirt,1,7,-4,0,3,675.01137,675.01137,677.509525,0,18,18,18,1,96,1,5,sport_tshirt,phone       ,html/resources/sequences_IDs/B/07_sport_tshirt.jpg,html/resources/sequences_IDs/B/09_phone.jpg,7,9,3,2,4,2,6,8,0,24,,,,,,,,,,,,,,,,,,,,
,,,,,24,2020-07-03_13h08.11.729,retriever_ti,2020.1.3,Win32,60,Chrome,1920,1080,,,,,,,,,,,,,,,,,2,,,,,,,,,,,,,,,,,,,,,,,,,,,678.12639,97,left,0.90257,holdfast    ,7,4,5,1,3,678.160575,678.160575,680.659155,0,19,19,19,1,97,7,2,holdfast    ,hat           ,html/resources/sequences_IDs/B/04_holdfast.jpg,html/resources/sequences_IDs/A/08_hat.jpg,4,8,2,1,3,2,3,7,0,24,,,,,,,,,,,,,,,,,,,,
,,,,,24,2020-07-03_13h08.11.729,retriever_ti,2020.1.3,Win32,60,Chrome,1920,1080,,,,,,,,,,,,,,,,,2,,,,,,,,,,,,,,,,,,,,,,,,,,,681.27675,98,left,1.13703,scarf         ,8,6,7,1,3,681.310295,681.310295,683.808675,0,20,20,20,1,98,8,1,scarf         ,sport_tshirt,html/resources/sequences_IDs/A/06_scarf.jpg,html/resources/sequences_IDs/B/07_sport_tshirt.jpg,6,7,3,2,3,2,5,6,0,24,,,,,,,,,,,,,,,,,,,,
,,,,,24,2020-07-03_13h08.11.729,retriever_ti,2020.1.3,Win32,60,Chrome,1920,1080,,,,,,,,,,,,,,,,,2,,,,,,,,,,,,,,,,,,,,,,,,,,,684.4094,99,right,1.09863,peacock       ,6,5,-1,0,1,684.443395,684.443395,686.941825,0,21,21,21,1,99,7,6,holdfast    ,peacock       ,html/resources/sequences_IDs/B/04_holdfast.jpg,html/resources/sequences_IDs/A/05_peacock.jpg,4,5,2,1,2,1,3,4,1,24,,,,,,,,,,,,,,,,,,,,
,,,,,24,2020-07-03_13h08.11.729,retriever_ti,2020.1.3,Win32,60,Chrome,1920,1080,,,,,,,,,,,,,,,,,2,,,,,,,,,,,,,,,,,,,,,,,,,,,688.04261,100,right,1.251785,scarf         ,8,6,2,1,3,688.059125,688.059125,690.558015,0,22,22,22,1,100,6,8,peacock       ,scarf         ,html/resources/sequences_IDs/A/05_peacock.jpg,html/resources/sequences_IDs/A/06_scarf.jpg,5,6,2,1,3,2,4,5,0,24,,,,,,,,,,,,,,,,,,,,
,,,,,24,2020-07-03_13h08.11.729,retriever_ti,2020.1.3,Win32,60,Chrome,1920,1080,,,,,,,,,,,,,,,,,2,,,,,,,,,,,,,,,,,,,,,,,,,,,691.17458,101,right,1.106005,scarf         ,8,6,5,1,3,691.208445,691.208445,693.707715,0,23,23,23,1,101,3,8,giraffe     ,scarf         ,html/resources/sequences_IDs/B/03_giraffe.jpg,html/resources/sequences_IDs/A/06_scarf.jpg,3,6,1,1,3,2,2,5,0,24,,,,,,,,,,,,,,,,,,,,
,,,,,24,2020-07-03_13h08.11.729,retriever_ti,2020.1.3,Win32,60,Chrome,1920,1080,,,,,,,,,,,,,,,,,2,,,,,,,,,,,,,,,,,,,,,,,,,,,694.32501,102,right,1.142015,peacock       ,6,5,5,1,3,694.341765,694.341765,696.840435,0,24,24,24,1,102,1,6,sport_tshirt,peacock       ,html/resources/sequences_IDs/B/07_sport_tshirt.jpg,html/resources/sequences_IDs/A/05_peacock.jpg,7,5,3,2,2,1,6,4,0,24,,,,,,,,,,,,,,,,,,,,
,,,,,24,2020-07-03_13h08.11.729,retriever_ti,2020.1.3,Win32,60,Chrome,1920,1080,,,,,,,,,,,,,,,,,2,,,,,,,,,,,,,,,,,,,,,,,,,,,697.457255,103,NaN,NaN,No_response,NaN,NaN,NaN,2,2,697.4743,697.4743,699.973115,0,25,25,25,1,103,7,6,holdfast    ,peacock       ,html/resources/sequences_IDs/B/04_holdfast.jpg,html/resources/sequences_IDs/A/05_peacock.jpg,4,5,2,1,2,1,3,4,0,24,,,,,,,,,,,,,,,,,,,,
,,,,,24,2020-07-03_13h08.11.729,retriever_ti,2020.1.3,Win32,60,Chrome,1920,1080,,,,,,,,,,,,,,,,,2,,,,,,,,,,,,,,,,,,,,,,,,,,,701.0736,104,left,0.77639,giraffe     ,3,3,1,1,0,701.10709,701.10709,703.606215,0,26,26,26,1,104,3,2,giraffe     ,hat           ,html/resources/sequences_IDs/B/03_giraffe.jpg,html/resources/sequences_IDs/A/08_hat.jpg,3,8,1,1,3,2,2,7,1,24,,,,,,,,,,,,,,,,,,,,
,,,,,24,2020-07-03_13h08.11.729,retriever_ti,2020.1.3,Win32,60,Chrome,1920,1080,,,,,,,,,,,,,,,,,2,,,,,,,,,,,,,,,,,,,,,,,,,,,704.70643,105,right,0.85905,sport_tshirt,1,7,-2,0,3,704.72321,704.72321,707.222065,0,27,27,27,1,105,3,1,giraffe     ,sport_tshirt,html/resources/sequences_IDs/B/03_giraffe.jpg,html/resources/sequences_IDs/B/07_sport_tshirt.jpg,3,7,1,1,3,2,2,6,0,24,,,,,,,,,,,,,,,,,,,,
,,,,,24,2020-07-03_13h08.11.729,retriever_ti,2020.1.3,Win32,60,Chrome,1920,1080,,,,,,,,,,,,,,,,,2,,,,,,,,,,,,,,,,,,,,,,,,,,,707.839795,106,right,0.73915,peacock       ,6,5,1,1,1,707.856085,707.856085,710.35533,0,28,28,28,1,106,5,6,phone       ,peacock       ,html/resources/sequences_IDs/B/09_phone.jpg,html/resources/sequences_IDs/A/05_peacock.jpg,9,5,4,2,2,1,8,4,0,24,,,,,,,,,,,,,,,,,,,,
,,,,,24,2020-07-03_13h08.11.729,retriever_ti,2020.1.3,Win32,60,Chrome,1920,1080,,,,,,,,,,,,,,,,,2,,,,,,,,,,,,,,,,,,,,,,,,,,,711.455095,107,right,0.762515,wolf          ,4,1,-1,0,0,711.47257,711.47257,713.971185,0,29,29,29,1,107,5,4,phone       ,wolf          ,html/resources/sequences_IDs/B/09_phone.jpg,html/resources/sequences_IDs/A/01_wolf.jpg,9,1,4,2,1,1,8,1,0,24,,,,,,,,,,,,,,,,,,,,
,,,,,24,2020-07-03_13h08.11.729,retriever_ti,2020.1.3,Win32,60,Chrome,1920,1080,,,,,,,,,,,,,,,,,2,,,,,,,,,,,,,,,,,,,,,,,,,,,715.07218,108,left,0.67137,peacock       ,6,5,5,1,3,715.088575,715.088575,717.587515,0,30,30,30,1,108,6,1,peacock       ,sport_tshirt,html/resources/sequences_IDs/A/05_peacock.jpg,html/resources/sequences_IDs/B/07_sport_tshirt.jpg,5,7,2,1,3,2,4,6,0,24,,,,,,,,,,,,,,,,,,,,
,,,,,24,2020-07-03_13h08.11.729,retriever_ti,2020.1.3,Win32,60,Chrome,1920,1080,,,,,,,,,,,,,,,,,2,,,,,,,,,,,,,,,,,,,,,,,,,,,718.204515,109,left,0.964755,giraffe     ,3,3,-1,0,0,718.221285,718.221285,720.72015,0,31,31,31,1,109,3,4,giraffe     ,wolf          ,html/resources/sequences_IDs/B/03_giraffe.jpg,html/resources/sequences_IDs/A/01_wolf.jpg,3,1,1,1,1,1,2,1,0,24,,,,,,,,,,,,,,,,,,,,
,,,,,24,2020-07-03_13h08.11.729,retriever_ti,2020.1.3,Win32,60,Chrome,1920,1080,,,,,,,,,,,,,,,,,2,,,,,,,,,,,,,,,,,,,,,,,,,,,721.820905,110,left,0.616715,holdfast    ,7,4,6,1,3,721.85434,721.85434,724.35336,0,32,32,32,1,110,7,1,holdfast    ,sport_tshirt,html/resources/sequences_IDs/B/04_holdfast.jpg,html/resources/sequences_IDs/B/07_sport_tshirt.jpg,4,7,2,1,3,2,3,6,0,24,,,,,,,,,,,,,,,,,,,,
,,,,,24,2020-07-03_13h08.11.729,retriever_ti,2020.1.3,Win32,60,Chrome,1920,1080,,,,,,,,,,,,,,,,,2,,,,,,,,,,,,,,,,,,,,,,,,,,,724.970415,111,right,0.982365,phone       ,5,9,1,1,1,725.003795,725.003795,727.502545,0,33,33,33,1,111,4,5,wolf          ,phone       ,html/resources/sequences_IDs/A/01_wolf.jpg,html/resources/sequences_IDs/B/09_phone.jpg,1,9,1,1,4,2,1,8,0,24,,,,,,,,,,,,,,,,,,,,
,,,,,24,2020-07-03_13h08.11.729,retriever_ti,2020.1.3,Win32,60,Chrome,1920,1080,,,,,,,,,,,,,,,,,2,,,,,,,,,,,,,,,,,,,,,,,,,,,728.60343,112,left,0.630475,sport_tshirt,1,7,-3,0,3,728.637165,728.637165,731.135355,0,34,34,34,1,112,1,4,sport_tshirt,wolf          ,html/resources/sequences_IDs/B/07_sport_tshirt.jpg,html/resources/sequences_IDs/A/01_wolf.jpg,7,1,3,2,1,1,6,1,0,24,,,,,,,,,,,,,,,,,,,,
,,,,,24,2020-07-03_13h08.11.729,retriever_ti,2020.1.3,Win32,60,Chrome,1920,1080,,,,,,,,,,,,,,,,,2,,,,,,,,,,,,,,,,,,,,,,,,,,,731.752755,113,left,0.64922,peacock       ,6,5,4,1,3,731.77003,731.77003,734.268495,0,35,35,35,1,113,6,2,peacock       ,hat           ,html/resources/sequences_IDs/A/05_peacock.jpg,html/resources/sequences_IDs/A/08_hat.jpg,5,8,2,1,3,2,4,7,0,24,,,,,,,,,,,,,,,,,,,,
,,,,,24,2020-07-03_13h08.11.729,retriever_ti,2020.1.3,Win32,60,Chrome,1920,1080,,,,,,,,,,,,,,,,,2,,,,,,,,,,,,,,,,,,,,,,,,,,,734.88552,114,left,0.717075,peacock       ,6,5,3,1,3,734.902875,734.902875,737.401475,0,36,36,36,1,114,6,3,peacock       ,giraffe     ,html/resources/sequences_IDs/A/05_peacock.jpg,html/resources/sequences_IDs/B/03_giraffe.jpg,5,3,2,1,1,1,4,2,0,24,,,,,,,,,,,,,,,,,,,,
,,,,,24,2020-07-03_13h08.11.729,retriever_ti,2020.1.3,Win32,60,Chrome,1920,1080,,,,,,,,,,,,,,,,,2,,,,,,,,,,,,,,,,,,,,,,,,,,,738.018405,115,left,0.601295,phone       ,5,9,3,1,3,738.052545,738.052545,740.551015,0,37,37,37,1,115,5,2,phone       ,hat           ,html/resources/sequences_IDs/B/09_phone.jpg,html/resources/sequences_IDs/A/08_hat.jpg,9,8,4,2,3,2,8,7,0,24,,,,,,,,,,,,,,,,,,,,
,,,,,24,2020-07-03_13h08.11.729,retriever_ti,2020.1.3,Win32,60,Chrome,1920,1080,,,,,,,,,,,,,,,,,2,,,,,,,,,,,,,,,,,,,,,,,,,,,741.168005,116,right,0.507835,phone       ,5,9,3,1,3,741.20196,741.20196,743.70068,0,38,38,38,1,116,2,5,hat           ,phone       ,html/resources/sequences_IDs/A/08_hat.jpg,html/resources/sequences_IDs/B/09_phone.jpg,8,9,3,2,4,2,7,8,0,24,,,,,,,,,,,,,,,,,,,,
,,,,,24,2020-07-03_13h08.11.729,retriever_ti,2020.1.3,Win32,60,Chrome,1920,1080,,,,,,,,,,,,,,,,,2,,,,,,,,,,,,,,,,,,,,,,,,,,,744.317475,117,right,0.54616,giraffe     ,3,3,1,1,1,744.351535,744.351535,746.851475,0,39,39,39,1,117,2,3,hat           ,giraffe     ,html/resources/sequences_IDs/A/08_hat.jpg,html/resources/sequences_IDs/B/03_giraffe.jpg,8,3,3,2,1,1,7,2,0,24,,,,,,,,,,,,,,,,,,,,
,,,,,24,2020-07-03_13h08.11.729,retriever_ti,2020.1.3,Win32,60,Chrome,1920,1080,,,,,,,,,,,,,,,,,2,,,,,,,,,,,,,,,,,,,,,,,,,,,747.950915,118,right,0.66184,giraffe     ,3,3,-1,0,0,747.984435,747.984435,750.482935,0,40,40,40,1,118,4,3,wolf          ,giraffe     ,html/resources/sequences_IDs/A/01_wolf.jpg,html/resources/sequences_IDs/B/03_giraffe.jpg,1,3,1,1,1,1,1,2,0,24,,,,,,,,,,,,,,,,,,,,
,,,,,24,2020-07-03_13h08.11.729,retriever_ti,2020.1.3,Win32,60,Chrome,1920,1080,,,,,,,,,,,,,,,,,2,,,,,,,,,,,,,,,,,,,,,,,,,,,751.582815,119,left,0.60782,phone       ,5,9,2,1,3,751.60054,751.60054,754.09911,0,41,41,41,1,119,5,3,phone       ,giraffe     ,html/resources/sequences_IDs/B/09_phone.jpg,html/resources/sequences_IDs/B/03_giraffe.jpg,9,3,4,2,1,1,8,2,0,24,,,,,,,,,,,,,,,,,,,,
,,,,,24,2020-07-03_13h08.11.729,retriever_ti,2020.1.3,Win32,60,Chrome,1920,1080,,,,,,,,,,,,,,,,,2,,,,,,,,,,,,,,,,,,,,,,,,,,,754.716155,120,left,0.63143,scarf         ,8,6,1,1,1,754.733415,754.733415,757.23227,0,42,42,42,1,120,8,7,scarf         ,holdfast    ,html/resources/sequences_IDs/A/06_scarf.jpg,html/resources/sequences_IDs/B/04_holdfast.jpg,6,4,3,2,2,1,5,3,0,24,,,,,,,,,,,,,,,,,,,,
,,,,,24,2020-07-03_13h08.11.729,retriever_ti,2020.1.3,Win32,60,Chrome,1920,1080,,,,,,,,,,,,,,,,,2,,,,,,,,,,,,,,,,,,,,,,,,,,,758.33248,121,right,0.641705,scarf         ,8,6,1,1,0,758.349095,758.349095,760.848185,0,43,43,43,1,121,7,8,holdfast    ,scarf         ,html/resources/sequences_IDs/B/04_holdfast.jpg,html/resources/sequences_IDs/A/06_scarf.jpg,4,6,2,1,3,2,3,5,1,24,,,,,,,,,,,,,,,,,,,,
,,,,,24,2020-07-03_13h08.11.729,retriever_ti,2020.1.3,Win32,60,Chrome,1920,1080,,,,,,,,,,,,,,,,,2,,,,,,,,,,,,,,,,,,,,,,,,,,,761.948475,122,left,1.04227,holdfast    ,7,4,-1,0,0,761.96584,761.96584,764.46444,0,44,44,44,1,122,7,8,holdfast    ,scarf         ,html/resources/sequences_IDs/B/04_holdfast.jpg,html/resources/sequences_IDs/A/06_scarf.jpg,4,6,2,1,3,2,3,5,0,24,,,,,,,,,,,,,,,,,,,,
,,,,,24,2020-07-03_13h08.11.729,retriever_ti,2020.1.3,Win32,60,Chrome,1920,1080,,,,,,,,,,,,,,,,,2,,,,,,,,,,,,,,,,,,,,,,,,,,,765.564635,123,right,0.92911,scarf         ,8,6,1,1,1,765.58198,765.58198,768.080245,0,45,45,45,1,123,7,8,holdfast    ,scarf         ,html/resources/sequences_IDs/B/04_holdfast.jpg,html/resources/sequences_IDs/A/06_scarf.jpg,4,6,2,1,3,2,3,5,0,24,,,,,,,,,,,,,,,,,,,,
,,,,,24,2020-07-03_13h08.11.729,retriever_ti,2020.1.3,Win32,60,Chrome,1920,1080,,,,,,,,,,,,,,,,,2,,,,,,,,,,,,,,,,,,,,,,,,,,,769.18092,124,left,1.061705,wolf          ,4,1,-3,0,3,769.19809,769.19809,771.6964,0,46,46,46,1,124,4,7,wolf          ,holdfast    ,html/resources/sequences_IDs/A/01_wolf.jpg,html/resources/sequences_IDs/B/04_holdfast.jpg,1,4,1,1,2,1,1,3,0,24,,,,,,,,,,,,,,,,,,,,
,,,,,24,2020-07-03_13h08.11.729,retriever_ti,2020.1.3,Win32,60,Chrome,1920,1080,,,,,,,,,,,,,,,,,2,,,,,,,,,,,,,,,,,,,,,,,,,,,772.31366,125,left,0.59893,phone       ,5,9,1,1,1,772.331025,772.331025,774.82936,0,47,47,47,1,125,5,4,phone       ,wolf          ,html/resources/sequences_IDs/B/09_phone.jpg,html/resources/sequences_IDs/A/01_wolf.jpg,9,1,4,2,1,1,8,1,0,24,,,,,,,,,,,,,,,,,,,,
,,,,,24,2020-07-03_13h08.11.729,retriever_ti,2020.1.3,Win32,60,Chrome,1920,1080,,,,,,,,,,,,,,,,,2,,,,,,,,,,,,,,,,,,,,,,,,,,,775.93007,126,right,0.8381,sport_tshirt,1,7,-1,0,0,775.96384,775.96384,778.462175,0,48,48,48,1,126,2,1,hat           ,sport_tshirt,html/resources/sequences_IDs/A/08_hat.jpg,html/resources/sequences_IDs/B/07_sport_tshirt.jpg,8,7,3,2,3,2,7,6,0,24,,,,,,,,,,,,,,,,,,,,
,,,,,24,2020-07-03_13h08.11.729,retriever_ti,2020.1.3,Win32,60,Chrome,1920,1080,,,,,,,,,,,,,,,,,2,,,,,,,,,,,,,,,,,,,,,,,,,,,779.562765,127,right,0.95449,hat           ,2,8,1,1,1,779.58015,779.58015,782.078525,0,49,49,49,1,127,1,2,sport_tshirt,hat           ,html/resources/sequences_IDs/B/07_sport_tshirt.jpg,html/resources/sequences_IDs/A/08_hat.jpg,7,8,3,2,3,2,6,7,0,24,,,,,,,,,,,,,,,,,,,,
,,,,,24,2020-07-03_13h08.11.729,retriever_ti,2020.1.3,Win32,60,Chrome,1920,1080,,,,,,,,,,,,,,,,,2,,,,,,,,,,,,,,,,,,,,,,,,,,,783.17936,128,left,1.30792,wolf          ,4,1,1,1,1,783.19565,783.19565,785.694385,0,50,50,50,1,128,4,3,wolf          ,giraffe     ,html/resources/sequences_IDs/A/01_wolf.jpg,html/resources/sequences_IDs/B/03_giraffe.jpg,1,3,1,1,1,1,1,2,0,24,,,,,,,,,,,,,,,,,,,,
,,,,,24,2020-07-03_13h08.11.729,retriever_ti,2020.1.3,Win32,60,Chrome,1920,1080,,,,,,,,,,,,,,,,,2,,,,,,,,,,,,,,,,,,,,,,,,,,,786.794625,129,left,0.9434,giraffe     ,3,3,1,1,1,786.82842,786.82842,789.32728,0,51,51,51,1,129,3,2,giraffe     ,hat           ,html/resources/sequences_IDs/B/03_giraffe.jpg,html/resources/sequences_IDs/A/08_hat.jpg,3,8,1,1,3,2,2,7,0,24,,,,,,,,,,,,,,,,,,,,
,,,,,24,2020-07-03_13h08.11.729,retriever_ti,2020.1.3,Win32,60,Chrome,1920,1080,,,,,,,,,,,,,,,,,2,,,,,,,,,,,,,,,,,,,,,,,,,,,790.42808,130,left,1.149675,sport_tshirt,1,7,-2,0,3,790.445155,790.445155,792.943735,0,52,52,52,1,130,1,3,sport_tshirt,giraffe     ,html/resources/sequences_IDs/B/07_sport_tshirt.jpg,html/resources/sequences_IDs/B/03_giraffe.jpg,7,3,3,2,1,1,6,2,0,24,,,,,,,,,,,,,,,,,,,,
,,,,,24,2020-07-03_13h08.11.729,retriever_ti,2020.1.3,Win32,60,Chrome,1920,1080,,,,,,,,,,,,,,,,,2,,,,,,,,,,,,,,,,,,,,,,,,,,,793.56074,131,left,0.884455,peacock       ,6,5,-1,0,0,793.5941,793.5941,796.093075,0,53,53,53,1,131,6,7,peacock       ,holdfast    ,html/resources/sequences_IDs/A/05_peacock.jpg,html/resources/sequences_IDs/B/04_holdfast.jpg,5,4,2,1,2,1,4,3,0,24,,,,,,,,,,,,,,,,,,,,
,,,,,24,2020-07-03_13h08.11.729,retriever_ti,2020.1.3,Win32,60,Chrome,1920,1080,,,,,,,,,,,,,,,,,2,,,,,,,,,,,,,,,,,,,,,,,,,,,797.193845,132,right,0.760805,scarf         ,8,6,7,1,3,797.227065,797.227065,799.72579,0,54,54,54,1,132,1,8,sport_tshirt,scarf         ,html/resources/sequences_IDs/B/07_sport_tshirt.jpg,html/resources/sequences_IDs/A/06_scarf.jpg,7,6,3,2,3,2,6,5,0,24,,,,,,,,,,,,,,,,,,,,
,,,,,24,2020-07-03_13h08.11.729,retriever_ti,2020.1.3,Win32,60,Chrome,1920,1080,,,,,,,,,,,,,,,,,2,,,,,,,,,,,,,,,,,,,,,,,,,,,800.34318,133,left,0.615465,phone       ,5,9,-1,0,0,800.359945,800.359945,802.85872,0,55,55,55,1,133,5,6,phone       ,peacock       ,html/resources/sequences_IDs/B/09_phone.jpg,html/resources/sequences_IDs/A/05_peacock.jpg,9,5,4,2,2,1,8,4,0,24,,,,,,,,,,,,,,,,,,,,
,,,,,24,2020-07-03_13h08.11.729,retriever_ti,2020.1.3,Win32,60,Chrome,1920,1080,,,,,,,,,,,,,,,,,2,,,,,,,,,,,,,,,,,,,,,,,,,,,803.95977,134,right,0.96654,sport_tshirt,1,7,-3,0,3,803.976075,803.976075,806.47496,0,56,56,56,1,134,4,1,wolf          ,sport_tshirt,html/resources/sequences_IDs/A/01_wolf.jpg,html/resources/sequences_IDs/B/07_sport_tshirt.jpg,1,7,1,1,3,2,1,6,0,24,,,,,,,,,,,,,,,,,,,,
,,,,,24,2020-07-03_13h08.11.729,retriever_ti,2020.1.3,Win32,60,Chrome,1920,1080,,,,,,,,,,,,,,,,,2,,,,,,,,,,,,,,,,,,,,,,,,,,,807.091705,135,right,0.587625,phone       ,5,9,-1,0,0,807.10898,807.10898,809.608065,0,57,57,57,1,135,6,5,peacock       ,phone       ,html/resources/sequences_IDs/A/05_peacock.jpg,html/resources/sequences_IDs/B/09_phone.jpg,5,9,2,1,4,2,4,8,0,24,,,,,,,,,,,,,,,,,,,,
,,,,,24,2020-07-03_13h08.11.729,retriever_ti,2020.1.3,Win32,60,Chrome,1920,1080,,,,,,,,,,,,,,,,,2,,,,,,,,,,,,,,,,,,,,,,,,,,,810.7083,136,right,0.97798,holdfast    ,7,4,6,1,3,810.742385,810.742385,813.240725,0,58,58,58,1,136,1,7,sport_tshirt,holdfast    ,html/resources/sequences_IDs/B/07_sport_tshirt.jpg,html/resources/sequences_IDs/B/04_holdfast.jpg,7,4,3,2,2,1,6,3,0,24,,,,,,,,,,,,,,,,,,,,
,,,,,24,2020-07-03_13h08.11.729,retriever_ti,2020.1.3,Win32,60,Chrome,1920,1080,,,,,,,,,,,,,,,,,2,,,,,,,,,,,,,,,,,,,,,,,,,,,813.857915,137,right,0.545285,phone       ,5,9,1,1,1,813.89208,813.89208,816.390495,0,59,59,59,1,137,4,5,wolf          ,phone       ,html/resources/sequences_IDs/A/01_wolf.jpg,html/resources/sequences_IDs/B/09_phone.jpg,1,9,1,1,4,2,1,8,0,24,,,,,,,,,,,,,,,,,,,,
,,,,,24,2020-07-03_13h08.11.729,retriever_ti,2020.1.3,Win32,60,Chrome,1920,1080,,,,,,,,,,,,,,,,,2,,,,,,,,,,,,,,,,,,,,,,,,,,,817.490725,138,left,0.72179,sport_tshirt,1,7,-1,0,0,817.507975,817.507975,820.00662,0,60,60,60,1,138,1,2,sport_tshirt,hat           ,html/resources/sequences_IDs/B/07_sport_tshirt.jpg,html/resources/sequences_IDs/A/08_hat.jpg,7,8,3,2,3,2,6,7,0,24,,,,,,,,,,,,,,,,,,,,
,,,,,24,2020-07-03_13h08.11.729,retriever_ti,2020.1.3,Win32,60,Chrome,1920,1080,,,,,,,,,,,,,,,,,2,,,,,,,,,,,,,,,,,,,,,,,,,,,821.106815,139,right,0.64027,phone       ,5,9,1,1,0,821.14082,821.14082,823.63934,0,61,61,61,1,139,4,5,wolf          ,phone       ,html/resources/sequences_IDs/A/01_wolf.jpg,html/resources/sequences_IDs/B/09_phone.jpg,1,9,1,1,4,2,1,8,1,24,,,,,,,,,,,,,,,,,,,,
,,,,,24,2020-07-03_13h08.11.729,retriever_ti,2020.1.3,Win32,60,Chrome,1920,1080,,,,,,,,,,,,,,,,,2,,,,,,,,,,,,,,,,,,,,,,,,,,,824.74013,140,left,0.974085,peacock       ,6,5,1,1,1,824.75689,824.75689,827.25561,0,62,62,62,1,140,6,5,peacock       ,phone       ,html/resources/sequences_IDs/A/05_peacock.jpg,html/resources/sequences_IDs/B/09_phone.jpg,5,9,2,1,4,2,4,8,0,24,,,,,,,,,,,,,,,,,,,,
,,,,,24,2020-07-03_13h08.11.729,retriever_ti,2020.1.3,Win32,60,Chrome,1920,1080,,,,,,,,,,,,,,,,,2,,,,,,,,,,,,,,,,,,,,,,,,,,,828.35593,141,left,0.85876,scarf         ,8,6,2,1,3,828.38987,828.38987,830.888465,0,63,63,63,1,141,8,6,scarf         ,peacock       ,html/resources/sequences_IDs/A/06_scarf.jpg,html/resources/sequences_IDs/A/05_peacock.jpg,6,5,3,2,2,1,5,4,0,24,,,,,,,,,,,,,,,,,,,,
,,,,,24,2020-07-03_13h08.11.729,retriever_ti,2020.1.3,Win32,60,Chrome,1920,1080,,,,,,,,,,,,,,,,,2,,,,,,,,,,,,,,,,,,,,,,,,,,,831.505515,142,right,1.165135,hat           ,2,8,-2,0,3,831.54022,831.54022,834.03794,0,64,64,64,1,142,4,2,wolf          ,hat           ,html/resources/sequences_IDs/A/01_wolf.jpg,html/resources/sequences_IDs/A/08_hat.jpg,1,8,1,1,3,2,1,7,0,24,,,,,,,,,,,,,,,,,,,,
,,,,,24,2020-07-03_13h08.11.729,retriever_ti,2020.1.3,Win32,60,Chrome,1920,1080,,,,,,,,,,,,,,,,,2,,,,,,,,,,,,,,,,,,,,,,,,,,,834.654595,143,left,1.12,peacock       ,6,5,2,1,3,834.688795,834.688795,837.18721,0,65,65,65,1,143,6,4,peacock       ,wolf          ,html/resources/sequences_IDs/A/05_peacock.jpg,html/resources/sequences_IDs/A/01_wolf.jpg,5,1,2,1,1,1,4,1,0,24,,,,,,,,,,,,,,,,,,,,
,,,,,24,2020-07-03_13h08.11.729,retriever_ti,2020.1.3,Win32,60,Chrome,1920,1080,,,,,,,,,,,,,,,,,2,,,,,,,,,,,,,,,,,,,,,,,,,,,837.804565,144,right,0.924915,sport_tshirt,1,7,-1,0,0,837.8219,837.8219,840.320165,0,66,66,66,1,144,2,1,hat           ,sport_tshirt,html/resources/sequences_IDs/A/08_hat.jpg,html/resources/sequences_IDs/B/07_sport_tshirt.jpg,8,7,3,2,3,2,7,6,0,24,,,,,,,,,,,,,,,,,,,,
,,,,,24,2020-07-03_13h08.11.729,retriever_ti,2020.1.3,Win32,60,Chrome,1920,1080,,,,,,,,,,,,,,,,,2,,,,,,,,,,,,,,,,,,,,,,,,,,,841.420295,145,left,0.995455,holdfast    ,7,4,3,1,3,841.437965,841.437965,843.93622,0,67,67,67,1,145,7,4,holdfast    ,wolf          ,html/resources/sequences_IDs/B/04_holdfast.jpg,html/resources/sequences_IDs/A/01_wolf.jpg,4,1,2,1,1,1,3,1,0,24,,,,,,,,,,,,,,,,,,,,
,,,,,24,2020-07-03_13h08.11.729,retriever_ti,2020.1.3,Win32,60,Chrome,1920,1080,,,,,,,,,,,,,,,,,2,,,,,,,,,,,,,,,,,,,,,,,,,,,844.553535,146,left,0.619785,scarf         ,8,6,4,1,3,844.586945,844.586945,847.085795,0,68,68,68,1,146,8,4,scarf         ,wolf          ,html/resources/sequences_IDs/A/06_scarf.jpg,html/resources/sequences_IDs/A/01_wolf.jpg,6,1,3,2,1,1,5,1,0,24,,,,,,,,,,,,,,,,,,,,
,,,,,24,2020-07-03_13h08.11.729,retriever_ti,2020.1.3,Win32,60,Chrome,1920,1080,,,,,,,,,,,,,,,,,2,,,,,,,,,,,,,,,,,,,,,,,,,,,847.68639,147,right,0.95047,wolf          ,4,1,2,1,3,847.71985,847.71985,850.219025,0,69,69,69,1,147,2,4,hat           ,wolf          ,html/resources/sequences_IDs/A/08_hat.jpg,html/resources/sequences_IDs/A/01_wolf.jpg,8,1,3,2,1,1,7,1,0,24,,,,,,,,,,,,,,,,,,,,
,,,,,24,2020-07-03_13h08.11.729,retriever_ti,2020.1.3,Win32,60,Chrome,1920,1080,,,,,,,,,,,,,,,,,2,,,,,,,,,,,,,,,,,,,,,,,,,,,850.835985,148,right,1.00108,peacock       ,6,5,-1,0,0,850.85344,850.85344,853.351895,0,70,70,70,1,148,7,6,holdfast    ,peacock       ,html/resources/sequences_IDs/B/04_holdfast.jpg,html/resources/sequences_IDs/A/05_peacock.jpg,4,5,2,1,2,1,3,4,0,24,,,,,,,,,,,,,,,,,,,,
,,,,,24,2020-07-03_13h08.11.729,retriever_ti,2020.1.3,Win32,60,Chrome,1920,1080,,,,,,,,,,,,,,,,,2,,,,,,,,,,,,,,,,,,,,,,,,,,,854.45234,149,right,1.00096,giraffe     ,3,3,1,1,1,854.469355,854.469355,856.96815,0,71,71,71,1,149,2,3,hat           ,giraffe     ,html/resources/sequences_IDs/A/08_hat.jpg,html/resources/sequences_IDs/B/03_giraffe.jpg,8,3,3,2,1,1,7,2,0,24,,,,,,,,,,,,,,,,,,,,
,,,,,24,2020-07-03_13h08.11.729,retriever_ti,2020.1.3,Win32,60,Chrome,1920,1080,,,,,,,,,,,,,,,,,2,,,,,,,,,,,,,,,,,,,,,,,,,,,858.068895,150,left,0.734495,giraffe     ,3,3,-3,0,3,858.08513,858.08513,860.584215,0,72,72,72,1,150,3,6,giraffe     ,peacock       ,html/resources/sequences_IDs/B/03_giraffe.jpg,html/resources/sequences_IDs/A/05_peacock.jpg,3,5,1,1,2,1,2,4,0,24,,,,,,,,,,,,,,,,,,,,
,,,,,24,2020-07-03_13h08.11.729,retriever_ti,2020.1.3,Win32,60,Chrome,1920,1080,,,,,,,,,,,,,,,,,2,,,,,,,,,,,,,,,,,,,,,,,,,,,861.201245,151,left,0.744855,phone       ,5,9,-3,0,3,861.234805,861.234805,863.73378,0,73,73,73,1,151,5,8,phone       ,scarf         ,html/resources/sequences_IDs/B/09_phone.jpg,html/resources/sequences_IDs/A/06_scarf.jpg,9,6,4,2,3,2,8,5,0,24,,,,,,,,,,,,,,,,,,,,
,,,,,24,2020-07-03_13h08.11.729,retriever_ti,2020.1.3,Win32,60,Chrome,1920,1080,,,,,,,,,,,,,,,,,2,,,,,,,,,,,,,,,,,,,,,,,,,,,864.35074,152,left,1.0189,scarf         ,8,6,1,1,1,864.3676,864.3676,866.86676,0,74,74,74,1,152,8,7,scarf         ,holdfast    ,html/resources/sequences_IDs/A/06_scarf.jpg,html/resources/sequences_IDs/B/04_holdfast.jpg,6,4,3,2,2,1,5,3,0,24,,,,,,,,,,,,,,,,,,,,
,,,,,24,2020-07-03_13h08.11.729,retriever_ti,2020.1.3,Win32,60,Chrome,1920,1080,,,,,,,,,,,,,,,,,2,,,,,,,,,,,,,,,,,,,,,,,,,,,867.96701,153,right,0.72457,phone       ,5,9,2,1,3,868.000995,868.000995,870.499615,0,75,75,75,1,153,3,5,giraffe     ,phone       ,html/resources/sequences_IDs/B/03_giraffe.jpg,html/resources/sequences_IDs/B/09_phone.jpg,3,9,1,1,4,2,2,8,0,24,,,,,,,,,,,,,,,,,,,,
,,,,,24,2020-07-03_13h08.11.729,retriever_ti,2020.1.3,Win32,60,Chrome,1920,1080,,,,,,,,,,,,,,,,,2,,,,,,,,,,,,,,,,,,,,,,,,,,,871.116615,154,left,1.652715,giraffe     ,3,3,-1,0,0,871.15068,871.15068,873.649055,0,76,76,76,1,154,3,4,giraffe     ,wolf          ,html/resources/sequences_IDs/B/03_giraffe.jpg,html/resources/sequences_IDs/A/01_wolf.jpg,3,1,1,1,1,1,2,1,0,24,,,,,,,,,,,,,,,,,,,,
,,,,,24,2020-07-03_13h08.11.729,retriever_ti,2020.1.3,Win32,60,Chrome,1920,1080,,,,,,,,,,,,,,,,,,,,,,,,,,,,,,,,,,,,,0,1.70839,,,,,,,,,,,,,,,,,,,,,,,,,,,,,,,,,,,,,,,,,1,0,1,0,1,,,,,,,,,,,,,,,
,,,,,24,2020-07-03_13h08.11.729,retriever_ti,2020.1.3,Win32,60,Chrome,1920,1080,,,,,,,,,,,,,,,,,3,,,,,,,,,,,,,,,,,,,,,,,,,,,880.91932,155,right,1.03388,hat           ,2,8,-5,0,3,880.932265,880.932265,883.431065,0,0,0,0,1,155,7,2,holdfast    ,hat           ,html/resources/sequences_IDs/B/04_holdfast.jpg,html/resources/sequences_IDs/A/08_hat.jpg,4,8,2,1,3,2,3,7,0,24,,,,,,,,,,,,,,,,,,,,
,,,,,24,2020-07-03_13h08.11.729,retriever_ti,2020.1.3,Win32,60,Chrome,1920,1080,,,,,,,,,,,,,,,,,3,,,,,,,,,,,,,,,,,,,,,,,,,,,884.04841,156,left,0.877385,sport_tshirt,1,7,-5,0,3,884.06541,884.06541,886.564005,0,1,1,1,1,156,1,6,sport_tshirt,peacock       ,html/resources/sequences_IDs/B/07_sport_tshirt.jpg,html/resources/sequences_IDs/A/05_peacock.jpg,7,5,3,2,2,1,6,4,0,24,,,,,,,,,,,,,,,,,,,,
,,,,,24,2020-07-03_13h08.11.729,retriever_ti,2020.1.3,Win32,60,Chrome,1920,1080,,,,,,,,,,,,,,,,,3,,,,,,,,,,,,,,,,,,,,,,,,,,,887.180985,157,left,0.72767,scarf         ,8,6,6,1,3,887.19846,887.19846,889.696545,0,2,2,2,1,157,8,2,scarf         ,hat           ,html/resources/sequences_IDs/A/06_scarf.jpg,html/resources/sequences_IDs/A/08_hat.jpg,6,8,3,2,3,2,5,7,0,24,,,,,,,,,,,,,,,,,,,,
,,,,,24,2020-07-03_13h08.11.729,retriever_ti,2020.1.3,Win32,60,Chrome,1920,1080,,,,,,,,,,,,,,,,,3,,,,,,,,,,,,,,,,,,,,,,,,,,,890.313875,158,left,0.791255,scarf         ,8,6,1,1,1,890.34798,890.34798,892.84646,0,3,3,3,1,158,8,7,scarf         ,holdfast    ,html/resources/sequences_IDs/A/06_scarf.jpg,html/resources/sequences_IDs/B/04_holdfast.jpg,6,4,3,2,2,1,5,3,0,24,,,,,,,,,,,,,,,,,,,,
,,,,,24,2020-07-03_13h08.11.729,retriever_ti,2020.1.3,Win32,60,Chrome,1920,1080,,,,,,,,,,,,,,,,,3,,,,,,,,,,,,,,,,,,,,,,,,,,,893.946675,159,left,0.591385,phone       ,5,9,1,1,1,893.980715,893.980715,896.479265,0,4,4,4,1,159,5,4,phone       ,wolf          ,html/resources/sequences_IDs/B/09_phone.jpg,html/resources/sequences_IDs/A/01_wolf.jpg,9,1,4,2,1,1,8,1,0,24,,,,,,,,,,,,,,,,,,,,
,,,,,24,2020-07-03_13h08.11.729,retriever_ti,2020.1.3,Win32,60,Chrome,1920,1080,,,,,,,,,,,,,,,,,3,,,,,,,,,,,,,,,,,,,,,,,,,,,897.57978,160,right,0.86312,hat           ,2,8,-2,0,3,897.596295,897.596295,900.095335,0,5,5,5,1,160,4,2,wolf          ,hat           ,html/resources/sequences_IDs/A/01_wolf.jpg,html/resources/sequences_IDs/A/08_hat.jpg,1,8,1,1,3,2,1,7,0,24,,,,,,,,,,,,,,,,,,,,
,,,,,24,2020-07-03_13h08.11.729,retriever_ti,2020.1.3,Win32,60,Chrome,1920,1080,,,,,,,,,,,,,,,,,3,,,,,,,,,,,,,,,,,,,,,,,,,,,900.712395,161,left,0.567695,scarf         ,8,6,2,1,3,900.729725,900.729725,903.228225,0,6,6,6,1,161,8,6,scarf         ,peacock       ,html/resources/sequences_IDs/A/06_scarf.jpg,html/resources/sequences_IDs/A/05_peacock.jpg,6,5,3,2,2,1,5,4,0,24,,,,,,,,,,,,,,,,,,,,
,,,,,24,2020-07-03_13h08.11.729,retriever_ti,2020.1.3,Win32,60,Chrome,1920,1080,,,,,,,,,,,,,,,,,3,,,,,,,,,,,,,,,,,,,,,,,,,,,903.845615,162,right,0.775855,holdfast    ,7,4,1,1,0,903.86222,903.86222,906.36117,0,7,7,7,1,162,6,7,peacock       ,holdfast    ,html/resources/sequences_IDs/A/05_peacock.jpg,html/resources/sequences_IDs/B/04_holdfast.jpg,5,4,2,1,2,1,4,3,1,24,,,,,,,,,,,,,,,,,,,,
,,,,,24,2020-07-03_13h08.11.729,retriever_ti,2020.1.3,Win32,60,Chrome,1920,1080,,,,,,,,,,,,,,,,,3,,,,,,,,,,,,,,,,,,,,,,,,,,,907.461335,163,right,1.18131,sport_tshirt,1,7,-5,0,3,907.49552,907.49552,909.994045,0,8,8,8,1,163,6,1,peacock       ,sport_tshirt,html/resources/sequences_IDs/A/05_peacock.jpg,html/resources/sequences_IDs/B/07_sport_tshirt.jpg,5,7,2,1,3,2,4,6,0,24,,,,,,,,,,,,,,,,,,,,
,,,,,24,2020-07-03_13h08.11.729,retriever_ti,2020.1.3,Win32,60,Chrome,1920,1080,,,,,,,,,,,,,,,,,3,,,,,,,,,,,,,,,,,,,,,,,,,,,910.611285,164,left,0.654475,scarf         ,8,6,1,1,0,910.62776,910.62776,913.12655,0,9,9,9,1,164,8,7,scarf         ,holdfast    ,html/resources/sequences_IDs/A/06_scarf.jpg,html/resources/sequences_IDs/B/04_holdfast.jpg,6,4,3,2,2,1,5,3,1,24,,,,,,,,,,,,,,,,,,,,
,,,,,24,2020-07-03_13h08.11.729,retriever_ti,2020.1.3,Win32,60,Chrome,1920,1080,,,,,,,,,,,,,,,,,3,,,,,,,,,,,,,,,,,,,,,,,,,,,914.226795,165,left,0.82097,giraffe     ,3,3,1,1,1,914.260575,914.260575,916.75977,0,10,10,10,1,165,3,2,giraffe     ,hat           ,html/resources/sequences_IDs/B/03_giraffe.jpg,html/resources/sequences_IDs/A/08_hat.jpg,3,8,1,1,3,2,2,7,0,24,,,,,,,,,,,,,,,,,,,,
,,,,,24,2020-07-03_13h08.11.729,retriever_ti,2020.1.3,Win32,60,Chrome,1920,1080,,,,,,,,,,,,,,,,,3,,,,,,,,,,,,,,,,,,,,,,,,,,,917.86048,166,right,0.92696,wolf          ,4,1,1,1,1,917.893455,917.893455,920.392215,0,11,11,11,1,166,3,4,giraffe     ,wolf          ,html/resources/sequences_IDs/B/03_giraffe.jpg,html/resources/sequences_IDs/A/01_wolf.jpg,3,1,1,1,1,1,2,1,0,24,,,,,,,,,,,,,,,,,,,,
,,,,,24,2020-07-03_13h08.11.729,retriever_ti,2020.1.3,Win32,60,Chrome,1920,1080,,,,,,,,,,,,,,,,,3,,,,,,,,,,,,,,,,,,,,,,,,,,,921.4929,167,left,0.96127,hat           ,2,8,-5,0,3,921.52629,921.52629,924.02529,0,12,12,12,1,167,2,7,hat           ,holdfast    ,html/resources/sequences_IDs/A/08_hat.jpg,html/resources/sequences_IDs/B/04_holdfast.jpg,8,4,3,2,2,1,7,3,0,24,,,,,,,,,,,,,,,,,,,,
,,,,,24,2020-07-03_13h08.11.729,retriever_ti,2020.1.3,Win32,60,Chrome,1920,1080,,,,,,,,,,,,,,,,,3,,,,,,,,,,,,,,,,,,,,,,,,,,,924.642425,168,right,0.633645,scarf         ,8,6,6,1,3,924.65925,924.65925,927.158265,0,13,13,13,1,168,2,8,hat           ,scarf         ,html/resources/sequences_IDs/A/08_hat.jpg,html/resources/sequences_IDs/A/06_scarf.jpg,8,6,3,2,3,2,7,5,0,24,,,,,,,,,,,,,,,,,,,,
,,,,,24,2020-07-03_13h08.11.729,retriever_ti,2020.1.3,Win32,60,Chrome,1920,1080,,,,,,,,,,,,,,,,,3,,,,,,,,,,,,,,,,,,,,,,,,,,,927.77486,169,left,0.732045,holdfast    ,7,4,1,1,1,927.79247,927.79247,930.290915,0,14,14,14,1,169,7,6,holdfast    ,peacock       ,html/resources/sequences_IDs/B/04_holdfast.jpg,html/resources/sequences_IDs/A/05_peacock.jpg,4,5,2,1,2,1,3,4,0,24,,,,,,,,,,,,,,,,,,,,
,,,,,24,2020-07-03_13h08.11.729,retriever_ti,2020.1.3,Win32,60,Chrome,1920,1080,,,,,,,,,,,,,,,,,3,,,,,,,,,,,,,,,,,,,,,,,,,,,931.391605,170,left,0.647935,phone       ,5,9,1,1,1,931.40821,931.40821,933.90746,0,15,15,15,1,170,5,4,phone       ,wolf          ,html/resources/sequences_IDs/B/09_phone.jpg,html/resources/sequences_IDs/A/01_wolf.jpg,9,1,4,2,1,1,8,1,0,24,,,,,,,,,,,,,,,,,,,,
,,,,,24,2020-07-03_13h08.11.729,retriever_ti,2020.1.3,Win32,60,Chrome,1920,1080,,,,,,,,,,,,,,,,,3,,,,,,,,,,,,,,,,,,,,,,,,,,,935.00739,171,right,0.566885,scarf         ,8,6,1,1,1,935.041775,935.041775,937.53981,0,16,16,16,1,171,7,8,holdfast    ,scarf         ,html/resources/sequences_IDs/B/04_holdfast.jpg,html/resources/sequences_IDs/A/06_scarf.jpg,4,6,2,1,3,2,3,5,0,24,,,,,,,,,,,,,,,,,,,,
,,,,,24,2020-07-03_13h08.11.729,retriever_ti,2020.1.3,Win32,60,Chrome,1920,1080,,,,,,,,,,,,,,,,,3,,,,,,,,,,,,,,,,,,,,,,,,,,,938.64051,172,right,0.650635,scarf         ,8,6,3,1,3,938.657725,938.657725,941.156065,0,17,17,17,1,172,5,8,phone       ,scarf         ,html/resources/sequences_IDs/B/09_phone.jpg,html/resources/sequences_IDs/A/06_scarf.jpg,9,6,4,2,3,2,8,5,0,24,,,,,,,,,,,,,,,,,,,,
,,,,,24,2020-07-03_13h08.11.729,retriever_ti,2020.1.3,Win32,60,Chrome,1920,1080,,,,,,,,,,,,,,,,,3,,,,,,,,,,,,,,,,,,,,,,,,,,,941.773015,173,right,0.80844,scarf         ,8,6,4,1,3,941.80738,941.80738,944.30562,0,18,18,18,1,173,4,8,wolf          ,scarf         ,html/resources/sequences_IDs/A/01_wolf.jpg,html/resources/sequences_IDs/A/06_scarf.jpg,1,6,1,1,3,2,1,5,0,24,,,,,,,,,,,,,,,,,,,,
,,,,,24,2020-07-03_13h08.11.729,retriever_ti,2020.1.3,Win32,60,Chrome,1920,1080,,,,,,,,,,,,,,,,,3,,,,,,,,,,,,,,,,,,,,,,,,,,,944.923265,174,left,1.054175,wolf          ,4,1,-3,0,3,944.956325,944.956325,947.45555,0,19,19,19,1,174,4,7,wolf          ,holdfast    ,html/resources/sequences_IDs/A/01_wolf.jpg,html/resources/sequences_IDs/B/04_holdfast.jpg,1,4,1,1,2,1,1,3,0,24,,,,,,,,,,,,,,,,,,,,
,,,,,24,2020-07-03_13h08.11.729,retriever_ti,2020.1.3,Win32,60,Chrome,1920,1080,,,,,,,,,,,,,,,,,3,,,,,,,,,,,,,,,,,,,,,,,,,,,948.07216,175,left,1.23556,wolf          ,4,1,3,1,3,948.089175,948.089175,950.588055,0,20,20,20,1,175,4,1,wolf          ,sport_tshirt,html/resources/sequences_IDs/A/01_wolf.jpg,html/resources/sequences_IDs/B/07_sport_tshirt.jpg,1,7,1,1,3,2,1,6,0,24,,,,,,,,,,,,,,,,,,,,
,,,,,24,2020-07-03_13h08.11.729,retriever_ti,2020.1.3,Win32,60,Chrome,1920,1080,,,,,,,,,,,,,,,,,3,,,,,,,,,,,,,,,,,,,,,,,,,,,951.20586,176,left,1.0663,hat           ,2,8,-1,0,1,951.222155,951.222155,953.720965,0,21,21,21,1,176,2,3,hat           ,giraffe     ,html/resources/sequences_IDs/A/08_hat.jpg,html/resources/sequences_IDs/B/03_giraffe.jpg,8,3,3,2,1,1,7,2,1,24,,,,,,,,,,,,,,,,,,,,
,,,,,24,2020-07-03_13h08.11.729,retriever_ti,2020.1.3,Win32,60,Chrome,1920,1080,,,,,,,,,,,,,,,,,3,,,,,,,,,,,,,,,,,,,,,,,,,,,954.8216,177,right,1.05511,scarf         ,8,6,1,1,1,954.85498,954.85498,957.35372,0,22,22,22,1,177,7,8,holdfast    ,scarf         ,html/resources/sequences_IDs/B/04_holdfast.jpg,html/resources/sequences_IDs/A/06_scarf.jpg,4,6,2,1,3,2,3,5,0,24,,,,,,,,,,,,,,,,,,,,
,,,,,24,2020-07-03_13h08.11.729,retriever_ti,2020.1.3,Win32,60,Chrome,1920,1080,,,,,,,,,,,,,,,,,3,,,,,,,,,,,,,,,,,,,,,,,,,,,958.45426,178,right,0.907655,phone       ,5,9,-3,0,3,958.487865,958.487865,960.986555,0,23,23,23,1,178,8,5,scarf         ,phone       ,html/resources/sequences_IDs/A/06_scarf.jpg,html/resources/sequences_IDs/B/09_phone.jpg,6,9,3,2,4,2,5,8,0,24,,,,,,,,,,,,,,,,,,,,
,,,,,24,2020-07-03_13h08.11.729,retriever_ti,2020.1.3,Win32,60,Chrome,1920,1080,,,,,,,,,,,,,,,,,3,,,,,,,,,,,,,,,,,,,,,,,,,,,961.603445,179,left,1.466525,scarf         ,8,6,7,1,3,961.62069,961.62069,964.119725,0,24,24,24,1,179,8,1,scarf         ,sport_tshirt,html/resources/sequences_IDs/A/06_scarf.jpg,html/resources/sequences_IDs/B/07_sport_tshirt.jpg,6,7,3,2,3,2,5,6,0,24,,,,,,,,,,,,,,,,,,,,
,,,,,24,2020-07-03_13h08.11.729,retriever_ti,2020.1.3,Win32,60,Chrome,1920,1080,,,,,,,,,,,,,,,,,3,,,,,,,,,,,,,,,,,,,,,,,,,,,964.73695,180,left,0.9598,hat           ,2,8,1,1,1,964.75383,964.75383,967.252325,0,25,25,25,1,180,2,1,hat           ,sport_tshirt,html/resources/sequences_IDs/A/08_hat.jpg,html/resources/sequences_IDs/B/07_sport_tshirt.jpg,8,7,3,2,3,2,7,6,0,24,,,,,,,,,,,,,,,,,,,,
,,,,,24,2020-07-03_13h08.11.729,retriever_ti,2020.1.3,Win32,60,Chrome,1920,1080,,,,,,,,,,,,,,,,,3,,,,,,,,,,,,,,,,,,,,,,,,,,,968.352665,181,left,0.720885,giraffe     ,3,3,-4,0,3,968.387115,968.387115,970.885205,0,26,26,26,1,181,3,7,giraffe     ,holdfast    ,html/resources/sequences_IDs/B/03_giraffe.jpg,html/resources/sequences_IDs/B/04_holdfast.jpg,3,4,1,1,2,1,2,3,0,24,,,,,,,,,,,,,,,,,,,,
,,,,,24,2020-07-03_13h08.11.729,retriever_ti,2020.1.3,Win32,60,Chrome,1920,1080,,,,,,,,,,,,,,,,,3,,,,,,,,,,,,,,,,,,,,,,,,,,,971.50308,182,right,0.57548,phone       ,5,9,4,1,3,971.51923,971.51923,974.01805,0,27,27,27,1,182,1,5,sport_tshirt,phone       ,html/resources/sequences_IDs/B/07_sport_tshirt.jpg,html/resources/sequences_IDs/B/09_phone.jpg,7,9,3,2,4,2,6,8,0,24,,,,,,,,,,,,,,,,,,,,
,,,,,24,2020-07-03_13h08.11.729,retriever_ti,2020.1.3,Win32,60,Chrome,1920,1080,,,,,,,,,,,,,,,,,3,,,,,,,,,,,,,,,,,,,,,,,,,,,974.635445,183,right,0.7097,phone       ,5,9,-2,0,3,974.65227,974.65227,977.15125,0,28,28,28,1,183,7,5,holdfast    ,phone       ,html/resources/sequences_IDs/B/04_holdfast.jpg,html/resources/sequences_IDs/B/09_phone.jpg,4,9,2,1,4,2,3,8,0,24,,,,,,,,,,,,,,,,,,,,
,,,,,24,2020-07-03_13h08.11.729,retriever_ti,2020.1.3,Win32,60,Chrome,1920,1080,,,,,,,,,,,,,,,,,3,,,,,,,,,,,,,,,,,,,,,,,,,,,977.768875,184,left,0.664325,hat           ,2,8,-1,0,0,977.80226,977.80226,980.300845,0,29,29,29,1,184,2,3,hat           ,giraffe     ,html/resources/sequences_IDs/A/08_hat.jpg,html/resources/sequences_IDs/B/03_giraffe.jpg,8,3,3,2,1,1,7,2,0,24,,,,,,,,,,,,,,,,,,,,
,,,,,24,2020-07-03_13h08.11.729,retriever_ti,2020.1.3,Win32,60,Chrome,1920,1080,,,,,,,,,,,,,,,,,3,,,,,,,,,,,,,,,,,,,,,,,,,,,981.40126,185,right,0.960815,holdfast    ,7,4,6,1,3,981.417925,981.417925,983.91694,0,30,30,30,1,185,1,7,sport_tshirt,holdfast    ,html/resources/sequences_IDs/B/07_sport_tshirt.jpg,html/resources/sequences_IDs/B/04_holdfast.jpg,7,4,3,2,2,1,6,3,0,24,,,,,,,,,,,,,,,,,,,,
,,,,,24,2020-07-03_13h08.11.729,retriever_ti,2020.1.3,Win32,60,Chrome,1920,1080,,,,,,,,,,,,,,,,,3,,,,,,,,,,,,,,,,,,,,,,,,,,,984.534435,186,right,0.66708,phone       ,5,9,2,1,3,984.568325,984.568325,987.0666,0,31,31,31,1,186,3,5,giraffe     ,phone       ,html/resources/sequences_IDs/B/03_giraffe.jpg,html/resources/sequences_IDs/B/09_phone.jpg,3,9,1,1,4,2,2,8,0,24,,,,,,,,,,,,,,,,,,,,
,,,,,24,2020-07-03_13h08.11.729,retriever_ti,2020.1.3,Win32,60,Chrome,1920,1080,,,,,,,,,,,,,,,,,3,,,,,,,,,,,,,,,,,,,,,,,,,,,987.68385,187,left,0.632765,phone       ,5,9,-1,0,0,987.717245,987.717245,990.21636,0,32,32,32,1,187,5,6,phone       ,peacock       ,html/resources/sequences_IDs/B/09_phone.jpg,html/resources/sequences_IDs/A/05_peacock.jpg,9,5,4,2,2,1,8,4,0,24,,,,,,,,,,,,,,,,,,,,
,,,,,24,2020-07-03_13h08.11.729,retriever_ti,2020.1.3,Win32,60,Chrome,1920,1080,,,,,,,,,,,,,,,,,3,,,,,,,,,,,,,,,,,,,,,,,,,,,991.317365,188,left,1.103165,peacock       ,6,5,1,1,1,991.35051,991.35051,993.84898,0,33,33,33,1,188,6,5,peacock       ,phone       ,html/resources/sequences_IDs/A/05_peacock.jpg,html/resources/sequences_IDs/B/09_phone.jpg,5,9,2,1,4,2,4,8,0,24,,,,,,,,,,,,,,,,,,,,
,,,,,24,2020-07-03_13h08.11.729,retriever_ti,2020.1.3,Win32,60,Chrome,1920,1080,,,,,,,,,,,,,,,,,3,,,,,,,,,,,,,,,,,,,,,,,,,,,994.948815,189,left,0.744425,hat           ,2,8,-2,0,3,994.983265,994.983265,997.481575,0,34,34,34,1,189,2,4,hat           ,wolf          ,html/resources/sequences_IDs/A/08_hat.jpg,html/resources/sequences_IDs/A/01_wolf.jpg,8,1,3,2,1,1,7,1,0,24,,,,,,,,,,,,,,,,,,,,
,,,,,24,2020-07-03_13h08.11.729,retriever_ti,2020.1.3,Win32,60,Chrome,1920,1080,,,,,,,,,,,,,,,,,3,,,,,,,,,,,,,,,,,,,,,,,,,,,998.09924,190,left,0.684775,peacock       ,6,5,-1,0,0,998.11649,998.11649,1000.614725,0,35,35,35,1,190,6,7,peacock       ,holdfast    ,html/resources/sequences_IDs/A/05_peacock.jpg,html/resources/sequences_IDs/B/04_holdfast.jpg,5,4,2,1,2,1,4,3,0,24,,,,,,,,,,,,,,,,,,,,
,,,,,24,2020-07-03_13h08.11.729,retriever_ti,2020.1.3,Win32,60,Chrome,1920,1080,,,,,,,,,,,,,,,,,3,,,,,,,,,,,,,,,,,,,,,,,,,,,1001.71521,191,right,0.6084,scarf         ,8,6,5,1,3,1001.749065,1001.749065,1004.24723,0,36,36,36,1,191,3,8,giraffe     ,scarf         ,html/resources/sequences_IDs/B/03_giraffe.jpg,html/resources/sequences_IDs/A/06_scarf.jpg,3,6,1,1,3,2,2,5,0,24,,,,,,,,,,,,,,,,,,,,
,,,,,24,2020-07-03_13h08.11.729,retriever_ti,2020.1.3,Win32,60,Chrome,1920,1080,,,,,,,,,,,,,,,,,3,,,,,,,,,,,,,,,,,,,,,,,,,,,1004.864695,192,left,0.950585,hat           ,2,8,1,1,0,1004.88161,1004.88161,1007.38041,0,37,37,37,1,192,2,1,hat           ,sport_tshirt,html/resources/sequences_IDs/A/08_hat.jpg,html/resources/sequences_IDs/B/07_sport_tshirt.jpg,8,7,3,2,3,2,7,6,1,24,,,,,,,,,,,,,,,,,,,,
,,,,,24,2020-07-03_13h08.11.729,retriever_ti,2020.1.3,Win32,60,Chrome,1920,1080,,,,,,,,,,,,,,,,,3,,,,,,,,,,,,,,,,,,,,,,,,,,,1008.48069,193,right,0.741765,wolf          ,4,1,-3,0,3,1008.497435,1008.497435,1010.996235,0,38,38,38,1,193,7,4,holdfast    ,wolf          ,html/resources/sequences_IDs/B/04_holdfast.jpg,html/resources/sequences_IDs/A/01_wolf.jpg,4,1,2,1,1,1,3,1,0,24,,,,,,,,,,,,,,,,,,,,
,,,,,24,2020-07-03_13h08.11.729,retriever_ti,2020.1.3,Win32,60,Chrome,1920,1080,,,,,,,,,,,,,,,,,3,,,,,,,,,,,,,,,,,,,,,,,,,,,1011.59726,194,right,1.16295,wolf          ,4,1,3,1,3,1011.630325,1011.630325,1014.12922,0,39,39,39,1,194,1,4,sport_tshirt,wolf          ,html/resources/sequences_IDs/B/07_sport_tshirt.jpg,html/resources/sequences_IDs/A/01_wolf.jpg,7,1,3,2,1,1,6,1,0,24,,,,,,,,,,,,,,,,,,,,
,,,,,24,2020-07-03_13h08.11.729,retriever_ti,2020.1.3,Win32,60,Chrome,1920,1080,,,,,,,,,,,,,,,,,3,,,,,,,,,,,,,,,,,,,,,,,,,,,1014.746045,195,left,0.70756,scarf         ,8,6,5,1,3,1014.780455,1014.780455,1017.27905,0,40,40,40,1,195,8,3,scarf         ,giraffe     ,html/resources/sequences_IDs/A/06_scarf.jpg,html/resources/sequences_IDs/B/03_giraffe.jpg,6,3,3,2,1,1,5,2,0,24,,,,,,,,,,,,,,,,,,,,
,,,,,24,2020-07-03_13h08.11.729,retriever_ti,2020.1.3,Win32,60,Chrome,1920,1080,,,,,,,,,,,,,,,,,3,,,,,,,,,,,,,,,,,,,,,,,,,,,1017.896505,196,right,1.0422,scarf         ,8,6,2,1,3,1017.91281,1017.91281,1020.411975,0,41,41,41,1,196,6,8,peacock       ,scarf         ,html/resources/sequences_IDs/A/05_peacock.jpg,html/resources/sequences_IDs/A/06_scarf.jpg,5,6,2,1,3,2,4,5,0,24,,,,,,,,,,,,,,,,,,,,
,,,,,24,2020-07-03_13h08.11.729,retriever_ti,2020.1.3,Win32,60,Chrome,1920,1080,,,,,,,,,,,,,,,,,3,,,,,,,,,,,,,,,,,,,,,,,,,,,1021.02886,197,left,0.940865,phone       ,5,9,-1,0,1,1021.06303,1021.06303,1023.56144,0,42,42,42,1,197,5,6,phone       ,peacock       ,html/resources/sequences_IDs/B/09_phone.jpg,html/resources/sequences_IDs/A/05_peacock.jpg,9,5,4,2,2,1,8,4,1,24,,,,,,,,,,,,,,,,,,,,
,,,,,24,2020-07-03_13h08.11.729,retriever_ti,2020.1.3,Win32,60,Chrome,1920,1080,,,,,,,,,,,,,,,,,3,,,,,,,,,,,,,,,,,,,,,,,,,,,1024.66216,198,right,0.9632,sport_tshirt,1,7,-6,0,3,1024.67854,1024.67854,1027.177585,0,43,43,43,1,198,7,1,holdfast    ,sport_tshirt,html/resources/sequences_IDs/B/04_holdfast.jpg,html/resources/sequences_IDs/B/07_sport_tshirt.jpg,4,7,2,1,3,2,3,6,0,24,,,,,,,,,,,,,,,,,,,,
,,,,,24,2020-07-03_13h08.11.729,retriever_ti,2020.1.3,Win32,60,Chrome,1920,1080,,,,,,,,,,,,,,,,,3,,,,,,,,,,,,,,,,,,,,,,,,,,,1027.794725,199,left,0.618215,phone       ,5,9,1,1,0,1027.8114,1027.8114,1030.31033,0,44,44,44,1,199,5,4,phone       ,wolf          ,html/resources/sequences_IDs/B/09_phone.jpg,html/resources/sequences_IDs/A/01_wolf.jpg,9,1,4,2,1,1,8,1,1,24,,,,,,,,,,,,,,,,,,,,
,,,,,24,2020-07-03_13h08.11.729,retriever_ti,2020.1.3,Win32,60,Chrome,1920,1080,,,,,,,,,,,,,,,,,3,,,,,,,,,,,,,,,,,,,,,,,,,,,1031.41125,200,right,0.56171,hat           ,2,8,1,1,1,1031.44449,1031.44449,1033.94314,0,45,45,45,1,200,1,2,sport_tshirt,hat           ,html/resources/sequences_IDs/B/07_sport_tshirt.jpg,html/resources/sequences_IDs/A/08_hat.jpg,7,8,3,2,3,2,6,7,0,24,,,,,,,,,,,,,,,,,,,,
,,,,,24,2020-07-03_13h08.11.729,retriever_ti,2020.1.3,Win32,60,Chrome,1920,1080,,,,,,,,,,,,,,,,,3,,,,,,,,,,,,,,,,,,,,,,,,,,,1035.04365,201,right,0.648835,hat           ,2,8,1,1,1,1035.077685,1035.077685,1037.5759,0,46,46,46,1,201,1,2,sport_tshirt,hat           ,html/resources/sequences_IDs/B/07_sport_tshirt.jpg,html/resources/sequences_IDs/A/08_hat.jpg,7,8,3,2,3,2,6,7,0,24,,,,,,,,,,,,,,,,,,,,
,,,,,24,2020-07-03_13h08.11.729,retriever_ti,2020.1.3,Win32,60,Chrome,1920,1080,,,,,,,,,,,,,,,,,3,,,,,,,,,,,,,,,,,,,,,,,,,,,1038.67645,202,right,0.911405,hat           ,2,8,-4,0,3,1038.693275,1038.693275,1041.192045,0,47,47,47,1,202,6,2,peacock       ,hat           ,html/resources/sequences_IDs/A/05_peacock.jpg,html/resources/sequences_IDs/A/08_hat.jpg,5,8,2,1,3,2,4,7,0,24,,,,,,,,,,,,,,,,,,,,
,,,,,24,2020-07-03_13h08.11.729,retriever_ti,2020.1.3,Win32,60,Chrome,1920,1080,,,,,,,,,,,,,,,,,3,,,,,,,,,,,,,,,,,,,,,,,,,,,1041.80943,203,right,0.599755,phone       ,5,9,1,1,1,1041.84344,1041.84344,1044.34201,0,48,48,48,1,203,4,5,wolf          ,phone       ,html/resources/sequences_IDs/A/01_wolf.jpg,html/resources/sequences_IDs/B/09_phone.jpg,1,9,1,1,4,2,1,8,0,24,,,,,,,,,,,,,,,,,,,,
,,,,,24,2020-07-03_13h08.11.729,retriever_ti,2020.1.3,Win32,60,Chrome,1920,1080,,,,,,,,,,,,,,,,,3,,,,,,,,,,,,,,,,,,,,,,,,,,,1045.44217,204,left,1.099235,sport_tshirt,1,7,-7,0,3,1045.459625,1045.459625,1047.958055,0,49,49,49,1,204,1,8,sport_tshirt,scarf         ,html/resources/sequences_IDs/B/07_sport_tshirt.jpg,html/resources/sequences_IDs/A/06_scarf.jpg,7,6,3,2,3,2,6,5,0,24,,,,,,,,,,,,,,,,,,,,
,,,,,24,2020-07-03_13h08.11.729,retriever_ti,2020.1.3,Win32,60,Chrome,1920,1080,,,,,,,,,,,,,,,,,3,,,,,,,,,,,,,,,,,,,,,,,,,,,1048.57493,205,right,1.254425,wolf          ,4,1,1,1,1,1048.608655,1048.608655,1051.107605,0,50,50,50,1,205,3,4,giraffe     ,wolf          ,html/resources/sequences_IDs/B/03_giraffe.jpg,html/resources/sequences_IDs/A/01_wolf.jpg,3,1,1,1,1,1,2,1,0,24,,,,,,,,,,,,,,,,,,,,
,,,,,24,2020-07-03_13h08.11.729,retriever_ti,2020.1.3,Win32,60,Chrome,1920,1080,,,,,,,,,,,,,,,,,3,,,,,,,,,,,,,,,,,,,,,,,,,,,1052.20838,206,left,1.08,phone       ,5,9,3,1,3,1052.241975,1052.241975,1054.74019,0,51,51,51,1,206,5,2,phone       ,hat           ,html/resources/sequences_IDs/B/09_phone.jpg,html/resources/sequences_IDs/A/08_hat.jpg,9,8,4,2,3,2,8,7,0,24,,,,,,,,,,,,,,,,,,,,
,,,,,24,2020-07-03_13h08.11.729,retriever_ti,2020.1.3,Win32,60,Chrome,1920,1080,,,,,,,,,,,,,,,,,3,,,,,,,,,,,,,,,,,,,,,,,,,,,1055.357495,207,right,0.979495,phone       ,5,9,-1,0,0,1055.39153,1055.39153,1057.89004,0,52,52,52,1,207,6,5,peacock       ,phone       ,html/resources/sequences_IDs/A/05_peacock.jpg,html/resources/sequences_IDs/B/09_phone.jpg,5,9,2,1,4,2,4,8,0,24,,,,,,,,,,,,,,,,,,,,
,,,,,24,2020-07-03_13h08.11.729,retriever_ti,2020.1.3,Win32,60,Chrome,1920,1080,,,,,,,,,,,,,,,,,3,,,,,,,,,,,,,,,,,,,,,,,,,,,1058.990765,208,left,1.044075,wolf          ,4,1,-1,0,0,1059.007,1059.007,1061.506085,0,53,53,53,1,208,4,5,wolf          ,phone       ,html/resources/sequences_IDs/A/01_wolf.jpg,html/resources/sequences_IDs/B/09_phone.jpg,1,9,1,1,4,2,1,8,0,24,,,,,,,,,,,,,,,,,,,,
,,,,,24,2020-07-03_13h08.11.729,retriever_ti,2020.1.3,Win32,60,Chrome,1920,1080,,,,,,,,,,,,,,,,,3,,,,,,,,,,,,,,,,,,,,,,,,,,,1062.606005,209,left,0.907835,giraffe     ,3,3,2,1,3,1062.623835,1062.623835,1065.122485,0,54,54,54,1,209,3,1,giraffe     ,sport_tshirt,html/resources/sequences_IDs/B/03_giraffe.jpg,html/resources/sequences_IDs/B/07_sport_tshirt.jpg,3,7,1,1,3,2,2,6,0,24,,,,,,,,,,,,,,,,,,,,
,,,,,24,2020-07-03_13h08.11.729,retriever_ti,2020.1.3,Win32,60,Chrome,1920,1080,,,,,,,,,,,,,,,,,3,,,,,,,,,,,,,,,,,,,,,,,,,,,1065.739725,210,right,1.385395,giraffe     ,3,3,-1,0,0,1065.772895,1065.772895,1068.271725,0,55,55,55,1,210,4,3,wolf          ,giraffe     ,html/resources/sequences_IDs/A/01_wolf.jpg,html/resources/sequences_IDs/B/03_giraffe.jpg,1,3,1,1,1,1,1,2,0,24,,,,,,,,,,,,,,,,,,,,
,,,,,24,2020-07-03_13h08.11.729,retriever_ti,2020.1.3,Win32,60,Chrome,1920,1080,,,,,,,,,,,,,,,,,3,,,,,,,,,,,,,,,,,,,,,,,,,,,1069.37175,211,left,0.69761,phone       ,5,9,-2,0,3,1069.389725,1069.389725,1071.88772,0,56,56,56,1,211,5,7,phone       ,holdfast    ,html/resources/sequences_IDs/B/09_phone.jpg,html/resources/sequences_IDs/B/04_holdfast.jpg,9,4,4,2,2,1,8,3,0,24,,,,,,,,,,,,,,,,,,,,
,,,,,24,2020-07-03_13h08.11.729,retriever_ti,2020.1.3,Win32,60,Chrome,1920,1080,,,,,,,,,,,,,,,,,3,,,,,,,,,,,,,,,,,,,,,,,,,,,1072.48942,212,left,0.70087,hat           ,2,8,-4,0,3,1072.50516,1072.50516,1075.004375,0,57,57,57,1,212,2,6,hat           ,peacock       ,html/resources/sequences_IDs/A/08_hat.jpg,html/resources/sequences_IDs/A/05_peacock.jpg,8,5,3,2,2,1,7,4,0,24,,,,,,,,,,,,,,,,,,,,
,,,,,24,2020-07-03_13h08.11.729,retriever_ti,2020.1.3,Win32,60,Chrome,1920,1080,,,,,,,,,,,,,,,,,3,,,,,,,,,,,,,,,,,,,,,,,,,,,1075.621425,213,left,0.918135,sport_tshirt,1,7,-2,0,3,1075.637985,1075.637985,1078.136825,0,58,58,58,1,213,1,3,sport_tshirt,giraffe     ,html/resources/sequences_IDs/B/07_sport_tshirt.jpg,html/resources/sequences_IDs/B/03_giraffe.jpg,7,3,3,2,1,1,6,2,0,24,,,,,,,,,,,,,,,,,,,,
,,,,,24,2020-07-03_13h08.11.729,retriever_ti,2020.1.3,Win32,60,Chrome,1920,1080,,,,,,,,,,,,,,,,,3,,,,,,,,,,,,,,,,,,,,,,,,,,,1078.75447,214,right,1.325325,sport_tshirt,1,7,-1,0,0,1078.77152,1078.77152,1081.26971,0,59,59,59,1,214,2,1,hat           ,sport_tshirt,html/resources/sequences_IDs/A/08_hat.jpg,html/resources/sequences_IDs/B/07_sport_tshirt.jpg,8,7,3,2,3,2,7,6,0,24,,,,,,,,,,,,,,,,,,,,
,,,,,24,2020-07-03_13h08.11.729,retriever_ti,2020.1.3,Win32,60,Chrome,1920,1080,,,,,,,,,,,,,,,,,3,,,,,,,,,,,,,,,,,,,,,,,,,,,1082.36996,215,right,0.7161,peacock       ,6,5,-1,0,0,1082.40377,1082.40377,1084.902595,0,60,60,60,1,215,7,6,holdfast    ,peacock       ,html/resources/sequences_IDs/B/04_holdfast.jpg,html/resources/sequences_IDs/A/05_peacock.jpg,4,5,2,1,2,1,3,4,0,24,,,,,,,,,,,,,,,,,,,,
,,,,,24,2020-07-03_13h08.11.729,retriever_ti,2020.1.3,Win32,60,Chrome,1920,1080,,,,,,,,,,,,,,,,,3,,,,,,,,,,,,,,,,,,,,,,,,,,,1086.003655,216,left,1.02773,giraffe     ,3,3,-3,0,3,1086.02037,1086.02037,1088.51912,0,61,61,61,1,216,3,6,giraffe     ,peacock       ,html/resources/sequences_IDs/B/03_giraffe.jpg,html/resources/sequences_IDs/A/05_peacock.jpg,3,5,1,1,2,1,2,4,0,24,,,,,,,,,,,,,,,,,,,,
,,,,,24,2020-07-03_13h08.11.729,retriever_ti,2020.1.3,Win32,60,Chrome,1920,1080,,,,,,,,,,,,,,,,,3,,,,,,,,,,,,,,,,,,,,,,,,,,,1089.136185,217,left,0.646765,hat           ,2,8,-1,0,0,1089.16948,1089.16948,1091.66856,0,62,62,62,1,217,2,3,hat           ,giraffe     ,html/resources/sequences_IDs/A/08_hat.jpg,html/resources/sequences_IDs/B/03_giraffe.jpg,8,3,3,2,1,1,7,2,0,24,,,,,,,,,,,,,,,,,,,,
,,,,,24,2020-07-03_13h08.11.729,retriever_ti,2020.1.3,Win32,60,Chrome,1920,1080,,,,,,,,,,,,,,,,,3,,,,,,,,,,,,,,,,,,,,,,,,,,,1092.76934,218,left,0.691765,phone       ,5,9,-1,0,0,1092.785685,1092.785685,1095.284755,0,63,63,63,1,218,5,6,phone       ,peacock       ,html/resources/sequences_IDs/B/09_phone.jpg,html/resources/sequences_IDs/A/05_peacock.jpg,9,5,4,2,2,1,8,4,0,24,,,,,,,,,,,,,,,,,,,,
,,,,,24,2020-07-03_13h08.11.729,retriever_ti,2020.1.3,Win32,60,Chrome,1920,1080,,,,,,,,,,,,,,,,,3,,,,,,,,,,,,,,,,,,,,,,,,,,,1096.385015,219,right,0.926785,peacock       ,6,5,2,1,3,1096.401825,1096.401825,1098.90093,0,64,64,64,1,219,4,6,wolf          ,peacock       ,html/resources/sequences_IDs/A/01_wolf.jpg,html/resources/sequences_IDs/A/05_peacock.jpg,1,5,1,1,2,1,1,4,0,24,,,,,,,,,,,,,,,,,,,,
,,,,,24,2020-07-03_13h08.11.729,retriever_ti,2020.1.3,Win32,60,Chrome,1920,1080,,,,,,,,,,,,,,,,,3,,,,,,,,,,,,,,,,,,,,,,,,,,,1099.51839,220,left,1.36995,giraffe     ,3,3,1,1,1,1099.55136,1099.55136,1102.050475,0,65,65,65,1,220,3,2,giraffe     ,hat           ,html/resources/sequences_IDs/B/03_giraffe.jpg,html/resources/sequences_IDs/A/08_hat.jpg,3,8,1,1,3,2,2,7,0,24,,,,,,,,,,,,,,,,,,,,
,,,,,24,2020-07-03_13h08.11.729,retriever_ti,2020.1.3,Win32,60,Chrome,1920,1080,,,,,,,,,,,,,,,,,3,,,,,,,,,,,,,,,,,,,,,,,,,,,1103.15088,221,right,1.07705,sport_tshirt,1,7,-4,0,3,1103.167525,1103.167525,1105.66658,0,66,66,66,1,221,5,1,phone       ,sport_tshirt,html/resources/sequences_IDs/B/09_phone.jpg,html/resources/sequences_IDs/B/07_sport_tshirt.jpg,9,7,4,2,3,2,8,6,0,24,,,,,,,,,,,,,,,,,,,,
,,,,,24,2020-07-03_13h08.11.729,retriever_ti,2020.1.3,Win32,60,Chrome,1920,1080,,,,,,,,,,,,,,,,,3,,,,,,,,,,,,,,,,,,,,,,,,,,,1106.283685,222,right,1.058315,holdfast    ,7,4,1,1,1,1106.30105,1106.30105,1108.799245,0,67,67,67,1,222,6,7,peacock       ,holdfast    ,html/resources/sequences_IDs/A/05_peacock.jpg,html/resources/sequences_IDs/B/04_holdfast.jpg,5,4,2,1,2,1,4,3,0,24,,,,,,,,,,,,,,,,,,,,
,,,,,24,2020-07-03_13h08.11.729,retriever_ti,2020.1.3,Win32,60,Chrome,1920,1080,,,,,,,,,,,,,,,,,3,,,,,,,,,,,,,,,,,,,,,,,,,,,1109.89947,223,left,1.068835,holdfast    ,7,4,4,1,3,1109.91662,1109.91662,1112.415365,0,68,68,68,1,223,7,3,holdfast    ,giraffe     ,html/resources/sequences_IDs/B/04_holdfast.jpg,html/resources/sequences_IDs/B/03_giraffe.jpg,4,3,2,1,1,1,3,2,0,24,,,,,,,,,,,,,,,,,,,,
