instructionsLoop.thisRepN,instructionsLoop.thisTrialN,instructionsLoop.thisN,instructionsLoop.thisIndex,instructionsLoop.ran,participant,date,expName,psychopyVersion,OS,frameRate,browser,xResolution,yResolution,fix_onset,tprac,practiceKey.keys,practiceKey.rt,pracitem_chosen_name,acc_practice,P1_onsetPrac,P2_onsetPrac,onsetFeedbPrac,practiceTrials.thisRepN,practiceTrials.thisTrialN,practiceTrials.thisN,practiceTrials.thisIndex,practiceTrials.ran,P1,P2,Block,LocItem1,LocItem2,NameItem1,NameItem2,key_respAC_prac.keys,key_respAC_prac.corr,key_respAC_prac.rt,AC_acc,Attentions.thisRepN,Attentions.thisTrialN,Attentions.thisN,Attentions.thisIndex,Attentions.ran,Stim,Loc1,Loc2,Loc3,Loc4,CorrAns,keyDisturbed.keys,keyDisturbed.rt,repPractice.thisRepN,repPractice.thisTrialN,repPractice.thisN,repPractice.thisIndex,repPractice.ran,fixcross_onsetMain,trialNumber,key_resp.keys,key_resp.rt,item_chosen_name,item_chosen_value,item_chosen_ID,diff_chosen_minus_reject,acc_real,acc_feedback,P1_onset,P2_onset,feedb_onset,trials.thisRepN,trials.thisTrialN,trials.thisN,trials.thisIndex,trials.ran,Trial,ValueP1,ValueP2,P1name,P2name,P1Loc,P2Loc,P1id,P2id,Micro_categoryP1,Macro_categoryP1,Micro_categoryP2,Macro_categoryP2,ID_sequenceP1,ID_sequenceP2,InverseFb,pNumber,repBlocks.thisRepN,repBlocks.thisTrialN,repBlocks.thisN,repBlocks.thisIndex,repBlocks.ran,key_respAC.keys,key_respAC.corr,key_respAC.rt,trials_AC.thisRepN,trials_AC.thisTrialN,trials_AC.thisN,trials_AC.thisIndex,trials_AC.ran,Bonus,BonusLoop.thisRepN,BonusLoop.thisTrialN,BonusLoop.thisN,BonusLoop.thisIndex,BonusLoop.ran,comments
0,0,0,0,1,25,2020-07-03_13h12.12.404,retriever_ti,2020.1.3,MacIntel,60,Chrome,1440,900,,,,,,,,,,,,,,,,,,,,,,,,,,,,,,,,,,,,,,,,,,,,,,,,,,,,,,,,,,,,,,,,,,,,,,,,,,,,,,,,,,,,,,,,,,,,,,,,,,
1,0,1,0,1,25,2020-07-03_13h12.12.404,retriever_ti,2020.1.3,MacIntel,60,Chrome,1440,900,,,,,,,,,,,,,,,,,,,,,,,,,,,,,,,,,,,,,,,,,,,,,,,,,,,,,,,,,,,,,,,,,,,,,,,,,,,,,,,,,,,,,,,,,,,,,,,,,,
2,0,2,0,1,25,2020-07-03_13h12.12.404,retriever_ti,2020.1.3,MacIntel,60,Chrome,1440,900,,,,,,,,,,,,,,,,,,,,,,,,,,,,,,,,,,,,,,,,,,,,,,,,,,,,,,,,,,,,,,,,,,,,,,,,,,,,,,,,,,,,,,,,,,,,,,,,,,
3,0,3,0,1,25,2020-07-03_13h12.12.404,retriever_ti,2020.1.3,MacIntel,60,Chrome,1440,900,,,,,,,,,,,,,,,,,,,,,,,,,,,,,,,,,,,,,,,,,,,,,,,,,,,,,,,,,,,,,,,,,,,,,,,,,,,,,,,,,,,,,,,,,,,,,,,,,,
4,0,4,0,1,25,2020-07-03_13h12.12.404,retriever_ti,2020.1.3,MacIntel,60,Chrome,1440,900,,,,,,,,,,,,,,,,,,,,,,,,,,,,,,,,,,,,,,,,,,,,,,,,,,,,,,,,,,,,,,,,,,,,,,,,,,,,,,,,,,,,,,,,,,,,,,,,,,
5,0,5,0,1,25,2020-07-03_13h12.12.404,retriever_ti,2020.1.3,MacIntel,60,Chrome,1440,900,,,,,,,,,,,,,,,,,,,,,,,,,,,,,,,,,,,,,,,,,,,,,,,,,,,,,,,,,,,,,,,,,,,,,,,,,,,,,,,,,,,,,,,,,,,,,,,,,,
6,0,6,0,1,25,2020-07-03_13h12.12.404,retriever_ti,2020.1.3,MacIntel,60,Chrome,1440,900,,,,,,,,,,,,,,,,,,,,,,,,,,,,,,,,,,,,,,,,,,,,,,,,,,,,,,,,,,,,,,,,,,,,,,,,,,,,,,,,,,,,,,,,,,,,,,,,,,
7,0,7,0,1,25,2020-07-03_13h12.12.404,retriever_ti,2020.1.3,MacIntel,60,Chrome,1440,900,,,,,,,,,,,,,,,,,,,,,,,,,,,,,,,,,,,,,,,,,,,,,,,,,,,,,,,,,,,,,,,,,,,,,,,,,,,,,,,,,,,,,,,,,,,,,,,,,,
8,0,8,0,1,25,2020-07-03_13h12.12.404,retriever_ti,2020.1.3,MacIntel,60,Chrome,1440,900,,,,,,,,,,,,,,,,,,,,,,,,,,,,,,,,,,,,,,,,,,,,,,,,,,,,,,,,,,,,,,,,,,,,,,,,,,,,,,,,,,,,,,,,,,,,,,,,,,
9,0,9,0,1,25,2020-07-03_13h12.12.404,retriever_ti,2020.1.3,MacIntel,60,Chrome,1440,900,,,,,,,,,,,,,,,,,,,,,,,,,,,,,,,,,,,,,,,,,,,,,,,,,,,,,,,,,,,,,,,,,,,,,,,,,,,,,,,,,,,,,,,,,,,,,,,,,,
10,0,10,0,1,25,2020-07-03_13h12.12.404,retriever_ti,2020.1.3,MacIntel,60,Chrome,1440,900,,,,,,,,,,,,,,,,,,,,,,,,,,,,,,,,,,,,,,,,,,,,,,,,,,,,,,,,,,,,,,,,,,,,,,,,,,,,,,,,,,,,,,,,,,,,,,,,,,
11,0,11,0,1,25,2020-07-03_13h12.12.404,retriever_ti,2020.1.3,MacIntel,60,Chrome,1440,900,,,,,,,,,,,,,,,,,,,,,,,,,,,,,,,,,,,,,,,,,,,,,,,,,,,,,,,,,,,,,,,,,,,,,,,,,,,,,,,,,,,,,,,,,,,,,,,,,,
12,0,12,0,1,25,2020-07-03_13h12.12.404,retriever_ti,2020.1.3,MacIntel,60,Chrome,1440,900,,,,,,,,,,,,,,,,,,,,,,,,,,,,,,,,,,,,,,,,,,,,,,,,,,,,,,,,,,,,,,,,,,,,,,,,,,,,,,,,,,,,,,,,,,,,,,,,,,
13,0,13,0,1,25,2020-07-03_13h12.12.404,retriever_ti,2020.1.3,MacIntel,60,Chrome,1440,900,,,,,,,,,,,,,,,,,,,,,,,,,,,,,,,,,,,,,,,,,,,,,,,,,,,,,,,,,,,,,,,,,,,,,,,,,,,,,,,,,,,,,,,,,,,,,,,,,,
14,0,14,0,1,25,2020-07-03_13h12.12.404,retriever_ti,2020.1.3,MacIntel,60,Chrome,1440,900,,,,,,,,,,,,,,,,,,,,,,,,,,,,,,,,,,,,,,,,,,,,,,,,,,,,,,,,,,,,,,,,,,,,,,,,,,,,,,,,,,,,,,,,,,,,,,,,,,
15,0,15,0,1,25,2020-07-03_13h12.12.404,retriever_ti,2020.1.3,MacIntel,60,Chrome,1440,900,,,,,,,,,,,,,,,,,,,,,,,,,,,,,,,,,,,,,,,,,,,,,,,,,,,,,,,,,,,,,,,,,,,,,,,,,,,,,,,,,,,,,,,,,,,,,,,,,,
16,0,16,0,1,25,2020-07-03_13h12.12.404,retriever_ti,2020.1.3,MacIntel,60,Chrome,1440,900,,,,,,,,,,,,,,,,,,,,,,,,,,,,,,,,,,,,,,,,,,,,,,,,,,,,,,,,,,,,,,,,,,,,,,,,,,,,,,,,,,,,,,,,,,,,,,,,,,
17,0,17,0,1,25,2020-07-03_13h12.12.404,retriever_ti,2020.1.3,MacIntel,60,Chrome,1440,900,,,,,,,,,,,,,,,,,,,,,,,,,,,,,,,,,,,,,,,,,,,,,,,,,,,,,,,,,,,,,,,,,,,,,,,,,,,,,,,,,,,,,,,,,,,,,,,,,,
18,0,18,0,1,25,2020-07-03_13h12.12.404,retriever_ti,2020.1.3,MacIntel,60,Chrome,1440,900,,,,,,,,,,,,,,,,,,,,,,,,,,,,,,,,,,,,,,,,,,,,,,,,,,,,,,,,,,,,,,,,,,,,,,,,,,,,,,,,,,,,,,,,,,,,,,,,,,
19,0,19,0,1,25,2020-07-03_13h12.12.404,retriever_ti,2020.1.3,MacIntel,60,Chrome,1440,900,,,,,,,,,,,,,,,,,,,,,,,,,,,,,,,,,,,,,,,,,,,,,,,,,,,,,,,,,,,,,,,,,,,,,,,,,,,,,,,,,,,,,,,,,,,,,,,,,,
20,0,20,0,1,25,2020-07-03_13h12.12.404,retriever_ti,2020.1.3,MacIntel,60,Chrome,1440,900,,,,,,,,,,,,,,,,,,,,,,,,,,,,,,,,,,,,,,,,,,,,,,,,,,,,,,,,,,,,,,,,,,,,,,,,,,,,,,,,,,,,,,,,,,,,,,,,,,
21,0,21,0,1,25,2020-07-03_13h12.12.404,retriever_ti,2020.1.3,MacIntel,60,Chrome,1440,900,,,,,,,,,,,,,,,,,,,,,,,,,,,,,,,,,,,,,,,,,,,,,,,,,,,,,,,,,,,,,,,,,,,,,,,,,,,,,,,,,,,,,,,,,,,,,,,,,,
,,,,,25,2020-07-03_13h12.12.404,retriever_ti,2020.1.3,MacIntel,60,Chrome,1440,900,94.536875,1,right,1.715815,canary,1,94.56127,94.56127,97.0606,0,0,0,0,1,2,5,1,html/resources/stimuli_practice_decision/04_beetle.jpg,html/resources/stimuli_practice_decision/02_canary.jpg,beetle,canary,,,,,,,,,,,,,,,,,,,,,,,,,,,,,,,,,,,,,,,,,,,,,,,,,,,,,,,,,,,,,,,,,,,,,,,,,,,,,
,,,,,25,2020-07-03_13h12.12.404,retriever_ti,2020.1.3,MacIntel,60,Chrome,1440,900,97.573415,2,left,1.19627,rabbit,1,97.58618,97.58618,100.076625,0,1,1,1,1,4,3,1,html/resources/stimuli_practice_decision/01_rabbit.jpg,html/resources/stimuli_practice_decision/07_sock.jpg,rabbit,sock,,,,,,,,,,,,,,,,,,,,,,,,,,,,,,,,,,,,,,,,,,,,,,,,,,,,,,,,,,,,,,,,,,,,,,,,,,,,,
,,,,,25,2020-07-03_13h12.12.404,retriever_ti,2020.1.3,MacIntel,60,Chrome,1440,900,101.078045,3,left,1.221655,pullover,1,101.095605,101.095605,103.593165,0,2,2,2,1,6,2,1,html/resources/stimuli_practice_decision/06_pullover.jpg,html/resources/stimuli_practice_decision/04_beetle.jpg,pullover,beetle,,,,,,,,,,,,,,,,,,,,,,,,,,,,,,,,,,,,,,,,,,,,,,,,,,,,,,,,,,,,,,,,,,,,,,,,,,,,,
,,,,,25,2020-07-03_13h12.12.404,retriever_ti,2020.1.3,MacIntel,60,Chrome,1440,900,104.09614,4,right,1.476675,handmixer,0,104.11278,104.11278,106.60976,0,3,3,3,1,7,1,1,html/resources/stimuli_practice_decision/05_glasses.jpg,html/resources/stimuli_practice_decision/08_handmixer.jpg,glasses,handmixer,,,,,,,,,,,,,,,,,,,,,,,,,,,,,,,,,,,,,,,,,,,,,,,,,,,,,,,,,,,,,,,,,,,,,,,,,,,,,
,,,,,25,2020-07-03_13h12.12.404,retriever_ti,2020.1.3,MacIntel,60,Chrome,1440,900,107.1116,5,left,2.26099,glasses,1,107.12887,107.12887,109.626585,0,4,4,4,1,7,6,1,html/resources/stimuli_practice_decision/05_glasses.jpg,html/resources/stimuli_practice_decision/06_pullover.jpg,glasses,pullover,,,,,,,,,,,,,,,,,,,,,,,,,,,,,,,,,,,,,,,,,,,,,,,,,,,,,,,,,,,,,,,,,,,,,,,,,,,,,
,,,,,25,2020-07-03_13h12.12.404,retriever_ti,2020.1.3,MacIntel,60,Chrome,1440,900,110.62744,6,NaN,NaN,No_response,2,110.661775,110.661775,113.16181,0,5,5,5,1,4,7,1,html/resources/stimuli_practice_decision/01_rabbit.jpg,html/resources/stimuli_practice_decision/05_glasses.jpg,rabbit,glasses,,,,,,,,,,,,,,,,,,,,,,,,,,,,,,,,,,,,,,,,,,,,,,,,,,,,,,,,,,,,,,,,,,,,,,,,,,,,,
,,,,,25,2020-07-03_13h12.12.404,retriever_ti,2020.1.3,MacIntel,60,Chrome,1440,900,114.162545,7,left,0.88038,handmixer,0,114.19525,114.19525,116.694875,0,6,6,6,1,1,2,1,html/resources/stimuli_practice_decision/08_handmixer.jpg,html/resources/stimuli_practice_decision/04_beetle.jpg,handmixer,beetle,,,,,,,,,,,,,,,,,,,,,,,,,,,,,,,,,,,,,,,,,,,,,,,,,,,,,,,,,,,,,,,,,,,,,,,,,,,,,
,,,,,25,2020-07-03_13h12.12.404,retriever_ti,2020.1.3,MacIntel,60,Chrome,1440,900,117.693405,8,left,0.920765,rabbit,1,117.72787,117.72787,120.226075,0,7,7,7,1,4,3,1,html/resources/stimuli_practice_decision/01_rabbit.jpg,html/resources/stimuli_practice_decision/07_sock.jpg,rabbit,sock,,,,,,,,,,,,,,,,,,,,,,,,,,,,,,,,,,,,,,,,,,,,,,,,,,,,,,,,,,,,,,,,,,,,,,,,,,,,,
,,,,,25,2020-07-03_13h12.12.404,retriever_ti,2020.1.3,MacIntel,60,Chrome,1440,900,,,,,,,,,,,,,,,,,,,,,,left,1,1.421085,1,0,0,0,2,1,html/resources/sequences_IDs/square1.png,star ↑,triangle →,circle ↓,← square,left,,,,,,,,,,,,,,,,,,,,,,,,,,,,,,,,,,,,,,,,,,,,,,,,,,,,,,,,,,,,,,
,,,,,25,2020-07-03_13h12.12.404,retriever_ti,2020.1.3,MacIntel,60,Chrome,1440,900,,,,,,,,,,,,,,,,,,,,,,up,1,1.221495,1,0,1,1,0,1,html/resources/sequences_IDs/circle.png,circle ↑,square →,triangle ↓,← star ,up,,,,,,,,,,,,,,,,,,,,,,,,,,,,,,,,,,,,,,,,,,,,,,,,,,,,,,,,,,,,,,
,,,,,25,2020-07-03_13h12.12.404,retriever_ti,2020.1.3,MacIntel,60,Chrome,1440,900,,,,,,,,,,,,,,,,,,,,,,down,1,1.333525,1,0,2,2,3,1,html/resources/sequences_IDs/triangle.png,star ↑,square →,triangle ↓,← circle,down,,,,,,,,,,,,,,,,,,,,,,,,,,,,,,,,,,,,,,,,,,,,,,,,,,,,,,,,,,,,,,
,,,,,25,2020-07-03_13h12.12.404,retriever_ti,2020.1.3,MacIntel,60,Chrome,1440,900,,,,,,,,,,,,,,,,,,,,,,down,1,1.749815,1,0,3,3,1,1,html/resources/sequences_IDs/star.png,square ↑,circle →,star ↓,← triangle,down,,,,,,,,,,,,,,,,,,,,,,,,,,,,,,,,,,,,,,,,,,,,,,,,,,,,,,,,,,,,,,
,,,,,25,2020-07-03_13h12.12.404,retriever_ti,2020.1.3,MacIntel,60,Chrome,1440,900,,,,,,,,,,,,,,,,,,,,,,,,,,,,,,,,,,,,,0,11.247015,0,0,0,0,1,,,,,,,,,,,,,,,,,,,,,,,,,,,,,,,,,,,,,,,,,,,,,,,,,,,,,,,
,,,,,25,2020-07-03_13h12.12.404,retriever_ti,2020.1.3,MacIntel,60,Chrome,1440,900,142.96438,9,right,1.19764,glasses,1,142.99437,142.99437,145.49351,0,0,0,0,1,6,7,1,html/resources/stimuli_practice_decision/06_pullover.jpg,html/resources/stimuli_practice_decision/05_glasses.jpg,pullover,glasses,,,,,,,,,,,,,,,,,,,,,,,,,,,,,,,,,,,,,,,,,,,,,,,,,,,,,,,,,,,,,,,,,,,,,,,,,,,,,
,,,,,25,2020-07-03_13h12.12.404,retriever_ti,2020.1.3,MacIntel,60,Chrome,1440,900,146.49475,10,left,0.786,pullover,1,146.52792,146.52792,149.02654,0,1,1,1,1,6,2,1,html/resources/stimuli_practice_decision/06_pullover.jpg,html/resources/stimuli_practice_decision/04_beetle.jpg,pullover,beetle,,,,,,,,,,,,,,,,,,,,,,,,,,,,,,,,,,,,,,,,,,,,,,,,,,,,,,,,,,,,,,,,,,,,,,,,,,,,,
,,,,,25,2020-07-03_13h12.12.404,retriever_ti,2020.1.3,MacIntel,60,Chrome,1440,900,149.52978,11,right,1.27005,pullover,1,149.54452,149.54452,152.042685,0,2,2,2,1,5,6,1,html/resources/stimuli_practice_decision/02_canary.jpg,html/resources/stimuli_practice_decision/06_pullover.jpg,canary,pullover,,,,,,,,,,,,,,,,,,,,,,,,,,,,,,,,,,,,,,,,,,,,,,,,,,,,,,,,,,,,,,,,,,,,,,,,,,,,,
,,,,,25,2020-07-03_13h12.12.404,retriever_ti,2020.1.3,MacIntel,60,Chrome,1440,900,153.044325,12,right,0.90486,glasses,0,153.060595,153.060595,155.55955,0,3,3,3,1,8,7,1,html/resources/stimuli_practice_decision/03_squirrel.jpg,html/resources/stimuli_practice_decision/05_glasses.jpg,squirrel,glasses,,,,,,,,,,,,,,,,,,,,,,,,,,,,,,,,,,,,,,,,,,,,,,,,,,,,,,,,,,,,,,,,,,,,,,,,,,,,,
,,,,,25,2020-07-03_13h12.12.404,retriever_ti,2020.1.3,MacIntel,60,Chrome,1440,900,156.56199,13,left,1.34584,canary,1,156.57816,156.57816,159.077555,0,4,4,4,1,5,3,1,html/resources/stimuli_practice_decision/02_canary.jpg,html/resources/stimuli_practice_decision/07_sock.jpg,canary,sock,,,,,,,,,,,,,,,,,,,,,,,,,,,,,,,,,,,,,,,,,,,,,,,,,,,,,,,,,,,,,,,,,,,,,,,,,,,,,
,,,,,25,2020-07-03_13h12.12.404,retriever_ti,2020.1.3,MacIntel,60,Chrome,1440,900,159.579355,14,left,0.82783,glasses,0,159.59458,159.59458,162.092395,0,5,5,5,1,7,8,1,html/resources/stimuli_practice_decision/05_glasses.jpg,html/resources/stimuli_practice_decision/03_squirrel.jpg,glasses,squirrel,,,,,,,,,,,,,,,,,,,,,,,,,,,,,,,,,,,,,,,,,,,,,,,,,,,,,,,,,,,,,,,,,,,,,,,,,,,,,
,,,,,25,2020-07-03_13h12.12.404,retriever_ti,2020.1.3,MacIntel,60,Chrome,1440,900,163.09537,15,right,0.99536,rabbit,0,163.111235,163.111235,165.60947,0,6,6,6,1,5,4,1,html/resources/stimuli_practice_decision/02_canary.jpg,html/resources/stimuli_practice_decision/01_rabbit.jpg,canary,rabbit,,,,,,,,,,,,,,,,,,,,,,,,,,,,,,,,,,,,,,,,,,,,,,,,,,,,,,,,,,,,,,,,,,,,,,,,,,,,,
,,,,,25,2020-07-03_13h12.12.404,retriever_ti,2020.1.3,MacIntel,60,Chrome,1440,900,166.610425,16,left,0.56803,canary,1,166.62849,166.62849,169.12768,0,7,7,7,1,5,3,1,html/resources/stimuli_practice_decision/02_canary.jpg,html/resources/stimuli_practice_decision/07_sock.jpg,canary,sock,,,,,,,,,,,,,,,,,,,,,,,,,,,,,,,,,,,,,,,,,,,,,,,,,,,,,,,,,,,,,,,,,,,,,,,,,,,,,
,,,,,25,2020-07-03_13h12.12.404,retriever_ti,2020.1.3,MacIntel,60,Chrome,1440,900,,,,,,,,,,,,,,,,,,,,,,right,0,1.52371,0,0,0,0,1,1,html/resources/sequences_IDs/star.png,square ↑,circle →,star ↓,← triangle,down,,,,,,,,,,,,,,,,,,,,,,,,,,,,,,,,,,,,,,,,,,,,,,,,,,,,,,,,,,,,,,
,,,,,25,2020-07-03_13h12.12.404,retriever_ti,2020.1.3,MacIntel,60,Chrome,1440,900,,,,,,,,,,,,,,,,,,,,,,down,0,0.00125,0,0,1,1,2,1,html/resources/sequences_IDs/square1.png,star ↑,triangle →,circle ↓,← square,left,,,,,,,,,,,,,,,,,,,,,,,,,,,,,,,,,,,,,,,,,,,,,,,,,,,,,,,,,,,,,,
,,,,,25,2020-07-03_13h12.12.404,retriever_ti,2020.1.3,MacIntel,60,Chrome,1440,900,,,,,,,,,,,,,,,,,,,,,,down,1,1.234895,1,0,2,2,3,1,html/resources/sequences_IDs/triangle.png,star ↑,square →,triangle ↓,← circle,down,,,,,,,,,,,,,,,,,,,,,,,,,,,,,,,,,,,,,,,,,,,,,,,,,,,,,,,,,,,,,,
,,,,,25,2020-07-03_13h12.12.404,retriever_ti,2020.1.3,MacIntel,60,Chrome,1440,900,,,,,,,,,,,,,,,,,,,,,,up,1,0.83089,1,0,3,3,0,1,html/resources/sequences_IDs/circle.png,circle ↑,square →,triangle ↓,← star ,up,,,,,,,,,,,,,,,,,,,,,,,,,,,,,,,,,,,,,,,,,,,,,,,,,,,,,,,,,,,,,,
,,,,,25,2020-07-03_13h12.12.404,retriever_ti,2020.1.3,MacIntel,60,Chrome,1440,900,,,,,,,,,,,,,,,,,,,,,,,,,,,,,,,,,,,,,0,2.950925,1,0,1,0,1,,,,,,,,,,,,,,,,,,,,,,,,,,,,,,,,,,,,,,,,,,,,,,,,,,,,,,,
,,,,,25,2020-07-03_13h12.12.404,retriever_ti,2020.1.3,MacIntel,60,Chrome,1440,900,,,,,,,,,,,,,,,,,1,,,,,,,,,,,,,,,,,,,,,,,,,,,184.703625,1,left,1.766655,satellite_dish,6,10,-2,0,3,184.720995,184.720995,187.210125,0,0,0,0,1,1,6,8,satellite_dish,calculator    ,html/resources/sequences_IDs/A/10_satellite_dish.jpg,html/resources/sequences_IDs/A/09_calculator.jpg,10,9,4,2,4,2,8,7,0,25,,,,,,,,,,,,,,,,,,,,
,,,,,25,2020-07-03_13h12.12.404,retriever_ti,2020.1.3,MacIntel,60,Chrome,1440,900,,,,,,,,,,,,,,,,,1,,,,,,,,,,,,,,,,,,,,,,,,,,,187.830375,2,left,1.384135,dolphin     ,3,2,-1,0,0,187.84452,187.84452,190.34204,0,1,1,1,1,2,3,4,dolphin     ,camel         ,html/resources/sequences_IDs/B/02_dolphin.jpg,html/resources/sequences_IDs/A/03_camel.jpg,2,3,1,1,1,1,2,3,0,25,,,,,,,,,,,,,,,,,,,,
,,,,,25,2020-07-03_13h12.12.404,retriever_ti,2020.1.3,MacIntel,60,Chrome,1440,900,,,,,,,,,,,,,,,,,1,,,,,,,,,,,,,,,,,,,,,,,,,,,191.44367,3,left,1.26233,parrot      ,5,5,4,1,3,191.478825,191.478825,193.97484,0,2,2,2,1,3,5,1,parrot      ,gloves      ,html/resources/sequences_IDs/B/05_parrot.jpg,html/resources/sequences_IDs/B/06_gloves.jpg,5,6,2,1,3,2,4,5,0,25,,,,,,,,,,,,,,,,,,,,
,,,,,25,2020-07-03_13h12.12.404,retriever_ti,2020.1.3,MacIntel,60,Chrome,1440,900,,,,,,,,,,,,,,,,,1,,,,,,,,,,,,,,,,,,,,,,,,,,,194.57681,4,right,1.27683,satellite_dish,6,10,-1,0,0,194.609415,194.609415,197.10877,0,3,3,3,1,4,7,6,redfox      ,satellite_dish,html/resources/sequences_IDs/B/01_redfox.jpg,html/resources/sequences_IDs/A/10_satellite_dish.jpg,1,10,1,1,4,2,1,8,0,25,,,,,,,,,,,,,,,,,,,,
,,,,,25,2020-07-03_13h12.12.404,retriever_ti,2020.1.3,MacIntel,60,Chrome,1440,900,,,,,,,,,,,,,,,,,1,,,,,,,,,,,,,,,,,,,,,,,,,,,198.210205,5,left,0.832565,satellite_dish,6,10,-1,0,0,198.243825,198.243825,200.74082,0,4,4,4,1,5,6,7,satellite_dish,redfox      ,html/resources/sequences_IDs/A/10_satellite_dish.jpg,html/resources/sequences_IDs/B/01_redfox.jpg,10,1,4,2,1,1,8,1,0,25,,,,,,,,,,,,,,,,,,,,
,,,,,25,2020-07-03_13h12.12.404,retriever_ti,2020.1.3,MacIntel,60,Chrome,1440,900,,,,,,,,,,,,,,,,,1,,,,,,,,,,,,,,,,,,,,,,,,,,,201.84301,6,right,0.88438,camel         ,4,3,-1,0,0,201.86214,201.86214,204.360295,0,5,5,5,1,6,5,4,parrot      ,camel         ,html/resources/sequences_IDs/B/05_parrot.jpg,html/resources/sequences_IDs/A/03_camel.jpg,5,3,2,1,1,1,4,3,0,25,,,,,,,,,,,,,,,,,,,,
,,,,,25,2020-07-03_13h12.12.404,retriever_ti,2020.1.3,MacIntel,60,Chrome,1440,900,,,,,,,,,,,,,,,,,1,,,,,,,,,,,,,,,,,,,,,,,,,,,205.46014,7,left,1.18678,satellite_dish,6,10,4,1,3,205.48069,205.48069,207.97405,0,6,6,6,1,7,6,2,satellite_dish,dress         ,html/resources/sequences_IDs/A/10_satellite_dish.jpg,html/resources/sequences_IDs/A/07_dress.jpg,10,7,4,2,3,2,8,6,0,25,,,,,,,,,,,,,,,,,,,,
,,,,,25,2020-07-03_13h12.12.404,retriever_ti,2020.1.3,MacIntel,60,Chrome,1440,900,,,,,,,,,,,,,,,,,1,,,,,,,,,,,,,,,,,,,,,,,,,,,208.5757,8,left,1.461085,dolphin     ,3,2,-3,0,3,208.608995,208.608995,211.10811,0,7,7,7,1,8,3,6,dolphin     ,satellite_dish,html/resources/sequences_IDs/B/02_dolphin.jpg,html/resources/sequences_IDs/A/10_satellite_dish.jpg,2,10,1,1,4,2,2,8,0,25,,,,,,,,,,,,,,,,,,,,
,,,,,25,2020-07-03_13h12.12.404,retriever_ti,2020.1.3,MacIntel,60,Chrome,1440,900,,,,,,,,,,,,,,,,,1,,,,,,,,,,,,,,,,,,,,,,,,,,,211.712915,9,right,1.056805,camel         ,4,3,1,1,1,211.745585,211.745585,214.241605,0,8,8,8,1,9,3,4,dolphin     ,camel         ,html/resources/sequences_IDs/B/02_dolphin.jpg,html/resources/sequences_IDs/A/03_camel.jpg,2,3,1,1,1,1,2,3,0,25,,,,,,,,,,,,,,,,,,,,
,,,,,25,2020-07-03_13h12.12.404,retriever_ti,2020.1.3,MacIntel,60,Chrome,1440,900,,,,,,,,,,,,,,,,,1,,,,,,,,,,,,,,,,,,,,,,,,,,,215.343025,10,right,0.908875,dolphin     ,3,2,-2,0,3,215.377115,215.377115,217.8757,0,9,9,9,1,10,5,3,parrot      ,dolphin     ,html/resources/sequences_IDs/B/05_parrot.jpg,html/resources/sequences_IDs/B/02_dolphin.jpg,5,2,2,1,1,1,4,2,0,25,,,,,,,,,,,,,,,,,,,,
,,,,,25,2020-07-03_13h12.12.404,retriever_ti,2020.1.3,MacIntel,60,Chrome,1440,900,,,,,,,,,,,,,,,,,1,,,,,,,,,,,,,,,,,,,,,,,,,,,218.49618,11,right,1.15966,redfox      ,7,1,1,1,1,218.5291,218.5291,221.0251,0,10,10,10,1,11,6,7,satellite_dish,redfox      ,html/resources/sequences_IDs/A/10_satellite_dish.jpg,html/resources/sequences_IDs/B/01_redfox.jpg,10,1,4,2,1,1,8,1,0,25,,,,,,,,,,,,,,,,,,,,
,,,,,25,2020-07-03_13h12.12.404,retriever_ti,2020.1.3,MacIntel,60,Chrome,1440,900,,,,,,,,,,,,,,,,,1,,,,,,,,,,,,,,,,,,,,,,,,,,,222.127005,12,right,1.28208,camel         ,4,3,-3,0,3,222.16085,222.16085,224.658715,0,11,11,11,1,12,7,4,redfox      ,camel         ,html/resources/sequences_IDs/B/01_redfox.jpg,html/resources/sequences_IDs/A/03_camel.jpg,1,3,1,1,1,1,1,3,0,25,,,,,,,,,,,,,,,,,,,,
,,,,,25,2020-07-03_13h12.12.404,retriever_ti,2020.1.3,MacIntel,60,Chrome,1440,900,,,,,,,,,,,,,,,,,1,,,,,,,,,,,,,,,,,,,,,,,,,,,225.26189,13,left,1.031925,camel         ,4,3,1,1,1,225.27766,225.27766,227.77478,0,12,12,12,1,13,4,3,camel         ,dolphin     ,html/resources/sequences_IDs/A/03_camel.jpg,html/resources/sequences_IDs/B/02_dolphin.jpg,3,2,1,1,1,1,3,2,0,25,,,,,,,,,,,,,,,,,,,,
,,,,,25,2020-07-03_13h12.12.404,retriever_ti,2020.1.3,MacIntel,60,Chrome,1440,900,,,,,,,,,,,,,,,,,1,,,,,,,,,,,,,,,,,,,,,,,,,,,228.87694,14,left,0.93101,parrot      ,5,5,-3,0,3,228.89248,228.89248,231.3926,0,13,13,13,1,14,5,8,parrot      ,calculator    ,html/resources/sequences_IDs/B/05_parrot.jpg,html/resources/sequences_IDs/A/09_calculator.jpg,5,9,2,1,4,2,4,7,0,25,,,,,,,,,,,,,,,,,,,,
,,,,,25,2020-07-03_13h12.12.404,retriever_ti,2020.1.3,MacIntel,60,Chrome,1440,900,,,,,,,,,,,,,,,,,1,,,,,,,,,,,,,,,,,,,,,,,,,,,232.00948,15,right,0.745135,camel         ,4,3,2,1,3,232.045265,232.045265,234.54172,0,14,14,14,1,15,2,4,dress         ,camel         ,html/resources/sequences_IDs/A/07_dress.jpg,html/resources/sequences_IDs/A/03_camel.jpg,7,3,3,2,1,1,6,3,0,25,,,,,,,,,,,,,,,,,,,,
,,,,,25,2020-07-03_13h12.12.404,retriever_ti,2020.1.3,MacIntel,60,Chrome,1440,900,,,,,,,,,,,,,,,,,1,,,,,,,,,,,,,,,,,,,,,,,,,,,235.16124,16,right,0.861,parrot      ,5,5,4,1,3,235.195435,235.195435,237.69162,0,15,15,15,1,16,1,5,gloves      ,parrot      ,html/resources/sequences_IDs/B/06_gloves.jpg,html/resources/sequences_IDs/B/05_parrot.jpg,6,5,3,2,2,1,5,4,0,25,,,,,,,,,,,,,,,,,,,,
,,,,,25,2020-07-03_13h12.12.404,retriever_ti,2020.1.3,MacIntel,60,Chrome,1440,900,,,,,,,,,,,,,,,,,1,,,,,,,,,,,,,,,,,,,,,,,,,,,238.310335,17,right,0.824685,dolphin     ,3,2,1,1,1,238.345235,238.345235,240.84329,0,16,16,16,1,17,2,3,dress         ,dolphin     ,html/resources/sequences_IDs/A/07_dress.jpg,html/resources/sequences_IDs/B/02_dolphin.jpg,7,2,3,2,1,1,6,2,0,25,,,,,,,,,,,,,,,,,,,,
,,,,,25,2020-07-03_13h12.12.404,retriever_ti,2020.1.3,MacIntel,60,Chrome,1440,900,,,,,,,,,,,,,,,,,1,,,,,,,,,,,,,,,,,,,,,,,,,,,241.942455,18,right,0.73392,dress         ,2,7,-6,0,3,241.976505,241.976505,244.475105,0,17,17,17,1,18,8,2,calculator    ,dress         ,html/resources/sequences_IDs/A/09_calculator.jpg,html/resources/sequences_IDs/A/07_dress.jpg,9,7,4,2,3,2,7,6,0,25,,,,,,,,,,,,,,,,,,,,
,,,,,25,2020-07-03_13h12.12.404,retriever_ti,2020.1.3,MacIntel,60,Chrome,1440,900,,,,,,,,,,,,,,,,,1,,,,,,,,,,,,,,,,,,,,,,,,,,,245.09321,19,right,0.878885,satellite_dish,6,10,5,1,3,245.11226,245.11226,247.607405,0,18,18,18,1,19,1,6,gloves      ,satellite_dish,html/resources/sequences_IDs/B/06_gloves.jpg,html/resources/sequences_IDs/A/10_satellite_dish.jpg,6,10,3,2,4,2,5,8,0,25,,,,,,,,,,,,,,,,,,,,
,,,,,25,2020-07-03_13h12.12.404,retriever_ti,2020.1.3,MacIntel,60,Chrome,1440,900,,,,,,,,,,,,,,,,,1,,,,,,,,,,,,,,,,,,,,,,,,,,,248.20895,20,left,0.911885,dolphin     ,3,2,1,1,1,248.230085,248.230085,250.72398,0,19,19,19,1,20,3,2,dolphin     ,dress         ,html/resources/sequences_IDs/B/02_dolphin.jpg,html/resources/sequences_IDs/A/07_dress.jpg,2,7,1,1,3,2,2,6,0,25,,,,,,,,,,,,,,,,,,,,
,,,,,25,2020-07-03_13h12.12.404,retriever_ti,2020.1.3,MacIntel,60,Chrome,1440,900,,,,,,,,,,,,,,,,,1,,,,,,,,,,,,,,,,,,,,,,,,,,,251.829545,21,left,1.018565,camel         ,4,3,-1,0,0,251.841975,251.841975,254.34203,0,20,20,20,1,21,4,5,camel         ,parrot      ,html/resources/sequences_IDs/A/03_camel.jpg,html/resources/sequences_IDs/B/05_parrot.jpg,3,5,1,1,2,1,3,4,0,25,,,,,,,,,,,,,,,,,,,,
,,,,,25,2020-07-03_13h12.12.404,retriever_ti,2020.1.3,MacIntel,60,Chrome,1440,900,,,,,,,,,,,,,,,,,1,,,,,,,,,,,,,,,,,,,,,,,,,,,255.4443,22,right,1.10776,satellite_dish,6,10,-2,0,3,255.460065,255.460065,257.96039,0,21,21,21,1,22,8,6,calculator    ,satellite_dish,html/resources/sequences_IDs/A/09_calculator.jpg,html/resources/sequences_IDs/A/10_satellite_dish.jpg,9,10,4,2,4,2,7,8,0,25,,,,,,,,,,,,,,,,,,,,
,,,,,25,2020-07-03_13h12.12.404,retriever_ti,2020.1.3,MacIntel,60,Chrome,1440,900,,,,,,,,,,,,,,,,,1,,,,,,,,,,,,,,,,,,,,,,,,,,,258.57885,23,right,1.273125,satellite_dish,6,10,4,1,3,258.61148,258.61148,261.106745,0,22,22,22,1,23,2,6,dress         ,satellite_dish,html/resources/sequences_IDs/A/07_dress.jpg,html/resources/sequences_IDs/A/10_satellite_dish.jpg,7,10,3,2,4,2,6,8,0,25,,,,,,,,,,,,,,,,,,,,
,,,,,25,2020-07-03_13h12.12.404,retriever_ti,2020.1.3,MacIntel,60,Chrome,1440,900,,,,,,,,,,,,,,,,,1,,,,,,,,,,,,,,,,,,,,,,,,,,,261.724355,24,left,0.96089,dolphin     ,3,2,2,1,3,261.74289,261.74289,264.24178,0,23,23,23,1,24,3,1,dolphin     ,gloves      ,html/resources/sequences_IDs/B/02_dolphin.jpg,html/resources/sequences_IDs/B/06_gloves.jpg,2,6,1,1,3,2,2,5,0,25,,,,,,,,,,,,,,,,,,,,
,,,,,25,2020-07-03_13h12.12.404,retriever_ti,2020.1.3,MacIntel,60,Chrome,1440,900,,,,,,,,,,,,,,,,,1,,,,,,,,,,,,,,,,,,,,,,,,,,,264.844535,25,right,0.89789,dress         ,2,7,1,1,1,264.87843,264.87843,267.37513,0,24,24,24,1,25,1,2,gloves      ,dress         ,html/resources/sequences_IDs/B/06_gloves.jpg,html/resources/sequences_IDs/A/07_dress.jpg,6,7,3,2,3,2,5,6,0,25,,,,,,,,,,,,,,,,,,,,
,,,,,25,2020-07-03_13h12.12.404,retriever_ti,2020.1.3,MacIntel,60,Chrome,1440,900,,,,,,,,,,,,,,,,,1,,,,,,,,,,,,,,,,,,,,,,,,,,,268.475115,26,left,1.263535,dolphin     ,3,2,1,1,1,268.50991,268.50991,271.00667,0,25,25,25,1,26,3,2,dolphin     ,dress         ,html/resources/sequences_IDs/B/02_dolphin.jpg,html/resources/sequences_IDs/A/07_dress.jpg,2,7,1,1,3,2,2,6,0,25,,,,,,,,,,,,,,,,,,,,
,,,,,25,2020-07-03_13h12.12.404,retriever_ti,2020.1.3,MacIntel,60,Chrome,1440,900,,,,,,,,,,,,,,,,,1,,,,,,,,,,,,,,,,,,,,,,,,,,,272.110655,27,right,0.688805,redfox      ,7,1,-1,0,0,272.145165,272.145165,274.641435,0,26,26,26,1,27,8,7,calculator    ,redfox      ,html/resources/sequences_IDs/A/09_calculator.jpg,html/resources/sequences_IDs/B/01_redfox.jpg,9,1,4,2,1,1,7,1,0,25,,,,,,,,,,,,,,,,,,,,
,,,,,25,2020-07-03_13h12.12.404,retriever_ti,2020.1.3,MacIntel,60,Chrome,1440,900,,,,,,,,,,,,,,,,,1,,,,,,,,,,,,,,,,,,,,,,,,,,,275.742875,28,left,0.852045,calculator    ,8,9,4,1,3,275.76019,275.76019,278.25799,0,27,27,27,1,28,8,4,calculator    ,camel         ,html/resources/sequences_IDs/A/09_calculator.jpg,html/resources/sequences_IDs/A/03_camel.jpg,9,3,4,2,1,1,7,3,0,25,,,,,,,,,,,,,,,,,,,,
,,,,,25,2020-07-03_13h12.12.404,retriever_ti,2020.1.3,MacIntel,60,Chrome,1440,900,,,,,,,,,,,,,,,,,1,,,,,,,,,,,,,,,,,,,,,,,,,,,278.862755,29,right,0.635305,dolphin     ,3,2,2,1,3,278.89406,278.89406,281.39144,0,28,28,28,1,29,1,3,gloves      ,dolphin     ,html/resources/sequences_IDs/B/06_gloves.jpg,html/resources/sequences_IDs/B/02_dolphin.jpg,6,2,3,2,1,1,5,2,0,25,,,,,,,,,,,,,,,,,,,,
,,,,,25,2020-07-03_13h12.12.404,retriever_ti,2020.1.3,MacIntel,60,Chrome,1440,900,,,,,,,,,,,,,,,,,1,,,,,,,,,,,,,,,,,,,,,,,,,,,281.992385,30,right,1.6281,parrot      ,5,5,1,1,0,282.00911,282.00911,284.5082,0,29,29,29,1,30,4,5,camel         ,parrot      ,html/resources/sequences_IDs/A/03_camel.jpg,html/resources/sequences_IDs/B/05_parrot.jpg,3,5,1,1,2,1,3,4,1,25,,,,,,,,,,,,,,,,,,,,
,,,,,25,2020-07-03_13h12.12.404,retriever_ti,2020.1.3,MacIntel,60,Chrome,1440,900,,,,,,,,,,,,,,,,,1,,,,,,,,,,,,,,,,,,,,,,,,,,,285.610345,31,left,0.88176,dress         ,2,7,1,1,1,285.642285,285.642285,288.140975,0,30,30,30,1,31,2,1,dress         ,gloves      ,html/resources/sequences_IDs/A/07_dress.jpg,html/resources/sequences_IDs/B/06_gloves.jpg,7,6,3,2,3,2,6,5,0,25,,,,,,,,,,,,,,,,,,,,
,,,,,25,2020-07-03_13h12.12.404,retriever_ti,2020.1.3,MacIntel,60,Chrome,1440,900,,,,,,,,,,,,,,,,,1,,,,,,,,,,,,,,,,,,,,,,,,,,,289.242275,32,right,1.4616,parrot      ,5,5,-1,0,0,289.2765,289.2765,291.776465,0,31,31,31,1,32,6,5,satellite_dish,parrot      ,html/resources/sequences_IDs/A/10_satellite_dish.jpg,html/resources/sequences_IDs/B/05_parrot.jpg,10,5,4,2,2,1,8,4,0,25,,,,,,,,,,,,,,,,,,,,
,,,,,25,2020-07-03_13h12.12.404,retriever_ti,2020.1.3,MacIntel,60,Chrome,1440,900,,,,,,,,,,,,,,,,,1,,,,,,,,,,,,,,,,,,,,,,,,,,,292.87612,33,left,1.091905,redfox      ,7,1,-1,0,1,292.90992,292.90992,295.406885,0,32,32,32,1,33,7,8,redfox      ,calculator    ,html/resources/sequences_IDs/B/01_redfox.jpg,html/resources/sequences_IDs/A/09_calculator.jpg,1,9,1,1,4,2,1,7,1,25,,,,,,,,,,,,,,,,,,,,
,,,,,25,2020-07-03_13h12.12.404,retriever_ti,2020.1.3,MacIntel,60,Chrome,1440,900,,,,,,,,,,,,,,,,,1,,,,,,,,,,,,,,,,,,,,,,,,,,,296.50928,34,left,0.912755,redfox      ,7,1,5,1,3,296.543,296.543,299.04172,0,33,33,33,1,34,7,2,redfox      ,dress         ,html/resources/sequences_IDs/B/01_redfox.jpg,html/resources/sequences_IDs/A/07_dress.jpg,1,7,1,1,3,2,1,6,0,25,,,,,,,,,,,,,,,,,,,,
,,,,,25,2020-07-03_13h12.12.404,retriever_ti,2020.1.3,MacIntel,60,Chrome,1440,900,,,,,,,,,,,,,,,,,1,,,,,,,,,,,,,,,,,,,,,,,,,,,299.645455,35,left,1.59129,dress         ,2,7,1,1,1,299.677315,299.677315,302.176565,0,34,34,34,1,35,2,1,dress         ,gloves      ,html/resources/sequences_IDs/A/07_dress.jpg,html/resources/sequences_IDs/B/06_gloves.jpg,7,6,3,2,3,2,6,5,0,25,,,,,,,,,,,,,,,,,,,,
,,,,,25,2020-07-03_13h12.12.404,retriever_ti,2020.1.3,MacIntel,60,Chrome,1440,900,,,,,,,,,,,,,,,,,1,,,,,,,,,,,,,,,,,,,,,,,,,,,303.273755,36,right,0.848385,camel         ,4,3,-1,0,0,303.31064,303.31064,305.80725,0,35,35,35,1,36,5,4,parrot      ,camel         ,html/resources/sequences_IDs/B/05_parrot.jpg,html/resources/sequences_IDs/A/03_camel.jpg,5,3,2,1,1,1,4,3,0,25,,,,,,,,,,,,,,,,,,,,
,,,,,25,2020-07-03_13h12.12.404,retriever_ti,2020.1.3,MacIntel,60,Chrome,1440,900,,,,,,,,,,,,,,,,,1,,,,,,,,,,,,,,,,,,,,,,,,,,,306.90952,37,right,2.35573,calculator    ,8,9,7,1,3,306.925895,306.925895,309.424895,0,36,36,36,1,37,1,8,gloves      ,calculator    ,html/resources/sequences_IDs/B/06_gloves.jpg,html/resources/sequences_IDs/A/09_calculator.jpg,6,9,3,2,4,2,5,7,0,25,,,,,,,,,,,,,,,,,,,,
,,,,,25,2020-07-03_13h12.12.404,retriever_ti,2020.1.3,MacIntel,60,Chrome,1440,900,,,,,,,,,,,,,,,,,1,,,,,,,,,,,,,,,,,,,,,,,,,,,310.04332,38,left,1.280145,redfox      ,7,1,1,1,1,310.058035,310.058035,312.557295,0,37,37,37,1,38,7,6,redfox      ,satellite_dish,html/resources/sequences_IDs/B/01_redfox.jpg,html/resources/sequences_IDs/A/10_satellite_dish.jpg,1,10,1,1,4,2,1,8,0,25,,,,,,,,,,,,,,,,,,,,
,,,,,25,2020-07-03_13h12.12.404,retriever_ti,2020.1.3,MacIntel,60,Chrome,1440,900,,,,,,,,,,,,,,,,,1,,,,,,,,,,,,,,,,,,,,,,,,,,,313.66051,39,left,0.776855,parrot      ,5,5,3,1,3,313.69329,313.69329,316.190895,0,38,38,38,1,39,5,2,parrot      ,dress         ,html/resources/sequences_IDs/B/05_parrot.jpg,html/resources/sequences_IDs/A/07_dress.jpg,5,7,2,1,3,2,4,6,0,25,,,,,,,,,,,,,,,,,,,,
,,,,,25,2020-07-03_13h12.12.404,retriever_ti,2020.1.3,MacIntel,60,Chrome,1440,900,,,,,,,,,,,,,,,,,1,,,,,,,,,,,,,,,,,,,,,,,,,,,316.807985,40,right,1.010405,dolphin     ,3,2,-5,0,3,316.84201,316.84201,319.34022,0,39,39,39,1,40,8,3,calculator    ,dolphin     ,html/resources/sequences_IDs/A/09_calculator.jpg,html/resources/sequences_IDs/B/02_dolphin.jpg,9,2,4,2,1,1,7,2,0,25,,,,,,,,,,,,,,,,,,,,
,,,,,25,2020-07-03_13h12.12.404,retriever_ti,2020.1.3,MacIntel,60,Chrome,1440,900,,,,,,,,,,,,,,,,,1,,,,,,,,,,,,,,,,,,,,,,,,,,,319.94274,41,left,1.06526,camel         ,4,3,-2,0,3,319.975,319.975,322.47248,0,40,40,40,1,41,4,6,camel         ,satellite_dish,html/resources/sequences_IDs/A/03_camel.jpg,html/resources/sequences_IDs/A/10_satellite_dish.jpg,3,10,1,1,4,2,3,8,0,25,,,,,,,,,,,,,,,,,,,,
,,,,,25,2020-07-03_13h12.12.404,retriever_ti,2020.1.3,MacIntel,60,Chrome,1440,900,,,,,,,,,,,,,,,,,1,,,,,,,,,,,,,,,,,,,,,,,,,,,323.07512,42,left,1.134905,parrot      ,5,5,-1,0,0,323.108765,323.108765,325.60674,0,41,41,41,1,42,5,6,parrot      ,satellite_dish,html/resources/sequences_IDs/B/05_parrot.jpg,html/resources/sequences_IDs/A/10_satellite_dish.jpg,5,10,2,1,4,2,4,8,0,25,,,,,,,,,,,,,,,,,,,,
,,,,,25,2020-07-03_13h12.12.404,retriever_ti,2020.1.3,MacIntel,60,Chrome,1440,900,,,,,,,,,,,,,,,,,1,,,,,,,,,,,,,,,,,,,,,,,,,,,326.70939,43,left,1.078925,satellite_dish,6,10,3,1,3,326.72596,326.72596,329.22523,0,42,42,42,1,43,6,3,satellite_dish,dolphin     ,html/resources/sequences_IDs/A/10_satellite_dish.jpg,html/resources/sequences_IDs/B/02_dolphin.jpg,10,2,4,2,1,1,8,2,0,25,,,,,,,,,,,,,,,,,,,,
,,,,,25,2020-07-03_13h12.12.404,retriever_ti,2020.1.3,MacIntel,60,Chrome,1440,900,,,,,,,,,,,,,,,,,1,,,,,,,,,,,,,,,,,,,,,,,,,,,329.841905,44,left,2.02763,dress         ,2,7,-6,0,3,329.86099,329.86099,332.35791,0,43,43,43,1,44,2,8,dress         ,calculator    ,html/resources/sequences_IDs/A/07_dress.jpg,html/resources/sequences_IDs/A/09_calculator.jpg,7,9,3,2,4,2,6,7,0,25,,,,,,,,,,,,,,,,,,,,
,,,,,25,2020-07-03_13h12.12.404,retriever_ti,2020.1.3,MacIntel,60,Chrome,1440,900,,,,,,,,,,,,,,,,,1,,,,,,,,,,,,,,,,,,,,,,,,,,,332.961575,45,left,0.887615,redfox      ,7,1,-1,0,0,332.99489,332.99489,335.49244,0,44,44,44,1,45,7,8,redfox      ,calculator    ,html/resources/sequences_IDs/B/01_redfox.jpg,html/resources/sequences_IDs/A/09_calculator.jpg,1,9,1,1,4,2,1,7,0,25,,,,,,,,,,,,,,,,,,,,
,,,,,25,2020-07-03_13h12.12.404,retriever_ti,2020.1.3,MacIntel,60,Chrome,1440,900,,,,,,,,,,,,,,,,,1,,,,,,,,,,,,,,,,,,,,,,,,,,,336.59123,46,right,0.85917,redfox      ,7,1,5,1,3,336.625555,336.625555,339.126155,0,45,45,45,1,46,2,7,dress         ,redfox      ,html/resources/sequences_IDs/A/07_dress.jpg,html/resources/sequences_IDs/B/01_redfox.jpg,7,1,3,2,1,1,6,1,0,25,,,,,,,,,,,,,,,,,,,,
,,,,,25,2020-07-03_13h12.12.404,retriever_ti,2020.1.3,MacIntel,60,Chrome,1440,900,,,,,,,,,,,,,,,,,1,,,,,,,,,,,,,,,,,,,,,,,,,,,339.74181,47,left,0.6223,camel         ,4,3,2,1,3,339.76143,339.76143,342.25816,0,46,46,46,1,47,4,2,camel         ,dress         ,html/resources/sequences_IDs/A/03_camel.jpg,html/resources/sequences_IDs/A/07_dress.jpg,3,7,1,1,3,2,3,6,0,25,,,,,,,,,,,,,,,,,,,,
,,,,,25,2020-07-03_13h12.12.404,retriever_ti,2020.1.3,MacIntel,60,Chrome,1440,900,,,,,,,,,,,,,,,,,1,,,,,,,,,,,,,,,,,,,,,,,,,,,342.85959,48,right,1.072985,dolphin     ,3,2,1,1,1,342.89377,342.89377,345.390275,0,47,47,47,1,48,2,3,dress         ,dolphin     ,html/resources/sequences_IDs/A/07_dress.jpg,html/resources/sequences_IDs/B/02_dolphin.jpg,7,2,3,2,1,1,6,2,0,25,,,,,,,,,,,,,,,,,,,,
,,,,,25,2020-07-03_13h12.12.404,retriever_ti,2020.1.3,MacIntel,60,Chrome,1440,900,,,,,,,,,,,,,,,,,1,,,,,,,,,,,,,,,,,,,,,,,,,,,346.493085,49,left,2.342915,dolphin     ,3,2,-1,0,1,346.525725,346.525725,349.02343,0,48,48,48,1,49,3,4,dolphin     ,camel         ,html/resources/sequences_IDs/B/02_dolphin.jpg,html/resources/sequences_IDs/A/03_camel.jpg,2,3,1,1,1,1,2,3,1,25,,,,,,,,,,,,,,,,,,,,
,,,,,25,2020-07-03_13h12.12.404,retriever_ti,2020.1.3,MacIntel,60,Chrome,1440,900,,,,,,,,,,,,,,,,,1,,,,,,,,,,,,,,,,,,,,,,,,,,,350.126775,50,left,0.730265,redfox      ,7,1,6,1,3,350.15918,350.15918,352.656925,0,49,49,49,1,50,7,1,redfox      ,gloves      ,html/resources/sequences_IDs/B/01_redfox.jpg,html/resources/sequences_IDs/B/06_gloves.jpg,1,6,1,1,3,2,1,5,0,25,,,,,,,,,,,,,,,,,,,,
,,,,,25,2020-07-03_13h12.12.404,retriever_ti,2020.1.3,MacIntel,60,Chrome,1440,900,,,,,,,,,,,,,,,,,1,,,,,,,,,,,,,,,,,,,,,,,,,,,353.275625,51,left,0.942455,calculator    ,8,9,1,1,1,353.310405,353.310405,355.80861,0,50,50,50,1,51,8,7,calculator    ,redfox      ,html/resources/sequences_IDs/A/09_calculator.jpg,html/resources/sequences_IDs/B/01_redfox.jpg,9,1,4,2,1,1,7,1,0,25,,,,,,,,,,,,,,,,,,,,
,,,,,25,2020-07-03_13h12.12.404,retriever_ti,2020.1.3,MacIntel,60,Chrome,1440,900,,,,,,,,,,,,,,,,,1,,,,,,,,,,,,,,,,,,,,,,,,,,,356.90797,52,left,0.823245,parrot      ,5,5,-1,0,0,356.925905,356.925905,359.4231,0,51,51,51,1,52,5,6,parrot      ,satellite_dish,html/resources/sequences_IDs/B/05_parrot.jpg,html/resources/sequences_IDs/A/10_satellite_dish.jpg,5,10,2,1,4,2,4,8,0,25,,,,,,,,,,,,,,,,,,,,
,,,,,25,2020-07-03_13h12.12.404,retriever_ti,2020.1.3,MacIntel,60,Chrome,1440,900,,,,,,,,,,,,,,,,,1,,,,,,,,,,,,,,,,,,,,,,,,,,,360.52382,53,right,2.33036,parrot      ,5,5,-2,0,3,360.55905,360.55905,363.0562,0,52,52,52,1,53,7,5,redfox      ,parrot      ,html/resources/sequences_IDs/B/01_redfox.jpg,html/resources/sequences_IDs/B/05_parrot.jpg,1,5,1,1,2,1,1,4,0,25,,,,,,,,,,,,,,,,,,,,
,,,,,25,2020-07-03_13h12.12.404,retriever_ti,2020.1.3,MacIntel,60,Chrome,1440,900,,,,,,,,,,,,,,,,,1,,,,,,,,,,,,,,,,,,,,,,,,,,,363.660395,54,left,0.769285,parrot      ,5,5,-2,0,3,363.692995,363.692995,366.190995,0,53,53,53,1,54,5,7,parrot      ,redfox      ,html/resources/sequences_IDs/B/05_parrot.jpg,html/resources/sequences_IDs/B/01_redfox.jpg,5,1,2,1,1,1,4,1,0,25,,,,,,,,,,,,,,,,,,,,
,,,,,25,2020-07-03_13h12.12.404,retriever_ti,2020.1.3,MacIntel,60,Chrome,1440,900,,,,,,,,,,,,,,,,,1,,,,,,,,,,,,,,,,,,,,,,,,,,,366.80878,55,NaN,NaN,No_response,NaN,NaN,NaN,2,2,366.82602,366.82602,369.324035,0,54,54,54,1,55,4,7,camel         ,redfox      ,html/resources/sequences_IDs/A/03_camel.jpg,html/resources/sequences_IDs/B/01_redfox.jpg,3,1,1,1,1,1,3,1,0,25,,,,,,,,,,,,,,,,,,,,
,,,,,25,2020-07-03_13h12.12.404,retriever_ti,2020.1.3,MacIntel,60,Chrome,1440,900,,,,,,,,,,,,,,,,,1,,,,,,,,,,,,,,,,,,,,,,,,,,,370.424935,56,left,0.545495,camel         ,4,3,1,1,1,370.44121,370.44121,372.9402,0,55,55,55,1,56,4,3,camel         ,dolphin     ,html/resources/sequences_IDs/A/03_camel.jpg,html/resources/sequences_IDs/B/02_dolphin.jpg,3,2,1,1,1,1,3,2,0,25,,,,,,,,,,,,,,,,,,,,
,,,,,25,2020-07-03_13h12.12.404,retriever_ti,2020.1.3,MacIntel,60,Chrome,1440,900,,,,,,,,,,,,,,,,,1,,,,,,,,,,,,,,,,,,,,,,,,,,,374.040725,57,left,0.457035,camel         ,4,3,3,1,3,374.07799,374.07799,376.574545,0,56,56,56,1,57,4,1,camel         ,gloves      ,html/resources/sequences_IDs/A/03_camel.jpg,html/resources/sequences_IDs/B/06_gloves.jpg,3,6,1,1,3,2,3,5,0,25,,,,,,,,,,,,,,,,,,,,
,,,,,25,2020-07-03_13h12.12.404,retriever_ti,2020.1.3,MacIntel,60,Chrome,1440,900,,,,,,,,,,,,,,,,,1,,,,,,,,,,,,,,,,,,,,,,,,,,,377.191195,58,right,0.538245,parrot      ,5,5,3,1,3,377.22498,377.22498,379.723355,0,57,57,57,1,58,2,5,dress         ,parrot      ,html/resources/sequences_IDs/A/07_dress.jpg,html/resources/sequences_IDs/B/05_parrot.jpg,7,5,3,2,2,1,6,4,0,25,,,,,,,,,,,,,,,,,,,,
,,,,,25,2020-07-03_13h12.12.404,retriever_ti,2020.1.3,MacIntel,60,Chrome,1440,900,,,,,,,,,,,,,,,,,1,,,,,,,,,,,,,,,,,,,,,,,,,,,380.34328,59,right,0.879015,calculator    ,8,9,1,1,1,380.35824,380.35824,382.856465,0,58,58,58,1,59,7,8,redfox      ,calculator    ,html/resources/sequences_IDs/B/01_redfox.jpg,html/resources/sequences_IDs/A/09_calculator.jpg,1,9,1,1,4,2,1,7,0,25,,,,,,,,,,,,,,,,,,,,
,,,,,25,2020-07-03_13h12.12.404,retriever_ti,2020.1.3,MacIntel,60,Chrome,1440,900,,,,,,,,,,,,,,,,,1,,,,,,,,,,,,,,,,,,,,,,,,,,,383.956415,60,left,1.22731,calculator    ,8,9,7,1,3,383.991585,383.991585,386.49197,0,59,59,59,1,60,8,1,calculator    ,gloves      ,html/resources/sequences_IDs/A/09_calculator.jpg,html/resources/sequences_IDs/B/06_gloves.jpg,9,6,4,2,3,2,7,5,0,25,,,,,,,,,,,,,,,,,,,,
,,,,,25,2020-07-03_13h12.12.404,retriever_ti,2020.1.3,MacIntel,60,Chrome,1440,900,,,,,,,,,,,,,,,,,1,,,,,,,,,,,,,,,,,,,,,,,,,,,387.10866,61,right,1.77361,dress         ,2,7,1,1,1,387.142005,387.142005,389.64149,0,60,60,60,1,61,1,2,gloves      ,dress         ,html/resources/sequences_IDs/B/06_gloves.jpg,html/resources/sequences_IDs/A/07_dress.jpg,6,7,3,2,3,2,5,6,0,25,,,,,,,,,,,,,,,,,,,,
,,,,,25,2020-07-03_13h12.12.404,retriever_ti,2020.1.3,MacIntel,60,Chrome,1440,900,,,,,,,,,,,,,,,,,1,,,,,,,,,,,,,,,,,,,,,,,,,,,390.73952,62,left,1.10624,dolphin     ,3,2,1,1,0,390.75772,390.75772,393.255615,0,61,61,61,1,62,3,2,dolphin     ,dress         ,html/resources/sequences_IDs/B/02_dolphin.jpg,html/resources/sequences_IDs/A/07_dress.jpg,2,7,1,1,3,2,2,6,1,25,,,,,,,,,,,,,,,,,,,,
,,,,,25,2020-07-03_13h12.12.404,retriever_ti,2020.1.3,MacIntel,60,Chrome,1440,900,,,,,,,,,,,,,,,,,1,,,,,,,,,,,,,,,,,,,,,,,,,,,394.358105,63,left,0.759245,satellite_dish,6,10,1,1,1,394.392165,394.392165,396.88983,0,62,62,62,1,63,6,5,satellite_dish,parrot      ,html/resources/sequences_IDs/A/10_satellite_dish.jpg,html/resources/sequences_IDs/B/05_parrot.jpg,10,5,4,2,2,1,8,4,0,25,,,,,,,,,,,,,,,,,,,,
,,,,,25,2020-07-03_13h12.12.404,retriever_ti,2020.1.3,MacIntel,60,Chrome,1440,900,,,,,,,,,,,,,,,,,1,,,,,,,,,,,,,,,,,,,,,,,,,,,397.98994,64,left,0.76544,satellite_dish,6,10,5,1,3,398.010045,398.010045,400.50788,0,63,63,63,1,64,6,1,satellite_dish,gloves      ,html/resources/sequences_IDs/A/10_satellite_dish.jpg,html/resources/sequences_IDs/B/06_gloves.jpg,10,6,4,2,3,2,8,5,0,25,,,,,,,,,,,,,,,,,,,,
,,,,,25,2020-07-03_13h12.12.404,retriever_ti,2020.1.3,MacIntel,60,Chrome,1440,900,,,,,,,,,,,,,,,,,1,,,,,,,,,,,,,,,,,,,,,,,,,,,401.12708,65,right,0.8913,satellite_dish,6,10,-1,0,1,401.140995,401.140995,403.64058,0,64,64,64,1,65,7,6,redfox      ,satellite_dish,html/resources/sequences_IDs/B/01_redfox.jpg,html/resources/sequences_IDs/A/10_satellite_dish.jpg,1,10,1,1,4,2,1,8,1,25,,,,,,,,,,,,,,,,,,,,
,,,,,25,2020-07-03_13h12.12.404,retriever_ti,2020.1.3,MacIntel,60,Chrome,1440,900,,,,,,,,,,,,,,,,,1,,,,,,,,,,,,,,,,,,,,,,,,,,,404.7431,66,right,1.24454,dress         ,2,7,1,1,0,404.758575,404.758575,407.25579,0,65,65,65,1,66,1,2,gloves      ,dress         ,html/resources/sequences_IDs/B/06_gloves.jpg,html/resources/sequences_IDs/A/07_dress.jpg,6,7,3,2,3,2,5,6,1,25,,,,,,,,,,,,,,,,,,,,
,,,,,25,2020-07-03_13h12.12.404,retriever_ti,2020.1.3,MacIntel,60,Chrome,1440,900,,,,,,,,,,,,,,,,,1,,,,,,,,,,,,,,,,,,,,,,,,,,,408.35818,67,left,1.158455,dolphin     ,3,2,-5,0,3,408.37587,408.37587,410.87307,0,66,66,66,1,67,3,8,dolphin     ,calculator    ,html/resources/sequences_IDs/B/02_dolphin.jpg,html/resources/sequences_IDs/A/09_calculator.jpg,2,9,1,1,4,2,2,7,0,25,,,,,,,,,,,,,,,,,,,,
,,,,,25,2020-07-03_13h12.12.404,retriever_ti,2020.1.3,MacIntel,60,Chrome,1440,900,,,,,,,,,,,,,,,,,1,,,,,,,,,,,,,,,,,,,,,,,,,,,411.49018,68,left,0.69486,camel         ,4,3,-1,0,0,411.52437,411.52437,414.02169,0,67,67,67,1,68,4,5,camel         ,parrot      ,html/resources/sequences_IDs/A/03_camel.jpg,html/resources/sequences_IDs/B/05_parrot.jpg,3,5,1,1,2,1,3,4,0,25,,,,,,,,,,,,,,,,,,,,
,,,,,25,2020-07-03_13h12.12.404,retriever_ti,2020.1.3,MacIntel,60,Chrome,1440,900,,,,,,,,,,,,,,,,,1,,,,,,,,,,,,,,,,,,,,,,,,,,,415.12478,69,left,1.92508,satellite_dish,6,10,2,1,3,415.1583,415.1583,417.656105,0,68,68,68,1,69,6,4,satellite_dish,camel         ,html/resources/sequences_IDs/A/10_satellite_dish.jpg,html/resources/sequences_IDs/A/03_camel.jpg,10,3,4,2,1,1,8,3,0,25,,,,,,,,,,,,,,,,,,,,
,,,,,25,2020-07-03_13h12.12.404,retriever_ti,2020.1.3,MacIntel,60,Chrome,1440,900,,,,,,,,,,,,,,,,,1,,,,,,,,,,,,,,,,,,,,,,,,,,,418.27321,70,left,0.79868,calculator    ,8,9,3,1,3,418.306,418.306,420.805935,0,69,69,69,1,70,8,5,calculator    ,parrot      ,html/resources/sequences_IDs/A/09_calculator.jpg,html/resources/sequences_IDs/B/05_parrot.jpg,9,5,4,2,2,1,7,4,0,25,,,,,,,,,,,,,,,,,,,,
,,,,,25,2020-07-03_13h12.12.404,retriever_ti,2020.1.3,MacIntel,60,Chrome,1440,900,,,,,,,,,,,,,,,,,1,,,,,,,,,,,,,,,,,,,,,,,,,,,421.42662,71,right,0.843745,dolphin     ,3,2,-4,0,3,421.43978,421.43978,423.938225,0,70,70,70,1,71,7,3,redfox      ,dolphin     ,html/resources/sequences_IDs/B/01_redfox.jpg,html/resources/sequences_IDs/B/02_dolphin.jpg,1,2,1,1,1,1,1,2,0,25,,,,,,,,,,,,,,,,,,,,
,,,,,25,2020-07-03_13h12.12.404,retriever_ti,2020.1.3,MacIntel,60,Chrome,1440,900,,,,,,,,,,,,,,,,,1,,,,,,,,,,,,,,,,,,,,,,,,,,,424.539385,72,left,1.059605,parrot      ,5,5,-1,0,1,424.55943,424.55943,427.056275,0,71,71,71,1,72,5,6,parrot      ,satellite_dish,html/resources/sequences_IDs/B/05_parrot.jpg,html/resources/sequences_IDs/A/10_satellite_dish.jpg,5,10,2,1,4,2,4,8,1,25,,,,,,,,,,,,,,,,,,,,
,,,,,25,2020-07-03_13h12.12.404,retriever_ti,2020.1.3,MacIntel,60,Chrome,1440,900,,,,,,,,,,,,,,,,,1,,,,,,,,,,,,,,,,,,,,,,,,,,,428.15729,73,right,0.866135,camel         ,4,3,3,1,3,428.191325,428.191325,430.689495,0,72,72,72,1,73,1,4,gloves      ,camel         ,html/resources/sequences_IDs/B/06_gloves.jpg,html/resources/sequences_IDs/A/03_camel.jpg,6,3,3,2,1,1,5,3,0,25,,,,,,,,,,,,,,,,,,,,
,,,,,25,2020-07-03_13h12.12.404,retriever_ti,2020.1.3,MacIntel,60,Chrome,1440,900,,,,,,,,,,,,,,,,,1,,,,,,,,,,,,,,,,,,,,,,,,,,,431.306605,74,left,1.12715,camel         ,4,3,-4,0,3,431.34325,431.34325,433.838755,0,73,73,73,1,74,4,8,camel         ,calculator    ,html/resources/sequences_IDs/A/03_camel.jpg,html/resources/sequences_IDs/A/09_calculator.jpg,3,9,1,1,4,2,3,7,0,25,,,,,,,,,,,,,,,,,,,,
,,,,,25,2020-07-03_13h12.12.404,retriever_ti,2020.1.3,MacIntel,60,Chrome,1440,900,,,,,,,,,,,,,,,,,1,,,,,,,,,,,,,,,,,,,,,,,,,,,434.456945,75,right,0.642355,redfox      ,7,1,4,1,3,434.489755,434.489755,436.989055,0,74,74,74,1,75,3,7,dolphin     ,redfox      ,html/resources/sequences_IDs/B/02_dolphin.jpg,html/resources/sequences_IDs/B/01_redfox.jpg,2,1,1,1,1,1,2,1,0,25,,,,,,,,,,,,,,,,,,,,
,,,,,25,2020-07-03_13h12.12.404,retriever_ti,2020.1.3,MacIntel,60,Chrome,1440,900,,,,,,,,,,,,,,,,,1,,,,,,,,,,,,,,,,,,,,,,,,,,,437.59171,76,right,1.110115,parrot      ,5,5,2,1,3,437.606415,437.606415,440.10601,0,75,75,75,1,76,3,5,dolphin     ,parrot      ,html/resources/sequences_IDs/B/02_dolphin.jpg,html/resources/sequences_IDs/B/05_parrot.jpg,2,5,1,1,2,1,2,4,0,25,,,,,,,,,,,,,,,,,,,,
,,,,,25,2020-07-03_13h12.12.404,retriever_ti,2020.1.3,MacIntel,60,Chrome,1440,900,,,,,,,,,,,,,,,,,1,,,,,,,,,,,,,,,,,,,,,,,,,,,440.724405,77,right,0.75675,redfox      ,7,1,6,1,3,440.75947,440.75947,443.25572,0,76,76,76,1,77,1,7,gloves      ,redfox      ,html/resources/sequences_IDs/B/06_gloves.jpg,html/resources/sequences_IDs/B/01_redfox.jpg,6,1,3,2,1,1,5,1,0,25,,,,,,,,,,,,,,,,,,,,
,,,,,25,2020-07-03_13h12.12.404,retriever_ti,2020.1.3,MacIntel,60,Chrome,1440,900,,,,,,,,,,,,,,,,,,,,,,,,,,,,,,,,,,,,,0,6.595705,,,,,,,,,,,,,,,,,,,,,,,,,,,,,,,,,,,,,,,,,0,0,0,0,1,,,,,,,,,,,,,,,
,,,,,25,2020-07-03_13h12.12.404,retriever_ti,2020.1.3,MacIntel,60,Chrome,1440,900,,,,,,,,,,,,,,,,,2,,,,,,,,,,,,,,,,,,,,,,,,,,,459.25853,78,left,0.811475,parrot      ,5,5,1,1,1,459.279545,459.279545,461.772355,0,0,0,0,1,78,5,4,parrot      ,camel         ,html/resources/sequences_IDs/B/05_parrot.jpg,html/resources/sequences_IDs/A/03_camel.jpg,5,3,2,1,1,1,4,3,0,25,,,,,,,,,,,,,,,,,,,,
,,,,,25,2020-07-03_13h12.12.404,retriever_ti,2020.1.3,MacIntel,60,Chrome,1440,900,,,,,,,,,,,,,,,,,2,,,,,,,,,,,,,,,,,,,,,,,,,,,462.87513,79,left,0.60723,gloves      ,1,6,-7,0,3,462.890715,462.890715,465.389465,0,1,1,1,1,79,1,8,gloves      ,calculator    ,html/resources/sequences_IDs/B/06_gloves.jpg,html/resources/sequences_IDs/A/09_calculator.jpg,6,9,3,2,4,2,5,7,0,25,,,,,,,,,,,,,,,,,,,,
,,,,,25,2020-07-03_13h12.12.404,retriever_ti,2020.1.3,MacIntel,60,Chrome,1440,900,,,,,,,,,,,,,,,,,2,,,,,,,,,,,,,,,,,,,,,,,,,,,465.99194,80,left,0.648085,camel         ,4,3,3,1,3,466.008255,466.008255,468.50583,0,2,2,2,1,80,4,1,camel         ,gloves      ,html/resources/sequences_IDs/A/03_camel.jpg,html/resources/sequences_IDs/B/06_gloves.jpg,3,6,1,1,3,2,3,5,0,25,,,,,,,,,,,,,,,,,,,,
,,,,,25,2020-07-03_13h12.12.404,retriever_ti,2020.1.3,MacIntel,60,Chrome,1440,900,,,,,,,,,,,,,,,,,2,,,,,,,,,,,,,,,,,,,,,,,,,,,469.109635,81,left,0.642135,satellite_dish,6,10,1,1,1,469.142045,469.142045,471.64012,0,3,3,3,1,81,6,5,satellite_dish,parrot      ,html/resources/sequences_IDs/A/10_satellite_dish.jpg,html/resources/sequences_IDs/B/05_parrot.jpg,10,5,4,2,2,1,8,4,0,25,,,,,,,,,,,,,,,,,,,,
,,,,,25,2020-07-03_13h12.12.404,retriever_ti,2020.1.3,MacIntel,60,Chrome,1440,900,,,,,,,,,,,,,,,,,2,,,,,,,,,,,,,,,,,,,,,,,,,,,472.73889,82,right,0.69736,satellite_dish,6,10,-1,0,0,472.773675,472.773675,475.27191,0,4,4,4,1,82,7,6,redfox      ,satellite_dish,html/resources/sequences_IDs/B/01_redfox.jpg,html/resources/sequences_IDs/A/10_satellite_dish.jpg,1,10,1,1,4,2,1,8,0,25,,,,,,,,,,,,,,,,,,,,
,,,,,25,2020-07-03_13h12.12.404,retriever_ti,2020.1.3,MacIntel,60,Chrome,1440,900,,,,,,,,,,,,,,,,,2,,,,,,,,,,,,,,,,,,,,,,,,,,,476.37365,83,right,0.712345,camel         ,4,3,2,1,3,476.40693,476.40693,478.90532,0,5,5,5,1,83,2,4,dress         ,camel         ,html/resources/sequences_IDs/A/07_dress.jpg,html/resources/sequences_IDs/A/03_camel.jpg,7,3,3,2,1,1,6,3,0,25,,,,,,,,,,,,,,,,,,,,
,,,,,25,2020-07-03_13h12.12.404,retriever_ti,2020.1.3,MacIntel,60,Chrome,1440,900,,,,,,,,,,,,,,,,,2,,,,,,,,,,,,,,,,,,,,,,,,,,,479.508635,84,left,1.534825,dress         ,2,7,-1,0,1,479.541345,479.541345,482.03865,0,6,6,6,1,84,2,3,dress         ,dolphin     ,html/resources/sequences_IDs/A/07_dress.jpg,html/resources/sequences_IDs/B/02_dolphin.jpg,7,2,3,2,1,1,6,2,1,25,,,,,,,,,,,,,,,,,,,,
,,,,,25,2020-07-03_13h12.12.404,retriever_ti,2020.1.3,MacIntel,60,Chrome,1440,900,,,,,,,,,,,,,,,,,2,,,,,,,,,,,,,,,,,,,,,,,,,,,483.139465,85,left,1.194645,calculator    ,8,9,2,1,3,483.157915,483.157915,485.65521,0,7,7,7,1,85,8,6,calculator    ,satellite_dish,html/resources/sequences_IDs/A/09_calculator.jpg,html/resources/sequences_IDs/A/10_satellite_dish.jpg,9,10,4,2,4,2,7,8,0,25,,,,,,,,,,,,,,,,,,,,
,,,,,25,2020-07-03_13h12.12.404,retriever_ti,2020.1.3,MacIntel,60,Chrome,1440,900,,,,,,,,,,,,,,,,,2,,,,,,,,,,,,,,,,,,,,,,,,,,,486.2711,86,right,1.138405,satellite_dish,6,10,3,1,3,486.307405,486.307405,488.804605,0,8,8,8,1,86,3,6,dolphin     ,satellite_dish,html/resources/sequences_IDs/B/02_dolphin.jpg,html/resources/sequences_IDs/A/10_satellite_dish.jpg,2,10,1,1,4,2,2,8,0,25,,,,,,,,,,,,,,,,,,,,
,,,,,25,2020-07-03_13h12.12.404,retriever_ti,2020.1.3,MacIntel,60,Chrome,1440,900,,,,,,,,,,,,,,,,,2,,,,,,,,,,,,,,,,,,,,,,,,,,,489.40698,87,left,1.84832,satellite_dish,6,10,5,1,3,489.43905,489.43905,491.93784,0,9,9,9,1,87,6,1,satellite_dish,gloves      ,html/resources/sequences_IDs/A/10_satellite_dish.jpg,html/resources/sequences_IDs/B/06_gloves.jpg,10,6,4,2,3,2,8,5,0,25,,,,,,,,,,,,,,,,,,,,
,,,,,25,2020-07-03_13h12.12.404,retriever_ti,2020.1.3,MacIntel,60,Chrome,1440,900,,,,,,,,,,,,,,,,,2,,,,,,,,,,,,,,,,,,,,,,,,,,,492.555495,88,right,1.797115,parrot      ,5,5,1,1,1,492.58878,492.58878,495.088405,0,10,10,10,1,88,4,5,camel         ,parrot      ,html/resources/sequences_IDs/A/03_camel.jpg,html/resources/sequences_IDs/B/05_parrot.jpg,3,5,1,1,2,1,3,4,0,25,,,,,,,,,,,,,,,,,,,,
,,,,,25,2020-07-03_13h12.12.404,retriever_ti,2020.1.3,MacIntel,60,Chrome,1440,900,,,,,,,,,,,,,,,,,2,,,,,,,,,,,,,,,,,,,,,,,,,,,496.190095,89,right,0.40223,dolphin     ,3,2,1,1,1,496.20669,496.20669,498.704,0,11,11,11,1,89,2,3,dress         ,dolphin     ,html/resources/sequences_IDs/A/07_dress.jpg,html/resources/sequences_IDs/B/02_dolphin.jpg,7,2,3,2,1,1,6,2,0,25,,,,,,,,,,,,,,,,,,,,
,,,,,25,2020-07-03_13h12.12.404,retriever_ti,2020.1.3,MacIntel,60,Chrome,1440,900,,,,,,,,,,,,,,,,,2,,,,,,,,,,,,,,,,,,,,,,,,,,,499.804635,90,left,1.231525,calculator    ,8,9,5,1,3,499.823685,499.823685,502.320545,0,12,12,12,1,90,8,3,calculator    ,dolphin     ,html/resources/sequences_IDs/A/09_calculator.jpg,html/resources/sequences_IDs/B/02_dolphin.jpg,9,2,4,2,1,1,7,2,0,25,,,,,,,,,,,,,,,,,,,,
,,,,,25,2020-07-03_13h12.12.404,retriever_ti,2020.1.3,MacIntel,60,Chrome,1440,900,,,,,,,,,,,,,,,,,2,,,,,,,,,,,,,,,,,,,,,,,,,,,502.9386,91,left,1.20643,redfox      ,7,1,4,1,3,502.95556,502.95556,505.45478,0,13,13,13,1,91,7,3,redfox      ,dolphin     ,html/resources/sequences_IDs/B/01_redfox.jpg,html/resources/sequences_IDs/B/02_dolphin.jpg,1,2,1,1,1,1,1,2,0,25,,,,,,,,,,,,,,,,,,,,
,,,,,25,2020-07-03_13h12.12.404,retriever_ti,2020.1.3,MacIntel,60,Chrome,1440,900,,,,,,,,,,,,,,,,,2,,,,,,,,,,,,,,,,,,,,,,,,,,,506.071175,92,right,1.083875,parrot      ,5,5,-3,0,3,506.1053,506.1053,508.60532,0,14,14,14,1,92,8,5,calculator    ,parrot      ,html/resources/sequences_IDs/A/09_calculator.jpg,html/resources/sequences_IDs/B/05_parrot.jpg,9,5,4,2,2,1,7,4,0,25,,,,,,,,,,,,,,,,,,,,
,,,,,25,2020-07-03_13h12.12.404,retriever_ti,2020.1.3,MacIntel,60,Chrome,1440,900,,,,,,,,,,,,,,,,,2,,,,,,,,,,,,,,,,,,,,,,,,,,,509.223525,93,left,0.796375,dress         ,2,7,1,1,1,509.255175,509.255175,511.754935,0,15,15,15,1,93,2,1,dress         ,gloves      ,html/resources/sequences_IDs/A/07_dress.jpg,html/resources/sequences_IDs/B/06_gloves.jpg,7,6,3,2,3,2,6,5,0,25,,,,,,,,,,,,,,,,,,,,
,,,,,25,2020-07-03_13h12.12.404,retriever_ti,2020.1.3,MacIntel,60,Chrome,1440,900,,,,,,,,,,,,,,,,,2,,,,,,,,,,,,,,,,,,,,,,,,,,,512.85405,94,right,0.69915,redfox      ,7,1,1,1,1,512.8721,512.8721,515.37113,0,16,16,16,1,94,6,7,satellite_dish,redfox      ,html/resources/sequences_IDs/A/10_satellite_dish.jpg,html/resources/sequences_IDs/B/01_redfox.jpg,10,1,4,2,1,1,8,1,0,25,,,,,,,,,,,,,,,,,,,,
,,,,,25,2020-07-03_13h12.12.404,retriever_ti,2020.1.3,MacIntel,60,Chrome,1440,900,,,,,,,,,,,,,,,,,2,,,,,,,,,,,,,,,,,,,,,,,,,,,516.47358,95,left,0.5264,redfox      ,7,1,6,1,3,516.50781,516.50781,519.00569,0,17,17,17,1,95,7,1,redfox      ,gloves      ,html/resources/sequences_IDs/B/01_redfox.jpg,html/resources/sequences_IDs/B/06_gloves.jpg,1,6,1,1,3,2,1,5,0,25,,,,,,,,,,,,,,,,,,,,
,,,,,25,2020-07-03_13h12.12.404,retriever_ti,2020.1.3,MacIntel,60,Chrome,1440,900,,,,,,,,,,,,,,,,,2,,,,,,,,,,,,,,,,,,,,,,,,,,,519.608245,96,right,0.94191,parrot      ,5,5,4,1,3,519.64232,519.64232,522.137355,0,18,18,18,1,96,1,5,gloves      ,parrot      ,html/resources/sequences_IDs/B/06_gloves.jpg,html/resources/sequences_IDs/B/05_parrot.jpg,6,5,3,2,2,1,5,4,0,25,,,,,,,,,,,,,,,,,,,,
,,,,,25,2020-07-03_13h12.12.404,retriever_ti,2020.1.3,MacIntel,60,Chrome,1440,900,,,,,,,,,,,,,,,,,2,,,,,,,,,,,,,,,,,,,,,,,,,,,522.739475,97,left,1.059215,camel         ,4,3,1,1,0,522.775575,522.775575,525.27073,0,19,19,19,1,97,4,3,camel         ,dolphin     ,html/resources/sequences_IDs/A/03_camel.jpg,html/resources/sequences_IDs/B/02_dolphin.jpg,3,2,1,1,1,1,3,2,1,25,,,,,,,,,,,,,,,,,,,,
,,,,,25,2020-07-03_13h12.12.404,retriever_ti,2020.1.3,MacIntel,60,Chrome,1440,900,,,,,,,,,,,,,,,,,2,,,,,,,,,,,,,,,,,,,,,,,,,,,526.372595,98,right,0.626445,dolphin     ,3,2,-2,0,3,526.406205,526.406205,528.904995,0,20,20,20,1,98,5,3,parrot      ,dolphin     ,html/resources/sequences_IDs/B/05_parrot.jpg,html/resources/sequences_IDs/B/02_dolphin.jpg,5,2,2,1,1,1,4,2,0,25,,,,,,,,,,,,,,,,,,,,
,,,,,25,2020-07-03_13h12.12.404,retriever_ti,2020.1.3,MacIntel,60,Chrome,1440,900,,,,,,,,,,,,,,,,,2,,,,,,,,,,,,,,,,,,,,,,,,,,,529.52318,99,right,0.57695,dolphin     ,3,2,-3,0,3,529.540775,529.540775,532.037345,0,21,21,21,1,99,6,3,satellite_dish,dolphin     ,html/resources/sequences_IDs/A/10_satellite_dish.jpg,html/resources/sequences_IDs/B/02_dolphin.jpg,10,2,4,2,1,1,8,2,0,25,,,,,,,,,,,,,,,,,,,,
,,,,,25,2020-07-03_13h12.12.404,retriever_ti,2020.1.3,MacIntel,60,Chrome,1440,900,,,,,,,,,,,,,,,,,2,,,,,,,,,,,,,,,,,,,,,,,,,,,532.656755,100,left,0.558005,camel         ,4,3,2,1,3,532.693005,532.693005,535.18791,0,22,22,22,1,100,4,2,camel         ,dress         ,html/resources/sequences_IDs/A/03_camel.jpg,html/resources/sequences_IDs/A/07_dress.jpg,3,7,1,1,3,2,3,6,0,25,,,,,,,,,,,,,,,,,,,,
,,,,,25,2020-07-03_13h12.12.404,retriever_ti,2020.1.3,MacIntel,60,Chrome,1440,900,,,,,,,,,,,,,,,,,2,,,,,,,,,,,,,,,,,,,,,,,,,,,535.806455,101,right,0.760105,dress         ,2,7,-6,0,3,535.841515,535.841515,538.337175,0,23,23,23,1,101,8,2,calculator    ,dress         ,html/resources/sequences_IDs/A/09_calculator.jpg,html/resources/sequences_IDs/A/07_dress.jpg,9,7,4,2,3,2,7,6,0,25,,,,,,,,,,,,,,,,,,,,
,,,,,25,2020-07-03_13h12.12.404,retriever_ti,2020.1.3,MacIntel,60,Chrome,1440,900,,,,,,,,,,,,,,,,,2,,,,,,,,,,,,,,,,,,,,,,,,,,,538.93826,102,left,1.238775,parrot      ,5,5,-1,0,0,538.955745,538.955745,541.454045,0,24,24,24,1,102,5,6,parrot      ,satellite_dish,html/resources/sequences_IDs/B/05_parrot.jpg,html/resources/sequences_IDs/A/10_satellite_dish.jpg,5,10,2,1,4,2,4,8,0,25,,,,,,,,,,,,,,,,,,,,
,,,,,25,2020-07-03_13h12.12.404,retriever_ti,2020.1.3,MacIntel,60,Chrome,1440,900,,,,,,,,,,,,,,,,,2,,,,,,,,,,,,,,,,,,,,,,,,,,,542.555085,103,left,1.14966,satellite_dish,6,10,-2,0,3,542.574235,542.574235,545.070995,0,25,25,25,1,103,6,8,satellite_dish,calculator    ,html/resources/sequences_IDs/A/10_satellite_dish.jpg,html/resources/sequences_IDs/A/09_calculator.jpg,10,9,4,2,4,2,8,7,0,25,,,,,,,,,,,,,,,,,,,,
,,,,,25,2020-07-03_13h12.12.404,retriever_ti,2020.1.3,MacIntel,60,Chrome,1440,900,,,,,,,,,,,,,,,,,2,,,,,,,,,,,,,,,,,,,,,,,,,,,545.673865,104,left,0.81133,parrot      ,5,5,-3,0,3,545.70853,545.70853,548.20452,0,26,26,26,1,104,5,8,parrot      ,calculator    ,html/resources/sequences_IDs/B/05_parrot.jpg,html/resources/sequences_IDs/A/09_calculator.jpg,5,9,2,1,4,2,4,7,0,25,,,,,,,,,,,,,,,,,,,,
,,,,,25,2020-07-03_13h12.12.404,retriever_ti,2020.1.3,MacIntel,60,Chrome,1440,900,,,,,,,,,,,,,,,,,2,,,,,,,,,,,,,,,,,,,,,,,,,,,548.808475,105,left,0.67489,dress         ,2,7,1,1,1,548.84195,548.84195,551.338435,0,27,27,27,1,105,2,1,dress         ,gloves      ,html/resources/sequences_IDs/A/07_dress.jpg,html/resources/sequences_IDs/B/06_gloves.jpg,7,6,3,2,3,2,6,5,0,25,,,,,,,,,,,,,,,,,,,,
,,,,,25,2020-07-03_13h12.12.404,retriever_ti,2020.1.3,MacIntel,60,Chrome,1440,900,,,,,,,,,,,,,,,,,2,,,,,,,,,,,,,,,,,,,,,,,,,,,552.440815,106,right,0.79567,camel         ,4,3,-3,0,3,552.475265,552.475265,554.973035,0,28,28,28,1,106,7,4,redfox      ,camel         ,html/resources/sequences_IDs/B/01_redfox.jpg,html/resources/sequences_IDs/A/03_camel.jpg,1,3,1,1,1,1,1,3,0,25,,,,,,,,,,,,,,,,,,,,
,,,,,25,2020-07-03_13h12.12.404,retriever_ti,2020.1.3,MacIntel,60,Chrome,1440,900,,,,,,,,,,,,,,,,,2,,,,,,,,,,,,,,,,,,,,,,,,,,,555.591535,107,left,0.81905,dress         ,2,7,-4,0,3,555.62444,555.62444,558.12163,0,29,29,29,1,107,2,6,dress         ,satellite_dish,html/resources/sequences_IDs/A/07_dress.jpg,html/resources/sequences_IDs/A/10_satellite_dish.jpg,7,10,3,2,4,2,6,8,0,25,,,,,,,,,,,,,,,,,,,,
,,,,,25,2020-07-03_13h12.12.404,retriever_ti,2020.1.3,MacIntel,60,Chrome,1440,900,,,,,,,,,,,,,,,,,2,,,,,,,,,,,,,,,,,,,,,,,,,,,558.738525,108,left,0.527915,redfox      ,7,1,1,1,1,558.77304,558.77304,561.271705,0,30,30,30,1,108,7,6,redfox      ,satellite_dish,html/resources/sequences_IDs/B/01_redfox.jpg,html/resources/sequences_IDs/A/10_satellite_dish.jpg,1,10,1,1,4,2,1,8,0,25,,,,,,,,,,,,,,,,,,,,
,,,,,25,2020-07-03_13h12.12.404,retriever_ti,2020.1.3,MacIntel,60,Chrome,1440,900,,,,,,,,,,,,,,,,,2,,,,,,,,,,,,,,,,,,,,,,,,,,,562.37384,109,right,0.54337,camel         ,4,3,-1,0,1,562.407285,562.407285,564.90414,0,31,31,31,1,109,5,4,parrot      ,camel         ,html/resources/sequences_IDs/B/05_parrot.jpg,html/resources/sequences_IDs/A/03_camel.jpg,5,3,2,1,1,1,4,3,1,25,,,,,,,,,,,,,,,,,,,,
,,,,,25,2020-07-03_13h12.12.404,retriever_ti,2020.1.3,MacIntel,60,Chrome,1440,900,,,,,,,,,,,,,,,,,2,,,,,,,,,,,,,,,,,,,,,,,,,,,566.00538,110,left,0.943435,redfox      ,7,1,-1,0,0,566.04005,566.04005,568.536135,0,32,32,32,1,110,7,8,redfox      ,calculator    ,html/resources/sequences_IDs/B/01_redfox.jpg,html/resources/sequences_IDs/A/09_calculator.jpg,1,9,1,1,4,2,1,7,0,25,,,,,,,,,,,,,,,,,,,,
,,,,,25,2020-07-03_13h12.12.404,retriever_ti,2020.1.3,MacIntel,60,Chrome,1440,900,,,,,,,,,,,,,,,,,2,,,,,,,,,,,,,,,,,,,,,,,,,,,569.638035,111,left,0.642,camel         ,4,3,-3,0,3,569.67192,569.67192,572.169785,0,33,33,33,1,111,4,7,camel         ,redfox      ,html/resources/sequences_IDs/A/03_camel.jpg,html/resources/sequences_IDs/B/01_redfox.jpg,3,1,1,1,1,1,3,1,0,25,,,,,,,,,,,,,,,,,,,,
,,,,,25,2020-07-03_13h12.12.404,retriever_ti,2020.1.3,MacIntel,60,Chrome,1440,900,,,,,,,,,,,,,,,,,2,,,,,,,,,,,,,,,,,,,,,,,,,,,572.774815,112,left,1.547655,dress         ,2,7,-6,0,3,572.78976,572.78976,575.2869,0,34,34,34,1,112,2,8,dress         ,calculator    ,html/resources/sequences_IDs/A/07_dress.jpg,html/resources/sequences_IDs/A/09_calculator.jpg,7,9,3,2,4,2,6,7,0,25,,,,,,,,,,,,,,,,,,,,
,,,,,25,2020-07-03_13h12.12.404,retriever_ti,2020.1.3,MacIntel,60,Chrome,1440,900,,,,,,,,,,,,,,,,,2,,,,,,,,,,,,,,,,,,,,,,,,,,,575.890075,113,left,0.69772,satellite_dish,6,10,1,1,0,575.90579,575.90579,578.40401,0,35,35,35,1,113,6,5,satellite_dish,parrot      ,html/resources/sequences_IDs/A/10_satellite_dish.jpg,html/resources/sequences_IDs/B/05_parrot.jpg,10,5,4,2,2,1,8,4,1,25,,,,,,,,,,,,,,,,,,,,
,,,,,25,2020-07-03_13h12.12.404,retriever_ti,2020.1.3,MacIntel,60,Chrome,1440,900,,,,,,,,,,,,,,,,,2,,,,,,,,,,,,,,,,,,,,,,,,,,,579.506395,114,left,1.111225,redfox      ,7,1,2,1,3,579.539125,579.539125,582.036205,0,36,36,36,1,114,7,5,redfox      ,parrot      ,html/resources/sequences_IDs/B/01_redfox.jpg,html/resources/sequences_IDs/B/05_parrot.jpg,1,5,1,1,2,1,1,4,0,25,,,,,,,,,,,,,,,,,,,,
,,,,,25,2020-07-03_13h12.12.404,retriever_ti,2020.1.3,MacIntel,60,Chrome,1440,900,,,,,,,,,,,,,,,,,2,,,,,,,,,,,,,,,,,,,,,,,,,,,582.640335,115,left,1.14693,dolphin     ,3,2,2,1,3,582.655705,582.655705,585.153005,0,37,37,37,1,115,3,1,dolphin     ,gloves      ,html/resources/sequences_IDs/B/02_dolphin.jpg,html/resources/sequences_IDs/B/06_gloves.jpg,2,6,1,1,3,2,2,5,0,25,,,,,,,,,,,,,,,,,,,,
,,,,,25,2020-07-03_13h12.12.404,retriever_ti,2020.1.3,MacIntel,60,Chrome,1440,900,,,,,,,,,,,,,,,,,2,,,,,,,,,,,,,,,,,,,,,,,,,,,585.770935,116,left,0.98726,camel         ,4,3,1,1,1,585.78769,585.78769,588.288865,0,38,38,38,1,116,4,3,camel         ,dolphin     ,html/resources/sequences_IDs/A/03_camel.jpg,html/resources/sequences_IDs/B/02_dolphin.jpg,3,2,1,1,1,1,3,2,0,25,,,,,,,,,,,,,,,,,,,,
,,,,,25,2020-07-03_13h12.12.404,retriever_ti,2020.1.3,MacIntel,60,Chrome,1440,900,,,,,,,,,,,,,,,,,2,,,,,,,,,,,,,,,,,,,,,,,,,,,589.386475,117,left,0.962635,calculator    ,8,9,1,1,0,589.422765,589.422765,591.920985,0,39,39,39,1,117,8,7,calculator    ,redfox      ,html/resources/sequences_IDs/A/09_calculator.jpg,html/resources/sequences_IDs/B/01_redfox.jpg,9,1,4,2,1,1,7,1,1,25,,,,,,,,,,,,,,,,,,,,
,,,,,25,2020-07-03_13h12.12.404,retriever_ti,2020.1.3,MacIntel,60,Chrome,1440,900,,,,,,,,,,,,,,,,,2,,,,,,,,,,,,,,,,,,,,,,,,,,,593.02166,118,right,0.694925,calculator    ,8,9,1,1,1,593.03889,593.03889,595.53706,0,40,40,40,1,118,7,8,redfox      ,calculator    ,html/resources/sequences_IDs/B/01_redfox.jpg,html/resources/sequences_IDs/A/09_calculator.jpg,1,9,1,1,4,2,1,7,0,25,,,,,,,,,,,,,,,,,,,,
,,,,,25,2020-07-03_13h12.12.404,retriever_ti,2020.1.3,MacIntel,60,Chrome,1440,900,,,,,,,,,,,,,,,,,2,,,,,,,,,,,,,,,,,,,,,,,,,,,596.63902,119,left,0.627625,parrot      ,5,5,4,1,3,596.655665,596.655665,599.153135,0,41,41,41,1,119,5,1,parrot      ,gloves      ,html/resources/sequences_IDs/B/05_parrot.jpg,html/resources/sequences_IDs/B/06_gloves.jpg,5,6,2,1,3,2,4,5,0,25,,,,,,,,,,,,,,,,,,,,
,,,,,25,2020-07-03_13h12.12.404,retriever_ti,2020.1.3,MacIntel,60,Chrome,1440,900,,,,,,,,,,,,,,,,,2,,,,,,,,,,,,,,,,,,,,,,,,,,,599.757505,120,left,0.84357,camel         ,4,3,1,1,1,599.771945,599.771945,602.26997,0,42,42,42,1,120,4,3,camel         ,dolphin     ,html/resources/sequences_IDs/A/03_camel.jpg,html/resources/sequences_IDs/B/02_dolphin.jpg,3,2,1,1,1,1,3,2,0,25,,,,,,,,,,,,,,,,,,,,
,,,,,25,2020-07-03_13h12.12.404,retriever_ti,2020.1.3,MacIntel,60,Chrome,1440,900,,,,,,,,,,,,,,,,,2,,,,,,,,,,,,,,,,,,,,,,,,,,,603.37297,121,left,0.765035,satellite_dish,6,10,4,1,3,603.38904,603.38904,605.88876,0,43,43,43,1,121,6,2,satellite_dish,dress         ,html/resources/sequences_IDs/A/10_satellite_dish.jpg,html/resources/sequences_IDs/A/07_dress.jpg,10,7,4,2,3,2,8,6,0,25,,,,,,,,,,,,,,,,,,,,
,,,,,25,2020-07-03_13h12.12.404,retriever_ti,2020.1.3,MacIntel,60,Chrome,1440,900,,,,,,,,,,,,,,,,,2,,,,,,,,,,,,,,,,,,,,,,,,,,,606.50808,122,left,1.320415,calculator    ,8,9,1,1,1,606.54078,606.54078,609.038565,0,44,44,44,1,122,8,7,calculator    ,redfox      ,html/resources/sequences_IDs/A/09_calculator.jpg,html/resources/sequences_IDs/B/01_redfox.jpg,9,1,4,2,1,1,7,1,0,25,,,,,,,,,,,,,,,,,,,,
,,,,,25,2020-07-03_13h12.12.404,retriever_ti,2020.1.3,MacIntel,60,Chrome,1440,900,,,,,,,,,,,,,,,,,2,,,,,,,,,,,,,,,,,,,,,,,,,,,610.137025,123,right,0.893745,camel         ,4,3,3,1,3,610.17253,610.17253,612.670025,0,45,45,45,1,123,1,4,gloves      ,camel         ,html/resources/sequences_IDs/B/06_gloves.jpg,html/resources/sequences_IDs/A/03_camel.jpg,6,3,3,2,1,1,5,3,0,25,,,,,,,,,,,,,,,,,,,,
,,,,,25,2020-07-03_13h12.12.404,retriever_ti,2020.1.3,MacIntel,60,Chrome,1440,900,,,,,,,,,,,,,,,,,2,,,,,,,,,,,,,,,,,,,,,,,,,,,613.27402,124,right,1.0245,satellite_dish,6,10,5,1,3,613.307625,613.307625,615.80428,0,46,46,46,1,124,1,6,gloves      ,satellite_dish,html/resources/sequences_IDs/B/06_gloves.jpg,html/resources/sequences_IDs/A/10_satellite_dish.jpg,6,10,3,2,4,2,5,8,0,25,,,,,,,,,,,,,,,,,,,,
,,,,,25,2020-07-03_13h12.12.404,retriever_ti,2020.1.3,MacIntel,60,Chrome,1440,900,,,,,,,,,,,,,,,,,2,,,,,,,,,,,,,,,,,,,,,,,,,,,616.423055,125,right,1.101325,redfox      ,7,1,5,1,3,616.45699,616.45699,618.95361,0,47,47,47,1,125,2,7,dress         ,redfox      ,html/resources/sequences_IDs/A/07_dress.jpg,html/resources/sequences_IDs/B/01_redfox.jpg,7,1,3,2,1,1,6,1,0,25,,,,,,,,,,,,,,,,,,,,
,,,,,25,2020-07-03_13h12.12.404,retriever_ti,2020.1.3,MacIntel,60,Chrome,1440,900,,,,,,,,,,,,,,,,,2,,,,,,,,,,,,,,,,,,,,,,,,,,,619.557725,126,right,1.104785,gloves      ,1,6,-7,0,3,619.572765,619.572765,622.06942,0,48,48,48,1,126,8,1,calculator    ,gloves      ,html/resources/sequences_IDs/A/09_calculator.jpg,html/resources/sequences_IDs/B/06_gloves.jpg,9,6,4,2,3,2,7,5,0,25,,,,,,,,,,,,,,,,,,,,
,,,,,25,2020-07-03_13h12.12.404,retriever_ti,2020.1.3,MacIntel,60,Chrome,1440,900,,,,,,,,,,,,,,,,,2,,,,,,,,,,,,,,,,,,,,,,,,,,,622.671745,127,left,0.825715,dolphin     ,3,2,-5,0,3,622.68848,622.68848,625.18673,0,49,49,49,1,127,3,8,dolphin     ,calculator    ,html/resources/sequences_IDs/B/02_dolphin.jpg,html/resources/sequences_IDs/A/09_calculator.jpg,2,9,1,1,4,2,2,7,0,25,,,,,,,,,,,,,,,,,,,,
,,,,,25,2020-07-03_13h12.12.404,retriever_ti,2020.1.3,MacIntel,60,Chrome,1440,900,,,,,,,,,,,,,,,,,2,,,,,,,,,,,,,,,,,,,,,,,,,,,625.79077,128,left,1.187725,dolphin     ,3,2,-4,0,3,625.80594,625.80594,628.30431,0,50,50,50,1,128,3,7,dolphin     ,redfox      ,html/resources/sequences_IDs/B/02_dolphin.jpg,html/resources/sequences_IDs/B/01_redfox.jpg,2,1,1,1,1,1,2,1,0,25,,,,,,,,,,,,,,,,,,,,
,,,,,25,2020-07-03_13h12.12.404,retriever_ti,2020.1.3,MacIntel,60,Chrome,1440,900,,,,,,,,,,,,,,,,,2,,,,,,,,,,,,,,,,,,,,,,,,,,,628.920775,129,right,0.113275,dress         ,2,7,-5,0,3,628.940305,628.940305,631.436445,0,51,51,51,1,129,7,2,redfox      ,dress         ,html/resources/sequences_IDs/B/01_redfox.jpg,html/resources/sequences_IDs/A/07_dress.jpg,1,7,1,1,3,2,1,6,0,25,,,,,,,,,,,,,,,,,,,,
,,,,,25,2020-07-03_13h12.12.404,retriever_ti,2020.1.3,MacIntel,60,Chrome,1440,900,,,,,,,,,,,,,,,,,2,,,,,,,,,,,,,,,,,,,,,,,,,,,632.04013,130,left,1.04707,satellite_dish,6,10,1,1,1,632.053635,632.053635,634.55293,0,52,52,52,1,130,6,5,satellite_dish,parrot      ,html/resources/sequences_IDs/A/10_satellite_dish.jpg,html/resources/sequences_IDs/B/05_parrot.jpg,10,5,4,2,2,1,8,4,0,25,,,,,,,,,,,,,,,,,,,,
,,,,,25,2020-07-03_13h12.12.404,retriever_ti,2020.1.3,MacIntel,60,Chrome,1440,900,,,,,,,,,,,,,,,,,2,,,,,,,,,,,,,,,,,,,,,,,,,,,635.65505,131,left,1.239185,parrot      ,5,5,-2,0,3,635.688885,635.688885,638.186665,0,53,53,53,1,131,5,7,parrot      ,redfox      ,html/resources/sequences_IDs/B/05_parrot.jpg,html/resources/sequences_IDs/B/01_redfox.jpg,5,1,2,1,1,1,4,1,0,25,,,,,,,,,,,,,,,,,,,,
,,,,,25,2020-07-03_13h12.12.404,retriever_ti,2020.1.3,MacIntel,60,Chrome,1440,900,,,,,,,,,,,,,,,,,2,,,,,,,,,,,,,,,,,,,,,,,,,,,638.804845,132,right,1.20936,dress         ,2,7,1,1,1,638.836745,638.836745,641.33663,0,54,54,54,1,132,1,2,gloves      ,dress         ,html/resources/sequences_IDs/B/06_gloves.jpg,html/resources/sequences_IDs/A/07_dress.jpg,6,7,3,2,3,2,5,6,0,25,,,,,,,,,,,,,,,,,,,,
,,,,,25,2020-07-03_13h12.12.404,retriever_ti,2020.1.3,MacIntel,60,Chrome,1440,900,,,,,,,,,,,,,,,,,2,,,,,,,,,,,,,,,,,,,,,,,,,,,642.437305,133,left,1.02207,camel         ,4,3,-4,0,3,642.45582,642.45582,644.954675,0,55,55,55,1,133,4,8,camel         ,calculator    ,html/resources/sequences_IDs/A/03_camel.jpg,html/resources/sequences_IDs/A/09_calculator.jpg,3,9,1,1,4,2,3,7,0,25,,,,,,,,,,,,,,,,,,,,
,,,,,25,2020-07-03_13h12.12.404,retriever_ti,2020.1.3,MacIntel,60,Chrome,1440,900,,,,,,,,,,,,,,,,,2,,,,,,,,,,,,,,,,,,,,,,,,,,,645.57209,134,left,1.143215,camel         ,4,3,-2,0,3,645.605145,645.605145,648.103775,0,56,56,56,1,134,4,6,camel         ,satellite_dish,html/resources/sequences_IDs/A/03_camel.jpg,html/resources/sequences_IDs/A/10_satellite_dish.jpg,3,10,1,1,4,2,3,8,0,25,,,,,,,,,,,,,,,,,,,,
,,,,,25,2020-07-03_13h12.12.404,retriever_ti,2020.1.3,MacIntel,60,Chrome,1440,900,,,,,,,,,,,,,,,,,2,,,,,,,,,,,,,,,,,,,,,,,,,,,648.71997,135,right,0.79562,dolphin     ,3,2,1,1,1,648.754435,648.754435,651.253165,0,57,57,57,1,135,2,3,dress         ,dolphin     ,html/resources/sequences_IDs/A/07_dress.jpg,html/resources/sequences_IDs/B/02_dolphin.jpg,7,2,3,2,1,1,6,2,0,25,,,,,,,,,,,,,,,,,,,,
,,,,,25,2020-07-03_13h12.12.404,retriever_ti,2020.1.3,MacIntel,60,Chrome,1440,900,,,,,,,,,,,,,,,,,2,,,,,,,,,,,,,,,,,,,,,,,,,,,652.354555,136,right,0.76258,redfox      ,7,1,1,1,1,652.369745,652.369745,654.870015,0,58,58,58,1,136,6,7,satellite_dish,redfox      ,html/resources/sequences_IDs/A/10_satellite_dish.jpg,html/resources/sequences_IDs/B/01_redfox.jpg,10,1,4,2,1,1,8,1,0,25,,,,,,,,,,,,,,,,,,,,
,,,,,25,2020-07-03_13h12.12.404,retriever_ti,2020.1.3,MacIntel,60,Chrome,1440,900,,,,,,,,,,,,,,,,,2,,,,,,,,,,,,,,,,,,,,,,,,,,,655.969415,137,right,0.462885,camel         ,4,3,-1,0,0,656.004745,656.004745,658.502395,0,59,59,59,1,137,5,4,parrot      ,camel         ,html/resources/sequences_IDs/B/05_parrot.jpg,html/resources/sequences_IDs/A/03_camel.jpg,5,3,2,1,1,1,4,3,0,25,,,,,,,,,,,,,,,,,,,,
,,,,,25,2020-07-03_13h12.12.404,retriever_ti,2020.1.3,MacIntel,60,Chrome,1440,900,,,,,,,,,,,,,,,,,2,,,,,,,,,,,,,,,,,,,,,,,,,,,659.605735,138,left,0.60695,camel         ,4,3,-1,0,0,659.63862,659.63862,662.135815,0,60,60,60,1,138,4,5,camel         ,parrot      ,html/resources/sequences_IDs/A/03_camel.jpg,html/resources/sequences_IDs/B/05_parrot.jpg,3,5,1,1,2,1,3,4,0,25,,,,,,,,,,,,,,,,,,,,
,,,,,25,2020-07-03_13h12.12.404,retriever_ti,2020.1.3,MacIntel,60,Chrome,1440,900,,,,,,,,,,,,,,,,,2,,,,,,,,,,,,,,,,,,,,,,,,,,,663.238985,139,right,1.286445,camel         ,4,3,-4,0,3,663.256105,663.256105,665.752355,0,61,61,61,1,139,8,4,calculator    ,camel         ,html/resources/sequences_IDs/A/09_calculator.jpg,html/resources/sequences_IDs/A/03_camel.jpg,9,3,4,2,1,1,7,3,0,25,,,,,,,,,,,,,,,,,,,,
,,,,,25,2020-07-03_13h12.12.404,retriever_ti,2020.1.3,MacIntel,60,Chrome,1440,900,,,,,,,,,,,,,,,,,2,,,,,,,,,,,,,,,,,,,,,,,,,,,666.36978,140,right,0.80757,redfox      ,7,1,6,1,3,666.38831,666.38831,668.88562,0,62,62,62,1,140,1,7,gloves      ,redfox      ,html/resources/sequences_IDs/B/06_gloves.jpg,html/resources/sequences_IDs/B/01_redfox.jpg,6,1,3,2,1,1,5,1,0,25,,,,,,,,,,,,,,,,,,,,
,,,,,25,2020-07-03_13h12.12.404,retriever_ti,2020.1.3,MacIntel,60,Chrome,1440,900,,,,,,,,,,,,,,,,,2,,,,,,,,,,,,,,,,,,,,,,,,,,,669.50555,141,left,0.67022,dolphin     ,3,2,-2,0,3,669.53929,669.53929,672.03649,0,63,63,63,1,141,3,5,dolphin     ,parrot      ,html/resources/sequences_IDs/B/02_dolphin.jpg,html/resources/sequences_IDs/B/05_parrot.jpg,2,5,1,1,2,1,2,4,0,25,,,,,,,,,,,,,,,,,,,,
,,,,,25,2020-07-03_13h12.12.404,retriever_ti,2020.1.3,MacIntel,60,Chrome,1440,900,,,,,,,,,,,,,,,,,2,,,,,,,,,,,,,,,,,,,,,,,,,,,672.656065,142,right,1.9035,redfox      ,7,1,1,1,0,672.671295,672.671295,675.17078,0,64,64,64,1,142,6,7,satellite_dish,redfox      ,html/resources/sequences_IDs/A/10_satellite_dish.jpg,html/resources/sequences_IDs/B/01_redfox.jpg,10,1,4,2,1,1,8,1,1,25,,,,,,,,,,,,,,,,,,,,
,,,,,25,2020-07-03_13h12.12.404,retriever_ti,2020.1.3,MacIntel,60,Chrome,1440,900,,,,,,,,,,,,,,,,,2,,,,,,,,,,,,,,,,,,,,,,,,,,,676.27,143,left,1.645065,parrot      ,5,5,-1,0,0,676.304595,676.304595,678.80293,0,65,65,65,1,143,5,6,parrot      ,satellite_dish,html/resources/sequences_IDs/B/05_parrot.jpg,html/resources/sequences_IDs/A/10_satellite_dish.jpg,5,10,2,1,4,2,4,8,0,25,,,,,,,,,,,,,,,,,,,,
,,,,,25,2020-07-03_13h12.12.404,retriever_ti,2020.1.3,MacIntel,60,Chrome,1440,900,,,,,,,,,,,,,,,,,2,,,,,,,,,,,,,,,,,,,,,,,,,,,679.905365,144,left,0.97797,calculator    ,8,9,1,1,1,679.937995,679.937995,682.434935,0,66,66,66,1,144,8,7,calculator    ,redfox      ,html/resources/sequences_IDs/A/09_calculator.jpg,html/resources/sequences_IDs/B/01_redfox.jpg,9,1,4,2,1,1,7,1,0,25,,,,,,,,,,,,,,,,,,,,
,,,,,25,2020-07-03_13h12.12.404,retriever_ti,2020.1.3,MacIntel,60,Chrome,1440,900,,,,,,,,,,,,,,,,,2,,,,,,,,,,,,,,,,,,,,,,,,,,,683.535935,145,left,0.875515,satellite_dish,6,10,2,1,3,683.571435,683.571435,686.06807,0,67,67,67,1,145,6,4,satellite_dish,camel         ,html/resources/sequences_IDs/A/10_satellite_dish.jpg,html/resources/sequences_IDs/A/03_camel.jpg,10,3,4,2,1,1,8,3,0,25,,,,,,,,,,,,,,,,,,,,
,,,,,25,2020-07-03_13h12.12.404,retriever_ti,2020.1.3,MacIntel,60,Chrome,1440,900,,,,,,,,,,,,,,,,,2,,,,,,,,,,,,,,,,,,,,,,,,,,,686.67347,146,left,0.96353,dolphin     ,3,2,-1,0,0,686.706955,686.706955,689.201925,0,68,68,68,1,146,3,4,dolphin     ,camel         ,html/resources/sequences_IDs/B/02_dolphin.jpg,html/resources/sequences_IDs/A/03_camel.jpg,2,3,1,1,1,1,2,3,0,25,,,,,,,,,,,,,,,,,,,,
,,,,,25,2020-07-03_13h12.12.404,retriever_ti,2020.1.3,MacIntel,60,Chrome,1440,900,,,,,,,,,,,,,,,,,2,,,,,,,,,,,,,,,,,,,,,,,,,,,690.30364,147,left,1.21813,parrot      ,5,5,3,1,3,690.320245,690.320245,692.818725,0,69,69,69,1,147,5,2,parrot      ,dress         ,html/resources/sequences_IDs/B/05_parrot.jpg,html/resources/sequences_IDs/A/07_dress.jpg,5,7,2,1,3,2,4,6,0,25,,,,,,,,,,,,,,,,,,,,
,,,,,25,2020-07-03_13h12.12.404,retriever_ti,2020.1.3,MacIntel,60,Chrome,1440,900,,,,,,,,,,,,,,,,,2,,,,,,,,,,,,,,,,,,,,,,,,,,,693.421055,148,left,0.732365,dress         ,2,7,1,1,0,693.43702,693.43702,695.935325,0,70,70,70,1,148,2,1,dress         ,gloves      ,html/resources/sequences_IDs/A/07_dress.jpg,html/resources/sequences_IDs/B/06_gloves.jpg,7,6,3,2,3,2,6,5,1,25,,,,,,,,,,,,,,,,,,,,
,,,,,25,2020-07-03_13h12.12.404,retriever_ti,2020.1.3,MacIntel,60,Chrome,1440,900,,,,,,,,,,,,,,,,,2,,,,,,,,,,,,,,,,,,,,,,,,,,,697.038295,149,right,0.560415,dress         ,2,7,-1,0,0,697.053685,697.053685,699.552535,0,71,71,71,1,149,3,2,dolphin     ,dress         ,html/resources/sequences_IDs/B/02_dolphin.jpg,html/resources/sequences_IDs/A/07_dress.jpg,2,7,1,1,3,2,2,6,0,25,,,,,,,,,,,,,,,,,,,,
,,,,,25,2020-07-03_13h12.12.404,retriever_ti,2020.1.3,MacIntel,60,Chrome,1440,900,,,,,,,,,,,,,,,,,2,,,,,,,,,,,,,,,,,,,,,,,,,,,700.65717,150,left,1.108125,dolphin     ,3,2,-1,0,0,700.68844,700.68844,703.188595,0,72,72,72,1,150,3,4,dolphin     ,camel         ,html/resources/sequences_IDs/B/02_dolphin.jpg,html/resources/sequences_IDs/A/03_camel.jpg,2,3,1,1,1,1,2,3,0,25,,,,,,,,,,,,,,,,,,,,
,,,,,25,2020-07-03_13h12.12.404,retriever_ti,2020.1.3,MacIntel,60,Chrome,1440,900,,,,,,,,,,,,,,,,,2,,,,,,,,,,,,,,,,,,,,,,,,,,,704.286365,151,left,0.84,dress         ,2,7,-3,0,3,704.30364,704.30364,706.800995,0,73,73,73,1,151,2,5,dress         ,parrot      ,html/resources/sequences_IDs/A/07_dress.jpg,html/resources/sequences_IDs/B/05_parrot.jpg,7,5,3,2,2,1,6,4,0,25,,,,,,,,,,,,,,,,,,,,
,,,,,25,2020-07-03_13h12.12.404,retriever_ti,2020.1.3,MacIntel,60,Chrome,1440,900,,,,,,,,,,,,,,,,,2,,,,,,,,,,,,,,,,,,,,,,,,,,,707.40445,152,right,1.259125,dress         ,2,7,1,1,1,707.43724,707.43724,709.936195,0,74,74,74,1,152,1,2,gloves      ,dress         ,html/resources/sequences_IDs/B/06_gloves.jpg,html/resources/sequences_IDs/A/07_dress.jpg,6,7,3,2,3,2,5,6,0,25,,,,,,,,,,,,,,,,,,,,
,,,,,25,2020-07-03_13h12.12.404,retriever_ti,2020.1.3,MacIntel,60,Chrome,1440,900,,,,,,,,,,,,,,,,,2,,,,,,,,,,,,,,,,,,,,,,,,,,,711.034715,153,left,1.702265,dolphin     ,3,2,1,1,1,711.07199,711.07199,713.56997,0,75,75,75,1,153,3,2,dolphin     ,dress         ,html/resources/sequences_IDs/B/02_dolphin.jpg,html/resources/sequences_IDs/A/07_dress.jpg,2,7,1,1,3,2,2,6,0,25,,,,,,,,,,,,,,,,,,,,
,,,,,25,2020-07-03_13h12.12.404,retriever_ti,2020.1.3,MacIntel,60,Chrome,1440,900,,,,,,,,,,,,,,,,,2,,,,,,,,,,,,,,,,,,,,,,,,,,,714.671055,154,right,1.288845,dolphin     ,3,2,2,1,3,714.68791,714.68791,717.184795,0,76,76,76,1,154,1,3,gloves      ,dolphin     ,html/resources/sequences_IDs/B/06_gloves.jpg,html/resources/sequences_IDs/B/02_dolphin.jpg,6,2,3,2,1,1,5,2,0,25,,,,,,,,,,,,,,,,,,,,
,,,,,25,2020-07-03_13h12.12.404,retriever_ti,2020.1.3,MacIntel,60,Chrome,1440,900,,,,,,,,,,,,,,,,,,,,,,,,,,,,,,,,,,,,,0,1.861305,,,,,,,,,,,,,,,,,,,,,,,,,,,,,,,,,,,,,,,,,1,0,1,0,1,,,,,,,,,,,,,,,
,,,,,25,2020-07-03_13h12.12.404,retriever_ti,2020.1.3,MacIntel,60,Chrome,1440,900,,,,,,,,,,,,,,,,,3,,,,,,,,,,,,,,,,,,,,,,,,,,,724.713345,155,left,0.57059,redfox      ,7,1,6,1,3,724.737545,724.737545,727.237435,0,0,0,0,1,155,7,1,redfox      ,gloves      ,html/resources/sequences_IDs/B/01_redfox.jpg,html/resources/sequences_IDs/B/06_gloves.jpg,1,6,1,1,3,2,1,5,0,25,,,,,,,,,,,,,,,,,,,,
,,,,,25,2020-07-03_13h12.12.404,retriever_ti,2020.1.3,MacIntel,60,Chrome,1440,900,,,,,,,,,,,,,,,,,3,,,,,,,,,,,,,,,,,,,,,,,,,,,727.856025,156,right,0.104905,camel         ,4,3,-1,0,0,727.889785,727.889785,730.38816,0,1,1,1,1,156,5,4,parrot      ,camel         ,html/resources/sequences_IDs/B/05_parrot.jpg,html/resources/sequences_IDs/A/03_camel.jpg,5,3,2,1,1,1,4,3,0,25,,,,,,,,,,,,,,,,,,,,
,,,,,25,2020-07-03_13h12.12.404,retriever_ti,2020.1.3,MacIntel,60,Chrome,1440,900,,,,,,,,,,,,,,,,,3,,,,,,,,,,,,,,,,,,,,,,,,,,,731.486685,157,left,0.561615,dress         ,2,7,-6,0,3,731.51989,731.51989,734.01869,0,2,2,2,1,157,2,8,dress         ,calculator    ,html/resources/sequences_IDs/A/07_dress.jpg,html/resources/sequences_IDs/A/09_calculator.jpg,7,9,3,2,4,2,6,7,0,25,,,,,,,,,,,,,,,,,,,,
,,,,,25,2020-07-03_13h12.12.404,retriever_ti,2020.1.3,MacIntel,60,Chrome,1440,900,,,,,,,,,,,,,,,,,3,,,,,,,,,,,,,,,,,,,,,,,,,,,734.62243,158,right,0.352855,parrot      ,5,5,-2,0,3,734.655595,734.655595,737.15233,0,3,3,3,1,158,7,5,redfox      ,parrot      ,html/resources/sequences_IDs/B/01_redfox.jpg,html/resources/sequences_IDs/B/05_parrot.jpg,1,5,1,1,2,1,1,4,0,25,,,,,,,,,,,,,,,,,,,,
,,,,,25,2020-07-03_13h12.12.404,retriever_ti,2020.1.3,MacIntel,60,Chrome,1440,900,,,,,,,,,,,,,,,,,3,,,,,,,,,,,,,,,,,,,,,,,,,,,737.771495,159,left,0.510575,parrot      ,5,5,3,1,3,737.7879,737.7879,740.2847,0,4,4,4,1,159,5,2,parrot      ,dress         ,html/resources/sequences_IDs/B/05_parrot.jpg,html/resources/sequences_IDs/A/07_dress.jpg,5,7,2,1,3,2,4,6,0,25,,,,,,,,,,,,,,,,,,,,
,,,,,25,2020-07-03_13h12.12.404,retriever_ti,2020.1.3,MacIntel,60,Chrome,1440,900,,,,,,,,,,,,,,,,,3,,,,,,,,,,,,,,,,,,,,,,,,,,,740.887,160,left,0.9604,dolphin     ,3,2,-2,0,3,740.903945,740.903945,743.401565,0,5,5,5,1,160,3,5,dolphin     ,parrot      ,html/resources/sequences_IDs/B/02_dolphin.jpg,html/resources/sequences_IDs/B/05_parrot.jpg,2,5,1,1,2,1,2,4,0,25,,,,,,,,,,,,,,,,,,,,
,,,,,25,2020-07-03_13h12.12.404,retriever_ti,2020.1.3,MacIntel,60,Chrome,1440,900,,,,,,,,,,,,,,,,,3,,,,,,,,,,,,,,,,,,,,,,,,,,,744.02081,161,right,1.01311,dolphin     ,3,2,1,1,1,744.035565,744.035565,746.53447,0,6,6,6,1,161,2,3,dress         ,dolphin     ,html/resources/sequences_IDs/A/07_dress.jpg,html/resources/sequences_IDs/B/02_dolphin.jpg,7,2,3,2,1,1,6,2,0,25,,,,,,,,,,,,,,,,,,,,
,,,,,25,2020-07-03_13h12.12.404,retriever_ti,2020.1.3,MacIntel,60,Chrome,1440,900,,,,,,,,,,,,,,,,,3,,,,,,,,,,,,,,,,,,,,,,,,,,,747.639865,162,NaN,NaN,No_response,NaN,NaN,NaN,2,2,747.65335,747.65335,750.15126,0,7,7,7,1,162,7,4,redfox      ,camel         ,html/resources/sequences_IDs/B/01_redfox.jpg,html/resources/sequences_IDs/A/03_camel.jpg,1,3,1,1,1,1,1,3,0,25,,,,,,,,,,,,,,,,,,,,
,,,,,25,2020-07-03_13h12.12.404,retriever_ti,2020.1.3,MacIntel,60,Chrome,1440,900,,,,,,,,,,,,,,,,,3,,,,,,,,,,,,,,,,,,,,,,,,,,,751.252715,163,left,0.577865,camel         ,4,3,1,1,1,751.26977,751.26977,753.76849,0,8,8,8,1,163,4,3,camel         ,dolphin     ,html/resources/sequences_IDs/A/03_camel.jpg,html/resources/sequences_IDs/B/02_dolphin.jpg,3,2,1,1,1,1,3,2,0,25,,,,,,,,,,,,,,,,,,,,
,,,,,25,2020-07-03_13h12.12.404,retriever_ti,2020.1.3,MacIntel,60,Chrome,1440,900,,,,,,,,,,,,,,,,,3,,,,,,,,,,,,,,,,,,,,,,,,,,,754.869195,164,left,0.7773,satellite_dish,6,10,-2,0,3,754.888395,754.888395,757.384575,0,9,9,9,1,164,6,8,satellite_dish,calculator    ,html/resources/sequences_IDs/A/10_satellite_dish.jpg,html/resources/sequences_IDs/A/09_calculator.jpg,10,9,4,2,4,2,8,7,0,25,,,,,,,,,,,,,,,,,,,,
,,,,,25,2020-07-03_13h12.12.404,retriever_ti,2020.1.3,MacIntel,60,Chrome,1440,900,,,,,,,,,,,,,,,,,3,,,,,,,,,,,,,,,,,,,,,,,,,,,758.004465,165,right,0.659865,satellite_dish,6,10,-2,0,3,758.039615,758.039615,760.535745,0,10,10,10,1,165,8,6,calculator    ,satellite_dish,html/resources/sequences_IDs/A/09_calculator.jpg,html/resources/sequences_IDs/A/10_satellite_dish.jpg,9,10,4,2,4,2,7,8,0,25,,,,,,,,,,,,,,,,,,,,
,,,,,25,2020-07-03_13h12.12.404,retriever_ti,2020.1.3,MacIntel,60,Chrome,1440,900,,,,,,,,,,,,,,,,,3,,,,,,,,,,,,,,,,,,,,,,,,,,,761.155635,166,left,0.810745,parrot      ,5,5,1,1,1,761.188735,761.188735,763.686825,0,11,11,11,1,166,5,4,parrot      ,camel         ,html/resources/sequences_IDs/B/05_parrot.jpg,html/resources/sequences_IDs/A/03_camel.jpg,5,3,2,1,1,1,4,3,0,25,,,,,,,,,,,,,,,,,,,,
,,,,,25,2020-07-03_13h12.12.404,retriever_ti,2020.1.3,MacIntel,60,Chrome,1440,900,,,,,,,,,,,,,,,,,3,,,,,,,,,,,,,,,,,,,,,,,,,,,764.784095,167,left,0.686335,redfox      ,7,1,-1,0,0,764.805845,764.805845,767.30169,0,12,12,12,1,167,7,8,redfox      ,calculator    ,html/resources/sequences_IDs/B/01_redfox.jpg,html/resources/sequences_IDs/A/09_calculator.jpg,1,9,1,1,4,2,1,7,0,25,,,,,,,,,,,,,,,,,,,,
,,,,,25,2020-07-03_13h12.12.404,retriever_ti,2020.1.3,MacIntel,60,Chrome,1440,900,,,,,,,,,,,,,,,,,3,,,,,,,,,,,,,,,,,,,,,,,,,,,768.40202,168,right,0.65446,calculator    ,8,9,5,1,3,768.435925,768.435925,770.93338,0,13,13,13,1,168,3,8,dolphin     ,calculator    ,html/resources/sequences_IDs/B/02_dolphin.jpg,html/resources/sequences_IDs/A/09_calculator.jpg,2,9,1,1,4,2,2,7,0,25,,,,,,,,,,,,,,,,,,,,
,,,,,25,2020-07-03_13h12.12.404,retriever_ti,2020.1.3,MacIntel,60,Chrome,1440,900,,,,,,,,,,,,,,,,,3,,,,,,,,,,,,,,,,,,,,,,,,,,,771.55052,169,right,0.37673,satellite_dish,6,10,3,1,3,771.569085,771.569085,774.066665,0,14,14,14,1,169,3,6,dolphin     ,satellite_dish,html/resources/sequences_IDs/B/02_dolphin.jpg,html/resources/sequences_IDs/A/10_satellite_dish.jpg,2,10,1,1,4,2,2,8,0,25,,,,,,,,,,,,,,,,,,,,
,,,,,25,2020-07-03_13h12.12.404,retriever_ti,2020.1.3,MacIntel,60,Chrome,1440,900,,,,,,,,,,,,,,,,,3,,,,,,,,,,,,,,,,,,,,,,,,,,,774.669955,170,right,0.553715,camel         ,4,3,-4,0,3,774.68787,774.68787,777.18564,0,15,15,15,1,170,8,4,calculator    ,camel         ,html/resources/sequences_IDs/A/09_calculator.jpg,html/resources/sequences_IDs/A/03_camel.jpg,9,3,4,2,1,1,7,3,0,25,,,,,,,,,,,,,,,,,,,,
,,,,,25,2020-07-03_13h12.12.404,retriever_ti,2020.1.3,MacIntel,60,Chrome,1440,900,,,,,,,,,,,,,,,,,3,,,,,,,,,,,,,,,,,,,,,,,,,,,777.804295,171,right,1.556055,satellite_dish,6,10,1,1,1,777.82007,777.82007,780.3177,0,16,16,16,1,171,5,6,parrot      ,satellite_dish,html/resources/sequences_IDs/B/05_parrot.jpg,html/resources/sequences_IDs/A/10_satellite_dish.jpg,5,10,2,1,4,2,4,8,0,25,,,,,,,,,,,,,,,,,,,,
,,,,,25,2020-07-03_13h12.12.404,retriever_ti,2020.1.3,MacIntel,60,Chrome,1440,900,,,,,,,,,,,,,,,,,3,,,,,,,,,,,,,,,,,,,,,,,,,,,781.41843,172,right,1.57917,satellite_dish,6,10,-1,0,0,781.45323,781.45323,783.95136,0,17,17,17,1,172,7,6,redfox      ,satellite_dish,html/resources/sequences_IDs/B/01_redfox.jpg,html/resources/sequences_IDs/A/10_satellite_dish.jpg,1,10,1,1,4,2,1,8,0,25,,,,,,,,,,,,,,,,,,,,
,,,,,25,2020-07-03_13h12.12.404,retriever_ti,2020.1.3,MacIntel,60,Chrome,1440,900,,,,,,,,,,,,,,,,,3,,,,,,,,,,,,,,,,,,,,,,,,,,,785.05251,173,left,0.577025,dress         ,2,7,-4,0,3,785.06945,785.06945,787.567975,0,18,18,18,1,173,2,6,dress         ,satellite_dish,html/resources/sequences_IDs/A/07_dress.jpg,html/resources/sequences_IDs/A/10_satellite_dish.jpg,7,10,3,2,4,2,6,8,0,25,,,,,,,,,,,,,,,,,,,,
,,,,,25,2020-07-03_13h12.12.404,retriever_ti,2020.1.3,MacIntel,60,Chrome,1440,900,,,,,,,,,,,,,,,,,3,,,,,,,,,,,,,,,,,,,,,,,,,,,788.18636,174,right,1.226115,gloves      ,1,6,-1,0,1,788.22024,788.22024,790.717015,0,19,19,19,1,174,2,1,dress         ,gloves      ,html/resources/sequences_IDs/A/07_dress.jpg,html/resources/sequences_IDs/B/06_gloves.jpg,7,6,3,2,3,2,6,5,1,25,,,,,,,,,,,,,,,,,,,,
,,,,,25,2020-07-03_13h12.12.404,retriever_ti,2020.1.3,MacIntel,60,Chrome,1440,900,,,,,,,,,,,,,,,,,3,,,,,,,,,,,,,,,,,,,,,,,,,,,791.81986,175,left,1.91074,calculator    ,8,9,6,1,3,791.83583,791.83583,794.334885,0,20,20,20,1,175,8,2,calculator    ,dress         ,html/resources/sequences_IDs/A/09_calculator.jpg,html/resources/sequences_IDs/A/07_dress.jpg,9,7,4,2,3,2,7,6,0,25,,,,,,,,,,,,,,,,,,,,
,,,,,25,2020-07-03_13h12.12.404,retriever_ti,2020.1.3,MacIntel,60,Chrome,1440,900,,,,,,,,,,,,,,,,,3,,,,,,,,,,,,,,,,,,,,,,,,,,,794.93676,176,left,0.95793,camel         ,4,3,1,1,1,794.953035,794.953035,797.453515,0,21,21,21,1,176,4,3,camel         ,dolphin     ,html/resources/sequences_IDs/A/03_camel.jpg,html/resources/sequences_IDs/B/02_dolphin.jpg,3,2,1,1,1,1,3,2,0,25,,,,,,,,,,,,,,,,,,,,
,,,,,25,2020-07-03_13h12.12.404,retriever_ti,2020.1.3,MacIntel,60,Chrome,1440,900,,,,,,,,,,,,,,,,,3,,,,,,,,,,,,,,,,,,,,,,,,,,,798.552125,177,right,1.01331,dress         ,2,7,-4,0,3,798.569455,798.569455,801.067825,0,22,22,22,1,177,6,2,satellite_dish,dress         ,html/resources/sequences_IDs/A/10_satellite_dish.jpg,html/resources/sequences_IDs/A/07_dress.jpg,10,7,4,2,3,2,8,6,0,25,,,,,,,,,,,,,,,,,,,,
,,,,,25,2020-07-03_13h12.12.404,retriever_ti,2020.1.3,MacIntel,60,Chrome,1440,900,,,,,,,,,,,,,,,,,3,,,,,,,,,,,,,,,,,,,,,,,,,,,801.688485,178,left,0.64083,camel         ,4,3,1,1,0,801.703115,801.703115,804.200825,0,23,23,23,1,178,4,3,camel         ,dolphin     ,html/resources/sequences_IDs/A/03_camel.jpg,html/resources/sequences_IDs/B/02_dolphin.jpg,3,2,1,1,1,1,3,2,1,25,,,,,,,,,,,,,,,,,,,,
,,,,,25,2020-07-03_13h12.12.404,retriever_ti,2020.1.3,MacIntel,60,Chrome,1440,900,,,,,,,,,,,,,,,,,3,,,,,,,,,,,,,,,,,,,,,,,,,,,805.30206,179,right,1.041225,redfox      ,7,1,1,1,1,805.33604,805.33604,807.834055,0,24,24,24,1,179,6,7,satellite_dish,redfox      ,html/resources/sequences_IDs/A/10_satellite_dish.jpg,html/resources/sequences_IDs/B/01_redfox.jpg,10,1,4,2,1,1,8,1,0,25,,,,,,,,,,,,,,,,,,,,
,,,,,25,2020-07-03_13h12.12.404,retriever_ti,2020.1.3,MacIntel,60,Chrome,1440,900,,,,,,,,,,,,,,,,,3,,,,,,,,,,,,,,,,,,,,,,,,,,,808.93524,180,left,0.565055,camel         ,4,3,3,1,3,808.951145,808.951145,811.44941,0,25,25,25,1,180,4,1,camel         ,gloves      ,html/resources/sequences_IDs/A/03_camel.jpg,html/resources/sequences_IDs/B/06_gloves.jpg,3,6,1,1,3,2,3,5,0,25,,,,,,,,,,,,,,,,,,,,
,,,,,25,2020-07-03_13h12.12.404,retriever_ti,2020.1.3,MacIntel,60,Chrome,1440,900,,,,,,,,,,,,,,,,,3,,,,,,,,,,,,,,,,,,,,,,,,,,,812.054585,181,right,0.75032,redfox      ,7,1,-1,0,1,812.08769,812.08769,814.583985,0,26,26,26,1,181,8,7,calculator    ,redfox      ,html/resources/sequences_IDs/A/09_calculator.jpg,html/resources/sequences_IDs/B/01_redfox.jpg,9,1,4,2,1,1,7,1,1,25,,,,,,,,,,,,,,,,,,,,
,,,,,25,2020-07-03_13h12.12.404,retriever_ti,2020.1.3,MacIntel,60,Chrome,1440,900,,,,,,,,,,,,,,,,,3,,,,,,,,,,,,,,,,,,,,,,,,,,,815.686665,182,right,0.89805,redfox      ,7,1,-1,0,0,815.702065,815.702065,818.202665,0,27,27,27,1,182,8,7,calculator    ,redfox      ,html/resources/sequences_IDs/A/09_calculator.jpg,html/resources/sequences_IDs/B/01_redfox.jpg,9,1,4,2,1,1,7,1,0,25,,,,,,,,,,,,,,,,,,,,
,,,,,25,2020-07-03_13h12.12.404,retriever_ti,2020.1.3,MacIntel,60,Chrome,1440,900,,,,,,,,,,,,,,,,,3,,,,,,,,,,,,,,,,,,,,,,,,,,,819.304365,183,left,0.540945,calculator    ,8,9,7,1,3,819.33785,819.33785,821.833715,0,28,28,28,1,183,8,1,calculator    ,gloves      ,html/resources/sequences_IDs/A/09_calculator.jpg,html/resources/sequences_IDs/B/06_gloves.jpg,9,6,4,2,3,2,7,5,0,25,,,,,,,,,,,,,,,,,,,,
,,,,,25,2020-07-03_13h12.12.404,retriever_ti,2020.1.3,MacIntel,60,Chrome,1440,900,,,,,,,,,,,,,,,,,3,,,,,,,,,,,,,,,,,,,,,,,,,,,822.43573,184,left,0.890045,satellite_dish,6,10,1,1,1,822.455525,822.455525,824.950475,0,29,29,29,1,184,6,5,satellite_dish,parrot      ,html/resources/sequences_IDs/A/10_satellite_dish.jpg,html/resources/sequences_IDs/B/05_parrot.jpg,10,5,4,2,2,1,8,4,0,25,,,,,,,,,,,,,,,,,,,,
,,,,,25,2020-07-03_13h12.12.404,retriever_ti,2020.1.3,MacIntel,60,Chrome,1440,900,,,,,,,,,,,,,,,,,3,,,,,,,,,,,,,,,,,,,,,,,,,,,826.05216,185,right,0.774415,camel         ,4,3,3,1,3,826.06992,826.06992,828.56769,0,30,30,30,1,185,1,4,gloves      ,camel         ,html/resources/sequences_IDs/B/06_gloves.jpg,html/resources/sequences_IDs/A/03_camel.jpg,6,3,3,2,1,1,5,3,0,25,,,,,,,,,,,,,,,,,,,,
,,,,,25,2020-07-03_13h12.12.404,retriever_ti,2020.1.3,MacIntel,60,Chrome,1440,900,,,,,,,,,,,,,,,,,3,,,,,,,,,,,,,,,,,,,,,,,,,,,829.171575,186,right,1.006975,parrot      ,5,5,3,1,3,829.204395,829.204395,831.70059,0,31,31,31,1,186,2,5,dress         ,parrot      ,html/resources/sequences_IDs/A/07_dress.jpg,html/resources/sequences_IDs/B/05_parrot.jpg,7,5,3,2,2,1,6,4,0,25,,,,,,,,,,,,,,,,,,,,
,,,,,25,2020-07-03_13h12.12.404,retriever_ti,2020.1.3,MacIntel,60,Chrome,1440,900,,,,,,,,,,,,,,,,,3,,,,,,,,,,,,,,,,,,,,,,,,,,,832.318275,187,left,1.08722,parrot      ,5,5,2,1,3,832.33624,832.33624,834.83275,0,32,32,32,1,187,5,3,parrot      ,dolphin     ,html/resources/sequences_IDs/B/05_parrot.jpg,html/resources/sequences_IDs/B/02_dolphin.jpg,5,2,2,1,1,1,4,2,0,25,,,,,,,,,,,,,,,,,,,,
,,,,,25,2020-07-03_13h12.12.404,retriever_ti,2020.1.3,MacIntel,60,Chrome,1440,900,,,,,,,,,,,,,,,,,3,,,,,,,,,,,,,,,,,,,,,,,,,,,835.436125,188,left,0.88944,dolphin     ,3,2,-4,0,3,835.45452,835.45452,837.94999,0,33,33,33,1,188,3,7,dolphin     ,redfox      ,html/resources/sequences_IDs/B/02_dolphin.jpg,html/resources/sequences_IDs/B/01_redfox.jpg,2,1,1,1,1,1,2,1,0,25,,,,,,,,,,,,,,,,,,,,
,,,,,25,2020-07-03_13h12.12.404,retriever_ti,2020.1.3,MacIntel,60,Chrome,1440,900,,,,,,,,,,,,,,,,,3,,,,,,,,,,,,,,,,,,,,,,,,,,,838.55286,189,right,1.13405,dress         ,2,7,1,1,1,838.569045,838.569045,841.069475,0,34,34,34,1,189,1,2,gloves      ,dress         ,html/resources/sequences_IDs/B/06_gloves.jpg,html/resources/sequences_IDs/A/07_dress.jpg,6,7,3,2,3,2,5,6,0,25,,,,,,,,,,,,,,,,,,,,
,,,,,25,2020-07-03_13h12.12.404,retriever_ti,2020.1.3,MacIntel,60,Chrome,1440,900,,,,,,,,,,,,,,,,,3,,,,,,,,,,,,,,,,,,,,,,,,,,,842.16959,190,right,1.23248,parrot      ,5,5,-1,0,0,842.202955,842.202955,844.70145,0,35,35,35,1,190,6,5,satellite_dish,parrot      ,html/resources/sequences_IDs/A/10_satellite_dish.jpg,html/resources/sequences_IDs/B/05_parrot.jpg,10,5,4,2,2,1,8,4,0,25,,,,,,,,,,,,,,,,,,,,
,,,,,25,2020-07-03_13h12.12.404,retriever_ti,2020.1.3,MacIntel,60,Chrome,1440,900,,,,,,,,,,,,,,,,,3,,,,,,,,,,,,,,,,,,,,,,,,,,,845.80105,191,left,0.604605,dress         ,2,7,-1,0,1,845.83526,845.83526,848.334305,0,36,36,36,1,191,2,3,dress         ,dolphin     ,html/resources/sequences_IDs/A/07_dress.jpg,html/resources/sequences_IDs/B/02_dolphin.jpg,7,2,3,2,1,1,6,2,1,25,,,,,,,,,,,,,,,,,,,,
,,,,,25,2020-07-03_13h12.12.404,retriever_ti,2020.1.3,MacIntel,60,Chrome,1440,900,,,,,,,,,,,,,,,,,3,,,,,,,,,,,,,,,,,,,,,,,,,,,849.43659,192,right,0.90469,dolphin     ,3,2,2,1,3,849.46917,849.46917,851.96748,0,37,37,37,1,192,1,3,gloves      ,dolphin     ,html/resources/sequences_IDs/B/06_gloves.jpg,html/resources/sequences_IDs/B/02_dolphin.jpg,6,2,3,2,1,1,5,2,0,25,,,,,,,,,,,,,,,,,,,,
,,,,,25,2020-07-03_13h12.12.404,retriever_ti,2020.1.3,MacIntel,60,Chrome,1440,900,,,,,,,,,,,,,,,,,3,,,,,,,,,,,,,,,,,,,,,,,,,,,852.587385,193,left,0.942035,satellite_dish,6,10,-1,0,1,852.601625,852.601625,855.098915,0,38,38,38,1,193,6,7,satellite_dish,redfox      ,html/resources/sequences_IDs/A/10_satellite_dish.jpg,html/resources/sequences_IDs/B/01_redfox.jpg,10,1,4,2,1,1,8,1,1,25,,,,,,,,,,,,,,,,,,,,
,,,,,25,2020-07-03_13h12.12.404,retriever_ti,2020.1.3,MacIntel,60,Chrome,1440,900,,,,,,,,,,,,,,,,,3,,,,,,,,,,,,,,,,,,,,,,,,,,,856.202725,194,left,0.66327,dolphin     ,3,2,1,1,1,856.220175,856.220175,858.71783,0,39,39,39,1,194,3,2,dolphin     ,dress         ,html/resources/sequences_IDs/B/02_dolphin.jpg,html/resources/sequences_IDs/A/07_dress.jpg,2,7,1,1,3,2,2,6,0,25,,,,,,,,,,,,,,,,,,,,
,,,,,25,2020-07-03_13h12.12.404,retriever_ti,2020.1.3,MacIntel,60,Chrome,1440,900,,,,,,,,,,,,,,,,,3,,,,,,,,,,,,,,,,,,,,,,,,,,,859.81994,195,left,1.320665,parrot      ,5,5,4,1,3,859.852235,859.852235,862.349315,0,40,40,40,1,195,5,1,parrot      ,gloves      ,html/resources/sequences_IDs/B/05_parrot.jpg,html/resources/sequences_IDs/B/06_gloves.jpg,5,6,2,1,3,2,4,5,0,25,,,,,,,,,,,,,,,,,,,,
,,,,,25,2020-07-03_13h12.12.404,retriever_ti,2020.1.3,MacIntel,60,Chrome,1440,900,,,,,,,,,,,,,,,,,3,,,,,,,,,,,,,,,,,,,,,,,,,,,862.95033,196,right,0.925035,parrot      ,5,5,-3,0,3,862.97046,862.97046,865.46674,0,41,41,41,1,196,8,5,calculator    ,parrot      ,html/resources/sequences_IDs/A/09_calculator.jpg,html/resources/sequences_IDs/B/05_parrot.jpg,9,5,4,2,2,1,7,4,0,25,,,,,,,,,,,,,,,,,,,,
,,,,,25,2020-07-03_13h12.12.404,retriever_ti,2020.1.3,MacIntel,60,Chrome,1440,900,,,,,,,,,,,,,,,,,3,,,,,,,,,,,,,,,,,,,,,,,,,,,866.08435,197,left,1.314425,redfox      ,7,1,5,1,3,866.11851,866.11851,868.61632,0,42,42,42,1,197,7,2,redfox      ,dress         ,html/resources/sequences_IDs/B/01_redfox.jpg,html/resources/sequences_IDs/A/07_dress.jpg,1,7,1,1,3,2,1,6,0,25,,,,,,,,,,,,,,,,,,,,
,,,,,25,2020-07-03_13h12.12.404,retriever_ti,2020.1.3,MacIntel,60,Chrome,1440,900,,,,,,,,,,,,,,,,,3,,,,,,,,,,,,,,,,,,,,,,,,,,,869.21771,198,left,1.626765,dress         ,2,7,-2,0,3,869.252905,869.252905,871.74949,0,43,43,43,1,198,2,4,dress         ,camel         ,html/resources/sequences_IDs/A/07_dress.jpg,html/resources/sequences_IDs/A/03_camel.jpg,7,3,3,2,1,1,6,3,0,25,,,,,,,,,,,,,,,,,,,,
,,,,,25,2020-07-03_13h12.12.404,retriever_ti,2020.1.3,MacIntel,60,Chrome,1440,900,,,,,,,,,,,,,,,,,3,,,,,,,,,,,,,,,,,,,,,,,,,,,872.352345,199,left,0.694355,dress         ,2,7,1,1,1,872.384855,872.384855,874.884865,0,44,44,44,1,199,2,1,dress         ,gloves      ,html/resources/sequences_IDs/A/07_dress.jpg,html/resources/sequences_IDs/B/06_gloves.jpg,7,6,3,2,3,2,6,5,0,25,,,,,,,,,,,,,,,,,,,,
,,,,,25,2020-07-03_13h12.12.404,retriever_ti,2020.1.3,MacIntel,60,Chrome,1440,900,,,,,,,,,,,,,,,,,3,,,,,,,,,,,,,,,,,,,,,,,,,,,875.983,200,right,1.535955,satellite_dish,6,10,5,1,3,876.00135,876.00135,878.500445,0,45,45,45,1,200,1,6,gloves      ,satellite_dish,html/resources/sequences_IDs/B/06_gloves.jpg,html/resources/sequences_IDs/A/10_satellite_dish.jpg,6,10,3,2,4,2,5,8,0,25,,,,,,,,,,,,,,,,,,,,
,,,,,25,2020-07-03_13h12.12.404,retriever_ti,2020.1.3,MacIntel,60,Chrome,1440,900,,,,,,,,,,,,,,,,,3,,,,,,,,,,,,,,,,,,,,,,,,,,,879.11864,201,left,1.19417,redfox      ,7,1,-1,0,0,879.13557,879.13557,881.633765,0,46,46,46,1,201,7,8,redfox      ,calculator    ,html/resources/sequences_IDs/B/01_redfox.jpg,html/resources/sequences_IDs/A/09_calculator.jpg,1,9,1,1,4,2,1,7,0,25,,,,,,,,,,,,,,,,,,,,
,,,,,25,2020-07-03_13h12.12.404,retriever_ti,2020.1.3,MacIntel,60,Chrome,1440,900,,,,,,,,,,,,,,,,,3,,,,,,,,,,,,,,,,,,,,,,,,,,,882.734755,202,left,0.705955,satellite_dish,6,10,1,1,0,882.768405,882.768405,885.266815,0,47,47,47,1,202,6,5,satellite_dish,parrot      ,html/resources/sequences_IDs/A/10_satellite_dish.jpg,html/resources/sequences_IDs/B/05_parrot.jpg,10,5,4,2,2,1,8,4,1,25,,,,,,,,,,,,,,,,,,,,
,,,,,25,2020-07-03_13h12.12.404,retriever_ti,2020.1.3,MacIntel,60,Chrome,1440,900,,,,,,,,,,,,,,,,,3,,,,,,,,,,,,,,,,,,,,,,,,,,,886.370365,203,left,1.12856,satellite_dish,6,10,5,1,3,886.402925,886.402925,888.89984,0,48,48,48,1,203,6,1,satellite_dish,gloves      ,html/resources/sequences_IDs/A/10_satellite_dish.jpg,html/resources/sequences_IDs/B/06_gloves.jpg,10,6,4,2,3,2,8,5,0,25,,,,,,,,,,,,,,,,,,,,
,,,,,25,2020-07-03_13h12.12.404,retriever_ti,2020.1.3,MacIntel,60,Chrome,1440,900,,,,,,,,,,,,,,,,,3,,,,,,,,,,,,,,,,,,,,,,,,,,,889.516205,204,left,0.99755,camel         ,4,3,-2,0,3,889.550165,889.550165,892.051135,0,49,49,49,1,204,4,6,camel         ,satellite_dish,html/resources/sequences_IDs/A/03_camel.jpg,html/resources/sequences_IDs/A/10_satellite_dish.jpg,3,10,1,1,4,2,3,8,0,25,,,,,,,,,,,,,,,,,,,,
,,,,,25,2020-07-03_13h12.12.404,retriever_ti,2020.1.3,MacIntel,60,Chrome,1440,900,,,,,,,,,,,,,,,,,3,,,,,,,,,,,,,,,,,,,,,,,,,,,892.6677,205,right,1.222735,redfox      ,7,1,-1,0,0,892.703315,892.703315,895.19835,0,50,50,50,1,205,8,7,calculator    ,redfox      ,html/resources/sequences_IDs/A/09_calculator.jpg,html/resources/sequences_IDs/B/01_redfox.jpg,9,1,4,2,1,1,7,1,0,25,,,,,,,,,,,,,,,,,,,,
,,,,,25,2020-07-03_13h12.12.404,retriever_ti,2020.1.3,MacIntel,60,Chrome,1440,900,,,,,,,,,,,,,,,,,3,,,,,,,,,,,,,,,,,,,,,,,,,,,896.299715,206,left,0.42455,calculator    ,8,9,5,1,3,896.333425,896.333425,898.83284,0,51,51,51,1,206,8,3,calculator    ,dolphin     ,html/resources/sequences_IDs/A/09_calculator.jpg,html/resources/sequences_IDs/B/02_dolphin.jpg,9,2,4,2,1,1,7,2,0,25,,,,,,,,,,,,,,,,,,,,
,,,,,25,2020-07-03_13h12.12.404,retriever_ti,2020.1.3,MacIntel,60,Chrome,1440,900,,,,,,,,,,,,,,,,,3,,,,,,,,,,,,,,,,,,,,,,,,,,,899.435115,207,left,0.791325,dolphin     ,3,2,-1,0,0,899.454,899.454,901.949745,0,52,52,52,1,207,3,4,dolphin     ,camel         ,html/resources/sequences_IDs/B/02_dolphin.jpg,html/resources/sequences_IDs/A/03_camel.jpg,2,3,1,1,1,1,2,3,0,25,,,,,,,,,,,,,,,,,,,,
,,,,,25,2020-07-03_13h12.12.404,retriever_ti,2020.1.3,MacIntel,60,Chrome,1440,900,,,,,,,,,,,,,,,,,3,,,,,,,,,,,,,,,,,,,,,,,,,,,903.05145,208,left,1.385415,camel         ,4,3,-3,0,3,903.0859,903.0859,905.583275,0,53,53,53,1,208,4,7,camel         ,redfox      ,html/resources/sequences_IDs/A/03_camel.jpg,html/resources/sequences_IDs/B/01_redfox.jpg,3,1,1,1,1,1,3,1,0,25,,,,,,,,,,,,,,,,,,,,
,,,,,25,2020-07-03_13h12.12.404,retriever_ti,2020.1.3,MacIntel,60,Chrome,1440,900,,,,,,,,,,,,,,,,,3,,,,,,,,,,,,,,,,,,,,,,,,,,,906.186535,209,left,2.084045,dolphin     ,3,2,1,1,1,906.22037,906.22037,908.715565,0,54,54,54,1,209,3,2,dolphin     ,dress         ,html/resources/sequences_IDs/B/02_dolphin.jpg,html/resources/sequences_IDs/A/07_dress.jpg,2,7,1,1,3,2,2,6,0,25,,,,,,,,,,,,,,,,,,,,
,,,,,25,2020-07-03_13h12.12.404,retriever_ti,2020.1.3,MacIntel,60,Chrome,1440,900,,,,,,,,,,,,,,,,,3,,,,,,,,,,,,,,,,,,,,,,,,,,,909.81576,210,right,1.413155,camel         ,4,3,1,1,1,909.83515,909.83515,912.33341,0,55,55,55,1,210,3,4,dolphin     ,camel         ,html/resources/sequences_IDs/B/02_dolphin.jpg,html/resources/sequences_IDs/A/03_camel.jpg,2,3,1,1,1,1,2,3,0,25,,,,,,,,,,,,,,,,,,,,
,,,,,25,2020-07-03_13h12.12.404,retriever_ti,2020.1.3,MacIntel,60,Chrome,1440,900,,,,,,,,,,,,,,,,,3,,,,,,,,,,,,,,,,,,,,,,,,,,,913.434235,211,left,0.639295,dolphin     ,3,2,2,1,3,913.452,913.452,915.94982,0,56,56,56,1,211,3,1,dolphin     ,gloves      ,html/resources/sequences_IDs/B/02_dolphin.jpg,html/resources/sequences_IDs/B/06_gloves.jpg,2,6,1,1,3,2,2,5,0,25,,,,,,,,,,,,,,,,,,,,
,,,,,25,2020-07-03_13h12.12.404,retriever_ti,2020.1.3,MacIntel,60,Chrome,1440,900,,,,,,,,,,,,,,,,,3,,,,,,,,,,,,,,,,,,,,,,,,,,,916.552325,212,right,0.7871,parrot      ,5,5,4,1,3,916.58585,916.58585,919.082415,0,57,57,57,1,212,1,5,gloves      ,parrot      ,html/resources/sequences_IDs/B/06_gloves.jpg,html/resources/sequences_IDs/B/05_parrot.jpg,6,5,3,2,2,1,5,4,0,25,,,,,,,,,,,,,,,,,,,,
,,,,,25,2020-07-03_13h12.12.404,retriever_ti,2020.1.3,MacIntel,60,Chrome,1440,900,,,,,,,,,,,,,,,,,3,,,,,,,,,,,,,,,,,,,,,,,,,,,919.68655,213,left,0.94787,camel         ,4,3,-4,0,3,919.70096,919.70096,922.201615,0,58,58,58,1,213,4,8,camel         ,calculator    ,html/resources/sequences_IDs/A/03_camel.jpg,html/resources/sequences_IDs/A/09_calculator.jpg,3,9,1,1,4,2,3,7,0,25,,,,,,,,,,,,,,,,,,,,
,,,,,25,2020-07-03_13h12.12.404,retriever_ti,2020.1.3,MacIntel,60,Chrome,1440,900,,,,,,,,,,,,,,,,,3,,,,,,,,,,,,,,,,,,,,,,,,,,,922.81932,214,right,0.90486,redfox      ,7,1,6,1,3,922.852685,922.852685,925.348495,0,59,59,59,1,214,1,7,gloves      ,redfox      ,html/resources/sequences_IDs/B/06_gloves.jpg,html/resources/sequences_IDs/B/01_redfox.jpg,6,1,3,2,1,1,5,1,0,25,,,,,,,,,,,,,,,,,,,,
,,,,,25,2020-07-03_13h12.12.404,retriever_ti,2020.1.3,MacIntel,60,Chrome,1440,900,,,,,,,,,,,,,,,,,3,,,,,,,,,,,,,,,,,,,,,,,,,,,925.95115,215,left,0.92699,dress         ,2,7,-1,0,0,925.968585,925.968585,928.46617,0,60,60,60,1,215,2,3,dress         ,dolphin     ,html/resources/sequences_IDs/A/07_dress.jpg,html/resources/sequences_IDs/B/02_dolphin.jpg,7,2,3,2,1,1,6,2,0,25,,,,,,,,,,,,,,,,,,,,
,,,,,25,2020-07-03_13h12.12.404,retriever_ti,2020.1.3,MacIntel,60,Chrome,1440,900,,,,,,,,,,,,,,,,,3,,,,,,,,,,,,,,,,,,,,,,,,,,,929.567315,216,right,1.41952,calculator    ,8,9,3,1,3,929.60185,929.60185,932.09968,0,61,61,61,1,216,5,8,parrot      ,calculator    ,html/resources/sequences_IDs/B/05_parrot.jpg,html/resources/sequences_IDs/A/09_calculator.jpg,5,9,2,1,4,2,4,7,0,25,,,,,,,,,,,,,,,,,,,,
,,,,,25,2020-07-03_13h12.12.404,retriever_ti,2020.1.3,MacIntel,60,Chrome,1440,900,,,,,,,,,,,,,,,,,3,,,,,,,,,,,,,,,,,,,,,,,,,,,932.71999,217,left,0.89191,dress         ,2,7,1,1,1,932.75314,932.75314,935.251115,0,62,62,62,1,217,2,1,dress         ,gloves      ,html/resources/sequences_IDs/A/07_dress.jpg,html/resources/sequences_IDs/B/06_gloves.jpg,7,6,3,2,3,2,6,5,0,25,,,,,,,,,,,,,,,,,,,,
,,,,,25,2020-07-03_13h12.12.404,retriever_ti,2020.1.3,MacIntel,60,Chrome,1440,900,,,,,,,,,,,,,,,,,3,,,,,,,,,,,,,,,,,,,,,,,,,,,936.351465,218,left,1.394985,camel         ,4,3,-1,0,0,936.36769,936.36769,938.867575,0,63,63,63,1,218,4,5,camel         ,parrot      ,html/resources/sequences_IDs/A/03_camel.jpg,html/resources/sequences_IDs/B/05_parrot.jpg,3,5,1,1,2,1,3,4,0,25,,,,,,,,,,,,,,,,,,,,
