instructionsLoop.thisRepN,instructionsLoop.thisTrialN,instructionsLoop.thisN,instructionsLoop.thisIndex,instructionsLoop.ran,participant,date,expName,psychopyVersion,OS,frameRate,browser,xResolution,yResolution,fix_onset,tprac,practiceKey.keys,practiceKey.rt,pracitem_chosen_name,acc_practice,P1_onsetPrac,P2_onsetPrac,onsetFeedbPrac,practiceTrials.thisRepN,practiceTrials.thisTrialN,practiceTrials.thisN,practiceTrials.thisIndex,practiceTrials.ran,P1,P2,Block,LocItem1,LocItem2,NameItem1,NameItem2,key_respAC_prac.keys,key_respAC_prac.corr,key_respAC_prac.rt,AC_acc,Attentions.thisRepN,Attentions.thisTrialN,Attentions.thisN,Attentions.thisIndex,Attentions.ran,Stim,Loc1,Loc2,Loc3,Loc4,CorrAns,keyDisturbed.keys,keyDisturbed.rt,repPractice.thisRepN,repPractice.thisTrialN,repPractice.thisN,repPractice.thisIndex,repPractice.ran,fixcross_onsetMain,trialNumber,key_resp.keys,key_resp.rt,item_chosen_name,item_chosen_value,item_chosen_ID,diff_chosen_minus_reject,acc_real,acc_feedback,P1_onset,P2_onset,feedb_onset,trials.thisRepN,trials.thisTrialN,trials.thisN,trials.thisIndex,trials.ran,Trial,ValueP1,ValueP2,P1name,P2name,P1Loc,P2Loc,P1id,P2id,Micro_categoryP1,Macro_categoryP1,Micro_categoryP2,Macro_categoryP2,ID_sequenceP1,ID_sequenceP2,InverseFb,pNumber,repBlocks.thisRepN,repBlocks.thisTrialN,repBlocks.thisN,repBlocks.thisIndex,repBlocks.ran,key_respAC.keys,key_respAC.corr,key_respAC.rt,trials_AC.thisRepN,trials_AC.thisTrialN,trials_AC.thisN,trials_AC.thisIndex,trials_AC.ran,Bonus,BonusLoop.thisRepN,BonusLoop.thisTrialN,BonusLoop.thisN,BonusLoop.thisIndex,BonusLoop.ran,comments
0,0,0,0,1,26,2020-07-03_13h13.22.109,retriever_ti,2020.1.3,Win32,60,Chrome,1366,768,,,,,,,,,,,,,,,,,,,,,,,,,,,,,,,,,,,,,,,,,,,,,,,,,,,,,,,,,,,,,,,,,,,,,,,,,,,,,,,,,,,,,,,,,,,,,,,,,,
1,0,1,0,1,26,2020-07-03_13h13.22.109,retriever_ti,2020.1.3,Win32,60,Chrome,1366,768,,,,,,,,,,,,,,,,,,,,,,,,,,,,,,,,,,,,,,,,,,,,,,,,,,,,,,,,,,,,,,,,,,,,,,,,,,,,,,,,,,,,,,,,,,,,,,,,,,
2,0,2,0,1,26,2020-07-03_13h13.22.109,retriever_ti,2020.1.3,Win32,60,Chrome,1366,768,,,,,,,,,,,,,,,,,,,,,,,,,,,,,,,,,,,,,,,,,,,,,,,,,,,,,,,,,,,,,,,,,,,,,,,,,,,,,,,,,,,,,,,,,,,,,,,,,,
3,0,3,0,1,26,2020-07-03_13h13.22.109,retriever_ti,2020.1.3,Win32,60,Chrome,1366,768,,,,,,,,,,,,,,,,,,,,,,,,,,,,,,,,,,,,,,,,,,,,,,,,,,,,,,,,,,,,,,,,,,,,,,,,,,,,,,,,,,,,,,,,,,,,,,,,,,
4,0,4,0,1,26,2020-07-03_13h13.22.109,retriever_ti,2020.1.3,Win32,60,Chrome,1366,768,,,,,,,,,,,,,,,,,,,,,,,,,,,,,,,,,,,,,,,,,,,,,,,,,,,,,,,,,,,,,,,,,,,,,,,,,,,,,,,,,,,,,,,,,,,,,,,,,,
5,0,5,0,1,26,2020-07-03_13h13.22.109,retriever_ti,2020.1.3,Win32,60,Chrome,1366,768,,,,,,,,,,,,,,,,,,,,,,,,,,,,,,,,,,,,,,,,,,,,,,,,,,,,,,,,,,,,,,,,,,,,,,,,,,,,,,,,,,,,,,,,,,,,,,,,,,
6,0,6,0,1,26,2020-07-03_13h13.22.109,retriever_ti,2020.1.3,Win32,60,Chrome,1366,768,,,,,,,,,,,,,,,,,,,,,,,,,,,,,,,,,,,,,,,,,,,,,,,,,,,,,,,,,,,,,,,,,,,,,,,,,,,,,,,,,,,,,,,,,,,,,,,,,,
7,0,7,0,1,26,2020-07-03_13h13.22.109,retriever_ti,2020.1.3,Win32,60,Chrome,1366,768,,,,,,,,,,,,,,,,,,,,,,,,,,,,,,,,,,,,,,,,,,,,,,,,,,,,,,,,,,,,,,,,,,,,,,,,,,,,,,,,,,,,,,,,,,,,,,,,,,
8,0,8,0,1,26,2020-07-03_13h13.22.109,retriever_ti,2020.1.3,Win32,60,Chrome,1366,768,,,,,,,,,,,,,,,,,,,,,,,,,,,,,,,,,,,,,,,,,,,,,,,,,,,,,,,,,,,,,,,,,,,,,,,,,,,,,,,,,,,,,,,,,,,,,,,,,,
9,0,9,0,1,26,2020-07-03_13h13.22.109,retriever_ti,2020.1.3,Win32,60,Chrome,1366,768,,,,,,,,,,,,,,,,,,,,,,,,,,,,,,,,,,,,,,,,,,,,,,,,,,,,,,,,,,,,,,,,,,,,,,,,,,,,,,,,,,,,,,,,,,,,,,,,,,
10,0,10,0,1,26,2020-07-03_13h13.22.109,retriever_ti,2020.1.3,Win32,60,Chrome,1366,768,,,,,,,,,,,,,,,,,,,,,,,,,,,,,,,,,,,,,,,,,,,,,,,,,,,,,,,,,,,,,,,,,,,,,,,,,,,,,,,,,,,,,,,,,,,,,,,,,,
11,0,11,0,1,26,2020-07-03_13h13.22.109,retriever_ti,2020.1.3,Win32,60,Chrome,1366,768,,,,,,,,,,,,,,,,,,,,,,,,,,,,,,,,,,,,,,,,,,,,,,,,,,,,,,,,,,,,,,,,,,,,,,,,,,,,,,,,,,,,,,,,,,,,,,,,,,
12,0,12,0,1,26,2020-07-03_13h13.22.109,retriever_ti,2020.1.3,Win32,60,Chrome,1366,768,,,,,,,,,,,,,,,,,,,,,,,,,,,,,,,,,,,,,,,,,,,,,,,,,,,,,,,,,,,,,,,,,,,,,,,,,,,,,,,,,,,,,,,,,,,,,,,,,,
13,0,13,0,1,26,2020-07-03_13h13.22.109,retriever_ti,2020.1.3,Win32,60,Chrome,1366,768,,,,,,,,,,,,,,,,,,,,,,,,,,,,,,,,,,,,,,,,,,,,,,,,,,,,,,,,,,,,,,,,,,,,,,,,,,,,,,,,,,,,,,,,,,,,,,,,,,
14,0,14,0,1,26,2020-07-03_13h13.22.109,retriever_ti,2020.1.3,Win32,60,Chrome,1366,768,,,,,,,,,,,,,,,,,,,,,,,,,,,,,,,,,,,,,,,,,,,,,,,,,,,,,,,,,,,,,,,,,,,,,,,,,,,,,,,,,,,,,,,,,,,,,,,,,,
,,,,,26,2020-07-03_13h13.22.109,retriever_ti,2020.1.3,Win32,60,Chrome,1366,768,159.39395,1,right,2.07951,canary,1,159.40847,159.40847,161.909285,0,0,0,0,1,2,5,1,html/resources/stimuli_practice_decision/04_beetle.jpg,html/resources/stimuli_practice_decision/02_canary.jpg,beetle,canary,,,,,,,,,,,,,,,,,,,,,,,,,,,,,,,,,,,,,,,,,,,,,,,,,,,,,,,,,,,,,,,,,,,,,,,,,,,,,
,,,,,26,2020-07-03_13h13.22.109,retriever_ti,2020.1.3,Win32,60,Chrome,1366,768,162.518675,2,left,1.54912,rabbit,1,162.52567,162.52567,165.02431,0,1,1,1,1,4,3,1,html/resources/stimuli_practice_decision/01_rabbit.jpg,html/resources/stimuli_practice_decision/07_sock.jpg,rabbit,sock,,,,,,,,,,,,,,,,,,,,,,,,,,,,,,,,,,,,,,,,,,,,,,,,,,,,,,,,,,,,,,,,,,,,,,,,,,,,,
,,,,,26,2020-07-03_13h13.22.109,retriever_ti,2020.1.3,Win32,60,Chrome,1366,768,166.025125,3,left,1.607265,pullover,1,166.061665,166.061665,168.55735,0,2,2,2,1,6,2,1,html/resources/stimuli_practice_decision/06_pullover.jpg,html/resources/stimuli_practice_decision/04_beetle.jpg,pullover,beetle,,,,,,,,,,,,,,,,,,,,,,,,,,,,,,,,,,,,,,,,,,,,,,,,,,,,,,,,,,,,,,,,,,,,,,,,,,,,,
,,,,,26,2020-07-03_13h13.22.109,retriever_ti,2020.1.3,Win32,60,Chrome,1366,768,169.07694,4,left,2.124125,glasses,1,169.11077,169.11077,171.607785,0,3,3,3,1,7,1,1,html/resources/stimuli_practice_decision/05_glasses.jpg,html/resources/stimuli_practice_decision/08_handmixer.jpg,glasses,handmixer,,,,,,,,,,,,,,,,,,,,,,,,,,,,,,,,,,,,,,,,,,,,,,,,,,,,,,,,,,,,,,,,,,,,,,,,,,,,,
,,,,,26,2020-07-03_13h13.22.109,retriever_ti,2020.1.3,Win32,60,Chrome,1366,768,172.1253,5,left,1.474355,glasses,1,172.143995,172.143995,174.64092,0,4,4,4,1,7,6,1,html/resources/stimuli_practice_decision/05_glasses.jpg,html/resources/stimuli_practice_decision/06_pullover.jpg,glasses,pullover,,,,,,,,,,,,,,,,,,,,,,,,,,,,,,,,,,,,,,,,,,,,,,,,,,,,,,,,,,,,,,,,,,,,,,,,,,,,,
,,,,,26,2020-07-03_13h13.22.109,retriever_ti,2020.1.3,Win32,60,Chrome,1366,768,175.64325,6,NaN,NaN,No_response,2,175.67653,175.67653,178.174355,0,5,5,5,1,4,7,1,html/resources/stimuli_practice_decision/01_rabbit.jpg,html/resources/stimuli_practice_decision/05_glasses.jpg,rabbit,glasses,,,,,,,,,,,,,,,,,,,,,,,,,,,,,,,,,,,,,,,,,,,,,,,,,,,,,,,,,,,,,,,,,,,,,,,,,,,,,
,,,,,26,2020-07-03_13h13.22.109,retriever_ti,2020.1.3,Win32,60,Chrome,1366,768,179.175615,7,right,1.520225,beetle,1,179.20934,179.20934,181.70801,0,6,6,6,1,1,2,1,html/resources/stimuli_practice_decision/08_handmixer.jpg,html/resources/stimuli_practice_decision/04_beetle.jpg,handmixer,beetle,,,,,,,,,,,,,,,,,,,,,,,,,,,,,,,,,,,,,,,,,,,,,,,,,,,,,,,,,,,,,,,,,,,,,,,,,,,,,
,,,,,26,2020-07-03_13h13.22.109,retriever_ti,2020.1.3,Win32,60,Chrome,1366,768,182.71045,8,left,0.965155,rabbit,1,182.727595,182.727595,185.224565,0,7,7,7,1,4,3,1,html/resources/stimuli_practice_decision/01_rabbit.jpg,html/resources/stimuli_practice_decision/07_sock.jpg,rabbit,sock,,,,,,,,,,,,,,,,,,,,,,,,,,,,,,,,,,,,,,,,,,,,,,,,,,,,,,,,,,,,,,,,,,,,,,,,,,,,,
,,,,,26,2020-07-03_13h13.22.109,retriever_ti,2020.1.3,Win32,60,Chrome,1366,768,,,,,,,,,,,,,,,,,,,,,,down,1,2.143495,1,0,0,0,3,1,html/resources/sequences_IDs/triangle.png,star ↑,square →,triangle ↓,← circle,down,,,,,,,,,,,,,,,,,,,,,,,,,,,,,,,,,,,,,,,,,,,,,,,,,,,,,,,,,,,,,,
,,,,,26,2020-07-03_13h13.22.109,retriever_ti,2020.1.3,Win32,60,Chrome,1366,768,,,,,,,,,,,,,,,,,,,,,,left,1,2.048045,1,0,1,1,2,1,html/resources/sequences_IDs/square1.png,star ↑,triangle →,circle ↓,← square,left,,,,,,,,,,,,,,,,,,,,,,,,,,,,,,,,,,,,,,,,,,,,,,,,,,,,,,,,,,,,,,
,,,,,26,2020-07-03_13h13.22.109,retriever_ti,2020.1.3,Win32,60,Chrome,1366,768,,,,,,,,,,,,,,,,,,,,,,down,1,1.4652,1,0,2,2,1,1,html/resources/sequences_IDs/star.png,square ↑,circle →,star ↓,← triangle,down,,,,,,,,,,,,,,,,,,,,,,,,,,,,,,,,,,,,,,,,,,,,,,,,,,,,,,,,,,,,,,
,,,,,26,2020-07-03_13h13.22.109,retriever_ti,2020.1.3,Win32,60,Chrome,1366,768,,,,,,,,,,,,,,,,,,,,,,up,1,1.285965,1,0,3,3,0,1,html/resources/sequences_IDs/circle.png,circle ↑,square →,triangle ↓,← star ,up,,,,,,,,,,,,,,,,,,,,,,,,,,,,,,,,,,,,,,,,,,,,,,,,,,,,,,,,,,,,,,
,,,,,26,2020-07-03_13h13.22.109,retriever_ti,2020.1.3,Win32,60,Chrome,1366,768,,,,,,,,,,,,,,,,,,,,,,,,,,,,,,,,,,,,,0,7.238005,0,0,0,0,1,,,,,,,,,,,,,,,,,,,,,,,,,,,,,,,,,,,,,,,,,,,,,,,,,,,,,,,
,,,,,26,2020-07-03_13h13.22.109,retriever_ti,2020.1.3,Win32,60,Chrome,1366,768,210.445465,9,left,1.41619,pullover,0,210.476745,210.476745,212.975415,0,0,0,0,1,6,7,1,html/resources/stimuli_practice_decision/06_pullover.jpg,html/resources/stimuli_practice_decision/05_glasses.jpg,pullover,glasses,,,,,,,,,,,,,,,,,,,,,,,,,,,,,,,,,,,,,,,,,,,,,,,,,,,,,,,,,,,,,,,,,,,,,,,,,,,,,
,,,,,26,2020-07-03_13h13.22.109,retriever_ti,2020.1.3,Win32,60,Chrome,1366,768,213.975495,10,left,1.48145,pullover,1,213.99308,213.99308,216.49206,0,1,1,1,1,6,2,1,html/resources/stimuli_practice_decision/06_pullover.jpg,html/resources/stimuli_practice_decision/04_beetle.jpg,pullover,beetle,,,,,,,,,,,,,,,,,,,,,,,,,,,,,,,,,,,,,,,,,,,,,,,,,,,,,,,,,,,,,,,,,,,,,,,,,,,,,
,,,,,26,2020-07-03_13h13.22.109,retriever_ti,2020.1.3,Win32,60,Chrome,1366,768,217.010745,11,left,1.11499,canary,0,217.0278,217.0278,219.524775,0,2,2,2,1,5,6,1,html/resources/stimuli_practice_decision/02_canary.jpg,html/resources/stimuli_practice_decision/06_pullover.jpg,canary,pullover,,,,,,,,,,,,,,,,,,,,,,,,,,,,,,,,,,,,,,,,,,,,,,,,,,,,,,,,,,,,,,,,,,,,,,,,,,,,,
,,,,,26,2020-07-03_13h13.22.109,retriever_ti,2020.1.3,Win32,60,Chrome,1366,768,220.52512,12,right,1.42671,glasses,0,220.542695,220.542695,223.042125,0,3,3,3,1,8,7,1,html/resources/stimuli_practice_decision/03_squirrel.jpg,html/resources/stimuli_practice_decision/05_glasses.jpg,squirrel,glasses,,,,,,,,,,,,,,,,,,,,,,,,,,,,,,,,,,,,,,,,,,,,,,,,,,,,,,,,,,,,,,,,,,,,,,,,,,,,,
,,,,,26,2020-07-03_13h13.22.109,retriever_ti,2020.1.3,Win32,60,Chrome,1366,768,224.04387,13,left,0.938245,canary,1,224.07741,224.07741,226.575345,0,4,4,4,1,5,3,1,html/resources/stimuli_practice_decision/02_canary.jpg,html/resources/stimuli_practice_decision/07_sock.jpg,canary,sock,,,,,,,,,,,,,,,,,,,,,,,,,,,,,,,,,,,,,,,,,,,,,,,,,,,,,,,,,,,,,,,,,,,,,,,,,,,,,
,,,,,26,2020-07-03_13h13.22.109,retriever_ti,2020.1.3,Win32,60,Chrome,1366,768,227.076775,14,right,2.139965,squirrel,1,227.095395,227.095395,229.59198,0,5,5,5,1,7,8,1,html/resources/stimuli_practice_decision/05_glasses.jpg,html/resources/stimuli_practice_decision/03_squirrel.jpg,glasses,squirrel,,,,,,,,,,,,,,,,,,,,,,,,,,,,,,,,,,,,,,,,,,,,,,,,,,,,,,,,,,,,,,,,,,,,,,,,,,,,,
,,,,,26,2020-07-03_13h13.22.109,retriever_ti,2020.1.3,Win32,60,Chrome,1366,768,230.61993,15,left,1.357775,canary,1,230.643275,230.643275,233.14218,0,6,6,6,1,5,4,1,html/resources/stimuli_practice_decision/02_canary.jpg,html/resources/stimuli_practice_decision/01_rabbit.jpg,canary,rabbit,,,,,,,,,,,,,,,,,,,,,,,,,,,,,,,,,,,,,,,,,,,,,,,,,,,,,,,,,,,,,,,,,,,,,,,,,,,,,
,,,,,26,2020-07-03_13h13.22.109,retriever_ti,2020.1.3,Win32,60,Chrome,1366,768,234.14264,16,left,0.83404,canary,1,234.17694,234.17694,236.6755,0,7,7,7,1,5,3,1,html/resources/stimuli_practice_decision/02_canary.jpg,html/resources/stimuli_practice_decision/07_sock.jpg,canary,sock,,,,,,,,,,,,,,,,,,,,,,,,,,,,,,,,,,,,,,,,,,,,,,,,,,,,,,,,,,,,,,,,,,,,,,,,,,,,,
,,,,,26,2020-07-03_13h13.22.109,retriever_ti,2020.1.3,Win32,60,Chrome,1366,768,,,,,,,,,,,,,,,,,,,,,,left,1,2.088285,1,0,0,0,2,1,html/resources/sequences_IDs/square1.png,star ↑,triangle →,circle ↓,← square,left,,,,,,,,,,,,,,,,,,,,,,,,,,,,,,,,,,,,,,,,,,,,,,,,,,,,,,,,,,,,,,
,,,,,26,2020-07-03_13h13.22.109,retriever_ti,2020.1.3,Win32,60,Chrome,1366,768,,,,,,,,,,,,,,,,,,,,,,up,1,1.01358,1,0,1,1,0,1,html/resources/sequences_IDs/circle.png,circle ↑,square →,triangle ↓,← star ,up,,,,,,,,,,,,,,,,,,,,,,,,,,,,,,,,,,,,,,,,,,,,,,,,,,,,,,,,,,,,,,
,,,,,26,2020-07-03_13h13.22.109,retriever_ti,2020.1.3,Win32,60,Chrome,1366,768,,,,,,,,,,,,,,,,,,,,,,down,1,1.364955,1,0,2,2,3,1,html/resources/sequences_IDs/triangle.png,star ↑,square →,triangle ↓,← circle,down,,,,,,,,,,,,,,,,,,,,,,,,,,,,,,,,,,,,,,,,,,,,,,,,,,,,,,,,,,,,,,
,,,,,26,2020-07-03_13h13.22.109,retriever_ti,2020.1.3,Win32,60,Chrome,1366,768,,,,,,,,,,,,,,,,,,,,,,down,1,1.705705,1,0,3,3,1,1,html/resources/sequences_IDs/star.png,square ↑,circle →,star ↓,← triangle,down,,,,,,,,,,,,,,,,,,,,,,,,,,,,,,,,,,,,,,,,,,,,,,,,,,,,,,,,,,,,,,
,,,,,26,2020-07-03_13h13.22.109,retriever_ti,2020.1.3,Win32,60,Chrome,1366,768,,,,,,,,,,,,,,,,,,,,,,,,,,,,,,,,,,,,,0,2.548975,1,0,1,0,1,,,,,,,,,,,,,,,,,,,,,,,,,,,,,,,,,,,,,,,,,,,,,,,,,,,,,,,
,,,,,26,2020-07-03_13h13.22.109,retriever_ti,2020.1.3,Win32,60,Chrome,1366,768,,,,,,,,,,,,,,,,,1,,,,,,,,,,,,,,,,,,,,,,,,,,,257.169745,1,right,1.1065,clownfish     ,6,4,5,1,3,257.195325,257.195325,259.69368,0,0,0,0,1,1,1,6,parrot      ,clownfish     ,html/resources/sequences_IDs/B/05_parrot.jpg,html/resources/sequences_IDs/A/04_clownfish.jpg,5,4,2,1,2,1,4,3,0,26,,,,,,,,,,,,,,,,,,,,
,,,,,26,2020-07-03_13h13.22.109,retriever_ti,2020.1.3,Win32,60,Chrome,1366,768,,,,,,,,,,,,,,,,,1,,,,,,,,,,,,,,,,,,,,,,,,,,,260.31309,2,right,1.762155,satellite_dish,4,10,-2,0,3,260.328835,260.328835,262.82621,0,1,1,1,1,2,6,4,clownfish     ,satellite_dish,html/resources/sequences_IDs/A/04_clownfish.jpg,html/resources/sequences_IDs/A/10_satellite_dish.jpg,4,10,2,1,4,2,3,8,0,26,,,,,,,,,,,,,,,,,,,,
,,,,,26,2020-07-03_13h13.22.109,retriever_ti,2020.1.3,Win32,60,Chrome,1366,768,,,,,,,,,,,,,,,,,1,,,,,,,,,,,,,,,,,,,,,,,,,,,263.428705,3,right,1.22865,satellite_dish,4,10,2,1,3,263.462465,263.462465,265.95976,0,2,2,2,1,3,2,4,scarf         ,satellite_dish,html/resources/sequences_IDs/A/06_scarf.jpg,html/resources/sequences_IDs/A/10_satellite_dish.jpg,6,10,3,2,4,2,5,8,0,26,,,,,,,,,,,,,,,,,,,,
,,,,,26,2020-07-03_13h13.22.109,retriever_ti,2020.1.3,Win32,60,Chrome,1366,768,,,,,,,,,,,,,,,,,1,,,,,,,,,,,,,,,,,,,,,,,,,,,266.56129,4,right,1.16206,redfox      ,3,1,-1,0,1,266.596415,266.596415,269.093045,0,3,3,3,1,4,4,3,satellite_dish,redfox      ,html/resources/sequences_IDs/A/10_satellite_dish.jpg,html/resources/sequences_IDs/B/01_redfox.jpg,10,1,4,2,1,1,8,1,1,26,,,,,,,,,,,,,,,,,,,,
,,,,,26,2020-07-03_13h13.22.109,retriever_ti,2020.1.3,Win32,60,Chrome,1366,768,,,,,,,,,,,,,,,,,1,,,,,,,,,,,,,,,,,,,,,,,,,,,270.194395,5,left,1.20891,redfox      ,3,1,-2,0,3,270.21128,270.21128,272.71039,0,4,4,4,1,5,3,5,redfox      ,sport_tshirt,html/resources/sequences_IDs/B/01_redfox.jpg,html/resources/sequences_IDs/B/07_sport_tshirt.jpg,1,7,1,1,3,2,1,6,0,26,,,,,,,,,,,,,,,,,,,,
,,,,,26,2020-07-03_13h13.22.109,retriever_ti,2020.1.3,Win32,60,Chrome,1366,768,,,,,,,,,,,,,,,,,1,,,,,,,,,,,,,,,,,,,,,,,,,,,273.32717,6,left,1.42486,sport_tshirt,5,7,1,1,1,273.36134,273.36134,275.860075,0,5,5,5,1,6,5,4,sport_tshirt,satellite_dish,html/resources/sequences_IDs/B/07_sport_tshirt.jpg,html/resources/sequences_IDs/A/10_satellite_dish.jpg,7,10,3,2,4,2,6,8,0,26,,,,,,,,,,,,,,,,,,,,
,,,,,26,2020-07-03_13h13.22.109,retriever_ti,2020.1.3,Win32,60,Chrome,1366,768,,,,,,,,,,,,,,,,,1,,,,,,,,,,,,,,,,,,,,,,,,,,,276.961845,7,left,1.2678,parrot      ,1,5,-3,0,3,276.99554,276.99554,279.49373,0,6,6,6,1,7,1,4,parrot      ,satellite_dish,html/resources/sequences_IDs/B/05_parrot.jpg,html/resources/sequences_IDs/A/10_satellite_dish.jpg,5,10,2,1,4,2,4,8,0,26,,,,,,,,,,,,,,,,,,,,
,,,,,26,2020-07-03_13h13.22.109,retriever_ti,2020.1.3,Win32,60,Chrome,1366,768,,,,,,,,,,,,,,,,,1,,,,,,,,,,,,,,,,,,,,,,,,,,,280.111295,8,left,1.36767,sport_tshirt,5,7,-1,0,0,280.129355,280.129355,282.627325,0,7,7,7,1,8,5,6,sport_tshirt,clownfish     ,html/resources/sequences_IDs/B/07_sport_tshirt.jpg,html/resources/sequences_IDs/A/04_clownfish.jpg,7,4,3,2,2,1,6,3,0,26,,,,,,,,,,,,,,,,,,,,
,,,,,26,2020-07-03_13h13.22.109,retriever_ti,2020.1.3,Win32,60,Chrome,1366,768,,,,,,,,,,,,,,,,,1,,,,,,,,,,,,,,,,,,,,,,,,,,,283.728305,9,right,1.33757,clownfish     ,6,4,-1,0,0,283.761905,283.761905,286.26007,0,8,8,8,1,9,7,6,phone       ,clownfish     ,html/resources/sequences_IDs/B/09_phone.jpg,html/resources/sequences_IDs/A/04_clownfish.jpg,9,4,4,2,2,1,7,3,0,26,,,,,,,,,,,,,,,,,,,,
,,,,,26,2020-07-03_13h13.22.109,retriever_ti,2020.1.3,Win32,60,Chrome,1366,768,,,,,,,,,,,,,,,,,1,,,,,,,,,,,,,,,,,,,,,,,,,,,287.36115,10,left,1.28449,sport_tshirt,5,7,3,1,3,287.396115,287.396115,289.893555,0,9,9,9,1,10,5,2,sport_tshirt,scarf         ,html/resources/sequences_IDs/B/07_sport_tshirt.jpg,html/resources/sequences_IDs/A/06_scarf.jpg,7,6,3,2,3,2,6,5,0,26,,,,,,,,,,,,,,,,,,,,
,,,,,26,2020-07-03_13h13.22.109,retriever_ti,2020.1.3,Win32,60,Chrome,1366,768,,,,,,,,,,,,,,,,,1,,,,,,,,,,,,,,,,,,,,,,,,,,,290.51168,11,left,1.07535,redfox      ,3,1,-3,0,3,290.54528,290.54528,293.044085,0,10,10,10,1,11,3,6,redfox      ,clownfish     ,html/resources/sequences_IDs/B/01_redfox.jpg,html/resources/sequences_IDs/A/04_clownfish.jpg,1,4,1,1,2,1,1,3,0,26,,,,,,,,,,,,,,,,,,,,
,,,,,26,2020-07-03_13h13.22.109,retriever_ti,2020.1.3,Win32,60,Chrome,1366,768,,,,,,,,,,,,,,,,,1,,,,,,,,,,,,,,,,,,,,,,,,,,,293.661645,12,right,1.065535,phone       ,7,9,3,1,3,293.680375,293.680375,296.17699,0,11,11,11,1,12,4,7,satellite_dish,phone       ,html/resources/sequences_IDs/A/10_satellite_dish.jpg,html/resources/sequences_IDs/B/09_phone.jpg,10,9,4,2,4,2,8,7,0,26,,,,,,,,,,,,,,,,,,,,
,,,,,26,2020-07-03_13h13.22.109,retriever_ti,2020.1.3,Win32,60,Chrome,1366,768,,,,,,,,,,,,,,,,,1,,,,,,,,,,,,,,,,,,,,,,,,,,,296.795185,13,left,1.42933,clownfish     ,6,4,3,1,3,296.812145,296.812145,299.310535,0,12,12,12,1,13,6,3,clownfish     ,redfox      ,html/resources/sequences_IDs/A/04_clownfish.jpg,html/resources/sequences_IDs/B/01_redfox.jpg,4,1,2,1,1,1,3,1,0,26,,,,,,,,,,,,,,,,,,,,
,,,,,26,2020-07-03_13h13.22.109,retriever_ti,2020.1.3,Win32,60,Chrome,1366,768,,,,,,,,,,,,,,,,,1,,,,,,,,,,,,,,,,,,,,,,,,,,,299.92787,14,right,1.69428,phone       ,7,9,2,1,3,299.94765,299.94765,302.44385,0,13,13,13,1,14,5,7,sport_tshirt,phone       ,html/resources/sequences_IDs/B/07_sport_tshirt.jpg,html/resources/sequences_IDs/B/09_phone.jpg,7,9,3,2,4,2,6,7,0,26,,,,,,,,,,,,,,,,,,,,
,,,,,26,2020-07-03_13h13.22.109,retriever_ti,2020.1.3,Win32,60,Chrome,1366,768,,,,,,,,,,,,,,,,,1,,,,,,,,,,,,,,,,,,,,,,,,,,,303.046345,15,left,1.1231,parrot      ,1,5,-7,0,3,303.080205,303.080205,305.57743,0,14,14,14,1,15,1,8,parrot      ,camel         ,html/resources/sequences_IDs/B/05_parrot.jpg,html/resources/sequences_IDs/A/03_camel.jpg,5,3,2,1,1,1,4,2,0,26,,,,,,,,,,,,,,,,,,,,
,,,,,26,2020-07-03_13h13.22.109,retriever_ti,2020.1.3,Win32,60,Chrome,1366,768,,,,,,,,,,,,,,,,,1,,,,,,,,,,,,,,,,,,,,,,,,,,,306.17875,16,right,1.44624,clownfish     ,6,4,1,1,1,306.21338,306.21338,308.71073,0,15,15,15,1,16,5,6,sport_tshirt,clownfish     ,html/resources/sequences_IDs/B/07_sport_tshirt.jpg,html/resources/sequences_IDs/A/04_clownfish.jpg,7,4,3,2,2,1,6,3,0,26,,,,,,,,,,,,,,,,,,,,
,,,,,26,2020-07-03_13h13.22.109,retriever_ti,2020.1.3,Win32,60,Chrome,1366,768,,,,,,,,,,,,,,,,,1,,,,,,,,,,,,,,,,,,,,,,,,,,,309.81142,17,left,1.275175,camel         ,8,3,3,1,3,309.82855,309.82855,312.32754,0,16,16,16,1,17,8,5,camel         ,sport_tshirt,html/resources/sequences_IDs/A/03_camel.jpg,html/resources/sequences_IDs/B/07_sport_tshirt.jpg,3,7,1,1,3,2,2,6,0,26,,,,,,,,,,,,,,,,,,,,
,,,,,26,2020-07-03_13h13.22.109,retriever_ti,2020.1.3,Win32,60,Chrome,1366,768,,,,,,,,,,,,,,,,,1,,,,,,,,,,,,,,,,,,,,,,,,,,,312.94485,18,left,1.04425,redfox      ,3,1,-1,0,0,312.979305,312.979305,315.47752,0,17,17,17,1,18,3,4,redfox      ,satellite_dish,html/resources/sequences_IDs/B/01_redfox.jpg,html/resources/sequences_IDs/A/10_satellite_dish.jpg,1,10,1,1,4,2,1,8,0,26,,,,,,,,,,,,,,,,,,,,
,,,,,26,2020-07-03_13h13.22.109,retriever_ti,2020.1.3,Win32,60,Chrome,1366,768,,,,,,,,,,,,,,,,,1,,,,,,,,,,,,,,,,,,,,,,,,,,,316.57965,19,right,0.792775,redfox      ,3,1,1,1,1,316.61318,316.61318,319.11103,0,18,18,18,1,19,2,3,scarf         ,redfox      ,html/resources/sequences_IDs/A/06_scarf.jpg,html/resources/sequences_IDs/B/01_redfox.jpg,6,1,3,2,1,1,5,1,0,26,,,,,,,,,,,,,,,,,,,,
,,,,,26,2020-07-03_13h13.22.109,retriever_ti,2020.1.3,Win32,60,Chrome,1366,768,,,,,,,,,,,,,,,,,1,,,,,,,,,,,,,,,,,,,,,,,,,,,320.212015,20,left,1.58757,parrot      ,1,5,-2,0,3,320.23,320.23,322.7282,0,19,19,19,1,20,1,3,parrot      ,redfox      ,html/resources/sequences_IDs/B/05_parrot.jpg,html/resources/sequences_IDs/B/01_redfox.jpg,5,1,2,1,1,1,4,1,0,26,,,,,,,,,,,,,,,,,,,,
,,,,,26,2020-07-03_13h13.22.109,retriever_ti,2020.1.3,Win32,60,Chrome,1366,768,,,,,,,,,,,,,,,,,1,,,,,,,,,,,,,,,,,,,,,,,,,,,323.34656,21,left,1.751815,phone       ,7,9,4,1,3,323.36344,323.36344,325.86122,0,20,20,20,1,21,7,3,phone       ,redfox      ,html/resources/sequences_IDs/B/09_phone.jpg,html/resources/sequences_IDs/B/01_redfox.jpg,9,1,4,2,1,1,7,1,0,26,,,,,,,,,,,,,,,,,,,,
,,,,,26,2020-07-03_13h13.22.109,retriever_ti,2020.1.3,Win32,60,Chrome,1366,768,,,,,,,,,,,,,,,,,1,,,,,,,,,,,,,,,,,,,,,,,,,,,326.47875,22,right,1.606165,sport_tshirt,5,7,-2,0,3,326.51483,326.51483,329.01132,0,21,21,21,1,22,7,5,phone       ,sport_tshirt,html/resources/sequences_IDs/B/09_phone.jpg,html/resources/sequences_IDs/B/07_sport_tshirt.jpg,9,7,4,2,3,2,7,6,0,26,,,,,,,,,,,,,,,,,,,,
,,,,,26,2020-07-03_13h13.22.109,retriever_ti,2020.1.3,Win32,60,Chrome,1366,768,,,,,,,,,,,,,,,,,1,,,,,,,,,,,,,,,,,,,,,,,,,,,329.628795,23,right,1.937755,redfox      ,3,1,-1,0,0,329.645895,329.645895,332.14541,0,22,22,22,1,23,4,3,satellite_dish,redfox      ,html/resources/sequences_IDs/A/10_satellite_dish.jpg,html/resources/sequences_IDs/B/01_redfox.jpg,10,1,4,2,1,1,8,1,0,26,,,,,,,,,,,,,,,,,,,,
,,,,,26,2020-07-03_13h13.22.109,retriever_ti,2020.1.3,Win32,60,Chrome,1366,768,,,,,,,,,,,,,,,,,1,,,,,,,,,,,,,,,,,,,,,,,,,,,333.245625,24,left,1.76151,parrot      ,1,5,-4,0,3,333.279955,333.279955,335.77806,0,23,23,23,1,24,1,5,parrot      ,sport_tshirt,html/resources/sequences_IDs/B/05_parrot.jpg,html/resources/sequences_IDs/B/07_sport_tshirt.jpg,5,7,2,1,3,2,4,6,0,26,,,,,,,,,,,,,,,,,,,,
,,,,,26,2020-07-03_13h13.22.109,retriever_ti,2020.1.3,Win32,60,Chrome,1366,768,,,,,,,,,,,,,,,,,1,,,,,,,,,,,,,,,,,,,,,,,,,,,336.39551,25,left,0.92909,parrot      ,1,5,-1,0,0,336.414,336.414,338.911735,0,24,24,24,1,25,1,2,parrot      ,scarf         ,html/resources/sequences_IDs/B/05_parrot.jpg,html/resources/sequences_IDs/A/06_scarf.jpg,5,6,2,1,3,2,4,5,0,26,,,,,,,,,,,,,,,,,,,,
,,,,,26,2020-07-03_13h13.22.109,retriever_ti,2020.1.3,Win32,60,Chrome,1366,768,,,,,,,,,,,,,,,,,1,,,,,,,,,,,,,,,,,,,,,,,,,,,340.01169,26,right,2.027905,camel         ,8,3,2,1,3,340.045715,340.045715,342.54504,0,25,25,25,1,26,6,8,clownfish     ,camel         ,html/resources/sequences_IDs/A/04_clownfish.jpg,html/resources/sequences_IDs/A/03_camel.jpg,4,3,2,1,1,1,3,2,0,26,,,,,,,,,,,,,,,,,,,,
,,,,,26,2020-07-03_13h13.22.109,retriever_ti,2020.1.3,Win32,60,Chrome,1366,768,,,,,,,,,,,,,,,,,1,,,,,,,,,,,,,,,,,,,,,,,,,,,343.16325,27,left,1.61517,clownfish     ,6,4,1,1,1,343.180325,343.180325,345.6786,0,26,26,26,1,27,6,5,clownfish     ,sport_tshirt,html/resources/sequences_IDs/A/04_clownfish.jpg,html/resources/sequences_IDs/B/07_sport_tshirt.jpg,4,7,2,1,3,2,3,6,0,26,,,,,,,,,,,,,,,,,,,,
,,,,,26,2020-07-03_13h13.22.109,retriever_ti,2020.1.3,Win32,60,Chrome,1366,768,,,,,,,,,,,,,,,,,1,,,,,,,,,,,,,,,,,,,,,,,,,,,346.778675,28,right,1.473575,parrot      ,1,5,-1,0,0,346.81267,346.81267,349.31197,0,27,27,27,1,28,2,1,scarf         ,parrot      ,html/resources/sequences_IDs/A/06_scarf.jpg,html/resources/sequences_IDs/B/05_parrot.jpg,6,5,3,2,2,1,5,4,0,26,,,,,,,,,,,,,,,,,,,,
,,,,,26,2020-07-03_13h13.22.109,retriever_ti,2020.1.3,Win32,60,Chrome,1366,768,,,,,,,,,,,,,,,,,1,,,,,,,,,,,,,,,,,,,,,,,,,,,350.413395,29,left,1.00087,camel         ,8,3,2,1,3,350.43042,350.43042,352.928905,0,28,28,28,1,29,8,6,camel         ,clownfish     ,html/resources/sequences_IDs/A/03_camel.jpg,html/resources/sequences_IDs/A/04_clownfish.jpg,3,4,1,1,2,1,2,3,0,26,,,,,,,,,,,,,,,,,,,,
,,,,,26,2020-07-03_13h13.22.109,retriever_ti,2020.1.3,Win32,60,Chrome,1366,768,,,,,,,,,,,,,,,,,1,,,,,,,,,,,,,,,,,,,,,,,,,,,353.546535,30,left,1.336415,sport_tshirt,5,7,-1,0,1,353.564745,353.564745,356.062065,0,29,29,29,1,30,5,6,sport_tshirt,clownfish     ,html/resources/sequences_IDs/B/07_sport_tshirt.jpg,html/resources/sequences_IDs/A/04_clownfish.jpg,7,4,3,2,2,1,6,3,1,26,,,,,,,,,,,,,,,,,,,,
,,,,,26,2020-07-03_13h13.22.109,retriever_ti,2020.1.3,Win32,60,Chrome,1366,768,,,,,,,,,,,,,,,,,1,,,,,,,,,,,,,,,,,,,,,,,,,,,357.16363,31,left,1.0775,phone       ,7,9,-1,0,0,357.197125,357.197125,359.695255,0,30,30,30,1,31,7,8,phone       ,camel         ,html/resources/sequences_IDs/B/09_phone.jpg,html/resources/sequences_IDs/A/03_camel.jpg,9,3,4,2,1,1,7,2,0,26,,,,,,,,,,,,,,,,,,,,
,,,,,26,2020-07-03_13h13.22.109,retriever_ti,2020.1.3,Win32,60,Chrome,1366,768,,,,,,,,,,,,,,,,,1,,,,,,,,,,,,,,,,,,,,,,,,,,,360.79608,32,left,1.23968,clownfish     ,6,4,1,1,1,360.83068,360.83068,363.32928,0,31,31,31,1,32,6,5,clownfish     ,sport_tshirt,html/resources/sequences_IDs/A/04_clownfish.jpg,html/resources/sequences_IDs/B/07_sport_tshirt.jpg,4,7,2,1,3,2,3,6,0,26,,,,,,,,,,,,,,,,,,,,
,,,,,26,2020-07-03_13h13.22.109,retriever_ti,2020.1.3,Win32,60,Chrome,1366,768,,,,,,,,,,,,,,,,,1,,,,,,,,,,,,,,,,,,,,,,,,,,,364.431545,33,right,1.30529,parrot      ,1,5,-5,0,3,364.464895,364.464895,366.962475,0,32,32,32,1,33,6,1,clownfish     ,parrot      ,html/resources/sequences_IDs/A/04_clownfish.jpg,html/resources/sequences_IDs/B/05_parrot.jpg,4,5,2,1,2,1,3,4,0,26,,,,,,,,,,,,,,,,,,,,
,,,,,26,2020-07-03_13h13.22.109,retriever_ti,2020.1.3,Win32,60,Chrome,1366,768,,,,,,,,,,,,,,,,,1,,,,,,,,,,,,,,,,,,,,,,,,,,,367.57994,34,left,1.049825,parrot      ,1,5,-6,0,3,367.614595,367.614595,370.11307,0,33,33,33,1,34,1,7,parrot      ,phone       ,html/resources/sequences_IDs/B/05_parrot.jpg,html/resources/sequences_IDs/B/09_phone.jpg,5,9,2,1,4,2,4,7,0,26,,,,,,,,,,,,,,,,,,,,
,,,,,26,2020-07-03_13h13.22.109,retriever_ti,2020.1.3,Win32,60,Chrome,1366,768,,,,,,,,,,,,,,,,,1,,,,,,,,,,,,,,,,,,,,,,,,,,,370.731225,35,left,1.121765,phone       ,7,9,5,1,3,370.76342,370.76342,373.26279,0,34,34,34,1,35,7,2,phone       ,scarf         ,html/resources/sequences_IDs/B/09_phone.jpg,html/resources/sequences_IDs/A/06_scarf.jpg,9,6,4,2,3,2,7,5,0,26,,,,,,,,,,,,,,,,,,,,
,,,,,26,2020-07-03_13h13.22.109,retriever_ti,2020.1.3,Win32,60,Chrome,1366,768,,,,,,,,,,,,,,,,,1,,,,,,,,,,,,,,,,,,,,,,,,,,,373.8803,36,left,1.17313,satellite_dish,4,10,2,1,3,373.91526,373.91526,376.41249,0,35,35,35,1,36,4,2,satellite_dish,scarf         ,html/resources/sequences_IDs/A/10_satellite_dish.jpg,html/resources/sequences_IDs/A/06_scarf.jpg,10,6,4,2,3,2,8,5,0,26,,,,,,,,,,,,,,,,,,,,
,,,,,26,2020-07-03_13h13.22.109,retriever_ti,2020.1.3,Win32,60,Chrome,1366,768,,,,,,,,,,,,,,,,,1,,,,,,,,,,,,,,,,,,,,,,,,,,,377.014955,37,right,1.132715,parrot      ,1,5,-4,0,3,377.04878,377.04878,379.54623,0,36,36,36,1,37,5,1,sport_tshirt,parrot      ,html/resources/sequences_IDs/B/07_sport_tshirt.jpg,html/resources/sequences_IDs/B/05_parrot.jpg,7,5,3,2,2,1,6,4,0,26,,,,,,,,,,,,,,,,,,,,
,,,,,26,2020-07-03_13h13.22.109,retriever_ti,2020.1.3,Win32,60,Chrome,1366,768,,,,,,,,,,,,,,,,,1,,,,,,,,,,,,,,,,,,,,,,,,,,,380.162925,38,right,1.938365,camel         ,8,3,5,1,3,380.196915,380.196915,382.696035,0,37,37,37,1,38,3,8,redfox      ,camel         ,html/resources/sequences_IDs/B/01_redfox.jpg,html/resources/sequences_IDs/A/03_camel.jpg,1,3,1,1,1,1,1,2,0,26,,,,,,,,,,,,,,,,,,,,
,,,,,26,2020-07-03_13h13.22.109,retriever_ti,2020.1.3,Win32,60,Chrome,1366,768,,,,,,,,,,,,,,,,,1,,,,,,,,,,,,,,,,,,,,,,,,,,,383.29971,39,left,0.822335,parrot      ,1,5,-1,0,0,383.31653,383.31653,385.812855,0,38,38,38,1,39,1,2,parrot      ,scarf         ,html/resources/sequences_IDs/B/05_parrot.jpg,html/resources/sequences_IDs/A/06_scarf.jpg,5,6,2,1,3,2,4,5,0,26,,,,,,,,,,,,,,,,,,,,
,,,,,26,2020-07-03_13h13.22.109,retriever_ti,2020.1.3,Win32,60,Chrome,1366,768,,,,,,,,,,,,,,,,,1,,,,,,,,,,,,,,,,,,,,,,,,,,,386.913,40,right,1.671455,camel         ,8,3,6,1,3,386.946925,386.946925,389.446045,0,39,39,39,1,40,2,8,scarf         ,camel         ,html/resources/sequences_IDs/A/06_scarf.jpg,html/resources/sequences_IDs/A/03_camel.jpg,6,3,3,2,1,1,5,2,0,26,,,,,,,,,,,,,,,,,,,,
,,,,,26,2020-07-03_13h13.22.109,retriever_ti,2020.1.3,Win32,60,Chrome,1366,768,,,,,,,,,,,,,,,,,1,,,,,,,,,,,,,,,,,,,,,,,,,,,390.04883,41,right,1.7279,redfox      ,3,1,1,1,1,390.08241,390.08241,392.57978,0,40,40,40,1,41,2,3,scarf         ,redfox      ,html/resources/sequences_IDs/A/06_scarf.jpg,html/resources/sequences_IDs/B/01_redfox.jpg,6,1,3,2,1,1,5,1,0,26,,,,,,,,,,,,,,,,,,,,
,,,,,26,2020-07-03_13h13.22.109,retriever_ti,2020.1.3,Win32,60,Chrome,1366,768,,,,,,,,,,,,,,,,,1,,,,,,,,,,,,,,,,,,,,,,,,,,,393.68078,42,right,1.34097,parrot      ,1,5,-1,0,0,393.699305,393.699305,396.19649,0,41,41,41,1,42,2,1,scarf         ,parrot      ,html/resources/sequences_IDs/A/06_scarf.jpg,html/resources/sequences_IDs/B/05_parrot.jpg,6,5,3,2,2,1,5,4,0,26,,,,,,,,,,,,,,,,,,,,
,,,,,26,2020-07-03_13h13.22.109,retriever_ti,2020.1.3,Win32,60,Chrome,1366,768,,,,,,,,,,,,,,,,,1,,,,,,,,,,,,,,,,,,,,,,,,,,,397.300585,43,right,1.43875,phone       ,7,9,1,1,1,397.331585,397.331585,399.83027,0,42,42,42,1,43,6,7,clownfish     ,phone       ,html/resources/sequences_IDs/A/04_clownfish.jpg,html/resources/sequences_IDs/B/09_phone.jpg,4,9,2,1,4,2,3,7,0,26,,,,,,,,,,,,,,,,,,,,
,,,,,26,2020-07-03_13h13.22.109,retriever_ti,2020.1.3,Win32,60,Chrome,1366,768,,,,,,,,,,,,,,,,,1,,,,,,,,,,,,,,,,,,,,,,,,,,,400.93042,44,left,1.51796,phone       ,7,9,3,1,3,400.96453,400.96453,403.463245,0,43,43,43,1,44,7,4,phone       ,satellite_dish,html/resources/sequences_IDs/B/09_phone.jpg,html/resources/sequences_IDs/A/10_satellite_dish.jpg,9,10,4,2,4,2,7,8,0,26,,,,,,,,,,,,,,,,,,,,
,,,,,26,2020-07-03_13h13.22.109,retriever_ti,2020.1.3,Win32,60,Chrome,1366,768,,,,,,,,,,,,,,,,,1,,,,,,,,,,,,,,,,,,,,,,,,,,,404.081475,45,right,1.63493,camel         ,8,3,3,1,3,404.09861,404.09861,406.59666,0,44,44,44,1,45,5,8,sport_tshirt,camel         ,html/resources/sequences_IDs/B/07_sport_tshirt.jpg,html/resources/sequences_IDs/A/03_camel.jpg,7,3,3,2,1,1,6,2,0,26,,,,,,,,,,,,,,,,,,,,
,,,,,26,2020-07-03_13h13.22.109,retriever_ti,2020.1.3,Win32,60,Chrome,1366,768,,,,,,,,,,,,,,,,,1,,,,,,,,,,,,,,,,,,,,,,,,,,,407.19751,46,right,0.936475,parrot      ,1,5,-2,0,3,407.231715,407.231715,409.730135,0,45,45,45,1,46,3,1,redfox      ,parrot      ,html/resources/sequences_IDs/B/01_redfox.jpg,html/resources/sequences_IDs/B/05_parrot.jpg,1,5,1,1,2,1,1,4,0,26,,,,,,,,,,,,,,,,,,,,
,,,,,26,2020-07-03_13h13.22.109,retriever_ti,2020.1.3,Win32,60,Chrome,1366,768,,,,,,,,,,,,,,,,,1,,,,,,,,,,,,,,,,,,,,,,,,,,,410.349245,47,left,1.435575,satellite_dish,4,10,-1,0,0,410.382785,410.382785,412.88033,0,46,46,46,1,47,4,5,satellite_dish,sport_tshirt,html/resources/sequences_IDs/A/10_satellite_dish.jpg,html/resources/sequences_IDs/B/07_sport_tshirt.jpg,10,7,4,2,3,2,8,6,0,26,,,,,,,,,,,,,,,,,,,,
,,,,,26,2020-07-03_13h13.22.109,retriever_ti,2020.1.3,Win32,60,Chrome,1366,768,,,,,,,,,,,,,,,,,1,,,,,,,,,,,,,,,,,,,,,,,,,,,413.981055,48,NaN,NaN,No_response,NaN,NaN,NaN,2,2,413.99915,413.99915,416.497565,0,47,47,47,1,48,2,7,scarf         ,phone       ,html/resources/sequences_IDs/A/06_scarf.jpg,html/resources/sequences_IDs/B/09_phone.jpg,6,9,3,2,4,2,5,7,0,26,,,,,,,,,,,,,,,,,,,,
,,,,,26,2020-07-03_13h13.22.109,retriever_ti,2020.1.3,Win32,60,Chrome,1366,768,,,,,,,,,,,,,,,,,1,,,,,,,,,,,,,,,,,,,,,,,,,,,417.597865,49,left,1.054095,redfox      ,3,1,-4,0,3,417.631405,417.631405,420.13037,0,48,48,48,1,49,3,7,redfox      ,phone       ,html/resources/sequences_IDs/B/01_redfox.jpg,html/resources/sequences_IDs/B/09_phone.jpg,1,9,1,1,4,2,1,7,0,26,,,,,,,,,,,,,,,,,,,,
,,,,,26,2020-07-03_13h13.22.109,retriever_ti,2020.1.3,Win32,60,Chrome,1366,768,,,,,,,,,,,,,,,,,1,,,,,,,,,,,,,,,,,,,,,,,,,,,420.747245,50,left,0.92026,camel         ,8,3,4,1,3,420.78204,420.78204,423.280725,0,49,49,49,1,50,8,4,camel         ,satellite_dish,html/resources/sequences_IDs/A/03_camel.jpg,html/resources/sequences_IDs/A/10_satellite_dish.jpg,3,10,1,1,4,2,2,8,0,26,,,,,,,,,,,,,,,,,,,,
,,,,,26,2020-07-03_13h13.22.109,retriever_ti,2020.1.3,Win32,60,Chrome,1366,768,,,,,,,,,,,,,,,,,1,,,,,,,,,,,,,,,,,,,,,,,,,,,423.89964,51,right,1.13347,parrot      ,1,5,-6,0,3,423.916515,423.916515,426.413815,0,50,50,50,1,51,7,1,phone       ,parrot      ,html/resources/sequences_IDs/B/09_phone.jpg,html/resources/sequences_IDs/B/05_parrot.jpg,9,5,4,2,2,1,7,4,0,26,,,,,,,,,,,,,,,,,,,,
,,,,,26,2020-07-03_13h13.22.109,retriever_ti,2020.1.3,Win32,60,Chrome,1366,768,,,,,,,,,,,,,,,,,1,,,,,,,,,,,,,,,,,,,,,,,,,,,427.015575,52,left,1.050585,scarf         ,2,6,-3,0,3,427.050625,427.050625,429.547185,0,51,51,51,1,52,2,5,scarf         ,sport_tshirt,html/resources/sequences_IDs/A/06_scarf.jpg,html/resources/sequences_IDs/B/07_sport_tshirt.jpg,6,7,3,2,3,2,5,6,0,26,,,,,,,,,,,,,,,,,,,,
,,,,,26,2020-07-03_13h13.22.109,retriever_ti,2020.1.3,Win32,60,Chrome,1366,768,,,,,,,,,,,,,,,,,1,,,,,,,,,,,,,,,,,,,,,,,,,,,430.150905,53,left,1.09535,camel         ,8,3,7,1,3,430.18406,430.18406,432.68134,0,52,52,52,1,53,8,1,camel         ,parrot      ,html/resources/sequences_IDs/A/03_camel.jpg,html/resources/sequences_IDs/B/05_parrot.jpg,3,5,1,1,2,1,2,4,0,26,,,,,,,,,,,,,,,,,,,,
,,,,,26,2020-07-03_13h13.22.109,retriever_ti,2020.1.3,Win32,60,Chrome,1366,768,,,,,,,,,,,,,,,,,1,,,,,,,,,,,,,,,,,,,,,,,,,,,433.299135,54,left,2.30271,phone       ,7,9,-1,0,1,433.31633,433.31633,435.81444,0,53,53,53,1,54,7,8,phone       ,camel         ,html/resources/sequences_IDs/B/09_phone.jpg,html/resources/sequences_IDs/A/03_camel.jpg,9,3,4,2,1,1,7,2,1,26,,,,,,,,,,,,,,,,,,,,
,,,,,26,2020-07-03_13h13.22.109,retriever_ti,2020.1.3,Win32,60,Chrome,1366,768,,,,,,,,,,,,,,,,,1,,,,,,,,,,,,,,,,,,,,,,,,,,,436.915835,55,right,1.002335,parrot      ,1,5,-3,0,3,436.932585,436.932585,439.430815,0,54,54,54,1,55,4,1,satellite_dish,parrot      ,html/resources/sequences_IDs/A/10_satellite_dish.jpg,html/resources/sequences_IDs/B/05_parrot.jpg,10,5,4,2,2,1,8,4,0,26,,,,,,,,,,,,,,,,,,,,
,,,,,26,2020-07-03_13h13.22.109,retriever_ti,2020.1.3,Win32,60,Chrome,1366,768,,,,,,,,,,,,,,,,,1,,,,,,,,,,,,,,,,,,,,,,,,,,,440.03227,56,left,0.940175,redfox      ,3,1,-1,0,0,440.051195,440.051195,442.54767,0,55,55,55,1,56,3,4,redfox      ,satellite_dish,html/resources/sequences_IDs/B/01_redfox.jpg,html/resources/sequences_IDs/A/10_satellite_dish.jpg,1,10,1,1,4,2,1,8,0,26,,,,,,,,,,,,,,,,,,,,
,,,,,26,2020-07-03_13h13.22.109,retriever_ti,2020.1.3,Win32,60,Chrome,1366,768,,,,,,,,,,,,,,,,,1,,,,,,,,,,,,,,,,,,,,,,,,,,,443.649155,57,left,2.042665,phone       ,7,9,-1,0,0,443.682885,443.682885,446.18126,0,56,56,56,1,57,7,8,phone       ,camel         ,html/resources/sequences_IDs/B/09_phone.jpg,html/resources/sequences_IDs/A/03_camel.jpg,9,3,4,2,1,1,7,2,0,26,,,,,,,,,,,,,,,,,,,,
,,,,,26,2020-07-03_13h13.22.109,retriever_ti,2020.1.3,Win32,60,Chrome,1366,768,,,,,,,,,,,,,,,,,1,,,,,,,,,,,,,,,,,,,,,,,,,,,447.281755,58,NaN,NaN,No_response,NaN,NaN,NaN,2,2,447.299805,447.299805,449.7978,0,57,57,57,1,58,4,6,satellite_dish,clownfish     ,html/resources/sequences_IDs/A/10_satellite_dish.jpg,html/resources/sequences_IDs/A/04_clownfish.jpg,10,4,4,2,2,1,8,3,0,26,,,,,,,,,,,,,,,,,,,,
,,,,,26,2020-07-03_13h13.22.109,retriever_ti,2020.1.3,Win32,60,Chrome,1366,768,,,,,,,,,,,,,,,,,1,,,,,,,,,,,,,,,,,,,,,,,,,,,450.90042,59,left,0.098475,camel         ,8,3,1,1,1,450.93401,450.93401,453.431295,0,58,58,58,1,59,8,7,camel         ,phone       ,html/resources/sequences_IDs/A/03_camel.jpg,html/resources/sequences_IDs/B/09_phone.jpg,3,9,1,1,4,2,2,7,0,26,,,,,,,,,,,,,,,,,,,,
,,,,,26,2020-07-03_13h13.22.109,retriever_ti,2020.1.3,Win32,60,Chrome,1366,768,,,,,,,,,,,,,,,,,1,,,,,,,,,,,,,,,,,,,,,,,,,,,454.53151,60,left,1.48234,sport_tshirt,5,7,2,1,3,454.54897,454.54897,457.04798,0,59,59,59,1,60,5,3,sport_tshirt,redfox      ,html/resources/sequences_IDs/B/07_sport_tshirt.jpg,html/resources/sequences_IDs/B/01_redfox.jpg,7,1,3,2,1,1,6,1,0,26,,,,,,,,,,,,,,,,,,,,
,,,,,26,2020-07-03_13h13.22.109,retriever_ti,2020.1.3,Win32,60,Chrome,1366,768,,,,,,,,,,,,,,,,,1,,,,,,,,,,,,,,,,,,,,,,,,,,,457.665875,61,left,0.88465,phone       ,7,9,1,1,1,457.682655,457.682655,460.18175,0,60,60,60,1,61,7,6,phone       ,clownfish     ,html/resources/sequences_IDs/B/09_phone.jpg,html/resources/sequences_IDs/A/04_clownfish.jpg,9,4,4,2,2,1,7,3,0,26,,,,,,,,,,,,,,,,,,,,
,,,,,26,2020-07-03_13h13.22.109,retriever_ti,2020.1.3,Win32,60,Chrome,1366,768,,,,,,,,,,,,,,,,,1,,,,,,,,,,,,,,,,,,,,,,,,,,,461.281895,62,right,1.166725,redfox      ,3,1,-1,0,0,461.31632,461.31632,463.814845,0,61,61,61,1,62,4,3,satellite_dish,redfox      ,html/resources/sequences_IDs/A/10_satellite_dish.jpg,html/resources/sequences_IDs/B/01_redfox.jpg,10,1,4,2,1,1,8,1,0,26,,,,,,,,,,,,,,,,,,,,
,,,,,26,2020-07-03_13h13.22.109,retriever_ti,2020.1.3,Win32,60,Chrome,1366,768,,,,,,,,,,,,,,,,,1,,,,,,,,,,,,,,,,,,,,,,,,,,,464.91808,63,left,1.04996,scarf         ,2,6,1,1,0,464.935055,464.935055,467.43157,0,62,62,62,1,63,2,1,scarf         ,parrot      ,html/resources/sequences_IDs/A/06_scarf.jpg,html/resources/sequences_IDs/B/05_parrot.jpg,6,5,3,2,2,1,5,4,1,26,,,,,,,,,,,,,,,,,,,,
,,,,,26,2020-07-03_13h13.22.109,retriever_ti,2020.1.3,Win32,60,Chrome,1366,768,,,,,,,,,,,,,,,,,1,,,,,,,,,,,,,,,,,,,,,,,,,,,468.532475,64,right,1.62804,scarf         ,2,6,-4,0,3,468.56669,468.56669,471.065715,0,63,63,63,1,64,6,2,clownfish     ,scarf         ,html/resources/sequences_IDs/A/04_clownfish.jpg,html/resources/sequences_IDs/A/06_scarf.jpg,4,6,2,1,3,2,3,5,0,26,,,,,,,,,,,,,,,,,,,,
,,,,,26,2020-07-03_13h13.22.109,retriever_ti,2020.1.3,Win32,60,Chrome,1366,768,,,,,,,,,,,,,,,,,1,,,,,,,,,,,,,,,,,,,,,,,,,,,471.685285,65,left,1.59921,redfox      ,3,1,1,1,1,471.71898,471.71898,474.215765,0,64,64,64,1,65,3,2,redfox      ,scarf         ,html/resources/sequences_IDs/B/01_redfox.jpg,html/resources/sequences_IDs/A/06_scarf.jpg,1,6,1,1,3,2,1,5,0,26,,,,,,,,,,,,,,,,,,,,
,,,,,26,2020-07-03_13h13.22.109,retriever_ti,2020.1.3,Win32,60,Chrome,1366,768,,,,,,,,,,,,,,,,,1,,,,,,,,,,,,,,,,,,,,,,,,,,,475.315925,66,right,1.84969,satellite_dish,4,10,-1,0,0,475.33357,475.33357,477.832285,0,65,65,65,1,66,5,4,sport_tshirt,satellite_dish,html/resources/sequences_IDs/B/07_sport_tshirt.jpg,html/resources/sequences_IDs/A/10_satellite_dish.jpg,7,10,3,2,4,2,6,8,0,26,,,,,,,,,,,,,,,,,,,,
,,,,,26,2020-07-03_13h13.22.109,retriever_ti,2020.1.3,Win32,60,Chrome,1366,768,,,,,,,,,,,,,,,,,1,,,,,,,,,,,,,,,,,,,,,,,,,,,478.93431,67,left,0.88914,satellite_dish,4,10,-4,0,3,478.951315,478.951315,481.44838,0,66,66,66,1,67,4,8,satellite_dish,camel         ,html/resources/sequences_IDs/A/10_satellite_dish.jpg,html/resources/sequences_IDs/A/03_camel.jpg,10,3,4,2,1,1,8,2,0,26,,,,,,,,,,,,,,,,,,,,
,,,,,26,2020-07-03_13h13.22.109,retriever_ti,2020.1.3,Win32,60,Chrome,1366,768,,,,,,,,,,,,,,,,,1,,,,,,,,,,,,,,,,,,,,,,,,,,,482.04992,68,left,0.651435,scarf         ,2,6,-1,0,1,482.084925,482.084925,484.58262,0,67,67,67,1,68,2,3,scarf         ,redfox      ,html/resources/sequences_IDs/A/06_scarf.jpg,html/resources/sequences_IDs/B/01_redfox.jpg,6,1,3,2,1,1,5,1,1,26,,,,,,,,,,,,,,,,,,,,
,,,,,26,2020-07-03_13h13.22.109,retriever_ti,2020.1.3,Win32,60,Chrome,1366,768,,,,,,,,,,,,,,,,,1,,,,,,,,,,,,,,,,,,,,,,,,,,,485.682705,69,right,0.948605,scarf         ,2,6,-1,0,0,485.716305,485.716305,488.21554,0,68,68,68,1,69,3,2,redfox      ,scarf         ,html/resources/sequences_IDs/B/01_redfox.jpg,html/resources/sequences_IDs/A/06_scarf.jpg,1,6,1,1,3,2,1,5,0,26,,,,,,,,,,,,,,,,,,,,
,,,,,26,2020-07-03_13h13.22.109,retriever_ti,2020.1.3,Win32,60,Chrome,1366,768,,,,,,,,,,,,,,,,,1,,,,,,,,,,,,,,,,,,,,,,,,,,,489.316365,70,left,1.69233,camel         ,8,3,5,1,3,489.33315,489.33315,491.83301,0,69,69,69,1,70,8,3,camel         ,redfox      ,html/resources/sequences_IDs/A/03_camel.jpg,html/resources/sequences_IDs/B/01_redfox.jpg,3,1,1,1,1,1,2,1,0,26,,,,,,,,,,,,,,,,,,,,
,,,,,26,2020-07-03_13h13.22.109,retriever_ti,2020.1.3,Win32,60,Chrome,1366,768,,,,,,,,,,,,,,,,,1,,,,,,,,,,,,,,,,,,,,,,,,,,,492.450455,71,right,1.048525,sport_tshirt,5,7,1,1,1,492.46747,492.46747,494.96557,0,70,70,70,1,71,4,5,satellite_dish,sport_tshirt,html/resources/sequences_IDs/A/10_satellite_dish.jpg,html/resources/sequences_IDs/B/07_sport_tshirt.jpg,10,7,4,2,3,2,8,6,0,26,,,,,,,,,,,,,,,,,,,,
,,,,,26,2020-07-03_13h13.22.109,retriever_ti,2020.1.3,Win32,60,Chrome,1366,768,,,,,,,,,,,,,,,,,1,,,,,,,,,,,,,,,,,,,,,,,,,,,496.067315,72,right,1.038065,phone       ,7,9,1,1,1,496.083865,496.083865,498.582525,0,71,71,71,1,72,6,7,clownfish     ,phone       ,html/resources/sequences_IDs/A/04_clownfish.jpg,html/resources/sequences_IDs/B/09_phone.jpg,4,9,2,1,4,2,3,7,0,26,,,,,,,,,,,,,,,,,,,,
,,,,,26,2020-07-03_13h13.22.109,retriever_ti,2020.1.3,Win32,60,Chrome,1366,768,,,,,,,,,,,,,,,,,1,,,,,,,,,,,,,,,,,,,,,,,,,,,499.683535,73,left,0.936745,camel         ,8,3,6,1,3,499.71798,499.71798,502.216225,0,72,72,72,1,73,8,2,camel         ,scarf         ,html/resources/sequences_IDs/A/03_camel.jpg,html/resources/sequences_IDs/A/06_scarf.jpg,3,6,1,1,3,2,2,5,0,26,,,,,,,,,,,,,,,,,,,,
,,,,,26,2020-07-03_13h13.22.109,retriever_ti,2020.1.3,Win32,60,Chrome,1366,768,,,,,,,,,,,,,,,,,1,,,,,,,,,,,,,,,,,,,,,,,,,,,502.83377,74,right,1.039255,clownfish     ,6,4,4,1,3,502.868465,502.868465,505.36601,0,73,73,73,1,74,2,6,scarf         ,clownfish     ,html/resources/sequences_IDs/A/06_scarf.jpg,html/resources/sequences_IDs/A/04_clownfish.jpg,6,4,3,2,2,1,5,3,0,26,,,,,,,,,,,,,,,,,,,,
,,,,,26,2020-07-03_13h13.22.109,retriever_ti,2020.1.3,Win32,60,Chrome,1366,768,,,,,,,,,,,,,,,,,1,,,,,,,,,,,,,,,,,,,,,,,,,,,505.96915,75,left,0.720305,phone       ,7,9,1,1,0,506.003505,506.003505,508.49935,0,74,74,74,1,75,7,6,phone       ,clownfish     ,html/resources/sequences_IDs/B/09_phone.jpg,html/resources/sequences_IDs/A/04_clownfish.jpg,9,4,4,2,2,1,7,3,1,26,,,,,,,,,,,,,,,,,,,,
,,,,,26,2020-07-03_13h13.22.109,retriever_ti,2020.1.3,Win32,60,Chrome,1366,768,,,,,,,,,,,,,,,,,1,,,,,,,,,,,,,,,,,,,,,,,,,,,509.601155,76,left,0.683015,camel         ,8,3,1,1,1,509.61973,509.61973,512.116355,0,75,75,75,1,76,8,7,camel         ,phone       ,html/resources/sequences_IDs/A/03_camel.jpg,html/resources/sequences_IDs/B/09_phone.jpg,3,9,1,1,4,2,2,7,0,26,,,,,,,,,,,,,,,,,,,,
,,,,,26,2020-07-03_13h13.22.109,retriever_ti,2020.1.3,Win32,60,Chrome,1366,768,,,,,,,,,,,,,,,,,1,,,,,,,,,,,,,,,,,,,,,,,,,,,513.21812,77,right,0.577405,sport_tshirt,5,7,1,1,0,513.23499,513.23499,515.73293,0,76,76,76,1,77,4,5,satellite_dish,sport_tshirt,html/resources/sequences_IDs/A/10_satellite_dish.jpg,html/resources/sequences_IDs/B/07_sport_tshirt.jpg,10,7,4,2,3,2,8,6,1,26,,,,,,,,,,,,,,,,,,,,
,,,,,26,2020-07-03_13h13.22.109,retriever_ti,2020.1.3,Win32,60,Chrome,1366,768,,,,,,,,,,,,,,,,,,,,,,,,,,,,,,,,,,,,,0,2.057545,,,,,,,,,,,,,,,,,,,,,,,,,,,,,,,,,,,,,,,,,0,0,0,0,1,,,,,,,,,,,,,,,
,,,,,26,2020-07-03_13h13.22.109,retriever_ti,2020.1.3,Win32,60,Chrome,1366,768,,,,,,,,,,,,,,,,,2,,,,,,,,,,,,,,,,,,,,,,,,,,,528.027925,78,left,0.437775,parrot      ,1,5,-6,0,3,528.06774,528.06774,530.5669,0,0,0,0,1,78,1,7,parrot      ,phone       ,html/resources/sequences_IDs/B/05_parrot.jpg,html/resources/sequences_IDs/B/09_phone.jpg,5,9,2,1,4,2,4,7,0,26,,,,,,,,,,,,,,,,,,,,
,,,,,26,2020-07-03_13h13.22.109,retriever_ti,2020.1.3,Win32,60,Chrome,1366,768,,,,,,,,,,,,,,,,,2,,,,,,,,,,,,,,,,,,,,,,,,,,,531.18439,79,left,0.811385,phone       ,7,9,3,1,3,531.20104,531.20104,533.699985,0,1,1,1,1,79,7,4,phone       ,satellite_dish,html/resources/sequences_IDs/B/09_phone.jpg,html/resources/sequences_IDs/A/10_satellite_dish.jpg,9,10,4,2,4,2,7,8,0,26,,,,,,,,,,,,,,,,,,,,
,,,,,26,2020-07-03_13h13.22.109,retriever_ti,2020.1.3,Win32,60,Chrome,1366,768,,,,,,,,,,,,,,,,,2,,,,,,,,,,,,,,,,,,,,,,,,,,,534.301155,80,right,0.982745,parrot      ,1,5,-2,0,3,534.335075,534.335075,536.83364,0,2,2,2,1,80,3,1,redfox      ,parrot      ,html/resources/sequences_IDs/B/01_redfox.jpg,html/resources/sequences_IDs/B/05_parrot.jpg,1,5,1,1,2,1,1,4,0,26,,,,,,,,,,,,,,,,,,,,
,,,,,26,2020-07-03_13h13.22.109,retriever_ti,2020.1.3,Win32,60,Chrome,1366,768,,,,,,,,,,,,,,,,,2,,,,,,,,,,,,,,,,,,,,,,,,,,,537.45109,81,left,0.91376,phone       ,7,9,5,1,3,537.468015,537.468015,539.967315,0,3,3,3,1,81,7,2,phone       ,scarf         ,html/resources/sequences_IDs/B/09_phone.jpg,html/resources/sequences_IDs/A/06_scarf.jpg,9,6,4,2,3,2,7,5,0,26,,,,,,,,,,,,,,,,,,,,
,,,,,26,2020-07-03_13h13.22.109,retriever_ti,2020.1.3,Win32,60,Chrome,1366,768,,,,,,,,,,,,,,,,,2,,,,,,,,,,,,,,,,,,,,,,,,,,,540.58593,82,left,1.22513,scarf         ,2,6,-3,0,3,540.619515,540.619515,543.117145,0,4,4,4,1,82,2,5,scarf         ,sport_tshirt,html/resources/sequences_IDs/A/06_scarf.jpg,html/resources/sequences_IDs/B/07_sport_tshirt.jpg,6,7,3,2,3,2,5,6,0,26,,,,,,,,,,,,,,,,,,,,
,,,,,26,2020-07-03_13h13.22.109,retriever_ti,2020.1.3,Win32,60,Chrome,1366,768,,,,,,,,,,,,,,,,,2,,,,,,,,,,,,,,,,,,,,,,,,,,,543.73567,83,left,1.13673,satellite_dish,4,10,2,1,3,543.75258,543.75258,546.25037,0,5,5,5,1,83,4,2,satellite_dish,scarf         ,html/resources/sequences_IDs/A/10_satellite_dish.jpg,html/resources/sequences_IDs/A/06_scarf.jpg,10,6,4,2,3,2,8,5,0,26,,,,,,,,,,,,,,,,,,,,
,,,,,26,2020-07-03_13h13.22.109,retriever_ti,2020.1.3,Win32,60,Chrome,1366,768,,,,,,,,,,,,,,,,,2,,,,,,,,,,,,,,,,,,,,,,,,,,,546.852105,84,left,1.21016,phone       ,7,9,4,1,3,546.870645,546.870645,549.3672,0,6,6,6,1,84,7,3,phone       ,redfox      ,html/resources/sequences_IDs/B/09_phone.jpg,html/resources/sequences_IDs/B/01_redfox.jpg,9,1,4,2,1,1,7,1,0,26,,,,,,,,,,,,,,,,,,,,
,,,,,26,2020-07-03_13h13.22.109,retriever_ti,2020.1.3,Win32,60,Chrome,1366,768,,,,,,,,,,,,,,,,,2,,,,,,,,,,,,,,,,,,,,,,,,,,,549.970375,85,right,1.027805,camel         ,8,3,6,1,3,550.004245,550.004245,552.500865,0,7,7,7,1,85,2,8,scarf         ,camel         ,html/resources/sequences_IDs/A/06_scarf.jpg,html/resources/sequences_IDs/A/03_camel.jpg,6,3,3,2,1,1,5,2,0,26,,,,,,,,,,,,,,,,,,,,
,,,,,26,2020-07-03_13h13.22.109,retriever_ti,2020.1.3,Win32,60,Chrome,1366,768,,,,,,,,,,,,,,,,,2,,,,,,,,,,,,,,,,,,,,,,,,,,,553.11852,86,left,1.176105,clownfish     ,6,4,-1,0,1,553.136835,553.136835,555.633915,0,8,8,8,1,86,6,7,clownfish     ,phone       ,html/resources/sequences_IDs/A/04_clownfish.jpg,html/resources/sequences_IDs/B/09_phone.jpg,4,9,2,1,4,2,3,7,1,26,,,,,,,,,,,,,,,,,,,,
,,,,,26,2020-07-03_13h13.22.109,retriever_ti,2020.1.3,Win32,60,Chrome,1366,768,,,,,,,,,,,,,,,,,2,,,,,,,,,,,,,,,,,,,,,,,,,,,556.735575,87,left,0.954725,camel         ,8,3,1,1,1,556.769145,556.769145,559.26773,0,9,9,9,1,87,8,7,camel         ,phone       ,html/resources/sequences_IDs/A/03_camel.jpg,html/resources/sequences_IDs/B/09_phone.jpg,3,9,1,1,4,2,2,7,0,26,,,,,,,,,,,,,,,,,,,,
,,,,,26,2020-07-03_13h13.22.109,retriever_ti,2020.1.3,Win32,60,Chrome,1366,768,,,,,,,,,,,,,,,,,2,,,,,,,,,,,,,,,,,,,,,,,,,,,560.36839,88,left,1.213715,parrot      ,1,5,-5,0,3,560.40284,560.40284,562.90095,0,10,10,10,1,88,1,6,parrot      ,clownfish     ,html/resources/sequences_IDs/B/05_parrot.jpg,html/resources/sequences_IDs/A/04_clownfish.jpg,5,4,2,1,2,1,4,3,0,26,,,,,,,,,,,,,,,,,,,,
,,,,,26,2020-07-03_13h13.22.109,retriever_ti,2020.1.3,Win32,60,Chrome,1366,768,,,,,,,,,,,,,,,,,2,,,,,,,,,,,,,,,,,,,,,,,,,,,563.519535,89,left,0.828475,redfox      ,3,1,-1,0,0,563.536495,563.536495,566.03425,0,11,11,11,1,89,3,4,redfox      ,satellite_dish,html/resources/sequences_IDs/B/01_redfox.jpg,html/resources/sequences_IDs/A/10_satellite_dish.jpg,1,10,1,1,4,2,1,8,0,26,,,,,,,,,,,,,,,,,,,,
,,,,,26,2020-07-03_13h13.22.109,retriever_ti,2020.1.3,Win32,60,Chrome,1366,768,,,,,,,,,,,,,,,,,2,,,,,,,,,,,,,,,,,,,,,,,,,,,567.135225,90,right,1.74335,phone       ,7,9,5,1,3,567.16988,567.16988,569.66782,0,12,12,12,1,90,2,7,scarf         ,phone       ,html/resources/sequences_IDs/A/06_scarf.jpg,html/resources/sequences_IDs/B/09_phone.jpg,6,9,3,2,4,2,5,7,0,26,,,,,,,,,,,,,,,,,,,,
,,,,,26,2020-07-03_13h13.22.109,retriever_ti,2020.1.3,Win32,60,Chrome,1366,768,,,,,,,,,,,,,,,,,2,,,,,,,,,,,,,,,,,,,,,,,,,,,570.288505,91,right,1.00926,clownfish     ,6,4,2,1,3,570.3026,570.3026,572.80107,0,13,13,13,1,91,4,6,satellite_dish,clownfish     ,html/resources/sequences_IDs/A/10_satellite_dish.jpg,html/resources/sequences_IDs/A/04_clownfish.jpg,10,4,4,2,2,1,8,3,0,26,,,,,,,,,,,,,,,,,,,,
,,,,,26,2020-07-03_13h13.22.109,retriever_ti,2020.1.3,Win32,60,Chrome,1366,768,,,,,,,,,,,,,,,,,2,,,,,,,,,,,,,,,,,,,,,,,,,,,573.419855,92,right,1.258685,scarf         ,2,6,-3,0,3,573.437895,573.437895,575.93448,0,14,14,14,1,92,5,2,sport_tshirt,scarf         ,html/resources/sequences_IDs/B/07_sport_tshirt.jpg,html/resources/sequences_IDs/A/06_scarf.jpg,7,6,3,2,3,2,6,5,0,26,,,,,,,,,,,,,,,,,,,,
,,,,,26,2020-07-03_13h13.22.109,retriever_ti,2020.1.3,Win32,60,Chrome,1366,768,,,,,,,,,,,,,,,,,2,,,,,,,,,,,,,,,,,,,,,,,,,,,576.53716,93,left,1.01785,satellite_dish,4,10,1,1,1,576.571585,576.571585,579.068235,0,15,15,15,1,93,4,3,satellite_dish,redfox      ,html/resources/sequences_IDs/A/10_satellite_dish.jpg,html/resources/sequences_IDs/B/01_redfox.jpg,10,1,4,2,1,1,8,1,0,26,,,,,,,,,,,,,,,,,,,,
,,,,,26,2020-07-03_13h13.22.109,retriever_ti,2020.1.3,Win32,60,Chrome,1366,768,,,,,,,,,,,,,,,,,2,,,,,,,,,,,,,,,,,,,,,,,,,,,580.169455,94,right,1.902145,satellite_dish,4,10,2,1,3,580.20253,580.20253,582.70135,0,16,16,16,1,94,2,4,scarf         ,satellite_dish,html/resources/sequences_IDs/A/06_scarf.jpg,html/resources/sequences_IDs/A/10_satellite_dish.jpg,6,10,3,2,4,2,5,8,0,26,,,,,,,,,,,,,,,,,,,,
,,,,,26,2020-07-03_13h13.22.109,retriever_ti,2020.1.3,Win32,60,Chrome,1366,768,,,,,,,,,,,,,,,,,2,,,,,,,,,,,,,,,,,,,,,,,,,,,583.30367,95,right,1.613885,parrot      ,1,5,-6,0,3,583.31983,583.31983,585.818415,0,17,17,17,1,95,7,1,phone       ,parrot      ,html/resources/sequences_IDs/B/09_phone.jpg,html/resources/sequences_IDs/B/05_parrot.jpg,9,5,4,2,2,1,7,4,0,26,,,,,,,,,,,,,,,,,,,,
,,,,,26,2020-07-03_13h13.22.109,retriever_ti,2020.1.3,Win32,60,Chrome,1366,768,,,,,,,,,,,,,,,,,2,,,,,,,,,,,,,,,,,,,,,,,,,,,586.43528,96,left,1.164145,satellite_dish,4,10,3,1,3,586.453745,586.453745,588.9515,0,18,18,18,1,96,4,1,satellite_dish,parrot      ,html/resources/sequences_IDs/A/10_satellite_dish.jpg,html/resources/sequences_IDs/B/05_parrot.jpg,10,5,4,2,2,1,8,4,0,26,,,,,,,,,,,,,,,,,,,,
,,,,,26,2020-07-03_13h13.22.109,retriever_ti,2020.1.3,Win32,60,Chrome,1366,768,,,,,,,,,,,,,,,,,2,,,,,,,,,,,,,,,,,,,,,,,,,,,589.553285,97,left,1.249675,clownfish     ,6,4,1,1,1,589.586805,589.586805,592.085035,0,19,19,19,1,97,6,5,clownfish     ,sport_tshirt,html/resources/sequences_IDs/A/04_clownfish.jpg,html/resources/sequences_IDs/B/07_sport_tshirt.jpg,4,7,2,1,3,2,3,6,0,26,,,,,,,,,,,,,,,,,,,,
,,,,,26,2020-07-03_13h13.22.109,retriever_ti,2020.1.3,Win32,60,Chrome,1366,768,,,,,,,,,,,,,,,,,2,,,,,,,,,,,,,,,,,,,,,,,,,,,593.185815,98,left,1.09504,camel         ,8,3,2,1,3,593.20336,593.20336,595.70167,0,20,20,20,1,98,8,6,camel         ,clownfish     ,html/resources/sequences_IDs/A/03_camel.jpg,html/resources/sequences_IDs/A/04_clownfish.jpg,3,4,1,1,2,1,2,3,0,26,,,,,,,,,,,,,,,,,,,,
,,,,,26,2020-07-03_13h13.22.109,retriever_ti,2020.1.3,Win32,60,Chrome,1366,768,,,,,,,,,,,,,,,,,2,,,,,,,,,,,,,,,,,,,,,,,,,,,596.319295,99,right,1.34176,redfox      ,3,1,1,1,1,596.335925,596.335925,598.835075,0,21,21,21,1,99,2,3,scarf         ,redfox      ,html/resources/sequences_IDs/A/06_scarf.jpg,html/resources/sequences_IDs/B/01_redfox.jpg,6,1,3,2,1,1,5,1,0,26,,,,,,,,,,,,,,,,,,,,
,,,,,26,2020-07-03_13h13.22.109,retriever_ti,2020.1.3,Win32,60,Chrome,1366,768,,,,,,,,,,,,,,,,,2,,,,,,,,,,,,,,,,,,,,,,,,,,,599.935735,100,left,1.738165,sport_tshirt,5,7,1,1,0,599.970375,599.970375,602.468785,0,22,22,22,1,100,5,4,sport_tshirt,satellite_dish,html/resources/sequences_IDs/B/07_sport_tshirt.jpg,html/resources/sequences_IDs/A/10_satellite_dish.jpg,7,10,3,2,4,2,6,8,1,26,,,,,,,,,,,,,,,,,,,,
,,,,,26,2020-07-03_13h13.22.109,retriever_ti,2020.1.3,Win32,60,Chrome,1366,768,,,,,,,,,,,,,,,,,2,,,,,,,,,,,,,,,,,,,,,,,,,,,603.57046,101,right,1.45443,satellite_dish,4,10,1,1,1,603.58734,603.58734,606.085325,0,23,23,23,1,101,3,4,redfox      ,satellite_dish,html/resources/sequences_IDs/B/01_redfox.jpg,html/resources/sequences_IDs/A/10_satellite_dish.jpg,1,10,1,1,4,2,1,8,0,26,,,,,,,,,,,,,,,,,,,,
,,,,,26,2020-07-03_13h13.22.109,retriever_ti,2020.1.3,Win32,60,Chrome,1366,768,,,,,,,,,,,,,,,,,2,,,,,,,,,,,,,,,,,,,,,,,,,,,607.185575,102,right,1.19138,clownfish     ,6,4,3,1,3,607.219585,607.219585,609.718685,0,24,24,24,1,102,3,6,redfox      ,clownfish     ,html/resources/sequences_IDs/B/01_redfox.jpg,html/resources/sequences_IDs/A/04_clownfish.jpg,1,4,1,1,2,1,1,3,0,26,,,,,,,,,,,,,,,,,,,,
,,,,,26,2020-07-03_13h13.22.109,retriever_ti,2020.1.3,Win32,60,Chrome,1366,768,,,,,,,,,,,,,,,,,2,,,,,,,,,,,,,,,,,,,,,,,,,,,610.33692,103,left,1.612345,parrot      ,1,5,-1,0,0,610.35386,610.35386,612.852305,0,25,25,25,1,103,1,2,parrot      ,scarf         ,html/resources/sequences_IDs/B/05_parrot.jpg,html/resources/sequences_IDs/A/06_scarf.jpg,5,6,2,1,3,2,4,5,0,26,,,,,,,,,,,,,,,,,,,,
,,,,,26,2020-07-03_13h13.22.109,retriever_ti,2020.1.3,Win32,60,Chrome,1366,768,,,,,,,,,,,,,,,,,2,,,,,,,,,,,,,,,,,,,,,,,,,,,613.952565,104,right,1.449625,camel         ,8,3,1,1,1,613.986715,613.986715,616.485555,0,26,26,26,1,104,7,8,phone       ,camel         ,html/resources/sequences_IDs/B/09_phone.jpg,html/resources/sequences_IDs/A/03_camel.jpg,9,3,4,2,1,1,7,2,0,26,,,,,,,,,,,,,,,,,,,,
,,,,,26,2020-07-03_13h13.22.109,retriever_ti,2020.1.3,Win32,60,Chrome,1366,768,,,,,,,,,,,,,,,,,2,,,,,,,,,,,,,,,,,,,,,,,,,,,617.586205,105,left,1.64582,satellite_dish,4,10,-3,0,3,617.619795,617.619795,620.119375,0,27,27,27,1,105,4,7,satellite_dish,phone       ,html/resources/sequences_IDs/A/10_satellite_dish.jpg,html/resources/sequences_IDs/B/09_phone.jpg,10,9,4,2,4,2,8,7,0,26,,,,,,,,,,,,,,,,,,,,
,,,,,26,2020-07-03_13h13.22.109,retriever_ti,2020.1.3,Win32,60,Chrome,1366,768,,,,,,,,,,,,,,,,,2,,,,,,,,,,,,,,,,,,,,,,,,,,,620.72181,106,left,1.132995,satellite_dish,4,10,1,1,1,620.74013,620.74013,623.235585,0,28,28,28,1,106,4,3,satellite_dish,redfox      ,html/resources/sequences_IDs/A/10_satellite_dish.jpg,html/resources/sequences_IDs/B/01_redfox.jpg,10,1,4,2,1,1,8,1,0,26,,,,,,,,,,,,,,,,,,,,
,,,,,26,2020-07-03_13h13.22.109,retriever_ti,2020.1.3,Win32,60,Chrome,1366,768,,,,,,,,,,,,,,,,,2,,,,,,,,,,,,,,,,,,,,,,,,,,,624.338145,107,right,1.19932,camel         ,8,3,5,1,3,624.35598,624.35598,626.852545,0,29,29,29,1,107,3,8,redfox      ,camel         ,html/resources/sequences_IDs/B/01_redfox.jpg,html/resources/sequences_IDs/A/03_camel.jpg,1,3,1,1,1,1,1,2,0,26,,,,,,,,,,,,,,,,,,,,
,,,,,26,2020-07-03_13h13.22.109,retriever_ti,2020.1.3,Win32,60,Chrome,1366,768,,,,,,,,,,,,,,,,,2,,,,,,,,,,,,,,,,,,,,,,,,,,,627.469935,108,left,0.82995,clownfish     ,6,4,3,1,3,627.48801,627.48801,629.986295,0,30,30,30,1,108,6,3,clownfish     ,redfox      ,html/resources/sequences_IDs/A/04_clownfish.jpg,html/resources/sequences_IDs/B/01_redfox.jpg,4,1,2,1,1,1,3,1,0,26,,,,,,,,,,,,,,,,,,,,
,,,,,26,2020-07-03_13h13.22.109,retriever_ti,2020.1.3,Win32,60,Chrome,1366,768,,,,,,,,,,,,,,,,,2,,,,,,,,,,,,,,,,,,,,,,,,,,,630.60577,109,right,1.466855,clownfish     ,6,4,1,1,1,630.62278,630.62278,633.119615,0,31,31,31,1,109,5,6,sport_tshirt,clownfish     ,html/resources/sequences_IDs/B/07_sport_tshirt.jpg,html/resources/sequences_IDs/A/04_clownfish.jpg,7,4,3,2,2,1,6,3,0,26,,,,,,,,,,,,,,,,,,,,
,,,,,26,2020-07-03_13h13.22.109,retriever_ti,2020.1.3,Win32,60,Chrome,1366,768,,,,,,,,,,,,,,,,,2,,,,,,,,,,,,,,,,,,,,,,,,,,,634.219835,110,right,1.307765,phone       ,7,9,-1,0,0,634.254715,634.254715,636.752615,0,32,32,32,1,110,8,7,camel         ,phone       ,html/resources/sequences_IDs/A/03_camel.jpg,html/resources/sequences_IDs/B/09_phone.jpg,3,9,1,1,4,2,2,7,0,26,,,,,,,,,,,,,,,,,,,,
,,,,,26,2020-07-03_13h13.22.109,retriever_ti,2020.1.3,Win32,60,Chrome,1366,768,,,,,,,,,,,,,,,,,2,,,,,,,,,,,,,,,,,,,,,,,,,,,637.85382,111,left,2.10783,redfox      ,3,1,1,1,1,637.87018,637.87018,640.36968,0,33,33,33,1,111,3,2,redfox      ,scarf         ,html/resources/sequences_IDs/B/01_redfox.jpg,html/resources/sequences_IDs/A/06_scarf.jpg,1,6,1,1,3,2,1,5,0,26,,,,,,,,,,,,,,,,,,,,
,,,,,26,2020-07-03_13h13.22.109,retriever_ti,2020.1.3,Win32,60,Chrome,1366,768,,,,,,,,,,,,,,,,,2,,,,,,,,,,,,,,,,,,,,,,,,,,,641.47037,112,left,1.37223,scarf         ,2,6,1,1,1,641.50531,641.50531,644.0029,0,34,34,34,1,112,2,1,scarf         ,parrot      ,html/resources/sequences_IDs/A/06_scarf.jpg,html/resources/sequences_IDs/B/05_parrot.jpg,6,5,3,2,2,1,5,4,0,26,,,,,,,,,,,,,,,,,,,,
,,,,,26,2020-07-03_13h13.22.109,retriever_ti,2020.1.3,Win32,60,Chrome,1366,768,,,,,,,,,,,,,,,,,2,,,,,,,,,,,,,,,,,,,,,,,,,,,645.104465,113,left,1.320835,redfox      ,3,1,-2,0,3,645.138055,645.138055,647.63661,0,35,35,35,1,113,3,5,redfox      ,sport_tshirt,html/resources/sequences_IDs/B/01_redfox.jpg,html/resources/sequences_IDs/B/07_sport_tshirt.jpg,1,7,1,1,3,2,1,6,0,26,,,,,,,,,,,,,,,,,,,,
,,,,,26,2020-07-03_13h13.22.109,retriever_ti,2020.1.3,Win32,60,Chrome,1366,768,,,,,,,,,,,,,,,,,2,,,,,,,,,,,,,,,,,,,,,,,,,,,648.25413,114,left,1.0864,scarf         ,2,6,1,1,1,648.27188,648.27188,650.77019,0,36,36,36,1,114,2,1,scarf         ,parrot      ,html/resources/sequences_IDs/A/06_scarf.jpg,html/resources/sequences_IDs/B/05_parrot.jpg,6,5,3,2,2,1,5,4,0,26,,,,,,,,,,,,,,,,,,,,
,,,,,26,2020-07-03_13h13.22.109,retriever_ti,2020.1.3,Win32,60,Chrome,1366,768,,,,,,,,,,,,,,,,,2,,,,,,,,,,,,,,,,,,,,,,,,,,,651.87107,115,right,1.09979,camel         ,8,3,2,1,3,651.88797,651.88797,654.386795,0,37,37,37,1,115,6,8,clownfish     ,camel         ,html/resources/sequences_IDs/A/04_clownfish.jpg,html/resources/sequences_IDs/A/03_camel.jpg,4,3,2,1,1,1,3,2,0,26,,,,,,,,,,,,,,,,,,,,
,,,,,26,2020-07-03_13h13.22.109,retriever_ti,2020.1.3,Win32,60,Chrome,1366,768,,,,,,,,,,,,,,,,,2,,,,,,,,,,,,,,,,,,,,,,,,,,,655.00371,116,left,1.538495,redfox      ,3,1,-1,0,1,655.03771,655.03771,657.53685,0,38,38,38,1,116,3,4,redfox      ,satellite_dish,html/resources/sequences_IDs/B/01_redfox.jpg,html/resources/sequences_IDs/A/10_satellite_dish.jpg,1,10,1,1,4,2,1,8,1,26,,,,,,,,,,,,,,,,,,,,
,,,,,26,2020-07-03_13h13.22.109,retriever_ti,2020.1.3,Win32,60,Chrome,1366,768,,,,,,,,,,,,,,,,,2,,,,,,,,,,,,,,,,,,,,,,,,,,,658.638185,117,left,1.07081,camel         ,8,3,3,1,3,658.655355,658.655355,661.15667,0,39,39,39,1,117,8,5,camel         ,sport_tshirt,html/resources/sequences_IDs/A/03_camel.jpg,html/resources/sequences_IDs/B/07_sport_tshirt.jpg,3,7,1,1,3,2,2,6,0,26,,,,,,,,,,,,,,,,,,,,
,,,,,26,2020-07-03_13h13.22.109,retriever_ti,2020.1.3,Win32,60,Chrome,1366,768,,,,,,,,,,,,,,,,,2,,,,,,,,,,,,,,,,,,,,,,,,,,,661.771395,118,left,0.643605,parrot      ,1,5,-3,0,3,661.78903,661.78903,664.286815,0,40,40,40,1,118,1,4,parrot      ,satellite_dish,html/resources/sequences_IDs/B/05_parrot.jpg,html/resources/sequences_IDs/A/10_satellite_dish.jpg,5,10,2,1,4,2,4,8,0,26,,,,,,,,,,,,,,,,,,,,
,,,,,26,2020-07-03_13h13.22.109,retriever_ti,2020.1.3,Win32,60,Chrome,1366,768,,,,,,,,,,,,,,,,,2,,,,,,,,,,,,,,,,,,,,,,,,,,,664.905545,119,right,0.72569,scarf         ,2,6,1,1,0,664.938995,664.938995,667.43689,0,41,41,41,1,119,1,2,parrot      ,scarf         ,html/resources/sequences_IDs/B/05_parrot.jpg,html/resources/sequences_IDs/A/06_scarf.jpg,5,6,2,1,3,2,4,5,1,26,,,,,,,,,,,,,,,,,,,,
,,,,,26,2020-07-03_13h13.22.109,retriever_ti,2020.1.3,Win32,60,Chrome,1366,768,,,,,,,,,,,,,,,,,2,,,,,,,,,,,,,,,,,,,,,,,,,,,668.537315,120,right,1.767505,parrot      ,1,5,-4,0,3,668.55497,668.55497,671.05346,0,42,42,42,1,120,5,1,sport_tshirt,parrot      ,html/resources/sequences_IDs/B/07_sport_tshirt.jpg,html/resources/sequences_IDs/B/05_parrot.jpg,7,5,3,2,2,1,6,4,0,26,,,,,,,,,,,,,,,,,,,,
,,,,,26,2020-07-03_13h13.22.109,retriever_ti,2020.1.3,Win32,60,Chrome,1366,768,,,,,,,,,,,,,,,,,2,,,,,,,,,,,,,,,,,,,,,,,,,,,671.65648,121,right,1.184305,satellite_dish,4,10,-1,0,0,671.68984,671.68984,674.18759,0,43,43,43,1,121,5,4,sport_tshirt,satellite_dish,html/resources/sequences_IDs/B/07_sport_tshirt.jpg,html/resources/sequences_IDs/A/10_satellite_dish.jpg,7,10,3,2,4,2,6,8,0,26,,,,,,,,,,,,,,,,,,,,
,,,,,26,2020-07-03_13h13.22.109,retriever_ti,2020.1.3,Win32,60,Chrome,1366,768,,,,,,,,,,,,,,,,,2,,,,,,,,,,,,,,,,,,,,,,,,,,,675.287315,122,left,1.16514,camel         ,8,3,5,1,3,675.32131,675.32131,677.821215,0,44,44,44,1,122,8,3,camel         ,redfox      ,html/resources/sequences_IDs/A/03_camel.jpg,html/resources/sequences_IDs/B/01_redfox.jpg,3,1,1,1,1,1,2,1,0,26,,,,,,,,,,,,,,,,,,,,
,,,,,26,2020-07-03_13h13.22.109,retriever_ti,2020.1.3,Win32,60,Chrome,1366,768,,,,,,,,,,,,,,,,,2,,,,,,,,,,,,,,,,,,,,,,,,,,,678.44043,123,left,1.16941,clownfish     ,6,4,4,1,3,678.45763,678.45763,680.953975,0,45,45,45,1,123,6,2,clownfish     ,scarf         ,html/resources/sequences_IDs/A/04_clownfish.jpg,html/resources/sequences_IDs/A/06_scarf.jpg,4,6,2,1,3,2,3,5,0,26,,,,,,,,,,,,,,,,,,,,
,,,,,26,2020-07-03_13h13.22.109,retriever_ti,2020.1.3,Win32,60,Chrome,1366,768,,,,,,,,,,,,,,,,,2,,,,,,,,,,,,,,,,,,,,,,,,,,,681.55582,124,right,1.610845,parrot      ,1,5,-5,0,3,681.574345,681.574345,684.07063,0,46,46,46,1,124,6,1,clownfish     ,parrot      ,html/resources/sequences_IDs/A/04_clownfish.jpg,html/resources/sequences_IDs/B/05_parrot.jpg,4,5,2,1,2,1,3,4,0,26,,,,,,,,,,,,,,,,,,,,
,,,,,26,2020-07-03_13h13.22.109,retriever_ti,2020.1.3,Win32,60,Chrome,1366,768,,,,,,,,,,,,,,,,,2,,,,,,,,,,,,,,,,,,,,,,,,,,,684.67382,125,left,1.344395,camel         ,8,3,1,1,0,684.690975,684.690975,687.187555,0,47,47,47,1,125,8,7,camel         ,phone       ,html/resources/sequences_IDs/A/03_camel.jpg,html/resources/sequences_IDs/B/09_phone.jpg,3,9,1,1,4,2,2,7,1,26,,,,,,,,,,,,,,,,,,,,
,,,,,26,2020-07-03_13h13.22.109,retriever_ti,2020.1.3,Win32,60,Chrome,1366,768,,,,,,,,,,,,,,,,,2,,,,,,,,,,,,,,,,,,,,,,,,,,,688.288105,126,right,1.39737,scarf         ,2,6,-1,0,0,688.30602,688.30602,690.80422,0,48,48,48,1,126,3,2,redfox      ,scarf         ,html/resources/sequences_IDs/B/01_redfox.jpg,html/resources/sequences_IDs/A/06_scarf.jpg,1,6,1,1,3,2,1,5,0,26,,,,,,,,,,,,,,,,,,,,
,,,,,26,2020-07-03_13h13.22.109,retriever_ti,2020.1.3,Win32,60,Chrome,1366,768,,,,,,,,,,,,,,,,,2,,,,,,,,,,,,,,,,,,,,,,,,,,,691.90671,127,left,1.58972,phone       ,7,9,1,1,1,691.94029,691.94029,694.43794,0,49,49,49,1,127,7,6,phone       ,clownfish     ,html/resources/sequences_IDs/B/09_phone.jpg,html/resources/sequences_IDs/A/04_clownfish.jpg,9,4,4,2,2,1,7,3,0,26,,,,,,,,,,,,,,,,,,,,
,,,,,26,2020-07-03_13h13.22.109,retriever_ti,2020.1.3,Win32,60,Chrome,1366,768,,,,,,,,,,,,,,,,,2,,,,,,,,,,,,,,,,,,,,,,,,,,,695.53823,128,right,1.08732,phone       ,7,9,4,1,3,695.573815,695.573815,698.070855,0,50,50,50,1,128,3,7,redfox      ,phone       ,html/resources/sequences_IDs/B/01_redfox.jpg,html/resources/sequences_IDs/B/09_phone.jpg,1,9,1,1,4,2,1,7,0,26,,,,,,,,,,,,,,,,,,,,
,,,,,26,2020-07-03_13h13.22.109,retriever_ti,2020.1.3,Win32,60,Chrome,1366,768,,,,,,,,,,,,,,,,,2,,,,,,,,,,,,,,,,,,,,,,,,,,,698.673035,129,left,1.11244,parrot      ,1,5,-1,0,0,698.706655,698.706655,701.204515,0,51,51,51,1,129,1,2,parrot      ,scarf         ,html/resources/sequences_IDs/B/05_parrot.jpg,html/resources/sequences_IDs/A/06_scarf.jpg,5,6,2,1,3,2,4,5,0,26,,,,,,,,,,,,,,,,,,,,
,,,,,26,2020-07-03_13h13.22.109,retriever_ti,2020.1.3,Win32,60,Chrome,1366,768,,,,,,,,,,,,,,,,,2,,,,,,,,,,,,,,,,,,,,,,,,,,,702.305715,130,left,1.12243,clownfish     ,6,4,1,1,0,702.32406,702.32406,704.82136,0,52,52,52,1,130,6,5,clownfish     ,sport_tshirt,html/resources/sequences_IDs/A/04_clownfish.jpg,html/resources/sequences_IDs/B/07_sport_tshirt.jpg,4,7,2,1,3,2,3,6,1,26,,,,,,,,,,,,,,,,,,,,
,,,,,26,2020-07-03_13h13.22.109,retriever_ti,2020.1.3,Win32,60,Chrome,1366,768,,,,,,,,,,,,,,,,,2,,,,,,,,,,,,,,,,,,,,,,,,,,,705.922565,131,left,1.07946,parrot      ,1,5,-2,0,3,705.93899,705.93899,708.43785,0,53,53,53,1,131,1,3,parrot      ,redfox      ,html/resources/sequences_IDs/B/05_parrot.jpg,html/resources/sequences_IDs/B/01_redfox.jpg,5,1,2,1,1,1,4,1,0,26,,,,,,,,,,,,,,,,,,,,
,,,,,26,2020-07-03_13h13.22.109,retriever_ti,2020.1.3,Win32,60,Chrome,1366,768,,,,,,,,,,,,,,,,,2,,,,,,,,,,,,,,,,,,,,,,,,,,,709.039085,132,left,1.116445,phone       ,7,9,2,1,3,709.07424,709.07424,711.571685,0,54,54,54,1,132,7,5,phone       ,sport_tshirt,html/resources/sequences_IDs/B/09_phone.jpg,html/resources/sequences_IDs/B/07_sport_tshirt.jpg,9,7,4,2,3,2,7,6,0,26,,,,,,,,,,,,,,,,,,,,
,,,,,26,2020-07-03_13h13.22.109,retriever_ti,2020.1.3,Win32,60,Chrome,1366,768,,,,,,,,,,,,,,,,,2,,,,,,,,,,,,,,,,,,,,,,,,,,,712.18999,133,right,1.68302,camel         ,8,3,1,1,1,712.224165,712.224165,714.72174,0,55,55,55,1,133,7,8,phone       ,camel         ,html/resources/sequences_IDs/B/09_phone.jpg,html/resources/sequences_IDs/A/03_camel.jpg,9,3,4,2,1,1,7,2,0,26,,,,,,,,,,,,,,,,,,,,
,,,,,26,2020-07-03_13h13.22.109,retriever_ti,2020.1.3,Win32,60,Chrome,1366,768,,,,,,,,,,,,,,,,,2,,,,,,,,,,,,,,,,,,,,,,,,,,,715.822175,134,right,1.45907,phone       ,7,9,2,1,3,715.83996,715.83996,718.338615,0,56,56,56,1,134,5,7,sport_tshirt,phone       ,html/resources/sequences_IDs/B/07_sport_tshirt.jpg,html/resources/sequences_IDs/B/09_phone.jpg,7,9,3,2,4,2,6,7,0,26,,,,,,,,,,,,,,,,,,,,
,,,,,26,2020-07-03_13h13.22.109,retriever_ti,2020.1.3,Win32,60,Chrome,1366,768,,,,,,,,,,,,,,,,,2,,,,,,,,,,,,,,,,,,,,,,,,,,,718.955885,135,left,0.95515,satellite_dish,4,10,-1,0,0,718.98946,718.98946,721.488215,0,57,57,57,1,135,4,5,satellite_dish,sport_tshirt,html/resources/sequences_IDs/A/10_satellite_dish.jpg,html/resources/sequences_IDs/B/07_sport_tshirt.jpg,10,7,4,2,3,2,8,6,0,26,,,,,,,,,,,,,,,,,,,,
,,,,,26,2020-07-03_13h13.22.109,retriever_ti,2020.1.3,Win32,60,Chrome,1366,768,,,,,,,,,,,,,,,,,2,,,,,,,,,,,,,,,,,,,,,,,,,,,722.589265,136,left,1.33186,camel         ,8,3,6,1,3,722.606905,722.606905,725.10507,0,58,58,58,1,136,8,2,camel         ,scarf         ,html/resources/sequences_IDs/A/03_camel.jpg,html/resources/sequences_IDs/A/06_scarf.jpg,3,6,1,1,3,2,2,5,0,26,,,,,,,,,,,,,,,,,,,,
,,,,,26,2020-07-03_13h13.22.109,retriever_ti,2020.1.3,Win32,60,Chrome,1366,768,,,,,,,,,,,,,,,,,2,,,,,,,,,,,,,,,,,,,,,,,,,,,725.72374,137,right,1.30054,clownfish     ,6,4,-1,0,0,725.740765,725.740765,728.23899,0,59,59,59,1,137,7,6,phone       ,clownfish     ,html/resources/sequences_IDs/B/09_phone.jpg,html/resources/sequences_IDs/A/04_clownfish.jpg,9,4,4,2,2,1,7,3,0,26,,,,,,,,,,,,,,,,,,,,
,,,,,26,2020-07-03_13h13.22.109,retriever_ti,2020.1.3,Win32,60,Chrome,1366,768,,,,,,,,,,,,,,,,,2,,,,,,,,,,,,,,,,,,,,,,,,,,,729.33946,138,left,0.74308,clownfish     ,6,4,1,1,1,729.373455,729.373455,731.872175,0,60,60,60,1,138,6,5,clownfish     ,sport_tshirt,html/resources/sequences_IDs/A/04_clownfish.jpg,html/resources/sequences_IDs/B/07_sport_tshirt.jpg,4,7,2,1,3,2,3,6,0,26,,,,,,,,,,,,,,,,,,,,
,,,,,26,2020-07-03_13h13.22.109,retriever_ti,2020.1.3,Win32,60,Chrome,1366,768,,,,,,,,,,,,,,,,,2,,,,,,,,,,,,,,,,,,,,,,,,,,,732.975085,139,left,0.661725,camel         ,8,3,7,1,3,733.0065,733.0065,735.5059,0,61,61,61,1,139,8,1,camel         ,parrot      ,html/resources/sequences_IDs/A/03_camel.jpg,html/resources/sequences_IDs/B/05_parrot.jpg,3,5,1,1,2,1,2,4,0,26,,,,,,,,,,,,,,,,,,,,
,,,,,26,2020-07-03_13h13.22.109,retriever_ti,2020.1.3,Win32,60,Chrome,1366,768,,,,,,,,,,,,,,,,,2,,,,,,,,,,,,,,,,,,,,,,,,,,,736.12259,140,left,1.019545,satellite_dish,4,10,-1,0,0,736.14036,736.14036,738.63932,0,62,62,62,1,140,4,5,satellite_dish,sport_tshirt,html/resources/sequences_IDs/A/10_satellite_dish.jpg,html/resources/sequences_IDs/B/07_sport_tshirt.jpg,10,7,4,2,3,2,8,6,0,26,,,,,,,,,,,,,,,,,,,,
,,,,,26,2020-07-03_13h13.22.109,retriever_ti,2020.1.3,Win32,60,Chrome,1366,768,,,,,,,,,,,,,,,,,2,,,,,,,,,,,,,,,,,,,,,,,,,,,739.739865,141,left,0.67003,camel         ,8,3,4,1,3,739.756805,739.756805,742.255835,0,63,63,63,1,141,8,4,camel         ,satellite_dish,html/resources/sequences_IDs/A/03_camel.jpg,html/resources/sequences_IDs/A/10_satellite_dish.jpg,3,10,1,1,4,2,2,8,0,26,,,,,,,,,,,,,,,,,,,,
,,,,,26,2020-07-03_13h13.22.109,retriever_ti,2020.1.3,Win32,60,Chrome,1366,768,,,,,,,,,,,,,,,,,2,,,,,,,,,,,,,,,,,,,,,,,,,,,742.87325,142,left,1.115095,sport_tshirt,5,7,-1,0,0,742.90775,742.90775,745.40565,0,64,64,64,1,142,5,6,sport_tshirt,clownfish     ,html/resources/sequences_IDs/B/07_sport_tshirt.jpg,html/resources/sequences_IDs/A/04_clownfish.jpg,7,4,3,2,2,1,6,3,0,26,,,,,,,,,,,,,,,,,,,,
,,,,,26,2020-07-03_13h13.22.109,retriever_ti,2020.1.3,Win32,60,Chrome,1366,768,,,,,,,,,,,,,,,,,2,,,,,,,,,,,,,,,,,,,,,,,,,,,746.507225,143,right,0.881045,camel         ,8,3,4,1,3,746.540805,746.540805,749.03903,0,65,65,65,1,143,4,8,satellite_dish,camel         ,html/resources/sequences_IDs/A/10_satellite_dish.jpg,html/resources/sequences_IDs/A/03_camel.jpg,10,3,4,2,1,1,8,2,0,26,,,,,,,,,,,,,,,,,,,,
,,,,,26,2020-07-03_13h13.22.109,retriever_ti,2020.1.3,Win32,60,Chrome,1366,768,,,,,,,,,,,,,,,,,2,,,,,,,,,,,,,,,,,,,,,,,,,,,749.640245,144,right,1.207825,camel         ,8,3,3,1,3,749.675195,749.675195,752.173185,0,66,66,66,1,144,5,8,sport_tshirt,camel         ,html/resources/sequences_IDs/B/07_sport_tshirt.jpg,html/resources/sequences_IDs/A/03_camel.jpg,7,3,3,2,1,1,6,2,0,26,,,,,,,,,,,,,,,,,,,,
,,,,,26,2020-07-03_13h13.22.109,retriever_ti,2020.1.3,Win32,60,Chrome,1366,768,,,,,,,,,,,,,,,,,2,,,,,,,,,,,,,,,,,,,,,,,,,,,752.79231,145,left,1.49314,scarf         ,2,6,-1,0,0,752.809315,752.809315,755.30566,0,67,67,67,1,145,2,3,scarf         ,redfox      ,html/resources/sequences_IDs/A/06_scarf.jpg,html/resources/sequences_IDs/B/01_redfox.jpg,6,1,3,2,1,1,5,1,0,26,,,,,,,,,,,,,,,,,,,,
,,,,,26,2020-07-03_13h13.22.109,retriever_ti,2020.1.3,Win32,60,Chrome,1366,768,,,,,,,,,,,,,,,,,2,,,,,,,,,,,,,,,,,,,,,,,,,,,756.406095,146,right,1.41642,satellite_dish,4,10,-1,0,0,756.44043,756.44043,758.9398,0,68,68,68,1,146,5,4,sport_tshirt,satellite_dish,html/resources/sequences_IDs/B/07_sport_tshirt.jpg,html/resources/sequences_IDs/A/10_satellite_dish.jpg,7,10,3,2,4,2,6,8,0,26,,,,,,,,,,,,,,,,,,,,
,,,,,26,2020-07-03_13h13.22.109,retriever_ti,2020.1.3,Win32,60,Chrome,1366,768,,,,,,,,,,,,,,,,,2,,,,,,,,,,,,,,,,,,,,,,,,,,,760.040875,147,left,1.25012,clownfish     ,6,4,-1,0,0,760.074415,760.074415,762.57274,0,69,69,69,1,147,6,7,clownfish     ,phone       ,html/resources/sequences_IDs/A/04_clownfish.jpg,html/resources/sequences_IDs/B/09_phone.jpg,4,9,2,1,4,2,3,7,0,26,,,,,,,,,,,,,,,,,,,,
,,,,,26,2020-07-03_13h13.22.109,retriever_ti,2020.1.3,Win32,60,Chrome,1366,768,,,,,,,,,,,,,,,,,2,,,,,,,,,,,,,,,,,,,,,,,,,,,763.67341,148,left,2.064825,parrot      ,1,5,-7,0,3,763.69133,763.69133,766.189435,0,70,70,70,1,148,1,8,parrot      ,camel         ,html/resources/sequences_IDs/B/05_parrot.jpg,html/resources/sequences_IDs/A/03_camel.jpg,5,3,2,1,1,1,4,2,0,26,,,,,,,,,,,,,,,,,,,,
,,,,,26,2020-07-03_13h13.22.109,retriever_ti,2020.1.3,Win32,60,Chrome,1366,768,,,,,,,,,,,,,,,,,2,,,,,,,,,,,,,,,,,,,,,,,,,,,766.807725,149,left,1.170575,clownfish     ,6,4,2,1,3,766.82469,766.82469,769.32291,0,71,71,71,1,149,6,4,clownfish     ,satellite_dish,html/resources/sequences_IDs/A/04_clownfish.jpg,html/resources/sequences_IDs/A/10_satellite_dish.jpg,4,10,2,1,4,2,3,8,0,26,,,,,,,,,,,,,,,,,,,,
,,,,,26,2020-07-03_13h13.22.109,retriever_ti,2020.1.3,Win32,60,Chrome,1366,768,,,,,,,,,,,,,,,,,2,,,,,,,,,,,,,,,,,,,,,,,,,,,769.92389,150,right,0.690755,scarf         ,2,6,-1,0,1,769.958515,769.958515,772.45637,0,72,72,72,1,150,3,2,redfox      ,scarf         ,html/resources/sequences_IDs/B/01_redfox.jpg,html/resources/sequences_IDs/A/06_scarf.jpg,1,6,1,1,3,2,1,5,1,26,,,,,,,,,,,,,,,,,,,,
,,,,,26,2020-07-03_13h13.22.109,retriever_ti,2020.1.3,Win32,60,Chrome,1366,768,,,,,,,,,,,,,,,,,2,,,,,,,,,,,,,,,,,,,,,,,,,,,773.55792,151,right,0.657865,phone       ,7,9,1,1,1,773.57477,773.57477,776.073135,0,73,73,73,1,151,6,7,clownfish     ,phone       ,html/resources/sequences_IDs/A/04_clownfish.jpg,html/resources/sequences_IDs/B/09_phone.jpg,4,9,2,1,4,2,3,7,0,26,,,,,,,,,,,,,,,,,,,,
,,,,,26,2020-07-03_13h13.22.109,retriever_ti,2020.1.3,Win32,60,Chrome,1366,768,,,,,,,,,,,,,,,,,2,,,,,,,,,,,,,,,,,,,,,,,,,,,777.174655,152,left,1.083965,sport_tshirt,5,7,2,1,3,777.19377,777.19377,779.689635,0,74,74,74,1,152,5,3,sport_tshirt,redfox      ,html/resources/sequences_IDs/B/07_sport_tshirt.jpg,html/resources/sequences_IDs/B/01_redfox.jpg,7,1,3,2,1,1,6,1,0,26,,,,,,,,,,,,,,,,,,,,
,,,,,26,2020-07-03_13h13.22.109,retriever_ti,2020.1.3,Win32,60,Chrome,1366,768,,,,,,,,,,,,,,,,,2,,,,,,,,,,,,,,,,,,,,,,,,,,,780.2941,153,left,0.755255,parrot      ,1,5,-4,0,3,780.3084,780.3084,782.8068,0,75,75,75,1,153,1,5,parrot      ,sport_tshirt,html/resources/sequences_IDs/B/05_parrot.jpg,html/resources/sequences_IDs/B/07_sport_tshirt.jpg,5,7,2,1,3,2,4,6,0,26,,,,,,,,,,,,,,,,,,,,
,,,,,26,2020-07-03_13h13.22.109,retriever_ti,2020.1.3,Win32,60,Chrome,1366,768,,,,,,,,,,,,,,,,,2,,,,,,,,,,,,,,,,,,,,,,,,,,,783.42427,154,left,1.496175,scarf         ,2,6,-4,0,3,783.44219,783.44219,785.93994,0,76,76,76,1,154,2,6,scarf         ,clownfish     ,html/resources/sequences_IDs/A/06_scarf.jpg,html/resources/sequences_IDs/A/04_clownfish.jpg,6,4,3,2,2,1,5,3,0,26,,,,,,,,,,,,,,,,,,,,
,,,,,26,2020-07-03_13h13.22.109,retriever_ti,2020.1.3,Win32,60,Chrome,1366,768,,,,,,,,,,,,,,,,,,,,,,,,,,,,,,,,,,,,,0,1.745935,,,,,,,,,,,,,,,,,,,,,,,,,,,,,,,,,,,,,,,,,1,0,1,0,1,,,,,,,,,,,,,,,
,,,,,26,2020-07-03_13h13.22.109,retriever_ti,2020.1.3,Win32,60,Chrome,1366,768,,,,,,,,,,,,,,,,,3,,,,,,,,,,,,,,,,,,,,,,,,,,,796.0964,155,left,0.881685,scarf         ,2,6,-5,0,3,796.124895,796.124895,798.62361,0,0,0,0,1,155,2,7,scarf         ,phone       ,html/resources/sequences_IDs/A/06_scarf.jpg,html/resources/sequences_IDs/B/09_phone.jpg,6,9,3,2,4,2,5,7,0,26,,,,,,,,,,,,,,,,,,,,
,,,,,26,2020-07-03_13h13.22.109,retriever_ti,2020.1.3,Win32,60,Chrome,1366,768,,,,,,,,,,,,,,,,,3,,,,,,,,,,,,,,,,,,,,,,,,,,,799.226465,156,left,1.321525,scarf         ,2,6,1,1,1,799.243565,799.243565,801.74061,0,1,1,1,1,156,2,1,scarf         ,parrot      ,html/resources/sequences_IDs/A/06_scarf.jpg,html/resources/sequences_IDs/B/05_parrot.jpg,6,5,3,2,2,1,5,4,0,26,,,,,,,,,,,,,,,,,,,,
,,,,,26,2020-07-03_13h13.22.109,retriever_ti,2020.1.3,Win32,60,Chrome,1366,768,,,,,,,,,,,,,,,,,3,,,,,,,,,,,,,,,,,,,,,,,,,,,802.840845,157,left,0.977265,satellite_dish,4,10,2,1,3,802.874985,802.874985,805.3743,0,2,2,2,1,157,4,2,satellite_dish,scarf         ,html/resources/sequences_IDs/A/10_satellite_dish.jpg,html/resources/sequences_IDs/A/06_scarf.jpg,10,6,4,2,3,2,8,5,0,26,,,,,,,,,,,,,,,,,,,,
,,,,,26,2020-07-03_13h13.22.109,retriever_ti,2020.1.3,Win32,60,Chrome,1366,768,,,,,,,,,,,,,,,,,3,,,,,,,,,,,,,,,,,,,,,,,,,,,805.99315,158,right,0.93569,scarf         ,2,6,-1,0,1,806.01001,806.01001,808.50728,0,3,3,3,1,158,3,2,redfox      ,scarf         ,html/resources/sequences_IDs/B/01_redfox.jpg,html/resources/sequences_IDs/A/06_scarf.jpg,1,6,1,1,3,2,1,5,1,26,,,,,,,,,,,,,,,,,,,,
,,,,,26,2020-07-03_13h13.22.109,retriever_ti,2020.1.3,Win32,60,Chrome,1366,768,,,,,,,,,,,,,,,,,3,,,,,,,,,,,,,,,,,,,,,,,,,,,809.609025,159,left,0.93777,phone       ,7,9,5,1,3,809.62779,809.62779,812.124565,0,4,4,4,1,159,7,2,phone       ,scarf         ,html/resources/sequences_IDs/B/09_phone.jpg,html/resources/sequences_IDs/A/06_scarf.jpg,9,6,4,2,3,2,7,5,0,26,,,,,,,,,,,,,,,,,,,,
,,,,,26,2020-07-03_13h13.22.109,retriever_ti,2020.1.3,Win32,60,Chrome,1366,768,,,,,,,,,,,,,,,,,3,,,,,,,,,,,,,,,,,,,,,,,,,,,812.743165,160,left,0.706175,parrot      ,1,5,-4,0,3,812.777015,812.777015,815.274215,0,5,5,5,1,160,1,5,parrot      ,sport_tshirt,html/resources/sequences_IDs/B/05_parrot.jpg,html/resources/sequences_IDs/B/07_sport_tshirt.jpg,5,7,2,1,3,2,4,6,0,26,,,,,,,,,,,,,,,,,,,,
,,,,,26,2020-07-03_13h13.22.109,retriever_ti,2020.1.3,Win32,60,Chrome,1366,768,,,,,,,,,,,,,,,,,3,,,,,,,,,,,,,,,,,,,,,,,,,,,815.875785,161,left,0.71473,camel         ,8,3,6,1,3,815.91092,815.91092,818.407865,0,6,6,6,1,161,8,2,camel         ,scarf         ,html/resources/sequences_IDs/A/03_camel.jpg,html/resources/sequences_IDs/A/06_scarf.jpg,3,6,1,1,3,2,2,5,0,26,,,,,,,,,,,,,,,,,,,,
,,,,,26,2020-07-03_13h13.22.109,retriever_ti,2020.1.3,Win32,60,Chrome,1366,768,,,,,,,,,,,,,,,,,3,,,,,,,,,,,,,,,,,,,,,,,,,,,819.02661,162,right,0.62316,phone       ,7,9,-1,0,1,819.043795,819.043795,821.541075,0,7,7,7,1,162,8,7,camel         ,phone       ,html/resources/sequences_IDs/A/03_camel.jpg,html/resources/sequences_IDs/B/09_phone.jpg,3,9,1,1,4,2,2,7,1,26,,,,,,,,,,,,,,,,,,,,
,,,,,26,2020-07-03_13h13.22.109,retriever_ti,2020.1.3,Win32,60,Chrome,1366,768,,,,,,,,,,,,,,,,,3,,,,,,,,,,,,,,,,,,,,,,,,,,,822.641715,163,right,1.46596,satellite_dish,4,10,-1,0,0,822.659605,822.659605,825.1579,0,8,8,8,1,163,5,4,sport_tshirt,satellite_dish,html/resources/sequences_IDs/B/07_sport_tshirt.jpg,html/resources/sequences_IDs/A/10_satellite_dish.jpg,7,10,3,2,4,2,6,8,0,26,,,,,,,,,,,,,,,,,,,,
,,,,,26,2020-07-03_13h13.22.109,retriever_ti,2020.1.3,Win32,60,Chrome,1366,768,,,,,,,,,,,,,,,,,3,,,,,,,,,,,,,,,,,,,,,,,,,,,826.25906,164,left,0.77349,sport_tshirt,5,7,1,1,0,826.29287,826.29287,828.79124,0,9,9,9,1,164,5,4,sport_tshirt,satellite_dish,html/resources/sequences_IDs/B/07_sport_tshirt.jpg,html/resources/sequences_IDs/A/10_satellite_dish.jpg,7,10,3,2,4,2,6,8,1,26,,,,,,,,,,,,,,,,,,,,
,,,,,26,2020-07-03_13h13.22.109,retriever_ti,2020.1.3,Win32,60,Chrome,1366,768,,,,,,,,,,,,,,,,,3,,,,,,,,,,,,,,,,,,,,,,,,,,,829.891635,165,left,1.211245,redfox      ,3,1,-1,0,0,829.925655,829.925655,832.424675,0,10,10,10,1,165,3,4,redfox      ,satellite_dish,html/resources/sequences_IDs/B/01_redfox.jpg,html/resources/sequences_IDs/A/10_satellite_dish.jpg,1,10,1,1,4,2,1,8,0,26,,,,,,,,,,,,,,,,,,,,
,,,,,26,2020-07-03_13h13.22.109,retriever_ti,2020.1.3,Win32,60,Chrome,1366,768,,,,,,,,,,,,,,,,,3,,,,,,,,,,,,,,,,,,,,,,,,,,,833.52593,166,left,1.02872,camel         ,8,3,4,1,3,833.559485,833.559485,836.058075,0,11,11,11,1,166,8,4,camel         ,satellite_dish,html/resources/sequences_IDs/A/03_camel.jpg,html/resources/sequences_IDs/A/10_satellite_dish.jpg,3,10,1,1,4,2,2,8,0,26,,,,,,,,,,,,,,,,,,,,
,,,,,26,2020-07-03_13h13.22.109,retriever_ti,2020.1.3,Win32,60,Chrome,1366,768,,,,,,,,,,,,,,,,,3,,,,,,,,,,,,,,,,,,,,,,,,,,,836.67563,167,right,0.78038,camel         ,8,3,5,1,3,836.710285,836.710285,839.208055,0,12,12,12,1,167,3,8,redfox      ,camel         ,html/resources/sequences_IDs/B/01_redfox.jpg,html/resources/sequences_IDs/A/03_camel.jpg,1,3,1,1,1,1,1,2,0,26,,,,,,,,,,,,,,,,,,,,
,,,,,26,2020-07-03_13h13.22.109,retriever_ti,2020.1.3,Win32,60,Chrome,1366,768,,,,,,,,,,,,,,,,,3,,,,,,,,,,,,,,,,,,,,,,,,,,,839.826475,168,right,0.81711,clownfish     ,6,4,5,1,3,839.843455,839.843455,842.341555,0,13,13,13,1,168,1,6,parrot      ,clownfish     ,html/resources/sequences_IDs/B/05_parrot.jpg,html/resources/sequences_IDs/A/04_clownfish.jpg,5,4,2,1,2,1,4,3,0,26,,,,,,,,,,,,,,,,,,,,
,,,,,26,2020-07-03_13h13.22.109,retriever_ti,2020.1.3,Win32,60,Chrome,1366,768,,,,,,,,,,,,,,,,,3,,,,,,,,,,,,,,,,,,,,,,,,,,,842.958965,169,left,1.018715,camel         ,8,3,2,1,3,842.97837,842.97837,845.474965,0,14,14,14,1,169,8,6,camel         ,clownfish     ,html/resources/sequences_IDs/A/03_camel.jpg,html/resources/sequences_IDs/A/04_clownfish.jpg,3,4,1,1,2,1,2,3,0,26,,,,,,,,,,,,,,,,,,,,
,,,,,26,2020-07-03_13h13.22.109,retriever_ti,2020.1.3,Win32,60,Chrome,1366,768,,,,,,,,,,,,,,,,,3,,,,,,,,,,,,,,,,,,,,,,,,,,,846.078165,170,right,1.00124,scarf         ,2,6,-3,0,3,846.095315,846.095315,848.59183,0,15,15,15,1,170,5,2,sport_tshirt,scarf         ,html/resources/sequences_IDs/B/07_sport_tshirt.jpg,html/resources/sequences_IDs/A/06_scarf.jpg,7,6,3,2,3,2,6,5,0,26,,,,,,,,,,,,,,,,,,,,
,,,,,26,2020-07-03_13h13.22.109,retriever_ti,2020.1.3,Win32,60,Chrome,1366,768,,,,,,,,,,,,,,,,,3,,,,,,,,,,,,,,,,,,,,,,,,,,,849.19347,171,left,0.94136,satellite_dish,4,10,-4,0,3,849.211785,849.211785,851.708785,0,16,16,16,1,171,4,8,satellite_dish,camel         ,html/resources/sequences_IDs/A/10_satellite_dish.jpg,html/resources/sequences_IDs/A/03_camel.jpg,10,3,4,2,1,1,8,2,0,26,,,,,,,,,,,,,,,,,,,,
,,,,,26,2020-07-03_13h13.22.109,retriever_ti,2020.1.3,Win32,60,Chrome,1366,768,,,,,,,,,,,,,,,,,3,,,,,,,,,,,,,,,,,,,,,,,,,,,852.327935,172,left,0.939025,parrot      ,1,5,-2,0,3,852.344795,852.344795,854.842105,0,17,17,17,1,172,1,3,parrot      ,redfox      ,html/resources/sequences_IDs/B/05_parrot.jpg,html/resources/sequences_IDs/B/01_redfox.jpg,5,1,2,1,1,1,4,1,0,26,,,,,,,,,,,,,,,,,,,,
,,,,,26,2020-07-03_13h13.22.109,retriever_ti,2020.1.3,Win32,60,Chrome,1366,768,,,,,,,,,,,,,,,,,3,,,,,,,,,,,,,,,,,,,,,,,,,,,855.458935,173,right,0.838205,clownfish     ,6,4,1,1,1,855.47642,855.47642,857.97546,0,18,18,18,1,173,5,6,sport_tshirt,clownfish     ,html/resources/sequences_IDs/B/07_sport_tshirt.jpg,html/resources/sequences_IDs/A/04_clownfish.jpg,7,4,3,2,2,1,6,3,0,26,,,,,,,,,,,,,,,,,,,,
,,,,,26,2020-07-03_13h13.22.109,retriever_ti,2020.1.3,Win32,60,Chrome,1366,768,,,,,,,,,,,,,,,,,3,,,,,,,,,,,,,,,,,,,,,,,,,,,859.077245,174,right,1.566325,phone       ,7,9,6,1,3,859.0942,859.0942,861.59214,0,19,19,19,1,174,1,7,parrot      ,phone       ,html/resources/sequences_IDs/B/05_parrot.jpg,html/resources/sequences_IDs/B/09_phone.jpg,5,9,2,1,4,2,4,7,0,26,,,,,,,,,,,,,,,,,,,,
,,,,,26,2020-07-03_13h13.22.109,retriever_ti,2020.1.3,Win32,60,Chrome,1366,768,,,,,,,,,,,,,,,,,3,,,,,,,,,,,,,,,,,,,,,,,,,,,862.20891,175,left,0.778725,clownfish     ,6,4,3,1,3,862.226295,862.226295,864.725485,0,20,20,20,1,175,6,3,clownfish     ,redfox      ,html/resources/sequences_IDs/A/04_clownfish.jpg,html/resources/sequences_IDs/B/01_redfox.jpg,4,1,2,1,1,1,3,1,0,26,,,,,,,,,,,,,,,,,,,,
,,,,,26,2020-07-03_13h13.22.109,retriever_ti,2020.1.3,Win32,60,Chrome,1366,768,,,,,,,,,,,,,,,,,3,,,,,,,,,,,,,,,,,,,,,,,,,,,865.343755,176,left,0.65676,scarf         ,2,6,-1,0,0,865.377405,865.377405,867.875895,0,21,21,21,1,176,2,3,scarf         ,redfox      ,html/resources/sequences_IDs/A/06_scarf.jpg,html/resources/sequences_IDs/B/01_redfox.jpg,6,1,3,2,1,1,5,1,0,26,,,,,,,,,,,,,,,,,,,,
,,,,,26,2020-07-03_13h13.22.109,retriever_ti,2020.1.3,Win32,60,Chrome,1366,768,,,,,,,,,,,,,,,,,3,,,,,,,,,,,,,,,,,,,,,,,,,,,868.976055,177,right,0.92158,parrot      ,1,5,-1,0,0,869.01006,869.01006,871.509235,0,22,22,22,1,177,2,1,scarf         ,parrot      ,html/resources/sequences_IDs/A/06_scarf.jpg,html/resources/sequences_IDs/B/05_parrot.jpg,6,5,3,2,2,1,5,4,0,26,,,,,,,,,,,,,,,,,,,,
,,,,,26,2020-07-03_13h13.22.109,retriever_ti,2020.1.3,Win32,60,Chrome,1366,768,,,,,,,,,,,,,,,,,3,,,,,,,,,,,,,,,,,,,,,,,,,,,872.610905,178,left,1.020425,phone       ,7,9,1,1,1,872.627825,872.627825,875.12603,0,23,23,23,1,178,7,6,phone       ,clownfish     ,html/resources/sequences_IDs/B/09_phone.jpg,html/resources/sequences_IDs/A/04_clownfish.jpg,9,4,4,2,2,1,7,3,0,26,,,,,,,,,,,,,,,,,,,,
,,,,,26,2020-07-03_13h13.22.109,retriever_ti,2020.1.3,Win32,60,Chrome,1366,768,,,,,,,,,,,,,,,,,3,,,,,,,,,,,,,,,,,,,,,,,,,,,876.22608,179,right,1.195945,parrot      ,1,5,-6,0,3,876.260415,876.260415,878.759315,0,24,24,24,1,179,7,1,phone       ,parrot      ,html/resources/sequences_IDs/B/09_phone.jpg,html/resources/sequences_IDs/B/05_parrot.jpg,9,5,4,2,2,1,7,4,0,26,,,,,,,,,,,,,,,,,,,,
,,,,,26,2020-07-03_13h13.22.109,retriever_ti,2020.1.3,Win32,60,Chrome,1366,768,,,,,,,,,,,,,,,,,3,,,,,,,,,,,,,,,,,,,,,,,,,,,879.37806,180,left,1.877455,clownfish     ,6,4,-1,0,0,879.39367,879.39367,881.89289,0,25,25,25,1,180,6,7,clownfish     ,phone       ,html/resources/sequences_IDs/A/04_clownfish.jpg,html/resources/sequences_IDs/B/09_phone.jpg,4,9,2,1,4,2,3,7,0,26,,,,,,,,,,,,,,,,,,,,
,,,,,26,2020-07-03_13h13.22.109,retriever_ti,2020.1.3,Win32,60,Chrome,1366,768,,,,,,,,,,,,,,,,,3,,,,,,,,,,,,,,,,,,,,,,,,,,,882.99306,181,right,1.210805,clownfish     ,6,4,1,1,1,883.027495,883.027495,885.525955,0,26,26,26,1,181,5,6,sport_tshirt,clownfish     ,html/resources/sequences_IDs/B/07_sport_tshirt.jpg,html/resources/sequences_IDs/A/04_clownfish.jpg,7,4,3,2,2,1,6,3,0,26,,,,,,,,,,,,,,,,,,,,
,,,,,26,2020-07-03_13h13.22.109,retriever_ti,2020.1.3,Win32,60,Chrome,1366,768,,,,,,,,,,,,,,,,,3,,,,,,,,,,,,,,,,,,,,,,,,,,,886.626975,182,right,1.85023,redfox      ,3,1,-2,0,3,886.64616,886.64616,889.14296,0,27,27,27,1,182,5,3,sport_tshirt,redfox      ,html/resources/sequences_IDs/B/07_sport_tshirt.jpg,html/resources/sequences_IDs/B/01_redfox.jpg,7,1,3,2,1,1,6,1,0,26,,,,,,,,,,,,,,,,,,,,
,,,,,26,2020-07-03_13h13.22.109,retriever_ti,2020.1.3,Win32,60,Chrome,1366,768,,,,,,,,,,,,,,,,,3,,,,,,,,,,,,,,,,,,,,,,,,,,,889.76055,183,left,0.761045,parrot      ,1,5,-1,0,0,889.795155,889.795155,892.293145,0,28,28,28,1,183,1,2,parrot      ,scarf         ,html/resources/sequences_IDs/B/05_parrot.jpg,html/resources/sequences_IDs/A/06_scarf.jpg,5,6,2,1,3,2,4,5,0,26,,,,,,,,,,,,,,,,,,,,
,,,,,26,2020-07-03_13h13.22.109,retriever_ti,2020.1.3,Win32,60,Chrome,1366,768,,,,,,,,,,,,,,,,,3,,,,,,,,,,,,,,,,,,,,,,,,,,,893.39609,184,right,0.39885,scarf         ,2,6,1,1,1,893.42958,893.42958,895.926585,0,29,29,29,1,184,1,2,parrot      ,scarf         ,html/resources/sequences_IDs/B/05_parrot.jpg,html/resources/sequences_IDs/A/06_scarf.jpg,5,6,2,1,3,2,4,5,0,26,,,,,,,,,,,,,,,,,,,,
,,,,,26,2020-07-03_13h13.22.109,retriever_ti,2020.1.3,Win32,60,Chrome,1366,768,,,,,,,,,,,,,,,,,3,,,,,,,,,,,,,,,,,,,,,,,,,,,897.027495,185,right,1.923085,clownfish     ,6,4,-1,0,0,897.062625,897.062625,899.559495,0,30,30,30,1,185,7,6,phone       ,clownfish     ,html/resources/sequences_IDs/B/09_phone.jpg,html/resources/sequences_IDs/A/04_clownfish.jpg,9,4,4,2,2,1,7,3,0,26,,,,,,,,,,,,,,,,,,,,
,,,,,26,2020-07-03_13h13.22.109,retriever_ti,2020.1.3,Win32,60,Chrome,1366,768,,,,,,,,,,,,,,,,,3,,,,,,,,,,,,,,,,,,,,,,,,,,,900.66162,186,left,0.9742,scarf         ,2,6,-2,0,3,900.69549,900.69549,903.19393,0,31,31,31,1,186,2,4,scarf         ,satellite_dish,html/resources/sequences_IDs/A/06_scarf.jpg,html/resources/sequences_IDs/A/10_satellite_dish.jpg,6,10,3,2,4,2,5,8,0,26,,,,,,,,,,,,,,,,,,,,
,,,,,26,2020-07-03_13h13.22.109,retriever_ti,2020.1.3,Win32,60,Chrome,1366,768,,,,,,,,,,,,,,,,,3,,,,,,,,,,,,,,,,,,,,,,,,,,,903.81055,187,left,0.925285,parrot      ,1,5,-3,0,3,903.846585,903.846585,906.343185,0,32,32,32,1,187,1,4,parrot      ,satellite_dish,html/resources/sequences_IDs/B/05_parrot.jpg,html/resources/sequences_IDs/A/10_satellite_dish.jpg,5,10,2,1,4,2,4,8,0,26,,,,,,,,,,,,,,,,,,,,
,,,,,26,2020-07-03_13h13.22.109,retriever_ti,2020.1.3,Win32,60,Chrome,1366,768,,,,,,,,,,,,,,,,,3,,,,,,,,,,,,,,,,,,,,,,,,,,,906.946325,188,left,0.679655,redfox      ,3,1,-1,0,0,906.96365,906.96365,909.459885,0,33,33,33,1,188,3,4,redfox      ,satellite_dish,html/resources/sequences_IDs/B/01_redfox.jpg,html/resources/sequences_IDs/A/10_satellite_dish.jpg,1,10,1,1,4,2,1,8,0,26,,,,,,,,,,,,,,,,,,,,
,,,,,26,2020-07-03_13h13.22.109,retriever_ti,2020.1.3,Win32,60,Chrome,1366,768,,,,,,,,,,,,,,,,,3,,,,,,,,,,,,,,,,,,,,,,,,,,,910.56108,189,right,1.260985,redfox      ,3,1,1,1,1,910.578905,910.578905,913.07663,0,34,34,34,1,189,2,3,scarf         ,redfox      ,html/resources/sequences_IDs/A/06_scarf.jpg,html/resources/sequences_IDs/B/01_redfox.jpg,6,1,3,2,1,1,5,1,0,26,,,,,,,,,,,,,,,,,,,,
,,,,,26,2020-07-03_13h13.22.109,retriever_ti,2020.1.3,Win32,60,Chrome,1366,768,,,,,,,,,,,,,,,,,3,,,,,,,,,,,,,,,,,,,,,,,,,,,914.17874,190,left,1.71504,sport_tshirt,5,7,1,1,1,914.21247,914.21247,916.711195,0,35,35,35,1,190,5,4,sport_tshirt,satellite_dish,html/resources/sequences_IDs/B/07_sport_tshirt.jpg,html/resources/sequences_IDs/A/10_satellite_dish.jpg,7,10,3,2,4,2,6,8,0,26,,,,,,,,,,,,,,,,,,,,
,,,,,26,2020-07-03_13h13.22.109,retriever_ti,2020.1.3,Win32,60,Chrome,1366,768,,,,,,,,,,,,,,,,,3,,,,,,,,,,,,,,,,,,,,,,,,,,,917.811485,191,left,0.855165,clownfish     ,6,4,5,1,3,917.84488,917.84488,920.343555,0,36,36,36,1,191,6,1,clownfish     ,parrot      ,html/resources/sequences_IDs/A/04_clownfish.jpg,html/resources/sequences_IDs/B/05_parrot.jpg,4,5,2,1,2,1,3,4,0,26,,,,,,,,,,,,,,,,,,,,
,,,,,26,2020-07-03_13h13.22.109,retriever_ti,2020.1.3,Win32,60,Chrome,1366,768,,,,,,,,,,,,,,,,,3,,,,,,,,,,,,,,,,,,,,,,,,,,,920.960935,192,left,1.251055,camel         ,8,3,7,1,3,920.97965,920.97965,923.47727,0,37,37,37,1,192,8,1,camel         ,parrot      ,html/resources/sequences_IDs/A/03_camel.jpg,html/resources/sequences_IDs/B/05_parrot.jpg,3,5,1,1,2,1,2,4,0,26,,,,,,,,,,,,,,,,,,,,
,,,,,26,2020-07-03_13h13.22.109,retriever_ti,2020.1.3,Win32,60,Chrome,1366,768,,,,,,,,,,,,,,,,,3,,,,,,,,,,,,,,,,,,,,,,,,,,,924.09482,193,right,1.5746,clownfish     ,6,4,4,1,3,924.128275,924.128275,926.626905,0,38,38,38,1,193,2,6,scarf         ,clownfish     ,html/resources/sequences_IDs/A/06_scarf.jpg,html/resources/sequences_IDs/A/04_clownfish.jpg,6,4,3,2,2,1,5,3,0,26,,,,,,,,,,,,,,,,,,,,
,,,,,26,2020-07-03_13h13.22.109,retriever_ti,2020.1.3,Win32,60,Chrome,1366,768,,,,,,,,,,,,,,,,,3,,,,,,,,,,,,,,,,,,,,,,,,,,,927.22904,194,right,1.201915,parrot      ,1,5,-2,0,3,927.26348,927.26348,929.760405,0,39,39,39,1,194,3,1,redfox      ,parrot      ,html/resources/sequences_IDs/B/01_redfox.jpg,html/resources/sequences_IDs/B/05_parrot.jpg,1,5,1,1,2,1,1,4,0,26,,,,,,,,,,,,,,,,,,,,
,,,,,26,2020-07-03_13h13.22.109,retriever_ti,2020.1.3,Win32,60,Chrome,1366,768,,,,,,,,,,,,,,,,,3,,,,,,,,,,,,,,,,,,,,,,,,,,,930.377975,195,left,0.868575,clownfish     ,6,4,4,1,3,930.4143,930.4143,932.91086,0,40,40,40,1,195,6,2,clownfish     ,scarf         ,html/resources/sequences_IDs/A/04_clownfish.jpg,html/resources/sequences_IDs/A/06_scarf.jpg,4,6,2,1,3,2,3,5,0,26,,,,,,,,,,,,,,,,,,,,
,,,,,26,2020-07-03_13h13.22.109,retriever_ti,2020.1.3,Win32,60,Chrome,1366,768,,,,,,,,,,,,,,,,,3,,,,,,,,,,,,,,,,,,,,,,,,,,,933.51288,196,right,1.088545,sport_tshirt,5,7,-1,0,0,933.54624,933.54624,936.04412,0,41,41,41,1,196,6,5,clownfish     ,sport_tshirt,html/resources/sequences_IDs/A/04_clownfish.jpg,html/resources/sequences_IDs/B/07_sport_tshirt.jpg,4,7,2,1,3,2,3,6,0,26,,,,,,,,,,,,,,,,,,,,
,,,,,26,2020-07-03_13h13.22.109,retriever_ti,2020.1.3,Win32,60,Chrome,1366,768,,,,,,,,,,,,,,,,,3,,,,,,,,,,,,,,,,,,,,,,,,,,,937.14499,197,right,1.433625,satellite_dish,4,10,-2,0,3,937.163205,937.163205,939.660835,0,42,42,42,1,197,6,4,clownfish     ,satellite_dish,html/resources/sequences_IDs/A/04_clownfish.jpg,html/resources/sequences_IDs/A/10_satellite_dish.jpg,4,10,2,1,4,2,3,8,0,26,,,,,,,,,,,,,,,,,,,,
,,,,,26,2020-07-03_13h13.22.109,retriever_ti,2020.1.3,Win32,60,Chrome,1366,768,,,,,,,,,,,,,,,,,3,,,,,,,,,,,,,,,,,,,,,,,,,,,940.26325,198,left,0.77974,parrot      ,1,5,-7,0,3,940.29782,940.29782,942.794365,0,43,43,43,1,198,1,8,parrot      ,camel         ,html/resources/sequences_IDs/B/05_parrot.jpg,html/resources/sequences_IDs/A/03_camel.jpg,5,3,2,1,1,1,4,2,0,26,,,,,,,,,,,,,,,,,,,,
,,,,,26,2020-07-03_13h13.22.109,retriever_ti,2020.1.3,Win32,60,Chrome,1366,768,,,,,,,,,,,,,,,,,3,,,,,,,,,,,,,,,,,,,,,,,,,,,943.41195,199,right,0.816025,phone       ,7,9,2,1,3,943.429925,943.429925,945.927645,0,44,44,44,1,199,5,7,sport_tshirt,phone       ,html/resources/sequences_IDs/B/07_sport_tshirt.jpg,html/resources/sequences_IDs/B/09_phone.jpg,7,9,3,2,4,2,6,7,0,26,,,,,,,,,,,,,,,,,,,,
,,,,,26,2020-07-03_13h13.22.109,retriever_ti,2020.1.3,Win32,60,Chrome,1366,768,,,,,,,,,,,,,,,,,3,,,,,,,,,,,,,,,,,,,,,,,,,,,946.53178,200,left,1.363125,satellite_dish,4,10,-3,0,3,946.56431,946.56431,949.061215,0,45,45,45,1,200,4,7,satellite_dish,phone       ,html/resources/sequences_IDs/A/10_satellite_dish.jpg,html/resources/sequences_IDs/B/09_phone.jpg,10,9,4,2,4,2,8,7,0,26,,,,,,,,,,,,,,,,,,,,
,,,,,26,2020-07-03_13h13.22.109,retriever_ti,2020.1.3,Win32,60,Chrome,1366,768,,,,,,,,,,,,,,,,,3,,,,,,,,,,,,,,,,,,,,,,,,,,,949.66271,201,left,1.1256,phone       ,7,9,2,1,3,949.697915,949.697915,952.19454,0,46,46,46,1,201,7,5,phone       ,sport_tshirt,html/resources/sequences_IDs/B/09_phone.jpg,html/resources/sequences_IDs/B/07_sport_tshirt.jpg,9,7,4,2,3,2,7,6,0,26,,,,,,,,,,,,,,,,,,,,
,,,,,26,2020-07-03_13h13.22.109,retriever_ti,2020.1.3,Win32,60,Chrome,1366,768,,,,,,,,,,,,,,,,,3,,,,,,,,,,,,,,,,,,,,,,,,,,,952.812625,202,right,0.762065,scarf         ,2,6,1,1,0,952.84618,952.84618,955.344445,0,47,47,47,1,202,1,2,parrot      ,scarf         ,html/resources/sequences_IDs/B/05_parrot.jpg,html/resources/sequences_IDs/A/06_scarf.jpg,5,6,2,1,3,2,4,5,1,26,,,,,,,,,,,,,,,,,,,,
,,,,,26,2020-07-03_13h13.22.109,retriever_ti,2020.1.3,Win32,60,Chrome,1366,768,,,,,,,,,,,,,,,,,3,,,,,,,,,,,,,,,,,,,,,,,,,,,956.445545,203,right,0.960315,phone       ,7,9,1,1,0,956.480435,956.480435,958.97788,0,48,48,48,1,203,6,7,clownfish     ,phone       ,html/resources/sequences_IDs/A/04_clownfish.jpg,html/resources/sequences_IDs/B/09_phone.jpg,4,9,2,1,4,2,3,7,1,26,,,,,,,,,,,,,,,,,,,,
,,,,,26,2020-07-03_13h13.22.109,retriever_ti,2020.1.3,Win32,60,Chrome,1366,768,,,,,,,,,,,,,,,,,3,,,,,,,,,,,,,,,,,,,,,,,,,,,960.081045,204,left,0.75893,clownfish     ,6,4,-2,0,3,960.09826,960.09826,962.594905,0,49,49,49,1,204,6,8,clownfish     ,camel         ,html/resources/sequences_IDs/A/04_clownfish.jpg,html/resources/sequences_IDs/A/03_camel.jpg,4,3,2,1,1,1,3,2,0,26,,,,,,,,,,,,,,,,,,,,
,,,,,26,2020-07-03_13h13.22.109,retriever_ti,2020.1.3,Win32,60,Chrome,1366,768,,,,,,,,,,,,,,,,,3,,,,,,,,,,,,,,,,,,,,,,,,,,,963.196495,205,right,0.480555,sport_tshirt,5,7,1,1,1,963.23232,963.23232,965.728165,0,50,50,50,1,205,4,5,satellite_dish,sport_tshirt,html/resources/sequences_IDs/A/10_satellite_dish.jpg,html/resources/sequences_IDs/B/07_sport_tshirt.jpg,10,7,4,2,3,2,8,6,0,26,,,,,,,,,,,,,,,,,,,,
,,,,,26,2020-07-03_13h13.22.109,retriever_ti,2020.1.3,Win32,60,Chrome,1366,768,,,,,,,,,,,,,,,,,3,,,,,,,,,,,,,,,,,,,,,,,,,,,966.828915,206,left,0.68261,clownfish     ,6,4,1,1,1,966.862455,966.862455,969.36141,0,51,51,51,1,206,6,5,clownfish     ,sport_tshirt,html/resources/sequences_IDs/A/04_clownfish.jpg,html/resources/sequences_IDs/B/07_sport_tshirt.jpg,4,7,2,1,3,2,3,6,0,26,,,,,,,,,,,,,,,,,,,,
,,,,,26,2020-07-03_13h13.22.109,retriever_ti,2020.1.3,Win32,60,Chrome,1366,768,,,,,,,,,,,,,,,,,3,,,,,,,,,,,,,,,,,,,,,,,,,,,970.46228,207,right,0.425685,redfox      ,3,1,-4,0,3,970.480255,970.480255,972.97871,0,52,52,52,1,207,7,3,phone       ,redfox      ,html/resources/sequences_IDs/B/09_phone.jpg,html/resources/sequences_IDs/B/01_redfox.jpg,9,1,4,2,1,1,7,1,0,26,,,,,,,,,,,,,,,,,,,,
,,,,,26,2020-07-03_13h13.22.109,retriever_ti,2020.1.3,Win32,60,Chrome,1366,768,,,,,,,,,,,,,,,,,3,,,,,,,,,,,,,,,,,,,,,,,,,,,973.59749,208,left,0.91395,satellite_dish,4,10,-1,0,0,973.631935,973.631935,976.128935,0,53,53,53,1,208,4,5,satellite_dish,sport_tshirt,html/resources/sequences_IDs/A/10_satellite_dish.jpg,html/resources/sequences_IDs/B/07_sport_tshirt.jpg,10,7,4,2,3,2,8,6,0,26,,,,,,,,,,,,,,,,,,,,
,,,,,26,2020-07-03_13h13.22.109,retriever_ti,2020.1.3,Win32,60,Chrome,1366,768,,,,,,,,,,,,,,,,,3,,,,,,,,,,,,,,,,,,,,,,,,,,,977.229745,209,right,0.63105,sport_tshirt,5,7,-1,0,1,977.264535,977.264535,979.76204,0,54,54,54,1,209,6,5,clownfish     ,sport_tshirt,html/resources/sequences_IDs/A/04_clownfish.jpg,html/resources/sequences_IDs/B/07_sport_tshirt.jpg,4,7,2,1,3,2,3,6,1,26,,,,,,,,,,,,,,,,,,,,
,,,,,26,2020-07-03_13h13.22.109,retriever_ti,2020.1.3,Win32,60,Chrome,1366,768,,,,,,,,,,,,,,,,,3,,,,,,,,,,,,,,,,,,,,,,,,,,,980.864915,210,right,1.25845,sport_tshirt,5,7,3,1,3,980.882215,980.882215,983.37884,0,55,55,55,1,210,2,5,scarf         ,sport_tshirt,html/resources/sequences_IDs/A/06_scarf.jpg,html/resources/sequences_IDs/B/07_sport_tshirt.jpg,6,7,3,2,3,2,5,6,0,26,,,,,,,,,,,,,,,,,,,,
,,,,,26,2020-07-03_13h13.22.109,retriever_ti,2020.1.3,Win32,60,Chrome,1366,768,,,,,,,,,,,,,,,,,3,,,,,,,,,,,,,,,,,,,,,,,,,,,983.99621,211,left,0.91939,camel         ,8,3,3,1,3,984.031165,984.031165,986.528975,0,56,56,56,1,211,8,5,camel         ,sport_tshirt,html/resources/sequences_IDs/A/03_camel.jpg,html/resources/sequences_IDs/B/07_sport_tshirt.jpg,3,7,1,1,3,2,2,6,0,26,,,,,,,,,,,,,,,,,,,,
,,,,,26,2020-07-03_13h13.22.109,retriever_ti,2020.1.3,Win32,60,Chrome,1366,768,,,,,,,,,,,,,,,,,3,,,,,,,,,,,,,,,,,,,,,,,,,,,987.14767,212,left,0.601325,scarf         ,2,6,-6,0,3,987.18143,987.18143,989.678845,0,57,57,57,1,212,2,8,scarf         ,camel         ,html/resources/sequences_IDs/A/06_scarf.jpg,html/resources/sequences_IDs/A/03_camel.jpg,6,3,3,2,1,1,5,2,0,26,,,,,,,,,,,,,,,,,,,,
,,,,,26,2020-07-03_13h13.22.109,retriever_ti,2020.1.3,Win32,60,Chrome,1366,768,,,,,,,,,,,,,,,,,3,,,,,,,,,,,,,,,,,,,,,,,,,,,990.28023,213,right,0.933705,phone       ,7,9,-1,0,0,990.314885,990.314885,992.812825,0,58,58,58,1,213,8,7,camel         ,phone       ,html/resources/sequences_IDs/A/03_camel.jpg,html/resources/sequences_IDs/B/09_phone.jpg,3,9,1,1,4,2,2,7,0,26,,,,,,,,,,,,,,,,,,,,
,,,,,26,2020-07-03_13h13.22.109,retriever_ti,2020.1.3,Win32,60,Chrome,1366,768,,,,,,,,,,,,,,,,,3,,,,,,,,,,,,,,,,,,,,,,,,,,,993.91281,214,right,1.74228,camel         ,8,3,1,1,1,993.93132,993.93132,996.42888,0,59,59,59,1,214,7,8,phone       ,camel         ,html/resources/sequences_IDs/B/09_phone.jpg,html/resources/sequences_IDs/A/03_camel.jpg,9,3,4,2,1,1,7,2,0,26,,,,,,,,,,,,,,,,,,,,
,,,,,26,2020-07-03_13h13.22.109,retriever_ti,2020.1.3,Win32,60,Chrome,1366,768,,,,,,,,,,,,,,,,,3,,,,,,,,,,,,,,,,,,,,,,,,,,,997.529455,215,left,1.36974,redfox      ,3,1,1,1,1,997.54667,997.54667,1000.046005,0,60,60,60,1,215,3,2,redfox      ,scarf         ,html/resources/sequences_IDs/B/01_redfox.jpg,html/resources/sequences_IDs/A/06_scarf.jpg,1,6,1,1,3,2,1,5,0,26,,,,,,,,,,,,,,,,,,,,
,,,,,26,2020-07-03_13h13.22.109,retriever_ti,2020.1.3,Win32,60,Chrome,1366,768,,,,,,,,,,,,,,,,,3,,,,,,,,,,,,,,,,,,,,,,,,,,,1001.148855,216,right,1.10293,phone       ,7,9,1,1,1,1001.18327,1001.18327,1003.67919,0,61,61,61,1,216,6,7,clownfish     ,phone       ,html/resources/sequences_IDs/A/04_clownfish.jpg,html/resources/sequences_IDs/B/09_phone.jpg,4,9,2,1,4,2,3,7,0,26,,,,,,,,,,,,,,,,,,,,
,,,,,26,2020-07-03_13h13.22.109,retriever_ti,2020.1.3,Win32,60,Chrome,1366,768,,,,,,,,,,,,,,,,,3,,,,,,,,,,,,,,,,,,,,,,,,,,,1004.780155,217,left,1.03238,redfox      ,3,1,-4,0,3,1004.79798,1004.79798,1007.295715,0,62,62,62,1,217,3,7,redfox      ,phone       ,html/resources/sequences_IDs/B/01_redfox.jpg,html/resources/sequences_IDs/B/09_phone.jpg,1,9,1,1,4,2,1,7,0,26,,,,,,,,,,,,,,,,,,,,
,,,,,26,2020-07-03_13h13.22.109,retriever_ti,2020.1.3,Win32,60,Chrome,1366,768,,,,,,,,,,,,,,,,,3,,,,,,,,,,,,,,,,,,,,,,,,,,,1007.89786,218,right,0.688745,camel         ,8,3,3,1,3,1007.93157,1007.93157,1010.42942,0,63,63,63,1,218,5,8,sport_tshirt,camel         ,html/resources/sequences_IDs/B/07_sport_tshirt.jpg,html/resources/sequences_IDs/A/03_camel.jpg,7,3,3,2,1,1,6,2,0,26,,,,,,,,,,,,,,,,,,,,
,,,,,26,2020-07-03_13h13.22.109,retriever_ti,2020.1.3,Win32,60,Chrome,1366,768,,,,,,,,,,,,,,,,,3,,,,,,,,,,,,,,,,,,,,,,,,,,,1011.04674,219,left,0.816465,phone       ,7,9,3,1,3,1011.064485,1011.064485,1013.562975,0,64,64,64,1,219,7,4,phone       ,satellite_dish,html/resources/sequences_IDs/B/09_phone.jpg,html/resources/sequences_IDs/A/10_satellite_dish.jpg,9,10,4,2,4,2,7,8,0,26,,,,,,,,,,,,,,,,,,,,
,,,,,26,2020-07-03_13h13.22.109,retriever_ti,2020.1.3,Win32,60,Chrome,1366,768,,,,,,,,,,,,,,,,,3,,,,,,,,,,,,,,,,,,,,,,,,,,,1014.1805,220,right,0.578095,parrot      ,1,5,-3,0,3,1014.213985,1014.213985,1016.71288,0,65,65,65,1,220,4,1,satellite_dish,parrot      ,html/resources/sequences_IDs/A/10_satellite_dish.jpg,html/resources/sequences_IDs/B/05_parrot.jpg,10,5,4,2,2,1,8,4,0,26,,,,,,,,,,,,,,,,,,,,
,,,,,26,2020-07-03_13h13.22.109,retriever_ti,2020.1.3,Win32,60,Chrome,1366,768,,,,,,,,,,,,,,,,,3,,,,,,,,,,,,,,,,,,,,,,,,,,,1017.314105,221,left,1.18182,redfox      ,3,1,1,1,1,1017.35175,1017.35175,1019.84625,0,66,66,66,1,221,3,2,redfox      ,scarf         ,html/resources/sequences_IDs/B/01_redfox.jpg,html/resources/sequences_IDs/A/06_scarf.jpg,1,6,1,1,3,2,1,5,0,26,,,,,,,,,,,,,,,,,,,,
,,,,,26,2020-07-03_13h13.22.109,retriever_ti,2020.1.3,Win32,60,Chrome,1366,768,,,,,,,,,,,,,,,,,3,,,,,,,,,,,,,,,,,,,,,,,,,,,1020.946875,222,right,0.639915,clownfish     ,6,4,3,1,3,1020.98055,1020.98055,1023.48012,0,67,67,67,1,222,3,6,redfox      ,clownfish     ,html/resources/sequences_IDs/B/01_redfox.jpg,html/resources/sequences_IDs/A/04_clownfish.jpg,1,4,1,1,2,1,1,3,0,26,,,,,,,,,,,,,,,,,,,,
