instructionsLoop.thisRepN,instructionsLoop.thisTrialN,instructionsLoop.thisN,instructionsLoop.thisIndex,instructionsLoop.ran,participant,date,expName,psychopyVersion,OS,frameRate,browser,xResolution,yResolution,fix_onset,tprac,practiceKey.keys,practiceKey.rt,pracitem_chosen_name,acc_practice,P1_onsetPrac,P2_onsetPrac,onsetFeedbPrac,practiceTrials.thisRepN,practiceTrials.thisTrialN,practiceTrials.thisN,practiceTrials.thisIndex,practiceTrials.ran,P1,P2,Block,LocItem1,LocItem2,NameItem1,NameItem2,key_respAC_prac.keys,key_respAC_prac.corr,key_respAC_prac.rt,AC_acc,Attentions.thisRepN,Attentions.thisTrialN,Attentions.thisN,Attentions.thisIndex,Attentions.ran,Stim,Loc1,Loc2,Loc3,Loc4,CorrAns,keyDisturbed.keys,keyDisturbed.rt,repPractice.thisRepN,repPractice.thisTrialN,repPractice.thisN,repPractice.thisIndex,repPractice.ran,fixcross_onsetMain,trialNumber,key_resp.keys,key_resp.rt,item_chosen_name,item_chosen_value,item_chosen_ID,diff_chosen_minus_reject,acc_real,acc_feedback,P1_onset,P2_onset,feedb_onset,trials.thisRepN,trials.thisTrialN,trials.thisN,trials.thisIndex,trials.ran,Trial,ValueP1,ValueP2,P1name,P2name,P1Loc,P2Loc,P1id,P2id,Micro_categoryP1,Macro_categoryP1,Micro_categoryP2,Macro_categoryP2,ID_sequenceP1,ID_sequenceP2,InverseFb,pNumber,repBlocks.thisRepN,repBlocks.thisTrialN,repBlocks.thisN,repBlocks.thisIndex,repBlocks.ran,key_respAC.keys,key_respAC.corr,key_respAC.rt,trials_AC.thisRepN,trials_AC.thisTrialN,trials_AC.thisN,trials_AC.thisIndex,trials_AC.ran,Bonus,BonusLoop.thisRepN,BonusLoop.thisTrialN,BonusLoop.thisN,BonusLoop.thisIndex,BonusLoop.ran,comments
0,0,0,0,1,27,2020-07-03_14h27.39.915,retriever_ti,2020.1.3,Win32,60,Chrome,1536,864,,,,,,,,,,,,,,,,,,,,,,,,,,,,,,,,,,,,,,,,,,,,,,,,,,,,,,,,,,,,,,,,,,,,,,,,,,,,,,,,,,,,,,,,,,,,,,,,,,
1,0,1,0,1,27,2020-07-03_14h27.39.915,retriever_ti,2020.1.3,Win32,60,Chrome,1536,864,,,,,,,,,,,,,,,,,,,,,,,,,,,,,,,,,,,,,,,,,,,,,,,,,,,,,,,,,,,,,,,,,,,,,,,,,,,,,,,,,,,,,,,,,,,,,,,,,,
2,0,2,0,1,27,2020-07-03_14h27.39.915,retriever_ti,2020.1.3,Win32,60,Chrome,1536,864,,,,,,,,,,,,,,,,,,,,,,,,,,,,,,,,,,,,,,,,,,,,,,,,,,,,,,,,,,,,,,,,,,,,,,,,,,,,,,,,,,,,,,,,,,,,,,,,,,
3,0,3,0,1,27,2020-07-03_14h27.39.915,retriever_ti,2020.1.3,Win32,60,Chrome,1536,864,,,,,,,,,,,,,,,,,,,,,,,,,,,,,,,,,,,,,,,,,,,,,,,,,,,,,,,,,,,,,,,,,,,,,,,,,,,,,,,,,,,,,,,,,,,,,,,,,,
4,0,4,0,1,27,2020-07-03_14h27.39.915,retriever_ti,2020.1.3,Win32,60,Chrome,1536,864,,,,,,,,,,,,,,,,,,,,,,,,,,,,,,,,,,,,,,,,,,,,,,,,,,,,,,,,,,,,,,,,,,,,,,,,,,,,,,,,,,,,,,,,,,,,,,,,,,
5,0,5,0,1,27,2020-07-03_14h27.39.915,retriever_ti,2020.1.3,Win32,60,Chrome,1536,864,,,,,,,,,,,,,,,,,,,,,,,,,,,,,,,,,,,,,,,,,,,,,,,,,,,,,,,,,,,,,,,,,,,,,,,,,,,,,,,,,,,,,,,,,,,,,,,,,,
6,0,6,0,1,27,2020-07-03_14h27.39.915,retriever_ti,2020.1.3,Win32,60,Chrome,1536,864,,,,,,,,,,,,,,,,,,,,,,,,,,,,,,,,,,,,,,,,,,,,,,,,,,,,,,,,,,,,,,,,,,,,,,,,,,,,,,,,,,,,,,,,,,,,,,,,,,
7,0,7,0,1,27,2020-07-03_14h27.39.915,retriever_ti,2020.1.3,Win32,60,Chrome,1536,864,,,,,,,,,,,,,,,,,,,,,,,,,,,,,,,,,,,,,,,,,,,,,,,,,,,,,,,,,,,,,,,,,,,,,,,,,,,,,,,,,,,,,,,,,,,,,,,,,,
8,0,8,0,1,27,2020-07-03_14h27.39.915,retriever_ti,2020.1.3,Win32,60,Chrome,1536,864,,,,,,,,,,,,,,,,,,,,,,,,,,,,,,,,,,,,,,,,,,,,,,,,,,,,,,,,,,,,,,,,,,,,,,,,,,,,,,,,,,,,,,,,,,,,,,,,,,
9,0,9,0,1,27,2020-07-03_14h27.39.915,retriever_ti,2020.1.3,Win32,60,Chrome,1536,864,,,,,,,,,,,,,,,,,,,,,,,,,,,,,,,,,,,,,,,,,,,,,,,,,,,,,,,,,,,,,,,,,,,,,,,,,,,,,,,,,,,,,,,,,,,,,,,,,,
10,0,10,0,1,27,2020-07-03_14h27.39.915,retriever_ti,2020.1.3,Win32,60,Chrome,1536,864,,,,,,,,,,,,,,,,,,,,,,,,,,,,,,,,,,,,,,,,,,,,,,,,,,,,,,,,,,,,,,,,,,,,,,,,,,,,,,,,,,,,,,,,,,,,,,,,,,
11,0,11,0,1,27,2020-07-03_14h27.39.915,retriever_ti,2020.1.3,Win32,60,Chrome,1536,864,,,,,,,,,,,,,,,,,,,,,,,,,,,,,,,,,,,,,,,,,,,,,,,,,,,,,,,,,,,,,,,,,,,,,,,,,,,,,,,,,,,,,,,,,,,,,,,,,,
12,0,12,0,1,27,2020-07-03_14h27.39.915,retriever_ti,2020.1.3,Win32,60,Chrome,1536,864,,,,,,,,,,,,,,,,,,,,,,,,,,,,,,,,,,,,,,,,,,,,,,,,,,,,,,,,,,,,,,,,,,,,,,,,,,,,,,,,,,,,,,,,,,,,,,,,,,
13,0,13,0,1,27,2020-07-03_14h27.39.915,retriever_ti,2020.1.3,Win32,60,Chrome,1536,864,,,,,,,,,,,,,,,,,,,,,,,,,,,,,,,,,,,,,,,,,,,,,,,,,,,,,,,,,,,,,,,,,,,,,,,,,,,,,,,,,,,,,,,,,,,,,,,,,,
14,0,14,0,1,27,2020-07-03_14h27.39.915,retriever_ti,2020.1.3,Win32,60,Chrome,1536,864,,,,,,,,,,,,,,,,,,,,,,,,,,,,,,,,,,,,,,,,,,,,,,,,,,,,,,,,,,,,,,,,,,,,,,,,,,,,,,,,,,,,,,,,,,,,,,,,,,
15,0,15,0,1,27,2020-07-03_14h27.39.915,retriever_ti,2020.1.3,Win32,60,Chrome,1536,864,,,,,,,,,,,,,,,,,,,,,,,,,,,,,,,,,,,,,,,,,,,,,,,,,,,,,,,,,,,,,,,,,,,,,,,,,,,,,,,,,,,,,,,,,,,,,,,,,,
16,0,16,0,1,27,2020-07-03_14h27.39.915,retriever_ti,2020.1.3,Win32,60,Chrome,1536,864,,,,,,,,,,,,,,,,,,,,,,,,,,,,,,,,,,,,,,,,,,,,,,,,,,,,,,,,,,,,,,,,,,,,,,,,,,,,,,,,,,,,,,,,,,,,,,,,,,
,,,,,27,2020-07-03_14h27.39.915,retriever_ti,2020.1.3,Win32,60,Chrome,1536,864,1704.43852,1,right,2.101405,canary,1,1704.458165,1704.458165,1706.955355,0,0,0,0,1,2,5,1,html/resources/stimuli_practice_decision/04_beetle.jpg,html/resources/stimuli_practice_decision/02_canary.jpg,beetle,canary,,,,,,,,,,,,,,,,,,,,,,,,,,,,,,,,,,,,,,,,,,,,,,,,,,,,,,,,,,,,,,,,,,,,,,,,,,,,,
,,,,,27,2020-07-03_14h27.39.915,retriever_ti,2020.1.3,Win32,60,Chrome,1536,864,1707.49587,2,NaN,NaN,No_response,2,1707.52278,1707.52278,1710.03759,0,1,1,1,1,4,3,1,html/resources/stimuli_practice_decision/01_rabbit.jpg,html/resources/stimuli_practice_decision/07_sock.jpg,rabbit,sock,,,,,,,,,,,,,,,,,,,,,,,,,,,,,,,,,,,,,,,,,,,,,,,,,,,,,,,,,,,,,,,,,,,,,,,,,,,,,
,,,,,27,2020-07-03_14h27.39.915,retriever_ti,2020.1.3,Win32,60,Chrome,1536,864,1710.55464,3,left,1.10301,pullover,1,1710.57236,1710.57236,1713.069995,0,2,2,2,1,6,2,1,html/resources/stimuli_practice_decision/06_pullover.jpg,html/resources/stimuli_practice_decision/04_beetle.jpg,pullover,beetle,,,,,,,,,,,,,,,,,,,,,,,,,,,,,,,,,,,,,,,,,,,,,,,,,,,,,,,,,,,,,,,,,,,,,,,,,,,,,
,,,,,27,2020-07-03_14h27.39.915,retriever_ti,2020.1.3,Win32,60,Chrome,1536,864,1713.57093,4,right,0.977955,handmixer,0,1713.60416,1713.60416,1716.103475,0,3,3,3,1,7,1,1,html/resources/stimuli_practice_decision/05_glasses.jpg,html/resources/stimuli_practice_decision/08_handmixer.jpg,glasses,handmixer,,,,,,,,,,,,,,,,,,,,,,,,,,,,,,,,,,,,,,,,,,,,,,,,,,,,,,,,,,,,,,,,,,,,,,,,,,,,,
,,,,,27,2020-07-03_14h27.39.915,retriever_ti,2020.1.3,Win32,60,Chrome,1536,864,1716.620485,5,left,0.751245,glasses,1,1716.63807,1716.63807,1719.136355,0,4,4,4,1,7,6,1,html/resources/stimuli_practice_decision/05_glasses.jpg,html/resources/stimuli_practice_decision/06_pullover.jpg,glasses,pullover,,,,,,,,,,,,,,,,,,,,,,,,,,,,,,,,,,,,,,,,,,,,,,,,,,,,,,,,,,,,,,,,,,,,,,,,,,,,,
,,,,,27,2020-07-03_14h27.39.915,retriever_ti,2020.1.3,Win32,60,Chrome,1536,864,1720.13677,6,right,0.98247,glasses,1,1720.154025,1720.154025,1722.651705,0,5,5,5,1,4,7,1,html/resources/stimuli_practice_decision/01_rabbit.jpg,html/resources/stimuli_practice_decision/05_glasses.jpg,rabbit,glasses,,,,,,,,,,,,,,,,,,,,,,,,,,,,,,,,,,,,,,,,,,,,,,,,,,,,,,,,,,,,,,,,,,,,,,,,,,,,,
,,,,,27,2020-07-03_14h27.39.915,retriever_ti,2020.1.3,Win32,60,Chrome,1536,864,1723.168755,7,left,1.176645,handmixer,0,1723.18592,1723.18592,1725.68535,0,6,6,6,1,1,2,1,html/resources/stimuli_practice_decision/08_handmixer.jpg,html/resources/stimuli_practice_decision/04_beetle.jpg,handmixer,beetle,,,,,,,,,,,,,,,,,,,,,,,,,,,,,,,,,,,,,,,,,,,,,,,,,,,,,,,,,,,,,,,,,,,,,,,,,,,,,
,,,,,27,2020-07-03_14h27.39.915,retriever_ti,2020.1.3,Win32,60,Chrome,1536,864,1726.68478,8,left,1.61894,rabbit,1,1726.7194,1726.7194,1729.21693,0,7,7,7,1,4,3,1,html/resources/stimuli_practice_decision/01_rabbit.jpg,html/resources/stimuli_practice_decision/07_sock.jpg,rabbit,sock,,,,,,,,,,,,,,,,,,,,,,,,,,,,,,,,,,,,,,,,,,,,,,,,,,,,,,,,,,,,,,,,,,,,,,,,,,,,,
,,,,,27,2020-07-03_14h27.39.915,retriever_ti,2020.1.3,Win32,60,Chrome,1536,864,,,,,,,,,,,,,,,,,,,,,,down,1,3.634175,1,0,0,0,3,1,html/resources/sequences_IDs/triangle.png,star ↑,square →,triangle ↓,← circle,down,,,,,,,,,,,,,,,,,,,,,,,,,,,,,,,,,,,,,,,,,,,,,,,,,,,,,,,,,,,,,,
,,,,,27,2020-07-03_14h27.39.915,retriever_ti,2020.1.3,Win32,60,Chrome,1536,864,,,,,,,,,,,,,,,,,,,,,,left,1,1.995655,1,0,1,1,2,1,html/resources/sequences_IDs/square1.png,star ↑,triangle →,circle ↓,← square,left,,,,,,,,,,,,,,,,,,,,,,,,,,,,,,,,,,,,,,,,,,,,,,,,,,,,,,,,,,,,,,
,,,,,27,2020-07-03_14h27.39.915,retriever_ti,2020.1.3,Win32,60,Chrome,1536,864,,,,,,,,,,,,,,,,,,,,,,down,1,1.599075,1,0,2,2,1,1,html/resources/sequences_IDs/star.png,square ↑,circle →,star ↓,← triangle,down,,,,,,,,,,,,,,,,,,,,,,,,,,,,,,,,,,,,,,,,,,,,,,,,,,,,,,,,,,,,,,
,,,,,27,2020-07-03_14h27.39.915,retriever_ti,2020.1.3,Win32,60,Chrome,1536,864,,,,,,,,,,,,,,,,,,,,,,up,1,2.613745,1,0,3,3,0,1,html/resources/sequences_IDs/circle.png,circle ↑,square →,triangle ↓,← star ,up,,,,,,,,,,,,,,,,,,,,,,,,,,,,,,,,,,,,,,,,,,,,,,,,,,,,,,,,,,,,,,
,,,,,27,2020-07-03_14h27.39.915,retriever_ti,2020.1.3,Win32,60,Chrome,1536,864,,,,,,,,,,,,,,,,,,,,,,,,,,,,,,,,,,,,,0,9.464945,0,0,0,0,1,,,,,,,,,,,,,,,,,,,,,,,,,,,,,,,,,,,,,,,,,,,,,,,,,,,,,,,
,,,,,27,2020-07-03_14h27.39.915,retriever_ti,2020.1.3,Win32,60,Chrome,1536,864,1754.630225,9,right,1.358895,glasses,1,1754.64586,1754.64586,1757.145185,0,0,0,0,1,6,7,1,html/resources/stimuli_practice_decision/06_pullover.jpg,html/resources/stimuli_practice_decision/05_glasses.jpg,pullover,glasses,,,,,,,,,,,,,,,,,,,,,,,,,,,,,,,,,,,,,,,,,,,,,,,,,,,,,,,,,,,,,,,,,,,,,,,,,,,,,
,,,,,27,2020-07-03_14h27.39.915,retriever_ti,2020.1.3,Win32,60,Chrome,1536,864,1758.146015,10,left,1.243595,pullover,1,1758.163255,1758.163255,1760.66077,0,1,1,1,1,6,2,1,html/resources/stimuli_practice_decision/06_pullover.jpg,html/resources/stimuli_practice_decision/04_beetle.jpg,pullover,beetle,,,,,,,,,,,,,,,,,,,,,,,,,,,,,,,,,,,,,,,,,,,,,,,,,,,,,,,,,,,,,,,,,,,,,,,,,,,,,
,,,,,27,2020-07-03_14h27.39.915,retriever_ti,2020.1.3,Win32,60,Chrome,1536,864,1761.17747,11,right,1.1149,pullover,1,1761.19485,1761.19485,1763.693395,0,2,2,2,1,5,6,1,html/resources/stimuli_practice_decision/02_canary.jpg,html/resources/stimuli_practice_decision/06_pullover.jpg,canary,pullover,,,,,,,,,,,,,,,,,,,,,,,,,,,,,,,,,,,,,,,,,,,,,,,,,,,,,,,,,,,,,,,,,,,,,,,,,,,,,
,,,,,27,2020-07-03_14h27.39.915,retriever_ti,2020.1.3,Win32,60,Chrome,1536,864,1764.69423,12,right,1.420745,glasses,0,1764.710805,1764.710805,1767.20961,0,3,3,3,1,8,7,1,html/resources/stimuli_practice_decision/03_squirrel.jpg,html/resources/stimuli_practice_decision/05_glasses.jpg,squirrel,glasses,,,,,,,,,,,,,,,,,,,,,,,,,,,,,,,,,,,,,,,,,,,,,,,,,,,,,,,,,,,,,,,,,,,,,,,,,,,,,
,,,,,27,2020-07-03_14h27.39.915,retriever_ti,2020.1.3,Win32,60,Chrome,1536,864,1768.210495,13,right,1.25575,sock,0,1768.22756,1768.22756,1770.72635,0,4,4,4,1,5,3,1,html/resources/stimuli_practice_decision/02_canary.jpg,html/resources/stimuli_practice_decision/07_sock.jpg,canary,sock,,,,,,,,,,,,,,,,,,,,,,,,,,,,,,,,,,,,,,,,,,,,,,,,,,,,,,,,,,,,,,,,,,,,,,,,,,,,,
,,,,,27,2020-07-03_14h27.39.915,retriever_ti,2020.1.3,Win32,60,Chrome,1536,864,1771.24322,14,left,0.8482,glasses,0,1771.26053,1771.26053,1773.75852,0,5,5,5,1,7,8,1,html/resources/stimuli_practice_decision/05_glasses.jpg,html/resources/stimuli_practice_decision/03_squirrel.jpg,glasses,squirrel,,,,,,,,,,,,,,,,,,,,,,,,,,,,,,,,,,,,,,,,,,,,,,,,,,,,,,,,,,,,,,,,,,,,,,,,,,,,,
,,,,,27,2020-07-03_14h27.39.915,retriever_ti,2020.1.3,Win32,60,Chrome,1536,864,1774.759135,15,right,1.711265,rabbit,0,1774.79304,1774.79304,1777.291065,0,6,6,6,1,5,4,1,html/resources/stimuli_practice_decision/02_canary.jpg,html/resources/stimuli_practice_decision/01_rabbit.jpg,canary,rabbit,,,,,,,,,,,,,,,,,,,,,,,,,,,,,,,,,,,,,,,,,,,,,,,,,,,,,,,,,,,,,,,,,,,,,,,,,,,,,
,,,,,27,2020-07-03_14h27.39.915,retriever_ti,2020.1.3,Win32,60,Chrome,1536,864,1778.291765,16,right,1.503325,sock,0,1778.30902,1778.30902,1780.807195,0,7,7,7,1,5,3,1,html/resources/stimuli_practice_decision/02_canary.jpg,html/resources/stimuli_practice_decision/07_sock.jpg,canary,sock,,,,,,,,,,,,,,,,,,,,,,,,,,,,,,,,,,,,,,,,,,,,,,,,,,,,,,,,,,,,,,,,,,,,,,,,,,,,,
,,,,,27,2020-07-03_14h27.39.915,retriever_ti,2020.1.3,Win32,60,Chrome,1536,864,,,,,,,,,,,,,,,,,,,,,,left,1,3.21002,1,0,0,0,2,1,html/resources/sequences_IDs/square1.png,star ↑,triangle →,circle ↓,← square,left,,,,,,,,,,,,,,,,,,,,,,,,,,,,,,,,,,,,,,,,,,,,,,,,,,,,,,,,,,,,,,
,,,,,27,2020-07-03_14h27.39.915,retriever_ti,2020.1.3,Win32,60,Chrome,1536,864,,,,,,,,,,,,,,,,,,,,,,down,1,1.558465,1,0,1,1,1,1,html/resources/sequences_IDs/star.png,square ↑,circle →,star ↓,← triangle,down,,,,,,,,,,,,,,,,,,,,,,,,,,,,,,,,,,,,,,,,,,,,,,,,,,,,,,,,,,,,,,
,,,,,27,2020-07-03_14h27.39.915,retriever_ti,2020.1.3,Win32,60,Chrome,1536,864,,,,,,,,,,,,,,,,,,,,,,down,1,1.79358,1,0,2,2,3,1,html/resources/sequences_IDs/triangle.png,star ↑,square →,triangle ↓,← circle,down,,,,,,,,,,,,,,,,,,,,,,,,,,,,,,,,,,,,,,,,,,,,,,,,,,,,,,,,,,,,,,
,,,,,27,2020-07-03_14h27.39.915,retriever_ti,2020.1.3,Win32,60,Chrome,1536,864,,,,,,,,,,,,,,,,,,,,,,up,1,1.281735,1,0,3,3,0,1,html/resources/sequences_IDs/circle.png,circle ↑,square →,triangle ↓,← star ,up,,,,,,,,,,,,,,,,,,,,,,,,,,,,,,,,,,,,,,,,,,,,,,,,,,,,,,,,,,,,,,
,,,,,27,2020-07-03_14h27.39.915,retriever_ti,2020.1.3,Win32,60,Chrome,1536,864,,,,,,,,,,,,,,,,,,,,,,,,,,,,,,,,,,,,,0,1.615315,1,0,1,0,1,,,,,,,,,,,,,,,,,,,,,,,,,,,,,,,,,,,,,,,,,,,,,,,,,,,,,,,
,,,,,27,2020-07-03_14h27.39.915,retriever_ti,2020.1.3,Win32,60,Chrome,1536,864,,,,,,,,,,,,,,,,,1,,,,,,,,,,,,,,,,,,,,,,,,,,,1827.756765,1,right,1.15724,wolf          ,6,1,-1,0,0,1827.76664,1827.76664,1830.26495,0,0,0,0,1,1,7,6,gloves      ,wolf          ,html/resources/sequences_IDs/B/06_gloves.jpg,html/resources/sequences_IDs/A/01_wolf.jpg,6,1,3,2,1,1,5,1,0,27,,,,,,,,,,,,,,,,,,,,
,,,,,27,2020-07-03_14h27.39.915,retriever_ti,2020.1.3,Win32,60,Chrome,1536,864,,,,,,,,,,,,,,,,,1,,,,,,,,,,,,,,,,,,,,,,,,,,,1831.3644,2,left,1.07531,camel         ,2,3,1,1,1,1831.39769,1831.39769,1833.896985,0,1,1,1,1,2,2,1,camel         ,holdfast    ,html/resources/sequences_IDs/A/03_camel.jpg,html/resources/sequences_IDs/B/04_holdfast.jpg,3,4,1,1,2,1,3,4,0,27,,,,,,,,,,,,,,,,,,,,
,,,,,27,2020-07-03_14h27.39.915,retriever_ti,2020.1.3,Win32,60,Chrome,1536,864,,,,,,,,,,,,,,,,,1,,,,,,,,,,,,,,,,,,,,,,,,,,,1834.997455,3,right,0.99971,hat           ,8,8,2,1,3,1835.03152,1835.03152,1837.52964,0,2,2,2,1,3,6,8,wolf          ,hat           ,html/resources/sequences_IDs/A/01_wolf.jpg,html/resources/sequences_IDs/A/08_hat.jpg,1,8,1,1,3,2,1,6,0,27,,,,,,,,,,,,,,,,,,,,
,,,,,27,2020-07-03_14h27.39.915,retriever_ti,2020.1.3,Win32,60,Chrome,1536,864,,,,,,,,,,,,,,,,,1,,,,,,,,,,,,,,,,,,,,,,,,,,,1838.146705,4,right,0.941235,radio       ,3,10,1,1,1,1838.1806,1838.1806,1840.6787,0,3,3,3,1,4,2,3,camel         ,radio       ,html/resources/sequences_IDs/A/03_camel.jpg,html/resources/sequences_IDs/B/10_radio.jpg,3,10,1,1,4,2,3,8,0,27,,,,,,,,,,,,,,,,,,,,
,,,,,27,2020-07-03_14h27.39.915,retriever_ti,2020.1.3,Win32,60,Chrome,1536,864,,,,,,,,,,,,,,,,,1,,,,,,,,,,,,,,,,,,,,,,,,,,,1841.779185,5,right,1.23337,camel         ,2,3,-4,0,3,1841.81323,1841.81323,1844.311175,0,4,4,4,1,5,6,2,wolf          ,camel         ,html/resources/sequences_IDs/A/01_wolf.jpg,html/resources/sequences_IDs/A/03_camel.jpg,1,3,1,1,1,1,1,3,0,27,,,,,,,,,,,,,,,,,,,,
,,,,,27,2020-07-03_14h27.39.915,retriever_ti,2020.1.3,Win32,60,Chrome,1536,864,,,,,,,,,,,,,,,,,1,,,,,,,,,,,,,,,,,,,,,,,,,,,1844.928155,6,right,1.34065,gloves      ,7,6,2,1,3,1844.9455,1844.9455,1847.44367,0,5,5,5,1,6,5,7,dolphin     ,gloves      ,html/resources/sequences_IDs/B/02_dolphin.jpg,html/resources/sequences_IDs/B/06_gloves.jpg,2,6,1,1,3,2,2,5,0,27,,,,,,,,,,,,,,,,,,,,
,,,,,27,2020-07-03_14h27.39.915,retriever_ti,2020.1.3,Win32,60,Chrome,1536,864,,,,,,,,,,,,,,,,,1,,,,,,,,,,,,,,,,,,,,,,,,,,,1848.06115,7,right,0.977345,calculator    ,4,9,2,1,3,1848.077965,1848.077965,1850.576785,0,6,6,6,1,7,2,4,camel         ,calculator    ,html/resources/sequences_IDs/A/03_camel.jpg,html/resources/sequences_IDs/A/09_calculator.jpg,3,9,1,1,4,2,3,7,0,27,,,,,,,,,,,,,,,,,,,,
,,,,,27,2020-07-03_14h27.39.915,retriever_ti,2020.1.3,Win32,60,Chrome,1536,864,,,,,,,,,,,,,,,,,1,,,,,,,,,,,,,,,,,,,,,,,,,,,1851.19377,8,left,1.2273,radio       ,3,10,-4,0,3,1851.211205,1851.211205,1853.709325,0,7,7,7,1,8,3,7,radio       ,gloves      ,html/resources/sequences_IDs/B/10_radio.jpg,html/resources/sequences_IDs/B/06_gloves.jpg,10,6,4,2,3,2,8,5,0,27,,,,,,,,,,,,,,,,,,,,
,,,,,27,2020-07-03_14h27.39.915,retriever_ti,2020.1.3,Win32,60,Chrome,1536,864,,,,,,,,,,,,,,,,,1,,,,,,,,,,,,,,,,,,,,,,,,,,,1854.32699,9,right,0.89392,gloves      ,7,6,6,1,3,1854.36011,1854.36011,1856.85883,0,8,8,8,1,9,1,7,holdfast    ,gloves      ,html/resources/sequences_IDs/B/04_holdfast.jpg,html/resources/sequences_IDs/B/06_gloves.jpg,4,6,2,1,3,2,4,5,0,27,,,,,,,,,,,,,,,,,,,,
,,,,,27,2020-07-03_14h27.39.915,retriever_ti,2020.1.3,Win32,60,Chrome,1536,864,,,,,,,,,,,,,,,,,1,,,,,,,,,,,,,,,,,,,,,,,,,,,1857.476135,10,right,1.03329,gloves      ,7,6,1,1,1,1857.51058,1857.51058,1860.007985,0,9,9,9,1,10,6,7,wolf          ,gloves      ,html/resources/sequences_IDs/A/01_wolf.jpg,html/resources/sequences_IDs/B/06_gloves.jpg,1,6,1,1,3,2,1,5,0,27,,,,,,,,,,,,,,,,,,,,
,,,,,27,2020-07-03_14h27.39.915,retriever_ti,2020.1.3,Win32,60,Chrome,1536,864,,,,,,,,,,,,,,,,,1,,,,,,,,,,,,,,,,,,,,,,,,,,,1861.10854,11,right,1.022885,radio       ,3,10,2,1,3,1861.141815,1861.141815,1863.64037,0,10,10,10,1,11,1,3,holdfast    ,radio       ,html/resources/sequences_IDs/B/04_holdfast.jpg,html/resources/sequences_IDs/B/10_radio.jpg,4,10,2,1,4,2,4,8,0,27,,,,,,,,,,,,,,,,,,,,
,,,,,27,2020-07-03_14h27.39.915,retriever_ti,2020.1.3,Win32,60,Chrome,1536,864,,,,,,,,,,,,,,,,,1,,,,,,,,,,,,,,,,,,,,,,,,,,,1864.258755,12,left,1.346285,dolphin     ,5,2,-1,0,0,1864.29119,1864.29119,1866.78992,0,11,11,11,1,12,5,6,dolphin     ,wolf          ,html/resources/sequences_IDs/B/02_dolphin.jpg,html/resources/sequences_IDs/A/01_wolf.jpg,2,1,1,1,1,1,2,1,0,27,,,,,,,,,,,,,,,,,,,,
,,,,,27,2020-07-03_14h27.39.915,retriever_ti,2020.1.3,Win32,60,Chrome,1536,864,,,,,,,,,,,,,,,,,1,,,,,,,,,,,,,,,,,,,,,,,,,,,1867.890075,13,right,0.97401,wolf          ,6,1,5,1,3,1867.907365,1867.907365,1870.406195,0,12,12,12,1,13,1,6,holdfast    ,wolf          ,html/resources/sequences_IDs/B/04_holdfast.jpg,html/resources/sequences_IDs/A/01_wolf.jpg,4,1,2,1,1,1,4,1,0,27,,,,,,,,,,,,,,,,,,,,
,,,,,27,2020-07-03_14h27.39.915,retriever_ti,2020.1.3,Win32,60,Chrome,1536,864,,,,,,,,,,,,,,,,,1,,,,,,,,,,,,,,,,,,,,,,,,,,,1871.023745,14,left,0.964675,calculator    ,4,9,-1,0,0,1871.057745,1871.057745,1873.55549,0,13,13,13,1,14,4,5,calculator    ,dolphin     ,html/resources/sequences_IDs/A/09_calculator.jpg,html/resources/sequences_IDs/B/02_dolphin.jpg,9,2,4,2,1,1,7,2,0,27,,,,,,,,,,,,,,,,,,,,
,,,,,27,2020-07-03_14h27.39.915,retriever_ti,2020.1.3,Win32,60,Chrome,1536,864,,,,,,,,,,,,,,,,,1,,,,,,,,,,,,,,,,,,,,,,,,,,,1874.65636,15,right,1.41535,holdfast    ,1,4,-1,0,0,1874.68983,1874.68983,1877.188305,0,14,14,14,1,15,2,1,camel         ,holdfast    ,html/resources/sequences_IDs/A/03_camel.jpg,html/resources/sequences_IDs/B/04_holdfast.jpg,3,4,1,1,2,1,3,4,0,27,,,,,,,,,,,,,,,,,,,,
,,,,,27,2020-07-03_14h27.39.915,retriever_ti,2020.1.3,Win32,60,Chrome,1536,864,,,,,,,,,,,,,,,,,1,,,,,,,,,,,,,,,,,,,,,,,,,,,1878.289055,16,right,1.30789,holdfast    ,1,4,-4,0,3,1878.30609,1878.30609,1880.8039,0,15,15,15,1,16,5,1,dolphin     ,holdfast    ,html/resources/sequences_IDs/B/02_dolphin.jpg,html/resources/sequences_IDs/B/04_holdfast.jpg,2,4,1,1,2,1,2,4,0,27,,,,,,,,,,,,,,,,,,,,
,,,,,27,2020-07-03_14h27.39.915,retriever_ti,2020.1.3,Win32,60,Chrome,1536,864,,,,,,,,,,,,,,,,,1,,,,,,,,,,,,,,,,,,,,,,,,,,,1881.42084,17,right,1.01946,calculator    ,4,9,1,1,0,1881.454435,1881.454435,1883.953315,0,16,16,16,1,17,3,4,radio       ,calculator    ,html/resources/sequences_IDs/B/10_radio.jpg,html/resources/sequences_IDs/A/09_calculator.jpg,10,9,4,2,4,2,8,7,1,27,,,,,,,,,,,,,,,,,,,,
,,,,,27,2020-07-03_14h27.39.915,retriever_ti,2020.1.3,Win32,60,Chrome,1536,864,,,,,,,,,,,,,,,,,1,,,,,,,,,,,,,,,,,,,,,,,,,,,1885.053535,18,left,1.18671,dolphin     ,5,2,-1,0,1,1885.07053,1885.07053,1887.569485,0,17,17,17,1,18,5,6,dolphin     ,wolf          ,html/resources/sequences_IDs/B/02_dolphin.jpg,html/resources/sequences_IDs/A/01_wolf.jpg,2,1,1,1,1,1,2,1,1,27,,,,,,,,,,,,,,,,,,,,
,,,,,27,2020-07-03_14h27.39.915,retriever_ti,2020.1.3,Win32,60,Chrome,1536,864,,,,,,,,,,,,,,,,,1,,,,,,,,,,,,,,,,,,,,,,,,,,,1888.67088,19,right,1.57225,wolf          ,6,1,4,1,3,1888.68801,1888.68801,1891.185595,0,18,18,18,1,19,2,6,camel         ,wolf          ,html/resources/sequences_IDs/A/03_camel.jpg,html/resources/sequences_IDs/A/01_wolf.jpg,3,1,1,1,1,1,3,1,0,27,,,,,,,,,,,,,,,,,,,,
,,,,,27,2020-07-03_14h27.39.915,retriever_ti,2020.1.3,Win32,60,Chrome,1536,864,,,,,,,,,,,,,,,,,1,,,,,,,,,,,,,,,,,,,,,,,,,,,1891.802485,20,left,1.26412,calculator    ,4,9,-4,0,3,1891.8203,1891.8203,1894.31776,0,19,19,19,1,20,4,8,calculator    ,hat           ,html/resources/sequences_IDs/A/09_calculator.jpg,html/resources/sequences_IDs/A/08_hat.jpg,9,8,4,2,3,2,7,6,0,27,,,,,,,,,,,,,,,,,,,,
,,,,,27,2020-07-03_14h27.39.915,retriever_ti,2020.1.3,Win32,60,Chrome,1536,864,,,,,,,,,,,,,,,,,1,,,,,,,,,,,,,,,,,,,,,,,,,,,1894.9188,21,left,1.14836,calculator    ,4,9,-1,0,1,1894.93533,1894.93533,1897.434055,0,20,20,20,1,21,4,5,calculator    ,dolphin     ,html/resources/sequences_IDs/A/09_calculator.jpg,html/resources/sequences_IDs/B/02_dolphin.jpg,9,2,4,2,1,1,7,2,1,27,,,,,,,,,,,,,,,,,,,,
,,,,,27,2020-07-03_14h27.39.915,retriever_ti,2020.1.3,Win32,60,Chrome,1536,864,,,,,,,,,,,,,,,,,1,,,,,,,,,,,,,,,,,,,,,,,,,,,1898.53487,22,right,0.99511,camel         ,2,3,1,1,0,1898.551615,1898.551615,1901.04984,0,21,21,21,1,22,1,2,holdfast    ,camel         ,html/resources/sequences_IDs/B/04_holdfast.jpg,html/resources/sequences_IDs/A/03_camel.jpg,4,3,2,1,1,1,4,3,1,27,,,,,,,,,,,,,,,,,,,,
,,,,,27,2020-07-03_14h27.39.915,retriever_ti,2020.1.3,Win32,60,Chrome,1536,864,,,,,,,,,,,,,,,,,1,,,,,,,,,,,,,,,,,,,,,,,,,,,1902.15008,23,left,0.97892,dolphin     ,5,2,-3,0,3,1902.167115,1902.167115,1904.666185,0,22,22,22,1,23,5,8,dolphin     ,hat           ,html/resources/sequences_IDs/B/02_dolphin.jpg,html/resources/sequences_IDs/A/08_hat.jpg,2,8,1,1,3,2,2,6,0,27,,,,,,,,,,,,,,,,,,,,
,,,,,27,2020-07-03_14h27.39.915,retriever_ti,2020.1.3,Win32,60,Chrome,1536,864,,,,,,,,,,,,,,,,,1,,,,,,,,,,,,,,,,,,,,,,,,,,,1905.28341,24,right,1.22491,calculator    ,4,9,1,1,1,1905.30061,1905.30061,1907.798995,0,23,23,23,1,24,3,4,radio       ,calculator    ,html/resources/sequences_IDs/B/10_radio.jpg,html/resources/sequences_IDs/A/09_calculator.jpg,10,9,4,2,4,2,8,7,0,27,,,,,,,,,,,,,,,,,,,,
,,,,,27,2020-07-03_14h27.39.915,retriever_ti,2020.1.3,Win32,60,Chrome,1536,864,,,,,,,,,,,,,,,,,1,,,,,,,,,,,,,,,,,,,,,,,,,,,1908.8998,25,left,1.61176,holdfast    ,1,4,-1,0,0,1908.917035,1908.917035,1911.41444,0,24,24,24,1,25,1,2,holdfast    ,camel         ,html/resources/sequences_IDs/B/04_holdfast.jpg,html/resources/sequences_IDs/A/03_camel.jpg,4,3,2,1,1,1,4,3,0,27,,,,,,,,,,,,,,,,,,,,
,,,,,27,2020-07-03_14h27.39.915,retriever_ti,2020.1.3,Win32,60,Chrome,1536,864,,,,,,,,,,,,,,,,,1,,,,,,,,,,,,,,,,,,,,,,,,,,,1912.51497,26,right,2.30779,gloves      ,7,6,-1,0,0,1912.531735,1912.531735,1915.03082,0,25,25,25,1,26,8,7,hat           ,gloves      ,html/resources/sequences_IDs/A/08_hat.jpg,html/resources/sequences_IDs/B/06_gloves.jpg,8,6,3,2,3,2,6,5,0,27,,,,,,,,,,,,,,,,,,,,
,,,,,27,2020-07-03_14h27.39.915,retriever_ti,2020.1.3,Win32,60,Chrome,1536,864,,,,,,,,,,,,,,,,,1,,,,,,,,,,,,,,,,,,,,,,,,,,,1916.13165,27,left,1.05803,wolf          ,6,1,5,1,3,1916.165535,1916.165535,1918.66358,0,26,26,26,1,27,6,1,wolf          ,holdfast    ,html/resources/sequences_IDs/A/01_wolf.jpg,html/resources/sequences_IDs/B/04_holdfast.jpg,1,4,1,1,2,1,1,4,0,27,,,,,,,,,,,,,,,,,,,,
,,,,,27,2020-07-03_14h27.39.915,retriever_ti,2020.1.3,Win32,60,Chrome,1536,864,,,,,,,,,,,,,,,,,1,,,,,,,,,,,,,,,,,,,,,,,,,,,1919.28048,28,left,1.333865,gloves      ,7,6,2,1,3,1919.29796,1919.29796,1921.79594,0,27,27,27,1,28,7,5,gloves      ,dolphin     ,html/resources/sequences_IDs/B/06_gloves.jpg,html/resources/sequences_IDs/B/02_dolphin.jpg,6,2,3,2,1,1,5,2,0,27,,,,,,,,,,,,,,,,,,,,
,,,,,27,2020-07-03_14h27.39.915,retriever_ti,2020.1.3,Win32,60,Chrome,1536,864,,,,,,,,,,,,,,,,,1,,,,,,,,,,,,,,,,,,,,,,,,,,,1922.41283,29,right,0.83469,calculator    ,4,9,1,1,1,1922.44663,1922.44663,1924.945185,0,28,28,28,1,29,3,4,radio       ,calculator    ,html/resources/sequences_IDs/B/10_radio.jpg,html/resources/sequences_IDs/A/09_calculator.jpg,10,9,4,2,4,2,8,7,0,27,,,,,,,,,,,,,,,,,,,,
,,,,,27,2020-07-03_14h27.39.915,retriever_ti,2020.1.3,Win32,60,Chrome,1536,864,,,,,,,,,,,,,,,,,1,,,,,,,,,,,,,,,,,,,,,,,,,,,1926.045385,30,left,1.05991,radio       ,3,10,-2,0,3,1926.06262,1926.06262,1928.561805,0,29,29,29,1,30,3,5,radio       ,dolphin     ,html/resources/sequences_IDs/B/10_radio.jpg,html/resources/sequences_IDs/B/02_dolphin.jpg,10,2,4,2,1,1,8,2,0,27,,,,,,,,,,,,,,,,,,,,
,,,,,27,2020-07-03_14h27.39.915,retriever_ti,2020.1.3,Win32,60,Chrome,1536,864,,,,,,,,,,,,,,,,,1,,,,,,,,,,,,,,,,,,,,,,,,,,,1929.179,31,left,0.982645,gloves      ,7,6,5,1,3,1929.19614,1929.19614,1931.69425,0,30,30,30,1,31,7,2,gloves      ,camel         ,html/resources/sequences_IDs/B/06_gloves.jpg,html/resources/sequences_IDs/A/03_camel.jpg,6,3,3,2,1,1,5,3,0,27,,,,,,,,,,,,,,,,,,,,
,,,,,27,2020-07-03_14h27.39.915,retriever_ti,2020.1.3,Win32,60,Chrome,1536,864,,,,,,,,,,,,,,,,,1,,,,,,,,,,,,,,,,,,,,,,,,,,,1932.311555,32,right,0.724405,calculator    ,4,9,-1,0,0,1932.328555,1932.328555,1934.826705,0,31,31,31,1,32,5,4,dolphin     ,calculator    ,html/resources/sequences_IDs/B/02_dolphin.jpg,html/resources/sequences_IDs/A/09_calculator.jpg,2,9,1,1,4,2,2,7,0,27,,,,,,,,,,,,,,,,,,,,
,,,,,27,2020-07-03_14h27.39.915,retriever_ti,2020.1.3,Win32,60,Chrome,1536,864,,,,,,,,,,,,,,,,,1,,,,,,,,,,,,,,,,,,,,,,,,,,,1935.926775,33,left,0.865935,calculator    ,4,9,-3,0,3,1935.960715,1935.960715,1938.45976,0,32,32,32,1,33,4,7,calculator    ,gloves      ,html/resources/sequences_IDs/A/09_calculator.jpg,html/resources/sequences_IDs/B/06_gloves.jpg,9,6,4,2,3,2,7,5,0,27,,,,,,,,,,,,,,,,,,,,
,,,,,27,2020-07-03_14h27.39.915,retriever_ti,2020.1.3,Win32,60,Chrome,1536,864,,,,,,,,,,,,,,,,,1,,,,,,,,,,,,,,,,,,,,,,,,,,,1939.07752,34,right,0.95444,dolphin     ,5,2,-3,0,3,1939.110865,1939.110865,1941.60867,0,33,33,33,1,34,8,5,hat           ,dolphin     ,html/resources/sequences_IDs/A/08_hat.jpg,html/resources/sequences_IDs/B/02_dolphin.jpg,8,2,3,2,1,1,6,2,0,27,,,,,,,,,,,,,,,,,,,,
,,,,,27,2020-07-03_14h27.39.915,retriever_ti,2020.1.3,Win32,60,Chrome,1536,864,,,,,,,,,,,,,,,,,1,,,,,,,,,,,,,,,,,,,,,,,,,,,1942.22566,35,left,0.91494,calculator    ,4,9,-1,0,0,1942.24247,1942.24247,1944.74176,0,34,34,34,1,35,4,5,calculator    ,dolphin     ,html/resources/sequences_IDs/A/09_calculator.jpg,html/resources/sequences_IDs/B/02_dolphin.jpg,9,2,4,2,1,1,7,2,0,27,,,,,,,,,,,,,,,,,,,,
,,,,,27,2020-07-03_14h27.39.915,retriever_ti,2020.1.3,Win32,60,Chrome,1536,864,,,,,,,,,,,,,,,,,1,,,,,,,,,,,,,,,,,,,,,,,,,,,1945.84208,36,right,1.36604,radio       ,3,10,-4,0,3,1945.87611,1945.87611,1948.37426,0,35,35,35,1,36,7,3,gloves      ,radio       ,html/resources/sequences_IDs/B/06_gloves.jpg,html/resources/sequences_IDs/B/10_radio.jpg,6,10,3,2,4,2,5,8,0,27,,,,,,,,,,,,,,,,,,,,
,,,,,27,2020-07-03_14h27.39.915,retriever_ti,2020.1.3,Win32,60,Chrome,1536,864,,,,,,,,,,,,,,,,,1,,,,,,,,,,,,,,,,,,,,,,,,,,,1948.99161,37,left,0.70794,gloves      ,7,6,6,1,3,1949.008845,1949.008845,1951.506695,0,36,36,36,1,37,7,1,gloves      ,holdfast    ,html/resources/sequences_IDs/B/06_gloves.jpg,html/resources/sequences_IDs/B/04_holdfast.jpg,6,4,3,2,2,1,5,4,0,27,,,,,,,,,,,,,,,,,,,,
,,,,,27,2020-07-03_14h27.39.915,retriever_ti,2020.1.3,Win32,60,Chrome,1536,864,,,,,,,,,,,,,,,,,1,,,,,,,,,,,,,,,,,,,,,,,,,,,1952.12362,38,left,0.97867,gloves      ,7,6,-1,0,0,1952.157865,1952.157865,1954.65645,0,37,37,37,1,38,7,8,gloves      ,hat           ,html/resources/sequences_IDs/B/06_gloves.jpg,html/resources/sequences_IDs/A/08_hat.jpg,6,8,3,2,3,2,5,6,0,27,,,,,,,,,,,,,,,,,,,,
,,,,,27,2020-07-03_14h27.39.915,retriever_ti,2020.1.3,Win32,60,Chrome,1536,864,,,,,,,,,,,,,,,,,1,,,,,,,,,,,,,,,,,,,,,,,,,,,1955.756795,39,left,0.83806,hat           ,8,8,7,1,3,1955.77443,1955.77443,1958.27217,0,38,38,38,1,39,8,1,hat           ,holdfast    ,html/resources/sequences_IDs/A/08_hat.jpg,html/resources/sequences_IDs/B/04_holdfast.jpg,8,4,3,2,2,1,6,4,0,27,,,,,,,,,,,,,,,,,,,,
,,,,,27,2020-07-03_14h27.39.915,retriever_ti,2020.1.3,Win32,60,Chrome,1536,864,,,,,,,,,,,,,,,,,1,,,,,,,,,,,,,,,,,,,,,,,,,,,1958.889365,40,left,0.826625,hat           ,8,8,6,1,3,1958.922845,1958.922845,1961.421845,0,39,39,39,1,40,8,2,hat           ,camel         ,html/resources/sequences_IDs/A/08_hat.jpg,html/resources/sequences_IDs/A/03_camel.jpg,8,3,3,2,1,1,6,3,0,27,,,,,,,,,,,,,,,,,,,,
,,,,,27,2020-07-03_14h27.39.915,retriever_ti,2020.1.3,Win32,60,Chrome,1536,864,,,,,,,,,,,,,,,,,1,,,,,,,,,,,,,,,,,,,,,,,,,,,1962.03888,41,left,1.25057,hat           ,8,8,4,1,3,1962.073205,1962.073205,1964.570615,0,40,40,40,1,41,8,4,hat           ,calculator    ,html/resources/sequences_IDs/A/08_hat.jpg,html/resources/sequences_IDs/A/09_calculator.jpg,8,9,3,2,4,2,6,7,0,27,,,,,,,,,,,,,,,,,,,,
,,,,,27,2020-07-03_14h27.39.915,retriever_ti,2020.1.3,Win32,60,Chrome,1536,864,,,,,,,,,,,,,,,,,1,,,,,,,,,,,,,,,,,,,,,,,,,,,1965.187905,42,right,1.1101,hat           ,8,8,1,1,1,1965.221195,1965.221195,1967.720435,0,41,41,41,1,42,7,8,gloves      ,hat           ,html/resources/sequences_IDs/B/06_gloves.jpg,html/resources/sequences_IDs/A/08_hat.jpg,6,8,3,2,3,2,5,6,0,27,,,,,,,,,,,,,,,,,,,,
,,,,,27,2020-07-03_14h27.39.915,retriever_ti,2020.1.3,Win32,60,Chrome,1536,864,,,,,,,,,,,,,,,,,1,,,,,,,,,,,,,,,,,,,,,,,,,,,1968.82116,43,right,1.34218,radio       ,3,10,-1,0,0,1968.83834,1968.83834,1971.336565,0,42,42,42,1,43,4,3,calculator    ,radio       ,html/resources/sequences_IDs/A/09_calculator.jpg,html/resources/sequences_IDs/B/10_radio.jpg,9,10,4,2,4,2,7,8,0,27,,,,,,,,,,,,,,,,,,,,
,,,,,27,2020-07-03_14h27.39.915,retriever_ti,2020.1.3,Win32,60,Chrome,1536,864,,,,,,,,,,,,,,,,,1,,,,,,,,,,,,,,,,,,,,,,,,,,,1972.43686,44,right,0.965115,radio       ,3,10,1,1,1,1972.470845,1972.470845,1974.96883,0,43,43,43,1,44,2,3,camel         ,radio       ,html/resources/sequences_IDs/A/03_camel.jpg,html/resources/sequences_IDs/B/10_radio.jpg,3,10,1,1,4,2,3,8,0,27,,,,,,,,,,,,,,,,,,,,
,,,,,27,2020-07-03_14h27.39.915,retriever_ti,2020.1.3,Win32,60,Chrome,1536,864,,,,,,,,,,,,,,,,,1,,,,,,,,,,,,,,,,,,,,,,,,,,,1976.069435,45,left,1.3838,wolf          ,6,1,3,1,3,1976.086795,1976.086795,1978.585105,0,44,44,44,1,45,6,3,wolf          ,radio       ,html/resources/sequences_IDs/A/01_wolf.jpg,html/resources/sequences_IDs/B/10_radio.jpg,1,10,1,1,4,2,1,8,0,27,,,,,,,,,,,,,,,,,,,,
,,,,,27,2020-07-03_14h27.39.915,retriever_ti,2020.1.3,Win32,60,Chrome,1536,864,,,,,,,,,,,,,,,,,1,,,,,,,,,,,,,,,,,,,,,,,,,,,1979.20238,46,right,1.20477,calculator    ,4,9,-3,0,3,1979.23631,1979.23631,1981.734575,0,45,45,45,1,46,7,4,gloves      ,calculator    ,html/resources/sequences_IDs/B/06_gloves.jpg,html/resources/sequences_IDs/A/09_calculator.jpg,6,9,3,2,4,2,5,7,0,27,,,,,,,,,,,,,,,,,,,,
,,,,,27,2020-07-03_14h27.39.915,retriever_ti,2020.1.3,Win32,60,Chrome,1536,864,,,,,,,,,,,,,,,,,1,,,,,,,,,,,,,,,,,,,,,,,,,,,1982.351885,47,left,1.078345,wolf          ,6,1,-1,0,0,1982.369065,1982.369065,1984.867045,0,46,46,46,1,47,6,7,wolf          ,gloves      ,html/resources/sequences_IDs/A/01_wolf.jpg,html/resources/sequences_IDs/B/06_gloves.jpg,1,6,1,1,3,2,1,5,0,27,,,,,,,,,,,,,,,,,,,,
,,,,,27,2020-07-03_14h27.39.915,retriever_ti,2020.1.3,Win32,60,Chrome,1536,864,,,,,,,,,,,,,,,,,1,,,,,,,,,,,,,,,,,,,,,,,,,,,1985.967535,48,left,0.897275,gloves      ,7,6,1,1,1,1986.001435,1986.001435,1988.499405,0,47,47,47,1,48,7,6,gloves      ,wolf          ,html/resources/sequences_IDs/B/06_gloves.jpg,html/resources/sequences_IDs/A/01_wolf.jpg,6,1,3,2,1,1,5,1,0,27,,,,,,,,,,,,,,,,,,,,
,,,,,27,2020-07-03_14h27.39.915,retriever_ti,2020.1.3,Win32,60,Chrome,1536,864,,,,,,,,,,,,,,,,,1,,,,,,,,,,,,,,,,,,,,,,,,,,,1989.59976,49,left,1.200425,dolphin     ,5,2,2,1,3,1989.61668,1989.61668,1992.11555,0,48,48,48,1,49,5,3,dolphin     ,radio       ,html/resources/sequences_IDs/B/02_dolphin.jpg,html/resources/sequences_IDs/B/10_radio.jpg,2,10,1,1,4,2,2,8,0,27,,,,,,,,,,,,,,,,,,,,
,,,,,27,2020-07-03_14h27.39.915,retriever_ti,2020.1.3,Win32,60,Chrome,1536,864,,,,,,,,,,,,,,,,,1,,,,,,,,,,,,,,,,,,,,,,,,,,,1992.733315,50,left,1.147875,hat           ,8,8,1,1,0,1992.74985,1992.74985,1995.248155,0,49,49,49,1,50,8,7,hat           ,gloves      ,html/resources/sequences_IDs/A/08_hat.jpg,html/resources/sequences_IDs/B/06_gloves.jpg,8,6,3,2,3,2,6,5,1,27,,,,,,,,,,,,,,,,,,,,
,,,,,27,2020-07-03_14h27.39.915,retriever_ti,2020.1.3,Win32,60,Chrome,1536,864,,,,,,,,,,,,,,,,,1,,,,,,,,,,,,,,,,,,,,,,,,,,,1996.3484,51,right,0.841835,camel         ,2,3,-3,0,3,1996.381935,1996.381935,1998.88058,0,50,50,50,1,51,5,2,dolphin     ,camel         ,html/resources/sequences_IDs/B/02_dolphin.jpg,html/resources/sequences_IDs/A/03_camel.jpg,2,3,1,1,1,1,2,3,0,27,,,,,,,,,,,,,,,,,,,,
,,,,,27,2020-07-03_14h27.39.915,retriever_ti,2020.1.3,Win32,60,Chrome,1536,864,,,,,,,,,,,,,,,,,1,,,,,,,,,,,,,,,,,,,,,,,,,,,1999.4976,52,left,0.816335,calculator    ,4,9,-2,0,3,1999.53143,1999.53143,2002.030715,0,51,51,51,1,52,4,6,calculator    ,wolf          ,html/resources/sequences_IDs/A/09_calculator.jpg,html/resources/sequences_IDs/A/01_wolf.jpg,9,1,4,2,1,1,7,1,0,27,,,,,,,,,,,,,,,,,,,,
,,,,,27,2020-07-03_14h27.39.915,retriever_ti,2020.1.3,Win32,60,Chrome,1536,864,,,,,,,,,,,,,,,,,1,,,,,,,,,,,,,,,,,,,,,,,,,,,2002.64802,53,right,0.857865,dolphin     ,5,2,4,1,3,2002.66496,2002.66496,2005.163175,0,52,52,52,1,53,1,5,holdfast    ,dolphin     ,html/resources/sequences_IDs/B/04_holdfast.jpg,html/resources/sequences_IDs/B/02_dolphin.jpg,4,2,2,1,1,1,4,2,0,27,,,,,,,,,,,,,,,,,,,,
,,,,,27,2020-07-03_14h27.39.915,retriever_ti,2020.1.3,Win32,60,Chrome,1536,864,,,,,,,,,,,,,,,,,1,,,,,,,,,,,,,,,,,,,,,,,,,,,2005.780315,54,right,0.982305,dolphin     ,5,2,3,1,3,2005.814355,2005.814355,2008.31229,0,53,53,53,1,54,2,5,camel         ,dolphin     ,html/resources/sequences_IDs/A/03_camel.jpg,html/resources/sequences_IDs/B/02_dolphin.jpg,3,2,1,1,1,1,3,2,0,27,,,,,,,,,,,,,,,,,,,,
,,,,,27,2020-07-03_14h27.39.915,retriever_ti,2020.1.3,Win32,60,Chrome,1536,864,,,,,,,,,,,,,,,,,1,,,,,,,,,,,,,,,,,,,,,,,,,,,2008.93036,55,right,0.73278,calculator    ,4,9,-2,0,3,2008.94762,2008.94762,2011.44556,0,54,54,54,1,55,6,4,wolf          ,calculator    ,html/resources/sequences_IDs/A/01_wolf.jpg,html/resources/sequences_IDs/A/09_calculator.jpg,1,9,1,1,4,2,1,7,0,27,,,,,,,,,,,,,,,,,,,,
,,,,,27,2020-07-03_14h27.39.915,retriever_ti,2020.1.3,Win32,60,Chrome,1536,864,,,,,,,,,,,,,,,,,1,,,,,,,,,,,,,,,,,,,,,,,,,,,2012.062535,56,left,0.663365,radio       ,3,10,2,1,3,2012.080295,2012.080295,2014.577855,0,55,55,55,1,56,3,1,radio       ,holdfast    ,html/resources/sequences_IDs/B/10_radio.jpg,html/resources/sequences_IDs/B/04_holdfast.jpg,10,4,4,2,2,1,8,4,0,27,,,,,,,,,,,,,,,,,,,,
,,,,,27,2020-07-03_14h27.39.915,retriever_ti,2020.1.3,Win32,60,Chrome,1536,864,,,,,,,,,,,,,,,,,1,,,,,,,,,,,,,,,,,,,,,,,,,,,2015.19538,57,left,1.0428,hat           ,8,8,1,1,1,2015.212655,2015.212655,2017.711015,0,56,56,56,1,57,8,7,hat           ,gloves      ,html/resources/sequences_IDs/A/08_hat.jpg,html/resources/sequences_IDs/B/06_gloves.jpg,8,6,3,2,3,2,6,5,0,27,,,,,,,,,,,,,,,,,,,,
,,,,,27,2020-07-03_14h27.39.915,retriever_ti,2020.1.3,Win32,60,Chrome,1536,864,,,,,,,,,,,,,,,,,1,,,,,,,,,,,,,,,,,,,,,,,,,,,2018.81128,58,left,0.98111,holdfast    ,1,4,-7,0,3,2018.82825,2018.82825,2021.326275,0,57,57,57,1,58,1,8,holdfast    ,hat           ,html/resources/sequences_IDs/B/04_holdfast.jpg,html/resources/sequences_IDs/A/08_hat.jpg,4,8,2,1,3,2,4,6,0,27,,,,,,,,,,,,,,,,,,,,
,,,,,27,2020-07-03_14h27.39.915,retriever_ti,2020.1.3,Win32,60,Chrome,1536,864,,,,,,,,,,,,,,,,,1,,,,,,,,,,,,,,,,,,,,,,,,,,,2021.927335,59,left,0.997755,hat           ,8,8,2,1,3,2021.961085,2021.961085,2024.459115,0,58,58,58,1,59,8,6,hat           ,wolf          ,html/resources/sequences_IDs/A/08_hat.jpg,html/resources/sequences_IDs/A/01_wolf.jpg,8,1,3,2,1,1,6,1,0,27,,,,,,,,,,,,,,,,,,,,
,,,,,27,2020-07-03_14h27.39.915,retriever_ti,2020.1.3,Win32,60,Chrome,1536,864,,,,,,,,,,,,,,,,,1,,,,,,,,,,,,,,,,,,,,,,,,,,,2025.07602,60,right,0.99939,camel         ,2,3,-2,0,3,2025.10952,2025.10952,2027.60832,0,59,59,59,1,60,4,2,calculator    ,camel         ,html/resources/sequences_IDs/A/09_calculator.jpg,html/resources/sequences_IDs/A/03_camel.jpg,9,3,4,2,1,1,7,3,0,27,,,,,,,,,,,,,,,,,,,,
,,,,,27,2020-07-03_14h27.39.915,retriever_ti,2020.1.3,Win32,60,Chrome,1536,864,,,,,,,,,,,,,,,,,1,,,,,,,,,,,,,,,,,,,,,,,,,,,2028.22566,61,right,0.919815,hat           ,8,8,5,1,3,2028.258925,2028.258925,2030.75788,0,60,60,60,1,61,3,8,radio       ,hat           ,html/resources/sequences_IDs/B/10_radio.jpg,html/resources/sequences_IDs/A/08_hat.jpg,10,8,4,2,3,2,8,6,0,27,,,,,,,,,,,,,,,,,,,,
,,,,,27,2020-07-03_14h27.39.915,retriever_ti,2020.1.3,Win32,60,Chrome,1536,864,,,,,,,,,,,,,,,,,1,,,,,,,,,,,,,,,,,,,,,,,,,,,2031.374455,62,left,0.686485,calculator    ,4,9,1,1,1,2031.391835,2031.391835,2033.89037,0,61,61,61,1,62,4,3,calculator    ,radio       ,html/resources/sequences_IDs/A/09_calculator.jpg,html/resources/sequences_IDs/B/10_radio.jpg,9,10,4,2,4,2,7,8,0,27,,,,,,,,,,,,,,,,,,,,
,,,,,27,2020-07-03_14h27.39.915,retriever_ti,2020.1.3,Win32,60,Chrome,1536,864,,,,,,,,,,,,,,,,,1,,,,,,,,,,,,,,,,,,,,,,,,,,,2034.99102,63,left,0.956375,calculator    ,4,9,3,1,3,2035.007715,2035.007715,2037.5071,0,62,62,62,1,63,4,1,calculator    ,holdfast    ,html/resources/sequences_IDs/A/09_calculator.jpg,html/resources/sequences_IDs/B/04_holdfast.jpg,9,4,4,2,2,1,7,4,0,27,,,,,,,,,,,,,,,,,,,,
,,,,,27,2020-07-03_14h27.39.915,retriever_ti,2020.1.3,Win32,60,Chrome,1536,864,,,,,,,,,,,,,,,,,1,,,,,,,,,,,,,,,,,,,,,,,,,,,2038.124085,64,right,0.998045,calculator    ,4,9,3,1,3,2038.15789,2038.15789,2040.65625,0,63,63,63,1,64,1,4,holdfast    ,calculator    ,html/resources/sequences_IDs/B/04_holdfast.jpg,html/resources/sequences_IDs/A/09_calculator.jpg,4,9,2,1,4,2,4,7,0,27,,,,,,,,,,,,,,,,,,,,
,,,,,27,2020-07-03_14h27.39.915,retriever_ti,2020.1.3,Win32,60,Chrome,1536,864,,,,,,,,,,,,,,,,,1,,,,,,,,,,,,,,,,,,,,,,,,,,,2041.2735,65,left,0.914565,radio       ,3,10,-3,0,3,2041.30727,2041.30727,2043.80563,0,64,64,64,1,65,3,6,radio       ,wolf          ,html/resources/sequences_IDs/B/10_radio.jpg,html/resources/sequences_IDs/A/01_wolf.jpg,10,1,4,2,1,1,8,1,0,27,,,,,,,,,,,,,,,,,,,,
,,,,,27,2020-07-03_14h27.39.915,retriever_ti,2020.1.3,Win32,60,Chrome,1536,864,,,,,,,,,,,,,,,,,1,,,,,,,,,,,,,,,,,,,,,,,,,,,2044.42298,66,left,1.147405,holdfast    ,1,4,-1,0,0,2044.456975,2044.456975,2046.95526,0,65,65,65,1,66,1,2,holdfast    ,camel         ,html/resources/sequences_IDs/B/04_holdfast.jpg,html/resources/sequences_IDs/A/03_camel.jpg,4,3,2,1,1,1,4,3,0,27,,,,,,,,,,,,,,,,,,,,
,,,,,27,2020-07-03_14h27.39.915,retriever_ti,2020.1.3,Win32,60,Chrome,1536,864,,,,,,,,,,,,,,,,,1,,,,,,,,,,,,,,,,,,,,,,,,,,,2048.055215,67,right,2.0281,camel         ,2,3,-1,0,0,2048.089285,2048.089285,2050.587575,0,66,66,66,1,67,3,2,radio       ,camel         ,html/resources/sequences_IDs/B/10_radio.jpg,html/resources/sequences_IDs/A/03_camel.jpg,10,3,4,2,1,1,8,3,0,27,,,,,,,,,,,,,,,,,,,,
,,,,,27,2020-07-03_14h27.39.915,retriever_ti,2020.1.3,Win32,60,Chrome,1536,864,,,,,,,,,,,,,,,,,1,,,,,,,,,,,,,,,,,,,,,,,,,,,2051.68831,68,right,1.53555,dolphin     ,5,2,-1,0,0,2051.70535,2051.70535,2054.20353,0,67,67,67,1,68,6,5,wolf          ,dolphin     ,html/resources/sequences_IDs/A/01_wolf.jpg,html/resources/sequences_IDs/B/02_dolphin.jpg,1,2,1,1,1,1,1,2,0,27,,,,,,,,,,,,,,,,,,,,
,,,,,27,2020-07-03_14h27.39.915,retriever_ti,2020.1.3,Win32,60,Chrome,1536,864,,,,,,,,,,,,,,,,,1,,,,,,,,,,,,,,,,,,,,,,,,,,,2055.30437,69,left,0.715305,radio       ,3,10,1,1,0,2055.33792,2055.33792,2057.83613,0,68,68,68,1,69,3,2,radio       ,camel         ,html/resources/sequences_IDs/B/10_radio.jpg,html/resources/sequences_IDs/A/03_camel.jpg,10,3,4,2,1,1,8,3,1,27,,,,,,,,,,,,,,,,,,,,
,,,,,27,2020-07-03_14h27.39.915,retriever_ti,2020.1.3,Win32,60,Chrome,1536,864,,,,,,,,,,,,,,,,,1,,,,,,,,,,,,,,,,,,,,,,,,,,,2058.93681,70,left,1.296135,camel         ,2,3,-5,0,3,2058.970565,2058.970565,2061.468725,0,69,69,69,1,70,2,7,camel         ,gloves      ,html/resources/sequences_IDs/A/03_camel.jpg,html/resources/sequences_IDs/B/06_gloves.jpg,3,6,1,1,3,2,3,5,0,27,,,,,,,,,,,,,,,,,,,,
,,,,,27,2020-07-03_14h27.39.915,retriever_ti,2020.1.3,Win32,60,Chrome,1536,864,,,,,,,,,,,,,,,,,1,,,,,,,,,,,,,,,,,,,,,,,,,,,2062.085995,71,right,1.219685,calculator    ,4,9,-1,0,0,2062.11998,2062.11998,2064.617635,0,70,70,70,1,71,5,4,dolphin     ,calculator    ,html/resources/sequences_IDs/B/02_dolphin.jpg,html/resources/sequences_IDs/A/09_calculator.jpg,2,9,1,1,4,2,2,7,0,27,,,,,,,,,,,,,,,,,,,,
,,,,,27,2020-07-03_14h27.39.915,retriever_ti,2020.1.3,Win32,60,Chrome,1536,864,,,,,,,,,,,,,,,,,1,,,,,,,,,,,,,,,,,,,,,,,,,,,2065.718125,72,left,1.040245,wolf          ,6,1,1,1,1,2065.73521,2065.73521,2068.23438,0,71,71,71,1,72,6,5,wolf          ,dolphin     ,html/resources/sequences_IDs/A/01_wolf.jpg,html/resources/sequences_IDs/B/02_dolphin.jpg,1,2,1,1,1,1,1,2,0,27,,,,,,,,,,,,,,,,,,,,
,,,,,27,2020-07-03_14h27.39.915,retriever_ti,2020.1.3,Win32,60,Chrome,1536,864,,,,,,,,,,,,,,,,,1,,,,,,,,,,,,,,,,,,,,,,,,,,,2069.33465,73,right,1.527285,radio       ,3,10,-5,0,3,2069.351765,2069.351765,2071.849605,0,72,72,72,1,73,8,3,hat           ,radio       ,html/resources/sequences_IDs/A/08_hat.jpg,html/resources/sequences_IDs/B/10_radio.jpg,8,10,3,2,4,2,6,8,0,27,,,,,,,,,,,,,,,,,,,,
,,,,,27,2020-07-03_14h27.39.915,retriever_ti,2020.1.3,Win32,60,Chrome,1536,864,,,,,,,,,,,,,,,,,1,,,,,,,,,,,,,,,,,,,,,,,,,,,2072.46681,74,left,1.173735,dolphin     ,5,2,-1,0,0,2072.483735,2072.483735,2074.98262,0,73,73,73,1,74,5,6,dolphin     ,wolf          ,html/resources/sequences_IDs/B/02_dolphin.jpg,html/resources/sequences_IDs/A/01_wolf.jpg,2,1,1,1,1,1,2,1,0,27,,,,,,,,,,,,,,,,,,,,
,,,,,27,2020-07-03_14h27.39.915,retriever_ti,2020.1.3,Win32,60,Chrome,1536,864,,,,,,,,,,,,,,,,,1,,,,,,,,,,,,,,,,,,,,,,,,,,,2076.08326,75,right,0.968745,wolf          ,6,1,-1,0,1,2076.100555,2076.100555,2078.598965,0,74,74,74,1,75,7,6,gloves      ,wolf          ,html/resources/sequences_IDs/B/06_gloves.jpg,html/resources/sequences_IDs/A/01_wolf.jpg,6,1,3,2,1,1,5,1,1,27,,,,,,,,,,,,,,,,,,,,
,,,,,27,2020-07-03_14h27.39.915,retriever_ti,2020.1.3,Win32,60,Chrome,1536,864,,,,,,,,,,,,,,,,,1,,,,,,,,,,,,,,,,,,,,,,,,,,,2079.69951,76,left,1.40237,radio       ,3,10,1,1,1,2079.716565,2079.716565,2082.214265,0,75,75,75,1,76,3,2,radio       ,camel         ,html/resources/sequences_IDs/B/10_radio.jpg,html/resources/sequences_IDs/A/03_camel.jpg,10,3,4,2,1,1,8,3,0,27,,,,,,,,,,,,,,,,,,,,
,,,,,27,2020-07-03_14h27.39.915,retriever_ti,2020.1.3,Win32,60,Chrome,1536,864,,,,,,,,,,,,,,,,,1,,,,,,,,,,,,,,,,,,,,,,,,,,,2083.314725,77,left,1.955105,camel         ,2,3,-6,0,3,2083.348185,2083.348185,2085.84686,0,76,76,76,1,77,2,8,camel         ,hat           ,html/resources/sequences_IDs/A/03_camel.jpg,html/resources/sequences_IDs/A/08_hat.jpg,3,8,1,1,3,2,3,6,0,27,,,,,,,,,,,,,,,,,,,,
,,,,,27,2020-07-03_14h27.39.915,retriever_ti,2020.1.3,Win32,60,Chrome,1536,864,,,,,,,,,,,,,,,,,,,,,,,,,,,,,,,,,,,,,0,3.95104,,,,,,,,,,,,,,,,,,,,,,,,,,,,,,,,,,,,,,,,,0,0,0,0,1,,,,,,,,,,,,,,,
,,,,,27,2020-07-03_14h27.39.915,retriever_ti,2020.1.3,Win32,60,Chrome,1536,864,,,,,,,,,,,,,,,,,2,,,,,,,,,,,,,,,,,,,,,,,,,,,2175.32745,78,right,1.48457,radio       ,3,10,-1,0,0,2175.346915,2175.346915,2177.84627,0,0,0,0,1,78,4,3,calculator    ,radio       ,html/resources/sequences_IDs/A/09_calculator.jpg,html/resources/sequences_IDs/B/10_radio.jpg,9,10,4,2,4,2,7,8,0,27,,,,,,,,,,,,,,,,,,,,
,,,,,27,2020-07-03_14h27.39.915,retriever_ti,2020.1.3,Win32,60,Chrome,1536,864,,,,,,,,,,,,,,,,,2,,,,,,,,,,,,,,,,,,,,,,,,,,,2178.94635,79,left,0.6392,calculator    ,4,9,-2,0,3,2178.980375,2178.980375,2181.478065,0,1,1,1,1,79,4,6,calculator    ,wolf          ,html/resources/sequences_IDs/A/09_calculator.jpg,html/resources/sequences_IDs/A/01_wolf.jpg,9,1,4,2,1,1,7,1,0,27,,,,,,,,,,,,,,,,,,,,
,,,,,27,2020-07-03_14h27.39.915,retriever_ti,2020.1.3,Win32,60,Chrome,1536,864,,,,,,,,,,,,,,,,,2,,,,,,,,,,,,,,,,,,,,,,,,,,,2182.09569,80,left,1.523175,hat           ,8,8,1,1,1,2182.12906,2182.12906,2184.627685,0,2,2,2,1,80,8,7,hat           ,gloves      ,html/resources/sequences_IDs/A/08_hat.jpg,html/resources/sequences_IDs/B/06_gloves.jpg,8,6,3,2,3,2,6,5,0,27,,,,,,,,,,,,,,,,,,,,
,,,,,27,2020-07-03_14h27.39.915,retriever_ti,2020.1.3,Win32,60,Chrome,1536,864,,,,,,,,,,,,,,,,,2,,,,,,,,,,,,,,,,,,,,,,,,,,,2185.728145,81,left,1.99739,dolphin     ,5,2,1,1,0,2185.74494,2185.74494,2188.24338,0,3,3,3,1,81,5,4,dolphin     ,calculator    ,html/resources/sequences_IDs/B/02_dolphin.jpg,html/resources/sequences_IDs/A/09_calculator.jpg,2,9,1,1,4,2,2,7,1,27,,,,,,,,,,,,,,,,,,,,
,,,,,27,2020-07-03_14h27.39.915,retriever_ti,2020.1.3,Win32,60,Chrome,1536,864,,,,,,,,,,,,,,,,,2,,,,,,,,,,,,,,,,,,,,,,,,,,,2189.343715,82,left,0.734555,hat           ,8,8,6,1,3,2189.360605,2189.360605,2191.860075,0,4,4,4,1,82,8,2,hat           ,camel         ,html/resources/sequences_IDs/A/08_hat.jpg,html/resources/sequences_IDs/A/03_camel.jpg,8,3,3,2,1,1,6,3,0,27,,,,,,,,,,,,,,,,,,,,
,,,,,27,2020-07-03_14h27.39.915,retriever_ti,2020.1.3,Win32,60,Chrome,1536,864,,,,,,,,,,,,,,,,,2,,,,,,,,,,,,,,,,,,,,,,,,,,,2192.476995,83,left,1.2887,wolf          ,6,1,-1,0,1,2192.49423,2192.49423,2194.99234,0,5,5,5,1,83,6,7,wolf          ,gloves      ,html/resources/sequences_IDs/A/01_wolf.jpg,html/resources/sequences_IDs/B/06_gloves.jpg,1,6,1,1,3,2,1,5,1,27,,,,,,,,,,,,,,,,,,,,
,,,,,27,2020-07-03_14h27.39.915,retriever_ti,2020.1.3,Win32,60,Chrome,1536,864,,,,,,,,,,,,,,,,,2,,,,,,,,,,,,,,,,,,,,,,,,,,,2196.09277,84,left,1.59343,wolf          ,6,1,2,1,3,2196.109855,2196.109855,2198.608055,0,6,6,6,1,84,6,4,wolf          ,calculator    ,html/resources/sequences_IDs/A/01_wolf.jpg,html/resources/sequences_IDs/A/09_calculator.jpg,1,9,1,1,4,2,1,7,0,27,,,,,,,,,,,,,,,,,,,,
,,,,,27,2020-07-03_14h27.39.915,retriever_ti,2020.1.3,Win32,60,Chrome,1536,864,,,,,,,,,,,,,,,,,2,,,,,,,,,,,,,,,,,,,,,,,,,,,2199.225525,85,left,1.19834,wolf          ,6,1,4,1,3,2199.242325,2199.242325,2201.740995,0,7,7,7,1,85,6,2,wolf          ,camel         ,html/resources/sequences_IDs/A/01_wolf.jpg,html/resources/sequences_IDs/A/03_camel.jpg,1,3,1,1,1,1,1,3,0,27,,,,,,,,,,,,,,,,,,,,
,,,,,27,2020-07-03_14h27.39.915,retriever_ti,2020.1.3,Win32,60,Chrome,1536,864,,,,,,,,,,,,,,,,,2,,,,,,,,,,,,,,,,,,,,,,,,,,,2202.3578,86,left,1.234075,camel         ,2,3,-1,0,1,2202.37467,2202.37467,2204.873905,0,8,8,8,1,86,2,3,camel         ,radio       ,html/resources/sequences_IDs/A/03_camel.jpg,html/resources/sequences_IDs/B/10_radio.jpg,3,10,1,1,4,2,3,8,1,27,,,,,,,,,,,,,,,,,,,,
,,,,,27,2020-07-03_14h27.39.915,retriever_ti,2020.1.3,Win32,60,Chrome,1536,864,,,,,,,,,,,,,,,,,2,,,,,,,,,,,,,,,,,,,,,,,,,,,2205.97444,87,right,2.184025,wolf          ,6,1,-1,0,0,2206.00849,2206.00849,2208.50636,0,9,9,9,1,87,7,6,gloves      ,wolf          ,html/resources/sequences_IDs/B/06_gloves.jpg,html/resources/sequences_IDs/A/01_wolf.jpg,6,1,3,2,1,1,5,1,0,27,,,,,,,,,,,,,,,,,,,,
,,,,,27,2020-07-03_14h27.39.915,retriever_ti,2020.1.3,Win32,60,Chrome,1536,864,,,,,,,,,,,,,,,,,2,,,,,,,,,,,,,,,,,,,,,,,,,,,2209.60716,88,left,0.97461,calculator    ,4,9,3,1,3,2209.64095,2209.64095,2212.139555,0,10,10,10,1,88,4,1,calculator    ,holdfast    ,html/resources/sequences_IDs/A/09_calculator.jpg,html/resources/sequences_IDs/B/04_holdfast.jpg,9,4,4,2,2,1,7,4,0,27,,,,,,,,,,,,,,,,,,,,
,,,,,27,2020-07-03_14h27.39.915,retriever_ti,2020.1.3,Win32,60,Chrome,1536,864,,,,,,,,,,,,,,,,,2,,,,,,,,,,,,,,,,,,,,,,,,,,,2212.75648,89,left,1.043825,radio       ,3,10,1,1,1,2212.774085,2212.774085,2215.27144,0,11,11,11,1,89,3,2,radio       ,camel         ,html/resources/sequences_IDs/B/10_radio.jpg,html/resources/sequences_IDs/A/03_camel.jpg,10,3,4,2,1,1,8,3,0,27,,,,,,,,,,,,,,,,,,,,
,,,,,27,2020-07-03_14h27.39.915,retriever_ti,2020.1.3,Win32,60,Chrome,1536,864,,,,,,,,,,,,,,,,,2,,,,,,,,,,,,,,,,,,,,,,,,,,,2216.37209,90,left,1.526335,holdfast    ,1,4,-1,0,0,2216.405235,2216.405235,2218.90454,0,12,12,12,1,90,1,2,holdfast    ,camel         ,html/resources/sequences_IDs/B/04_holdfast.jpg,html/resources/sequences_IDs/A/03_camel.jpg,4,3,2,1,1,1,4,3,0,27,,,,,,,,,,,,,,,,,,,,
,,,,,27,2020-07-03_14h27.39.915,retriever_ti,2020.1.3,Win32,60,Chrome,1536,864,,,,,,,,,,,,,,,,,2,,,,,,,,,,,,,,,,,,,,,,,,,,,2220.00544,91,left,1.62786,calculator    ,4,9,1,1,1,2220.038915,2220.038915,2222.5366,0,13,13,13,1,91,4,3,calculator    ,radio       ,html/resources/sequences_IDs/A/09_calculator.jpg,html/resources/sequences_IDs/B/10_radio.jpg,9,10,4,2,4,2,7,8,0,27,,,,,,,,,,,,,,,,,,,,
,,,,,27,2020-07-03_14h27.39.915,retriever_ti,2020.1.3,Win32,60,Chrome,1536,864,,,,,,,,,,,,,,,,,2,,,,,,,,,,,,,,,,,,,,,,,,,,,2223.63738,92,right,1.83216,holdfast    ,1,4,-1,0,1,2223.670525,2223.670525,2226.169495,0,14,14,14,1,92,2,1,camel         ,holdfast    ,html/resources/sequences_IDs/A/03_camel.jpg,html/resources/sequences_IDs/B/04_holdfast.jpg,3,4,1,1,2,1,3,4,1,27,,,,,,,,,,,,,,,,,,,,
,,,,,27,2020-07-03_14h27.39.915,retriever_ti,2020.1.3,Win32,60,Chrome,1536,864,,,,,,,,,,,,,,,,,2,,,,,,,,,,,,,,,,,,,,,,,,,,,2227.270045,93,left,1.77815,wolf          ,6,1,3,1,3,2227.286655,2227.286655,2229.78579,0,15,15,15,1,93,6,3,wolf          ,radio       ,html/resources/sequences_IDs/A/01_wolf.jpg,html/resources/sequences_IDs/B/10_radio.jpg,1,10,1,1,4,2,1,8,0,27,,,,,,,,,,,,,,,,,,,,
,,,,,27,2020-07-03_14h27.39.915,retriever_ti,2020.1.3,Win32,60,Chrome,1536,864,,,,,,,,,,,,,,,,,2,,,,,,,,,,,,,,,,,,,,,,,,,,,2230.402715,94,right,1.676635,holdfast    ,1,4,-1,0,0,2230.420245,2230.420245,2232.91855,0,16,16,16,1,94,2,1,camel         ,holdfast    ,html/resources/sequences_IDs/A/03_camel.jpg,html/resources/sequences_IDs/B/04_holdfast.jpg,3,4,1,1,2,1,3,4,0,27,,,,,,,,,,,,,,,,,,,,
,,,,,27,2020-07-03_14h27.39.915,retriever_ti,2020.1.3,Win32,60,Chrome,1536,864,,,,,,,,,,,,,,,,,2,,,,,,,,,,,,,,,,,,,,,,,,,,,2234.01894,95,left,1.530275,dolphin     ,5,2,2,1,3,2234.03652,2234.03652,2236.53435,0,17,17,17,1,95,5,3,dolphin     ,radio       ,html/resources/sequences_IDs/B/02_dolphin.jpg,html/resources/sequences_IDs/B/10_radio.jpg,2,10,1,1,4,2,2,8,0,27,,,,,,,,,,,,,,,,,,,,
,,,,,27,2020-07-03_14h27.39.915,retriever_ti,2020.1.3,Win32,60,Chrome,1536,864,,,,,,,,,,,,,,,,,2,,,,,,,,,,,,,,,,,,,,,,,,,,,2237.15152,96,right,1.80252,calculator    ,4,9,3,1,3,2237.18536,2237.18536,2239.6833,0,18,18,18,1,96,1,4,holdfast    ,calculator    ,html/resources/sequences_IDs/B/04_holdfast.jpg,html/resources/sequences_IDs/A/09_calculator.jpg,4,9,2,1,4,2,4,7,0,27,,,,,,,,,,,,,,,,,,,,
,,,,,27,2020-07-03_14h27.39.915,retriever_ti,2020.1.3,Win32,60,Chrome,1536,864,,,,,,,,,,,,,,,,,2,,,,,,,,,,,,,,,,,,,,,,,,,,,2240.300695,97,right,1.59848,wolf          ,6,1,-1,0,0,2240.317845,2240.317845,2242.816435,0,19,19,19,1,97,7,6,gloves      ,wolf          ,html/resources/sequences_IDs/B/06_gloves.jpg,html/resources/sequences_IDs/A/01_wolf.jpg,6,1,3,2,1,1,5,1,0,27,,,,,,,,,,,,,,,,,,,,
,,,,,27,2020-07-03_14h27.39.915,retriever_ti,2020.1.3,Win32,60,Chrome,1536,864,,,,,,,,,,,,,,,,,2,,,,,,,,,,,,,,,,,,,,,,,,,,,2243.9169,98,left,1.60975,dolphin     ,5,2,1,1,1,2243.93428,2243.93428,2246.432245,0,20,20,20,1,98,5,4,dolphin     ,calculator    ,html/resources/sequences_IDs/B/02_dolphin.jpg,html/resources/sequences_IDs/A/09_calculator.jpg,2,9,1,1,4,2,2,7,0,27,,,,,,,,,,,,,,,,,,,,
,,,,,27,2020-07-03_14h27.39.915,retriever_ti,2020.1.3,Win32,60,Chrome,1536,864,,,,,,,,,,,,,,,,,2,,,,,,,,,,,,,,,,,,,,,,,,,,,2247.532645,99,right,2.22915,dolphin     ,5,2,1,1,1,2247.56618,2247.56618,2250.0649,0,21,21,21,1,99,4,5,calculator    ,dolphin     ,html/resources/sequences_IDs/A/09_calculator.jpg,html/resources/sequences_IDs/B/02_dolphin.jpg,9,2,4,2,1,1,7,2,0,27,,,,,,,,,,,,,,,,,,,,
,,,,,27,2020-07-03_14h27.39.915,retriever_ti,2020.1.3,Win32,60,Chrome,1536,864,,,,,,,,,,,,,,,,,2,,,,,,,,,,,,,,,,,,,,,,,,,,,2251.16556,100,left,1.926685,radio       ,3,10,-1,0,0,2251.183255,2251.183255,2253.681055,0,22,22,22,1,100,3,4,radio       ,calculator    ,html/resources/sequences_IDs/B/10_radio.jpg,html/resources/sequences_IDs/A/09_calculator.jpg,10,9,4,2,4,2,8,7,0,27,,,,,,,,,,,,,,,,,,,,
,,,,,27,2020-07-03_14h27.39.915,retriever_ti,2020.1.3,Win32,60,Chrome,1536,864,,,,,,,,,,,,,,,,,2,,,,,,,,,,,,,,,,,,,,,,,,,,,2254.781645,101,right,1.644445,dolphin     ,5,2,3,1,3,2254.815455,2254.815455,2257.31364,0,23,23,23,1,101,2,5,camel         ,dolphin     ,html/resources/sequences_IDs/A/03_camel.jpg,html/resources/sequences_IDs/B/02_dolphin.jpg,3,2,1,1,1,1,3,2,0,27,,,,,,,,,,,,,,,,,,,,
,,,,,27,2020-07-03_14h27.39.915,retriever_ti,2020.1.3,Win32,60,Chrome,1536,864,,,,,,,,,,,,,,,,,2,,,,,,,,,,,,,,,,,,,,,,,,,,,2257.93052,102,left,2.365995,camel         ,2,3,-6,0,3,2257.964025,2257.964025,2260.46311,0,24,24,24,1,102,2,8,camel         ,hat           ,html/resources/sequences_IDs/A/03_camel.jpg,html/resources/sequences_IDs/A/08_hat.jpg,3,8,1,1,3,2,3,6,0,27,,,,,,,,,,,,,,,,,,,,
,,,,,27,2020-07-03_14h27.39.915,retriever_ti,2020.1.3,Win32,60,Chrome,1536,864,,,,,,,,,,,,,,,,,2,,,,,,,,,,,,,,,,,,,,,,,,,,,2261.08021,103,right,2.08692,camel         ,2,3,-3,0,3,2261.097515,2261.097515,2263.59532,0,25,25,25,1,103,5,2,dolphin     ,camel         ,html/resources/sequences_IDs/B/02_dolphin.jpg,html/resources/sequences_IDs/A/03_camel.jpg,2,3,1,1,1,1,2,3,0,27,,,,,,,,,,,,,,,,,,,,
,,,,,27,2020-07-03_14h27.39.915,retriever_ti,2020.1.3,Win32,60,Chrome,1536,864,,,,,,,,,,,,,,,,,2,,,,,,,,,,,,,,,,,,,,,,,,,,,2264.212645,104,left,1.86021,dolphin     ,5,2,1,1,1,2264.246335,2264.246335,2266.744875,0,26,26,26,1,104,5,4,dolphin     ,calculator    ,html/resources/sequences_IDs/B/02_dolphin.jpg,html/resources/sequences_IDs/A/09_calculator.jpg,2,9,1,1,4,2,2,7,0,27,,,,,,,,,,,,,,,,,,,,
,,,,,27,2020-07-03_14h27.39.915,retriever_ti,2020.1.3,Win32,60,Chrome,1536,864,,,,,,,,,,,,,,,,,2,,,,,,,,,,,,,,,,,,,,,,,,,,,2267.845255,105,left,1.445845,wolf          ,6,1,1,1,0,2267.861915,2267.861915,2270.36085,0,27,27,27,1,105,6,5,wolf          ,dolphin     ,html/resources/sequences_IDs/A/01_wolf.jpg,html/resources/sequences_IDs/B/02_dolphin.jpg,1,2,1,1,1,1,1,2,1,27,,,,,,,,,,,,,,,,,,,,
,,,,,27,2020-07-03_14h27.39.915,retriever_ti,2020.1.3,Win32,60,Chrome,1536,864,,,,,,,,,,,,,,,,,2,,,,,,,,,,,,,,,,,,,,,,,,,,,2271.46122,106,left,1.393955,camel         ,2,3,-4,0,3,2271.47785,2271.47785,2273.97697,0,28,28,28,1,106,2,6,camel         ,wolf          ,html/resources/sequences_IDs/A/03_camel.jpg,html/resources/sequences_IDs/A/01_wolf.jpg,3,1,1,1,1,1,3,1,0,27,,,,,,,,,,,,,,,,,,,,
,,,,,27,2020-07-03_14h27.39.915,retriever_ti,2020.1.3,Win32,60,Chrome,1536,864,,,,,,,,,,,,,,,,,2,,,,,,,,,,,,,,,,,,,,,,,,,,,2274.59416,107,right,1.352845,camel         ,2,3,-5,0,3,2274.611635,2274.611635,2277.109275,0,29,29,29,1,107,7,2,gloves      ,camel         ,html/resources/sequences_IDs/B/06_gloves.jpg,html/resources/sequences_IDs/A/03_camel.jpg,6,3,3,2,1,1,5,3,0,27,,,,,,,,,,,,,,,,,,,,
,,,,,27,2020-07-03_14h27.39.915,retriever_ti,2020.1.3,Win32,60,Chrome,1536,864,,,,,,,,,,,,,,,,,2,,,,,,,,,,,,,,,,,,,,,,,,,,,2277.72675,108,right,1.651115,calculator    ,4,9,-4,0,3,2277.74368,2277.74368,2280.242585,0,30,30,30,1,108,8,4,hat           ,calculator    ,html/resources/sequences_IDs/A/08_hat.jpg,html/resources/sequences_IDs/A/09_calculator.jpg,8,9,3,2,4,2,6,7,0,27,,,,,,,,,,,,,,,,,,,,
,,,,,27,2020-07-03_14h27.39.915,retriever_ti,2020.1.3,Win32,60,Chrome,1536,864,,,,,,,,,,,,,,,,,2,,,,,,,,,,,,,,,,,,,,,,,,,,,2280.85968,109,left,1.404195,holdfast    ,1,4,-6,0,3,2280.87699,2280.87699,2283.375575,0,31,31,31,1,109,1,7,holdfast    ,gloves      ,html/resources/sequences_IDs/B/04_holdfast.jpg,html/resources/sequences_IDs/B/06_gloves.jpg,4,6,2,1,3,2,4,5,0,27,,,,,,,,,,,,,,,,,,,,
,,,,,27,2020-07-03_14h27.39.915,retriever_ti,2020.1.3,Win32,60,Chrome,1536,864,,,,,,,,,,,,,,,,,2,,,,,,,,,,,,,,,,,,,,,,,,,,,2283.99296,110,right,0.900415,radio       ,3,10,1,1,1,2284.01013,2284.01013,2286.508295,0,32,32,32,1,110,2,3,camel         ,radio       ,html/resources/sequences_IDs/A/03_camel.jpg,html/resources/sequences_IDs/B/10_radio.jpg,3,10,1,1,4,2,3,8,0,27,,,,,,,,,,,,,,,,,,,,
,,,,,27,2020-07-03_14h27.39.915,retriever_ti,2020.1.3,Win32,60,Chrome,1536,864,,,,,,,,,,,,,,,,,2,,,,,,,,,,,,,,,,,,,,,,,,,,,2287.608455,111,left,1.08106,dolphin     ,5,2,4,1,3,2287.625665,2287.625665,2290.12363,0,33,33,33,1,111,5,1,dolphin     ,holdfast    ,html/resources/sequences_IDs/B/02_dolphin.jpg,html/resources/sequences_IDs/B/04_holdfast.jpg,2,4,1,1,2,1,2,4,0,27,,,,,,,,,,,,,,,,,,,,
,,,,,27,2020-07-03_14h27.39.915,retriever_ti,2020.1.3,Win32,60,Chrome,1536,864,,,,,,,,,,,,,,,,,2,,,,,,,,,,,,,,,,,,,,,,,,,,,2290.74099,112,right,0.75813,hat           ,8,8,1,1,1,2290.775245,2290.775245,2293.27341,0,34,34,34,1,112,7,8,gloves      ,hat           ,html/resources/sequences_IDs/B/06_gloves.jpg,html/resources/sequences_IDs/A/08_hat.jpg,6,8,3,2,3,2,5,6,0,27,,,,,,,,,,,,,,,,,,,,
,,,,,27,2020-07-03_14h27.39.915,retriever_ti,2020.1.3,Win32,60,Chrome,1536,864,,,,,,,,,,,,,,,,,2,,,,,,,,,,,,,,,,,,,,,,,,,,,2294.37361,113,left,0.526915,hat           ,8,8,5,1,3,2294.40727,2294.40727,2296.90606,0,35,35,35,1,113,8,3,hat           ,radio       ,html/resources/sequences_IDs/A/08_hat.jpg,html/resources/sequences_IDs/B/10_radio.jpg,8,10,3,2,4,2,6,8,0,27,,,,,,,,,,,,,,,,,,,,
,,,,,27,2020-07-03_14h27.39.915,retriever_ti,2020.1.3,Win32,60,Chrome,1536,864,,,,,,,,,,,,,,,,,2,,,,,,,,,,,,,,,,,,,,,,,,,,,2297.52319,114,right,1.06121,calculator    ,4,9,-3,0,3,2297.540465,2297.540465,2300.038165,0,36,36,36,1,114,7,4,gloves      ,calculator    ,html/resources/sequences_IDs/B/06_gloves.jpg,html/resources/sequences_IDs/A/09_calculator.jpg,6,9,3,2,4,2,5,7,0,27,,,,,,,,,,,,,,,,,,,,
,,,,,27,2020-07-03_14h27.39.915,retriever_ti,2020.1.3,Win32,60,Chrome,1536,864,,,,,,,,,,,,,,,,,2,,,,,,,,,,,,,,,,,,,,,,,,,,,2300.655215,115,right,0.888245,hat           ,8,8,7,1,3,2300.672355,2300.672355,2303.1716,0,37,37,37,1,115,1,8,holdfast    ,hat           ,html/resources/sequences_IDs/B/04_holdfast.jpg,html/resources/sequences_IDs/A/08_hat.jpg,4,8,2,1,3,2,4,6,0,27,,,,,,,,,,,,,,,,,,,,
,,,,,27,2020-07-03_14h27.39.915,retriever_ti,2020.1.3,Win32,60,Chrome,1536,864,,,,,,,,,,,,,,,,,2,,,,,,,,,,,,,,,,,,,,,,,,,,,2303.78965,116,left,1.1825,gloves      ,7,6,6,1,3,2303.824155,2303.824155,2306.320605,0,38,38,38,1,116,7,1,gloves      ,holdfast    ,html/resources/sequences_IDs/B/06_gloves.jpg,html/resources/sequences_IDs/B/04_holdfast.jpg,6,4,3,2,2,1,5,4,0,27,,,,,,,,,,,,,,,,,,,,
,,,,,27,2020-07-03_14h27.39.915,retriever_ti,2020.1.3,Win32,60,Chrome,1536,864,,,,,,,,,,,,,,,,,2,,,,,,,,,,,,,,,,,,,,,,,,,,,2306.937175,117,left,1.15833,wolf          ,6,1,-1,0,0,2306.97136,2306.97136,2309.46986,0,39,39,39,1,117,6,7,wolf          ,gloves      ,html/resources/sequences_IDs/A/01_wolf.jpg,html/resources/sequences_IDs/B/06_gloves.jpg,1,6,1,1,3,2,1,5,0,27,,,,,,,,,,,,,,,,,,,,
,,,,,27,2020-07-03_14h27.39.915,retriever_ti,2020.1.3,Win32,60,Chrome,1536,864,,,,,,,,,,,,,,,,,2,,,,,,,,,,,,,,,,,,,,,,,,,,,2310.57023,118,left,1.23513,calculator    ,4,9,2,1,3,2310.586935,2310.586935,2313.08678,0,40,40,40,1,118,4,2,calculator    ,camel         ,html/resources/sequences_IDs/A/09_calculator.jpg,html/resources/sequences_IDs/A/03_camel.jpg,9,3,4,2,1,1,7,3,0,27,,,,,,,,,,,,,,,,,,,,
,,,,,27,2020-07-03_14h27.39.915,retriever_ti,2020.1.3,Win32,60,Chrome,1536,864,,,,,,,,,,,,,,,,,2,,,,,,,,,,,,,,,,,,,,,,,,,,,2313.70534,119,right,1.335885,dolphin     ,5,2,-3,0,3,2313.722585,2313.722585,2316.21861,0,41,41,41,1,119,8,5,hat           ,dolphin     ,html/resources/sequences_IDs/A/08_hat.jpg,html/resources/sequences_IDs/B/02_dolphin.jpg,8,2,3,2,1,1,6,2,0,27,,,,,,,,,,,,,,,,,,,,
,,,,,27,2020-07-03_14h27.39.915,retriever_ti,2020.1.3,Win32,60,Chrome,1536,864,,,,,,,,,,,,,,,,,2,,,,,,,,,,,,,,,,,,,,,,,,,,,2316.819375,120,left,1.180055,wolf          ,6,1,1,1,1,2316.83681,2316.83681,2319.33486,0,42,42,42,1,120,6,5,wolf          ,dolphin     ,html/resources/sequences_IDs/A/01_wolf.jpg,html/resources/sequences_IDs/B/02_dolphin.jpg,1,2,1,1,1,1,1,2,0,27,,,,,,,,,,,,,,,,,,,,
,,,,,27,2020-07-03_14h27.39.915,retriever_ti,2020.1.3,Win32,60,Chrome,1536,864,,,,,,,,,,,,,,,,,2,,,,,,,,,,,,,,,,,,,,,,,,,,,2320.43563,121,left,1.405875,hat           ,8,8,2,1,3,2320.452765,2320.452765,2322.950545,0,43,43,43,1,121,8,6,hat           ,wolf          ,html/resources/sequences_IDs/A/08_hat.jpg,html/resources/sequences_IDs/A/01_wolf.jpg,8,1,3,2,1,1,6,1,0,27,,,,,,,,,,,,,,,,,,,,
,,,,,27,2020-07-03_14h27.39.915,retriever_ti,2020.1.3,Win32,60,Chrome,1536,864,,,,,,,,,,,,,,,,,2,,,,,,,,,,,,,,,,,,,,,,,,,,,2323.56791,122,right,1.07694,camel         ,2,3,1,1,1,2323.58458,2323.58458,2326.08319,0,44,44,44,1,122,1,2,holdfast    ,camel         ,html/resources/sequences_IDs/B/04_holdfast.jpg,html/resources/sequences_IDs/A/03_camel.jpg,4,3,2,1,1,1,4,3,0,27,,,,,,,,,,,,,,,,,,,,
,,,,,27,2020-07-03_14h27.39.915,retriever_ti,2020.1.3,Win32,60,Chrome,1536,864,,,,,,,,,,,,,,,,,2,,,,,,,,,,,,,,,,,,,,,,,,,,,2327.184185,123,left,0.771075,radio       ,3,10,1,1,1,2327.217295,2327.217295,2329.7163,0,45,45,45,1,123,3,2,radio       ,camel         ,html/resources/sequences_IDs/B/10_radio.jpg,html/resources/sequences_IDs/A/03_camel.jpg,10,3,4,2,1,1,8,3,0,27,,,,,,,,,,,,,,,,,,,,
,,,,,27,2020-07-03_14h27.39.915,retriever_ti,2020.1.3,Win32,60,Chrome,1536,864,,,,,,,,,,,,,,,,,2,,,,,,,,,,,,,,,,,,,,,,,,,,,2330.81657,124,right,1.294415,gloves      ,7,6,2,1,3,2330.83406,2330.83406,2333.332375,0,46,46,46,1,124,5,7,dolphin     ,gloves      ,html/resources/sequences_IDs/B/02_dolphin.jpg,html/resources/sequences_IDs/B/06_gloves.jpg,2,6,1,1,3,2,2,5,0,27,,,,,,,,,,,,,,,,,,,,
,,,,,27,2020-07-03_14h27.39.915,retriever_ti,2020.1.3,Win32,60,Chrome,1536,864,,,,,,,,,,,,,,,,,2,,,,,,,,,,,,,,,,,,,,,,,,,,,2333.94928,125,right,0.81996,calculator    ,4,9,2,1,3,2333.983635,2333.983635,2336.48087,0,47,47,47,1,125,2,4,camel         ,calculator    ,html/resources/sequences_IDs/A/03_camel.jpg,html/resources/sequences_IDs/A/09_calculator.jpg,3,9,1,1,4,2,3,7,0,27,,,,,,,,,,,,,,,,,,,,
,,,,,27,2020-07-03_14h27.39.915,retriever_ti,2020.1.3,Win32,60,Chrome,1536,864,,,,,,,,,,,,,,,,,2,,,,,,,,,,,,,,,,,,,,,,,,,,,2337.081355,126,left,1.333095,camel         ,2,3,1,1,1,2337.09833,2337.09833,2339.59725,0,48,48,48,1,126,2,1,camel         ,holdfast    ,html/resources/sequences_IDs/A/03_camel.jpg,html/resources/sequences_IDs/B/04_holdfast.jpg,3,4,1,1,2,1,3,4,0,27,,,,,,,,,,,,,,,,,,,,
,,,,,27,2020-07-03_14h27.39.915,retriever_ti,2020.1.3,Win32,60,Chrome,1536,864,,,,,,,,,,,,,,,,,2,,,,,,,,,,,,,,,,,,,,,,,,,,,2340.697595,127,right,1.00987,hat           ,8,8,5,1,3,2340.73103,2340.73103,2343.23008,0,49,49,49,1,127,3,8,radio       ,hat           ,html/resources/sequences_IDs/B/10_radio.jpg,html/resources/sequences_IDs/A/08_hat.jpg,10,8,4,2,3,2,8,6,0,27,,,,,,,,,,,,,,,,,,,,
,,,,,27,2020-07-03_14h27.39.915,retriever_ti,2020.1.3,Win32,60,Chrome,1536,864,,,,,,,,,,,,,,,,,2,,,,,,,,,,,,,,,,,,,,,,,,,,,2343.847265,128,left,0.994245,calculator    ,4,9,-1,0,0,2343.881535,2343.881535,2346.379275,0,50,50,50,1,128,4,5,calculator    ,dolphin     ,html/resources/sequences_IDs/A/09_calculator.jpg,html/resources/sequences_IDs/B/02_dolphin.jpg,9,2,4,2,1,1,7,2,0,27,,,,,,,,,,,,,,,,,,,,
,,,,,27,2020-07-03_14h27.39.915,retriever_ti,2020.1.3,Win32,60,Chrome,1536,864,,,,,,,,,,,,,,,,,2,,,,,,,,,,,,,,,,,,,,,,,,,,,2347.47935,129,right,1.411625,hat           ,8,8,3,1,3,2347.512855,2347.512855,2350.011965,0,51,51,51,1,129,5,8,dolphin     ,hat           ,html/resources/sequences_IDs/B/02_dolphin.jpg,html/resources/sequences_IDs/A/08_hat.jpg,2,8,1,1,3,2,2,6,0,27,,,,,,,,,,,,,,,,,,,,
,,,,,27,2020-07-03_14h27.39.915,retriever_ti,2020.1.3,Win32,60,Chrome,1536,864,,,,,,,,,,,,,,,,,2,,,,,,,,,,,,,,,,,,,,,,,,,,,2350.612755,130,left,0.88999,holdfast    ,1,4,-5,0,3,2350.63044,2350.63044,2353.12819,0,52,52,52,1,130,1,6,holdfast    ,wolf          ,html/resources/sequences_IDs/B/04_holdfast.jpg,html/resources/sequences_IDs/A/01_wolf.jpg,4,1,2,1,1,1,4,1,0,27,,,,,,,,,,,,,,,,,,,,
,,,,,27,2020-07-03_14h27.39.915,retriever_ti,2020.1.3,Win32,60,Chrome,1536,864,,,,,,,,,,,,,,,,,2,,,,,,,,,,,,,,,,,,,,,,,,,,,2353.745725,131,left,1.152905,wolf          ,6,1,1,1,1,2353.762535,2353.762535,2356.26086,0,53,53,53,1,131,6,5,wolf          ,dolphin     ,html/resources/sequences_IDs/A/01_wolf.jpg,html/resources/sequences_IDs/B/02_dolphin.jpg,1,2,1,1,1,1,1,2,0,27,,,,,,,,,,,,,,,,,,,,
,,,,,27,2020-07-03_14h27.39.915,retriever_ti,2020.1.3,Win32,60,Chrome,1536,864,,,,,,,,,,,,,,,,,2,,,,,,,,,,,,,,,,,,,,,,,,,,,2357.36154,132,left,1.337405,radio       ,3,10,-2,0,3,2357.39555,2357.39555,2359.893265,0,54,54,54,1,132,3,5,radio       ,dolphin     ,html/resources/sequences_IDs/B/10_radio.jpg,html/resources/sequences_IDs/B/02_dolphin.jpg,10,2,4,2,1,1,8,2,0,27,,,,,,,,,,,,,,,,,,,,
,,,,,27,2020-07-03_14h27.39.915,retriever_ti,2020.1.3,Win32,60,Chrome,1536,864,,,,,,,,,,,,,,,,,2,,,,,,,,,,,,,,,,,,,,,,,,,,,2360.509865,133,right,2.02812,hat           ,8,8,1,1,1,2360.527175,2360.527175,2363.02655,0,55,55,55,1,133,7,8,gloves      ,hat           ,html/resources/sequences_IDs/B/06_gloves.jpg,html/resources/sequences_IDs/A/08_hat.jpg,6,8,3,2,3,2,5,6,0,27,,,,,,,,,,,,,,,,,,,,
,,,,,27,2020-07-03_14h27.39.915,retriever_ti,2020.1.3,Win32,60,Chrome,1536,864,,,,,,,,,,,,,,,,,2,,,,,,,,,,,,,,,,,,,,,,,,,,,2364.126885,134,left,0.810845,hat           ,8,8,1,1,1,2364.144395,2364.144395,2366.64238,0,56,56,56,1,134,8,7,hat           ,gloves      ,html/resources/sequences_IDs/A/08_hat.jpg,html/resources/sequences_IDs/B/06_gloves.jpg,8,6,3,2,3,2,6,5,0,27,,,,,,,,,,,,,,,,,,,,
,,,,,27,2020-07-03_14h27.39.915,retriever_ti,2020.1.3,Win32,60,Chrome,1536,864,,,,,,,,,,,,,,,,,2,,,,,,,,,,,,,,,,,,,,,,,,,,,2367.74313,135,right,1.37869,radio       ,3,10,1,1,1,2367.77645,2367.77645,2370.274625,0,57,57,57,1,135,2,3,camel         ,radio       ,html/resources/sequences_IDs/A/03_camel.jpg,html/resources/sequences_IDs/B/10_radio.jpg,3,10,1,1,4,2,3,8,0,27,,,,,,,,,,,,,,,,,,,,
,,,,,27,2020-07-03_14h27.39.915,retriever_ti,2020.1.3,Win32,60,Chrome,1536,864,,,,,,,,,,,,,,,,,2,,,,,,,,,,,,,,,,,,,,,,,,,,,2371.37497,136,left,0.85602,gloves      ,7,6,4,1,3,2371.408625,2371.408625,2373.907345,0,58,58,58,1,136,7,3,gloves      ,radio       ,html/resources/sequences_IDs/B/06_gloves.jpg,html/resources/sequences_IDs/B/10_radio.jpg,6,10,3,2,4,2,5,8,0,27,,,,,,,,,,,,,,,,,,,,
,,,,,27,2020-07-03_14h27.39.915,retriever_ti,2020.1.3,Win32,60,Chrome,1536,864,,,,,,,,,,,,,,,,,2,,,,,,,,,,,,,,,,,,,,,,,,,,,2374.508,137,right,0.77028,calculator    ,4,9,1,1,1,2374.525415,2374.525415,2377.023535,0,59,59,59,1,137,3,4,radio       ,calculator    ,html/resources/sequences_IDs/B/10_radio.jpg,html/resources/sequences_IDs/A/09_calculator.jpg,10,9,4,2,4,2,8,7,0,27,,,,,,,,,,,,,,,,,,,,
,,,,,27,2020-07-03_14h27.39.915,retriever_ti,2020.1.3,Win32,60,Chrome,1536,864,,,,,,,,,,,,,,,,,2,,,,,,,,,,,,,,,,,,,,,,,,,,,2378.12412,138,left,0.5779,radio       ,3,10,-3,0,3,2378.158195,2378.158195,2380.656215,0,60,60,60,1,138,3,6,radio       ,wolf          ,html/resources/sequences_IDs/B/10_radio.jpg,html/resources/sequences_IDs/A/01_wolf.jpg,10,1,4,2,1,1,8,1,0,27,,,,,,,,,,,,,,,,,,,,
,,,,,27,2020-07-03_14h27.39.915,retriever_ti,2020.1.3,Win32,60,Chrome,1536,864,,,,,,,,,,,,,,,,,2,,,,,,,,,,,,,,,,,,,,,,,,,,,2381.27308,139,left,0.69133,calculator    ,4,9,1,1,0,2381.307365,2381.307365,2383.805725,0,61,61,61,1,139,4,3,calculator    ,radio       ,html/resources/sequences_IDs/A/09_calculator.jpg,html/resources/sequences_IDs/B/10_radio.jpg,9,10,4,2,4,2,7,8,1,27,,,,,,,,,,,,,,,,,,,,
,,,,,27,2020-07-03_14h27.39.915,retriever_ti,2020.1.3,Win32,60,Chrome,1536,864,,,,,,,,,,,,,,,,,2,,,,,,,,,,,,,,,,,,,,,,,,,,,2384.90685,140,right,0.456525,radio       ,3,10,2,1,3,2384.940285,2384.940285,2387.4383,0,62,62,62,1,140,1,3,holdfast    ,radio       ,html/resources/sequences_IDs/B/04_holdfast.jpg,html/resources/sequences_IDs/B/10_radio.jpg,4,10,2,1,4,2,4,8,0,27,,,,,,,,,,,,,,,,,,,,
,,,,,27,2020-07-03_14h27.39.915,retriever_ti,2020.1.3,Win32,60,Chrome,1536,864,,,,,,,,,,,,,,,,,2,,,,,,,,,,,,,,,,,,,,,,,,,,,2388.05548,141,right,0.739245,gloves      ,7,6,1,1,1,2388.072535,2388.072535,2390.57086,0,63,63,63,1,141,6,7,wolf          ,gloves      ,html/resources/sequences_IDs/A/01_wolf.jpg,html/resources/sequences_IDs/B/06_gloves.jpg,1,6,1,1,3,2,1,5,0,27,,,,,,,,,,,,,,,,,,,,
,,,,,27,2020-07-03_14h27.39.915,retriever_ti,2020.1.3,Win32,60,Chrome,1536,864,,,,,,,,,,,,,,,,,2,,,,,,,,,,,,,,,,,,,,,,,,,,,2391.671365,142,right,1.084545,hat           ,8,8,2,1,3,2391.68863,2391.68863,2394.186375,0,64,64,64,1,142,6,8,wolf          ,hat           ,html/resources/sequences_IDs/A/01_wolf.jpg,html/resources/sequences_IDs/A/08_hat.jpg,1,8,1,1,3,2,1,6,0,27,,,,,,,,,,,,,,,,,,,,
,,,,,27,2020-07-03_14h27.39.915,retriever_ti,2020.1.3,Win32,60,Chrome,1536,864,,,,,,,,,,,,,,,,,2,,,,,,,,,,,,,,,,,,,,,,,,,,,2394.786845,143,left,0.64803,radio       ,3,10,-4,0,3,2394.803995,2394.803995,2397.30251,0,65,65,65,1,143,3,7,radio       ,gloves      ,html/resources/sequences_IDs/B/10_radio.jpg,html/resources/sequences_IDs/B/06_gloves.jpg,10,6,4,2,3,2,8,5,0,27,,,,,,,,,,,,,,,,,,,,
,,,,,27,2020-07-03_14h27.39.915,retriever_ti,2020.1.3,Win32,60,Chrome,1536,864,,,,,,,,,,,,,,,,,2,,,,,,,,,,,,,,,,,,,,,,,,,,,2397.91997,144,left,0.6032,calculator    ,4,9,-4,0,3,2397.93674,2397.93674,2400.435145,0,66,66,66,1,144,4,8,calculator    ,hat           ,html/resources/sequences_IDs/A/09_calculator.jpg,html/resources/sequences_IDs/A/08_hat.jpg,9,8,4,2,3,2,7,6,0,27,,,,,,,,,,,,,,,,,,,,
,,,,,27,2020-07-03_14h27.39.915,retriever_ti,2020.1.3,Win32,60,Chrome,1536,864,,,,,,,,,,,,,,,,,2,,,,,,,,,,,,,,,,,,,,,,,,,,,2401.052125,145,right,0.64847,wolf          ,6,1,1,1,1,2401.08623,2401.08623,2403.584805,0,67,67,67,1,145,5,6,dolphin     ,wolf          ,html/resources/sequences_IDs/B/02_dolphin.jpg,html/resources/sequences_IDs/A/01_wolf.jpg,2,1,1,1,1,1,2,1,0,27,,,,,,,,,,,,,,,,,,,,
,,,,,27,2020-07-03_14h27.39.915,retriever_ti,2020.1.3,Win32,60,Chrome,1536,864,,,,,,,,,,,,,,,,,2,,,,,,,,,,,,,,,,,,,,,,,,,,,2404.68505,146,right,1.296515,dolphin     ,5,2,-2,0,3,2404.701675,2404.701675,2407.200655,0,68,68,68,1,146,7,5,gloves      ,dolphin     ,html/resources/sequences_IDs/B/06_gloves.jpg,html/resources/sequences_IDs/B/02_dolphin.jpg,6,2,3,2,1,1,5,2,0,27,,,,,,,,,,,,,,,,,,,,
,,,,,27,2020-07-03_14h27.39.915,retriever_ti,2020.1.3,Win32,60,Chrome,1536,864,,,,,,,,,,,,,,,,,2,,,,,,,,,,,,,,,,,,,,,,,,,,,2407.818205,147,left,0.586205,camel         ,2,3,-5,0,3,2407.83471,2407.83471,2410.33335,0,69,69,69,1,147,2,7,camel         ,gloves      ,html/resources/sequences_IDs/A/03_camel.jpg,html/resources/sequences_IDs/B/06_gloves.jpg,3,6,1,1,3,2,3,5,0,27,,,,,,,,,,,,,,,,,,,,
,,,,,27,2020-07-03_14h27.39.915,retriever_ti,2020.1.3,Win32,60,Chrome,1536,864,,,,,,,,,,,,,,,,,2,,,,,,,,,,,,,,,,,,,,,,,,,,,2410.950175,148,left,0.398065,radio       ,3,10,2,1,3,2410.98399,2410.98399,2413.482535,0,70,70,70,1,148,3,1,radio       ,holdfast    ,html/resources/sequences_IDs/B/10_radio.jpg,html/resources/sequences_IDs/B/04_holdfast.jpg,10,4,4,2,2,1,8,4,0,27,,,,,,,,,,,,,,,,,,,,
,,,,,27,2020-07-03_14h27.39.915,retriever_ti,2020.1.3,Win32,60,Chrome,1536,864,,,,,,,,,,,,,,,,,2,,,,,,,,,,,,,,,,,,,,,,,,,,,2414.09994,149,right,0.83879,wolf          ,6,1,1,1,1,2414.133535,2414.133535,2416.63207,0,71,71,71,1,149,5,6,dolphin     ,wolf          ,html/resources/sequences_IDs/B/02_dolphin.jpg,html/resources/sequences_IDs/A/01_wolf.jpg,2,1,1,1,1,1,2,1,0,27,,,,,,,,,,,,,,,,,,,,
,,,,,27,2020-07-03_14h27.39.915,retriever_ti,2020.1.3,Win32,60,Chrome,1536,864,,,,,,,,,,,,,,,,,2,,,,,,,,,,,,,,,,,,,,,,,,,,,2417.732345,150,right,0.6268,hat           ,8,8,1,1,0,2417.74936,2417.74936,2420.24796,0,72,72,72,1,150,7,8,gloves      ,hat           ,html/resources/sequences_IDs/B/06_gloves.jpg,html/resources/sequences_IDs/A/08_hat.jpg,6,8,3,2,3,2,5,6,1,27,,,,,,,,,,,,,,,,,,,,
,,,,,27,2020-07-03_14h27.39.915,retriever_ti,2020.1.3,Win32,60,Chrome,1536,864,,,,,,,,,,,,,,,,,2,,,,,,,,,,,,,,,,,,,,,,,,,,,2421.347975,151,left,0.491835,calculator    ,4,9,-3,0,3,2421.381955,2421.381955,2423.880745,0,73,73,73,1,151,4,7,calculator    ,gloves      ,html/resources/sequences_IDs/A/09_calculator.jpg,html/resources/sequences_IDs/B/06_gloves.jpg,9,6,4,2,3,2,7,5,0,27,,,,,,,,,,,,,,,,,,,,
,,,,,27,2020-07-03_14h27.39.915,retriever_ti,2020.1.3,Win32,60,Chrome,1536,864,,,,,,,,,,,,,,,,,2,,,,,,,,,,,,,,,,,,,,,,,,,,,2424.49778,152,left,0.443875,wolf          ,6,1,5,1,3,2424.514385,2424.514385,2427.01324,0,74,74,74,1,152,6,1,wolf          ,holdfast    ,html/resources/sequences_IDs/A/01_wolf.jpg,html/resources/sequences_IDs/B/04_holdfast.jpg,1,4,1,1,2,1,1,4,0,27,,,,,,,,,,,,,,,,,,,,
,,,,,27,2020-07-03_14h27.39.915,retriever_ti,2020.1.3,Win32,60,Chrome,1536,864,,,,,,,,,,,,,,,,,2,,,,,,,,,,,,,,,,,,,,,,,,,,,2427.63052,153,left,0.9505,hat           ,8,8,7,1,3,2427.647385,2427.647385,2430.1461,0,75,75,75,1,153,8,1,hat           ,holdfast    ,html/resources/sequences_IDs/A/08_hat.jpg,html/resources/sequences_IDs/B/04_holdfast.jpg,8,4,3,2,2,1,6,4,0,27,,,,,,,,,,,,,,,,,,,,
,,,,,27,2020-07-03_14h27.39.915,retriever_ti,2020.1.3,Win32,60,Chrome,1536,864,,,,,,,,,,,,,,,,,2,,,,,,,,,,,,,,,,,,,,,,,,,,,2430.763205,154,right,0.80618,dolphin     ,5,2,4,1,3,2430.797105,2430.797105,2433.2955,0,76,76,76,1,154,1,5,holdfast    ,dolphin     ,html/resources/sequences_IDs/B/04_holdfast.jpg,html/resources/sequences_IDs/B/02_dolphin.jpg,4,2,2,1,1,1,4,2,0,27,,,,,,,,,,,,,,,,,,,,
,,,,,27,2020-07-03_14h27.39.915,retriever_ti,2020.1.3,Win32,60,Chrome,1536,864,,,,,,,,,,,,,,,,,,,,,,,,,,,,,,,,,,,,,0,1.63498,,,,,,,,,,,,,,,,,,,,,,,,,,,,,,,,,,,,,,,,,1,0,1,0,1,,,,,,,,,,,,,,,
,,,,,27,2020-07-03_14h27.39.915,retriever_ti,2020.1.3,Win32,60,Chrome,1536,864,,,,,,,,,,,,,,,,,3,,,,,,,,,,,,,,,,,,,,,,,,,,,2504.27945,155,right,0.919205,holdfast    ,1,4,-4,0,3,2504.316825,2504.316825,2506.814755,0,0,0,0,1,155,5,1,dolphin     ,holdfast    ,html/resources/sequences_IDs/B/02_dolphin.jpg,html/resources/sequences_IDs/B/04_holdfast.jpg,2,4,1,1,2,1,2,4,0,27,,,,,,,,,,,,,,,,,,,,
,,,,,27,2020-07-03_14h27.39.915,retriever_ti,2020.1.3,Win32,60,Chrome,1536,864,,,,,,,,,,,,,,,,,3,,,,,,,,,,,,,,,,,,,,,,,,,,,2507.4319,156,left,0.562285,gloves      ,7,6,2,1,3,2507.46573,2507.46573,2509.963665,0,1,1,1,1,156,7,5,gloves      ,dolphin     ,html/resources/sequences_IDs/B/06_gloves.jpg,html/resources/sequences_IDs/B/02_dolphin.jpg,6,2,3,2,1,1,5,2,0,27,,,,,,,,,,,,,,,,,,,,
,,,,,27,2020-07-03_14h27.39.915,retriever_ti,2020.1.3,Win32,60,Chrome,1536,864,,,,,,,,,,,,,,,,,3,,,,,,,,,,,,,,,,,,,,,,,,,,,2510.58088,157,left,0.37454,holdfast    ,1,4,-5,0,3,2510.614425,2510.614425,2513.113505,0,2,2,2,1,157,1,6,holdfast    ,wolf          ,html/resources/sequences_IDs/B/04_holdfast.jpg,html/resources/sequences_IDs/A/01_wolf.jpg,4,1,2,1,1,1,4,1,0,27,,,,,,,,,,,,,,,,,,,,
,,,,,27,2020-07-03_14h27.39.915,retriever_ti,2020.1.3,Win32,60,Chrome,1536,864,,,,,,,,,,,,,,,,,3,,,,,,,,,,,,,,,,,,,,,,,,,,,2513.73031,158,left,0.40514,wolf          ,6,1,1,1,1,2513.764625,2513.764625,2516.26274,0,3,3,3,1,158,6,5,wolf          ,dolphin     ,html/resources/sequences_IDs/A/01_wolf.jpg,html/resources/sequences_IDs/B/02_dolphin.jpg,1,2,1,1,1,1,1,2,0,27,,,,,,,,,,,,,,,,,,,,
,,,,,27,2020-07-03_14h27.39.915,retriever_ti,2020.1.3,Win32,60,Chrome,1536,864,,,,,,,,,,,,,,,,,3,,,,,,,,,,,,,,,,,,,,,,,,,,,2517.36377,159,right,0.450455,hat           ,8,8,2,1,3,2517.39738,2517.39738,2519.895475,0,4,4,4,1,159,6,8,wolf          ,hat           ,html/resources/sequences_IDs/A/01_wolf.jpg,html/resources/sequences_IDs/A/08_hat.jpg,1,8,1,1,3,2,1,6,0,27,,,,,,,,,,,,,,,,,,,,
,,,,,27,2020-07-03_14h27.39.915,retriever_ti,2020.1.3,Win32,60,Chrome,1536,864,,,,,,,,,,,,,,,,,3,,,,,,,,,,,,,,,,,,,,,,,,,,,2520.51295,160,right,0.59663,radio       ,3,10,-1,0,0,2520.528945,2520.528945,2523.027645,0,5,5,5,1,160,4,3,calculator    ,radio       ,html/resources/sequences_IDs/A/09_calculator.jpg,html/resources/sequences_IDs/B/10_radio.jpg,9,10,4,2,4,2,7,8,0,27,,,,,,,,,,,,,,,,,,,,
,,,,,27,2020-07-03_14h27.39.915,retriever_ti,2020.1.3,Win32,60,Chrome,1536,864,,,,,,,,,,,,,,,,,3,,,,,,,,,,,,,,,,,,,,,,,,,,,2524.128385,161,left,0.498635,gloves      ,7,6,-1,0,0,2524.14631,2524.14631,2526.64405,0,6,6,6,1,161,7,8,gloves      ,hat           ,html/resources/sequences_IDs/B/06_gloves.jpg,html/resources/sequences_IDs/A/08_hat.jpg,6,8,3,2,3,2,5,6,0,27,,,,,,,,,,,,,,,,,,,,
,,,,,27,2020-07-03_14h27.39.915,retriever_ti,2020.1.3,Win32,60,Chrome,1536,864,,,,,,,,,,,,,,,,,3,,,,,,,,,,,,,,,,,,,,,,,,,,,2527.744845,162,left,0.851425,hat           ,8,8,7,1,3,2527.761765,2527.761765,2530.25999,0,7,7,7,1,162,8,1,hat           ,holdfast    ,html/resources/sequences_IDs/A/08_hat.jpg,html/resources/sequences_IDs/B/04_holdfast.jpg,8,4,3,2,2,1,6,4,0,27,,,,,,,,,,,,,,,,,,,,
,,,,,27,2020-07-03_14h27.39.915,retriever_ti,2020.1.3,Win32,60,Chrome,1536,864,,,,,,,,,,,,,,,,,3,,,,,,,,,,,,,,,,,,,,,,,,,,,2530.87777,163,left,0.62911,radio       ,3,10,-4,0,3,2530.89461,2530.89461,2533.392415,0,8,8,8,1,163,3,7,radio       ,gloves      ,html/resources/sequences_IDs/B/10_radio.jpg,html/resources/sequences_IDs/B/06_gloves.jpg,10,6,4,2,3,2,8,5,0,27,,,,,,,,,,,,,,,,,,,,
,,,,,27,2020-07-03_14h27.39.915,retriever_ti,2020.1.3,Win32,60,Chrome,1536,864,,,,,,,,,,,,,,,,,3,,,,,,,,,,,,,,,,,,,,,,,,,,,2534.009325,164,right,1.363075,camel         ,2,3,-5,0,3,2534.04318,2534.04318,2536.54176,0,9,9,9,1,164,7,2,gloves      ,camel         ,html/resources/sequences_IDs/B/06_gloves.jpg,html/resources/sequences_IDs/A/03_camel.jpg,6,3,3,2,1,1,5,3,0,27,,,,,,,,,,,,,,,,,,,,
,,,,,27,2020-07-03_14h27.39.915,retriever_ti,2020.1.3,Win32,60,Chrome,1536,864,,,,,,,,,,,,,,,,,3,,,,,,,,,,,,,,,,,,,,,,,,,,,2537.159285,165,right,0.836535,gloves      ,7,6,1,1,1,2537.19268,2537.19268,2539.69101,0,10,10,10,1,165,6,7,wolf          ,gloves      ,html/resources/sequences_IDs/A/01_wolf.jpg,html/resources/sequences_IDs/B/06_gloves.jpg,1,6,1,1,3,2,1,5,0,27,,,,,,,,,,,,,,,,,,,,
,,,,,27,2020-07-03_14h27.39.915,retriever_ti,2020.1.3,Win32,60,Chrome,1536,864,,,,,,,,,,,,,,,,,3,,,,,,,,,,,,,,,,,,,,,,,,,,,2540.792235,166,right,0.466125,gloves      ,7,6,3,1,3,2540.825925,2540.825925,2543.32434,0,11,11,11,1,166,4,7,calculator    ,gloves      ,html/resources/sequences_IDs/A/09_calculator.jpg,html/resources/sequences_IDs/B/06_gloves.jpg,9,6,4,2,3,2,7,5,0,27,,,,,,,,,,,,,,,,,,,,
,,,,,27,2020-07-03_14h27.39.915,retriever_ti,2020.1.3,Win32,60,Chrome,1536,864,,,,,,,,,,,,,,,,,3,,,,,,,,,,,,,,,,,,,,,,,,,,,2543.941645,167,left,0.292,radio       ,3,10,-5,0,3,2543.975585,2543.975585,2546.47325,0,12,12,12,1,167,3,8,radio       ,hat           ,html/resources/sequences_IDs/B/10_radio.jpg,html/resources/sequences_IDs/A/08_hat.jpg,10,8,4,2,3,2,8,6,0,27,,,,,,,,,,,,,,,,,,,,
,,,,,27,2020-07-03_14h27.39.915,retriever_ti,2020.1.3,Win32,60,Chrome,1536,864,,,,,,,,,,,,,,,,,3,,,,,,,,,,,,,,,,,,,,,,,,,,,2547.0907,168,left,0.53922,hat           ,8,8,1,1,1,2547.124075,2547.124075,2549.62314,0,13,13,13,1,168,8,7,hat           ,gloves      ,html/resources/sequences_IDs/A/08_hat.jpg,html/resources/sequences_IDs/B/06_gloves.jpg,8,6,3,2,3,2,6,5,0,27,,,,,,,,,,,,,,,,,,,,
,,,,,27,2020-07-03_14h27.39.915,retriever_ti,2020.1.3,Win32,60,Chrome,1536,864,,,,,,,,,,,,,,,,,3,,,,,,,,,,,,,,,,,,,,,,,,,,,2550.72365,169,right,0.479915,dolphin     ,5,2,2,1,3,2550.74084,2550.74084,2553.239015,0,14,14,14,1,169,3,5,radio       ,dolphin     ,html/resources/sequences_IDs/B/10_radio.jpg,html/resources/sequences_IDs/B/02_dolphin.jpg,10,2,4,2,1,1,8,2,0,27,,,,,,,,,,,,,,,,,,,,
,,,,,27,2020-07-03_14h27.39.915,retriever_ti,2020.1.3,Win32,60,Chrome,1536,864,,,,,,,,,,,,,,,,,3,,,,,,,,,,,,,,,,,,,,,,,,,,,2553.855825,170,left,0.33125,dolphin     ,5,2,-1,0,0,2553.890225,2553.890225,2556.387965,0,15,15,15,1,170,5,6,dolphin     ,wolf          ,html/resources/sequences_IDs/B/02_dolphin.jpg,html/resources/sequences_IDs/A/01_wolf.jpg,2,1,1,1,1,1,2,1,0,27,,,,,,,,,,,,,,,,,,,,
,,,,,27,2020-07-03_14h27.39.915,retriever_ti,2020.1.3,Win32,60,Chrome,1536,864,,,,,,,,,,,,,,,,,3,,,,,,,,,,,,,,,,,,,,,,,,,,,2557.48847,171,right,0.16904,gloves      ,7,6,-1,0,0,2557.521935,2557.521935,2560.020615,0,16,16,16,1,171,8,7,hat           ,gloves      ,html/resources/sequences_IDs/A/08_hat.jpg,html/resources/sequences_IDs/B/06_gloves.jpg,8,6,3,2,3,2,6,5,0,27,,,,,,,,,,,,,,,,,,,,
,,,,,27,2020-07-03_14h27.39.915,retriever_ti,2020.1.3,Win32,60,Chrome,1536,864,,,,,,,,,,,,,,,,,3,,,,,,,,,,,,,,,,,,,,,,,,,,,2561.120845,172,right,1.16763,hat           ,8,8,1,1,0,2561.154265,2561.154265,2563.65342,0,17,17,17,1,172,7,8,gloves      ,hat           ,html/resources/sequences_IDs/B/06_gloves.jpg,html/resources/sequences_IDs/A/08_hat.jpg,6,8,3,2,3,2,5,6,1,27,,,,,,,,,,,,,,,,,,,,
,,,,,27,2020-07-03_14h27.39.915,retriever_ti,2020.1.3,Win32,60,Chrome,1536,864,,,,,,,,,,,,,,,,,3,,,,,,,,,,,,,,,,,,,,,,,,,,,2564.754295,173,left,0.244925,holdfast    ,1,4,-1,0,0,2564.788025,2564.788025,2567.28601,0,18,18,18,1,173,1,2,holdfast    ,camel         ,html/resources/sequences_IDs/B/04_holdfast.jpg,html/resources/sequences_IDs/A/03_camel.jpg,4,3,2,1,1,1,4,3,0,27,,,,,,,,,,,,,,,,,,,,
,,,,,27,2020-07-03_14h27.39.915,retriever_ti,2020.1.3,Win32,60,Chrome,1536,864,,,,,,,,,,,,,,,,,3,,,,,,,,,,,,,,,,,,,,,,,,,,,2568.386875,174,right,0.286695,wolf          ,6,1,2,1,3,2568.404405,2568.404405,2570.902045,0,19,19,19,1,174,4,6,calculator    ,wolf          ,html/resources/sequences_IDs/A/09_calculator.jpg,html/resources/sequences_IDs/A/01_wolf.jpg,9,1,4,2,1,1,7,1,0,27,,,,,,,,,,,,,,,,,,,,
,,,,,27,2020-07-03_14h27.39.915,retriever_ti,2020.1.3,Win32,60,Chrome,1536,864,,,,,,,,,,,,,,,,,3,,,,,,,,,,,,,,,,,,,,,,,,,,,2571.519375,175,right,0.28756,dolphin     ,5,2,4,1,3,2571.53659,2571.53659,2574.03501,0,20,20,20,1,175,1,5,holdfast    ,dolphin     ,html/resources/sequences_IDs/B/04_holdfast.jpg,html/resources/sequences_IDs/B/02_dolphin.jpg,4,2,2,1,1,1,4,2,0,27,,,,,,,,,,,,,,,,,,,,
,,,,,27,2020-07-03_14h27.39.915,retriever_ti,2020.1.3,Win32,60,Chrome,1536,864,,,,,,,,,,,,,,,,,3,,,,,,,,,,,,,,,,,,,,,,,,,,,2574.652375,176,left,0.429845,hat           ,8,8,6,1,3,2574.66961,2574.66961,2577.1672,0,21,21,21,1,176,8,2,hat           ,camel         ,html/resources/sequences_IDs/A/08_hat.jpg,html/resources/sequences_IDs/A/03_camel.jpg,8,3,3,2,1,1,6,3,0,27,,,,,,,,,,,,,,,,,,,,
,,,,,27,2020-07-03_14h27.39.915,retriever_ti,2020.1.3,Win32,60,Chrome,1536,864,,,,,,,,,,,,,,,,,3,,,,,,,,,,,,,,,,,,,,,,,,,,,2577.78387,177,right,0.4129,gloves      ,7,6,2,1,3,2577.801145,2577.801145,2580.30011,0,22,22,22,1,177,5,7,dolphin     ,gloves      ,html/resources/sequences_IDs/B/02_dolphin.jpg,html/resources/sequences_IDs/B/06_gloves.jpg,2,6,1,1,3,2,2,5,0,27,,,,,,,,,,,,,,,,,,,,
,,,,,27,2020-07-03_14h27.39.915,retriever_ti,2020.1.3,Win32,60,Chrome,1536,864,,,,,,,,,,,,,,,,,3,,,,,,,,,,,,,,,,,,,,,,,,,,,2580.917835,178,right,0.606795,camel         ,2,3,-2,0,3,2580.95122,2580.95122,2583.44958,0,23,23,23,1,178,4,2,calculator    ,camel         ,html/resources/sequences_IDs/A/09_calculator.jpg,html/resources/sequences_IDs/A/03_camel.jpg,9,3,4,2,1,1,7,3,0,27,,,,,,,,,,,,,,,,,,,,
,,,,,27,2020-07-03_14h27.39.915,retriever_ti,2020.1.3,Win32,60,Chrome,1536,864,,,,,,,,,,,,,,,,,3,,,,,,,,,,,,,,,,,,,,,,,,,,,2584.066835,179,left,0.19405,calculator    ,4,9,3,1,3,2584.08423,2584.08423,2586.582265,0,24,24,24,1,179,4,1,calculator    ,holdfast    ,html/resources/sequences_IDs/A/09_calculator.jpg,html/resources/sequences_IDs/B/04_holdfast.jpg,9,4,4,2,2,1,7,4,0,27,,,,,,,,,,,,,,,,,,,,
,,,,,27,2020-07-03_14h27.39.915,retriever_ti,2020.1.3,Win32,60,Chrome,1536,864,,,,,,,,,,,,,,,,,3,,,,,,,,,,,,,,,,,,,,,,,,,,,2587.183395,180,left,0.212505,gloves      ,7,6,1,1,1,2587.200505,2587.200505,2589.69841,0,25,25,25,1,180,7,6,gloves      ,wolf          ,html/resources/sequences_IDs/B/06_gloves.jpg,html/resources/sequences_IDs/A/01_wolf.jpg,6,1,3,2,1,1,5,1,0,27,,,,,,,,,,,,,,,,,,,,
,,,,,27,2020-07-03_14h27.39.915,retriever_ti,2020.1.3,Win32,60,Chrome,1536,864,,,,,,,,,,,,,,,,,3,,,,,,,,,,,,,,,,,,,,,,,,,,,2590.799,181,left,0.324835,camel         ,2,3,-5,0,3,2590.83333,2590.83333,2593.331335,0,26,26,26,1,181,2,7,camel         ,gloves      ,html/resources/sequences_IDs/A/03_camel.jpg,html/resources/sequences_IDs/B/06_gloves.jpg,3,6,1,1,3,2,3,5,0,27,,,,,,,,,,,,,,,,,,,,
,,,,,27,2020-07-03_14h27.39.915,retriever_ti,2020.1.3,Win32,60,Chrome,1536,864,,,,,,,,,,,,,,,,,3,,,,,,,,,,,,,,,,,,,,,,,,,,,2593.94792,182,right,0.344585,radio       ,3,10,-1,0,0,2593.96596,2593.96596,2596.46395,0,27,27,27,1,182,4,3,calculator    ,radio       ,html/resources/sequences_IDs/A/09_calculator.jpg,html/resources/sequences_IDs/B/10_radio.jpg,9,10,4,2,4,2,7,8,0,27,,,,,,,,,,,,,,,,,,,,
,,,,,27,2020-07-03_14h27.39.915,retriever_ti,2020.1.3,Win32,60,Chrome,1536,864,,,,,,,,,,,,,,,,,3,,,,,,,,,,,,,,,,,,,,,,,,,,,2597.56461,183,right,0.27944,dolphin     ,5,2,-3,0,3,2597.59835,2597.59835,2600.09589,0,28,28,28,1,183,8,5,hat           ,dolphin     ,html/resources/sequences_IDs/A/08_hat.jpg,html/resources/sequences_IDs/B/02_dolphin.jpg,8,2,3,2,1,1,6,2,0,27,,,,,,,,,,,,,,,,,,,,
,,,,,27,2020-07-03_14h27.39.915,retriever_ti,2020.1.3,Win32,60,Chrome,1536,864,,,,,,,,,,,,,,,,,3,,,,,,,,,,,,,,,,,,,,,,,,,,,2600.71335,184,right,0.19835,hat           ,8,8,7,1,3,2600.746665,2600.746665,2603.245775,0,29,29,29,1,184,1,8,holdfast    ,hat           ,html/resources/sequences_IDs/B/04_holdfast.jpg,html/resources/sequences_IDs/A/08_hat.jpg,4,8,2,1,3,2,4,6,0,27,,,,,,,,,,,,,,,,,,,,
,,,,,27,2020-07-03_14h27.39.915,retriever_ti,2020.1.3,Win32,60,Chrome,1536,864,,,,,,,,,,,,,,,,,3,,,,,,,,,,,,,,,,,,,,,,,,,,,2603.863955,185,left,0.307065,camel         ,2,3,-6,0,3,2603.897965,2603.897965,2606.39548,0,30,30,30,1,185,2,8,camel         ,hat           ,html/resources/sequences_IDs/A/03_camel.jpg,html/resources/sequences_IDs/A/08_hat.jpg,3,8,1,1,3,2,3,6,0,27,,,,,,,,,,,,,,,,,,,,
,,,,,27,2020-07-03_14h27.39.915,retriever_ti,2020.1.3,Win32,60,Chrome,1536,864,,,,,,,,,,,,,,,,,3,,,,,,,,,,,,,,,,,,,,,,,,,,,2607.01243,186,left,0.132705,dolphin     ,5,2,-1,0,0,2607.04665,2607.04665,2609.54463,0,31,31,31,1,186,5,6,dolphin     ,wolf          ,html/resources/sequences_IDs/B/02_dolphin.jpg,html/resources/sequences_IDs/A/01_wolf.jpg,2,1,1,1,1,1,2,1,0,27,,,,,,,,,,,,,,,,,,,,
,,,,,27,2020-07-03_14h27.39.915,retriever_ti,2020.1.3,Win32,60,Chrome,1536,864,,,,,,,,,,,,,,,,,3,,,,,,,,,,,,,,,,,,,,,,,,,,,2610.645155,187,left,0.323725,holdfast    ,1,4,-2,0,3,2610.66263,2610.66263,2613.159955,0,32,32,32,1,187,1,3,holdfast    ,radio       ,html/resources/sequences_IDs/B/04_holdfast.jpg,html/resources/sequences_IDs/B/10_radio.jpg,4,10,2,1,4,2,4,8,0,27,,,,,,,,,,,,,,,,,,,,
,,,,,27,2020-07-03_14h27.39.915,retriever_ti,2020.1.3,Win32,60,Chrome,1536,864,,,,,,,,,,,,,,,,,3,,,,,,,,,,,,,,,,,,,,,,,,,,,2613.776905,188,left,0.24382,radio       ,3,10,1,1,1,2613.794565,2613.794565,2616.29285,0,33,33,33,1,188,3,2,radio       ,camel         ,html/resources/sequences_IDs/B/10_radio.jpg,html/resources/sequences_IDs/A/03_camel.jpg,10,3,4,2,1,1,8,3,0,27,,,,,,,,,,,,,,,,,,,,
,,,,,27,2020-07-03_14h27.39.915,retriever_ti,2020.1.3,Win32,60,Chrome,1536,864,,,,,,,,,,,,,,,,,3,,,,,,,,,,,,,,,,,,,,,,,,,,,2617.39392,189,right,0.30764,hat           ,8,8,3,1,3,2617.410745,2617.410745,2619.909235,0,34,34,34,1,189,5,8,dolphin     ,hat           ,html/resources/sequences_IDs/B/02_dolphin.jpg,html/resources/sequences_IDs/A/08_hat.jpg,2,8,1,1,3,2,2,6,0,27,,,,,,,,,,,,,,,,,,,,
,,,,,27,2020-07-03_14h27.39.915,retriever_ti,2020.1.3,Win32,60,Chrome,1536,864,,,,,,,,,,,,,,,,,3,,,,,,,,,,,,,,,,,,,,,,,,,,,2620.526645,190,right,0.905205,radio       ,3,10,1,1,0,2620.54393,2620.54393,2623.04139,0,35,35,35,1,190,2,3,camel         ,radio       ,html/resources/sequences_IDs/A/03_camel.jpg,html/resources/sequences_IDs/B/10_radio.jpg,3,10,1,1,4,2,3,8,1,27,,,,,,,,,,,,,,,,,,,,
,,,,,27,2020-07-03_14h27.39.915,retriever_ti,2020.1.3,Win32,60,Chrome,1536,864,,,,,,,,,,,,,,,,,3,,,,,,,,,,,,,,,,,,,,,,,,,,,2624.14221,191,right,1.237675,calculator    ,4,9,1,1,1,2624.176415,2624.176415,2626.67442,0,36,36,36,1,191,3,4,radio       ,calculator    ,html/resources/sequences_IDs/B/10_radio.jpg,html/resources/sequences_IDs/A/09_calculator.jpg,10,9,4,2,4,2,8,7,0,27,,,,,,,,,,,,,,,,,,,,
,,,,,27,2020-07-03_14h27.39.915,retriever_ti,2020.1.3,Win32,60,Chrome,1536,864,,,,,,,,,,,,,,,,,3,,,,,,,,,,,,,,,,,,,,,,,,,,,2627.775365,192,left,1.009265,hat           ,8,8,2,1,3,2627.79235,2627.79235,2630.29038,0,37,37,37,1,192,8,6,hat           ,wolf          ,html/resources/sequences_IDs/A/08_hat.jpg,html/resources/sequences_IDs/A/01_wolf.jpg,8,1,3,2,1,1,6,1,0,27,,,,,,,,,,,,,,,,,,,,
,,,,,27,2020-07-03_14h27.39.915,retriever_ti,2020.1.3,Win32,60,Chrome,1536,864,,,,,,,,,,,,,,,,,3,,,,,,,,,,,,,,,,,,,,,,,,,,,2630.908065,193,right,1.083535,camel         ,2,3,1,1,1,2630.94189,2630.94189,2633.4402,0,38,38,38,1,193,1,2,holdfast    ,camel         ,html/resources/sequences_IDs/B/04_holdfast.jpg,html/resources/sequences_IDs/A/03_camel.jpg,4,3,2,1,1,1,4,3,0,27,,,,,,,,,,,,,,,,,,,,
,,,,,27,2020-07-03_14h27.39.915,retriever_ti,2020.1.3,Win32,60,Chrome,1536,864,,,,,,,,,,,,,,,,,3,,,,,,,,,,,,,,,,,,,,,,,,,,,2634.540465,194,left,0.426755,gloves      ,7,6,3,1,3,2634.57412,2634.57412,2637.07262,0,39,39,39,1,194,7,4,gloves      ,calculator    ,html/resources/sequences_IDs/B/06_gloves.jpg,html/resources/sequences_IDs/A/09_calculator.jpg,6,9,3,2,4,2,5,7,0,27,,,,,,,,,,,,,,,,,,,,
,,,,,27,2020-07-03_14h27.39.915,retriever_ti,2020.1.3,Win32,60,Chrome,1536,864,,,,,,,,,,,,,,,,,3,,,,,,,,,,,,,,,,,,,,,,,,,,,2637.689575,195,left,1.51686,wolf          ,6,1,1,1,1,2637.707125,2637.707125,2640.20536,0,40,40,40,1,195,6,5,wolf          ,dolphin     ,html/resources/sequences_IDs/A/01_wolf.jpg,html/resources/sequences_IDs/B/02_dolphin.jpg,1,2,1,1,1,1,1,2,0,27,,,,,,,,,,,,,,,,,,,,
,,,,,27,2020-07-03_14h27.39.915,retriever_ti,2020.1.3,Win32,60,Chrome,1536,864,,,,,,,,,,,,,,,,,3,,,,,,,,,,,,,,,,,,,,,,,,,,,2641.30588,196,right,0.195685,gloves      ,7,6,1,1,0,2641.323315,2641.323315,2643.821365,0,41,41,41,1,196,6,7,wolf          ,gloves      ,html/resources/sequences_IDs/A/01_wolf.jpg,html/resources/sequences_IDs/B/06_gloves.jpg,1,6,1,1,3,2,1,5,1,27,,,,,,,,,,,,,,,,,,,,
,,,,,27,2020-07-03_14h27.39.915,retriever_ti,2020.1.3,Win32,60,Chrome,1536,864,,,,,,,,,,,,,,,,,3,,,,,,,,,,,,,,,,,,,,,,,,,,,2644.92222,197,right,0.07617,radio       ,3,10,-3,0,3,2644.955435,2644.955435,2647.453655,0,42,42,42,1,197,6,3,wolf          ,radio       ,html/resources/sequences_IDs/A/01_wolf.jpg,html/resources/sequences_IDs/B/10_radio.jpg,1,10,1,1,4,2,1,8,0,27,,,,,,,,,,,,,,,,,,,,
,,,,,27,2020-07-03_14h27.39.915,retriever_ti,2020.1.3,Win32,60,Chrome,1536,864,,,,,,,,,,,,,,,,,3,,,,,,,,,,,,,,,,,,,,,,,,,,,2648.07076,198,left,0.378645,wolf          ,6,1,4,1,3,2648.105,2648.105,2650.603325,0,43,43,43,1,198,6,2,wolf          ,camel         ,html/resources/sequences_IDs/A/01_wolf.jpg,html/resources/sequences_IDs/A/03_camel.jpg,1,3,1,1,1,1,1,3,0,27,,,,,,,,,,,,,,,,,,,,
,,,,,27,2020-07-03_14h27.39.915,retriever_ti,2020.1.3,Win32,60,Chrome,1536,864,,,,,,,,,,,,,,,,,3,,,,,,,,,,,,,,,,,,,,,,,,,,,2651.22044,199,right,0.7659,camel         ,2,3,-1,0,0,2651.254255,2651.254255,2653.75283,0,44,44,44,1,199,3,2,radio       ,camel         ,html/resources/sequences_IDs/B/10_radio.jpg,html/resources/sequences_IDs/A/03_camel.jpg,10,3,4,2,1,1,8,3,0,27,,,,,,,,,,,,,,,,,,,,
,,,,,27,2020-07-03_14h27.39.915,retriever_ti,2020.1.3,Win32,60,Chrome,1536,864,,,,,,,,,,,,,,,,,3,,,,,,,,,,,,,,,,,,,,,,,,,,,2654.85338,200,left,0.16643,calculator    ,4,9,-4,0,3,2654.886685,2654.886685,2657.385075,0,45,45,45,1,200,4,8,calculator    ,hat           ,html/resources/sequences_IDs/A/09_calculator.jpg,html/resources/sequences_IDs/A/08_hat.jpg,9,8,4,2,3,2,7,6,0,27,,,,,,,,,,,,,,,,,,,,
,,,,,27,2020-07-03_14h27.39.915,retriever_ti,2020.1.3,Win32,60,Chrome,1536,864,,,,,,,,,,,,,,,,,3,,,,,,,,,,,,,,,,,,,,,,,,,,,2658.002085,201,right,0.19608,dolphin     ,5,2,-1,0,1,2658.019545,2658.019545,2660.51827,0,46,46,46,1,201,6,5,wolf          ,dolphin     ,html/resources/sequences_IDs/A/01_wolf.jpg,html/resources/sequences_IDs/B/02_dolphin.jpg,1,2,1,1,1,1,1,2,1,27,,,,,,,,,,,,,,,,,,,,
,,,,,27,2020-07-03_14h27.39.915,retriever_ti,2020.1.3,Win32,60,Chrome,1536,864,,,,,,,,,,,,,,,,,3,,,,,,,,,,,,,,,,,,,,,,,,,,,2661.618655,202,left,0.28189,gloves      ,7,6,4,1,3,2661.652025,2661.652025,2664.150155,0,47,47,47,1,202,7,3,gloves      ,radio       ,html/resources/sequences_IDs/B/06_gloves.jpg,html/resources/sequences_IDs/B/10_radio.jpg,6,10,3,2,4,2,5,8,0,27,,,,,,,,,,,,,,,,,,,,
,,,,,27,2020-07-03_14h27.39.915,retriever_ti,2020.1.3,Win32,60,Chrome,1536,864,,,,,,,,,,,,,,,,,3,,,,,,,,,,,,,,,,,,,,,,,,,,,2664.767055,203,left,0.332615,gloves      ,7,6,6,1,3,2664.80088,2664.80088,2667.29948,0,48,48,48,1,203,7,1,gloves      ,holdfast    ,html/resources/sequences_IDs/B/06_gloves.jpg,html/resources/sequences_IDs/B/04_holdfast.jpg,6,4,3,2,2,1,5,4,0,27,,,,,,,,,,,,,,,,,,,,
,,,,,27,2020-07-03_14h27.39.915,retriever_ti,2020.1.3,Win32,60,Chrome,1536,864,,,,,,,,,,,,,,,,,3,,,,,,,,,,,,,,,,,,,,,,,,,,,2667.91645,204,right,0.38146,dolphin     ,5,2,1,1,1,2667.95033,2667.95033,2670.449415,0,49,49,49,1,204,4,5,calculator    ,dolphin     ,html/resources/sequences_IDs/A/09_calculator.jpg,html/resources/sequences_IDs/B/02_dolphin.jpg,9,2,4,2,1,1,7,2,0,27,,,,,,,,,,,,,,,,,,,,
,,,,,27,2020-07-03_14h27.39.915,retriever_ti,2020.1.3,Win32,60,Chrome,1536,864,,,,,,,,,,,,,,,,,3,,,,,,,,,,,,,,,,,,,,,,,,,,,2671.549925,205,right,0.433815,radio       ,3,10,1,1,1,2671.56717,2671.56717,2674.06549,0,50,50,50,1,205,2,3,camel         ,radio       ,html/resources/sequences_IDs/A/03_camel.jpg,html/resources/sequences_IDs/B/10_radio.jpg,3,10,1,1,4,2,3,8,0,27,,,,,,,,,,,,,,,,,,,,
,,,,,27,2020-07-03_14h27.39.915,retriever_ti,2020.1.3,Win32,60,Chrome,1536,864,,,,,,,,,,,,,,,,,3,,,,,,,,,,,,,,,,,,,,,,,,,,,2675.16562,206,left,0.40504,camel         ,2,3,-1,0,0,2675.199855,2675.199855,2677.698015,0,51,51,51,1,206,2,3,camel         ,radio       ,html/resources/sequences_IDs/A/03_camel.jpg,html/resources/sequences_IDs/B/10_radio.jpg,3,10,1,1,4,2,3,8,0,27,,,,,,,,,,,,,,,,,,,,
,,,,,27,2020-07-03_14h27.39.915,retriever_ti,2020.1.3,Win32,60,Chrome,1536,864,,,,,,,,,,,,,,,,,3,,,,,,,,,,,,,,,,,,,,,,,,,,,2678.79868,207,right,0.228875,holdfast    ,1,4,-2,0,3,2678.832525,2678.832525,2681.33026,0,52,52,52,1,207,3,1,radio       ,holdfast    ,html/resources/sequences_IDs/B/10_radio.jpg,html/resources/sequences_IDs/B/04_holdfast.jpg,10,4,4,2,2,1,8,4,0,27,,,,,,,,,,,,,,,,,,,,
,,,,,27,2020-07-03_14h27.39.915,retriever_ti,2020.1.3,Win32,60,Chrome,1536,864,,,,,,,,,,,,,,,,,3,,,,,,,,,,,,,,,,,,,,,,,,,,,2681.94697,208,left,0.024685,hat           ,8,8,5,1,3,2681.96413,2681.96413,2684.462905,0,53,53,53,1,208,8,3,hat           ,radio       ,html/resources/sequences_IDs/A/08_hat.jpg,html/resources/sequences_IDs/B/10_radio.jpg,8,10,3,2,4,2,6,8,0,27,,,,,,,,,,,,,,,,,,,,
,,,,,27,2020-07-03_14h27.39.915,retriever_ti,2020.1.3,Win32,60,Chrome,1536,864,,,,,,,,,,,,,,,,,3,,,,,,,,,,,,,,,,,,,,,,,,,,,2685.08015,209,right,0.73058,calculator    ,4,9,-1,0,1,2685.113605,2685.113605,2687.61219,0,54,54,54,1,209,5,4,dolphin     ,calculator    ,html/resources/sequences_IDs/B/02_dolphin.jpg,html/resources/sequences_IDs/A/09_calculator.jpg,2,9,1,1,4,2,2,7,1,27,,,,,,,,,,,,,,,,,,,,
,,,,,27,2020-07-03_14h27.39.915,retriever_ti,2020.1.3,Win32,60,Chrome,1536,864,,,,,,,,,,,,,,,,,3,,,,,,,,,,,,,,,,,,,,,,,,,,,2688.71263,210,left,0.519995,dolphin     ,5,2,2,1,3,2688.72939,2688.72939,2691.22859,0,55,55,55,1,210,5,3,dolphin     ,radio       ,html/resources/sequences_IDs/B/02_dolphin.jpg,html/resources/sequences_IDs/B/10_radio.jpg,2,10,1,1,4,2,2,8,0,27,,,,,,,,,,,,,,,,,,,,
,,,,,27,2020-07-03_14h27.39.915,retriever_ti,2020.1.3,Win32,60,Chrome,1536,864,,,,,,,,,,,,,,,,,3,,,,,,,,,,,,,,,,,,,,,,,,,,,2691.8456,211,right,0.236445,gloves      ,7,6,1,1,1,2691.86295,2691.86295,2694.36089,0,56,56,56,1,211,6,7,wolf          ,gloves      ,html/resources/sequences_IDs/A/01_wolf.jpg,html/resources/sequences_IDs/B/06_gloves.jpg,1,6,1,1,3,2,1,5,0,27,,,,,,,,,,,,,,,,,,,,
,,,,,27,2020-07-03_14h27.39.915,retriever_ti,2020.1.3,Win32,60,Chrome,1536,864,,,,,,,,,,,,,,,,,3,,,,,,,,,,,,,,,,,,,,,,,,,,,2695.461335,212,left,0.147175,calculator    ,4,9,-1,0,0,2695.47788,2695.47788,2697.977085,0,57,57,57,1,212,4,5,calculator    ,dolphin     ,html/resources/sequences_IDs/A/09_calculator.jpg,html/resources/sequences_IDs/B/02_dolphin.jpg,9,2,4,2,1,1,7,2,0,27,,,,,,,,,,,,,,,,,,,,
,,,,,27,2020-07-03_14h27.39.915,retriever_ti,2020.1.3,Win32,60,Chrome,1536,864,,,,,,,,,,,,,,,,,3,,,,,,,,,,,,,,,,,,,,,,,,,,,2699.07785,213,right,0.182455,calculator    ,4,9,3,1,3,2699.111795,2699.111795,2701.60985,0,58,58,58,1,213,1,4,holdfast    ,calculator    ,html/resources/sequences_IDs/B/04_holdfast.jpg,html/resources/sequences_IDs/A/09_calculator.jpg,4,9,2,1,4,2,4,7,0,27,,,,,,,,,,,,,,,,,,,,
,,,,,27,2020-07-03_14h27.39.915,retriever_ti,2020.1.3,Win32,60,Chrome,1536,864,,,,,,,,,,,,,,,,,3,,,,,,,,,,,,,,,,,,,,,,,,,,,2702.22697,214,left,0.284825,radio       ,3,10,-3,0,3,2702.260965,2702.260965,2704.75927,0,59,59,59,1,214,3,6,radio       ,wolf          ,html/resources/sequences_IDs/B/10_radio.jpg,html/resources/sequences_IDs/A/01_wolf.jpg,10,1,4,2,1,1,8,1,0,27,,,,,,,,,,,,,,,,,,,,
,,,,,27,2020-07-03_14h27.39.915,retriever_ti,2020.1.3,Win32,60,Chrome,1536,864,,,,,,,,,,,,,,,,,3,,,,,,,,,,,,,,,,,,,,,,,,,,,2705.37643,215,right,0.199185,hat           ,8,8,1,1,1,2705.41056,2705.41056,2707.90877,0,60,60,60,1,215,7,8,gloves      ,hat           ,html/resources/sequences_IDs/B/06_gloves.jpg,html/resources/sequences_IDs/A/08_hat.jpg,6,8,3,2,3,2,5,6,0,27,,,,,,,,,,,,,,,,,,,,
,,,,,27,2020-07-03_14h27.39.915,retriever_ti,2020.1.3,Win32,60,Chrome,1536,864,,,,,,,,,,,,,,,,,3,,,,,,,,,,,,,,,,,,,,,,,,,,,2709.009245,216,left,0.001045,hat           ,8,8,4,1,3,2709.02635,2709.02635,2711.524425,0,61,61,61,1,216,8,4,hat           ,calculator    ,html/resources/sequences_IDs/A/08_hat.jpg,html/resources/sequences_IDs/A/09_calculator.jpg,8,9,3,2,4,2,6,7,0,27,,,,,,,,,,,,,,,,,,,,
,,,,,27,2020-07-03_14h27.39.915,retriever_ti,2020.1.3,Win32,60,Chrome,1536,864,,,,,,,,,,,,,,,,,3,,,,,,,,,,,,,,,,,,,,,,,,,,,2712.14159,217,right,0.404595,gloves      ,7,6,6,1,3,2712.175785,2712.175785,2714.67389,0,62,62,62,1,217,1,7,holdfast    ,gloves      ,html/resources/sequences_IDs/B/04_holdfast.jpg,html/resources/sequences_IDs/B/06_gloves.jpg,4,6,2,1,3,2,4,5,0,27,,,,,,,,,,,,,,,,,,,,
,,,,,27,2020-07-03_14h27.39.915,retriever_ti,2020.1.3,Win32,60,Chrome,1536,864,,,,,,,,,,,,,,,,,3,,,,,,,,,,,,,,,,,,,,,,,,,,,2715.29167,218,left,1.00304,radio       ,3,10,-1,0,0,2715.32527,2715.32527,2717.823645,0,63,63,63,1,218,3,4,radio       ,calculator    ,html/resources/sequences_IDs/B/10_radio.jpg,html/resources/sequences_IDs/A/09_calculator.jpg,10,9,4,2,4,2,8,7,0,27,,,,,,,,,,,,,,,,,,,,
,,,,,27,2020-07-03_14h27.39.915,retriever_ti,2020.1.3,Win32,60,Chrome,1536,864,,,,,,,,,,,,,,,,,3,,,,,,,,,,,,,,,,,,,,,,,,,,,2718.923985,219,right,0.42278,holdfast    ,1,4,-1,0,1,2718.941395,2718.941395,2721.438945,0,64,64,64,1,219,2,1,camel         ,holdfast    ,html/resources/sequences_IDs/A/03_camel.jpg,html/resources/sequences_IDs/B/04_holdfast.jpg,3,4,1,1,2,1,3,4,1,27,,,,,,,,,,,,,,,,,,,,
,,,,,27,2020-07-03_14h27.39.915,retriever_ti,2020.1.3,Win32,60,Chrome,1536,864,,,,,,,,,,,,,,,,,3,,,,,,,,,,,,,,,,,,,,,,,,,,,2722.53918,220,left,0.43969,calculator    ,4,9,1,1,0,2722.55634,2722.55634,2725.05569,0,65,65,65,1,220,4,3,calculator    ,radio       ,html/resources/sequences_IDs/A/09_calculator.jpg,html/resources/sequences_IDs/B/10_radio.jpg,9,10,4,2,4,2,7,8,1,27,,,,,,,,,,,,,,,,,,,,
,,,,,27,2020-07-03_14h27.39.915,retriever_ti,2020.1.3,Win32,60,Chrome,1536,864,,,,,,,,,,,,,,,,,3,,,,,,,,,,,,,,,,,,,,,,,,,,,2726.155615,221,right,1.164045,calculator    ,4,9,2,1,3,2726.17298,2726.17298,2728.670685,0,66,66,66,1,221,2,4,camel         ,calculator    ,html/resources/sequences_IDs/A/03_camel.jpg,html/resources/sequences_IDs/A/09_calculator.jpg,3,9,1,1,4,2,3,7,0,27,,,,,,,,,,,,,,,,,,,,
