instructionsLoop.thisRepN,instructionsLoop.thisTrialN,instructionsLoop.thisN,instructionsLoop.thisIndex,instructionsLoop.ran,participant,date,expName,psychopyVersion,OS,frameRate,browser,xResolution,yResolution,fix_onset,tprac,practiceKey.keys,practiceKey.rt,pracitem_chosen_name,acc_practice,P1_onsetPrac,P2_onsetPrac,onsetFeedbPrac,practiceTrials.thisRepN,practiceTrials.thisTrialN,practiceTrials.thisN,practiceTrials.thisIndex,practiceTrials.ran,P1,P2,Block,LocItem1,LocItem2,NameItem1,NameItem2,key_respAC_prac.keys,key_respAC_prac.corr,key_respAC_prac.rt,AC_acc,Attentions.thisRepN,Attentions.thisTrialN,Attentions.thisN,Attentions.thisIndex,Attentions.ran,Stim,Loc1,Loc2,Loc3,Loc4,CorrAns,keyDisturbed.keys,keyDisturbed.rt,repPractice.thisRepN,repPractice.thisTrialN,repPractice.thisN,repPractice.thisIndex,repPractice.ran,fixcross_onsetMain,trialNumber,key_resp.keys,key_resp.rt,item_chosen_name,item_chosen_value,item_chosen_ID,diff_chosen_minus_reject,acc_real,acc_feedback,P1_onset,P2_onset,feedb_onset,trials.thisRepN,trials.thisTrialN,trials.thisN,trials.thisIndex,trials.ran,Trial,ValueP1,ValueP2,P1name,P2name,P1Loc,P2Loc,P1id,P2id,Micro_categoryP1,Macro_categoryP1,Micro_categoryP2,Macro_categoryP2,ID_sequenceP1,ID_sequenceP2,InverseFb,pNumber,repBlocks.thisRepN,repBlocks.thisTrialN,repBlocks.thisN,repBlocks.thisIndex,repBlocks.ran,key_respAC.keys,key_respAC.corr,key_respAC.rt,trials_AC.thisRepN,trials_AC.thisTrialN,trials_AC.thisN,trials_AC.thisIndex,trials_AC.ran,Bonus,BonusLoop.thisRepN,BonusLoop.thisTrialN,BonusLoop.thisN,BonusLoop.thisIndex,BonusLoop.ran,comments
0,0,0,0,1,29,2020-07-03_14h39.27.615,retriever_ti,2020.1.3,Win32,60,Chrome,1366,768,,,,,,,,,,,,,,,,,,,,,,,,,,,,,,,,,,,,,,,,,,,,,,,,,,,,,,,,,,,,,,,,,,,,,,,,,,,,,,,,,,,,,,,,,,,,,,,,,,
1,0,1,0,1,29,2020-07-03_14h39.27.615,retriever_ti,2020.1.3,Win32,60,Chrome,1366,768,,,,,,,,,,,,,,,,,,,,,,,,,,,,,,,,,,,,,,,,,,,,,,,,,,,,,,,,,,,,,,,,,,,,,,,,,,,,,,,,,,,,,,,,,,,,,,,,,,
2,0,2,0,1,29,2020-07-03_14h39.27.615,retriever_ti,2020.1.3,Win32,60,Chrome,1366,768,,,,,,,,,,,,,,,,,,,,,,,,,,,,,,,,,,,,,,,,,,,,,,,,,,,,,,,,,,,,,,,,,,,,,,,,,,,,,,,,,,,,,,,,,,,,,,,,,,
3,0,3,0,1,29,2020-07-03_14h39.27.615,retriever_ti,2020.1.3,Win32,60,Chrome,1366,768,,,,,,,,,,,,,,,,,,,,,,,,,,,,,,,,,,,,,,,,,,,,,,,,,,,,,,,,,,,,,,,,,,,,,,,,,,,,,,,,,,,,,,,,,,,,,,,,,,
4,0,4,0,1,29,2020-07-03_14h39.27.615,retriever_ti,2020.1.3,Win32,60,Chrome,1366,768,,,,,,,,,,,,,,,,,,,,,,,,,,,,,,,,,,,,,,,,,,,,,,,,,,,,,,,,,,,,,,,,,,,,,,,,,,,,,,,,,,,,,,,,,,,,,,,,,,
5,0,5,0,1,29,2020-07-03_14h39.27.615,retriever_ti,2020.1.3,Win32,60,Chrome,1366,768,,,,,,,,,,,,,,,,,,,,,,,,,,,,,,,,,,,,,,,,,,,,,,,,,,,,,,,,,,,,,,,,,,,,,,,,,,,,,,,,,,,,,,,,,,,,,,,,,,
6,0,6,0,1,29,2020-07-03_14h39.27.615,retriever_ti,2020.1.3,Win32,60,Chrome,1366,768,,,,,,,,,,,,,,,,,,,,,,,,,,,,,,,,,,,,,,,,,,,,,,,,,,,,,,,,,,,,,,,,,,,,,,,,,,,,,,,,,,,,,,,,,,,,,,,,,,
7,0,7,0,1,29,2020-07-03_14h39.27.615,retriever_ti,2020.1.3,Win32,60,Chrome,1366,768,,,,,,,,,,,,,,,,,,,,,,,,,,,,,,,,,,,,,,,,,,,,,,,,,,,,,,,,,,,,,,,,,,,,,,,,,,,,,,,,,,,,,,,,,,,,,,,,,,
8,0,8,0,1,29,2020-07-03_14h39.27.615,retriever_ti,2020.1.3,Win32,60,Chrome,1366,768,,,,,,,,,,,,,,,,,,,,,,,,,,,,,,,,,,,,,,,,,,,,,,,,,,,,,,,,,,,,,,,,,,,,,,,,,,,,,,,,,,,,,,,,,,,,,,,,,,
9,0,9,0,1,29,2020-07-03_14h39.27.615,retriever_ti,2020.1.3,Win32,60,Chrome,1366,768,,,,,,,,,,,,,,,,,,,,,,,,,,,,,,,,,,,,,,,,,,,,,,,,,,,,,,,,,,,,,,,,,,,,,,,,,,,,,,,,,,,,,,,,,,,,,,,,,,
10,0,10,0,1,29,2020-07-03_14h39.27.615,retriever_ti,2020.1.3,Win32,60,Chrome,1366,768,,,,,,,,,,,,,,,,,,,,,,,,,,,,,,,,,,,,,,,,,,,,,,,,,,,,,,,,,,,,,,,,,,,,,,,,,,,,,,,,,,,,,,,,,,,,,,,,,,
11,0,11,0,1,29,2020-07-03_14h39.27.615,retriever_ti,2020.1.3,Win32,60,Chrome,1366,768,,,,,,,,,,,,,,,,,,,,,,,,,,,,,,,,,,,,,,,,,,,,,,,,,,,,,,,,,,,,,,,,,,,,,,,,,,,,,,,,,,,,,,,,,,,,,,,,,,
12,0,12,0,1,29,2020-07-03_14h39.27.615,retriever_ti,2020.1.3,Win32,60,Chrome,1366,768,,,,,,,,,,,,,,,,,,,,,,,,,,,,,,,,,,,,,,,,,,,,,,,,,,,,,,,,,,,,,,,,,,,,,,,,,,,,,,,,,,,,,,,,,,,,,,,,,,
13,0,13,0,1,29,2020-07-03_14h39.27.615,retriever_ti,2020.1.3,Win32,60,Chrome,1366,768,,,,,,,,,,,,,,,,,,,,,,,,,,,,,,,,,,,,,,,,,,,,,,,,,,,,,,,,,,,,,,,,,,,,,,,,,,,,,,,,,,,,,,,,,,,,,,,,,,
14,0,14,0,1,29,2020-07-03_14h39.27.615,retriever_ti,2020.1.3,Win32,60,Chrome,1366,768,,,,,,,,,,,,,,,,,,,,,,,,,,,,,,,,,,,,,,,,,,,,,,,,,,,,,,,,,,,,,,,,,,,,,,,,,,,,,,,,,,,,,,,,,,,,,,,,,,
15,0,15,0,1,29,2020-07-03_14h39.27.615,retriever_ti,2020.1.3,Win32,60,Chrome,1366,768,,,,,,,,,,,,,,,,,,,,,,,,,,,,,,,,,,,,,,,,,,,,,,,,,,,,,,,,,,,,,,,,,,,,,,,,,,,,,,,,,,,,,,,,,,,,,,,,,,
,,,,,29,2020-07-03_14h39.27.615,retriever_ti,2020.1.3,Win32,60,Chrome,1366,768,15.773255,1,right,1.104085,canary,1,15.8208,15.8208,18.34434,0,0,0,0,1,2,5,1,html/resources/stimuli_practice_decision/04_beetle.jpg,html/resources/stimuli_practice_decision/02_canary.jpg,beetle,canary,,,,,,,,,,,,,,,,,,,,,,,,,,,,,,,,,,,,,,,,,,,,,,,,,,,,,,,,,,,,,,,,,,,,,,,,,,,,,
,,,,,29,2020-07-03_14h39.27.615,retriever_ti,2020.1.3,Win32,60,Chrome,1366,768,19.317065,2,left,0.55673,rabbit,1,19.33556,19.33556,21.83432,0,1,1,1,1,4,3,1,html/resources/stimuli_practice_decision/01_rabbit.jpg,html/resources/stimuli_practice_decision/07_sock.jpg,rabbit,sock,,,,,,,,,,,,,,,,,,,,,,,,,,,,,,,,,,,,,,,,,,,,,,,,,,,,,,,,,,,,,,,,,,,,,,,,,,,,,
,,,,,29,2020-07-03_14h39.27.615,retriever_ti,2020.1.3,Win32,60,Chrome,1366,768,22.83639,3,right,0.76503,beetle,0,22.87003,22.87003,25.36747,0,2,2,2,1,6,2,1,html/resources/stimuli_practice_decision/06_pullover.jpg,html/resources/stimuli_practice_decision/04_beetle.jpg,pullover,beetle,,,,,,,,,,,,,,,,,,,,,,,,,,,,,,,,,,,,,,,,,,,,,,,,,,,,,,,,,,,,,,,,,,,,,,,,,,,,,
,,,,,29,2020-07-03_14h39.27.615,retriever_ti,2020.1.3,Win32,60,Chrome,1366,768,25.884875,4,right,0.916205,handmixer,0,25.921505,25.921505,28.418915,0,3,3,3,1,7,1,1,html/resources/stimuli_practice_decision/05_glasses.jpg,html/resources/stimuli_practice_decision/08_handmixer.jpg,glasses,handmixer,,,,,,,,,,,,,,,,,,,,,,,,,,,,,,,,,,,,,,,,,,,,,,,,,,,,,,,,,,,,,,,,,,,,,,,,,,,,,
,,,,,29,2020-07-03_14h39.27.615,retriever_ti,2020.1.3,Win32,60,Chrome,1366,768,28.937295,5,left,0.798295,glasses,1,28.971415,28.971415,31.46309,0,4,4,4,1,7,6,1,html/resources/stimuli_practice_decision/05_glasses.jpg,html/resources/stimuli_practice_decision/06_pullover.jpg,glasses,pullover,,,,,,,,,,,,,,,,,,,,,,,,,,,,,,,,,,,,,,,,,,,,,,,,,,,,,,,,,,,,,,,,,,,,,,,,,,,,,
,,,,,29,2020-07-03_14h39.27.615,retriever_ti,2020.1.3,Win32,60,Chrome,1366,768,32.45688,6,left,1.09061,rabbit,0,32.473075,32.473075,34.969215,0,5,5,5,1,4,7,1,html/resources/stimuli_practice_decision/01_rabbit.jpg,html/resources/stimuli_practice_decision/05_glasses.jpg,rabbit,glasses,,,,,,,,,,,,,,,,,,,,,,,,,,,,,,,,,,,,,,,,,,,,,,,,,,,,,,,,,,,,,,,,,,,,,,,,,,,,,
,,,,,29,2020-07-03_14h39.27.615,retriever_ti,2020.1.3,Win32,60,Chrome,1366,768,35.48725,7,right,1.052305,beetle,1,35.5054,35.5054,38.10332,0,6,6,6,1,1,2,1,html/resources/stimuli_practice_decision/08_handmixer.jpg,html/resources/stimuli_practice_decision/04_beetle.jpg,handmixer,beetle,,,,,,,,,,,,,,,,,,,,,,,,,,,,,,,,,,,,,,,,,,,,,,,,,,,,,,,,,,,,,,,,,,,,,,,,,,,,,
,,,,,29,2020-07-03_14h39.27.615,retriever_ti,2020.1.3,Win32,60,Chrome,1366,768,39.105555,8,left,0.828175,rabbit,1,39.1264,39.1264,41.61072,0,7,7,7,1,4,3,1,html/resources/stimuli_practice_decision/01_rabbit.jpg,html/resources/stimuli_practice_decision/07_sock.jpg,rabbit,sock,,,,,,,,,,,,,,,,,,,,,,,,,,,,,,,,,,,,,,,,,,,,,,,,,,,,,,,,,,,,,,,,,,,,,,,,,,,,,
,,,,,29,2020-07-03_14h39.27.615,retriever_ti,2020.1.3,Win32,60,Chrome,1366,768,,,,,,,,,,,,,,,,,,,,,,up,1,1.071825,1,0,0,0,0,1,html/resources/sequences_IDs/circle.png,circle ↑,square →,triangle ↓,← star ,up,,,,,,,,,,,,,,,,,,,,,,,,,,,,,,,,,,,,,,,,,,,,,,,,,,,,,,,,,,,,,,
,,,,,29,2020-07-03_14h39.27.615,retriever_ti,2020.1.3,Win32,60,Chrome,1366,768,,,,,,,,,,,,,,,,,,,,,,down,1,0.96407,1,0,1,1,3,1,html/resources/sequences_IDs/triangle.png,star ↑,square →,triangle ↓,← circle,down,,,,,,,,,,,,,,,,,,,,,,,,,,,,,,,,,,,,,,,,,,,,,,,,,,,,,,,,,,,,,,
,,,,,29,2020-07-03_14h39.27.615,retriever_ti,2020.1.3,Win32,60,Chrome,1366,768,,,,,,,,,,,,,,,,,,,,,,down,1,0.970585,1,0,2,2,1,1,html/resources/sequences_IDs/star.png,square ↑,circle →,star ↓,← triangle,down,,,,,,,,,,,,,,,,,,,,,,,,,,,,,,,,,,,,,,,,,,,,,,,,,,,,,,,,,,,,,,
,,,,,29,2020-07-03_14h39.27.615,retriever_ti,2020.1.3,Win32,60,Chrome,1366,768,,,,,,,,,,,,,,,,,,,,,,left,1,1.625575,1,0,3,3,2,1,html/resources/sequences_IDs/square1.png,star ↑,triangle →,circle ↓,← square,left,,,,,,,,,,,,,,,,,,,,,,,,,,,,,,,,,,,,,,,,,,,,,,,,,,,,,,,,,,,,,,
,,,,,29,2020-07-03_14h39.27.615,retriever_ti,2020.1.3,Win32,60,Chrome,1366,768,,,,,,,,,,,,,,,,,,,,,,,,,,,,,,,,,,,,,0,1.27342,0,0,0,0,1,,,,,,,,,,,,,,,,,,,,,,,,,,,,,,,,,,,,,,,,,,,,,,,,,,,,,,,
,,,,,29,2020-07-03_14h39.27.615,retriever_ti,2020.1.3,Win32,60,Chrome,1366,768,50.305725,9,right,0.662795,glasses,1,50.34184,50.34184,52.840005,0,0,0,0,1,6,7,1,html/resources/stimuli_practice_decision/06_pullover.jpg,html/resources/stimuli_practice_decision/05_glasses.jpg,pullover,glasses,,,,,,,,,,,,,,,,,,,,,,,,,,,,,,,,,,,,,,,,,,,,,,,,,,,,,,,,,,,,,,,,,,,,,,,,,,,,,
,,,,,29,2020-07-03_14h39.27.615,retriever_ti,2020.1.3,Win32,60,Chrome,1366,768,53.841555,10,left,0.92797,pullover,1,53.861855,53.861855,56.357745,0,1,1,1,1,6,2,1,html/resources/stimuli_practice_decision/06_pullover.jpg,html/resources/stimuli_practice_decision/04_beetle.jpg,pullover,beetle,,,,,,,,,,,,,,,,,,,,,,,,,,,,,,,,,,,,,,,,,,,,,,,,,,,,,,,,,,,,,,,,,,,,,,,,,,,,,
,,,,,29,2020-07-03_14h39.27.615,retriever_ti,2020.1.3,Win32,60,Chrome,1366,768,56.874205,11,left,0.785155,canary,0,56.909875,56.909875,59.408055,0,2,2,2,1,5,6,1,html/resources/stimuli_practice_decision/02_canary.jpg,html/resources/stimuli_practice_decision/06_pullover.jpg,canary,pullover,,,,,,,,,,,,,,,,,,,,,,,,,,,,,,,,,,,,,,,,,,,,,,,,,,,,,,,,,,,,,,,,,,,,,,,,,,,,,
,,,,,29,2020-07-03_14h39.27.615,retriever_ti,2020.1.3,Win32,60,Chrome,1366,768,60.409,12,left,0.605635,squirrel,1,60.427365,60.427365,62.915475,0,3,3,3,1,8,7,1,html/resources/stimuli_practice_decision/03_squirrel.jpg,html/resources/stimuli_practice_decision/05_glasses.jpg,squirrel,glasses,,,,,,,,,,,,,,,,,,,,,,,,,,,,,,,,,,,,,,,,,,,,,,,,,,,,,,,,,,,,,,,,,,,,,,,,,,,,,
,,,,,29,2020-07-03_14h39.27.615,retriever_ti,2020.1.3,Win32,60,Chrome,1366,768,63.91421,13,left,0.530555,canary,1,63.932645,63.932645,66.431195,0,4,4,4,1,5,3,1,html/resources/stimuli_practice_decision/02_canary.jpg,html/resources/stimuli_practice_decision/07_sock.jpg,canary,sock,,,,,,,,,,,,,,,,,,,,,,,,,,,,,,,,,,,,,,,,,,,,,,,,,,,,,,,,,,,,,,,,,,,,,,,,,,,,,
,,,,,29,2020-07-03_14h39.27.615,retriever_ti,2020.1.3,Win32,60,Chrome,1366,768,66.949085,14,right,0.935935,squirrel,1,66.967385,66.967385,69.46025,0,5,5,5,1,7,8,1,html/resources/stimuli_practice_decision/05_glasses.jpg,html/resources/stimuli_practice_decision/03_squirrel.jpg,glasses,squirrel,,,,,,,,,,,,,,,,,,,,,,,,,,,,,,,,,,,,,,,,,,,,,,,,,,,,,,,,,,,,,,,,,,,,,,,,,,,,,
,,,,,29,2020-07-03_14h39.27.615,retriever_ti,2020.1.3,Win32,60,Chrome,1366,768,70.460705,15,right,1.11441,rabbit,0,70.49736,70.49736,72.98238,0,6,6,6,1,5,4,1,html/resources/stimuli_practice_decision/02_canary.jpg,html/resources/stimuli_practice_decision/01_rabbit.jpg,canary,rabbit,,,,,,,,,,,,,,,,,,,,,,,,,,,,,,,,,,,,,,,,,,,,,,,,,,,,,,,,,,,,,,,,,,,,,,,,,,,,,
,,,,,29,2020-07-03_14h39.27.615,retriever_ti,2020.1.3,Win32,60,Chrome,1366,768,74.00155,16,left,0.514625,canary,1,74.015385,74.015385,76.500945,0,7,7,7,1,5,3,1,html/resources/stimuli_practice_decision/02_canary.jpg,html/resources/stimuli_practice_decision/07_sock.jpg,canary,sock,,,,,,,,,,,,,,,,,,,,,,,,,,,,,,,,,,,,,,,,,,,,,,,,,,,,,,,,,,,,,,,,,,,,,,,,,,,,,
,,,,,29,2020-07-03_14h39.27.615,retriever_ti,2020.1.3,Win32,60,Chrome,1366,768,,,,,,,,,,,,,,,,,,,,,,up,1,1.518865,1,0,0,0,0,1,html/resources/sequences_IDs/circle.png,circle ↑,square →,triangle ↓,← star ,up,,,,,,,,,,,,,,,,,,,,,,,,,,,,,,,,,,,,,,,,,,,,,,,,,,,,,,,,,,,,,,
,,,,,29,2020-07-03_14h39.27.615,retriever_ti,2020.1.3,Win32,60,Chrome,1366,768,,,,,,,,,,,,,,,,,,,,,,down,1,0.884555,1,0,1,1,1,1,html/resources/sequences_IDs/star.png,square ↑,circle →,star ↓,← triangle,down,,,,,,,,,,,,,,,,,,,,,,,,,,,,,,,,,,,,,,,,,,,,,,,,,,,,,,,,,,,,,,
,,,,,29,2020-07-03_14h39.27.615,retriever_ti,2020.1.3,Win32,60,Chrome,1366,768,,,,,,,,,,,,,,,,,,,,,,left,1,0.78242,1,0,2,2,2,1,html/resources/sequences_IDs/square1.png,star ↑,triangle →,circle ↓,← square,left,,,,,,,,,,,,,,,,,,,,,,,,,,,,,,,,,,,,,,,,,,,,,,,,,,,,,,,,,,,,,,
,,,,,29,2020-07-03_14h39.27.615,retriever_ti,2020.1.3,Win32,60,Chrome,1366,768,,,,,,,,,,,,,,,,,,,,,,down,1,0.785385,1,0,3,3,3,1,html/resources/sequences_IDs/triangle.png,star ↑,square →,triangle ↓,← circle,down,,,,,,,,,,,,,,,,,,,,,,,,,,,,,,,,,,,,,,,,,,,,,,,,,,,,,,,,,,,,,,
,,,,,29,2020-07-03_14h39.27.615,retriever_ti,2020.1.3,Win32,60,Chrome,1366,768,,,,,,,,,,,,,,,,,,,,,,,,,,,,,,,,,,,,,0,1.09261,1,0,1,0,1,,,,,,,,,,,,,,,,,,,,,,,,,,,,,,,,,,,,,,,,,,,,,,,,,,,,,,,
,,,,,29,2020-07-03_14h39.27.615,retriever_ti,2020.1.3,Win32,60,Chrome,1366,768,,,,,,,,,,,,,,,,,1,,,,,,,,,,,,,,,,,,,,,,,,,,,86.853205,1,right,0.76899,dolphin     ,1,2,-5,0,3,87.13376,87.13376,89.63207,0,0,0,0,1,1,6,1,camel         ,dolphin     ,html/resources/sequences_IDs/A/03_camel.jpg,html/resources/sequences_IDs/B/02_dolphin.jpg,3,2,1,1,1,1,3,2,0,29,,,,,,,,,,,,,,,,,,,,
,,,,,29,2020-07-03_14h39.27.615,retriever_ti,2020.1.3,Win32,60,Chrome,1366,768,,,,,,,,,,,,,,,,,1,,,,,,,,,,,,,,,,,,,,,,,,,,,90.25104,2,left,0.609595,sport_tshirt,3,7,-3,0,3,90.26655,90.26655,92.763495,0,1,1,1,1,2,3,6,sport_tshirt,camel         ,html/resources/sequences_IDs/B/07_sport_tshirt.jpg,html/resources/sequences_IDs/A/03_camel.jpg,7,3,3,2,1,1,6,3,0,29,,,,,,,,,,,,,,,,,,,,
,,,,,29,2020-07-03_14h39.27.615,retriever_ti,2020.1.3,Win32,60,Chrome,1366,768,,,,,,,,,,,,,,,,,1,,,,,,,,,,,,,,,,,,,,,,,,,,,93.36539,3,left,0.524225,parrot      ,7,5,1,1,1,93.38415,93.38415,95.872265,0,2,2,2,1,3,7,6,parrot      ,camel         ,html/resources/sequences_IDs/B/05_parrot.jpg,html/resources/sequences_IDs/A/03_camel.jpg,5,3,2,1,1,1,4,3,0,29,,,,,,,,,,,,,,,,,,,,
,,,,,29,2020-07-03_14h39.27.615,retriever_ti,2020.1.3,Win32,60,Chrome,1366,768,,,,,,,,,,,,,,,,,1,,,,,,,,,,,,,,,,,,,,,,,,,,,96.971805,4,right,0.76238,hat           ,4,8,-4,0,3,97.005885,97.005885,99.498155,0,3,3,3,1,4,8,4,satellite_dish,hat           ,html/resources/sequences_IDs/A/10_satellite_dish.jpg,html/resources/sequences_IDs/A/08_hat.jpg,10,8,4,2,3,2,8,7,0,29,,,,,,,,,,,,,,,,,,,,
,,,,,29,2020-07-03_14h39.27.615,retriever_ti,2020.1.3,Win32,60,Chrome,1366,768,,,,,,,,,,,,,,,,,1,,,,,,,,,,,,,,,,,,,,,,,,,,,100.10036,5,left,0.695405,parrot      ,7,5,-1,0,1,100.118955,100.118955,102.615525,0,4,4,4,1,5,7,8,parrot      ,satellite_dish,html/resources/sequences_IDs/B/05_parrot.jpg,html/resources/sequences_IDs/A/10_satellite_dish.jpg,5,10,2,1,4,2,4,8,1,29,,,,,,,,,,,,,,,,,,,,
,,,,,29,2020-07-03_14h39.27.615,retriever_ti,2020.1.3,Win32,60,Chrome,1366,768,,,,,,,,,,,,,,,,,1,,,,,,,,,,,,,,,,,,,,,,,,,,,103.7165,6,left,0.541515,hat           ,4,8,1,1,1,103.75319,103.75319,106.24928,0,5,5,5,1,6,4,3,hat           ,sport_tshirt,html/resources/sequences_IDs/A/08_hat.jpg,html/resources/sequences_IDs/B/07_sport_tshirt.jpg,8,7,3,2,3,2,7,6,0,29,,,,,,,,,,,,,,,,,,,,
,,,,,29,2020-07-03_14h39.27.615,retriever_ti,2020.1.3,Win32,60,Chrome,1366,768,,,,,,,,,,,,,,,,,1,,,,,,,,,,,,,,,,,,,,,,,,,,,107.352955,7,left,0.61048,satellite_dish,8,10,3,1,3,107.38561,107.38561,109.88416,0,6,6,6,1,7,8,5,satellite_dish,gloves      ,html/resources/sequences_IDs/A/10_satellite_dish.jpg,html/resources/sequences_IDs/B/06_gloves.jpg,10,6,4,2,3,2,8,5,0,29,,,,,,,,,,,,,,,,,,,,
,,,,,29,2020-07-03_14h39.27.615,retriever_ti,2020.1.3,Win32,60,Chrome,1366,768,,,,,,,,,,,,,,,,,1,,,,,,,,,,,,,,,,,,,,,,,,,,,110.502195,8,left,0.96008,gloves      ,5,6,-3,0,3,110.52052,110.52052,113.007835,0,7,7,7,1,8,5,8,gloves      ,satellite_dish,html/resources/sequences_IDs/B/06_gloves.jpg,html/resources/sequences_IDs/A/10_satellite_dish.jpg,6,10,3,2,4,2,5,8,0,29,,,,,,,,,,,,,,,,,,,,
,,,,,29,2020-07-03_14h39.27.615,retriever_ti,2020.1.3,Win32,60,Chrome,1366,768,,,,,,,,,,,,,,,,,1,,,,,,,,,,,,,,,,,,,,,,,,,,,113.61897,9,left,0.60779,parrot      ,7,5,2,1,3,113.65525,113.65525,116.151225,0,8,8,8,1,9,7,5,parrot      ,gloves      ,html/resources/sequences_IDs/B/05_parrot.jpg,html/resources/sequences_IDs/B/06_gloves.jpg,5,6,2,1,3,2,4,5,0,29,,,,,,,,,,,,,,,,,,,,
,,,,,29,2020-07-03_14h39.27.615,retriever_ti,2020.1.3,Win32,60,Chrome,1366,768,,,,,,,,,,,,,,,,,1,,,,,,,,,,,,,,,,,,,,,,,,,,,116.76973,10,right,0.925725,parrot      ,7,5,5,1,3,116.8042,116.8042,119.302435,0,9,9,9,1,10,2,7,wolf          ,parrot      ,html/resources/sequences_IDs/A/01_wolf.jpg,html/resources/sequences_IDs/B/05_parrot.jpg,1,5,1,1,2,1,1,4,0,29,,,,,,,,,,,,,,,,,,,,
,,,,,29,2020-07-03_14h39.27.615,retriever_ti,2020.1.3,Win32,60,Chrome,1366,768,,,,,,,,,,,,,,,,,1,,,,,,,,,,,,,,,,,,,,,,,,,,,119.920225,11,left,0.45563,wolf          ,2,1,1,1,1,119.955625,119.955625,122.44179,0,10,10,10,1,11,2,1,wolf          ,dolphin     ,html/resources/sequences_IDs/A/01_wolf.jpg,html/resources/sequences_IDs/B/02_dolphin.jpg,1,2,1,1,1,1,1,2,0,29,,,,,,,,,,,,,,,,,,,,
,,,,,29,2020-07-03_14h39.27.615,retriever_ti,2020.1.3,Win32,60,Chrome,1366,768,,,,,,,,,,,,,,,,,1,,,,,,,,,,,,,,,,,,,,,,,,,,,123.53892,12,right,0.694305,hat           ,4,8,1,1,1,123.57305,123.57305,126.070445,0,11,11,11,1,12,3,4,sport_tshirt,hat           ,html/resources/sequences_IDs/B/07_sport_tshirt.jpg,html/resources/sequences_IDs/A/08_hat.jpg,7,8,3,2,3,2,6,7,0,29,,,,,,,,,,,,,,,,,,,,
,,,,,29,2020-07-03_14h39.27.615,retriever_ti,2020.1.3,Win32,60,Chrome,1366,768,,,,,,,,,,,,,,,,,1,,,,,,,,,,,,,,,,,,,,,,,,,,,127.171615,13,left,0.7542,gloves      ,5,6,-1,0,0,127.20691,127.20691,129.70433,0,12,12,12,1,13,5,6,gloves      ,camel         ,html/resources/sequences_IDs/B/06_gloves.jpg,html/resources/sequences_IDs/A/03_camel.jpg,6,3,3,2,1,1,5,3,0,29,,,,,,,,,,,,,,,,,,,,
,,,,,29,2020-07-03_14h39.27.615,retriever_ti,2020.1.3,Win32,60,Chrome,1366,768,,,,,,,,,,,,,,,,,1,,,,,,,,,,,,,,,,,,,,,,,,,,,130.80557,14,left,0.945885,camel         ,6,3,1,1,1,130.823385,130.823385,133.32171,0,13,13,13,1,14,6,5,camel         ,gloves      ,html/resources/sequences_IDs/A/03_camel.jpg,html/resources/sequences_IDs/B/06_gloves.jpg,3,6,1,1,3,2,3,5,0,29,,,,,,,,,,,,,,,,,,,,
,,,,,29,2020-07-03_14h39.27.615,retriever_ti,2020.1.3,Win32,60,Chrome,1366,768,,,,,,,,,,,,,,,,,1,,,,,,,,,,,,,,,,,,,,,,,,,,,134.423575,15,left,1.188975,satellite_dish,8,10,7,1,3,134.4582,134.4582,136.959185,0,14,14,14,1,15,8,1,satellite_dish,dolphin     ,html/resources/sequences_IDs/A/10_satellite_dish.jpg,html/resources/sequences_IDs/B/02_dolphin.jpg,10,2,4,2,1,1,8,2,0,29,,,,,,,,,,,,,,,,,,,,
,,,,,29,2020-07-03_14h39.27.615,retriever_ti,2020.1.3,Win32,60,Chrome,1366,768,,,,,,,,,,,,,,,,,1,,,,,,,,,,,,,,,,,,,,,,,,,,,137.56794,16,right,0.92361,wolf          ,2,1,1,1,1,137.598635,137.598635,140.089405,0,15,15,15,1,16,1,2,dolphin     ,wolf          ,html/resources/sequences_IDs/B/02_dolphin.jpg,html/resources/sequences_IDs/A/01_wolf.jpg,2,1,1,1,1,1,2,1,0,29,,,,,,,,,,,,,,,,,,,,
,,,,,29,2020-07-03_14h39.27.615,retriever_ti,2020.1.3,Win32,60,Chrome,1366,768,,,,,,,,,,,,,,,,,1,,,,,,,,,,,,,,,,,,,,,,,,,,,141.192265,17,left,0.851155,camel         ,6,3,1,1,0,141.2095,141.2095,143.70787,0,16,16,16,1,17,6,5,camel         ,gloves      ,html/resources/sequences_IDs/A/03_camel.jpg,html/resources/sequences_IDs/B/06_gloves.jpg,3,6,1,1,3,2,3,5,1,29,,,,,,,,,,,,,,,,,,,,
,,,,,29,2020-07-03_14h39.27.615,retriever_ti,2020.1.3,Win32,60,Chrome,1366,768,,,,,,,,,,,,,,,,,1,,,,,,,,,,,,,,,,,,,,,,,,,,,144.80802,18,left,0.789205,parrot      ,7,5,1,1,1,144.825925,144.825925,147.326515,0,17,17,17,1,18,7,6,parrot      ,camel         ,html/resources/sequences_IDs/B/05_parrot.jpg,html/resources/sequences_IDs/A/03_camel.jpg,5,3,2,1,1,1,4,3,0,29,,,,,,,,,,,,,,,,,,,,
,,,,,29,2020-07-03_14h39.27.615,retriever_ti,2020.1.3,Win32,60,Chrome,1366,768,,,,,,,,,,,,,,,,,1,,,,,,,,,,,,,,,,,,,,,,,,,,,148.425025,19,left,1.403405,camel         ,6,3,3,1,3,148.46057,148.46057,150.95856,0,18,18,18,1,19,6,3,camel         ,sport_tshirt,html/resources/sequences_IDs/A/03_camel.jpg,html/resources/sequences_IDs/B/07_sport_tshirt.jpg,3,7,1,1,3,2,3,6,0,29,,,,,,,,,,,,,,,,,,,,
,,,,,29,2020-07-03_14h39.27.615,retriever_ti,2020.1.3,Win32,60,Chrome,1366,768,,,,,,,,,,,,,,,,,1,,,,,,,,,,,,,,,,,,,,,,,,,,,151.576905,20,left,0.76466,hat           ,4,8,-1,0,0,151.59461,151.59461,154.092235,0,19,19,19,1,20,4,5,hat           ,gloves      ,html/resources/sequences_IDs/A/08_hat.jpg,html/resources/sequences_IDs/B/06_gloves.jpg,8,6,3,2,3,2,7,5,0,29,,,,,,,,,,,,,,,,,,,,
,,,,,29,2020-07-03_14h39.27.615,retriever_ti,2020.1.3,Win32,60,Chrome,1366,768,,,,,,,,,,,,,,,,,1,,,,,,,,,,,,,,,,,,,,,,,,,,,155.227105,21,left,0.552495,wolf          ,2,1,-1,0,0,155.245065,155.245065,157.742575,0,20,20,20,1,21,2,3,wolf          ,sport_tshirt,html/resources/sequences_IDs/A/01_wolf.jpg,html/resources/sequences_IDs/B/07_sport_tshirt.jpg,1,7,1,1,3,2,1,6,0,29,,,,,,,,,,,,,,,,,,,,
,,,,,29,2020-07-03_14h39.27.615,retriever_ti,2020.1.3,Win32,60,Chrome,1366,768,,,,,,,,,,,,,,,,,1,,,,,,,,,,,,,,,,,,,,,,,,,,,158.844265,22,left,1.14419,parrot      ,7,5,-1,0,0,158.88029,158.88029,161.48452,0,21,21,21,1,22,7,8,parrot      ,satellite_dish,html/resources/sequences_IDs/B/05_parrot.jpg,html/resources/sequences_IDs/A/10_satellite_dish.jpg,5,10,2,1,4,2,4,8,0,29,,,,,,,,,,,,,,,,,,,,
,,,,,29,2020-07-03_14h39.27.615,retriever_ti,2020.1.3,Win32,60,Chrome,1366,768,,,,,,,,,,,,,,,,,1,,,,,,,,,,,,,,,,,,,,,,,,,,,162.57926,23,right,0.94353,dolphin     ,1,2,-4,0,3,162.59707,162.59707,165.244375,0,22,22,22,1,23,5,1,gloves      ,dolphin     ,html/resources/sequences_IDs/B/06_gloves.jpg,html/resources/sequences_IDs/B/02_dolphin.jpg,6,2,3,2,1,1,5,2,0,29,,,,,,,,,,,,,,,,,,,,
,,,,,29,2020-07-03_14h39.27.615,retriever_ti,2020.1.3,Win32,60,Chrome,1366,768,,,,,,,,,,,,,,,,,1,,,,,,,,,,,,,,,,,,,,,,,,,,,165.86216,24,left,0.70588,hat           ,4,8,-1,0,0,165.882535,165.882535,169.328465,0,23,23,23,1,24,4,5,hat           ,gloves      ,html/resources/sequences_IDs/A/08_hat.jpg,html/resources/sequences_IDs/B/06_gloves.jpg,8,6,3,2,3,2,7,5,0,29,,,,,,,,,,,,,,,,,,,,
,,,,,29,2020-07-03_14h39.27.615,retriever_ti,2020.1.3,Win32,60,Chrome,1366,768,,,,,,,,,,,,,,,,,1,,,,,,,,,,,,,,,,,,,,,,,,,,,170.43095,25,left,0.89557,parrot      ,7,5,3,1,3,170.46908,170.46908,172.96197,0,24,24,24,1,25,7,4,parrot      ,hat           ,html/resources/sequences_IDs/B/05_parrot.jpg,html/resources/sequences_IDs/A/08_hat.jpg,5,8,2,1,3,2,4,7,0,29,,,,,,,,,,,,,,,,,,,,
,,,,,29,2020-07-03_14h39.27.615,retriever_ti,2020.1.3,Win32,60,Chrome,1366,768,,,,,,,,,,,,,,,,,1,,,,,,,,,,,,,,,,,,,,,,,,,,,173.580635,26,left,0.689655,wolf          ,2,1,-1,0,1,173.59824,173.59824,176.09151,0,25,25,25,1,26,2,3,wolf          ,sport_tshirt,html/resources/sequences_IDs/A/01_wolf.jpg,html/resources/sequences_IDs/B/07_sport_tshirt.jpg,1,7,1,1,3,2,1,6,1,29,,,,,,,,,,,,,,,,,,,,
,,,,,29,2020-07-03_14h39.27.615,retriever_ti,2020.1.3,Win32,60,Chrome,1366,768,,,,,,,,,,,,,,,,,1,,,,,,,,,,,,,,,,,,,,,,,,,,,177.1903,27,left,0.544935,wolf          ,2,1,1,1,1,177.220705,177.220705,182.85941,0,26,26,26,1,27,2,1,wolf          ,dolphin     ,html/resources/sequences_IDs/A/01_wolf.jpg,html/resources/sequences_IDs/B/02_dolphin.jpg,1,2,1,1,1,1,1,2,0,29,,,,,,,,,,,,,,,,,,,,
,,,,,29,2020-07-03_14h39.27.615,retriever_ti,2020.1.3,Win32,60,Chrome,1366,768,,,,,,,,,,,,,,,,,1,,,,,,,,,,,,,,,,,,,,,,,,,,,183.957245,28,right,0.87141,parrot      ,7,5,1,1,1,183.992355,183.992355,186.479465,0,27,27,27,1,28,6,7,camel         ,parrot      ,html/resources/sequences_IDs/A/03_camel.jpg,html/resources/sequences_IDs/B/05_parrot.jpg,3,5,1,1,2,1,3,4,0,29,,,,,,,,,,,,,,,,,,,,
,,,,,29,2020-07-03_14h39.27.615,retriever_ti,2020.1.3,Win32,60,Chrome,1366,768,,,,,,,,,,,,,,,,,1,,,,,,,,,,,,,,,,,,,,,,,,,,,187.582575,29,left,0.657545,parrot      ,7,5,-1,0,0,187.609495,187.609495,190.082065,0,28,28,28,1,29,7,8,parrot      ,satellite_dish,html/resources/sequences_IDs/B/05_parrot.jpg,html/resources/sequences_IDs/A/10_satellite_dish.jpg,5,10,2,1,4,2,4,8,0,29,,,,,,,,,,,,,,,,,,,,
,,,,,29,2020-07-03_14h39.27.615,retriever_ti,2020.1.3,Win32,60,Chrome,1366,768,,,,,,,,,,,,,,,,,1,,,,,,,,,,,,,,,,,,,,,,,,,,,191.186985,30,NaN,NaN,No_response,NaN,NaN,NaN,2,2,191.220835,191.220835,193.71688,0,29,29,29,1,30,6,5,camel         ,gloves      ,html/resources/sequences_IDs/A/03_camel.jpg,html/resources/sequences_IDs/B/06_gloves.jpg,3,6,1,1,3,2,3,5,0,29,,,,,,,,,,,,,,,,,,,,
,,,,,29,2020-07-03_14h39.27.615,retriever_ti,2020.1.3,Win32,60,Chrome,1366,768,,,,,,,,,,,,,,,,,1,,,,,,,,,,,,,,,,,,,,,,,,,,,194.821885,31,right,1.086435,wolf          ,2,1,-1,0,0,194.853535,194.853535,197.3505,0,30,30,30,1,31,3,2,sport_tshirt,wolf          ,html/resources/sequences_IDs/B/07_sport_tshirt.jpg,html/resources/sequences_IDs/A/01_wolf.jpg,7,1,3,2,1,1,6,1,0,29,,,,,,,,,,,,,,,,,,,,
,,,,,29,2020-07-03_14h39.27.615,retriever_ti,2020.1.3,Win32,60,Chrome,1366,768,,,,,,,,,,,,,,,,,1,,,,,,,,,,,,,,,,,,,,,,,,,,,198.45263,32,NaN,NaN,No_response,NaN,NaN,NaN,2,2,198.48607,198.48607,200.984635,0,31,31,31,1,32,8,7,satellite_dish,parrot      ,html/resources/sequences_IDs/A/10_satellite_dish.jpg,html/resources/sequences_IDs/B/05_parrot.jpg,10,5,4,2,2,1,8,4,0,29,,,,,,,,,,,,,,,,,,,,
,,,,,29,2020-07-03_14h39.27.615,retriever_ti,2020.1.3,Win32,60,Chrome,1366,768,,,,,,,,,,,,,,,,,1,,,,,,,,,,,,,,,,,,,,,,,,,,,202.086605,33,NaN,NaN,No_response,NaN,NaN,NaN,2,2,202.104875,202.104875,204.601435,0,32,32,32,1,33,4,8,hat           ,satellite_dish,html/resources/sequences_IDs/A/08_hat.jpg,html/resources/sequences_IDs/A/10_satellite_dish.jpg,8,10,3,2,4,2,7,8,0,29,,,,,,,,,,,,,,,,,,,,
,,,,,29,2020-07-03_14h39.27.615,retriever_ti,2020.1.3,Win32,60,Chrome,1366,768,,,,,,,,,,,,,,,,,1,,,,,,,,,,,,,,,,,,,,,,,,,,,205.70399,34,right,0.84561,hat           ,4,8,3,1,3,205.737495,205.737495,208.303725,0,33,33,33,1,34,1,4,dolphin     ,hat           ,html/resources/sequences_IDs/B/02_dolphin.jpg,html/resources/sequences_IDs/A/08_hat.jpg,2,8,1,1,3,2,2,7,0,29,,,,,,,,,,,,,,,,,,,,
,,,,,29,2020-07-03_14h39.27.615,retriever_ti,2020.1.3,Win32,60,Chrome,1366,768,,,,,,,,,,,,,,,,,1,,,,,,,,,,,,,,,,,,,,,,,,,,,208.92242,35,right,0.853545,camel         ,6,3,1,1,1,208.955665,208.955665,211.453205,0,34,34,34,1,35,5,6,gloves      ,camel         ,html/resources/sequences_IDs/B/06_gloves.jpg,html/resources/sequences_IDs/A/03_camel.jpg,6,3,3,2,1,1,5,3,0,29,,,,,,,,,,,,,,,,,,,,
,,,,,29,2020-07-03_14h39.27.615,retriever_ti,2020.1.3,Win32,60,Chrome,1366,768,,,,,,,,,,,,,,,,,1,,,,,,,,,,,,,,,,,,,,,,,,,,,212.55866,36,right,0.623,wolf          ,2,1,-1,0,0,212.59167,212.59167,215.089745,0,35,35,35,1,36,3,2,sport_tshirt,wolf          ,html/resources/sequences_IDs/B/07_sport_tshirt.jpg,html/resources/sequences_IDs/A/01_wolf.jpg,7,1,3,2,1,1,6,1,0,29,,,,,,,,,,,,,,,,,,,,
,,,,,29,2020-07-03_14h39.27.615,retriever_ti,2020.1.3,Win32,60,Chrome,1366,768,,,,,,,,,,,,,,,,,1,,,,,,,,,,,,,,,,,,,,,,,,,,,216.191875,37,right,0.80939,parrot      ,7,5,4,1,3,216.20666,216.20666,218.705985,0,36,36,36,1,37,3,7,sport_tshirt,parrot      ,html/resources/sequences_IDs/B/07_sport_tshirt.jpg,html/resources/sequences_IDs/B/05_parrot.jpg,7,5,3,2,2,1,6,4,0,29,,,,,,,,,,,,,,,,,,,,
,,,,,29,2020-07-03_14h39.27.615,retriever_ti,2020.1.3,Win32,60,Chrome,1366,768,,,,,,,,,,,,,,,,,1,,,,,,,,,,,,,,,,,,,,,,,,,,,219.32652,38,right,0.867045,dolphin     ,1,2,-3,0,3,219.360775,219.360775,221.866165,0,37,37,37,1,38,4,1,hat           ,dolphin     ,html/resources/sequences_IDs/A/08_hat.jpg,html/resources/sequences_IDs/B/02_dolphin.jpg,8,2,3,2,1,1,7,2,0,29,,,,,,,,,,,,,,,,,,,,
,,,,,29,2020-07-03_14h39.27.615,retriever_ti,2020.1.3,Win32,60,Chrome,1366,768,,,,,,,,,,,,,,,,,1,,,,,,,,,,,,,,,,,,,,,,,,,,,222.47508,39,left,0.859865,camel         ,6,3,4,1,3,222.513695,222.513695,225.0072,0,38,38,38,1,39,6,2,camel         ,wolf          ,html/resources/sequences_IDs/A/03_camel.jpg,html/resources/sequences_IDs/A/01_wolf.jpg,3,1,1,1,1,1,3,1,0,29,,,,,,,,,,,,,,,,,,,,
,,,,,29,2020-07-03_14h39.27.615,retriever_ti,2020.1.3,Win32,60,Chrome,1366,768,,,,,,,,,,,,,,,,,1,,,,,,,,,,,,,,,,,,,,,,,,,,,225.62303,40,right,0.76722,parrot      ,7,5,2,1,3,225.641635,225.641635,228.14019,0,39,39,39,1,40,5,7,gloves      ,parrot      ,html/resources/sequences_IDs/B/06_gloves.jpg,html/resources/sequences_IDs/B/05_parrot.jpg,6,5,3,2,2,1,5,4,0,29,,,,,,,,,,,,,,,,,,,,
,,,,,29,2020-07-03_14h39.27.615,retriever_ti,2020.1.3,Win32,60,Chrome,1366,768,,,,,,,,,,,,,,,,,1,,,,,,,,,,,,,,,,,,,,,,,,,,,228.759135,41,left,0.750785,gloves      ,5,6,1,1,1,228.792955,228.792955,231.289905,0,40,40,40,1,41,5,4,gloves      ,hat           ,html/resources/sequences_IDs/B/06_gloves.jpg,html/resources/sequences_IDs/A/08_hat.jpg,6,8,3,2,3,2,5,7,0,29,,,,,,,,,,,,,,,,,,,,
,,,,,29,2020-07-03_14h39.27.615,retriever_ti,2020.1.3,Win32,60,Chrome,1366,768,,,,,,,,,,,,,,,,,1,,,,,,,,,,,,,,,,,,,,,,,,,,,232.391485,42,left,0.71135,sport_tshirt,3,7,-1,0,0,232.426925,232.426925,234.924085,0,41,41,41,1,42,3,4,sport_tshirt,hat           ,html/resources/sequences_IDs/B/07_sport_tshirt.jpg,html/resources/sequences_IDs/A/08_hat.jpg,7,8,3,2,3,2,6,7,0,29,,,,,,,,,,,,,,,,,,,,
,,,,,29,2020-07-03_14h39.27.615,retriever_ti,2020.1.3,Win32,60,Chrome,1366,768,,,,,,,,,,,,,,,,,1,,,,,,,,,,,,,,,,,,,,,,,,,,,236.046525,43,right,0.807605,camel         ,6,3,5,1,3,236.060125,236.060125,238.559565,0,42,42,42,1,43,1,6,dolphin     ,camel         ,html/resources/sequences_IDs/B/02_dolphin.jpg,html/resources/sequences_IDs/A/03_camel.jpg,2,3,1,1,1,1,2,3,0,29,,,,,,,,,,,,,,,,,,,,
,,,,,29,2020-07-03_14h39.27.615,retriever_ti,2020.1.3,Win32,60,Chrome,1366,768,,,,,,,,,,,,,,,,,1,,,,,,,,,,,,,,,,,,,,,,,,,,,239.179135,44,left,0.88259,wolf          ,2,1,-1,0,0,239.21194,239.21194,241.72257,0,43,43,43,1,44,2,3,wolf          ,sport_tshirt,html/resources/sequences_IDs/A/01_wolf.jpg,html/resources/sequences_IDs/B/07_sport_tshirt.jpg,1,7,1,1,3,2,1,6,0,29,,,,,,,,,,,,,,,,,,,,
,,,,,29,2020-07-03_14h39.27.615,retriever_ti,2020.1.3,Win32,60,Chrome,1366,768,,,,,,,,,,,,,,,,,1,,,,,,,,,,,,,,,,,,,,,,,,,,,242.827655,45,left,0.938135,wolf          ,2,1,1,1,0,242.84494,242.84494,245.34277,0,44,44,44,1,45,2,1,wolf          ,dolphin     ,html/resources/sequences_IDs/A/01_wolf.jpg,html/resources/sequences_IDs/B/02_dolphin.jpg,1,2,1,1,1,1,1,2,1,29,,,,,,,,,,,,,,,,,,,,
,,,,,29,2020-07-03_14h39.27.615,retriever_ti,2020.1.3,Win32,60,Chrome,1366,768,,,,,,,,,,,,,,,,,1,,,,,,,,,,,,,,,,,,,,,,,,,,,246.444085,46,left,1.5179,dolphin     ,1,2,-7,0,3,246.462145,246.462145,248.95478,0,45,45,45,1,46,1,8,dolphin     ,satellite_dish,html/resources/sequences_IDs/B/02_dolphin.jpg,html/resources/sequences_IDs/A/10_satellite_dish.jpg,2,10,1,1,4,2,2,8,0,29,,,,,,,,,,,,,,,,,,,,
,,,,,29,2020-07-03_14h39.27.615,retriever_ti,2020.1.3,Win32,60,Chrome,1366,768,,,,,,,,,,,,,,,,,1,,,,,,,,,,,,,,,,,,,,,,,,,,,249.56375,47,left,1.15881,sport_tshirt,3,7,-2,0,3,249.601775,249.601775,252.093965,0,46,46,46,1,47,3,5,sport_tshirt,gloves      ,html/resources/sequences_IDs/B/07_sport_tshirt.jpg,html/resources/sequences_IDs/B/06_gloves.jpg,7,6,3,2,3,2,6,5,0,29,,,,,,,,,,,,,,,,,,,,
,,,,,29,2020-07-03_14h39.27.615,retriever_ti,2020.1.3,Win32,60,Chrome,1366,768,,,,,,,,,,,,,,,,,1,,,,,,,,,,,,,,,,,,,,,,,,,,,252.71196,48,right,0.574805,hat           ,4,8,1,1,0,252.73085,252.73085,255.228135,0,47,47,47,1,48,3,4,sport_tshirt,hat           ,html/resources/sequences_IDs/B/07_sport_tshirt.jpg,html/resources/sequences_IDs/A/08_hat.jpg,7,8,3,2,3,2,6,7,1,29,,,,,,,,,,,,,,,,,,,,
,,,,,29,2020-07-03_14h39.27.615,retriever_ti,2020.1.3,Win32,60,Chrome,1366,768,,,,,,,,,,,,,,,,,1,,,,,,,,,,,,,,,,,,,,,,,,,,,256.330235,49,left,0.998605,sport_tshirt,3,7,-5,0,3,256.36497,256.36497,258.86181,0,48,48,48,1,49,3,8,sport_tshirt,satellite_dish,html/resources/sequences_IDs/B/07_sport_tshirt.jpg,html/resources/sequences_IDs/A/10_satellite_dish.jpg,7,10,3,2,4,2,6,8,0,29,,,,,,,,,,,,,,,,,,,,
,,,,,29,2020-07-03_14h39.27.615,retriever_ti,2020.1.3,Win32,60,Chrome,1366,768,,,,,,,,,,,,,,,,,1,,,,,,,,,,,,,,,,,,,,,,,,,,,259.46409,50,right,1.32003,hat           ,4,8,-1,0,0,259.48224,259.48224,261.984985,0,49,49,49,1,50,5,4,gloves      ,hat           ,html/resources/sequences_IDs/B/06_gloves.jpg,html/resources/sequences_IDs/A/08_hat.jpg,6,8,3,2,3,2,5,7,0,29,,,,,,,,,,,,,,,,,,,,
,,,,,29,2020-07-03_14h39.27.615,retriever_ti,2020.1.3,Win32,60,Chrome,1366,768,,,,,,,,,,,,,,,,,1,,,,,,,,,,,,,,,,,,,,,,,,,,,263.082155,51,left,1.110935,wolf          ,2,1,-4,0,3,263.103565,263.103565,265.972495,0,50,50,50,1,51,2,6,wolf          ,camel         ,html/resources/sequences_IDs/A/01_wolf.jpg,html/resources/sequences_IDs/A/03_camel.jpg,1,3,1,1,1,1,1,3,0,29,,,,,,,,,,,,,,,,,,,,
,,,,,29,2020-07-03_14h39.27.615,retriever_ti,2020.1.3,Win32,60,Chrome,1366,768,,,,,,,,,,,,,,,,,1,,,,,,,,,,,,,,,,,,,,,,,,,,,266.582795,52,left,0.777055,sport_tshirt,3,7,2,1,3,266.60011,266.60011,269.097125,0,51,51,51,1,52,3,1,sport_tshirt,dolphin     ,html/resources/sequences_IDs/B/07_sport_tshirt.jpg,html/resources/sequences_IDs/B/02_dolphin.jpg,7,2,3,2,1,1,6,2,0,29,,,,,,,,,,,,,,,,,,,,
,,,,,29,2020-07-03_14h39.27.615,retriever_ti,2020.1.3,Win32,60,Chrome,1366,768,,,,,,,,,,,,,,,,,1,,,,,,,,,,,,,,,,,,,,,,,,,,,269.71528,53,left,0.958305,wolf          ,2,1,-2,0,3,269.75013,269.75013,272.24813,0,52,52,52,1,53,2,4,wolf          ,hat           ,html/resources/sequences_IDs/A/01_wolf.jpg,html/resources/sequences_IDs/A/08_hat.jpg,1,8,1,1,3,2,1,7,0,29,,,,,,,,,,,,,,,,,,,,
,,,,,29,2020-07-03_14h39.27.615,retriever_ti,2020.1.3,Win32,60,Chrome,1366,768,,,,,,,,,,,,,,,,,1,,,,,,,,,,,,,,,,,,,,,,,,,,,272.850195,54,left,0.723445,parrot      ,7,5,5,1,3,272.86875,272.86875,275.36505,0,53,53,53,1,54,7,2,parrot      ,wolf          ,html/resources/sequences_IDs/B/05_parrot.jpg,html/resources/sequences_IDs/A/01_wolf.jpg,5,1,2,1,1,1,4,1,0,29,,,,,,,,,,,,,,,,,,,,
,,,,,29,2020-07-03_14h39.27.615,retriever_ti,2020.1.3,Win32,60,Chrome,1366,768,,,,,,,,,,,,,,,,,1,,,,,,,,,,,,,,,,,,,,,,,,,,,275.96656,55,left,0.82136,hat           ,4,8,-2,0,3,275.98794,275.98794,278.482335,0,54,54,54,1,55,4,6,hat           ,camel         ,html/resources/sequences_IDs/A/08_hat.jpg,html/resources/sequences_IDs/A/03_camel.jpg,8,3,3,2,1,1,7,3,0,29,,,,,,,,,,,,,,,,,,,,
,,,,,29,2020-07-03_14h39.27.615,retriever_ti,2020.1.3,Win32,60,Chrome,1366,768,,,,,,,,,,,,,,,,,1,,,,,,,,,,,,,,,,,,,,,,,,,,,279.084985,56,left,0.66037,gloves      ,5,6,2,1,3,279.1023,279.1023,281.599725,0,55,55,55,1,56,5,3,gloves      ,sport_tshirt,html/resources/sequences_IDs/B/06_gloves.jpg,html/resources/sequences_IDs/B/07_sport_tshirt.jpg,6,7,3,2,3,2,5,6,0,29,,,,,,,,,,,,,,,,,,,,
,,,,,29,2020-07-03_14h39.27.615,retriever_ti,2020.1.3,Win32,60,Chrome,1366,768,,,,,,,,,,,,,,,,,1,,,,,,,,,,,,,,,,,,,,,,,,,,,282.21891,57,left,0.565775,hat           ,4,8,2,1,3,282.23778,282.23778,284.733735,0,56,56,56,1,57,4,2,hat           ,wolf          ,html/resources/sequences_IDs/A/08_hat.jpg,html/resources/sequences_IDs/A/01_wolf.jpg,8,1,3,2,1,1,7,1,0,29,,,,,,,,,,,,,,,,,,,,
,,,,,29,2020-07-03_14h39.27.615,retriever_ti,2020.1.3,Win32,60,Chrome,1366,768,,,,,,,,,,,,,,,,,1,,,,,,,,,,,,,,,,,,,,,,,,,,,285.335705,58,left,0.737865,dolphin     ,1,2,-1,0,0,285.37345,285.37345,287.86792,0,57,57,57,1,58,1,2,dolphin     ,wolf          ,html/resources/sequences_IDs/B/02_dolphin.jpg,html/resources/sequences_IDs/A/01_wolf.jpg,2,1,1,1,1,1,2,1,0,29,,,,,,,,,,,,,,,,,,,,
,,,,,29,2020-07-03_14h39.27.615,retriever_ti,2020.1.3,Win32,60,Chrome,1366,768,,,,,,,,,,,,,,,,,1,,,,,,,,,,,,,,,,,,,,,,,,,,,288.970075,59,right,0.765595,parrot      ,7,5,6,1,3,289.004785,289.004785,291.501695,0,58,58,58,1,59,1,7,dolphin     ,parrot      ,html/resources/sequences_IDs/B/02_dolphin.jpg,html/resources/sequences_IDs/B/05_parrot.jpg,2,5,1,1,2,1,2,4,0,29,,,,,,,,,,,,,,,,,,,,
,,,,,29,2020-07-03_14h39.27.615,retriever_ti,2020.1.3,Win32,60,Chrome,1366,768,,,,,,,,,,,,,,,,,1,,,,,,,,,,,,,,,,,,,,,,,,,,,292.119855,60,left,0.760975,wolf          ,2,1,-6,0,3,292.137705,292.137705,294.62305,0,59,59,59,1,60,2,8,wolf          ,satellite_dish,html/resources/sequences_IDs/A/01_wolf.jpg,html/resources/sequences_IDs/A/10_satellite_dish.jpg,1,10,1,1,4,2,1,8,0,29,,,,,,,,,,,,,,,,,,,,
,,,,,29,2020-07-03_14h39.27.615,retriever_ti,2020.1.3,Win32,60,Chrome,1366,768,,,,,,,,,,,,,,,,,1,,,,,,,,,,,,,,,,,,,,,,,,,,,295.23884,61,right,0.93707,wolf          ,2,1,-3,0,3,295.25934,295.25934,297.74249,0,60,60,60,1,61,5,2,gloves      ,wolf          ,html/resources/sequences_IDs/B/06_gloves.jpg,html/resources/sequences_IDs/A/01_wolf.jpg,6,1,3,2,1,1,5,1,0,29,,,,,,,,,,,,,,,,,,,,
,,,,,29,2020-07-03_14h39.27.615,retriever_ti,2020.1.3,Win32,60,Chrome,1366,768,,,,,,,,,,,,,,,,,1,,,,,,,,,,,,,,,,,,,,,,,,,,,298.360375,62,right,0.93468,parrot      ,7,5,1,1,0,298.397705,298.397705,300.89331,0,61,61,61,1,62,6,7,camel         ,parrot      ,html/resources/sequences_IDs/A/03_camel.jpg,html/resources/sequences_IDs/B/05_parrot.jpg,3,5,1,1,2,1,3,4,1,29,,,,,,,,,,,,,,,,,,,,
,,,,,29,2020-07-03_14h39.27.615,retriever_ti,2020.1.3,Win32,60,Chrome,1366,768,,,,,,,,,,,,,,,,,1,,,,,,,,,,,,,,,,,,,,,,,,,,,301.985,63,right,0.790335,hat           ,4,8,-1,0,1,302.012505,302.012505,304.503965,0,62,62,62,1,63,5,4,gloves      ,hat           ,html/resources/sequences_IDs/B/06_gloves.jpg,html/resources/sequences_IDs/A/08_hat.jpg,6,8,3,2,3,2,5,7,1,29,,,,,,,,,,,,,,,,,,,,
,,,,,29,2020-07-03_14h39.27.615,retriever_ti,2020.1.3,Win32,60,Chrome,1366,768,,,,,,,,,,,,,,,,,1,,,,,,,,,,,,,,,,,,,,,,,,,,,305.60643,64,left,0.875955,wolf          ,2,1,-3,0,3,305.624605,305.624605,308.1229,0,63,63,63,1,64,2,5,wolf          ,gloves      ,html/resources/sequences_IDs/A/01_wolf.jpg,html/resources/sequences_IDs/B/06_gloves.jpg,1,6,1,1,3,2,1,5,0,29,,,,,,,,,,,,,,,,,,,,
,,,,,29,2020-07-03_14h39.27.615,retriever_ti,2020.1.3,Win32,60,Chrome,1366,768,,,,,,,,,,,,,,,,,1,,,,,,,,,,,,,,,,,,,,,,,,,,,308.73976,65,left,0.574935,hat           ,4,8,1,1,1,308.77539,308.77539,311.272025,0,64,64,64,1,65,4,3,hat           ,sport_tshirt,html/resources/sequences_IDs/A/08_hat.jpg,html/resources/sequences_IDs/B/07_sport_tshirt.jpg,8,7,3,2,3,2,7,6,0,29,,,,,,,,,,,,,,,,,,,,
,,,,,29,2020-07-03_14h39.27.615,retriever_ti,2020.1.3,Win32,60,Chrome,1366,768,,,,,,,,,,,,,,,,,1,,,,,,,,,,,,,,,,,,,,,,,,,,,312.374265,66,left,0.57221,satellite_dish,8,10,6,1,3,312.40879,312.40879,314.939425,0,65,65,65,1,66,8,2,satellite_dish,wolf          ,html/resources/sequences_IDs/A/10_satellite_dish.jpg,html/resources/sequences_IDs/A/01_wolf.jpg,10,1,4,2,1,1,8,1,0,29,,,,,,,,,,,,,,,,,,,,
,,,,,29,2020-07-03_14h39.27.615,retriever_ti,2020.1.3,Win32,60,Chrome,1366,768,,,,,,,,,,,,,,,,,1,,,,,,,,,,,,,,,,,,,,,,,,,,,315.54334,67,left,0.6734,dolphin     ,1,2,-2,0,3,315.58016,315.58016,318.074545,0,66,66,66,1,67,1,3,dolphin     ,sport_tshirt,html/resources/sequences_IDs/B/02_dolphin.jpg,html/resources/sequences_IDs/B/07_sport_tshirt.jpg,2,7,1,1,3,2,2,6,0,29,,,,,,,,,,,,,,,,,,,,
,,,,,29,2020-07-03_14h39.27.615,retriever_ti,2020.1.3,Win32,60,Chrome,1366,768,,,,,,,,,,,,,,,,,1,,,,,,,,,,,,,,,,,,,,,,,,,,,318.69152,68,right,0.789295,parrot      ,7,5,1,1,1,318.72873,318.72873,321.22403,0,67,67,67,1,68,6,7,camel         ,parrot      ,html/resources/sequences_IDs/A/03_camel.jpg,html/resources/sequences_IDs/B/05_parrot.jpg,3,5,1,1,2,1,3,4,0,29,,,,,,,,,,,,,,,,,,,,
,,,,,29,2020-07-03_14h39.27.615,retriever_ti,2020.1.3,Win32,60,Chrome,1366,768,,,,,,,,,,,,,,,,,1,,,,,,,,,,,,,,,,,,,,,,,,,,,322.32674,69,left,0.62255,satellite_dish,8,10,5,1,3,322.360835,322.360835,324.858075,0,68,68,68,1,69,8,3,satellite_dish,sport_tshirt,html/resources/sequences_IDs/A/10_satellite_dish.jpg,html/resources/sequences_IDs/B/07_sport_tshirt.jpg,10,7,4,2,3,2,8,6,0,29,,,,,,,,,,,,,,,,,,,,
,,,,,29,2020-07-03_14h39.27.615,retriever_ti,2020.1.3,Win32,60,Chrome,1366,768,,,,,,,,,,,,,,,,,1,,,,,,,,,,,,,,,,,,,,,,,,,,,325.460545,70,left,0.69553,camel         ,6,3,-2,0,3,325.495735,325.495735,327.984625,0,69,69,69,1,70,6,8,camel         ,satellite_dish,html/resources/sequences_IDs/A/03_camel.jpg,html/resources/sequences_IDs/A/10_satellite_dish.jpg,3,10,1,1,4,2,3,8,0,29,,,,,,,,,,,,,,,,,,,,
,,,,,29,2020-07-03_14h39.27.615,retriever_ti,2020.1.3,Win32,60,Chrome,1366,768,,,,,,,,,,,,,,,,,1,,,,,,,,,,,,,,,,,,,,,,,,,,,328.59289,71,left,0.55512,camel         ,6,3,2,1,3,328.611835,328.611835,331.10918,0,70,70,70,1,71,6,4,camel         ,hat           ,html/resources/sequences_IDs/A/03_camel.jpg,html/resources/sequences_IDs/A/08_hat.jpg,3,8,1,1,3,2,3,7,0,29,,,,,,,,,,,,,,,,,,,,
,,,,,29,2020-07-03_14h39.27.615,retriever_ti,2020.1.3,Win32,60,Chrome,1366,768,,,,,,,,,,,,,,,,,1,,,,,,,,,,,,,,,,,,,,,,,,,,,331.71156,72,left,0.54657,parrot      ,7,5,6,1,3,331.728495,331.728495,334.23293,0,71,71,71,1,72,7,1,parrot      ,dolphin     ,html/resources/sequences_IDs/B/05_parrot.jpg,html/resources/sequences_IDs/B/02_dolphin.jpg,5,2,2,1,1,1,4,2,0,29,,,,,,,,,,,,,,,,,,,,
,,,,,29,2020-07-03_14h39.27.615,retriever_ti,2020.1.3,Win32,60,Chrome,1366,768,,,,,,,,,,,,,,,,,1,,,,,,,,,,,,,,,,,,,,,,,,,,,334.82969,73,left,0.487895,hat           ,4,8,-3,0,3,334.86646,334.86646,337.360155,0,72,72,72,1,73,4,7,hat           ,parrot      ,html/resources/sequences_IDs/A/08_hat.jpg,html/resources/sequences_IDs/B/05_parrot.jpg,8,5,3,2,2,1,7,4,0,29,,,,,,,,,,,,,,,,,,,,
,,,,,29,2020-07-03_14h39.27.615,retriever_ti,2020.1.3,Win32,60,Chrome,1366,768,,,,,,,,,,,,,,,,,1,,,,,,,,,,,,,,,,,,,,,,,,,,,337.96332,74,left,0.70601,satellite_dish,8,10,2,1,3,337.99829,337.99829,340.494805,0,73,73,73,1,74,8,6,satellite_dish,camel         ,html/resources/sequences_IDs/A/10_satellite_dish.jpg,html/resources/sequences_IDs/A/03_camel.jpg,10,3,4,2,1,1,8,3,0,29,,,,,,,,,,,,,,,,,,,,
,,,,,29,2020-07-03_14h39.27.615,retriever_ti,2020.1.3,Win32,60,Chrome,1366,768,,,,,,,,,,,,,,,,,1,,,,,,,,,,,,,,,,,,,,,,,,,,,341.112275,75,left,0.52387,dolphin     ,1,2,-4,0,3,341.147625,341.147625,344.15419,0,74,74,74,1,75,1,5,dolphin     ,gloves      ,html/resources/sequences_IDs/B/02_dolphin.jpg,html/resources/sequences_IDs/B/06_gloves.jpg,2,6,1,1,3,2,2,5,0,29,,,,,,,,,,,,,,,,,,,,
,,,,,29,2020-07-03_14h39.27.615,retriever_ti,2020.1.3,Win32,60,Chrome,1366,768,,,,,,,,,,,,,,,,,1,,,,,,,,,,,,,,,,,,,,,,,,,,,344.76618,76,left,0.524135,parrot      ,7,5,4,1,3,344.78414,344.78414,347.278805,0,75,75,75,1,76,7,3,parrot      ,sport_tshirt,html/resources/sequences_IDs/B/05_parrot.jpg,html/resources/sequences_IDs/B/07_sport_tshirt.jpg,5,7,2,1,3,2,4,6,0,29,,,,,,,,,,,,,,,,,,,,
,,,,,29,2020-07-03_14h39.27.615,retriever_ti,2020.1.3,Win32,60,Chrome,1366,768,,,,,,,,,,,,,,,,,1,,,,,,,,,,,,,,,,,,,,,,,,,,,347.88023,77,left,0.661965,satellite_dish,8,10,1,1,1,347.90111,347.90111,350.39665,0,76,76,76,1,77,8,7,satellite_dish,parrot      ,html/resources/sequences_IDs/A/10_satellite_dish.jpg,html/resources/sequences_IDs/B/05_parrot.jpg,10,5,4,2,2,1,8,4,0,29,,,,,,,,,,,,,,,,,,,,
,,,,,29,2020-07-03_14h39.27.615,retriever_ti,2020.1.3,Win32,60,Chrome,1366,768,,,,,,,,,,,,,,,,,,,,,,,,,,,,,,,,,,,,,0,3.06045,,,,,,,,,,,,,,,,,,,,,,,,,,,,,,,,,,,,,,,,,0,0,0,0,1,,,,,,,,,,,,,,,
,,,,,29,2020-07-03_14h39.27.615,retriever_ti,2020.1.3,Win32,60,Chrome,1366,768,,,,,,,,,,,,,,,,,2,,,,,,,,,,,,,,,,,,,,,,,,,,,365.806925,78,left,0.832585,parrot      ,7,5,1,1,1,365.836465,365.836465,368.33344,0,0,0,0,1,78,7,6,parrot      ,camel         ,html/resources/sequences_IDs/B/05_parrot.jpg,html/resources/sequences_IDs/A/03_camel.jpg,5,3,2,1,1,1,4,3,0,29,,,,,,,,,,,,,,,,,,,,
,,,,,29,2020-07-03_14h39.27.615,retriever_ti,2020.1.3,Win32,60,Chrome,1366,768,,,,,,,,,,,,,,,,,2,,,,,,,,,,,,,,,,,,,,,,,,,,,369.434045,79,left,0.792,parrot      ,7,5,-1,0,0,369.45255,369.45255,371.95024,0,1,1,1,1,79,7,8,parrot      ,satellite_dish,html/resources/sequences_IDs/B/05_parrot.jpg,html/resources/sequences_IDs/A/10_satellite_dish.jpg,5,10,2,1,4,2,4,8,0,29,,,,,,,,,,,,,,,,,,,,
,,,,,29,2020-07-03_14h39.27.615,retriever_ti,2020.1.3,Win32,60,Chrome,1366,768,,,,,,,,,,,,,,,,,2,,,,,,,,,,,,,,,,,,,,,,,,,,,373.05338,80,right,0.81934,hat           ,4,8,3,1,3,373.07001,373.07001,375.568515,0,2,2,2,1,80,1,4,dolphin     ,hat           ,html/resources/sequences_IDs/B/02_dolphin.jpg,html/resources/sequences_IDs/A/08_hat.jpg,2,8,1,1,3,2,2,7,0,29,,,,,,,,,,,,,,,,,,,,
,,,,,29,2020-07-03_14h39.27.615,retriever_ti,2020.1.3,Win32,60,Chrome,1366,768,,,,,,,,,,,,,,,,,2,,,,,,,,,,,,,,,,,,,,,,,,,,,376.18676,81,left,0.83717,gloves      ,5,6,-1,0,1,376.22132,376.22132,378.71851,0,3,3,3,1,81,5,6,gloves      ,camel         ,html/resources/sequences_IDs/B/06_gloves.jpg,html/resources/sequences_IDs/A/03_camel.jpg,6,3,3,2,1,1,5,3,1,29,,,,,,,,,,,,,,,,,,,,
,,,,,29,2020-07-03_14h39.27.615,retriever_ti,2020.1.3,Win32,60,Chrome,1366,768,,,,,,,,,,,,,,,,,2,,,,,,,,,,,,,,,,,,,,,,,,,,,379.81955,82,left,0.87403,hat           ,4,8,1,1,0,379.83828,379.83828,382.33558,0,4,4,4,1,82,4,3,hat           ,sport_tshirt,html/resources/sequences_IDs/A/08_hat.jpg,html/resources/sequences_IDs/B/07_sport_tshirt.jpg,8,7,3,2,3,2,7,6,1,29,,,,,,,,,,,,,,,,,,,,
,,,,,29,2020-07-03_14h39.27.615,retriever_ti,2020.1.3,Win32,60,Chrome,1366,768,,,,,,,,,,,,,,,,,2,,,,,,,,,,,,,,,,,,,,,,,,,,,383.447635,83,left,1.262375,gloves      ,5,6,4,1,3,383.4883,383.4883,385.986205,0,5,5,5,1,83,5,1,gloves      ,dolphin     ,html/resources/sequences_IDs/B/06_gloves.jpg,html/resources/sequences_IDs/B/02_dolphin.jpg,6,2,3,2,1,1,5,2,0,29,,,,,,,,,,,,,,,,,,,,
,,,,,29,2020-07-03_14h39.27.615,retriever_ti,2020.1.3,Win32,60,Chrome,1366,768,,,,,,,,,,,,,,,,,2,,,,,,,,,,,,,,,,,,,,,,,,,,,386.588675,84,left,1.13385,wolf          ,2,1,-6,0,3,386.623615,386.623615,389.120945,0,6,6,6,1,84,2,8,wolf          ,satellite_dish,html/resources/sequences_IDs/A/01_wolf.jpg,html/resources/sequences_IDs/A/10_satellite_dish.jpg,1,10,1,1,4,2,1,8,0,29,,,,,,,,,,,,,,,,,,,,
,,,,,29,2020-07-03_14h39.27.615,retriever_ti,2020.1.3,Win32,60,Chrome,1366,768,,,,,,,,,,,,,,,,,2,,,,,,,,,,,,,,,,,,,,,,,,,,,389.738825,85,left,1.028345,satellite_dish,8,10,1,1,1,389.773465,389.773465,392.262855,0,7,7,7,1,85,8,7,satellite_dish,parrot      ,html/resources/sequences_IDs/A/10_satellite_dish.jpg,html/resources/sequences_IDs/B/05_parrot.jpg,10,5,4,2,2,1,8,4,0,29,,,,,,,,,,,,,,,,,,,,
,,,,,29,2020-07-03_14h39.27.615,retriever_ti,2020.1.3,Win32,60,Chrome,1366,768,,,,,,,,,,,,,,,,,2,,,,,,,,,,,,,,,,,,,,,,,,,,,393.355935,86,right,0.95972,sport_tshirt,3,7,-1,0,0,393.373945,393.373945,395.873015,0,8,8,8,1,86,4,3,hat           ,sport_tshirt,html/resources/sequences_IDs/A/08_hat.jpg,html/resources/sequences_IDs/B/07_sport_tshirt.jpg,8,7,3,2,3,2,7,6,0,29,,,,,,,,,,,,,,,,,,,,
,,,,,29,2020-07-03_14h39.27.615,retriever_ti,2020.1.3,Win32,60,Chrome,1366,768,,,,,,,,,,,,,,,,,2,,,,,,,,,,,,,,,,,,,,,,,,,,,396.98559,87,right,1.042595,hat           ,4,8,-4,0,3,397.00759,397.00759,399.50541,0,9,9,9,1,87,8,4,satellite_dish,hat           ,html/resources/sequences_IDs/A/10_satellite_dish.jpg,html/resources/sequences_IDs/A/08_hat.jpg,10,8,4,2,3,2,8,7,0,29,,,,,,,,,,,,,,,,,,,,
,,,,,29,2020-07-03_14h39.27.615,retriever_ti,2020.1.3,Win32,60,Chrome,1366,768,,,,,,,,,,,,,,,,,2,,,,,,,,,,,,,,,,,,,,,,,,,,,400.123295,88,right,0.90699,wolf          ,2,1,1,1,0,400.14231,400.14231,402.63996,0,10,10,10,1,88,1,2,dolphin     ,wolf          ,html/resources/sequences_IDs/B/02_dolphin.jpg,html/resources/sequences_IDs/A/01_wolf.jpg,2,1,1,1,1,1,2,1,1,29,,,,,,,,,,,,,,,,,,,,
,,,,,29,2020-07-03_14h39.27.615,retriever_ti,2020.1.3,Win32,60,Chrome,1366,768,,,,,,,,,,,,,,,,,2,,,,,,,,,,,,,,,,,,,,,,,,,,,403.74316,89,left,1.059535,gloves      ,5,6,-2,0,3,403.760115,403.760115,406.25752,0,11,11,11,1,89,5,7,gloves      ,parrot      ,html/resources/sequences_IDs/B/06_gloves.jpg,html/resources/sequences_IDs/B/05_parrot.jpg,6,5,3,2,2,1,5,4,0,29,,,,,,,,,,,,,,,,,,,,
,,,,,29,2020-07-03_14h39.27.615,retriever_ti,2020.1.3,Win32,60,Chrome,1366,768,,,,,,,,,,,,,,,,,2,,,,,,,,,,,,,,,,,,,,,,,,,,,406.86088,90,right,1.353065,gloves      ,5,6,3,1,3,406.897355,406.897355,409.3908,0,12,12,12,1,90,2,5,wolf          ,gloves      ,html/resources/sequences_IDs/A/01_wolf.jpg,html/resources/sequences_IDs/B/06_gloves.jpg,1,6,1,1,3,2,1,5,0,29,,,,,,,,,,,,,,,,,,,,
,,,,,29,2020-07-03_14h39.27.615,retriever_ti,2020.1.3,Win32,60,Chrome,1366,768,,,,,,,,,,,,,,,,,2,,,,,,,,,,,,,,,,,,,,,,,,,,,409.992845,91,left,0.706005,dolphin     ,1,2,-1,0,0,410.028715,410.028715,412.52538,0,13,13,13,1,91,1,2,dolphin     ,wolf          ,html/resources/sequences_IDs/B/02_dolphin.jpg,html/resources/sequences_IDs/A/01_wolf.jpg,2,1,1,1,1,1,2,1,0,29,,,,,,,,,,,,,,,,,,,,
,,,,,29,2020-07-03_14h39.27.615,retriever_ti,2020.1.3,Win32,60,Chrome,1366,768,,,,,,,,,,,,,,,,,2,,,,,,,,,,,,,,,,,,,,,,,,,,,413.62658,92,left,1.117445,gloves      ,5,6,3,1,3,413.66067,413.66067,416.158775,0,14,14,14,1,92,5,2,gloves      ,wolf          ,html/resources/sequences_IDs/B/06_gloves.jpg,html/resources/sequences_IDs/A/01_wolf.jpg,6,1,3,2,1,1,5,1,0,29,,,,,,,,,,,,,,,,,,,,
,,,,,29,2020-07-03_14h39.27.615,retriever_ti,2020.1.3,Win32,60,Chrome,1366,768,,,,,,,,,,,,,,,,,2,,,,,,,,,,,,,,,,,,,,,,,,,,,416.793945,93,left,1.173985,hat           ,4,8,-2,0,3,416.811495,416.811495,419.309445,0,15,15,15,1,93,4,6,hat           ,camel         ,html/resources/sequences_IDs/A/08_hat.jpg,html/resources/sequences_IDs/A/03_camel.jpg,8,3,3,2,1,1,7,3,0,29,,,,,,,,,,,,,,,,,,,,
,,,,,29,2020-07-03_14h39.27.615,retriever_ti,2020.1.3,Win32,60,Chrome,1366,768,,,,,,,,,,,,,,,,,2,,,,,,,,,,,,,,,,,,,,,,,,,,,419.929035,94,left,0.970615,sport_tshirt,3,7,-2,0,3,419.945275,419.945275,422.44343,0,16,16,16,1,94,3,5,sport_tshirt,gloves      ,html/resources/sequences_IDs/B/07_sport_tshirt.jpg,html/resources/sequences_IDs/B/06_gloves.jpg,7,6,3,2,3,2,6,5,0,29,,,,,,,,,,,,,,,,,,,,
,,,,,29,2020-07-03_14h39.27.615,retriever_ti,2020.1.3,Win32,60,Chrome,1366,768,,,,,,,,,,,,,,,,,2,,,,,,,,,,,,,,,,,,,,,,,,,,,423.06273,95,right,0.742765,hat           ,4,8,-1,0,0,423.08115,423.08115,425.577835,0,17,17,17,1,95,5,4,gloves      ,hat           ,html/resources/sequences_IDs/B/06_gloves.jpg,html/resources/sequences_IDs/A/08_hat.jpg,6,8,3,2,3,2,5,7,0,29,,,,,,,,,,,,,,,,,,,,
,,,,,29,2020-07-03_14h39.27.615,retriever_ti,2020.1.3,Win32,60,Chrome,1366,768,,,,,,,,,,,,,,,,,2,,,,,,,,,,,,,,,,,,,,,,,,,,,426.680355,96,left,0.63029,parrot      ,7,5,1,1,1,426.698125,426.698125,429.195005,0,18,18,18,1,96,7,6,parrot      ,camel         ,html/resources/sequences_IDs/B/05_parrot.jpg,html/resources/sequences_IDs/A/03_camel.jpg,5,3,2,1,1,1,4,3,0,29,,,,,,,,,,,,,,,,,,,,
,,,,,29,2020-07-03_14h39.27.615,retriever_ti,2020.1.3,Win32,60,Chrome,1366,768,,,,,,,,,,,,,,,,,2,,,,,,,,,,,,,,,,,,,,,,,,,,,430.29757,97,right,0.87028,dolphin     ,1,2,-3,0,3,430.315215,430.315215,432.812525,0,19,19,19,1,97,4,1,hat           ,dolphin     ,html/resources/sequences_IDs/A/08_hat.jpg,html/resources/sequences_IDs/B/02_dolphin.jpg,8,2,3,2,1,1,7,2,0,29,,,,,,,,,,,,,,,,,,,,
,,,,,29,2020-07-03_14h39.27.615,retriever_ti,2020.1.3,Win32,60,Chrome,1366,768,,,,,,,,,,,,,,,,,2,,,,,,,,,,,,,,,,,,,,,,,,,,,433.431265,98,right,1.186805,sport_tshirt,3,7,-4,0,3,433.464555,433.464555,435.963025,0,20,20,20,1,98,7,3,parrot      ,sport_tshirt,html/resources/sequences_IDs/B/05_parrot.jpg,html/resources/sequences_IDs/B/07_sport_tshirt.jpg,5,7,2,1,3,2,4,6,0,29,,,,,,,,,,,,,,,,,,,,
,,,,,29,2020-07-03_14h39.27.615,retriever_ti,2020.1.3,Win32,60,Chrome,1366,768,,,,,,,,,,,,,,,,,2,,,,,,,,,,,,,,,,,,,,,,,,,,,436.58166,99,right,0.84319,hat           ,4,8,-3,0,3,436.59838,436.59838,439.09642,0,21,21,21,1,99,7,4,parrot      ,hat           ,html/resources/sequences_IDs/B/05_parrot.jpg,html/resources/sequences_IDs/A/08_hat.jpg,5,8,2,1,3,2,4,7,0,29,,,,,,,,,,,,,,,,,,,,
,,,,,29,2020-07-03_14h39.27.615,retriever_ti,2020.1.3,Win32,60,Chrome,1366,768,,,,,,,,,,,,,,,,,2,,,,,,,,,,,,,,,,,,,,,,,,,,,439.714125,100,right,0.822155,sport_tshirt,3,7,1,1,1,439.750885,439.750885,442.247265,0,22,22,22,1,100,2,3,wolf          ,sport_tshirt,html/resources/sequences_IDs/A/01_wolf.jpg,html/resources/sequences_IDs/B/07_sport_tshirt.jpg,1,7,1,1,3,2,1,6,0,29,,,,,,,,,,,,,,,,,,,,
,,,,,29,2020-07-03_14h39.27.615,retriever_ti,2020.1.3,Win32,60,Chrome,1366,768,,,,,,,,,,,,,,,,,2,,,,,,,,,,,,,,,,,,,,,,,,,,,443.350135,101,left,0.56028,dolphin     ,1,2,-1,0,0,443.38369,443.38369,445.88115,0,23,23,23,1,101,1,2,dolphin     ,wolf          ,html/resources/sequences_IDs/B/02_dolphin.jpg,html/resources/sequences_IDs/A/01_wolf.jpg,2,1,1,1,1,1,2,1,0,29,,,,,,,,,,,,,,,,,,,,
,,,,,29,2020-07-03_14h39.27.615,retriever_ti,2020.1.3,Win32,60,Chrome,1366,768,,,,,,,,,,,,,,,,,2,,,,,,,,,,,,,,,,,,,,,,,,,,,446.98458,102,left,1.092945,dolphin     ,1,2,-4,0,3,447.000445,447.000445,449.498445,0,24,24,24,1,102,1,5,dolphin     ,gloves      ,html/resources/sequences_IDs/B/02_dolphin.jpg,html/resources/sequences_IDs/B/06_gloves.jpg,2,6,1,1,3,2,2,5,0,29,,,,,,,,,,,,,,,,,,,,
,,,,,29,2020-07-03_14h39.27.615,retriever_ti,2020.1.3,Win32,60,Chrome,1366,768,,,,,,,,,,,,,,,,,2,,,,,,,,,,,,,,,,,,,,,,,,,,,450.11622,103,right,1.04668,hat           ,4,8,2,1,3,450.15151,450.15151,452.649855,0,25,25,25,1,103,2,4,wolf          ,hat           ,html/resources/sequences_IDs/A/01_wolf.jpg,html/resources/sequences_IDs/A/08_hat.jpg,1,8,1,1,3,2,1,7,0,29,,,,,,,,,,,,,,,,,,,,
,,,,,29,2020-07-03_14h39.27.615,retriever_ti,2020.1.3,Win32,60,Chrome,1366,768,,,,,,,,,,,,,,,,,2,,,,,,,,,,,,,,,,,,,,,,,,,,,453.26905,104,left,0.90918,parrot      ,7,5,-1,0,0,453.286265,453.286265,455.78589,0,26,26,26,1,104,7,8,parrot      ,satellite_dish,html/resources/sequences_IDs/B/05_parrot.jpg,html/resources/sequences_IDs/A/10_satellite_dish.jpg,5,10,2,1,4,2,4,8,0,29,,,,,,,,,,,,,,,,,,,,
,,,,,29,2020-07-03_14h39.27.615,retriever_ti,2020.1.3,Win32,60,Chrome,1366,768,,,,,,,,,,,,,,,,,2,,,,,,,,,,,,,,,,,,,,,,,,,,,456.88468,105,left,0.7352,gloves      ,5,6,-1,0,0,456.92046,456.92046,459.417575,0,27,27,27,1,105,5,6,gloves      ,camel         ,html/resources/sequences_IDs/B/06_gloves.jpg,html/resources/sequences_IDs/A/03_camel.jpg,6,3,3,2,1,1,5,3,0,29,,,,,,,,,,,,,,,,,,,,
,,,,,29,2020-07-03_14h39.27.615,retriever_ti,2020.1.3,Win32,60,Chrome,1366,768,,,,,,,,,,,,,,,,,2,,,,,,,,,,,,,,,,,,,,,,,,,,,460.51856,106,left,0.951265,sport_tshirt,3,7,-5,0,3,460.55396,460.55396,463.05112,0,28,28,28,1,106,3,8,sport_tshirt,satellite_dish,html/resources/sequences_IDs/B/07_sport_tshirt.jpg,html/resources/sequences_IDs/A/10_satellite_dish.jpg,7,10,3,2,4,2,6,8,0,29,,,,,,,,,,,,,,,,,,,,
,,,,,29,2020-07-03_14h39.27.615,retriever_ti,2020.1.3,Win32,60,Chrome,1366,768,,,,,,,,,,,,,,,,,2,,,,,,,,,,,,,,,,,,,,,,,,,,,463.669515,107,right,1.050635,wolf          ,2,1,-1,0,1,463.70383,463.70383,466.201705,0,29,29,29,1,107,3,2,sport_tshirt,wolf          ,html/resources/sequences_IDs/B/07_sport_tshirt.jpg,html/resources/sequences_IDs/A/01_wolf.jpg,7,1,3,2,1,1,6,1,1,29,,,,,,,,,,,,,,,,,,,,
,,,,,29,2020-07-03_14h39.27.615,retriever_ti,2020.1.3,Win32,60,Chrome,1366,768,,,,,,,,,,,,,,,,,2,,,,,,,,,,,,,,,,,,,,,,,,,,,467.303805,108,left,1.68373,parrot      ,7,5,2,1,3,467.321355,467.321355,469.845395,0,30,30,30,1,108,7,5,parrot      ,gloves      ,html/resources/sequences_IDs/B/05_parrot.jpg,html/resources/sequences_IDs/B/06_gloves.jpg,5,6,2,1,3,2,4,5,0,29,,,,,,,,,,,,,,,,,,,,
,,,,,29,2020-07-03_14h39.27.615,retriever_ti,2020.1.3,Win32,60,Chrome,1366,768,,,,,,,,,,,,,,,,,2,,,,,,,,,,,,,,,,,,,,,,,,,,,470.45367,109,left,0.86898,parrot      ,7,5,1,1,0,470.4885,470.4885,472.98632,0,31,31,31,1,109,7,6,parrot      ,camel         ,html/resources/sequences_IDs/B/05_parrot.jpg,html/resources/sequences_IDs/A/03_camel.jpg,5,3,2,1,1,1,4,3,1,29,,,,,,,,,,,,,,,,,,,,
,,,,,29,2020-07-03_14h39.27.615,retriever_ti,2020.1.3,Win32,60,Chrome,1366,768,,,,,,,,,,,,,,,,,2,,,,,,,,,,,,,,,,,,,,,,,,,,,474.08808,110,left,0.73404,wolf          ,2,1,1,1,1,474.105945,474.105945,476.603565,0,32,32,32,1,110,2,1,wolf          ,dolphin     ,html/resources/sequences_IDs/A/01_wolf.jpg,html/resources/sequences_IDs/B/02_dolphin.jpg,1,2,1,1,1,1,1,2,0,29,,,,,,,,,,,,,,,,,,,,
,,,,,29,2020-07-03_14h39.27.615,retriever_ti,2020.1.3,Win32,60,Chrome,1366,768,,,,,,,,,,,,,,,,,2,,,,,,,,,,,,,,,,,,,,,,,,,,,477.7387,111,left,1.047545,wolf          ,2,1,-4,0,3,477.77616,477.77616,480.275275,0,33,33,33,1,111,2,6,wolf          ,camel         ,html/resources/sequences_IDs/A/01_wolf.jpg,html/resources/sequences_IDs/A/03_camel.jpg,1,3,1,1,1,1,1,3,0,29,,,,,,,,,,,,,,,,,,,,
,,,,,29,2020-07-03_14h39.27.615,retriever_ti,2020.1.3,Win32,60,Chrome,1366,768,,,,,,,,,,,,,,,,,2,,,,,,,,,,,,,,,,,,,,,,,,,,,480.889945,112,left,1.320845,camel         ,6,3,-2,0,3,480.924915,480.924915,483.412455,0,34,34,34,1,112,6,8,camel         ,satellite_dish,html/resources/sequences_IDs/A/03_camel.jpg,html/resources/sequences_IDs/A/10_satellite_dish.jpg,3,10,1,1,4,2,3,8,0,29,,,,,,,,,,,,,,,,,,,,
,,,,,29,2020-07-03_14h39.27.615,retriever_ti,2020.1.3,Win32,60,Chrome,1366,768,,,,,,,,,,,,,,,,,2,,,,,,,,,,,,,,,,,,,,,,,,,,,484.02888,113,left,1.01147,camel         ,6,3,3,1,3,484.049025,484.049025,486.538955,0,35,35,35,1,113,6,3,camel         ,sport_tshirt,html/resources/sequences_IDs/A/03_camel.jpg,html/resources/sequences_IDs/B/07_sport_tshirt.jpg,3,7,1,1,3,2,3,6,0,29,,,,,,,,,,,,,,,,,,,,
,,,,,29,2020-07-03_14h39.27.615,retriever_ti,2020.1.3,Win32,60,Chrome,1366,768,,,,,,,,,,,,,,,,,2,,,,,,,,,,,,,,,,,,,,,,,,,,,487.141195,114,right,1.3911,wolf          ,2,1,-1,0,0,487.175715,487.175715,489.673545,0,36,36,36,1,114,3,2,sport_tshirt,wolf          ,html/resources/sequences_IDs/B/07_sport_tshirt.jpg,html/resources/sequences_IDs/A/01_wolf.jpg,7,1,3,2,1,1,6,1,0,29,,,,,,,,,,,,,,,,,,,,
,,,,,29,2020-07-03_14h39.27.615,retriever_ti,2020.1.3,Win32,60,Chrome,1366,768,,,,,,,,,,,,,,,,,2,,,,,,,,,,,,,,,,,,,,,,,,,,,490.77753,115,left,1.160915,parrot      ,7,5,5,1,3,490.79607,490.79607,493.290405,0,37,37,37,1,115,7,2,parrot      ,wolf          ,html/resources/sequences_IDs/B/05_parrot.jpg,html/resources/sequences_IDs/A/01_wolf.jpg,5,1,2,1,1,1,4,1,0,29,,,,,,,,,,,,,,,,,,,,
,,,,,29,2020-07-03_14h39.27.615,retriever_ti,2020.1.3,Win32,60,Chrome,1366,768,,,,,,,,,,,,,,,,,2,,,,,,,,,,,,,,,,,,,,,,,,,,,493.91103,116,left,0.9286,hat           ,4,8,2,1,3,493.930325,493.930325,496.42401,0,38,38,38,1,116,4,2,hat           ,wolf          ,html/resources/sequences_IDs/A/08_hat.jpg,html/resources/sequences_IDs/A/01_wolf.jpg,8,1,3,2,1,1,7,1,0,29,,,,,,,,,,,,,,,,,,,,
,,,,,29,2020-07-03_14h39.27.615,retriever_ti,2020.1.3,Win32,60,Chrome,1366,768,,,,,,,,,,,,,,,,,2,,,,,,,,,,,,,,,,,,,,,,,,,,,497.04281,117,right,1.121435,dolphin     ,1,2,-2,0,3,497.0621,497.0621,499.558195,0,39,39,39,1,117,3,1,sport_tshirt,dolphin     ,html/resources/sequences_IDs/B/07_sport_tshirt.jpg,html/resources/sequences_IDs/B/02_dolphin.jpg,7,2,3,2,1,1,6,2,0,29,,,,,,,,,,,,,,,,,,,,
,,,,,29,2020-07-03_14h39.27.615,retriever_ti,2020.1.3,Win32,60,Chrome,1366,768,,,,,,,,,,,,,,,,,2,,,,,,,,,,,,,,,,,,,,,,,,,,,500.177395,118,left,0.74517,dolphin     ,1,2,-2,0,3,500.19463,500.19463,502.6928,0,40,40,40,1,118,1,3,dolphin     ,sport_tshirt,html/resources/sequences_IDs/B/02_dolphin.jpg,html/resources/sequences_IDs/B/07_sport_tshirt.jpg,2,7,1,1,3,2,2,6,0,29,,,,,,,,,,,,,,,,,,,,
,,,,,29,2020-07-03_14h39.27.615,retriever_ti,2020.1.3,Win32,60,Chrome,1366,768,,,,,,,,,,,,,,,,,2,,,,,,,,,,,,,,,,,,,,,,,,,,,503.31092,119,left,1.088735,satellite_dish,8,10,7,1,3,503.344755,503.344755,505.84384,0,41,41,41,1,119,8,1,satellite_dish,dolphin     ,html/resources/sequences_IDs/A/10_satellite_dish.jpg,html/resources/sequences_IDs/B/02_dolphin.jpg,10,2,4,2,1,1,8,2,0,29,,,,,,,,,,,,,,,,,,,,
,,,,,29,2020-07-03_14h39.27.615,retriever_ti,2020.1.3,Win32,60,Chrome,1366,768,,,,,,,,,,,,,,,,,2,,,,,,,,,,,,,,,,,,,,,,,,,,,506.460885,120,left,0.706695,satellite_dish,8,10,1,1,0,506.49575,506.49575,508.993305,0,42,42,42,1,120,8,7,satellite_dish,parrot      ,html/resources/sequences_IDs/A/10_satellite_dish.jpg,html/resources/sequences_IDs/B/05_parrot.jpg,10,5,4,2,2,1,8,4,1,29,,,,,,,,,,,,,,,,,,,,
,,,,,29,2020-07-03_14h39.27.615,retriever_ti,2020.1.3,Win32,60,Chrome,1366,768,,,,,,,,,,,,,,,,,2,,,,,,,,,,,,,,,,,,,,,,,,,,,510.095455,121,left,0.88513,satellite_dish,8,10,5,1,3,510.147015,510.147015,512.64382,0,43,43,43,1,121,8,3,satellite_dish,sport_tshirt,html/resources/sequences_IDs/A/10_satellite_dish.jpg,html/resources/sequences_IDs/B/07_sport_tshirt.jpg,10,7,4,2,3,2,8,6,0,29,,,,,,,,,,,,,,,,,,,,
,,,,,29,2020-07-03_14h39.27.615,retriever_ti,2020.1.3,Win32,60,Chrome,1366,768,,,,,,,,,,,,,,,,,2,,,,,,,,,,,,,,,,,,,,,,,,,,,513.245915,122,right,1.0501,camel         ,6,3,1,1,1,513.26413,513.26413,515.76121,0,44,44,44,1,122,5,6,gloves      ,camel         ,html/resources/sequences_IDs/B/06_gloves.jpg,html/resources/sequences_IDs/A/03_camel.jpg,6,3,3,2,1,1,5,3,0,29,,,,,,,,,,,,,,,,,,,,
,,,,,29,2020-07-03_14h39.27.615,retriever_ti,2020.1.3,Win32,60,Chrome,1366,768,,,,,,,,,,,,,,,,,2,,,,,,,,,,,,,,,,,,,,,,,,,,,516.86366,123,right,1.089465,parrot      ,7,5,-1,0,0,516.880665,516.880665,519.378475,0,45,45,45,1,123,8,7,satellite_dish,parrot      ,html/resources/sequences_IDs/A/10_satellite_dish.jpg,html/resources/sequences_IDs/B/05_parrot.jpg,10,5,4,2,2,1,8,4,0,29,,,,,,,,,,,,,,,,,,,,
,,,,,29,2020-07-03_14h39.27.615,retriever_ti,2020.1.3,Win32,60,Chrome,1366,768,,,,,,,,,,,,,,,,,2,,,,,,,,,,,,,,,,,,,,,,,,,,,520.48162,124,left,1.2229,satellite_dish,8,10,6,1,3,520.517195,520.517195,523.01405,0,46,46,46,1,124,8,2,satellite_dish,wolf          ,html/resources/sequences_IDs/A/10_satellite_dish.jpg,html/resources/sequences_IDs/A/01_wolf.jpg,10,1,4,2,1,1,8,1,0,29,,,,,,,,,,,,,,,,,,,,
,,,,,29,2020-07-03_14h39.27.615,retriever_ti,2020.1.3,Win32,60,Chrome,1366,768,,,,,,,,,,,,,,,,,2,,,,,,,,,,,,,,,,,,,,,,,,,,,523.631465,125,left,1.585615,dolphin     ,1,2,-7,0,3,523.648725,523.648725,526.147245,0,47,47,47,1,125,1,8,dolphin     ,satellite_dish,html/resources/sequences_IDs/B/02_dolphin.jpg,html/resources/sequences_IDs/A/10_satellite_dish.jpg,2,10,1,1,4,2,2,8,0,29,,,,,,,,,,,,,,,,,,,,
,,,,,29,2020-07-03_14h39.27.615,retriever_ti,2020.1.3,Win32,60,Chrome,1366,768,,,,,,,,,,,,,,,,,2,,,,,,,,,,,,,,,,,,,,,,,,,,,526.767055,126,left,1.52341,parrot      ,7,5,6,1,3,526.80125,526.80125,529.29692,0,48,48,48,1,126,7,1,parrot      ,dolphin     ,html/resources/sequences_IDs/B/05_parrot.jpg,html/resources/sequences_IDs/B/02_dolphin.jpg,5,2,2,1,1,1,4,2,0,29,,,,,,,,,,,,,,,,,,,,
,,,,,29,2020-07-03_14h39.27.615,retriever_ti,2020.1.3,Win32,60,Chrome,1366,768,,,,,,,,,,,,,,,,,2,,,,,,,,,,,,,,,,,,,,,,,,,,,529.91481,127,left,1.42008,camel         ,6,3,2,1,3,529.95046,529.95046,532.44764,0,49,49,49,1,127,6,4,camel         ,hat           ,html/resources/sequences_IDs/A/03_camel.jpg,html/resources/sequences_IDs/A/08_hat.jpg,3,8,1,1,3,2,3,7,0,29,,,,,,,,,,,,,,,,,,,,
,,,,,29,2020-07-03_14h39.27.615,retriever_ti,2020.1.3,Win32,60,Chrome,1366,768,,,,,,,,,,,,,,,,,2,,,,,,,,,,,,,,,,,,,,,,,,,,,533.066965,128,left,1.387355,wolf          ,2,1,-5,0,3,533.104325,533.104325,535.598245,0,50,50,50,1,128,2,7,wolf          ,parrot      ,html/resources/sequences_IDs/A/01_wolf.jpg,html/resources/sequences_IDs/B/05_parrot.jpg,1,5,1,1,2,1,1,4,0,29,,,,,,,,,,,,,,,,,,,,
,,,,,29,2020-07-03_14h39.27.615,retriever_ti,2020.1.3,Win32,60,Chrome,1366,768,,,,,,,,,,,,,,,,,2,,,,,,,,,,,,,,,,,,,,,,,,,,,536.215845,129,left,1.438905,sport_tshirt,3,7,1,1,1,536.23469,536.23469,538.73212,0,51,51,51,1,129,3,2,sport_tshirt,wolf          ,html/resources/sequences_IDs/B/07_sport_tshirt.jpg,html/resources/sequences_IDs/A/01_wolf.jpg,7,1,3,2,1,1,6,1,0,29,,,,,,,,,,,,,,,,,,,,
,,,,,29,2020-07-03_14h39.27.615,retriever_ti,2020.1.3,Win32,60,Chrome,1366,768,,,,,,,,,,,,,,,,,2,,,,,,,,,,,,,,,,,,,,,,,,,,,539.83432,130,left,1.13385,camel         ,6,3,1,1,1,539.869095,539.869095,542.366175,0,52,52,52,1,130,6,5,camel         ,gloves      ,html/resources/sequences_IDs/A/03_camel.jpg,html/resources/sequences_IDs/B/06_gloves.jpg,3,6,1,1,3,2,3,5,0,29,,,,,,,,,,,,,,,,,,,,
,,,,,29,2020-07-03_14h39.27.615,retriever_ti,2020.1.3,Win32,60,Chrome,1366,768,,,,,,,,,,,,,,,,,2,,,,,,,,,,,,,,,,,,,,,,,,,,,543.46955,131,left,0.98072,wolf          ,2,1,-1,0,0,543.510145,543.510145,546.001915,0,53,53,53,1,131,2,3,wolf          ,sport_tshirt,html/resources/sequences_IDs/A/01_wolf.jpg,html/resources/sequences_IDs/B/07_sport_tshirt.jpg,1,7,1,1,3,2,1,6,0,29,,,,,,,,,,,,,,,,,,,,
,,,,,29,2020-07-03_14h39.27.615,retriever_ti,2020.1.3,Win32,60,Chrome,1366,768,,,,,,,,,,,,,,,,,2,,,,,,,,,,,,,,,,,,,,,,,,,,,547.10256,132,left,1.34448,sport_tshirt,3,7,-4,0,3,547.137275,547.137275,549.63426,0,54,54,54,1,132,3,7,sport_tshirt,parrot      ,html/resources/sequences_IDs/B/07_sport_tshirt.jpg,html/resources/sequences_IDs/B/05_parrot.jpg,7,5,3,2,2,1,6,4,0,29,,,,,,,,,,,,,,,,,,,,
,,,,,29,2020-07-03_14h39.27.615,retriever_ti,2020.1.3,Win32,60,Chrome,1366,768,,,,,,,,,,,,,,,,,2,,,,,,,,,,,,,,,,,,,,,,,,,,,550.252305,133,right,1.20373,hat           ,4,8,-1,0,0,550.28765,550.28765,552.7862,0,55,55,55,1,133,5,4,gloves      ,hat           ,html/resources/sequences_IDs/B/06_gloves.jpg,html/resources/sequences_IDs/A/08_hat.jpg,6,8,3,2,3,2,5,7,0,29,,,,,,,,,,,,,,,,,,,,
,,,,,29,2020-07-03_14h39.27.615,retriever_ti,2020.1.3,Win32,60,Chrome,1366,768,,,,,,,,,,,,,,,,,2,,,,,,,,,,,,,,,,,,,,,,,,,,,553.886905,134,left,1.036485,camel         ,6,3,5,1,3,553.90525,553.90525,556.402215,0,56,56,56,1,134,6,1,camel         ,dolphin     ,html/resources/sequences_IDs/A/03_camel.jpg,html/resources/sequences_IDs/B/02_dolphin.jpg,3,2,1,1,1,1,3,2,0,29,,,,,,,,,,,,,,,,,,,,
,,,,,29,2020-07-03_14h39.27.615,retriever_ti,2020.1.3,Win32,60,Chrome,1366,768,,,,,,,,,,,,,,,,,2,,,,,,,,,,,,,,,,,,,,,,,,,,,557.02038,135,left,1.35786,camel         ,6,3,-1,0,0,557.055925,557.055925,559.55366,0,57,57,57,1,135,6,7,camel         ,parrot      ,html/resources/sequences_IDs/A/03_camel.jpg,html/resources/sequences_IDs/B/05_parrot.jpg,3,5,1,1,2,1,3,4,0,29,,,,,,,,,,,,,,,,,,,,
,,,,,29,2020-07-03_14h39.27.615,retriever_ti,2020.1.3,Win32,60,Chrome,1366,768,,,,,,,,,,,,,,,,,2,,,,,,,,,,,,,,,,,,,,,,,,,,,560.655035,136,left,1.17904,wolf          ,2,1,1,1,1,560.69147,560.69147,563.18687,0,58,58,58,1,136,2,1,wolf          ,dolphin     ,html/resources/sequences_IDs/A/01_wolf.jpg,html/resources/sequences_IDs/B/02_dolphin.jpg,1,2,1,1,1,1,1,2,0,29,,,,,,,,,,,,,,,,,,,,
,,,,,29,2020-07-03_14h39.27.615,retriever_ti,2020.1.3,Win32,60,Chrome,1366,768,,,,,,,,,,,,,,,,,2,,,,,,,,,,,,,,,,,,,,,,,,,,,564.288745,137,left,1.450435,hat           ,4,8,-3,0,3,564.30663,564.30663,566.80523,0,59,59,59,1,137,4,7,hat           ,parrot      ,html/resources/sequences_IDs/A/08_hat.jpg,html/resources/sequences_IDs/B/05_parrot.jpg,8,5,3,2,2,1,7,4,0,29,,,,,,,,,,,,,,,,,,,,
,,,,,29,2020-07-03_14h39.27.615,retriever_ti,2020.1.3,Win32,60,Chrome,1366,768,,,,,,,,,,,,,,,,,2,,,,,,,,,,,,,,,,,,,,,,,,,,,567.42516,138,left,0.886655,hat           ,4,8,-1,0,0,567.4467,567.4467,569.93833,0,60,60,60,1,138,4,5,hat           ,gloves      ,html/resources/sequences_IDs/A/08_hat.jpg,html/resources/sequences_IDs/B/06_gloves.jpg,8,6,3,2,3,2,7,5,0,29,,,,,,,,,,,,,,,,,,,,
,,,,,29,2020-07-03_14h39.27.615,retriever_ti,2020.1.3,Win32,60,Chrome,1366,768,,,,,,,,,,,,,,,,,2,,,,,,,,,,,,,,,,,,,,,,,,,,,571.039905,139,left,0.88783,sport_tshirt,3,7,-1,0,0,571.058775,571.058775,573.556215,0,61,61,61,1,139,3,4,sport_tshirt,hat           ,html/resources/sequences_IDs/B/07_sport_tshirt.jpg,html/resources/sequences_IDs/A/08_hat.jpg,7,8,3,2,3,2,6,7,0,29,,,,,,,,,,,,,,,,,,,,
,,,,,29,2020-07-03_14h39.27.615,retriever_ti,2020.1.3,Win32,60,Chrome,1366,768,,,,,,,,,,,,,,,,,2,,,,,,,,,,,,,,,,,,,,,,,,,,,574.658395,140,left,0.702815,sport_tshirt,3,7,-1,0,0,574.70804,574.70804,577.19016,0,62,62,62,1,140,3,4,sport_tshirt,hat           ,html/resources/sequences_IDs/B/07_sport_tshirt.jpg,html/resources/sequences_IDs/A/08_hat.jpg,7,8,3,2,3,2,6,7,0,29,,,,,,,,,,,,,,,,,,,,
,,,,,29,2020-07-03_14h39.27.615,retriever_ti,2020.1.3,Win32,60,Chrome,1366,768,,,,,,,,,,,,,,,,,2,,,,,,,,,,,,,,,,,,,,,,,,,,,578.32496,141,left,0.928305,hat           ,4,8,1,1,1,578.342665,578.342665,580.84043,0,63,63,63,1,141,4,3,hat           ,sport_tshirt,html/resources/sequences_IDs/A/08_hat.jpg,html/resources/sequences_IDs/B/07_sport_tshirt.jpg,8,7,3,2,3,2,7,6,0,29,,,,,,,,,,,,,,,,,,,,
,,,,,29,2020-07-03_14h39.27.615,retriever_ti,2020.1.3,Win32,60,Chrome,1366,768,,,,,,,,,,,,,,,,,2,,,,,,,,,,,,,,,,,,,,,,,,,,,581.94226,142,right,0.80756,parrot      ,7,5,1,1,1,582.009965,582.009965,584.50758,0,64,64,64,1,142,6,7,camel         ,parrot      ,html/resources/sequences_IDs/A/03_camel.jpg,html/resources/sequences_IDs/B/05_parrot.jpg,3,5,1,1,2,1,3,4,0,29,,,,,,,,,,,,,,,,,,,,
,,,,,29,2020-07-03_14h39.27.615,retriever_ti,2020.1.3,Win32,60,Chrome,1366,768,,,,,,,,,,,,,,,,,2,,,,,,,,,,,,,,,,,,,,,,,,,,,585.609395,143,left,1.20906,satellite_dish,8,10,2,1,3,585.64454,585.64454,588.14163,0,65,65,65,1,143,8,6,satellite_dish,camel         ,html/resources/sequences_IDs/A/10_satellite_dish.jpg,html/resources/sequences_IDs/A/03_camel.jpg,10,3,4,2,1,1,8,3,0,29,,,,,,,,,,,,,,,,,,,,
,,,,,29,2020-07-03_14h39.27.615,retriever_ti,2020.1.3,Win32,60,Chrome,1366,768,,,,,,,,,,,,,,,,,2,,,,,,,,,,,,,,,,,,,,,,,,,,,588.75931,144,left,1.01759,hat           ,4,8,-1,0,0,588.794755,588.794755,591.292625,0,66,66,66,1,144,4,5,hat           ,gloves      ,html/resources/sequences_IDs/A/08_hat.jpg,html/resources/sequences_IDs/B/06_gloves.jpg,8,6,3,2,3,2,7,5,0,29,,,,,,,,,,,,,,,,,,,,
,,,,,29,2020-07-03_14h39.27.615,retriever_ti,2020.1.3,Win32,60,Chrome,1366,768,,,,,,,,,,,,,,,,,2,,,,,,,,,,,,,,,,,,,,,,,,,,,592.39412,145,left,1.084265,satellite_dish,8,10,3,1,3,592.428565,592.428565,594.92641,0,67,67,67,1,145,8,5,satellite_dish,gloves      ,html/resources/sequences_IDs/A/10_satellite_dish.jpg,html/resources/sequences_IDs/B/06_gloves.jpg,10,6,4,2,3,2,8,5,0,29,,,,,,,,,,,,,,,,,,,,
,,,,,29,2020-07-03_14h39.27.615,retriever_ti,2020.1.3,Win32,60,Chrome,1366,768,,,,,,,,,,,,,,,,,2,,,,,,,,,,,,,,,,,,,,,,,,,,,595.54463,146,left,1.11348,sport_tshirt,3,7,-3,0,3,595.578925,595.578925,598.076995,0,68,68,68,1,146,3,6,sport_tshirt,camel         ,html/resources/sequences_IDs/B/07_sport_tshirt.jpg,html/resources/sequences_IDs/A/03_camel.jpg,7,3,3,2,1,1,6,3,0,29,,,,,,,,,,,,,,,,,,,,
,,,,,29,2020-07-03_14h39.27.615,retriever_ti,2020.1.3,Win32,60,Chrome,1366,768,,,,,,,,,,,,,,,,,2,,,,,,,,,,,,,,,,,,,,,,,,,,,598.678745,147,left,1.01775,camel         ,6,3,1,1,1,598.713235,598.713235,601.215415,0,69,69,69,1,147,6,5,camel         ,gloves      ,html/resources/sequences_IDs/A/03_camel.jpg,html/resources/sequences_IDs/B/06_gloves.jpg,3,6,1,1,3,2,3,5,0,29,,,,,,,,,,,,,,,,,,,,
,,,,,29,2020-07-03_14h39.27.615,retriever_ti,2020.1.3,Win32,60,Chrome,1366,768,,,,,,,,,,,,,,,,,2,,,,,,,,,,,,,,,,,,,,,,,,,,,602.314155,148,right,1.0063,satellite_dish,8,10,4,1,3,602.34813,602.34813,604.845295,0,70,70,70,1,148,4,8,hat           ,satellite_dish,html/resources/sequences_IDs/A/08_hat.jpg,html/resources/sequences_IDs/A/10_satellite_dish.jpg,8,10,3,2,4,2,7,8,0,29,,,,,,,,,,,,,,,,,,,,
,,,,,29,2020-07-03_14h39.27.615,retriever_ti,2020.1.3,Win32,60,Chrome,1366,768,,,,,,,,,,,,,,,,,2,,,,,,,,,,,,,,,,,,,,,,,,,,,605.46276,149,left,0.75733,hat           ,4,8,-1,0,1,605.498295,605.498295,607.983325,0,71,71,71,1,149,4,5,hat           ,gloves      ,html/resources/sequences_IDs/A/08_hat.jpg,html/resources/sequences_IDs/B/06_gloves.jpg,8,6,3,2,3,2,7,5,1,29,,,,,,,,,,,,,,,,,,,,
,,,,,29,2020-07-03_14h39.27.615,retriever_ti,2020.1.3,Win32,60,Chrome,1366,768,,,,,,,,,,,,,,,,,2,,,,,,,,,,,,,,,,,,,,,,,,,,,609.08238,150,left,1.06686,gloves      ,5,6,2,1,3,609.102075,609.102075,611.59602,0,72,72,72,1,150,5,3,gloves      ,sport_tshirt,html/resources/sequences_IDs/B/06_gloves.jpg,html/resources/sequences_IDs/B/07_sport_tshirt.jpg,6,7,3,2,3,2,5,6,0,29,,,,,,,,,,,,,,,,,,,,
,,,,,29,2020-07-03_14h39.27.615,retriever_ti,2020.1.3,Win32,60,Chrome,1366,768,,,,,,,,,,,,,,,,,2,,,,,,,,,,,,,,,,,,,,,,,,,,,612.21477,151,left,1.33791,dolphin     ,1,2,-5,0,3,612.236245,612.236245,614.73008,0,73,73,73,1,151,1,6,dolphin     ,camel         ,html/resources/sequences_IDs/B/02_dolphin.jpg,html/resources/sequences_IDs/A/03_camel.jpg,2,3,1,1,1,1,2,3,0,29,,,,,,,,,,,,,,,,,,,,
,,,,,29,2020-07-03_14h39.27.615,retriever_ti,2020.1.3,Win32,60,Chrome,1366,768,,,,,,,,,,,,,,,,,2,,,,,,,,,,,,,,,,,,,,,,,,,,,615.331845,152,right,1.3697,wolf          ,2,1,-4,0,3,615.35094,615.35094,617.87198,0,74,74,74,1,152,6,2,camel         ,wolf          ,html/resources/sequences_IDs/A/03_camel.jpg,html/resources/sequences_IDs/A/01_wolf.jpg,3,1,1,1,1,1,3,1,0,29,,,,,,,,,,,,,,,,,,,,
,,,,,29,2020-07-03_14h39.27.615,retriever_ti,2020.1.3,Win32,60,Chrome,1366,768,,,,,,,,,,,,,,,,,2,,,,,,,,,,,,,,,,,,,,,,,,,,,618.48499,153,right,1.43839,satellite_dish,8,10,3,1,3,618.50505,618.50505,620.99793,0,75,75,75,1,153,5,8,gloves      ,satellite_dish,html/resources/sequences_IDs/B/06_gloves.jpg,html/resources/sequences_IDs/A/10_satellite_dish.jpg,6,10,3,2,4,2,5,8,0,29,,,,,,,,,,,,,,,,,,,,
,,,,,29,2020-07-03_14h39.27.615,retriever_ti,2020.1.3,Win32,60,Chrome,1366,768,,,,,,,,,,,,,,,,,2,,,,,,,,,,,,,,,,,,,,,,,,,,,621.61653,154,right,1.6034,parrot      ,7,5,6,1,3,621.655345,621.655345,624.14947,0,76,76,76,1,154,1,7,dolphin     ,parrot      ,html/resources/sequences_IDs/B/02_dolphin.jpg,html/resources/sequences_IDs/B/05_parrot.jpg,2,5,1,1,2,1,2,4,0,29,,,,,,,,,,,,,,,,,,,,
,,,,,29,2020-07-03_14h39.27.615,retriever_ti,2020.1.3,Win32,60,Chrome,1366,768,,,,,,,,,,,,,,,,,,,,,,,,,,,,,,,,,,,,,0,1.18018,,,,,,,,,,,,,,,,,,,,,,,,,,,,,,,,,,,,,,,,,1,0,1,0,1,,,,,,,,,,,,,,,
,,,,,29,2020-07-03_14h39.27.615,retriever_ti,2020.1.3,Win32,60,Chrome,1366,768,,,,,,,,,,,,,,,,,3,,,,,,,,,,,,,,,,,,,,,,,,,,,633.795335,155,left,1.3256,hat           ,4,8,-3,0,3,633.819735,633.819735,636.31757,0,0,0,0,1,155,4,7,hat           ,parrot      ,html/resources/sequences_IDs/A/08_hat.jpg,html/resources/sequences_IDs/B/05_parrot.jpg,8,5,3,2,2,1,7,4,0,29,,,,,,,,,,,,,,,,,,,,
,,,,,29,2020-07-03_14h39.27.615,retriever_ti,2020.1.3,Win32,60,Chrome,1366,768,,,,,,,,,,,,,,,,,3,,,,,,,,,,,,,,,,,,,,,,,,,,,636.936885,156,right,1.35376,wolf          ,2,1,-5,0,3,636.95561,636.95561,639.452195,0,1,1,1,1,156,7,2,parrot      ,wolf          ,html/resources/sequences_IDs/B/05_parrot.jpg,html/resources/sequences_IDs/A/01_wolf.jpg,5,1,2,1,1,1,4,1,0,29,,,,,,,,,,,,,,,,,,,,
,,,,,29,2020-07-03_14h39.27.615,retriever_ti,2020.1.3,Win32,60,Chrome,1366,768,,,,,,,,,,,,,,,,,3,,,,,,,,,,,,,,,,,,,,,,,,,,,640.069185,157,right,0.93856,sport_tshirt,3,7,1,1,1,640.087995,640.087995,642.58551,0,2,2,2,1,157,2,3,wolf          ,sport_tshirt,html/resources/sequences_IDs/A/01_wolf.jpg,html/resources/sequences_IDs/B/07_sport_tshirt.jpg,1,7,1,1,3,2,1,6,0,29,,,,,,,,,,,,,,,,,,,,
,,,,,29,2020-07-03_14h39.27.615,retriever_ti,2020.1.3,Win32,60,Chrome,1366,768,,,,,,,,,,,,,,,,,3,,,,,,,,,,,,,,,,,,,,,,,,,,,643.687295,158,left,0.725665,sport_tshirt,3,7,1,1,1,643.72179,643.72179,646.223755,0,3,3,3,1,158,3,2,sport_tshirt,wolf          ,html/resources/sequences_IDs/B/07_sport_tshirt.jpg,html/resources/sequences_IDs/A/01_wolf.jpg,7,1,3,2,1,1,6,1,0,29,,,,,,,,,,,,,,,,,,,,
,,,,,29,2020-07-03_14h39.27.615,retriever_ti,2020.1.3,Win32,60,Chrome,1366,768,,,,,,,,,,,,,,,,,3,,,,,,,,,,,,,,,,,,,,,,,,,,,647.323925,159,left,0.988945,satellite_dish,8,10,1,1,1,647.360585,647.360585,649.854135,0,4,4,4,1,159,8,7,satellite_dish,parrot      ,html/resources/sequences_IDs/A/10_satellite_dish.jpg,html/resources/sequences_IDs/B/05_parrot.jpg,10,5,4,2,2,1,8,4,0,29,,,,,,,,,,,,,,,,,,,,
,,,,,29,2020-07-03_14h39.27.615,retriever_ti,2020.1.3,Win32,60,Chrome,1366,768,,,,,,,,,,,,,,,,,3,,,,,,,,,,,,,,,,,,,,,,,,,,,650.95707,160,right,0.814085,sport_tshirt,3,7,1,1,1,650.97445,650.97445,653.47071,0,5,5,5,1,160,2,3,wolf          ,sport_tshirt,html/resources/sequences_IDs/A/01_wolf.jpg,html/resources/sequences_IDs/B/07_sport_tshirt.jpg,1,7,1,1,3,2,1,6,0,29,,,,,,,,,,,,,,,,,,,,
,,,,,29,2020-07-03_14h39.27.615,retriever_ti,2020.1.3,Win32,60,Chrome,1366,768,,,,,,,,,,,,,,,,,3,,,,,,,,,,,,,,,,,,,,,,,,,,,654.57263,161,left,1.19342,hat           ,4,8,1,1,0,654.590625,654.590625,657.088875,0,6,6,6,1,161,4,3,hat           ,sport_tshirt,html/resources/sequences_IDs/A/08_hat.jpg,html/resources/sequences_IDs/B/07_sport_tshirt.jpg,8,7,3,2,3,2,7,6,1,29,,,,,,,,,,,,,,,,,,,,
,,,,,29,2020-07-03_14h39.27.615,retriever_ti,2020.1.3,Win32,60,Chrome,1366,768,,,,,,,,,,,,,,,,,3,,,,,,,,,,,,,,,,,,,,,,,,,,,658.19064,162,left,0.66162,sport_tshirt,3,7,-5,0,3,658.22617,658.22617,660.72233,0,7,7,7,1,162,3,8,sport_tshirt,satellite_dish,html/resources/sequences_IDs/B/07_sport_tshirt.jpg,html/resources/sequences_IDs/A/10_satellite_dish.jpg,7,10,3,2,4,2,6,8,0,29,,,,,,,,,,,,,,,,,,,,
,,,,,29,2020-07-03_14h39.27.615,retriever_ti,2020.1.3,Win32,60,Chrome,1366,768,,,,,,,,,,,,,,,,,3,,,,,,,,,,,,,,,,,,,,,,,,,,,661.341745,163,right,1.446345,satellite_dish,8,10,7,1,3,661.37537,661.37537,663.872815,0,8,8,8,1,163,1,8,dolphin     ,satellite_dish,html/resources/sequences_IDs/B/02_dolphin.jpg,html/resources/sequences_IDs/A/10_satellite_dish.jpg,2,10,1,1,4,2,2,8,0,29,,,,,,,,,,,,,,,,,,,,
,,,,,29,2020-07-03_14h39.27.615,retriever_ti,2020.1.3,Win32,60,Chrome,1366,768,,,,,,,,,,,,,,,,,3,,,,,,,,,,,,,,,,,,,,,,,,,,,664.49179,164,left,1.26668,sport_tshirt,3,7,-3,0,3,664.5108,664.5108,667.207195,0,9,9,9,1,164,3,6,sport_tshirt,camel         ,html/resources/sequences_IDs/B/07_sport_tshirt.jpg,html/resources/sequences_IDs/A/03_camel.jpg,7,3,3,2,1,1,6,3,0,29,,,,,,,,,,,,,,,,,,,,
,,,,,29,2020-07-03_14h39.27.615,retriever_ti,2020.1.3,Win32,60,Chrome,1366,768,,,,,,,,,,,,,,,,,3,,,,,,,,,,,,,,,,,,,,,,,,,,,667.825105,165,right,1.19285,satellite_dish,8,10,3,1,3,667.86156,667.86156,670.357405,0,10,10,10,1,165,5,8,gloves      ,satellite_dish,html/resources/sequences_IDs/B/06_gloves.jpg,html/resources/sequences_IDs/A/10_satellite_dish.jpg,6,10,3,2,4,2,5,8,0,29,,,,,,,,,,,,,,,,,,,,
,,,,,29,2020-07-03_14h39.27.615,retriever_ti,2020.1.3,Win32,60,Chrome,1366,768,,,,,,,,,,,,,,,,,3,,,,,,,,,,,,,,,,,,,,,,,,,,,670.97707,166,left,0.820585,sport_tshirt,3,7,2,1,3,671.010305,671.010305,673.508925,0,11,11,11,1,166,3,1,sport_tshirt,dolphin     ,html/resources/sequences_IDs/B/07_sport_tshirt.jpg,html/resources/sequences_IDs/B/02_dolphin.jpg,7,2,3,2,1,1,6,2,0,29,,,,,,,,,,,,,,,,,,,,
,,,,,29,2020-07-03_14h39.27.615,retriever_ti,2020.1.3,Win32,60,Chrome,1366,768,,,,,,,,,,,,,,,,,3,,,,,,,,,,,,,,,,,,,,,,,,,,,674.125785,167,right,0.83914,sport_tshirt,3,7,-5,0,3,674.16091,674.16091,676.659235,0,12,12,12,1,167,8,3,satellite_dish,sport_tshirt,html/resources/sequences_IDs/A/10_satellite_dish.jpg,html/resources/sequences_IDs/B/07_sport_tshirt.jpg,10,7,4,2,3,2,8,6,0,29,,,,,,,,,,,,,,,,,,,,
,,,,,29,2020-07-03_14h39.27.615,retriever_ti,2020.1.3,Win32,60,Chrome,1366,768,,,,,,,,,,,,,,,,,3,,,,,,,,,,,,,,,,,,,,,,,,,,,677.277445,168,right,0.966285,wolf          ,2,1,-3,0,3,677.296015,677.296015,679.79431,0,13,13,13,1,168,5,2,gloves      ,wolf          ,html/resources/sequences_IDs/B/06_gloves.jpg,html/resources/sequences_IDs/A/01_wolf.jpg,6,1,3,2,1,1,5,1,0,29,,,,,,,,,,,,,,,,,,,,
,,,,,29,2020-07-03_14h39.27.615,retriever_ti,2020.1.3,Win32,60,Chrome,1366,768,,,,,,,,,,,,,,,,,3,,,,,,,,,,,,,,,,,,,,,,,,,,,680.411405,169,left,0.657485,sport_tshirt,3,7,1,1,0,680.446335,680.446335,682.94313,0,14,14,14,1,169,3,2,sport_tshirt,wolf          ,html/resources/sequences_IDs/B/07_sport_tshirt.jpg,html/resources/sequences_IDs/A/01_wolf.jpg,7,1,3,2,1,1,6,1,1,29,,,,,,,,,,,,,,,,,,,,
,,,,,29,2020-07-03_14h39.27.615,retriever_ti,2020.1.3,Win32,60,Chrome,1366,768,,,,,,,,,,,,,,,,,3,,,,,,,,,,,,,,,,,,,,,,,,,,,684.04582,170,left,0.81945,wolf          ,2,1,1,1,1,684.063595,684.063595,686.56045,0,15,15,15,1,170,2,1,wolf          ,dolphin     ,html/resources/sequences_IDs/A/01_wolf.jpg,html/resources/sequences_IDs/B/02_dolphin.jpg,1,2,1,1,1,1,1,2,0,29,,,,,,,,,,,,,,,,,,,,
,,,,,29,2020-07-03_14h39.27.615,retriever_ti,2020.1.3,Win32,60,Chrome,1366,768,,,,,,,,,,,,,,,,,3,,,,,,,,,,,,,,,,,,,,,,,,,,,687.663235,171,left,1.240695,dolphin     ,1,2,-4,0,3,687.698255,687.698255,690.183945,0,16,16,16,1,171,1,5,dolphin     ,gloves      ,html/resources/sequences_IDs/B/02_dolphin.jpg,html/resources/sequences_IDs/B/06_gloves.jpg,2,6,1,1,3,2,2,5,0,29,,,,,,,,,,,,,,,,,,,,
,,,,,29,2020-07-03_14h39.27.615,retriever_ti,2020.1.3,Win32,60,Chrome,1366,768,,,,,,,,,,,,,,,,,3,,,,,,,,,,,,,,,,,,,,,,,,,,,690.79895,172,left,1.240515,sport_tshirt,3,7,-4,0,3,690.83313,690.83313,693.32894,0,17,17,17,1,172,3,7,sport_tshirt,parrot      ,html/resources/sequences_IDs/B/07_sport_tshirt.jpg,html/resources/sequences_IDs/B/05_parrot.jpg,7,5,3,2,2,1,6,4,0,29,,,,,,,,,,,,,,,,,,,,
,,,,,29,2020-07-03_14h39.27.615,retriever_ti,2020.1.3,Win32,60,Chrome,1366,768,,,,,,,,,,,,,,,,,3,,,,,,,,,,,,,,,,,,,,,,,,,,,693.931625,173,left,1.601625,camel         ,6,3,1,1,1,693.9656,693.9656,696.462995,0,18,18,18,1,173,6,5,camel         ,gloves      ,html/resources/sequences_IDs/A/03_camel.jpg,html/resources/sequences_IDs/B/06_gloves.jpg,3,6,1,1,3,2,3,5,0,29,,,,,,,,,,,,,,,,,,,,
,,,,,29,2020-07-03_14h39.27.615,retriever_ti,2020.1.3,Win32,60,Chrome,1366,768,,,,,,,,,,,,,,,,,3,,,,,,,,,,,,,,,,,,,,,,,,,,,697.5642,174,left,1.223105,sport_tshirt,3,7,-1,0,0,697.599095,697.599095,700.09643,0,19,19,19,1,174,3,4,sport_tshirt,hat           ,html/resources/sequences_IDs/B/07_sport_tshirt.jpg,html/resources/sequences_IDs/A/08_hat.jpg,7,8,3,2,3,2,6,7,0,29,,,,,,,,,,,,,,,,,,,,
,,,,,29,2020-07-03_14h39.27.615,retriever_ti,2020.1.3,Win32,60,Chrome,1366,768,,,,,,,,,,,,,,,,,3,,,,,,,,,,,,,,,,,,,,,,,,,,,701.198395,175,left,1.15244,dolphin     ,1,2,-1,0,0,701.234705,701.234705,703.730445,0,20,20,20,1,175,1,2,dolphin     ,wolf          ,html/resources/sequences_IDs/B/02_dolphin.jpg,html/resources/sequences_IDs/A/01_wolf.jpg,2,1,1,1,1,1,2,1,0,29,,,,,,,,,,,,,,,,,,,,
,,,,,29,2020-07-03_14h39.27.615,retriever_ti,2020.1.3,Win32,60,Chrome,1366,768,,,,,,,,,,,,,,,,,3,,,,,,,,,,,,,,,,,,,,,,,,,,,704.83288,176,left,0.67577,sport_tshirt,3,7,-2,0,3,704.867845,704.867845,707.364485,0,21,21,21,1,176,3,5,sport_tshirt,gloves      ,html/resources/sequences_IDs/B/07_sport_tshirt.jpg,html/resources/sequences_IDs/B/06_gloves.jpg,7,6,3,2,3,2,6,5,0,29,,,,,,,,,,,,,,,,,,,,
,,,,,29,2020-07-03_14h39.27.615,retriever_ti,2020.1.3,Win32,60,Chrome,1366,768,,,,,,,,,,,,,,,,,3,,,,,,,,,,,,,,,,,,,,,,,,,,,707.966095,177,left,0.719465,hat           ,4,8,2,1,3,708.00174,708.00174,710.49842,0,22,22,22,1,177,4,2,hat           ,wolf          ,html/resources/sequences_IDs/A/08_hat.jpg,html/resources/sequences_IDs/A/01_wolf.jpg,8,1,3,2,1,1,7,1,0,29,,,,,,,,,,,,,,,,,,,,
,,,,,29,2020-07-03_14h39.27.615,retriever_ti,2020.1.3,Win32,60,Chrome,1366,768,,,,,,,,,,,,,,,,,3,,,,,,,,,,,,,,,,,,,,,,,,,,,711.431975,178,left,0.868125,dolphin     ,1,2,-5,0,3,711.468055,711.468055,713.968705,0,23,23,23,1,178,1,6,dolphin     ,camel         ,html/resources/sequences_IDs/B/02_dolphin.jpg,html/resources/sequences_IDs/A/03_camel.jpg,2,3,1,1,1,1,2,3,0,29,,,,,,,,,,,,,,,,,,,,
,,,,,29,2020-07-03_14h39.27.615,retriever_ti,2020.1.3,Win32,60,Chrome,1366,768,,,,,,,,,,,,,,,,,3,,,,,,,,,,,,,,,,,,,,,,,,,,,714.585,179,left,1.023675,parrot      ,7,5,2,1,3,714.62197,714.62197,717.11705,0,24,24,24,1,179,7,5,parrot      ,gloves      ,html/resources/sequences_IDs/B/05_parrot.jpg,html/resources/sequences_IDs/B/06_gloves.jpg,5,6,2,1,3,2,4,5,0,29,,,,,,,,,,,,,,,,,,,,
,,,,,29,2020-07-03_14h39.27.615,retriever_ti,2020.1.3,Win32,60,Chrome,1366,768,,,,,,,,,,,,,,,,,3,,,,,,,,,,,,,,,,,,,,,,,,,,,717.73526,180,left,0.814565,camel         ,6,3,5,1,3,717.75394,717.75394,720.25048,0,25,25,25,1,180,6,1,camel         ,dolphin     ,html/resources/sequences_IDs/A/03_camel.jpg,html/resources/sequences_IDs/B/02_dolphin.jpg,3,2,1,1,1,1,3,2,0,29,,,,,,,,,,,,,,,,,,,,
,,,,,29,2020-07-03_14h39.27.615,retriever_ti,2020.1.3,Win32,60,Chrome,1366,768,,,,,,,,,,,,,,,,,3,,,,,,,,,,,,,,,,,,,,,,,,,,,720.86899,181,left,0.961185,gloves      ,5,6,-1,0,0,720.886485,720.886485,723.387055,0,26,26,26,1,181,5,6,gloves      ,camel         ,html/resources/sequences_IDs/B/06_gloves.jpg,html/resources/sequences_IDs/A/03_camel.jpg,6,3,3,2,1,1,5,3,0,29,,,,,,,,,,,,,,,,,,,,
,,,,,29,2020-07-03_14h39.27.615,retriever_ti,2020.1.3,Win32,60,Chrome,1366,768,,,,,,,,,,,,,,,,,3,,,,,,,,,,,,,,,,,,,,,,,,,,,724.48669,182,left,1.067295,camel         ,6,3,-1,0,0,724.521805,724.521805,727.019205,0,27,27,27,1,182,6,7,camel         ,parrot      ,html/resources/sequences_IDs/A/03_camel.jpg,html/resources/sequences_IDs/B/05_parrot.jpg,3,5,1,1,2,1,3,4,0,29,,,,,,,,,,,,,,,,,,,,
,,,,,29,2020-07-03_14h39.27.615,retriever_ti,2020.1.3,Win32,60,Chrome,1366,768,,,,,,,,,,,,,,,,,3,,,,,,,,,,,,,,,,,,,,,,,,,,,728.13738,183,left,0.63908,parrot      ,7,5,1,1,1,728.171325,728.171325,730.669145,0,28,28,28,1,183,7,6,parrot      ,camel         ,html/resources/sequences_IDs/B/05_parrot.jpg,html/resources/sequences_IDs/A/03_camel.jpg,5,3,2,1,1,1,4,3,0,29,,,,,,,,,,,,,,,,,,,,
,,,,,29,2020-07-03_14h39.27.615,retriever_ti,2020.1.3,Win32,60,Chrome,1366,768,,,,,,,,,,,,,,,,,3,,,,,,,,,,,,,,,,,,,,,,,,,,,731.77097,184,right,0.912065,sport_tshirt,3,7,2,1,3,731.78861,731.78861,734.286665,0,29,29,29,1,184,1,3,dolphin     ,sport_tshirt,html/resources/sequences_IDs/B/02_dolphin.jpg,html/resources/sequences_IDs/B/07_sport_tshirt.jpg,2,7,1,1,3,2,2,6,0,29,,,,,,,,,,,,,,,,,,,,
,,,,,29,2020-07-03_14h39.27.615,retriever_ti,2020.1.3,Win32,60,Chrome,1366,768,,,,,,,,,,,,,,,,,3,,,,,,,,,,,,,,,,,,,,,,,,,,,734.90525,185,right,1.057615,hat           ,4,8,-1,0,0,734.92729,734.92729,737.42066,0,30,30,30,1,185,5,4,gloves      ,hat           ,html/resources/sequences_IDs/B/06_gloves.jpg,html/resources/sequences_IDs/A/08_hat.jpg,6,8,3,2,3,2,5,7,0,29,,,,,,,,,,,,,,,,,,,,
,,,,,29,2020-07-03_14h39.27.615,retriever_ti,2020.1.3,Win32,60,Chrome,1366,768,,,,,,,,,,,,,,,,,3,,,,,,,,,,,,,,,,,,,,,,,,,,,738.521925,186,right,1.03584,gloves      ,5,6,-3,0,3,738.55727,738.55727,741.091495,0,31,31,31,1,186,8,5,satellite_dish,gloves      ,html/resources/sequences_IDs/A/10_satellite_dish.jpg,html/resources/sequences_IDs/B/06_gloves.jpg,10,6,4,2,3,2,8,5,0,29,,,,,,,,,,,,,,,,,,,,
,,,,,29,2020-07-03_14h39.27.615,retriever_ti,2020.1.3,Win32,60,Chrome,1366,768,,,,,,,,,,,,,,,,,3,,,,,,,,,,,,,,,,,,,,,,,,,,,741.70856,187,left,1.25718,dolphin     ,1,2,-1,0,1,741.725165,741.725165,744.223275,0,32,32,32,1,187,1,2,dolphin     ,wolf          ,html/resources/sequences_IDs/B/02_dolphin.jpg,html/resources/sequences_IDs/A/01_wolf.jpg,2,1,1,1,1,1,2,1,1,29,,,,,,,,,,,,,,,,,,,,
,,,,,29,2020-07-03_14h39.27.615,retriever_ti,2020.1.3,Win32,60,Chrome,1366,768,,,,,,,,,,,,,,,,,3,,,,,,,,,,,,,,,,,,,,,,,,,,,745.323705,188,right,1.067245,dolphin     ,1,2,-1,0,0,745.35895,745.35895,747.85631,0,33,33,33,1,188,2,1,wolf          ,dolphin     ,html/resources/sequences_IDs/A/01_wolf.jpg,html/resources/sequences_IDs/B/02_dolphin.jpg,1,2,1,1,1,1,1,2,0,29,,,,,,,,,,,,,,,,,,,,
,,,,,29,2020-07-03_14h39.27.615,retriever_ti,2020.1.3,Win32,60,Chrome,1366,768,,,,,,,,,,,,,,,,,3,,,,,,,,,,,,,,,,,,,,,,,,,,,748.957995,189,right,1.303915,dolphin     ,1,2,-6,0,3,748.995065,748.995065,751.490495,0,34,34,34,1,189,7,1,parrot      ,dolphin     ,html/resources/sequences_IDs/B/05_parrot.jpg,html/resources/sequences_IDs/B/02_dolphin.jpg,5,2,2,1,1,1,4,2,0,29,,,,,,,,,,,,,,,,,,,,
,,,,,29,2020-07-03_14h39.27.615,retriever_ti,2020.1.3,Win32,60,Chrome,1366,768,,,,,,,,,,,,,,,,,3,,,,,,,,,,,,,,,,,,,,,,,,,,,752.10936,190,left,0.721905,wolf          ,2,1,-3,0,3,752.144365,752.144365,754.640305,0,35,35,35,1,190,2,5,wolf          ,gloves      ,html/resources/sequences_IDs/A/01_wolf.jpg,html/resources/sequences_IDs/B/06_gloves.jpg,1,6,1,1,3,2,1,5,0,29,,,,,,,,,,,,,,,,,,,,
,,,,,29,2020-07-03_14h39.27.615,retriever_ti,2020.1.3,Win32,60,Chrome,1366,768,,,,,,,,,,,,,,,,,3,,,,,,,,,,,,,,,,,,,,,,,,,,,755.29312,191,left,0.68777,hat           ,4,8,-1,0,1,755.328715,755.328715,757.86361,0,36,36,36,1,191,4,5,hat           ,gloves      ,html/resources/sequences_IDs/A/08_hat.jpg,html/resources/sequences_IDs/B/06_gloves.jpg,8,6,3,2,3,2,7,5,1,29,,,,,,,,,,,,,,,,,,,,
,,,,,29,2020-07-03_14h39.27.615,retriever_ti,2020.1.3,Win32,60,Chrome,1366,768,,,,,,,,,,,,,,,,,3,,,,,,,,,,,,,,,,,,,,,,,,,,,758.96094,192,left,0.67945,gloves      ,5,6,-2,0,3,758.99679,758.99679,761.48094,0,37,37,37,1,192,5,7,gloves      ,parrot      ,html/resources/sequences_IDs/B/06_gloves.jpg,html/resources/sequences_IDs/B/05_parrot.jpg,6,5,3,2,2,1,5,4,0,29,,,,,,,,,,,,,,,,,,,,
,,,,,29,2020-07-03_14h39.27.615,retriever_ti,2020.1.3,Win32,60,Chrome,1366,768,,,,,,,,,,,,,,,,,3,,,,,,,,,,,,,,,,,,,,,,,,,,,762.10076,193,left,0.6985,sport_tshirt,3,7,1,1,1,762.141725,762.141725,764.62828,0,38,38,38,1,193,3,2,sport_tshirt,wolf          ,html/resources/sequences_IDs/B/07_sport_tshirt.jpg,html/resources/sequences_IDs/A/01_wolf.jpg,7,1,3,2,1,1,6,1,0,29,,,,,,,,,,,,,,,,,,,,
,,,,,29,2020-07-03_14h39.27.615,retriever_ti,2020.1.3,Win32,60,Chrome,1366,768,,,,,,,,,,,,,,,,,3,,,,,,,,,,,,,,,,,,,,,,,,,,,765.726695,194,left,0.623455,hat           ,4,8,-4,0,3,765.745335,765.745335,768.243715,0,39,39,39,1,194,4,8,hat           ,satellite_dish,html/resources/sequences_IDs/A/08_hat.jpg,html/resources/sequences_IDs/A/10_satellite_dish.jpg,8,10,3,2,4,2,7,8,0,29,,,,,,,,,,,,,,,,,,,,
,,,,,29,2020-07-03_14h39.27.615,retriever_ti,2020.1.3,Win32,60,Chrome,1366,768,,,,,,,,,,,,,,,,,3,,,,,,,,,,,,,,,,,,,,,,,,,,,768.86344,195,left,0.6264,wolf          ,2,1,-4,0,3,768.901505,768.901505,771.3938,0,40,40,40,1,195,2,6,wolf          ,camel         ,html/resources/sequences_IDs/A/01_wolf.jpg,html/resources/sequences_IDs/A/03_camel.jpg,1,3,1,1,1,1,1,3,0,29,,,,,,,,,,,,,,,,,,,,
,,,,,29,2020-07-03_14h39.27.615,retriever_ti,2020.1.3,Win32,60,Chrome,1366,768,,,,,,,,,,,,,,,,,3,,,,,,,,,,,,,,,,,,,,,,,,,,,772.01228,196,left,0.35355,camel         ,6,3,4,1,3,772.04668,772.04668,774.544685,0,41,41,41,1,196,6,2,camel         ,wolf          ,html/resources/sequences_IDs/A/03_camel.jpg,html/resources/sequences_IDs/A/01_wolf.jpg,3,1,1,1,1,1,3,1,0,29,,,,,,,,,,,,,,,,,,,,
,,,,,29,2020-07-03_14h39.27.615,retriever_ti,2020.1.3,Win32,60,Chrome,1366,768,,,,,,,,,,,,,,,,,3,,,,,,,,,,,,,,,,,,,,,,,,,,,775.16586,197,left,0.565865,wolf          ,2,1,-6,0,3,775.199035,775.199035,777.69464,0,42,42,42,1,197,2,8,wolf          ,satellite_dish,html/resources/sequences_IDs/A/01_wolf.jpg,html/resources/sequences_IDs/A/10_satellite_dish.jpg,1,10,1,1,4,2,1,8,0,29,,,,,,,,,,,,,,,,,,,,
,,,,,29,2020-07-03_14h39.27.615,retriever_ti,2020.1.3,Win32,60,Chrome,1366,768,,,,,,,,,,,,,,,,,3,,,,,,,,,,,,,,,,,,,,,,,,,,,778.29653,198,left,0.612955,gloves      ,5,6,1,1,1,778.3317,778.3317,780.82861,0,43,43,43,1,198,5,4,gloves      ,hat           ,html/resources/sequences_IDs/B/06_gloves.jpg,html/resources/sequences_IDs/A/08_hat.jpg,6,8,3,2,3,2,5,7,0,29,,,,,,,,,,,,,,,,,,,,
,,,,,29,2020-07-03_14h39.27.615,retriever_ti,2020.1.3,Win32,60,Chrome,1366,768,,,,,,,,,,,,,,,,,3,,,,,,,,,,,,,,,,,,,,,,,,,,,781.92988,199,left,0.806185,wolf          ,2,1,-5,0,3,781.94934,781.94934,784.446935,0,44,44,44,1,199,2,7,wolf          ,parrot      ,html/resources/sequences_IDs/A/01_wolf.jpg,html/resources/sequences_IDs/B/05_parrot.jpg,1,5,1,1,2,1,1,4,0,29,,,,,,,,,,,,,,,,,,,,
,,,,,29,2020-07-03_14h39.27.615,retriever_ti,2020.1.3,Win32,60,Chrome,1366,768,,,,,,,,,,,,,,,,,3,,,,,,,,,,,,,,,,,,,,,,,,,,,785.06518,200,left,0.56241,parrot      ,7,5,4,1,3,785.10336,785.10336,787.59967,0,45,45,45,1,200,7,3,parrot      ,sport_tshirt,html/resources/sequences_IDs/B/05_parrot.jpg,html/resources/sequences_IDs/B/07_sport_tshirt.jpg,5,7,2,1,3,2,4,6,0,29,,,,,,,,,,,,,,,,,,,,
,,,,,29,2020-07-03_14h39.27.615,retriever_ti,2020.1.3,Win32,60,Chrome,1366,768,,,,,,,,,,,,,,,,,3,,,,,,,,,,,,,,,,,,,,,,,,,,,788.214355,201,left,0.48746,satellite_dish,8,10,1,1,0,788.233025,788.233025,790.730685,0,46,46,46,1,201,8,7,satellite_dish,parrot      ,html/resources/sequences_IDs/A/10_satellite_dish.jpg,html/resources/sequences_IDs/B/05_parrot.jpg,10,5,4,2,2,1,8,4,1,29,,,,,,,,,,,,,,,,,,,,
,,,,,29,2020-07-03_14h39.27.615,retriever_ti,2020.1.3,Win32,60,Chrome,1366,768,,,,,,,,,,,,,,,,,3,,,,,,,,,,,,,,,,,,,,,,,,,,,791.83214,202,right,1.209335,camel         ,6,3,1,1,1,791.866645,791.866645,794.36507,0,47,47,47,1,202,5,6,gloves      ,camel         ,html/resources/sequences_IDs/B/06_gloves.jpg,html/resources/sequences_IDs/A/03_camel.jpg,6,3,3,2,1,1,5,3,0,29,,,,,,,,,,,,,,,,,,,,
,,,,,29,2020-07-03_14h39.27.615,retriever_ti,2020.1.3,Win32,60,Chrome,1366,768,,,,,,,,,,,,,,,,,3,,,,,,,,,,,,,,,,,,,,,,,,,,,795.46733,203,left,1.02604,parrot      ,7,5,1,1,1,795.48552,795.48552,797.982335,0,48,48,48,1,203,7,6,parrot      ,camel         ,html/resources/sequences_IDs/B/05_parrot.jpg,html/resources/sequences_IDs/A/03_camel.jpg,5,3,2,1,1,1,4,3,0,29,,,,,,,,,,,,,,,,,,,,
,,,,,29,2020-07-03_14h39.27.615,retriever_ti,2020.1.3,Win32,60,Chrome,1366,768,,,,,,,,,,,,,,,,,3,,,,,,,,,,,,,,,,,,,,,,,,,,,799.08584,204,right,0.833425,gloves      ,5,6,-1,0,0,799.118995,799.118995,801.616595,0,49,49,49,1,204,6,5,camel         ,gloves      ,html/resources/sequences_IDs/A/03_camel.jpg,html/resources/sequences_IDs/B/06_gloves.jpg,3,6,1,1,3,2,3,5,0,29,,,,,,,,,,,,,,,,,,,,
,,,,,29,2020-07-03_14h39.27.615,retriever_ti,2020.1.3,Win32,60,Chrome,1366,768,,,,,,,,,,,,,,,,,3,,,,,,,,,,,,,,,,,,,,,,,,,,,802.71983,205,left,1.03777,parrot      ,7,5,-1,0,0,802.738515,802.738515,805.233435,0,50,50,50,1,205,7,8,parrot      ,satellite_dish,html/resources/sequences_IDs/B/05_parrot.jpg,html/resources/sequences_IDs/A/10_satellite_dish.jpg,5,10,2,1,4,2,4,8,0,29,,,,,,,,,,,,,,,,,,,,
,,,,,29,2020-07-03_14h39.27.615,retriever_ti,2020.1.3,Win32,60,Chrome,1366,768,,,,,,,,,,,,,,,,,3,,,,,,,,,,,,,,,,,,,,,,,,,,,806.33517,206,right,0.96859,hat           ,4,8,3,1,3,806.375405,806.375405,808.867575,0,51,51,51,1,206,1,4,dolphin     ,hat           ,html/resources/sequences_IDs/B/02_dolphin.jpg,html/resources/sequences_IDs/A/08_hat.jpg,2,8,1,1,3,2,2,7,0,29,,,,,,,,,,,,,,,,,,,,
,,,,,29,2020-07-03_14h39.27.615,retriever_ti,2020.1.3,Win32,60,Chrome,1366,768,,,,,,,,,,,,,,,,,3,,,,,,,,,,,,,,,,,,,,,,,,,,,809.485945,207,NaN,NaN,No_response,NaN,NaN,NaN,2,2,809.52019,809.52019,812.019765,0,52,52,52,1,207,7,8,parrot      ,satellite_dish,html/resources/sequences_IDs/B/05_parrot.jpg,html/resources/sequences_IDs/A/10_satellite_dish.jpg,5,10,2,1,4,2,4,8,0,29,,,,,,,,,,,,,,,,,,,,
,,,,,29,2020-07-03_14h39.27.615,retriever_ti,2020.1.3,Win32,60,Chrome,1366,768,,,,,,,,,,,,,,,,,3,,,,,,,,,,,,,,,,,,,,,,,,,,,813.121375,208,left,0.372935,dolphin     ,1,2,-6,0,3,813.14198,813.14198,815.63525,0,53,53,53,1,208,1,7,dolphin     ,parrot      ,html/resources/sequences_IDs/B/02_dolphin.jpg,html/resources/sequences_IDs/B/05_parrot.jpg,2,5,1,1,2,1,2,4,0,29,,,,,,,,,,,,,,,,,,,,
,,,,,29,2020-07-03_14h39.27.615,retriever_ti,2020.1.3,Win32,60,Chrome,1366,768,,,,,,,,,,,,,,,,,3,,,,,,,,,,,,,,,,,,,,,,,,,,,816.23722,209,left,0.260105,satellite_dish,8,10,6,1,3,816.343715,816.343715,818.836975,0,54,54,54,1,209,8,2,satellite_dish,wolf          ,html/resources/sequences_IDs/A/10_satellite_dish.jpg,html/resources/sequences_IDs/A/01_wolf.jpg,10,1,4,2,1,1,8,1,0,29,,,,,,,,,,,,,,,,,,,,
,,,,,29,2020-07-03_14h39.27.615,retriever_ti,2020.1.3,Win32,60,Chrome,1366,768,,,,,,,,,,,,,,,,,3,,,,,,,,,,,,,,,,,,,,,,,,,,,819.898815,210,right,0.50785,sport_tshirt,3,7,-3,0,3,819.91158,819.91158,822.40447,0,55,55,55,1,210,6,3,camel         ,sport_tshirt,html/resources/sequences_IDs/A/03_camel.jpg,html/resources/sequences_IDs/B/07_sport_tshirt.jpg,3,7,1,1,3,2,3,6,0,29,,,,,,,,,,,,,,,,,,,,
,,,,,29,2020-07-03_14h39.27.615,retriever_ti,2020.1.3,Win32,60,Chrome,1366,768,,,,,,,,,,,,,,,,,3,,,,,,,,,,,,,,,,,,,,,,,,,,,823.020825,211,left,0.456105,wolf          ,2,1,-2,0,3,823.0563,823.0563,825.553965,0,56,56,56,1,211,2,4,wolf          ,hat           ,html/resources/sequences_IDs/A/01_wolf.jpg,html/resources/sequences_IDs/A/08_hat.jpg,1,8,1,1,3,2,1,7,0,29,,,,,,,,,,,,,,,,,,,,
,,,,,29,2020-07-03_14h39.27.615,retriever_ti,2020.1.3,Win32,60,Chrome,1366,768,,,,,,,,,,,,,,,,,3,,,,,,,,,,,,,,,,,,,,,,,,,,,826.172255,212,left,0.78423,parrot      ,7,5,3,1,3,826.190005,826.190005,828.687725,0,57,57,57,1,212,7,4,parrot      ,hat           ,html/resources/sequences_IDs/B/05_parrot.jpg,html/resources/sequences_IDs/A/08_hat.jpg,5,8,2,1,3,2,4,7,0,29,,,,,,,,,,,,,,,,,,,,
,,,,,29,2020-07-03_14h39.27.615,retriever_ti,2020.1.3,Win32,60,Chrome,1366,768,,,,,,,,,,,,,,,,,3,,,,,,,,,,,,,,,,,,,,,,,,,,,829.30532,213,left,0.845935,hat           ,4,8,-1,0,0,829.324125,829.324125,831.821675,0,58,58,58,1,213,4,5,hat           ,gloves      ,html/resources/sequences_IDs/A/08_hat.jpg,html/resources/sequences_IDs/B/06_gloves.jpg,8,6,3,2,3,2,7,5,0,29,,,,,,,,,,,,,,,,,,,,
,,,,,29,2020-07-03_14h39.27.615,retriever_ti,2020.1.3,Win32,60,Chrome,1366,768,,,,,,,,,,,,,,,,,3,,,,,,,,,,,,,,,,,,,,,,,,,,,832.924,214,left,0.521655,satellite_dish,8,10,2,1,3,832.94297,832.94297,835.439095,0,59,59,59,1,214,8,6,satellite_dish,camel         ,html/resources/sequences_IDs/A/10_satellite_dish.jpg,html/resources/sequences_IDs/A/03_camel.jpg,10,3,4,2,1,1,8,3,0,29,,,,,,,,,,,,,,,,,,,,
,,,,,29,2020-07-03_14h39.27.615,retriever_ti,2020.1.3,Win32,60,Chrome,1366,768,,,,,,,,,,,,,,,,,3,,,,,,,,,,,,,,,,,,,,,,,,,,,836.057375,215,left,0.68864,camel         ,6,3,2,1,3,836.09206,836.09206,838.589635,0,60,60,60,1,215,6,4,camel         ,hat           ,html/resources/sequences_IDs/A/03_camel.jpg,html/resources/sequences_IDs/A/08_hat.jpg,3,8,1,1,3,2,3,7,0,29,,,,,,,,,,,,,,,,,,,,
,,,,,29,2020-07-03_14h39.27.615,retriever_ti,2020.1.3,Win32,60,Chrome,1366,768,,,,,,,,,,,,,,,,,3,,,,,,,,,,,,,,,,,,,,,,,,,,,839.207255,216,right,0.574305,dolphin     ,1,2,-4,0,3,839.267195,839.267195,841.747165,0,61,61,61,1,216,5,1,gloves      ,dolphin     ,html/resources/sequences_IDs/B/06_gloves.jpg,html/resources/sequences_IDs/B/02_dolphin.jpg,6,2,3,2,1,1,5,2,0,29,,,,,,,,,,,,,,,,,,,,
,,,,,29,2020-07-03_14h39.27.615,retriever_ti,2020.1.3,Win32,60,Chrome,1366,768,,,,,,,,,,,,,,,,,3,,,,,,,,,,,,,,,,,,,,,,,,,,,842.35947,217,left,0.47149,sport_tshirt,3,7,-1,0,0,842.377375,842.377375,844.874315,0,62,62,62,1,217,3,4,sport_tshirt,hat           ,html/resources/sequences_IDs/B/07_sport_tshirt.jpg,html/resources/sequences_IDs/A/08_hat.jpg,7,8,3,2,3,2,6,7,0,29,,,,,,,,,,,,,,,,,,,,
,,,,,29,2020-07-03_14h39.27.615,retriever_ti,2020.1.3,Win32,60,Chrome,1366,768,,,,,,,,,,,,,,,,,3,,,,,,,,,,,,,,,,,,,,,,,,,,,845.97904,218,left,0.646285,satellite_dish,8,10,4,1,3,845.996165,845.996165,848.49186,0,63,63,63,1,218,8,4,satellite_dish,hat           ,html/resources/sequences_IDs/A/10_satellite_dish.jpg,html/resources/sequences_IDs/A/08_hat.jpg,10,8,4,2,3,2,8,7,0,29,,,,,,,,,,,,,,,,,,,,
,,,,,29,2020-07-03_14h39.27.615,retriever_ti,2020.1.3,Win32,60,Chrome,1366,768,,,,,,,,,,,,,,,,,3,,,,,,,,,,,,,,,,,,,,,,,,,,,849.1098,219,left,0.73651,satellite_dish,8,10,1,1,1,849.145465,849.145465,851.64243,0,64,64,64,1,219,8,7,satellite_dish,parrot      ,html/resources/sequences_IDs/A/10_satellite_dish.jpg,html/resources/sequences_IDs/B/05_parrot.jpg,10,5,4,2,2,1,8,4,0,29,,,,,,,,,,,,,,,,,,,,
,,,,,29,2020-07-03_14h39.27.615,retriever_ti,2020.1.3,Win32,60,Chrome,1366,768,,,,,,,,,,,,,,,,,3,,,,,,,,,,,,,,,,,,,,,,,,,,,852.74479,220,left,0.527895,hat           ,4,8,1,1,1,852.76312,852.76312,855.25999,0,65,65,65,1,220,4,3,hat           ,sport_tshirt,html/resources/sequences_IDs/A/08_hat.jpg,html/resources/sequences_IDs/B/07_sport_tshirt.jpg,8,7,3,2,3,2,7,6,0,29,,,,,,,,,,,,,,,,,,,,
,,,,,29,2020-07-03_14h39.27.615,retriever_ti,2020.1.3,Win32,60,Chrome,1366,768,,,,,,,,,,,,,,,,,3,,,,,,,,,,,,,,,,,,,,,,,,,,,856.36392,221,left,0.562765,hat           ,4,8,3,1,3,856.39762,856.39762,858.893535,0,66,66,66,1,221,4,1,hat           ,dolphin     ,html/resources/sequences_IDs/A/08_hat.jpg,html/resources/sequences_IDs/B/02_dolphin.jpg,8,2,3,2,1,1,7,2,0,29,,,,,,,,,,,,,,,,,,,,
,,,,,29,2020-07-03_14h39.27.615,retriever_ti,2020.1.3,Win32,60,Chrome,1366,768,,,,,,,,,,,,,,,,,3,,,,,,,,,,,,,,,,,,,,,,,,,,,859.511235,222,left,1.04911,parrot      ,7,5,1,1,0,859.548585,859.548585,862.044685,0,67,67,67,1,222,7,6,parrot      ,camel         ,html/resources/sequences_IDs/B/05_parrot.jpg,html/resources/sequences_IDs/A/03_camel.jpg,5,3,2,1,1,1,4,3,1,29,,,,,,,,,,,,,,,,,,,,
,,,,,29,2020-07-03_14h39.27.615,retriever_ti,2020.1.3,Win32,60,Chrome,1366,768,,,,,,,,,,,,,,,,,3,,,,,,,,,,,,,,,,,,,,,,,,,,,863.14817,223,left,0.537945,dolphin     ,1,2,-1,0,0,863.21381,863.21381,865.711515,0,68,68,68,1,223,1,2,dolphin     ,wolf          ,html/resources/sequences_IDs/B/02_dolphin.jpg,html/resources/sequences_IDs/A/01_wolf.jpg,2,1,1,1,1,1,2,1,0,29,,,,,,,,,,,,,,,,,,,,
