instructionsLoop.thisRepN,instructionsLoop.thisTrialN,instructionsLoop.thisN,instructionsLoop.thisIndex,instructionsLoop.ran,participant,date,expName,psychopyVersion,OS,frameRate,browser,xResolution,yResolution,fix_onset,tprac,practiceKey.keys,practiceKey.rt,pracitem_chosen_name,acc_practice,P1_onsetPrac,P2_onsetPrac,onsetFeedbPrac,practiceTrials.thisRepN,practiceTrials.thisTrialN,practiceTrials.thisN,practiceTrials.thisIndex,practiceTrials.ran,P1,P2,Block,LocItem1,LocItem2,NameItem1,NameItem2,key_respAC_prac.keys,key_respAC_prac.corr,key_respAC_prac.rt,AC_acc,Attentions.thisRepN,Attentions.thisTrialN,Attentions.thisN,Attentions.thisIndex,Attentions.ran,Stim,Loc1,Loc2,Loc3,Loc4,CorrAns,keyDisturbed.keys,keyDisturbed.rt,repPractice.thisRepN,repPractice.thisTrialN,repPractice.thisN,repPractice.thisIndex,repPractice.ran,fixcross_onsetMain,trialNumber,key_resp.keys,key_resp.rt,item_chosen_name,item_chosen_value,item_chosen_ID,diff_chosen_minus_reject,acc_real,acc_feedback,P1_onset,P2_onset,feedb_onset,trials.thisRepN,trials.thisTrialN,trials.thisN,trials.thisIndex,trials.ran,Trial,ValueP1,ValueP2,P1name,P2name,P1Loc,P2Loc,P1id,P2id,Micro_categoryP1,Macro_categoryP1,Micro_categoryP2,Macro_categoryP2,ID_sequenceP1,ID_sequenceP2,InverseFb,pNumber,repBlocks.thisRepN,repBlocks.thisTrialN,repBlocks.thisN,repBlocks.thisIndex,repBlocks.ran,key_respAC.keys,key_respAC.corr,key_respAC.rt,trials_AC.thisRepN,trials_AC.thisTrialN,trials_AC.thisN,trials_AC.thisIndex,trials_AC.ran,Bonus,BonusLoop.thisRepN,BonusLoop.thisTrialN,BonusLoop.thisN,BonusLoop.thisIndex,BonusLoop.ran,comments
0,0,0,0,1,2,2020-07-01_09h30.45.473,retriever_ti,2020.1.3,Win32,60,Firefox,1536,864,,,,,,,,,,,,,,,,,,,,,,,,,,,,,,,,,,,,,,,,,,,,,,,,,,,,,,,,,,,,,,,,,,,,,,,,,,,,,,,,,,,,,,,,,,,,,,,,,,
1,0,1,0,1,2,2020-07-01_09h30.45.473,retriever_ti,2020.1.3,Win32,60,Firefox,1536,864,,,,,,,,,,,,,,,,,,,,,,,,,,,,,,,,,,,,,,,,,,,,,,,,,,,,,,,,,,,,,,,,,,,,,,,,,,,,,,,,,,,,,,,,,,,,,,,,,,
2,0,2,0,1,2,2020-07-01_09h30.45.473,retriever_ti,2020.1.3,Win32,60,Firefox,1536,864,,,,,,,,,,,,,,,,,,,,,,,,,,,,,,,,,,,,,,,,,,,,,,,,,,,,,,,,,,,,,,,,,,,,,,,,,,,,,,,,,,,,,,,,,,,,,,,,,,
3,0,3,0,1,2,2020-07-01_09h30.45.473,retriever_ti,2020.1.3,Win32,60,Firefox,1536,864,,,,,,,,,,,,,,,,,,,,,,,,,,,,,,,,,,,,,,,,,,,,,,,,,,,,,,,,,,,,,,,,,,,,,,,,,,,,,,,,,,,,,,,,,,,,,,,,,,
4,0,4,0,1,2,2020-07-01_09h30.45.473,retriever_ti,2020.1.3,Win32,60,Firefox,1536,864,,,,,,,,,,,,,,,,,,,,,,,,,,,,,,,,,,,,,,,,,,,,,,,,,,,,,,,,,,,,,,,,,,,,,,,,,,,,,,,,,,,,,,,,,,,,,,,,,,
5,0,5,0,1,2,2020-07-01_09h30.45.473,retriever_ti,2020.1.3,Win32,60,Firefox,1536,864,,,,,,,,,,,,,,,,,,,,,,,,,,,,,,,,,,,,,,,,,,,,,,,,,,,,,,,,,,,,,,,,,,,,,,,,,,,,,,,,,,,,,,,,,,,,,,,,,,
6,0,6,0,1,2,2020-07-01_09h30.45.473,retriever_ti,2020.1.3,Win32,60,Firefox,1536,864,,,,,,,,,,,,,,,,,,,,,,,,,,,,,,,,,,,,,,,,,,,,,,,,,,,,,,,,,,,,,,,,,,,,,,,,,,,,,,,,,,,,,,,,,,,,,,,,,,
7,0,7,0,1,2,2020-07-01_09h30.45.473,retriever_ti,2020.1.3,Win32,60,Firefox,1536,864,,,,,,,,,,,,,,,,,,,,,,,,,,,,,,,,,,,,,,,,,,,,,,,,,,,,,,,,,,,,,,,,,,,,,,,,,,,,,,,,,,,,,,,,,,,,,,,,,,
8,0,8,0,1,2,2020-07-01_09h30.45.473,retriever_ti,2020.1.3,Win32,60,Firefox,1536,864,,,,,,,,,,,,,,,,,,,,,,,,,,,,,,,,,,,,,,,,,,,,,,,,,,,,,,,,,,,,,,,,,,,,,,,,,,,,,,,,,,,,,,,,,,,,,,,,,,
9,0,9,0,1,2,2020-07-01_09h30.45.473,retriever_ti,2020.1.3,Win32,60,Firefox,1536,864,,,,,,,,,,,,,,,,,,,,,,,,,,,,,,,,,,,,,,,,,,,,,,,,,,,,,,,,,,,,,,,,,,,,,,,,,,,,,,,,,,,,,,,,,,,,,,,,,,
10,0,10,0,1,2,2020-07-01_09h30.45.473,retriever_ti,2020.1.3,Win32,60,Firefox,1536,864,,,,,,,,,,,,,,,,,,,,,,,,,,,,,,,,,,,,,,,,,,,,,,,,,,,,,,,,,,,,,,,,,,,,,,,,,,,,,,,,,,,,,,,,,,,,,,,,,,
11,0,11,0,1,2,2020-07-01_09h30.45.473,retriever_ti,2020.1.3,Win32,60,Firefox,1536,864,,,,,,,,,,,,,,,,,,,,,,,,,,,,,,,,,,,,,,,,,,,,,,,,,,,,,,,,,,,,,,,,,,,,,,,,,,,,,,,,,,,,,,,,,,,,,,,,,,
12,0,12,0,1,2,2020-07-01_09h30.45.473,retriever_ti,2020.1.3,Win32,60,Firefox,1536,864,,,,,,,,,,,,,,,,,,,,,,,,,,,,,,,,,,,,,,,,,,,,,,,,,,,,,,,,,,,,,,,,,,,,,,,,,,,,,,,,,,,,,,,,,,,,,,,,,,
13,0,13,0,1,2,2020-07-01_09h30.45.473,retriever_ti,2020.1.3,Win32,60,Firefox,1536,864,,,,,,,,,,,,,,,,,,,,,,,,,,,,,,,,,,,,,,,,,,,,,,,,,,,,,,,,,,,,,,,,,,,,,,,,,,,,,,,,,,,,,,,,,,,,,,,,,,
14,0,14,0,1,2,2020-07-01_09h30.45.473,retriever_ti,2020.1.3,Win32,60,Firefox,1536,864,,,,,,,,,,,,,,,,,,,,,,,,,,,,,,,,,,,,,,,,,,,,,,,,,,,,,,,,,,,,,,,,,,,,,,,,,,,,,,,,,,,,,,,,,,,,,,,,,,
15,0,15,0,1,2,2020-07-01_09h30.45.473,retriever_ti,2020.1.3,Win32,60,Firefox,1536,864,,,,,,,,,,,,,,,,,,,,,,,,,,,,,,,,,,,,,,,,,,,,,,,,,,,,,,,,,,,,,,,,,,,,,,,,,,,,,,,,,,,,,,,,,,,,,,,,,,
16,0,16,0,1,2,2020-07-01_09h30.45.473,retriever_ti,2020.1.3,Win32,60,Firefox,1536,864,,,,,,,,,,,,,,,,,,,,,,,,,,,,,,,,,,,,,,,,,,,,,,,,,,,,,,,,,,,,,,,,,,,,,,,,,,,,,,,,,,,,,,,,,,,,,,,,,,
,,,,,2,2020-07-01_09h30.45.473,retriever_ti,2020.1.3,Win32,60,Firefox,1536,864,215.374,1,NaN,NaN,No_response,2,215.413,215.413,217.908,0,0,0,0,1,2,5,1,html/resources/stimuli_practice_decision/04_beetle.jpg,html/resources/stimuli_practice_decision/02_canary.jpg,beetle,canary,,,,,,,,,,,,,,,,,,,,,,,,,,,,,,,,,,,,,,,,,,,,,,,,,,,,,,,,,,,,,,,,,,,,,,,,,,,,,
,,,,,2,2020-07-01_09h30.45.473,retriever_ti,2020.1.3,Win32,60,Firefox,1536,864,218.435,2,left,1.098,rabbit,1,218.462,218.462,220.958,0,1,1,1,1,4,3,1,html/resources/stimuli_practice_decision/01_rabbit.jpg,html/resources/stimuli_practice_decision/07_sock.jpg,rabbit,sock,,,,,,,,,,,,,,,,,,,,,,,,,,,,,,,,,,,,,,,,,,,,,,,,,,,,,,,,,,,,,,,,,,,,,,,,,,,,,
,,,,,2,2020-07-01_09h30.45.473,retriever_ti,2020.1.3,Win32,60,Firefox,1536,864,221.955,3,left,1.521,pullover,1,221.979,221.979,224.472,0,2,2,2,1,6,2,1,html/resources/stimuli_practice_decision/06_pullover.jpg,html/resources/stimuli_practice_decision/04_beetle.jpg,pullover,beetle,,,,,,,,,,,,,,,,,,,,,,,,,,,,,,,,,,,,,,,,,,,,,,,,,,,,,,,,,,,,,,,,,,,,,,,,,,,,,
,,,,,2,2020-07-01_09h30.45.473,retriever_ti,2020.1.3,Win32,60,Firefox,1536,864,224.989,4,right,1.213,handmixer,0,225.009,225.009,227.505,0,3,3,3,1,7,1,1,html/resources/stimuli_practice_decision/05_glasses.jpg,html/resources/stimuli_practice_decision/08_handmixer.jpg,glasses,handmixer,,,,,,,,,,,,,,,,,,,,,,,,,,,,,,,,,,,,,,,,,,,,,,,,,,,,,,,,,,,,,,,,,,,,,,,,,,,,,
,,,,,2,2020-07-01_09h30.45.473,retriever_ti,2020.1.3,Win32,60,Firefox,1536,864,228.021,5,left,1.241,glasses,1,228.06,228.06,230.551,0,4,4,4,1,7,6,1,html/resources/stimuli_practice_decision/05_glasses.jpg,html/resources/stimuli_practice_decision/06_pullover.jpg,glasses,pullover,,,,,,,,,,,,,,,,,,,,,,,,,,,,,,,,,,,,,,,,,,,,,,,,,,,,,,,,,,,,,,,,,,,,,,,,,,,,,
,,,,,2,2020-07-01_09h30.45.473,retriever_ti,2020.1.3,Win32,60,Firefox,1536,864,231.552,6,left,1.279,rabbit,0,231.572,231.572,234.067,0,5,5,5,1,4,7,1,html/resources/stimuli_practice_decision/01_rabbit.jpg,html/resources/stimuli_practice_decision/05_glasses.jpg,rabbit,glasses,,,,,,,,,,,,,,,,,,,,,,,,,,,,,,,,,,,,,,,,,,,,,,,,,,,,,,,,,,,,,,,,,,,,,,,,,,,,,
,,,,,2,2020-07-01_09h30.45.473,retriever_ti,2020.1.3,Win32,60,Firefox,1536,864,234.583,7,left,1.077,handmixer,0,234.603,234.603,237.097,0,6,6,6,1,1,2,1,html/resources/stimuli_practice_decision/08_handmixer.jpg,html/resources/stimuli_practice_decision/04_beetle.jpg,handmixer,beetle,,,,,,,,,,,,,,,,,,,,,,,,,,,,,,,,,,,,,,,,,,,,,,,,,,,,,,,,,,,,,,,,,,,,,,,,,,,,,
,,,,,2,2020-07-01_09h30.45.473,retriever_ti,2020.1.3,Win32,60,Firefox,1536,864,238.098,8,left,1.03,rabbit,1,238.119,238.119,240.613,0,7,7,7,1,4,3,1,html/resources/stimuli_practice_decision/01_rabbit.jpg,html/resources/stimuli_practice_decision/07_sock.jpg,rabbit,sock,,,,,,,,,,,,,,,,,,,,,,,,,,,,,,,,,,,,,,,,,,,,,,,,,,,,,,,,,,,,,,,,,,,,,,,,,,,,,
,,,,,2,2020-07-01_09h30.45.473,retriever_ti,2020.1.3,Win32,60,Firefox,1536,864,,,,,,,,,,,,,,,,,,,,,,down,1,4.277,1,0,0,0,1,1,html/resources/sequences_IDs/star.png,square ↑,circle →,star ↓,← triangle,down,,,,,,,,,,,,,,,,,,,,,,,,,,,,,,,,,,,,,,,,,,,,,,,,,,,,,,,,,,,,,,
,,,,,2,2020-07-01_09h30.45.473,retriever_ti,2020.1.3,Win32,60,Firefox,1536,864,,,,,,,,,,,,,,,,,,,,,,up,1,1.433,1,0,1,1,0,1,html/resources/sequences_IDs/circle.png,circle ↑,square →,triangle ↓,← star ,up,,,,,,,,,,,,,,,,,,,,,,,,,,,,,,,,,,,,,,,,,,,,,,,,,,,,,,,,,,,,,,
,,,,,2,2020-07-01_09h30.45.473,retriever_ti,2020.1.3,Win32,60,Firefox,1536,864,,,,,,,,,,,,,,,,,,,,,,up,0,1.549,0,0,2,2,3,1,html/resources/sequences_IDs/triangle.png,star ↑,square →,triangle ↓,← circle,down,,,,,,,,,,,,,,,,,,,,,,,,,,,,,,,,,,,,,,,,,,,,,,,,,,,,,,,,,,,,,,
,,,,,2,2020-07-01_09h30.45.473,retriever_ti,2020.1.3,Win32,60,Firefox,1536,864,,,,,,,,,,,,,,,,,,,,,,left,1,3.056,1,0,3,3,2,1,html/resources/sequences_IDs/square1.png,star ↑,triangle →,circle ↓,← square,left,,,,,,,,,,,,,,,,,,,,,,,,,,,,,,,,,,,,,,,,,,,,,,,,,,,,,,,,,,,,,,
,,,,,2,2020-07-01_09h30.45.473,retriever_ti,2020.1.3,Win32,60,Firefox,1536,864,,,,,,,,,,,,,,,,,,,,,,,,,,,,,,,,,,,,,0,10.652,0,0,0,0,1,,,,,,,,,,,,,,,,,,,,,,,,,,,,,,,,,,,,,,,,,,,,,,,,,,,,,,,
,,,,,2,2020-07-01_09h30.45.473,retriever_ti,2020.1.3,Win32,60,Firefox,1536,864,269.456,9,right,1.566,glasses,1,269.461,269.461,271.967,0,0,0,0,1,6,7,1,html/resources/stimuli_practice_decision/06_pullover.jpg,html/resources/stimuli_practice_decision/05_glasses.jpg,pullover,glasses,,,,,,,,,,,,,,,,,,,,,,,,,,,,,,,,,,,,,,,,,,,,,,,,,,,,,,,,,,,,,,,,,,,,,,,,,,,,,
,,,,,2,2020-07-01_09h30.45.473,retriever_ti,2020.1.3,Win32,60,Firefox,1536,864,272.966,10,left,0.928,pullover,1,273.004,273.004,275.496,0,1,1,1,1,6,2,1,html/resources/stimuli_practice_decision/06_pullover.jpg,html/resources/stimuli_practice_decision/04_beetle.jpg,pullover,beetle,,,,,,,,,,,,,,,,,,,,,,,,,,,,,,,,,,,,,,,,,,,,,,,,,,,,,,,,,,,,,,,,,,,,,,,,,,,,,
,,,,,2,2020-07-01_09h30.45.473,retriever_ti,2020.1.3,Win32,60,Firefox,1536,864,275.999,11,right,0.909,pullover,1,276.037,276.037,278.53,0,2,2,2,1,5,6,1,html/resources/stimuli_practice_decision/02_canary.jpg,html/resources/stimuli_practice_decision/06_pullover.jpg,canary,pullover,,,,,,,,,,,,,,,,,,,,,,,,,,,,,,,,,,,,,,,,,,,,,,,,,,,,,,,,,,,,,,,,,,,,,,,,,,,,,
,,,,,2,2020-07-01_09h30.45.473,retriever_ti,2020.1.3,Win32,60,Firefox,1536,864,279.53,12,right,1.702,glasses,0,279.565,279.565,282.062,0,3,3,3,1,8,7,1,html/resources/stimuli_practice_decision/03_squirrel.jpg,html/resources/stimuli_practice_decision/05_glasses.jpg,squirrel,glasses,,,,,,,,,,,,,,,,,,,,,,,,,,,,,,,,,,,,,,,,,,,,,,,,,,,,,,,,,,,,,,,,,,,,,,,,,,,,,
,,,,,2,2020-07-01_09h30.45.473,retriever_ti,2020.1.3,Win32,60,Firefox,1536,864,283.061,13,left,1.133,canary,1,283.082,283.082,285.576,0,4,4,4,1,5,3,1,html/resources/stimuli_practice_decision/02_canary.jpg,html/resources/stimuli_practice_decision/07_sock.jpg,canary,sock,,,,,,,,,,,,,,,,,,,,,,,,,,,,,,,,,,,,,,,,,,,,,,,,,,,,,,,,,,,,,,,,,,,,,,,,,,,,,
,,,,,2,2020-07-01_09h30.45.473,retriever_ti,2020.1.3,Win32,60,Firefox,1536,864,286.093,14,left,1.034,glasses,0,286.113,286.113,288.607,0,5,5,5,1,7,8,1,html/resources/stimuli_practice_decision/05_glasses.jpg,html/resources/stimuli_practice_decision/03_squirrel.jpg,glasses,squirrel,,,,,,,,,,,,,,,,,,,,,,,,,,,,,,,,,,,,,,,,,,,,,,,,,,,,,,,,,,,,,,,,,,,,,,,,,,,,,
,,,,,2,2020-07-01_09h30.45.473,retriever_ti,2020.1.3,Win32,60,Firefox,1536,864,289.608,15,right,1.312,rabbit,0,289.627,289.627,292.123,0,6,6,6,1,5,4,1,html/resources/stimuli_practice_decision/02_canary.jpg,html/resources/stimuli_practice_decision/01_rabbit.jpg,canary,rabbit,,,,,,,,,,,,,,,,,,,,,,,,,,,,,,,,,,,,,,,,,,,,,,,,,,,,,,,,,,,,,,,,,,,,,,,,,,,,,
,,,,,2,2020-07-01_09h30.45.473,retriever_ti,2020.1.3,Win32,60,Firefox,1536,864,293.123,16,right,1.402,sock,0,293.164,293.164,295.654,0,7,7,7,1,5,3,1,html/resources/stimuli_practice_decision/02_canary.jpg,html/resources/stimuli_practice_decision/07_sock.jpg,canary,sock,,,,,,,,,,,,,,,,,,,,,,,,,,,,,,,,,,,,,,,,,,,,,,,,,,,,,,,,,,,,,,,,,,,,,,,,,,,,,
,,,,,2,2020-07-01_09h30.45.473,retriever_ti,2020.1.3,Win32,60,Firefox,1536,864,,,,,,,,,,,,,,,,,,,,,,up,0,2.985,0,0,0,0,1,1,html/resources/sequences_IDs/star.png,square ↑,circle →,star ↓,← triangle,down,,,,,,,,,,,,,,,,,,,,,,,,,,,,,,,,,,,,,,,,,,,,,,,,,,,,,,,,,,,,,,
,,,,,2,2020-07-01_09h30.45.473,retriever_ti,2020.1.3,Win32,60,Firefox,1536,864,,,,,,,,,,,,,,,,,,,,,,up,1,1.63,1,0,1,1,0,1,html/resources/sequences_IDs/circle.png,circle ↑,square →,triangle ↓,← star ,up,,,,,,,,,,,,,,,,,,,,,,,,,,,,,,,,,,,,,,,,,,,,,,,,,,,,,,,,,,,,,,
,,,,,2,2020-07-01_09h30.45.473,retriever_ti,2020.1.3,Win32,60,Firefox,1536,864,,,,,,,,,,,,,,,,,,,,,,down,1,3.243,1,0,2,2,3,1,html/resources/sequences_IDs/triangle.png,star ↑,square →,triangle ↓,← circle,down,,,,,,,,,,,,,,,,,,,,,,,,,,,,,,,,,,,,,,,,,,,,,,,,,,,,,,,,,,,,,,
,,,,,2,2020-07-01_09h30.45.473,retriever_ti,2020.1.3,Win32,60,Firefox,1536,864,,,,,,,,,,,,,,,,,,,,,,left,1,1.989,1,0,3,3,2,1,html/resources/sequences_IDs/square1.png,star ↑,triangle →,circle ↓,← square,left,,,,,,,,,,,,,,,,,,,,,,,,,,,,,,,,,,,,,,,,,,,,,,,,,,,,,,,,,,,,,,
,,,,,2,2020-07-01_09h30.45.473,retriever_ti,2020.1.3,Win32,60,Firefox,1536,864,,,,,,,,,,,,,,,,,,,,,,,,,,,,,,,,,,,,,0,4.328,1,0,1,0,1,,,,,,,,,,,,,,,,,,,,,,,,,,,,,,,,,,,,,,,,,,,,,,,,,,,,,,,
,,,,,2,2020-07-01_09h30.45.473,retriever_ti,2020.1.3,Win32,60,Firefox,1536,864,,,,,,,,,,,,,,,,,1,,,,,,,,,,,,,,,,,,,,,,,,,,,323.473,1,right,0.913,dress         ,6,7,5,1,3,323.48,323.48,325.975,0,0,0,0,1,1,1,6,phone       ,dress         ,html/resources/sequences_IDs/B/09_phone.jpg,html/resources/sequences_IDs/A/07_dress.jpg,9,7,4,2,3,2,7,5,0,2,,,,,,,,,,,,,,,,,,,,
,,,,,2,2020-07-01_09h30.45.473,retriever_ti,2020.1.3,Win32,60,Firefox,1536,864,,,,,,,,,,,,,,,,,1,,,,,,,,,,,,,,,,,,,,,,,,,,,326.597,2,right,0.968,phone       ,1,9,-4,0,3,326.612,326.612,329.107,0,1,1,1,1,2,5,1,slipper     ,phone       ,html/resources/sequences_IDs/B/08_slipper.jpg,html/resources/sequences_IDs/B/09_phone.jpg,8,9,3,2,4,2,6,7,0,2,,,,,,,,,,,,,,,,,,,,
,,,,,2,2020-07-01_09h30.45.473,retriever_ti,2020.1.3,Win32,60,Firefox,1536,864,,,,,,,,,,,,,,,,,1,,,,,,,,,,,,,,,,,,,,,,,,,,,329.728,3,left,1.077,giraffe     ,7,3,-1,0,1,329.759,329.759,332.255,0,2,2,2,1,3,7,8,giraffe     ,seaturtle     ,html/resources/sequences_IDs/B/03_giraffe.jpg,html/resources/sequences_IDs/A/02_seaturtle.jpg,3,2,1,1,2,1,2,1,1,2,,,,,,,,,,,,,,,,,,,,
,,,,,2,2020-07-01_09h30.45.473,retriever_ti,2020.1.3,Win32,60,Firefox,1536,864,,,,,,,,,,,,,,,,,1,,,,,,,,,,,,,,,,,,,,,,,,,,,333.359,4,left,1.17,satellite_dish,2,10,1,1,1,333.398,333.398,335.887,0,3,3,3,1,4,2,1,satellite_dish,phone       ,html/resources/sequences_IDs/A/10_satellite_dish.jpg,html/resources/sequences_IDs/B/09_phone.jpg,10,9,4,2,4,2,8,7,0,2,,,,,,,,,,,,,,,,,,,,
,,,,,2,2020-07-01_09h30.45.473,retriever_ti,2020.1.3,Win32,60,Firefox,1536,864,,,,,,,,,,,,,,,,,1,,,,,,,,,,,,,,,,,,,,,,,,,,,336.988,5,left,1.319,dress         ,6,7,1,1,1,337.023,337.023,339.518,0,4,4,4,1,5,6,5,dress         ,slipper     ,html/resources/sequences_IDs/A/07_dress.jpg,html/resources/sequences_IDs/B/08_slipper.jpg,7,8,3,2,3,2,5,6,0,2,,,,,,,,,,,,,,,,,,,,
,,,,,2,2020-07-01_09h30.45.473,retriever_ti,2020.1.3,Win32,60,Firefox,1536,864,,,,,,,,,,,,,,,,,1,,,,,,,,,,,,,,,,,,,,,,,,,,,340.618,6,left,0.961,dress         ,6,7,2,1,3,340.655,340.655,343.15,0,5,5,5,1,6,6,4,dress         ,clownfish     ,html/resources/sequences_IDs/A/07_dress.jpg,html/resources/sequences_IDs/A/04_clownfish.jpg,7,4,3,2,2,1,5,3,0,2,,,,,,,,,,,,,,,,,,,,
,,,,,2,2020-07-01_09h30.45.473,retriever_ti,2020.1.3,Win32,60,Firefox,1536,864,,,,,,,,,,,,,,,,,1,,,,,,,,,,,,,,,,,,,,,,,,,,,343.768,7,right,0.927,dress         ,6,7,4,1,3,343.786,343.786,346.282,0,6,6,6,1,7,2,6,satellite_dish,dress         ,html/resources/sequences_IDs/A/10_satellite_dish.jpg,html/resources/sequences_IDs/A/07_dress.jpg,10,7,4,2,3,2,8,5,0,2,,,,,,,,,,,,,,,,,,,,
,,,,,2,2020-07-01_09h30.45.473,retriever_ti,2020.1.3,Win32,60,Firefox,1536,864,,,,,,,,,,,,,,,,,1,,,,,,,,,,,,,,,,,,,,,,,,,,,346.899,8,left,1.345,parrot      ,3,5,-2,0,3,346.92,346.92,349.413,0,7,7,7,1,8,3,5,parrot      ,slipper     ,html/resources/sequences_IDs/B/05_parrot.jpg,html/resources/sequences_IDs/B/08_slipper.jpg,5,8,2,1,3,2,4,6,0,2,,,,,,,,,,,,,,,,,,,,
,,,,,2,2020-07-01_09h30.45.473,retriever_ti,2020.1.3,Win32,60,Firefox,1536,864,,,,,,,,,,,,,,,,,1,,,,,,,,,,,,,,,,,,,,,,,,,,,350.035,9,right,0.851,dress         ,6,7,-2,0,3,350.05,350.05,352.545,0,8,8,8,1,9,8,6,seaturtle     ,dress         ,html/resources/sequences_IDs/A/02_seaturtle.jpg,html/resources/sequences_IDs/A/07_dress.jpg,2,7,2,1,3,2,1,5,0,2,,,,,,,,,,,,,,,,,,,,
,,,,,2,2020-07-01_09h30.45.473,retriever_ti,2020.1.3,Win32,60,Firefox,1536,864,,,,,,,,,,,,,,,,,1,,,,,,,,,,,,,,,,,,,,,,,,,,,353.163,10,left,0.992,slipper     ,5,8,-1,0,1,353.198,353.198,355.694,0,9,9,9,1,10,5,6,slipper     ,dress         ,html/resources/sequences_IDs/B/08_slipper.jpg,html/resources/sequences_IDs/A/07_dress.jpg,8,7,3,2,3,2,6,5,1,2,,,,,,,,,,,,,,,,,,,,
,,,,,2,2020-07-01_09h30.45.473,retriever_ti,2020.1.3,Win32,60,Firefox,1536,864,,,,,,,,,,,,,,,,,1,,,,,,,,,,,,,,,,,,,,,,,,,,,356.796,11,right,1.139,dress         ,6,7,-1,0,0,356.843,356.843,359.342,0,10,10,10,1,11,7,6,giraffe     ,dress         ,html/resources/sequences_IDs/B/03_giraffe.jpg,html/resources/sequences_IDs/A/07_dress.jpg,3,7,1,1,3,2,2,5,0,2,,,,,,,,,,,,,,,,,,,,
,,,,,2,2020-07-01_09h30.45.473,retriever_ti,2020.1.3,Win32,60,Firefox,1536,864,,,,,,,,,,,,,,,,,1,,,,,,,,,,,,,,,,,,,,,,,,,,,360.443,12,right,1.251,parrot      ,3,5,-5,0,3,360.464,360.464,362.957,0,11,11,11,1,12,8,3,seaturtle     ,parrot      ,html/resources/sequences_IDs/A/02_seaturtle.jpg,html/resources/sequences_IDs/B/05_parrot.jpg,2,5,2,1,2,1,1,4,0,2,,,,,,,,,,,,,,,,,,,,
,,,,,2,2020-07-01_09h30.45.473,retriever_ti,2020.1.3,Win32,60,Firefox,1536,864,,,,,,,,,,,,,,,,,1,,,,,,,,,,,,,,,,,,,,,,,,,,,363.576,13,left,1.543,parrot      ,3,5,-1,0,1,363.596,363.596,366.089,0,12,12,12,1,13,3,4,parrot      ,clownfish     ,html/resources/sequences_IDs/B/05_parrot.jpg,html/resources/sequences_IDs/A/04_clownfish.jpg,5,4,2,1,2,1,4,3,1,2,,,,,,,,,,,,,,,,,,,,
,,,,,2,2020-07-01_09h30.45.473,retriever_ti,2020.1.3,Win32,60,Firefox,1536,864,,,,,,,,,,,,,,,,,1,,,,,,,,,,,,,,,,,,,,,,,,,,,367.19,14,right,1.518,giraffe     ,7,3,1,1,1,367.23,367.23,369.721,0,13,13,13,1,14,6,7,dress         ,giraffe     ,html/resources/sequences_IDs/A/07_dress.jpg,html/resources/sequences_IDs/B/03_giraffe.jpg,7,3,3,2,1,1,5,2,0,2,,,,,,,,,,,,,,,,,,,,
,,,,,2,2020-07-01_09h30.45.473,retriever_ti,2020.1.3,Win32,60,Firefox,1536,864,,,,,,,,,,,,,,,,,1,,,,,,,,,,,,,,,,,,,,,,,,,,,370.822,15,left,0.802,slipper     ,5,8,3,1,3,370.859,370.859,373.352,0,14,14,14,1,15,5,2,slipper     ,satellite_dish,html/resources/sequences_IDs/B/08_slipper.jpg,html/resources/sequences_IDs/A/10_satellite_dish.jpg,8,10,3,2,4,2,6,8,0,2,,,,,,,,,,,,,,,,,,,,
,,,,,2,2020-07-01_09h30.45.473,retriever_ti,2020.1.3,Win32,60,Firefox,1536,864,,,,,,,,,,,,,,,,,1,,,,,,,,,,,,,,,,,,,,,,,,,,,373.97,16,left,1.131,clownfish     ,4,4,-1,0,0,374.008,374.008,376.501,0,15,15,15,1,16,4,5,clownfish     ,slipper     ,html/resources/sequences_IDs/A/04_clownfish.jpg,html/resources/sequences_IDs/B/08_slipper.jpg,4,8,2,1,3,2,3,6,0,2,,,,,,,,,,,,,,,,,,,,
,,,,,2,2020-07-01_09h30.45.473,retriever_ti,2020.1.3,Win32,60,Firefox,1536,864,,,,,,,,,,,,,,,,,1,,,,,,,,,,,,,,,,,,,,,,,,,,,377.603,17,right,0.506,slipper     ,5,8,1,1,1,377.619,377.619,380.117,0,16,16,16,1,17,4,5,clownfish     ,slipper     ,html/resources/sequences_IDs/A/04_clownfish.jpg,html/resources/sequences_IDs/B/08_slipper.jpg,4,8,2,1,3,2,3,6,0,2,,,,,,,,,,,,,,,,,,,,
,,,,,2,2020-07-01_09h30.45.473,retriever_ti,2020.1.3,Win32,60,Firefox,1536,864,,,,,,,,,,,,,,,,,1,,,,,,,,,,,,,,,,,,,,,,,,,,,381.217,18,right,1.499,seaturtle     ,8,2,5,1,3,381.25,381.25,383.747,0,17,17,17,1,18,3,8,parrot      ,seaturtle     ,html/resources/sequences_IDs/B/05_parrot.jpg,html/resources/sequences_IDs/A/02_seaturtle.jpg,5,2,2,1,2,1,4,1,0,2,,,,,,,,,,,,,,,,,,,,
,,,,,2,2020-07-01_09h30.45.473,retriever_ti,2020.1.3,Win32,60,Firefox,1536,864,,,,,,,,,,,,,,,,,1,,,,,,,,,,,,,,,,,,,,,,,,,,,384.364,19,left,0.635,slipper     ,5,8,2,1,3,384.385,384.385,386.879,0,18,18,18,1,19,5,3,slipper     ,parrot      ,html/resources/sequences_IDs/B/08_slipper.jpg,html/resources/sequences_IDs/B/05_parrot.jpg,8,5,3,2,2,1,6,4,0,2,,,,,,,,,,,,,,,,,,,,
,,,,,2,2020-07-01_09h30.45.473,retriever_ti,2020.1.3,Win32,60,Firefox,1536,864,,,,,,,,,,,,,,,,,1,,,,,,,,,,,,,,,,,,,,,,,,,,,387.483,20,right,1.339,giraffe     ,7,3,-1,0,0,387.516,387.516,390.012,0,19,19,19,1,20,8,7,seaturtle     ,giraffe     ,html/resources/sequences_IDs/A/02_seaturtle.jpg,html/resources/sequences_IDs/B/03_giraffe.jpg,2,3,2,1,1,1,1,2,0,2,,,,,,,,,,,,,,,,,,,,
,,,,,2,2020-07-01_09h30.45.473,retriever_ti,2020.1.3,Win32,60,Firefox,1536,864,,,,,,,,,,,,,,,,,1,,,,,,,,,,,,,,,,,,,,,,,,,,,391.112,21,left,0.54,slipper     ,5,8,-3,0,3,391.133,391.133,393.626,0,20,20,20,1,21,5,8,slipper     ,seaturtle     ,html/resources/sequences_IDs/B/08_slipper.jpg,html/resources/sequences_IDs/A/02_seaturtle.jpg,8,2,3,2,2,1,6,1,0,2,,,,,,,,,,,,,,,,,,,,
,,,,,2,2020-07-01_09h30.45.473,retriever_ti,2020.1.3,Win32,60,Firefox,1536,864,,,,,,,,,,,,,,,,,1,,,,,,,,,,,,,,,,,,,,,,,,,,,394.245,22,right,0.712,clownfish     ,4,4,-3,0,3,394.263,394.263,396.758,0,21,21,21,1,22,7,4,giraffe     ,clownfish     ,html/resources/sequences_IDs/B/03_giraffe.jpg,html/resources/sequences_IDs/A/04_clownfish.jpg,3,4,1,1,2,1,2,3,0,2,,,,,,,,,,,,,,,,,,,,
,,,,,2,2020-07-01_09h30.45.473,retriever_ti,2020.1.3,Win32,60,Firefox,1536,864,,,,,,,,,,,,,,,,,1,,,,,,,,,,,,,,,,,,,,,,,,,,,397.375,23,left,0.602,clownfish     ,4,4,-3,0,3,397.413,397.413,399.907,0,22,22,22,1,23,4,7,clownfish     ,giraffe     ,html/resources/sequences_IDs/A/04_clownfish.jpg,html/resources/sequences_IDs/B/03_giraffe.jpg,4,3,2,1,1,1,3,2,0,2,,,,,,,,,,,,,,,,,,,,
,,,,,2,2020-07-01_09h30.45.473,retriever_ti,2020.1.3,Win32,60,Firefox,1536,864,,,,,,,,,,,,,,,,,1,,,,,,,,,,,,,,,,,,,,,,,,,,,400.524,24,right,0.714,slipper     ,5,8,4,1,3,400.544,400.544,403.039,0,23,23,23,1,24,1,5,phone       ,slipper     ,html/resources/sequences_IDs/B/09_phone.jpg,html/resources/sequences_IDs/B/08_slipper.jpg,9,8,4,2,3,2,7,6,0,2,,,,,,,,,,,,,,,,,,,,
,,,,,2,2020-07-01_09h30.45.473,retriever_ti,2020.1.3,Win32,60,Firefox,1536,864,,,,,,,,,,,,,,,,,1,,,,,,,,,,,,,,,,,,,,,,,,,,,403.657,25,left,0.342,dress         ,6,7,-2,0,3,403.678,403.678,406.175,0,24,24,24,1,25,6,8,dress         ,seaturtle     ,html/resources/sequences_IDs/A/07_dress.jpg,html/resources/sequences_IDs/A/02_seaturtle.jpg,7,2,3,2,2,1,5,1,0,2,,,,,,,,,,,,,,,,,,,,
,,,,,2,2020-07-01_09h30.45.473,retriever_ti,2020.1.3,Win32,60,Firefox,1536,864,,,,,,,,,,,,,,,,,1,,,,,,,,,,,,,,,,,,,,,,,,,,,406.823,26,right,0.531,dress         ,6,7,3,1,3,406.867,406.867,409.372,0,25,25,25,1,26,3,6,parrot      ,dress         ,html/resources/sequences_IDs/B/05_parrot.jpg,html/resources/sequences_IDs/A/07_dress.jpg,5,7,2,1,3,2,4,5,0,2,,,,,,,,,,,,,,,,,,,,
,,,,,2,2020-07-01_09h30.45.473,retriever_ti,2020.1.3,Win32,60,Firefox,1536,864,,,,,,,,,,,,,,,,,1,,,,,,,,,,,,,,,,,,,,,,,,,,,409.991,27,right,0.766,slipper     ,5,8,-2,0,3,410.009,410.009,412.505,0,26,26,26,1,27,7,5,giraffe     ,slipper     ,html/resources/sequences_IDs/B/03_giraffe.jpg,html/resources/sequences_IDs/B/08_slipper.jpg,3,8,1,1,3,2,2,6,0,2,,,,,,,,,,,,,,,,,,,,
,,,,,2,2020-07-01_09h30.45.473,retriever_ti,2020.1.3,Win32,60,Firefox,1536,864,,,,,,,,,,,,,,,,,1,,,,,,,,,,,,,,,,,,,,,,,,,,,413.119,28,left,0.294,parrot      ,3,5,2,1,3,413.159,413.159,415.651,0,27,27,27,1,28,3,1,parrot      ,phone       ,html/resources/sequences_IDs/B/05_parrot.jpg,html/resources/sequences_IDs/B/09_phone.jpg,5,9,2,1,4,2,4,7,0,2,,,,,,,,,,,,,,,,,,,,
,,,,,2,2020-07-01_09h30.45.473,retriever_ti,2020.1.3,Win32,60,Firefox,1536,864,,,,,,,,,,,,,,,,,1,,,,,,,,,,,,,,,,,,,,,,,,,,,416.267,29,right,0.486,seaturtle     ,8,2,1,1,1,416.286,416.286,418.778,0,28,28,28,1,29,7,8,giraffe     ,seaturtle     ,html/resources/sequences_IDs/B/03_giraffe.jpg,html/resources/sequences_IDs/A/02_seaturtle.jpg,3,2,1,1,2,1,2,1,0,2,,,,,,,,,,,,,,,,,,,,
,,,,,2,2020-07-01_09h30.45.473,retriever_ti,2020.1.3,Win32,60,Firefox,1536,864,,,,,,,,,,,,,,,,,1,,,,,,,,,,,,,,,,,,,,,,,,,,,419.882,30,right,0.65,clownfish     ,4,4,-1,0,1,419.902,419.902,422.399,0,29,29,29,1,30,5,4,slipper     ,clownfish     ,html/resources/sequences_IDs/B/08_slipper.jpg,html/resources/sequences_IDs/A/04_clownfish.jpg,8,4,3,2,2,1,6,3,1,2,,,,,,,,,,,,,,,,,,,,
,,,,,2,2020-07-01_09h30.45.473,retriever_ti,2020.1.3,Win32,60,Firefox,1536,864,,,,,,,,,,,,,,,,,1,,,,,,,,,,,,,,,,,,,,,,,,,,,423.497,31,right,0.402,clownfish     ,4,4,-1,0,0,423.521,423.521,426.013,0,30,30,30,1,31,5,4,slipper     ,clownfish     ,html/resources/sequences_IDs/B/08_slipper.jpg,html/resources/sequences_IDs/A/04_clownfish.jpg,8,4,3,2,2,1,6,3,0,2,,,,,,,,,,,,,,,,,,,,
,,,,,2,2020-07-01_09h30.45.473,retriever_ti,2020.1.3,Win32,60,Firefox,1536,864,,,,,,,,,,,,,,,,,1,,,,,,,,,,,,,,,,,,,,,,,,,,,427.114,32,right,1.092,clownfish     ,4,4,1,1,1,427.156,427.156,429.644,0,31,31,31,1,32,3,4,parrot      ,clownfish     ,html/resources/sequences_IDs/B/05_parrot.jpg,html/resources/sequences_IDs/A/04_clownfish.jpg,5,4,2,1,2,1,4,3,0,2,,,,,,,,,,,,,,,,,,,,
,,,,,2,2020-07-01_09h30.45.473,retriever_ti,2020.1.3,Win32,60,Firefox,1536,864,,,,,,,,,,,,,,,,,1,,,,,,,,,,,,,,,,,,,,,,,,,,,430.748,33,right,0.484,parrot      ,3,5,1,1,1,430.768,430.768,433.26,0,32,32,32,1,33,2,3,satellite_dish,parrot      ,html/resources/sequences_IDs/A/10_satellite_dish.jpg,html/resources/sequences_IDs/B/05_parrot.jpg,10,5,4,2,2,1,8,4,0,2,,,,,,,,,,,,,,,,,,,,
,,,,,2,2020-07-01_09h30.45.473,retriever_ti,2020.1.3,Win32,60,Firefox,1536,864,,,,,,,,,,,,,,,,,1,,,,,,,,,,,,,,,,,,,,,,,,,,,434.359,34,right,0.99,slipper     ,5,8,-1,0,0,434.378,434.378,436.873,0,33,33,33,1,34,6,5,dress         ,slipper     ,html/resources/sequences_IDs/A/07_dress.jpg,html/resources/sequences_IDs/B/08_slipper.jpg,7,8,3,2,3,2,5,6,0,2,,,,,,,,,,,,,,,,,,,,
,,,,,2,2020-07-01_09h30.45.473,retriever_ti,2020.1.3,Win32,60,Firefox,1536,864,,,,,,,,,,,,,,,,,1,,,,,,,,,,,,,,,,,,,,,,,,,,,437.974,35,right,0.94,parrot      ,3,5,-4,0,3,438.01,438.01,440.506,0,34,34,34,1,35,7,3,giraffe     ,parrot      ,html/resources/sequences_IDs/B/03_giraffe.jpg,html/resources/sequences_IDs/B/05_parrot.jpg,3,5,1,1,2,1,2,4,0,2,,,,,,,,,,,,,,,,,,,,
,,,,,2,2020-07-01_09h30.45.473,retriever_ti,2020.1.3,Win32,60,Firefox,1536,864,,,,,,,,,,,,,,,,,1,,,,,,,,,,,,,,,,,,,,,,,,,,,441.106,36,left,1.535,satellite_dish,2,10,-5,0,3,441.125,441.125,443.62,0,35,35,35,1,36,2,7,satellite_dish,giraffe     ,html/resources/sequences_IDs/A/10_satellite_dish.jpg,html/resources/sequences_IDs/B/03_giraffe.jpg,10,3,4,2,1,1,8,2,0,2,,,,,,,,,,,,,,,,,,,,
,,,,,2,2020-07-01_09h30.45.473,retriever_ti,2020.1.3,Win32,60,Firefox,1536,864,,,,,,,,,,,,,,,,,1,,,,,,,,,,,,,,,,,,,,,,,,,,,444.237,37,right,1.086,slipper     ,5,8,3,1,3,444.274,444.274,446.771,0,36,36,36,1,37,2,5,satellite_dish,slipper     ,html/resources/sequences_IDs/A/10_satellite_dish.jpg,html/resources/sequences_IDs/B/08_slipper.jpg,10,8,4,2,3,2,8,6,0,2,,,,,,,,,,,,,,,,,,,,
,,,,,2,2020-07-01_09h30.45.473,retriever_ti,2020.1.3,Win32,60,Firefox,1536,864,,,,,,,,,,,,,,,,,1,,,,,,,,,,,,,,,,,,,,,,,,,,,447.386,38,left,0.841,dress         ,6,7,3,1,3,447.404,447.404,449.902,0,37,37,37,1,38,6,3,dress         ,parrot      ,html/resources/sequences_IDs/A/07_dress.jpg,html/resources/sequences_IDs/B/05_parrot.jpg,7,5,3,2,2,1,5,4,0,2,,,,,,,,,,,,,,,,,,,,
,,,,,2,2020-07-01_09h30.45.473,retriever_ti,2020.1.3,Win32,60,Firefox,1536,864,,,,,,,,,,,,,,,,,1,,,,,,,,,,,,,,,,,,,,,,,,,,,450.518,39,right,0.768,giraffe     ,7,3,2,1,3,450.554,450.554,453.051,0,38,38,38,1,39,5,7,slipper     ,giraffe     ,html/resources/sequences_IDs/B/08_slipper.jpg,html/resources/sequences_IDs/B/03_giraffe.jpg,8,3,3,2,1,1,6,2,0,2,,,,,,,,,,,,,,,,,,,,
,,,,,2,2020-07-01_09h30.45.473,retriever_ti,2020.1.3,Win32,60,Firefox,1536,864,,,,,,,,,,,,,,,,,1,,,,,,,,,,,,,,,,,,,,,,,,,,,453.667,40,left,0.352,slipper     ,5,8,-1,0,0,453.687,453.687,456.182,0,39,39,39,1,40,5,6,slipper     ,dress         ,html/resources/sequences_IDs/B/08_slipper.jpg,html/resources/sequences_IDs/A/07_dress.jpg,8,7,3,2,3,2,6,5,0,2,,,,,,,,,,,,,,,,,,,,
,,,,,2,2020-07-01_09h30.45.473,retriever_ti,2020.1.3,Win32,60,Firefox,1536,864,,,,,,,,,,,,,,,,,1,,,,,,,,,,,,,,,,,,,,,,,,,,,457.284,41,left,0.842,dress         ,6,7,4,1,3,457.318,457.318,459.813,0,40,40,40,1,41,6,2,dress         ,satellite_dish,html/resources/sequences_IDs/A/07_dress.jpg,html/resources/sequences_IDs/A/10_satellite_dish.jpg,7,10,3,2,4,2,5,8,0,2,,,,,,,,,,,,,,,,,,,,
,,,,,2,2020-07-01_09h30.45.473,retriever_ti,2020.1.3,Win32,60,Firefox,1536,864,,,,,,,,,,,,,,,,,1,,,,,,,,,,,,,,,,,,,,,,,,,,,460.431,42,left,1.201,slipper     ,5,8,-1,0,0,460.466,460.466,462.962,0,41,41,41,1,42,5,6,slipper     ,dress         ,html/resources/sequences_IDs/B/08_slipper.jpg,html/resources/sequences_IDs/A/07_dress.jpg,8,7,3,2,3,2,6,5,0,2,,,,,,,,,,,,,,,,,,,,
,,,,,2,2020-07-01_09h30.45.473,retriever_ti,2020.1.3,Win32,60,Firefox,1536,864,,,,,,,,,,,,,,,,,1,,,,,,,,,,,,,,,,,,,,,,,,,,,464.063,43,left,1.131,giraffe     ,7,3,6,1,3,464.09,464.09,466.576,0,42,42,42,1,43,7,1,giraffe     ,phone       ,html/resources/sequences_IDs/B/03_giraffe.jpg,html/resources/sequences_IDs/B/09_phone.jpg,3,9,1,1,4,2,2,7,0,2,,,,,,,,,,,,,,,,,,,,
,,,,,2,2020-07-01_09h30.45.473,retriever_ti,2020.1.3,Win32,60,Firefox,1536,864,,,,,,,,,,,,,,,,,1,,,,,,,,,,,,,,,,,,,,,,,,,,,467.194,44,right,0.468,giraffe     ,7,3,1,1,0,467.217,467.217,469.709,0,43,43,43,1,44,6,7,dress         ,giraffe     ,html/resources/sequences_IDs/A/07_dress.jpg,html/resources/sequences_IDs/B/03_giraffe.jpg,7,3,3,2,1,1,5,2,1,2,,,,,,,,,,,,,,,,,,,,
,,,,,2,2020-07-01_09h30.45.473,retriever_ti,2020.1.3,Win32,60,Firefox,1536,864,,,,,,,,,,,,,,,,,1,,,,,,,,,,,,,,,,,,,,,,,,,,,470.809,45,left,0.788,parrot      ,3,5,1,1,1,470.845,470.845,473.34,0,44,44,44,1,45,3,2,parrot      ,satellite_dish,html/resources/sequences_IDs/B/05_parrot.jpg,html/resources/sequences_IDs/A/10_satellite_dish.jpg,5,10,2,1,4,2,4,8,0,2,,,,,,,,,,,,,,,,,,,,
,,,,,2,2020-07-01_09h30.45.473,retriever_ti,2020.1.3,Win32,60,Firefox,1536,864,,,,,,,,,,,,,,,,,1,,,,,,,,,,,,,,,,,,,,,,,,,,,474.44,46,right,0.821,parrot      ,3,5,-1,0,0,474.476,474.476,476.972,0,45,45,45,1,46,4,3,clownfish     ,parrot      ,html/resources/sequences_IDs/A/04_clownfish.jpg,html/resources/sequences_IDs/B/05_parrot.jpg,4,5,2,1,2,1,3,4,0,2,,,,,,,,,,,,,,,,,,,,
,,,,,2,2020-07-01_09h30.45.473,retriever_ti,2020.1.3,Win32,60,Firefox,1536,864,,,,,,,,,,,,,,,,,1,,,,,,,,,,,,,,,,,,,,,,,,,,,478.072,47,right,1.137,seaturtle     ,8,2,1,1,1,478.113,478.113,480.603,0,46,46,46,1,47,7,8,giraffe     ,seaturtle     ,html/resources/sequences_IDs/B/03_giraffe.jpg,html/resources/sequences_IDs/A/02_seaturtle.jpg,3,2,1,1,2,1,2,1,0,2,,,,,,,,,,,,,,,,,,,,
,,,,,2,2020-07-01_09h30.45.473,retriever_ti,2020.1.3,Win32,60,Firefox,1536,864,,,,,,,,,,,,,,,,,1,,,,,,,,,,,,,,,,,,,,,,,,,,,481.704,48,right,0.786,parrot      ,3,5,2,1,3,481.723,481.723,484.218,0,47,47,47,1,48,1,3,phone       ,parrot      ,html/resources/sequences_IDs/B/09_phone.jpg,html/resources/sequences_IDs/B/05_parrot.jpg,9,5,4,2,2,1,7,4,0,2,,,,,,,,,,,,,,,,,,,,
,,,,,2,2020-07-01_09h30.45.473,retriever_ti,2020.1.3,Win32,60,Firefox,1536,864,,,,,,,,,,,,,,,,,1,,,,,,,,,,,,,,,,,,,,,,,,,,,484.819,49,left,0.505,clownfish     ,4,4,-2,0,3,484.842,484.842,487.333,0,48,48,48,1,49,4,6,clownfish     ,dress         ,html/resources/sequences_IDs/A/04_clownfish.jpg,html/resources/sequences_IDs/A/07_dress.jpg,4,7,2,1,3,2,3,5,0,2,,,,,,,,,,,,,,,,,,,,
,,,,,2,2020-07-01_09h30.45.473,retriever_ti,2020.1.3,Win32,60,Firefox,1536,864,,,,,,,,,,,,,,,,,1,,,,,,,,,,,,,,,,,,,,,,,,,,,487.951,50,right,1.389,satellite_dish,2,10,1,1,1,487.97,487.97,490.465,0,49,49,49,1,50,1,2,phone       ,satellite_dish,html/resources/sequences_IDs/B/09_phone.jpg,html/resources/sequences_IDs/A/10_satellite_dish.jpg,9,10,4,2,4,2,7,8,0,2,,,,,,,,,,,,,,,,,,,,
,,,,,2,2020-07-01_09h30.45.473,retriever_ti,2020.1.3,Win32,60,Firefox,1536,864,,,,,,,,,,,,,,,,,1,,,,,,,,,,,,,,,,,,,,,,,,,,,491.566,51,right,0.473,satellite_dish,2,10,-6,0,3,491.606,491.606,494.098,0,50,50,50,1,51,8,2,seaturtle     ,satellite_dish,html/resources/sequences_IDs/A/02_seaturtle.jpg,html/resources/sequences_IDs/A/10_satellite_dish.jpg,2,10,2,1,4,2,1,8,0,2,,,,,,,,,,,,,,,,,,,,
,,,,,2,2020-07-01_09h30.45.473,retriever_ti,2020.1.3,Win32,60,Firefox,1536,864,,,,,,,,,,,,,,,,,1,,,,,,,,,,,,,,,,,,,,,,,,,,,494.715,52,right,1.048,satellite_dish,2,10,-5,0,3,494.751,494.751,497.245,0,51,51,51,1,52,7,2,giraffe     ,satellite_dish,html/resources/sequences_IDs/B/03_giraffe.jpg,html/resources/sequences_IDs/A/10_satellite_dish.jpg,3,10,1,1,4,2,2,8,0,2,,,,,,,,,,,,,,,,,,,,
,,,,,2,2020-07-01_09h30.45.473,retriever_ti,2020.1.3,Win32,60,Firefox,1536,864,,,,,,,,,,,,,,,,,1,,,,,,,,,,,,,,,,,,,,,,,,,,,497.847,53,left,0.774,parrot      ,3,5,1,1,1,497.884,497.884,500.378,0,52,52,52,1,53,3,2,parrot      ,satellite_dish,html/resources/sequences_IDs/B/05_parrot.jpg,html/resources/sequences_IDs/A/10_satellite_dish.jpg,5,10,2,1,4,2,4,8,0,2,,,,,,,,,,,,,,,,,,,,
,,,,,2,2020-07-01_09h30.45.473,retriever_ti,2020.1.3,Win32,60,Firefox,1536,864,,,,,,,,,,,,,,,,,1,,,,,,,,,,,,,,,,,,,,,,,,,,,501.48,54,left,1.665,parrot      ,3,5,-1,0,0,501.514,501.514,504.01,0,53,53,53,1,54,3,4,parrot      ,clownfish     ,html/resources/sequences_IDs/B/05_parrot.jpg,html/resources/sequences_IDs/A/04_clownfish.jpg,5,4,2,1,2,1,4,3,0,2,,,,,,,,,,,,,,,,,,,,
,,,,,2,2020-07-01_09h30.45.473,retriever_ti,2020.1.3,Win32,60,Firefox,1536,864,,,,,,,,,,,,,,,,,1,,,,,,,,,,,,,,,,,,,,,,,,,,,505.11,55,left,0.56,parrot      ,3,5,-4,0,3,505.13,505.13,507.624,0,54,54,54,1,55,3,7,parrot      ,giraffe     ,html/resources/sequences_IDs/B/05_parrot.jpg,html/resources/sequences_IDs/B/03_giraffe.jpg,5,3,2,1,1,1,4,2,0,2,,,,,,,,,,,,,,,,,,,,
,,,,,2,2020-07-01_09h30.45.473,retriever_ti,2020.1.3,Win32,60,Firefox,1536,864,,,,,,,,,,,,,,,,,1,,,,,,,,,,,,,,,,,,,,,,,,,,,508.225,56,right,0.296,clownfish     ,4,4,2,1,3,508.262,508.262,510.756,0,55,55,55,1,56,2,4,satellite_dish,clownfish     ,html/resources/sequences_IDs/A/10_satellite_dish.jpg,html/resources/sequences_IDs/A/04_clownfish.jpg,10,4,4,2,2,1,8,3,0,2,,,,,,,,,,,,,,,,,,,,
,,,,,2,2020-07-01_09h30.45.473,retriever_ti,2020.1.3,Win32,60,Firefox,1536,864,,,,,,,,,,,,,,,,,1,,,,,,,,,,,,,,,,,,,,,,,,,,,511.374,57,left,0.318,phone       ,1,9,-1,0,0,511.41,511.41,513.905,0,56,56,56,1,57,1,2,phone       ,satellite_dish,html/resources/sequences_IDs/B/09_phone.jpg,html/resources/sequences_IDs/A/10_satellite_dish.jpg,9,10,4,2,4,2,7,8,0,2,,,,,,,,,,,,,,,,,,,,
,,,,,2,2020-07-01_09h30.45.473,retriever_ti,2020.1.3,Win32,60,Firefox,1536,864,,,,,,,,,,,,,,,,,1,,,,,,,,,,,,,,,,,,,,,,,,,,,515.005,58,right,0.318,phone       ,1,9,-7,0,3,515.025,515.025,517.52,0,57,57,57,1,58,8,1,seaturtle     ,phone       ,html/resources/sequences_IDs/A/02_seaturtle.jpg,html/resources/sequences_IDs/B/09_phone.jpg,2,9,2,1,4,2,1,7,0,2,,,,,,,,,,,,,,,,,,,,
,,,,,2,2020-07-01_09h30.45.473,retriever_ti,2020.1.3,Win32,60,Firefox,1536,864,,,,,,,,,,,,,,,,,1,,,,,,,,,,,,,,,,,,,,,,,,,,,518.137,59,left,0.222,seaturtle     ,8,2,3,1,3,518.173,518.173,520.669,0,58,58,58,1,59,8,5,seaturtle     ,slipper     ,html/resources/sequences_IDs/A/02_seaturtle.jpg,html/resources/sequences_IDs/B/08_slipper.jpg,2,8,2,1,3,2,1,6,0,2,,,,,,,,,,,,,,,,,,,,
,,,,,2,2020-07-01_09h30.45.473,retriever_ti,2020.1.3,Win32,60,Firefox,1536,864,,,,,,,,,,,,,,,,,1,,,,,,,,,,,,,,,,,,,,,,,,,,,521.286,60,right,0.7,clownfish     ,4,4,-1,0,0,521.324,521.324,523.818,0,59,59,59,1,60,5,4,slipper     ,clownfish     ,html/resources/sequences_IDs/B/08_slipper.jpg,html/resources/sequences_IDs/A/04_clownfish.jpg,8,4,3,2,2,1,6,3,0,2,,,,,,,,,,,,,,,,,,,,
,,,,,2,2020-07-01_09h30.45.473,retriever_ti,2020.1.3,Win32,60,Firefox,1536,864,,,,,,,,,,,,,,,,,1,,,,,,,,,,,,,,,,,,,,,,,,,,,524.918,61,left,0.319,giraffe     ,7,3,1,1,1,524.936,524.936,527.432,0,60,60,60,1,61,7,6,giraffe     ,dress         ,html/resources/sequences_IDs/B/03_giraffe.jpg,html/resources/sequences_IDs/A/07_dress.jpg,3,7,1,1,3,2,2,5,0,2,,,,,,,,,,,,,,,,,,,,
,,,,,2,2020-07-01_09h30.45.473,retriever_ti,2020.1.3,Win32,60,Firefox,1536,864,,,,,,,,,,,,,,,,,1,,,,,,,,,,,,,,,,,,,,,,,,,,,528.533,62,left,0.555,dress         ,6,7,5,1,3,528.568,528.568,531.063,0,61,61,61,1,62,6,1,dress         ,phone       ,html/resources/sequences_IDs/A/07_dress.jpg,html/resources/sequences_IDs/B/09_phone.jpg,7,9,3,2,4,2,5,7,0,2,,,,,,,,,,,,,,,,,,,,
,,,,,2,2020-07-01_09h30.45.473,retriever_ti,2020.1.3,Win32,60,Firefox,1536,864,,,,,,,,,,,,,,,,,1,,,,,,,,,,,,,,,,,,,,,,,,,,,531.665,63,left,1.186,clownfish     ,4,4,-4,0,3,531.702,531.702,534.196,0,62,62,62,1,63,4,8,clownfish     ,seaturtle     ,html/resources/sequences_IDs/A/04_clownfish.jpg,html/resources/sequences_IDs/A/02_seaturtle.jpg,4,2,2,1,2,1,3,1,0,2,,,,,,,,,,,,,,,,,,,,
,,,,,2,2020-07-01_09h30.45.473,retriever_ti,2020.1.3,Win32,60,Firefox,1536,864,,,,,,,,,,,,,,,,,1,,,,,,,,,,,,,,,,,,,,,,,,,,,534.815,64,right,0.704,giraffe     ,7,3,6,1,3,534.835,534.835,537.328,0,63,63,63,1,64,1,7,phone       ,giraffe     ,html/resources/sequences_IDs/B/09_phone.jpg,html/resources/sequences_IDs/B/03_giraffe.jpg,9,3,4,2,1,1,7,2,0,2,,,,,,,,,,,,,,,,,,,,
,,,,,2,2020-07-01_09h30.45.473,retriever_ti,2020.1.3,Win32,60,Firefox,1536,864,,,,,,,,,,,,,,,,,1,,,,,,,,,,,,,,,,,,,,,,,,,,,537.945,65,right,0.406,giraffe     ,7,3,1,1,1,537.968,537.968,540.46,0,64,64,64,1,65,6,7,dress         ,giraffe     ,html/resources/sequences_IDs/A/07_dress.jpg,html/resources/sequences_IDs/B/03_giraffe.jpg,7,3,3,2,1,1,5,2,0,2,,,,,,,,,,,,,,,,,,,,
,,,,,2,2020-07-01_09h30.45.473,retriever_ti,2020.1.3,Win32,60,Firefox,1536,864,,,,,,,,,,,,,,,,,1,,,,,,,,,,,,,,,,,,,,,,,,,,,541.56,66,right,0.619,clownfish     ,4,4,-4,0,3,541.596,541.596,544.091,0,65,65,65,1,66,8,4,seaturtle     ,clownfish     ,html/resources/sequences_IDs/A/02_seaturtle.jpg,html/resources/sequences_IDs/A/04_clownfish.jpg,2,4,2,1,2,1,1,3,0,2,,,,,,,,,,,,,,,,,,,,
,,,,,2,2020-07-01_09h30.45.473,retriever_ti,2020.1.3,Win32,60,Firefox,1536,864,,,,,,,,,,,,,,,,,1,,,,,,,,,,,,,,,,,,,,,,,,,,,544.709,67,right,0.558,parrot      ,3,5,1,1,0,544.728,544.728,547.224,0,66,66,66,1,67,2,3,satellite_dish,parrot      ,html/resources/sequences_IDs/A/10_satellite_dish.jpg,html/resources/sequences_IDs/B/05_parrot.jpg,10,5,4,2,2,1,8,4,1,2,,,,,,,,,,,,,,,,,,,,
,,,,,2,2020-07-01_09h30.45.473,retriever_ti,2020.1.3,Win32,60,Firefox,1536,864,,,,,,,,,,,,,,,,,1,,,,,,,,,,,,,,,,,,,,,,,,,,,548.325,68,right,0.72,clownfish     ,4,4,3,1,3,548.358,548.358,550.855,0,67,67,67,1,68,1,4,phone       ,clownfish     ,html/resources/sequences_IDs/B/09_phone.jpg,html/resources/sequences_IDs/A/04_clownfish.jpg,9,4,4,2,2,1,7,3,0,2,,,,,,,,,,,,,,,,,,,,
,,,,,2,2020-07-01_09h30.45.473,retriever_ti,2020.1.3,Win32,60,Firefox,1536,864,,,,,,,,,,,,,,,,,1,,,,,,,,,,,,,,,,,,,,,,,,,,,551.472,69,left,0.519,clownfish     ,4,4,2,1,3,551.493,551.493,553.986,0,68,68,68,1,69,4,2,clownfish     ,satellite_dish,html/resources/sequences_IDs/A/04_clownfish.jpg,html/resources/sequences_IDs/A/10_satellite_dish.jpg,4,10,2,1,4,2,3,8,0,2,,,,,,,,,,,,,,,,,,,,
,,,,,2,2020-07-01_09h30.45.473,retriever_ti,2020.1.3,Win32,60,Firefox,1536,864,,,,,,,,,,,,,,,,,1,,,,,,,,,,,,,,,,,,,,,,,,,,,554.588,70,right,1.168,seaturtle     ,8,2,7,1,3,554.605,554.605,557.103,0,69,69,69,1,70,1,8,phone       ,seaturtle     ,html/resources/sequences_IDs/B/09_phone.jpg,html/resources/sequences_IDs/A/02_seaturtle.jpg,9,2,4,2,2,1,7,1,0,2,,,,,,,,,,,,,,,,,,,,
,,,,,2,2020-07-01_09h30.45.473,retriever_ti,2020.1.3,Win32,60,Firefox,1536,864,,,,,,,,,,,,,,,,,1,,,,,,,,,,,,,,,,,,,,,,,,,,,557.72,71,left,0.657,clownfish     ,4,4,3,1,3,557.754,557.754,560.251,0,70,70,70,1,71,4,1,clownfish     ,phone       ,html/resources/sequences_IDs/A/04_clownfish.jpg,html/resources/sequences_IDs/B/09_phone.jpg,4,9,2,1,4,2,3,7,0,2,,,,,,,,,,,,,,,,,,,,
,,,,,2,2020-07-01_09h30.45.473,retriever_ti,2020.1.3,Win32,60,Firefox,1536,864,,,,,,,,,,,,,,,,,1,,,,,,,,,,,,,,,,,,,,,,,,,,,560.868,72,right,0.842,parrot      ,3,5,-1,0,0,560.887,560.887,563.383,0,71,71,71,1,72,4,3,clownfish     ,parrot      ,html/resources/sequences_IDs/A/04_clownfish.jpg,html/resources/sequences_IDs/B/05_parrot.jpg,4,5,2,1,2,1,3,4,0,2,,,,,,,,,,,,,,,,,,,,
,,,,,2,2020-07-01_09h30.45.473,retriever_ti,2020.1.3,Win32,60,Firefox,1536,864,,,,,,,,,,,,,,,,,1,,,,,,,,,,,,,,,,,,,,,,,,,,,564.483,73,left,1.006,satellite_dish,2,10,1,1,1,564.519,564.519,567.014,0,72,72,72,1,73,2,1,satellite_dish,phone       ,html/resources/sequences_IDs/A/10_satellite_dish.jpg,html/resources/sequences_IDs/B/09_phone.jpg,10,9,4,2,4,2,8,7,0,2,,,,,,,,,,,,,,,,,,,,
,,,,,2,2020-07-01_09h30.45.473,retriever_ti,2020.1.3,Win32,60,Firefox,1536,864,,,,,,,,,,,,,,,,,1,,,,,,,,,,,,,,,,,,,,,,,,,,,568.118,74,left,0.816,seaturtle     ,8,2,1,1,1,568.138,568.138,570.629,0,73,73,73,1,74,8,7,seaturtle     ,giraffe     ,html/resources/sequences_IDs/A/02_seaturtle.jpg,html/resources/sequences_IDs/B/03_giraffe.jpg,2,3,2,1,1,1,1,2,0,2,,,,,,,,,,,,,,,,,,,,
,,,,,2,2020-07-01_09h30.45.473,retriever_ti,2020.1.3,Win32,60,Firefox,1536,864,,,,,,,,,,,,,,,,,1,,,,,,,,,,,,,,,,,,,,,,,,,,,571.73,75,left,0.795,satellite_dish,2,10,-1,0,0,571.748,571.748,574.246,0,74,74,74,1,75,2,3,satellite_dish,parrot      ,html/resources/sequences_IDs/A/10_satellite_dish.jpg,html/resources/sequences_IDs/B/05_parrot.jpg,10,5,4,2,2,1,8,4,0,2,,,,,,,,,,,,,,,,,,,,
,,,,,2,2020-07-01_09h30.45.473,retriever_ti,2020.1.3,Win32,60,Firefox,1536,864,,,,,,,,,,,,,,,,,1,,,,,,,,,,,,,,,,,,,,,,,,,,,575.345,76,left,0.936,satellite_dish,2,10,1,1,0,575.365,575.365,577.859,0,75,75,75,1,76,2,1,satellite_dish,phone       ,html/resources/sequences_IDs/A/10_satellite_dish.jpg,html/resources/sequences_IDs/B/09_phone.jpg,10,9,4,2,4,2,8,7,1,2,,,,,,,,,,,,,,,,,,,,
,,,,,2,2020-07-01_09h30.45.473,retriever_ti,2020.1.3,Win32,60,Firefox,1536,864,,,,,,,,,,,,,,,,,1,,,,,,,,,,,,,,,,,,,,,,,,,,,578.959,77,left,0.706,satellite_dish,2,10,-6,0,3,578.996,578.996,581.491,0,76,76,76,1,77,2,8,satellite_dish,seaturtle     ,html/resources/sequences_IDs/A/10_satellite_dish.jpg,html/resources/sequences_IDs/A/02_seaturtle.jpg,10,2,4,2,2,1,8,1,0,2,,,,,,,,,,,,,,,,,,,,
,,,,,2,2020-07-01_09h30.45.473,retriever_ti,2020.1.3,Win32,60,Firefox,1536,864,,,,,,,,,,,,,,,,,,,,,,,,,,,,,,,,,,,,,0,5.976,,,,,,,,,,,,,,,,,,,,,,,,,,,,,,,,,,,,,,,,,0,0,0,0,1,,,,,,,,,,,,,,,
,,,,,2,2020-07-01_09h30.45.473,retriever_ti,2020.1.3,Win32,60,Firefox,1536,864,,,,,,,,,,,,,,,,,2,,,,,,,,,,,,,,,,,,,,,,,,,,,608.779,78,right,1.27,slipper     ,5,8,-3,0,3,608.814,608.814,611.312,0,0,0,0,1,78,8,5,seaturtle     ,slipper     ,html/resources/sequences_IDs/A/02_seaturtle.jpg,html/resources/sequences_IDs/B/08_slipper.jpg,2,8,2,1,3,2,1,6,0,2,,,,,,,,,,,,,,,,,,,,
,,,,,2,2020-07-01_09h30.45.473,retriever_ti,2020.1.3,Win32,60,Firefox,1536,864,,,,,,,,,,,,,,,,,2,,,,,,,,,,,,,,,,,,,,,,,,,,,611.931,79,left,0.613,dress         ,6,7,-1,0,0,611.951,611.951,614.443,0,1,1,1,1,79,6,7,dress         ,giraffe     ,html/resources/sequences_IDs/A/07_dress.jpg,html/resources/sequences_IDs/B/03_giraffe.jpg,7,3,3,2,1,1,5,2,0,2,,,,,,,,,,,,,,,,,,,,
,,,,,2,2020-07-01_09h30.45.473,retriever_ti,2020.1.3,Win32,60,Firefox,1536,864,,,,,,,,,,,,,,,,,2,,,,,,,,,,,,,,,,,,,,,,,,,,,615.543,80,right,0.858,clownfish     ,4,4,-1,0,1,615.58,615.58,618.075,0,2,2,2,1,80,5,4,slipper     ,clownfish     ,html/resources/sequences_IDs/B/08_slipper.jpg,html/resources/sequences_IDs/A/04_clownfish.jpg,8,4,3,2,2,1,6,3,1,2,,,,,,,,,,,,,,,,,,,,
,,,,,2,2020-07-01_09h30.45.473,retriever_ti,2020.1.3,Win32,60,Firefox,1536,864,,,,,,,,,,,,,,,,,2,,,,,,,,,,,,,,,,,,,,,,,,,,,619.175,81,right,1.221,phone       ,1,9,-7,0,3,619.211,619.211,621.707,0,3,3,3,1,81,8,1,seaturtle     ,phone       ,html/resources/sequences_IDs/A/02_seaturtle.jpg,html/resources/sequences_IDs/B/09_phone.jpg,2,9,2,1,4,2,1,7,0,2,,,,,,,,,,,,,,,,,,,,
,,,,,2,2020-07-01_09h30.45.473,retriever_ti,2020.1.3,Win32,60,Firefox,1536,864,,,,,,,,,,,,,,,,,2,,,,,,,,,,,,,,,,,,,,,,,,,,,622.324,82,left,0.516,clownfish     ,4,4,-2,0,3,622.346,622.346,624.839,0,4,4,4,1,82,4,6,clownfish     ,dress         ,html/resources/sequences_IDs/A/04_clownfish.jpg,html/resources/sequences_IDs/A/07_dress.jpg,4,7,2,1,3,2,3,5,0,2,,,,,,,,,,,,,,,,,,,,
,,,,,2,2020-07-01_09h30.45.473,retriever_ti,2020.1.3,Win32,60,Firefox,1536,864,,,,,,,,,,,,,,,,,2,,,,,,,,,,,,,,,,,,,,,,,,,,,625.455,83,left,0.789,satellite_dish,2,10,1,1,0,625.49,625.49,627.987,0,5,5,5,1,83,2,1,satellite_dish,phone       ,html/resources/sequences_IDs/A/10_satellite_dish.jpg,html/resources/sequences_IDs/B/09_phone.jpg,10,9,4,2,4,2,8,7,1,2,,,,,,,,,,,,,,,,,,,,
,,,,,2,2020-07-01_09h30.45.473,retriever_ti,2020.1.3,Win32,60,Firefox,1536,864,,,,,,,,,,,,,,,,,2,,,,,,,,,,,,,,,,,,,,,,,,,,,629.087,84,right,0.391,dress         ,6,7,1,1,0,629.123,629.123,631.618,0,6,6,6,1,84,5,6,slipper     ,dress         ,html/resources/sequences_IDs/B/08_slipper.jpg,html/resources/sequences_IDs/A/07_dress.jpg,8,7,3,2,3,2,6,5,1,2,,,,,,,,,,,,,,,,,,,,
,,,,,2,2020-07-01_09h30.45.473,retriever_ti,2020.1.3,Win32,60,Firefox,1536,864,,,,,,,,,,,,,,,,,2,,,,,,,,,,,,,,,,,,,,,,,,,,,632.719,85,left,0.426,dress         ,6,7,-1,0,1,632.737,632.737,635.234,0,7,7,7,1,85,6,7,dress         ,giraffe     ,html/resources/sequences_IDs/A/07_dress.jpg,html/resources/sequences_IDs/B/03_giraffe.jpg,7,3,3,2,1,1,5,2,1,2,,,,,,,,,,,,,,,,,,,,
,,,,,2,2020-07-01_09h30.45.473,retriever_ti,2020.1.3,Win32,60,Firefox,1536,864,,,,,,,,,,,,,,,,,2,,,,,,,,,,,,,,,,,,,,,,,,,,,636.334,86,right,0.62,giraffe     ,7,3,2,1,3,636.356,636.356,638.85,0,8,8,8,1,86,5,7,slipper     ,giraffe     ,html/resources/sequences_IDs/B/08_slipper.jpg,html/resources/sequences_IDs/B/03_giraffe.jpg,8,3,3,2,1,1,6,2,0,2,,,,,,,,,,,,,,,,,,,,
,,,,,2,2020-07-01_09h30.45.473,retriever_ti,2020.1.3,Win32,60,Firefox,1536,864,,,,,,,,,,,,,,,,,2,,,,,,,,,,,,,,,,,,,,,,,,,,,639.466,87,right,0.667,dress         ,6,7,-1,0,0,639.485,639.485,641.98,0,9,9,9,1,87,7,6,giraffe     ,dress         ,html/resources/sequences_IDs/B/03_giraffe.jpg,html/resources/sequences_IDs/A/07_dress.jpg,3,7,1,1,3,2,2,5,0,2,,,,,,,,,,,,,,,,,,,,
,,,,,2,2020-07-01_09h30.45.473,retriever_ti,2020.1.3,Win32,60,Firefox,1536,864,,,,,,,,,,,,,,,,,2,,,,,,,,,,,,,,,,,,,,,,,,,,,643.082,88,right,0.517,phone       ,1,9,-4,0,3,643.117,643.117,645.612,0,10,10,10,1,88,5,1,slipper     ,phone       ,html/resources/sequences_IDs/B/08_slipper.jpg,html/resources/sequences_IDs/B/09_phone.jpg,8,9,3,2,4,2,6,7,0,2,,,,,,,,,,,,,,,,,,,,
,,,,,2,2020-07-01_09h30.45.473,retriever_ti,2020.1.3,Win32,60,Firefox,1536,864,,,,,,,,,,,,,,,,,2,,,,,,,,,,,,,,,,,,,,,,,,,,,646.229,89,left,0.413,parrot      ,3,5,-2,0,3,646.266,646.266,648.76,0,11,11,11,1,89,3,5,parrot      ,slipper     ,html/resources/sequences_IDs/B/05_parrot.jpg,html/resources/sequences_IDs/B/08_slipper.jpg,5,8,2,1,3,2,4,6,0,2,,,,,,,,,,,,,,,,,,,,
,,,,,2,2020-07-01_09h30.45.473,retriever_ti,2020.1.3,Win32,60,Firefox,1536,864,,,,,,,,,,,,,,,,,2,,,,,,,,,,,,,,,,,,,,,,,,,,,649.361,90,left,0.971,slipper     ,5,8,-3,0,3,649.397,649.397,651.894,0,12,12,12,1,90,5,8,slipper     ,seaturtle     ,html/resources/sequences_IDs/B/08_slipper.jpg,html/resources/sequences_IDs/A/02_seaturtle.jpg,8,2,3,2,2,1,6,1,0,2,,,,,,,,,,,,,,,,,,,,
,,,,,2,2020-07-01_09h30.45.473,retriever_ti,2020.1.3,Win32,60,Firefox,1536,864,,,,,,,,,,,,,,,,,2,,,,,,,,,,,,,,,,,,,,,,,,,,,652.51,91,right,1.292,seaturtle     ,8,2,1,1,1,652.545,652.545,655.041,0,13,13,13,1,91,7,8,giraffe     ,seaturtle     ,html/resources/sequences_IDs/B/03_giraffe.jpg,html/resources/sequences_IDs/A/02_seaturtle.jpg,3,2,1,1,2,1,2,1,0,2,,,,,,,,,,,,,,,,,,,,
,,,,,2,2020-07-01_09h30.45.473,retriever_ti,2020.1.3,Win32,60,Firefox,1536,864,,,,,,,,,,,,,,,,,2,,,,,,,,,,,,,,,,,,,,,,,,,,,656.473,92,right,0.828,satellite_dish,2,10,1,1,1,657.688,657.688,660.172,0,14,14,14,1,92,1,2,phone       ,satellite_dish,html/resources/sequences_IDs/B/09_phone.jpg,html/resources/sequences_IDs/A/10_satellite_dish.jpg,9,10,4,2,4,2,7,8,0,2,,,,,,,,,,,,,,,,,,,,
,,,,,2,2020-07-01_09h30.45.473,retriever_ti,2020.1.3,Win32,60,Firefox,1536,864,,,,,,,,,,,,,,,,,2,,,,,,,,,,,,,,,,,,,,,,,,,,,661.272,93,left,0.89,satellite_dish,2,10,-1,0,0,661.31,661.31,663.803,0,15,15,15,1,93,2,3,satellite_dish,parrot      ,html/resources/sequences_IDs/A/10_satellite_dish.jpg,html/resources/sequences_IDs/B/05_parrot.jpg,10,5,4,2,2,1,8,4,0,2,,,,,,,,,,,,,,,,,,,,
,,,,,2,2020-07-01_09h30.45.473,retriever_ti,2020.1.3,Win32,60,Firefox,1536,864,,,,,,,,,,,,,,,,,2,,,,,,,,,,,,,,,,,,,,,,,,,,,664.905,94,right,0.457,satellite_dish,2,10,-1,0,0,664.926,664.926,667.419,0,16,16,16,1,94,3,2,parrot      ,satellite_dish,html/resources/sequences_IDs/B/05_parrot.jpg,html/resources/sequences_IDs/A/10_satellite_dish.jpg,5,10,2,1,4,2,4,8,0,2,,,,,,,,,,,,,,,,,,,,
,,,,,2,2020-07-01_09h30.45.473,retriever_ti,2020.1.3,Win32,60,Firefox,1536,864,,,,,,,,,,,,,,,,,2,,,,,,,,,,,,,,,,,,,,,,,,,,,668.519,95,left,0.34,dress         ,6,7,4,1,3,668.555,668.555,671.051,0,17,17,17,1,95,6,2,dress         ,satellite_dish,html/resources/sequences_IDs/A/07_dress.jpg,html/resources/sequences_IDs/A/10_satellite_dish.jpg,7,10,3,2,4,2,5,8,0,2,,,,,,,,,,,,,,,,,,,,
,,,,,2,2020-07-01_09h30.45.473,retriever_ti,2020.1.3,Win32,60,Firefox,1536,864,,,,,,,,,,,,,,,,,2,,,,,,,,,,,,,,,,,,,,,,,,,,,671.668,96,left,0.707,clownfish     ,4,4,-4,0,3,671.707,671.707,674.199,0,18,18,18,1,96,4,8,clownfish     ,seaturtle     ,html/resources/sequences_IDs/A/04_clownfish.jpg,html/resources/sequences_IDs/A/02_seaturtle.jpg,4,2,2,1,2,1,3,1,0,2,,,,,,,,,,,,,,,,,,,,
,,,,,2,2020-07-01_09h30.45.473,retriever_ti,2020.1.3,Win32,60,Firefox,1536,864,,,,,,,,,,,,,,,,,2,,,,,,,,,,,,,,,,,,,,,,,,,,,674.817,97,right,0.327,dress         ,6,7,5,1,3,674.836,674.836,677.333,0,19,19,19,1,97,1,6,phone       ,dress         ,html/resources/sequences_IDs/B/09_phone.jpg,html/resources/sequences_IDs/A/07_dress.jpg,9,7,4,2,3,2,7,5,0,2,,,,,,,,,,,,,,,,,,,,
,,,,,2,2020-07-01_09h30.45.473,retriever_ti,2020.1.3,Win32,60,Firefox,1536,864,,,,,,,,,,,,,,,,,2,,,,,,,,,,,,,,,,,,,,,,,,,,,677.948,98,left,0.469,seaturtle     ,8,2,6,1,3,677.986,677.986,680.481,0,20,20,20,1,98,8,2,seaturtle     ,satellite_dish,html/resources/sequences_IDs/A/02_seaturtle.jpg,html/resources/sequences_IDs/A/10_satellite_dish.jpg,2,10,2,1,4,2,1,8,0,2,,,,,,,,,,,,,,,,,,,,
,,,,,2,2020-07-01_09h30.45.473,retriever_ti,2020.1.3,Win32,60,Firefox,1536,864,,,,,,,,,,,,,,,,,2,,,,,,,,,,,,,,,,,,,,,,,,,,,681.097,99,right,0.355,dress         ,6,7,4,1,3,681.115,681.115,683.612,0,21,21,21,1,99,2,6,satellite_dish,dress         ,html/resources/sequences_IDs/A/10_satellite_dish.jpg,html/resources/sequences_IDs/A/07_dress.jpg,10,7,4,2,3,2,8,5,0,2,,,,,,,,,,,,,,,,,,,,
,,,,,2,2020-07-01_09h30.45.473,retriever_ti,2020.1.3,Win32,60,Firefox,1536,864,,,,,,,,,,,,,,,,,2,,,,,,,,,,,,,,,,,,,,,,,,,,,684.228,100,right,1.132,dress         ,6,7,-1,0,0,684.267,684.267,686.76,0,22,22,22,1,100,7,6,giraffe     ,dress         ,html/resources/sequences_IDs/B/03_giraffe.jpg,html/resources/sequences_IDs/A/07_dress.jpg,3,7,1,1,3,2,2,5,0,2,,,,,,,,,,,,,,,,,,,,
,,,,,2,2020-07-01_09h30.45.473,retriever_ti,2020.1.3,Win32,60,Firefox,1536,864,,,,,,,,,,,,,,,,,2,,,,,,,,,,,,,,,,,,,,,,,,,,,687.86,101,left,0.639,satellite_dish,2,10,-6,0,3,687.895,687.895,690.392,0,23,23,23,1,101,2,8,satellite_dish,seaturtle     ,html/resources/sequences_IDs/A/10_satellite_dish.jpg,html/resources/sequences_IDs/A/02_seaturtle.jpg,10,2,4,2,2,1,8,1,0,2,,,,,,,,,,,,,,,,,,,,
,,,,,2,2020-07-01_09h30.45.473,retriever_ti,2020.1.3,Win32,60,Firefox,1536,864,,,,,,,,,,,,,,,,,2,,,,,,,,,,,,,,,,,,,,,,,,,,,691.009,102,right,0.516,giraffe     ,7,3,4,1,3,691.03,691.03,693.523,0,24,24,24,1,102,3,7,parrot      ,giraffe     ,html/resources/sequences_IDs/B/05_parrot.jpg,html/resources/sequences_IDs/B/03_giraffe.jpg,5,3,2,1,1,1,4,2,0,2,,,,,,,,,,,,,,,,,,,,
,,,,,2,2020-07-01_09h30.45.473,retriever_ti,2020.1.3,Win32,60,Firefox,1536,864,,,,,,,,,,,,,,,,,2,,,,,,,,,,,,,,,,,,,,,,,,,,,694.124,103,left,0.585,satellite_dish,2,10,-1,0,0,694.161,694.161,696.656,0,25,25,25,1,103,2,3,satellite_dish,parrot      ,html/resources/sequences_IDs/A/10_satellite_dish.jpg,html/resources/sequences_IDs/B/05_parrot.jpg,10,5,4,2,2,1,8,4,0,2,,,,,,,,,,,,,,,,,,,,
,,,,,2,2020-07-01_09h30.45.473,retriever_ti,2020.1.3,Win32,60,Firefox,1536,864,,,,,,,,,,,,,,,,,2,,,,,,,,,,,,,,,,,,,,,,,,,,,697.756,104,right,0.532,parrot      ,3,5,-2,0,3,697.795,697.795,700.287,0,26,26,26,1,104,5,3,slipper     ,parrot      ,html/resources/sequences_IDs/B/08_slipper.jpg,html/resources/sequences_IDs/B/05_parrot.jpg,8,5,3,2,2,1,6,4,0,2,,,,,,,,,,,,,,,,,,,,
,,,,,2,2020-07-01_09h30.45.473,retriever_ti,2020.1.3,Win32,60,Firefox,1536,864,,,,,,,,,,,,,,,,,2,,,,,,,,,,,,,,,,,,,,,,,,,,,700.904,105,right,0.421,parrot      ,3,5,-4,0,3,700.923,700.923,703.419,0,27,27,27,1,105,7,3,giraffe     ,parrot      ,html/resources/sequences_IDs/B/03_giraffe.jpg,html/resources/sequences_IDs/B/05_parrot.jpg,3,5,1,1,2,1,2,4,0,2,,,,,,,,,,,,,,,,,,,,
,,,,,2,2020-07-01_09h30.45.473,retriever_ti,2020.1.3,Win32,60,Firefox,1536,864,,,,,,,,,,,,,,,,,2,,,,,,,,,,,,,,,,,,,,,,,,,,,704.038,106,left,0.677,satellite_dish,2,10,-3,0,3,704.073,704.073,706.568,0,28,28,28,1,106,2,5,satellite_dish,slipper     ,html/resources/sequences_IDs/A/10_satellite_dish.jpg,html/resources/sequences_IDs/B/08_slipper.jpg,10,8,4,2,3,2,8,6,0,2,,,,,,,,,,,,,,,,,,,,
,,,,,2,2020-07-01_09h30.45.473,retriever_ti,2020.1.3,Win32,60,Firefox,1536,864,,,,,,,,,,,,,,,,,2,,,,,,,,,,,,,,,,,,,,,,,,,,,707.185,107,left,1.169,giraffe     ,7,3,5,1,3,707.205,707.205,709.704,0,29,29,29,1,107,7,2,giraffe     ,satellite_dish,html/resources/sequences_IDs/B/03_giraffe.jpg,html/resources/sequences_IDs/A/10_satellite_dish.jpg,3,10,1,1,4,2,2,8,0,2,,,,,,,,,,,,,,,,,,,,
,,,,,2,2020-07-01_09h30.45.473,retriever_ti,2020.1.3,Win32,60,Firefox,1536,864,,,,,,,,,,,,,,,,,2,,,,,,,,,,,,,,,,,,,,,,,,,,,710.317,108,right,1.554,slipper     ,5,8,-1,0,0,710.355,710.355,712.848,0,30,30,30,1,108,6,5,dress         ,slipper     ,html/resources/sequences_IDs/A/07_dress.jpg,html/resources/sequences_IDs/B/08_slipper.jpg,7,8,3,2,3,2,5,6,0,2,,,,,,,,,,,,,,,,,,,,
,,,,,2,2020-07-01_09h30.45.473,retriever_ti,2020.1.3,Win32,60,Firefox,1536,864,,,,,,,,,,,,,,,,,2,,,,,,,,,,,,,,,,,,,,,,,,,,,713.949,109,left,0.987,clownfish     ,4,4,2,1,3,713.988,713.988,716.478,0,31,31,31,1,109,4,2,clownfish     ,satellite_dish,html/resources/sequences_IDs/A/04_clownfish.jpg,html/resources/sequences_IDs/A/10_satellite_dish.jpg,4,10,2,1,4,2,3,8,0,2,,,,,,,,,,,,,,,,,,,,
,,,,,2,2020-07-01_09h30.45.473,retriever_ti,2020.1.3,Win32,60,Firefox,1536,864,,,,,,,,,,,,,,,,,2,,,,,,,,,,,,,,,,,,,,,,,,,,,717.098,110,left,0.889,phone       ,1,9,-1,0,0,717.13,717.13,719.629,0,32,32,32,1,110,1,2,phone       ,satellite_dish,html/resources/sequences_IDs/B/09_phone.jpg,html/resources/sequences_IDs/A/10_satellite_dish.jpg,9,10,4,2,4,2,7,8,0,2,,,,,,,,,,,,,,,,,,,,
,,,,,2,2020-07-01_09h30.45.473,retriever_ti,2020.1.3,Win32,60,Firefox,1536,864,,,,,,,,,,,,,,,,,2,,,,,,,,,,,,,,,,,,,,,,,,,,,720.729,111,left,1.023,satellite_dish,2,10,1,1,1,720.748,720.748,723.245,0,33,33,33,1,111,2,1,satellite_dish,phone       ,html/resources/sequences_IDs/A/10_satellite_dish.jpg,html/resources/sequences_IDs/B/09_phone.jpg,10,9,4,2,4,2,8,7,0,2,,,,,,,,,,,,,,,,,,,,
,,,,,2,2020-07-01_09h30.45.473,retriever_ti,2020.1.3,Win32,60,Firefox,1536,864,,,,,,,,,,,,,,,,,2,,,,,,,,,,,,,,,,,,,,,,,,,,,724.344,112,left,0.924,dress         ,6,7,1,1,1,724.367,724.367,726.859,0,34,34,34,1,112,6,5,dress         ,slipper     ,html/resources/sequences_IDs/A/07_dress.jpg,html/resources/sequences_IDs/B/08_slipper.jpg,7,8,3,2,3,2,5,6,0,2,,,,,,,,,,,,,,,,,,,,
,,,,,2,2020-07-01_09h30.45.473,retriever_ti,2020.1.3,Win32,60,Firefox,1536,864,,,,,,,,,,,,,,,,,2,,,,,,,,,,,,,,,,,,,,,,,,,,,727.959,113,left,1.069,phone       ,1,9,-3,0,3,728.001,728.001,730.491,0,35,35,35,1,113,1,4,phone       ,clownfish     ,html/resources/sequences_IDs/B/09_phone.jpg,html/resources/sequences_IDs/A/04_clownfish.jpg,9,4,4,2,2,1,7,3,0,2,,,,,,,,,,,,,,,,,,,,
,,,,,2,2020-07-01_09h30.45.473,retriever_ti,2020.1.3,Win32,60,Firefox,1536,864,,,,,,,,,,,,,,,,,2,,,,,,,,,,,,,,,,,,,,,,,,,,,731.107,114,left,0.721,satellite_dish,2,10,-1,0,1,731.15,731.15,733.638,0,36,36,36,1,114,2,3,satellite_dish,parrot      ,html/resources/sequences_IDs/A/10_satellite_dish.jpg,html/resources/sequences_IDs/B/05_parrot.jpg,10,5,4,2,2,1,8,4,1,2,,,,,,,,,,,,,,,,,,,,
,,,,,2,2020-07-01_09h30.45.473,retriever_ti,2020.1.3,Win32,60,Firefox,1536,864,,,,,,,,,,,,,,,,,2,,,,,,,,,,,,,,,,,,,,,,,,,,,734.744,115,left,1.256,giraffe     ,7,3,2,1,3,734.78,734.78,737.273,0,37,37,37,1,115,7,5,giraffe     ,slipper     ,html/resources/sequences_IDs/B/03_giraffe.jpg,html/resources/sequences_IDs/B/08_slipper.jpg,3,8,1,1,3,2,2,6,0,2,,,,,,,,,,,,,,,,,,,,
,,,,,2,2020-07-01_09h30.45.473,retriever_ti,2020.1.3,Win32,60,Firefox,1536,864,,,,,,,,,,,,,,,,,2,,,,,,,,,,,,,,,,,,,,,,,,,,,737.888,116,right,1.086,giraffe     ,7,3,6,1,3,737.91,737.91,740.403,0,38,38,38,1,116,1,7,phone       ,giraffe     ,html/resources/sequences_IDs/B/09_phone.jpg,html/resources/sequences_IDs/B/03_giraffe.jpg,9,3,4,2,1,1,7,2,0,2,,,,,,,,,,,,,,,,,,,,
,,,,,2,2020-07-01_09h30.45.473,retriever_ti,2020.1.3,Win32,60,Firefox,1536,864,,,,,,,,,,,,,,,,,2,,,,,,,,,,,,,,,,,,,,,,,,,,,741.02,117,left,1.42,parrot      ,3,5,-1,0,0,741.041,741.041,743.536,0,39,39,39,1,117,3,4,parrot      ,clownfish     ,html/resources/sequences_IDs/B/05_parrot.jpg,html/resources/sequences_IDs/A/04_clownfish.jpg,5,4,2,1,2,1,4,3,0,2,,,,,,,,,,,,,,,,,,,,
,,,,,2,2020-07-01_09h30.45.473,retriever_ti,2020.1.3,Win32,60,Firefox,1536,864,,,,,,,,,,,,,,,,,2,,,,,,,,,,,,,,,,,,,,,,,,,,,744.634,118,left,1.493,parrot      ,3,5,2,1,3,744.671,744.671,747.166,0,40,40,40,1,118,3,1,parrot      ,phone       ,html/resources/sequences_IDs/B/05_parrot.jpg,html/resources/sequences_IDs/B/09_phone.jpg,5,9,2,1,4,2,4,7,0,2,,,,,,,,,,,,,,,,,,,,
,,,,,2,2020-07-01_09h30.45.473,retriever_ti,2020.1.3,Win32,60,Firefox,1536,864,,,,,,,,,,,,,,,,,2,,,,,,,,,,,,,,,,,,,,,,,,,,,747.783,119,right,0.725,seaturtle     ,8,2,1,1,1,747.803,747.803,750.298,0,41,41,41,1,119,7,8,giraffe     ,seaturtle     ,html/resources/sequences_IDs/B/03_giraffe.jpg,html/resources/sequences_IDs/A/02_seaturtle.jpg,3,2,1,1,2,1,2,1,0,2,,,,,,,,,,,,,,,,,,,,
,,,,,2,2020-07-01_09h30.45.473,retriever_ti,2020.1.3,Win32,60,Firefox,1536,864,,,,,,,,,,,,,,,,,2,,,,,,,,,,,,,,,,,,,,,,,,,,,751.398,120,left,0.885,phone       ,1,9,-4,0,3,751.421,751.421,753.913,0,42,42,42,1,120,1,5,phone       ,slipper     ,html/resources/sequences_IDs/B/09_phone.jpg,html/resources/sequences_IDs/B/08_slipper.jpg,9,8,4,2,3,2,7,6,0,2,,,,,,,,,,,,,,,,,,,,
,,,,,2,2020-07-01_09h30.45.473,retriever_ti,2020.1.3,Win32,60,Firefox,1536,864,,,,,,,,,,,,,,,,,2,,,,,,,,,,,,,,,,,,,,,,,,,,,754.531,121,left,0.821,parrot      ,3,5,-5,0,3,754.55,754.55,757.045,0,43,43,43,1,121,3,8,parrot      ,seaturtle     ,html/resources/sequences_IDs/B/05_parrot.jpg,html/resources/sequences_IDs/A/02_seaturtle.jpg,5,2,2,1,2,1,4,1,0,2,,,,,,,,,,,,,,,,,,,,
,,,,,2,2020-07-01_09h30.45.473,retriever_ti,2020.1.3,Win32,60,Firefox,1536,864,,,,,,,,,,,,,,,,,2,,,,,,,,,,,,,,,,,,,,,,,,,,,757.664,122,right,0.552,giraffe     ,7,3,3,1,3,757.68,757.68,760.177,0,44,44,44,1,122,4,7,clownfish     ,giraffe     ,html/resources/sequences_IDs/A/04_clownfish.jpg,html/resources/sequences_IDs/B/03_giraffe.jpg,4,3,2,1,1,1,3,2,0,2,,,,,,,,,,,,,,,,,,,,
,,,,,2,2020-07-01_09h30.45.473,retriever_ti,2020.1.3,Win32,60,Firefox,1536,864,,,,,,,,,,,,,,,,,2,,,,,,,,,,,,,,,,,,,,,,,,,,,760.794,123,left,0.486,giraffe     ,7,3,6,1,3,760.815,760.815,763.309,0,45,45,45,1,123,7,1,giraffe     ,phone       ,html/resources/sequences_IDs/B/03_giraffe.jpg,html/resources/sequences_IDs/B/09_phone.jpg,3,9,1,1,4,2,2,7,0,2,,,,,,,,,,,,,,,,,,,,
,,,,,2,2020-07-01_09h30.45.473,retriever_ti,2020.1.3,Win32,60,Firefox,1536,864,,,,,,,,,,,,,,,,,2,,,,,,,,,,,,,,,,,,,,,,,,,,,763.926,124,right,0.553,satellite_dish,2,10,-1,0,0,763.962,763.962,766.457,0,46,46,46,1,124,3,2,parrot      ,satellite_dish,html/resources/sequences_IDs/B/05_parrot.jpg,html/resources/sequences_IDs/A/10_satellite_dish.jpg,5,10,2,1,4,2,4,8,0,2,,,,,,,,,,,,,,,,,,,,
,,,,,2,2020-07-01_09h30.45.473,retriever_ti,2020.1.3,Win32,60,Firefox,1536,864,,,,,,,,,,,,,,,,,2,,,,,,,,,,,,,,,,,,,,,,,,,,,767.557,125,left,0.557,parrot      ,3,5,-1,0,0,767.576,767.576,770.074,0,47,47,47,1,125,3,4,parrot      ,clownfish     ,html/resources/sequences_IDs/B/05_parrot.jpg,html/resources/sequences_IDs/A/04_clownfish.jpg,5,4,2,1,2,1,4,3,0,2,,,,,,,,,,,,,,,,,,,,
,,,,,2,2020-07-01_09h30.45.473,retriever_ti,2020.1.3,Win32,60,Firefox,1536,864,,,,,,,,,,,,,,,,,2,,,,,,,,,,,,,,,,,,,,,,,,,,,771.173,126,right,0.469,clownfish     ,4,4,1,1,0,771.207,771.207,773.704,0,48,48,48,1,126,3,4,parrot      ,clownfish     ,html/resources/sequences_IDs/B/05_parrot.jpg,html/resources/sequences_IDs/A/04_clownfish.jpg,5,4,2,1,2,1,4,3,1,2,,,,,,,,,,,,,,,,,,,,
,,,,,2,2020-07-01_09h30.45.473,retriever_ti,2020.1.3,Win32,60,Firefox,1536,864,,,,,,,,,,,,,,,,,2,,,,,,,,,,,,,,,,,,,,,,,,,,,774.804,127,left,0.789,clownfish     ,4,4,-1,0,0,774.84,774.84,777.336,0,49,49,49,1,127,4,5,clownfish     ,slipper     ,html/resources/sequences_IDs/A/04_clownfish.jpg,html/resources/sequences_IDs/B/08_slipper.jpg,4,8,2,1,3,2,3,6,0,2,,,,,,,,,,,,,,,,,,,,
,,,,,2,2020-07-01_09h30.45.473,retriever_ti,2020.1.3,Win32,60,Firefox,1536,864,,,,,,,,,,,,,,,,,2,,,,,,,,,,,,,,,,,,,,,,,,,,,778.435,128,right,0.871,giraffe     ,7,3,-1,0,0,778.474,778.474,780.969,0,50,50,50,1,128,8,7,seaturtle     ,giraffe     ,html/resources/sequences_IDs/A/02_seaturtle.jpg,html/resources/sequences_IDs/B/03_giraffe.jpg,2,3,2,1,1,1,1,2,0,2,,,,,,,,,,,,,,,,,,,,
,,,,,2,2020-07-01_09h30.45.473,retriever_ti,2020.1.3,Win32,60,Firefox,1536,864,,,,,,,,,,,,,,,,,2,,,,,,,,,,,,,,,,,,,,,,,,,,,782.068,129,right,1.4,seaturtle     ,8,2,1,1,0,782.106,782.106,784.599,0,51,51,51,1,129,7,8,giraffe     ,seaturtle     ,html/resources/sequences_IDs/B/03_giraffe.jpg,html/resources/sequences_IDs/A/02_seaturtle.jpg,3,2,1,1,2,1,2,1,1,2,,,,,,,,,,,,,,,,,,,,
,,,,,2,2020-07-01_09h30.45.473,retriever_ti,2020.1.3,Win32,60,Firefox,1536,864,,,,,,,,,,,,,,,,,2,,,,,,,,,,,,,,,,,,,,,,,,,,,785.7,130,left,0.939,clownfish     ,4,4,-1,0,0,785.72,785.72,788.213,0,52,52,52,1,130,4,5,clownfish     ,slipper     ,html/resources/sequences_IDs/A/04_clownfish.jpg,html/resources/sequences_IDs/B/08_slipper.jpg,4,8,2,1,3,2,3,6,0,2,,,,,,,,,,,,,,,,,,,,
,,,,,2,2020-07-01_09h30.45.473,retriever_ti,2020.1.3,Win32,60,Firefox,1536,864,,,,,,,,,,,,,,,,,2,,,,,,,,,,,,,,,,,,,,,,,,,,,789.315,131,left,0.989,dress         ,6,7,-1,0,0,789.354,789.354,791.845,0,53,53,53,1,131,6,7,dress         ,giraffe     ,html/resources/sequences_IDs/A/07_dress.jpg,html/resources/sequences_IDs/B/03_giraffe.jpg,7,3,3,2,1,1,5,2,0,2,,,,,,,,,,,,,,,,,,,,
,,,,,2,2020-07-01_09h30.45.473,retriever_ti,2020.1.3,Win32,60,Firefox,1536,864,,,,,,,,,,,,,,,,,2,,,,,,,,,,,,,,,,,,,,,,,,,,,792.946,132,right,2.015,satellite_dish,2,10,-3,0,3,792.982,792.982,795.483,0,54,54,54,1,132,5,2,slipper     ,satellite_dish,html/resources/sequences_IDs/B/08_slipper.jpg,html/resources/sequences_IDs/A/10_satellite_dish.jpg,8,10,3,2,4,2,6,8,0,2,,,,,,,,,,,,,,,,,,,,
,,,,,2,2020-07-01_09h30.45.473,retriever_ti,2020.1.3,Win32,60,Firefox,1536,864,,,,,,,,,,,,,,,,,2,,,,,,,,,,,,,,,,,,,,,,,,,,,796.095,133,right,0.63,giraffe     ,7,3,-1,0,0,796.118,796.118,798.609,0,55,55,55,1,133,8,7,seaturtle     ,giraffe     ,html/resources/sequences_IDs/A/02_seaturtle.jpg,html/resources/sequences_IDs/B/03_giraffe.jpg,2,3,2,1,1,1,1,2,0,2,,,,,,,,,,,,,,,,,,,,
,,,,,2,2020-07-01_09h30.45.473,retriever_ti,2020.1.3,Win32,60,Firefox,1536,864,,,,,,,,,,,,,,,,,2,,,,,,,,,,,,,,,,,,,,,,,,,,,799.71,134,left,0.523,seaturtle     ,8,2,2,1,3,799.744,799.744,802.24,0,56,56,56,1,134,8,6,seaturtle     ,dress         ,html/resources/sequences_IDs/A/02_seaturtle.jpg,html/resources/sequences_IDs/A/07_dress.jpg,2,7,2,1,3,2,1,5,0,2,,,,,,,,,,,,,,,,,,,,
,,,,,2,2020-07-01_09h30.45.473,retriever_ti,2020.1.3,Win32,60,Firefox,1536,864,,,,,,,,,,,,,,,,,2,,,,,,,,,,,,,,,,,,,,,,,,,,,802.843,135,right,1.139,parrot      ,3,5,-3,0,3,802.878,802.878,805.372,0,57,57,57,1,135,6,3,dress         ,parrot      ,html/resources/sequences_IDs/A/07_dress.jpg,html/resources/sequences_IDs/B/05_parrot.jpg,7,5,3,2,2,1,5,4,0,2,,,,,,,,,,,,,,,,,,,,
,,,,,2,2020-07-01_09h30.45.473,retriever_ti,2020.1.3,Win32,60,Firefox,1536,864,,,,,,,,,,,,,,,,,2,,,,,,,,,,,,,,,,,,,,,,,,,,,805.99,136,left,1.755,slipper     ,5,8,-1,0,0,806.006,806.006,808.504,0,58,58,58,1,136,5,6,slipper     ,dress         ,html/resources/sequences_IDs/B/08_slipper.jpg,html/resources/sequences_IDs/A/07_dress.jpg,8,7,3,2,3,2,6,5,0,2,,,,,,,,,,,,,,,,,,,,
,,,,,2,2020-07-01_09h30.45.473,retriever_ti,2020.1.3,Win32,60,Firefox,1536,864,,,,,,,,,,,,,,,,,2,,,,,,,,,,,,,,,,,,,,,,,,,,,809.605,137,right,0.768,seaturtle     ,8,2,7,1,3,809.641,809.641,812.138,0,59,59,59,1,137,1,8,phone       ,seaturtle     ,html/resources/sequences_IDs/B/09_phone.jpg,html/resources/sequences_IDs/A/02_seaturtle.jpg,9,2,4,2,2,1,7,1,0,2,,,,,,,,,,,,,,,,,,,,
,,,,,2,2020-07-01_09h30.45.473,retriever_ti,2020.1.3,Win32,60,Firefox,1536,864,,,,,,,,,,,,,,,,,2,,,,,,,,,,,,,,,,,,,,,,,,,,,812.754,138,left,0.517,seaturtle     ,8,2,4,1,3,812.791,812.791,815.285,0,60,60,60,1,138,8,4,seaturtle     ,clownfish     ,html/resources/sequences_IDs/A/02_seaturtle.jpg,html/resources/sequences_IDs/A/04_clownfish.jpg,2,4,2,1,2,1,1,3,0,2,,,,,,,,,,,,,,,,,,,,
,,,,,2,2020-07-01_09h30.45.473,retriever_ti,2020.1.3,Win32,60,Firefox,1536,864,,,,,,,,,,,,,,,,,2,,,,,,,,,,,,,,,,,,,,,,,,,,,815.902,139,right,0.958,dress         ,6,7,1,1,1,815.921,815.921,818.417,0,61,61,61,1,139,5,6,slipper     ,dress         ,html/resources/sequences_IDs/B/08_slipper.jpg,html/resources/sequences_IDs/A/07_dress.jpg,8,7,3,2,3,2,6,5,0,2,,,,,,,,,,,,,,,,,,,,
,,,,,2,2020-07-01_09h30.45.473,retriever_ti,2020.1.3,Win32,60,Firefox,1536,864,,,,,,,,,,,,,,,,,2,,,,,,,,,,,,,,,,,,,,,,,,,,,819.519,140,left,1.589,clownfish     ,4,4,1,1,1,819.557,819.557,822.048,0,62,62,62,1,140,4,3,clownfish     ,parrot      ,html/resources/sequences_IDs/A/04_clownfish.jpg,html/resources/sequences_IDs/B/05_parrot.jpg,4,5,2,1,2,1,3,4,0,2,,,,,,,,,,,,,,,,,,,,
,,,,,2,2020-07-01_09h30.45.473,retriever_ti,2020.1.3,Win32,60,Firefox,1536,864,,,,,,,,,,,,,,,,,2,,,,,,,,,,,,,,,,,,,,,,,,,,,823.149,141,right,0.674,seaturtle     ,8,2,2,1,3,823.168,823.168,825.663,0,63,63,63,1,141,6,8,dress         ,seaturtle     ,html/resources/sequences_IDs/A/07_dress.jpg,html/resources/sequences_IDs/A/02_seaturtle.jpg,7,2,3,2,2,1,5,1,0,2,,,,,,,,,,,,,,,,,,,,
,,,,,2,2020-07-01_09h30.45.473,retriever_ti,2020.1.3,Win32,60,Firefox,1536,864,,,,,,,,,,,,,,,,,2,,,,,,,,,,,,,,,,,,,,,,,,,,,826.282,142,left,1.006,dress         ,6,7,5,1,3,826.305,826.305,828.795,0,64,64,64,1,142,6,1,dress         ,phone       ,html/resources/sequences_IDs/A/07_dress.jpg,html/resources/sequences_IDs/B/09_phone.jpg,7,9,3,2,4,2,5,7,0,2,,,,,,,,,,,,,,,,,,,,
,,,,,2,2020-07-01_09h30.45.473,retriever_ti,2020.1.3,Win32,60,Firefox,1536,864,,,,,,,,,,,,,,,,,2,,,,,,,,,,,,,,,,,,,,,,,,,,,829.413,143,right,0.505,parrot      ,3,5,2,1,3,829.431,829.431,831.928,0,65,65,65,1,143,1,3,phone       ,parrot      ,html/resources/sequences_IDs/B/09_phone.jpg,html/resources/sequences_IDs/B/05_parrot.jpg,9,5,4,2,2,1,7,4,0,2,,,,,,,,,,,,,,,,,,,,
,,,,,2,2020-07-01_09h30.45.473,retriever_ti,2020.1.3,Win32,60,Firefox,1536,864,,,,,,,,,,,,,,,,,2,,,,,,,,,,,,,,,,,,,,,,,,,,,832.545,144,left,1.237,satellite_dish,2,10,1,1,1,832.581,832.581,835.077,0,66,66,66,1,144,2,1,satellite_dish,phone       ,html/resources/sequences_IDs/A/10_satellite_dish.jpg,html/resources/sequences_IDs/B/09_phone.jpg,10,9,4,2,4,2,8,7,0,2,,,,,,,,,,,,,,,,,,,,
,,,,,2,2020-07-01_09h30.45.473,retriever_ti,2020.1.3,Win32,60,Firefox,1536,864,,,,,,,,,,,,,,,,,2,,,,,,,,,,,,,,,,,,,,,,,,,,,836.176,145,left,1.516,slipper     ,5,8,1,1,1,836.213,836.213,838.709,0,67,67,67,1,145,5,4,slipper     ,clownfish     ,html/resources/sequences_IDs/B/08_slipper.jpg,html/resources/sequences_IDs/A/04_clownfish.jpg,8,4,3,2,2,1,6,3,0,2,,,,,,,,,,,,,,,,,,,,
,,,,,2,2020-07-01_09h30.45.473,retriever_ti,2020.1.3,Win32,60,Firefox,1536,864,,,,,,,,,,,,,,,,,2,,,,,,,,,,,,,,,,,,,,,,,,,,,839.808,146,left,1.853,clownfish     ,4,4,1,1,1,839.845,839.845,842.339,0,68,68,68,1,146,4,3,clownfish     ,parrot      ,html/resources/sequences_IDs/A/04_clownfish.jpg,html/resources/sequences_IDs/B/05_parrot.jpg,4,5,2,1,2,1,3,4,0,2,,,,,,,,,,,,,,,,,,,,
,,,,,2,2020-07-01_09h30.45.473,retriever_ti,2020.1.3,Win32,60,Firefox,1536,864,,,,,,,,,,,,,,,,,2,,,,,,,,,,,,,,,,,,,,,,,,,,,843.44,147,right,1.014,giraffe     ,7,3,5,1,3,843.459,843.459,845.955,0,69,69,69,1,147,2,7,satellite_dish,giraffe     ,html/resources/sequences_IDs/A/10_satellite_dish.jpg,html/resources/sequences_IDs/B/03_giraffe.jpg,10,3,4,2,1,1,8,2,0,2,,,,,,,,,,,,,,,,,,,,
,,,,,2,2020-07-01_09h30.45.473,retriever_ti,2020.1.3,Win32,60,Firefox,1536,864,,,,,,,,,,,,,,,,,2,,,,,,,,,,,,,,,,,,,,,,,,,,,846.573,148,left,1.269,seaturtle     ,8,2,5,1,3,846.609,846.609,849.103,0,70,70,70,1,148,8,3,seaturtle     ,parrot      ,html/resources/sequences_IDs/A/02_seaturtle.jpg,html/resources/sequences_IDs/B/05_parrot.jpg,2,5,2,1,2,1,1,4,0,2,,,,,,,,,,,,,,,,,,,,
,,,,,2,2020-07-01_09h30.45.473,retriever_ti,2020.1.3,Win32,60,Firefox,1536,864,,,,,,,,,,,,,,,,,2,,,,,,,,,,,,,,,,,,,,,,,,,,,849.72,149,right,0.841,dress         ,6,7,3,1,3,849.739,849.739,852.235,0,71,71,71,1,149,3,6,parrot      ,dress         ,html/resources/sequences_IDs/B/05_parrot.jpg,html/resources/sequences_IDs/A/07_dress.jpg,5,7,2,1,3,2,4,5,0,2,,,,,,,,,,,,,,,,,,,,
,,,,,2,2020-07-01_09h30.45.473,retriever_ti,2020.1.3,Win32,60,Firefox,1536,864,,,,,,,,,,,,,,,,,2,,,,,,,,,,,,,,,,,,,,,,,,,,,852.852,150,left,0.958,satellite_dish,2,10,-2,0,3,852.888,852.888,855.383,0,72,72,72,1,150,2,4,satellite_dish,clownfish     ,html/resources/sequences_IDs/A/10_satellite_dish.jpg,html/resources/sequences_IDs/A/04_clownfish.jpg,10,4,4,2,2,1,8,3,0,2,,,,,,,,,,,,,,,,,,,,
,,,,,2,2020-07-01_09h30.45.473,retriever_ti,2020.1.3,Win32,60,Firefox,1536,864,,,,,,,,,,,,,,,,,2,,,,,,,,,,,,,,,,,,,,,,,,,,,856.001,151,left,0.69,clownfish     ,4,4,3,1,3,856.022,856.022,858.515,0,73,73,73,1,151,4,1,clownfish     ,phone       ,html/resources/sequences_IDs/A/04_clownfish.jpg,html/resources/sequences_IDs/B/09_phone.jpg,4,9,2,1,4,2,3,7,0,2,,,,,,,,,,,,,,,,,,,,
,,,,,2,2020-07-01_09h30.45.473,retriever_ti,2020.1.3,Win32,60,Firefox,1536,864,,,,,,,,,,,,,,,,,2,,,,,,,,,,,,,,,,,,,,,,,,,,,859.133,152,right,0.337,clownfish     ,4,4,-1,0,0,859.169,859.169,861.664,0,74,74,74,1,152,5,4,slipper     ,clownfish     ,html/resources/sequences_IDs/B/08_slipper.jpg,html/resources/sequences_IDs/A/04_clownfish.jpg,8,4,3,2,2,1,6,3,0,2,,,,,,,,,,,,,,,,,,,,
,,,,,2,2020-07-01_09h30.45.473,retriever_ti,2020.1.3,Win32,60,Firefox,1536,864,,,,,,,,,,,,,,,,,2,,,,,,,,,,,,,,,,,,,,,,,,,,,862.766,153,left,0.848,giraffe     ,7,3,3,1,3,862.799,862.799,865.296,0,75,75,75,1,153,7,4,giraffe     ,clownfish     ,html/resources/sequences_IDs/B/03_giraffe.jpg,html/resources/sequences_IDs/A/04_clownfish.jpg,3,4,1,1,2,1,2,3,0,2,,,,,,,,,,,,,,,,,,,,
,,,,,2,2020-07-01_09h30.45.473,retriever_ti,2020.1.3,Win32,60,Firefox,1536,864,,,,,,,,,,,,,,,,,2,,,,,,,,,,,,,,,,,,,,,,,,,,,865.914,154,left,0.805,dress         ,6,7,2,1,3,865.932,865.932,868.428,0,76,76,76,1,154,6,4,dress         ,clownfish     ,html/resources/sequences_IDs/A/07_dress.jpg,html/resources/sequences_IDs/A/04_clownfish.jpg,7,4,3,2,2,1,5,3,0,2,,,,,,,,,,,,,,,,,,,,
,,,,,2,2020-07-01_09h30.45.473,retriever_ti,2020.1.3,Win32,60,Firefox,1536,864,,,,,,,,,,,,,,,,,,,,,,,,,,,,,,,,,,,,,0,4.858,,,,,,,,,,,,,,,,,,,,,,,,,,,,,,,,,,,,,,,,,1,0,1,0,1,,,,,,,,,,,,,,,
,,,,,2,2020-07-01_09h30.45.473,retriever_ti,2020.1.3,Win32,60,Firefox,1536,864,,,,,,,,,,,,,,,,,3,,,,,,,,,,,,,,,,,,,,,,,,,,,911.633,155,right,1.343,giraffe     ,7,3,4,1,3,911.641,911.641,914.14,0,0,0,0,1,155,3,7,parrot      ,giraffe     ,html/resources/sequences_IDs/B/05_parrot.jpg,html/resources/sequences_IDs/B/03_giraffe.jpg,5,3,2,1,1,1,4,2,0,2,,,,,,,,,,,,,,,,,,,,
,,,,,2,2020-07-01_09h30.45.473,retriever_ti,2020.1.3,Win32,60,Firefox,1536,864,,,,,,,,,,,,,,,,,3,,,,,,,,,,,,,,,,,,,,,,,,,,,914.758,156,left,0.592,giraffe     ,7,3,3,1,3,914.775,914.775,917.272,0,1,1,1,1,156,7,4,giraffe     ,clownfish     ,html/resources/sequences_IDs/B/03_giraffe.jpg,html/resources/sequences_IDs/A/04_clownfish.jpg,3,4,1,1,2,1,2,3,0,2,,,,,,,,,,,,,,,,,,,,
,,,,,2,2020-07-01_09h30.45.473,retriever_ti,2020.1.3,Win32,60,Firefox,1536,864,,,,,,,,,,,,,,,,,3,,,,,,,,,,,,,,,,,,,,,,,,,,,917.89,157,left,0.54,giraffe     ,7,3,-1,0,0,917.925,917.925,920.42,0,2,2,2,1,157,7,8,giraffe     ,seaturtle     ,html/resources/sequences_IDs/B/03_giraffe.jpg,html/resources/sequences_IDs/A/02_seaturtle.jpg,3,2,1,1,2,1,2,1,0,2,,,,,,,,,,,,,,,,,,,,
,,,,,2,2020-07-01_09h30.45.473,retriever_ti,2020.1.3,Win32,60,Firefox,1536,864,,,,,,,,,,,,,,,,,3,,,,,,,,,,,,,,,,,,,,,,,,,,,921.525,158,NaN,NaN,No_response,NaN,NaN,NaN,2,2,921.539,921.539,924.036,0,3,3,3,1,158,2,3,satellite_dish,parrot      ,html/resources/sequences_IDs/A/10_satellite_dish.jpg,html/resources/sequences_IDs/B/05_parrot.jpg,10,5,4,2,2,1,8,4,0,2,,,,,,,,,,,,,,,,,,,,
,,,,,2,2020-07-01_09h30.45.473,retriever_ti,2020.1.3,Win32,60,Firefox,1536,864,,,,,,,,,,,,,,,,,3,,,,,,,,,,,,,,,,,,,,,,,,,,,925.136,159,right,0.699,satellite_dish,2,10,-3,0,3,925.175,925.175,927.668,0,4,4,4,1,159,5,2,slipper     ,satellite_dish,html/resources/sequences_IDs/B/08_slipper.jpg,html/resources/sequences_IDs/A/10_satellite_dish.jpg,8,10,3,2,4,2,6,8,0,2,,,,,,,,,,,,,,,,,,,,
,,,,,2,2020-07-01_09h30.45.473,retriever_ti,2020.1.3,Win32,60,Firefox,1536,864,,,,,,,,,,,,,,,,,3,,,,,,,,,,,,,,,,,,,,,,,,,,,928.284,160,left,0.591,parrot      ,3,5,-3,0,3,928.321,928.321,930.816,0,5,5,5,1,160,3,6,parrot      ,dress         ,html/resources/sequences_IDs/B/05_parrot.jpg,html/resources/sequences_IDs/A/07_dress.jpg,5,7,2,1,3,2,4,5,0,2,,,,,,,,,,,,,,,,,,,,
,,,,,2,2020-07-01_09h30.45.473,retriever_ti,2020.1.3,Win32,60,Firefox,1536,864,,,,,,,,,,,,,,,,,3,,,,,,,,,,,,,,,,,,,,,,,,,,,931.433,161,left,0.393,parrot      ,3,5,-2,0,3,931.467,931.467,933.964,0,6,6,6,1,161,3,5,parrot      ,slipper     ,html/resources/sequences_IDs/B/05_parrot.jpg,html/resources/sequences_IDs/B/08_slipper.jpg,5,8,2,1,3,2,4,6,0,2,,,,,,,,,,,,,,,,,,,,
,,,,,2,2020-07-01_09h30.45.473,retriever_ti,2020.1.3,Win32,60,Firefox,1536,864,,,,,,,,,,,,,,,,,3,,,,,,,,,,,,,,,,,,,,,,,,,,,934.583,162,right,0.573,satellite_dish,2,10,-6,0,3,934.601,934.601,937.096,0,7,7,7,1,162,8,2,seaturtle     ,satellite_dish,html/resources/sequences_IDs/A/02_seaturtle.jpg,html/resources/sequences_IDs/A/10_satellite_dish.jpg,2,10,2,1,4,2,1,8,0,2,,,,,,,,,,,,,,,,,,,,
,,,,,2,2020-07-01_09h30.45.473,retriever_ti,2020.1.3,Win32,60,Firefox,1536,864,,,,,,,,,,,,,,,,,3,,,,,,,,,,,,,,,,,,,,,,,,,,,937.713,163,right,0.589,parrot      ,3,5,-1,0,1,937.735,937.735,940.229,0,8,8,8,1,163,4,3,clownfish     ,parrot      ,html/resources/sequences_IDs/A/04_clownfish.jpg,html/resources/sequences_IDs/B/05_parrot.jpg,4,5,2,1,2,1,3,4,1,2,,,,,,,,,,,,,,,,,,,,
,,,,,2,2020-07-01_09h30.45.473,retriever_ti,2020.1.3,Win32,60,Firefox,1536,864,,,,,,,,,,,,,,,,,3,,,,,,,,,,,,,,,,,,,,,,,,,,,941.329,164,left,0.722,clownfish     ,4,4,-4,0,3,941.348,941.348,943.845,0,9,9,9,1,164,4,8,clownfish     ,seaturtle     ,html/resources/sequences_IDs/A/04_clownfish.jpg,html/resources/sequences_IDs/A/02_seaturtle.jpg,4,2,2,1,2,1,3,1,0,2,,,,,,,,,,,,,,,,,,,,
,,,,,2,2020-07-01_09h30.45.473,retriever_ti,2020.1.3,Win32,60,Firefox,1536,864,,,,,,,,,,,,,,,,,3,,,,,,,,,,,,,,,,,,,,,,,,,,,944.46,165,right,0.701,clownfish     ,4,4,-1,0,0,944.482,944.482,946.976,0,10,10,10,1,165,5,4,slipper     ,clownfish     ,html/resources/sequences_IDs/B/08_slipper.jpg,html/resources/sequences_IDs/A/04_clownfish.jpg,8,4,3,2,2,1,6,3,0,2,,,,,,,,,,,,,,,,,,,,
,,,,,2,2020-07-01_09h30.45.473,retriever_ti,2020.1.3,Win32,60,Firefox,1536,864,,,,,,,,,,,,,,,,,3,,,,,,,,,,,,,,,,,,,,,,,,,,,948.076,166,right,1.121,giraffe     ,7,3,1,1,1,948.116,948.116,950.607,0,11,11,11,1,166,6,7,dress         ,giraffe     ,html/resources/sequences_IDs/A/07_dress.jpg,html/resources/sequences_IDs/B/03_giraffe.jpg,7,3,3,2,1,1,5,2,0,2,,,,,,,,,,,,,,,,,,,,
,,,,,2,2020-07-01_09h30.45.473,retriever_ti,2020.1.3,Win32,60,Firefox,1536,864,,,,,,,,,,,,,,,,,3,,,,,,,,,,,,,,,,,,,,,,,,,,,951.707,167,right,0.809,satellite_dish,2,10,1,1,1,951.726,951.726,954.222,0,12,12,12,1,167,1,2,phone       ,satellite_dish,html/resources/sequences_IDs/B/09_phone.jpg,html/resources/sequences_IDs/A/10_satellite_dish.jpg,9,10,4,2,4,2,7,8,0,2,,,,,,,,,,,,,,,,,,,,
,,,,,2,2020-07-01_09h30.45.473,retriever_ti,2020.1.3,Win32,60,Firefox,1536,864,,,,,,,,,,,,,,,,,3,,,,,,,,,,,,,,,,,,,,,,,,,,,955.323,168,left,0.97,satellite_dish,2,10,1,1,1,955.361,955.361,957.856,0,13,13,13,1,168,2,1,satellite_dish,phone       ,html/resources/sequences_IDs/A/10_satellite_dish.jpg,html/resources/sequences_IDs/B/09_phone.jpg,10,9,4,2,4,2,8,7,0,2,,,,,,,,,,,,,,,,,,,,
,,,,,2,2020-07-01_09h30.45.473,retriever_ti,2020.1.3,Win32,60,Firefox,1536,864,,,,,,,,,,,,,,,,,3,,,,,,,,,,,,,,,,,,,,,,,,,,,958.954,169,left,0.707,clownfish     ,4,4,-1,0,1,958.978,958.978,961.471,0,14,14,14,1,169,4,5,clownfish     ,slipper     ,html/resources/sequences_IDs/A/04_clownfish.jpg,html/resources/sequences_IDs/B/08_slipper.jpg,4,8,2,1,3,2,3,6,1,2,,,,,,,,,,,,,,,,,,,,
,,,,,2,2020-07-01_09h30.45.473,retriever_ti,2020.1.3,Win32,60,Firefox,1536,864,,,,,,,,,,,,,,,,,3,,,,,,,,,,,,,,,,,,,,,,,,,,,962.569,170,left,1.274,giraffe     ,7,3,5,1,3,962.588,962.588,965.084,0,15,15,15,1,170,7,2,giraffe     ,satellite_dish,html/resources/sequences_IDs/B/03_giraffe.jpg,html/resources/sequences_IDs/A/10_satellite_dish.jpg,3,10,1,1,4,2,2,8,0,2,,,,,,,,,,,,,,,,,,,,
,,,,,2,2020-07-01_09h30.45.473,retriever_ti,2020.1.3,Win32,60,Firefox,1536,864,,,,,,,,,,,,,,,,,3,,,,,,,,,,,,,,,,,,,,,,,,,,,965.701,171,left,0.988,seaturtle     ,8,2,3,1,3,965.722,965.722,968.216,0,16,16,16,1,171,8,5,seaturtle     ,slipper     ,html/resources/sequences_IDs/A/02_seaturtle.jpg,html/resources/sequences_IDs/B/08_slipper.jpg,2,8,2,1,3,2,1,6,0,2,,,,,,,,,,,,,,,,,,,,
,,,,,2,2020-07-01_09h30.45.473,retriever_ti,2020.1.3,Win32,60,Firefox,1536,864,,,,,,,,,,,,,,,,,3,,,,,,,,,,,,,,,,,,,,,,,,,,,968.833,172,left,1.218,parrot      ,3,5,2,1,3,968.869,968.869,971.364,0,17,17,17,1,172,3,1,parrot      ,phone       ,html/resources/sequences_IDs/B/05_parrot.jpg,html/resources/sequences_IDs/B/09_phone.jpg,5,9,2,1,4,2,4,7,0,2,,,,,,,,,,,,,,,,,,,,
,,,,,2,2020-07-01_09h30.45.473,retriever_ti,2020.1.3,Win32,60,Firefox,1536,864,,,,,,,,,,,,,,,,,3,,,,,,,,,,,,,,,,,,,,,,,,,,,971.982,173,right,0.655,satellite_dish,2,10,1,1,1,972.016,972.016,974.513,0,18,18,18,1,173,1,2,phone       ,satellite_dish,html/resources/sequences_IDs/B/09_phone.jpg,html/resources/sequences_IDs/A/10_satellite_dish.jpg,9,10,4,2,4,2,7,8,0,2,,,,,,,,,,,,,,,,,,,,
,,,,,2,2020-07-01_09h30.45.473,retriever_ti,2020.1.3,Win32,60,Firefox,1536,864,,,,,,,,,,,,,,,,,3,,,,,,,,,,,,,,,,,,,,,,,,,,,975.613,174,right,0.821,slipper     ,5,8,4,1,3,975.652,975.652,978.144,0,19,19,19,1,174,1,5,phone       ,slipper     ,html/resources/sequences_IDs/B/09_phone.jpg,html/resources/sequences_IDs/B/08_slipper.jpg,9,8,4,2,3,2,7,6,0,2,,,,,,,,,,,,,,,,,,,,
,,,,,2,2020-07-01_09h30.45.473,retriever_ti,2020.1.3,Win32,60,Firefox,1536,864,,,,,,,,,,,,,,,,,3,,,,,,,,,,,,,,,,,,,,,,,,,,,978.762,175,right,0.842,giraffe     ,7,3,6,1,3,978.798,978.798,981.293,0,20,20,20,1,175,1,7,phone       ,giraffe     ,html/resources/sequences_IDs/B/09_phone.jpg,html/resources/sequences_IDs/B/03_giraffe.jpg,9,3,4,2,1,1,7,2,0,2,,,,,,,,,,,,,,,,,,,,
,,,,,2,2020-07-01_09h30.45.473,retriever_ti,2020.1.3,Win32,60,Firefox,1536,864,,,,,,,,,,,,,,,,,3,,,,,,,,,,,,,,,,,,,,,,,,,,,981.91,176,left,0.74,satellite_dish,2,10,-6,0,3,981.929,981.929,984.424,0,21,21,21,1,176,2,8,satellite_dish,seaturtle     ,html/resources/sequences_IDs/A/10_satellite_dish.jpg,html/resources/sequences_IDs/A/02_seaturtle.jpg,10,2,4,2,2,1,8,1,0,2,,,,,,,,,,,,,,,,,,,,
,,,,,2,2020-07-01_09h30.45.473,retriever_ti,2020.1.3,Win32,60,Firefox,1536,864,,,,,,,,,,,,,,,,,3,,,,,,,,,,,,,,,,,,,,,,,,,,,985.044,177,right,0.626,parrot      ,3,5,-1,0,0,985.062,985.062,987.557,0,22,22,22,1,177,4,3,clownfish     ,parrot      ,html/resources/sequences_IDs/A/04_clownfish.jpg,html/resources/sequences_IDs/B/05_parrot.jpg,4,5,2,1,2,1,3,4,0,2,,,,,,,,,,,,,,,,,,,,
,,,,,2,2020-07-01_09h30.45.473,retriever_ti,2020.1.3,Win32,60,Firefox,1536,864,,,,,,,,,,,,,,,,,3,,,,,,,,,,,,,,,,,,,,,,,,,,,988.658,178,left,0.739,phone       ,1,9,-7,0,3,988.695,988.695,991.188,0,23,23,23,1,178,1,8,phone       ,seaturtle     ,html/resources/sequences_IDs/B/09_phone.jpg,html/resources/sequences_IDs/A/02_seaturtle.jpg,9,2,4,2,2,1,7,1,0,2,,,,,,,,,,,,,,,,,,,,
,,,,,2,2020-07-01_09h30.45.473,retriever_ti,2020.1.3,Win32,60,Firefox,1536,864,,,,,,,,,,,,,,,,,3,,,,,,,,,,,,,,,,,,,,,,,,,,,991.79,179,right,1.681,phone       ,1,9,-7,0,3,991.826,991.826,994.324,0,24,24,24,1,179,8,1,seaturtle     ,phone       ,html/resources/sequences_IDs/A/02_seaturtle.jpg,html/resources/sequences_IDs/B/09_phone.jpg,2,9,2,1,4,2,1,7,0,2,,,,,,,,,,,,,,,,,,,,
,,,,,2,2020-07-01_09h30.45.473,retriever_ti,2020.1.3,Win32,60,Firefox,1536,864,,,,,,,,,,,,,,,,,3,,,,,,,,,,,,,,,,,,,,,,,,,,,994.938,180,right,0.731,seaturtle     ,8,2,5,1,3,994.955,994.955,997.453,0,25,25,25,1,180,3,8,parrot      ,seaturtle     ,html/resources/sequences_IDs/B/05_parrot.jpg,html/resources/sequences_IDs/A/02_seaturtle.jpg,5,2,2,1,2,1,4,1,0,2,,,,,,,,,,,,,,,,,,,,
,,,,,2,2020-07-01_09h30.45.473,retriever_ti,2020.1.3,Win32,60,Firefox,1536,864,,,,,,,,,,,,,,,,,3,,,,,,,,,,,,,,,,,,,,,,,,,,,998.07,181,left,0.899,dress         ,6,7,1,1,0,998.107,998.107,1000.601,0,26,26,26,1,181,6,5,dress         ,slipper     ,html/resources/sequences_IDs/A/07_dress.jpg,html/resources/sequences_IDs/B/08_slipper.jpg,7,8,3,2,3,2,5,6,1,2,,,,,,,,,,,,,,,,,,,,
,,,,,2,2020-07-01_09h30.45.473,retriever_ti,2020.1.3,Win32,60,Firefox,1536,864,,,,,,,,,,,,,,,,,3,,,,,,,,,,,,,,,,,,,,,,,,,,,1001.702,182,right,0.956,parrot      ,3,5,-1,0,0,1001.737,1001.737,1004.234,0,27,27,27,1,182,4,3,clownfish     ,parrot      ,html/resources/sequences_IDs/A/04_clownfish.jpg,html/resources/sequences_IDs/B/05_parrot.jpg,4,5,2,1,2,1,3,4,0,2,,,,,,,,,,,,,,,,,,,,
,,,,,2,2020-07-01_09h30.45.473,retriever_ti,2020.1.3,Win32,60,Firefox,1536,864,,,,,,,,,,,,,,,,,3,,,,,,,,,,,,,,,,,,,,,,,,,,,1005.333,183,right,0.523,parrot      ,3,5,-3,0,3,1005.369,1005.369,1007.865,0,28,28,28,1,183,6,3,dress         ,parrot      ,html/resources/sequences_IDs/A/07_dress.jpg,html/resources/sequences_IDs/B/05_parrot.jpg,7,5,3,2,2,1,5,4,0,2,,,,,,,,,,,,,,,,,,,,
,,,,,2,2020-07-01_09h30.45.473,retriever_ti,2020.1.3,Win32,60,Firefox,1536,864,,,,,,,,,,,,,,,,,3,,,,,,,,,,,,,,,,,,,,,,,,,,,1008.482,184,right,0.637,satellite_dish,2,10,1,1,0,1008.517,1008.517,1011.013,0,29,29,29,1,184,1,2,phone       ,satellite_dish,html/resources/sequences_IDs/B/09_phone.jpg,html/resources/sequences_IDs/A/10_satellite_dish.jpg,9,10,4,2,4,2,7,8,1,2,,,,,,,,,,,,,,,,,,,,
,,,,,2,2020-07-01_09h30.45.473,retriever_ti,2020.1.3,Win32,60,Firefox,1536,864,,,,,,,,,,,,,,,,,3,,,,,,,,,,,,,,,,,,,,,,,,,,,1012.114,185,left,0.559,satellite_dish,2,10,-1,0,0,1012.131,1012.131,1014.628,0,30,30,30,1,185,2,3,satellite_dish,parrot      ,html/resources/sequences_IDs/A/10_satellite_dish.jpg,html/resources/sequences_IDs/B/05_parrot.jpg,10,5,4,2,2,1,8,4,0,2,,,,,,,,,,,,,,,,,,,,
,,,,,2,2020-07-01_09h30.45.473,retriever_ti,2020.1.3,Win32,60,Firefox,1536,864,,,,,,,,,,,,,,,,,3,,,,,,,,,,,,,,,,,,,,,,,,,,,1015.728,186,right,0.39,satellite_dish,2,10,-2,0,3,1015.748,1015.748,1018.243,0,31,31,31,1,186,4,2,clownfish     ,satellite_dish,html/resources/sequences_IDs/A/04_clownfish.jpg,html/resources/sequences_IDs/A/10_satellite_dish.jpg,4,10,2,1,4,2,3,8,0,2,,,,,,,,,,,,,,,,,,,,
,,,,,2,2020-07-01_09h30.45.473,retriever_ti,2020.1.3,Win32,60,Firefox,1536,864,,,,,,,,,,,,,,,,,3,,,,,,,,,,,,,,,,,,,,,,,,,,,1018.86,187,left,0.786,giraffe     ,7,3,-1,0,0,1018.894,1018.894,1021.392,0,32,32,32,1,187,7,8,giraffe     ,seaturtle     ,html/resources/sequences_IDs/B/03_giraffe.jpg,html/resources/sequences_IDs/A/02_seaturtle.jpg,3,2,1,1,2,1,2,1,0,2,,,,,,,,,,,,,,,,,,,,
,,,,,2,2020-07-01_09h30.45.473,retriever_ti,2020.1.3,Win32,60,Firefox,1536,864,,,,,,,,,,,,,,,,,3,,,,,,,,,,,,,,,,,,,,,,,,,,,1022.492,188,right,0.456,giraffe     ,7,3,-1,0,0,1022.527,1022.527,1025.023,0,33,33,33,1,188,8,7,seaturtle     ,giraffe     ,html/resources/sequences_IDs/A/02_seaturtle.jpg,html/resources/sequences_IDs/B/03_giraffe.jpg,2,3,2,1,1,1,1,2,0,2,,,,,,,,,,,,,,,,,,,,
,,,,,2,2020-07-01_09h30.45.473,retriever_ti,2020.1.3,Win32,60,Firefox,1536,864,,,,,,,,,,,,,,,,,3,,,,,,,,,,,,,,,,,,,,,,,,,,,1026.124,189,right,0.722,seaturtle     ,8,2,3,1,3,1026.16,1026.16,1028.654,0,34,34,34,1,189,5,8,slipper     ,seaturtle     ,html/resources/sequences_IDs/B/08_slipper.jpg,html/resources/sequences_IDs/A/02_seaturtle.jpg,8,2,3,2,2,1,6,1,0,2,,,,,,,,,,,,,,,,,,,,
,,,,,2,2020-07-01_09h30.45.473,retriever_ti,2020.1.3,Win32,60,Firefox,1536,864,,,,,,,,,,,,,,,,,3,,,,,,,,,,,,,,,,,,,,,,,,,,,1029.273,190,left,0.711,satellite_dish,2,10,-3,0,3,1029.307,1029.307,1031.803,0,35,35,35,1,190,2,5,satellite_dish,slipper     ,html/resources/sequences_IDs/A/10_satellite_dish.jpg,html/resources/sequences_IDs/B/08_slipper.jpg,10,8,4,2,3,2,8,6,0,2,,,,,,,,,,,,,,,,,,,,
,,,,,2,2020-07-01_09h30.45.473,retriever_ti,2020.1.3,Win32,60,Firefox,1536,864,,,,,,,,,,,,,,,,,3,,,,,,,,,,,,,,,,,,,,,,,,,,,1032.411,191,right,1.343,giraffe     ,7,3,5,1,3,1032.424,1032.424,1034.919,0,36,36,36,1,191,2,7,satellite_dish,giraffe     ,html/resources/sequences_IDs/A/10_satellite_dish.jpg,html/resources/sequences_IDs/B/03_giraffe.jpg,10,3,4,2,1,1,8,2,0,2,,,,,,,,,,,,,,,,,,,,
,,,,,2,2020-07-01_09h30.45.473,retriever_ti,2020.1.3,Win32,60,Firefox,1536,864,,,,,,,,,,,,,,,,,3,,,,,,,,,,,,,,,,,,,,,,,,,,,1035.541,192,right,0.954,seaturtle     ,8,2,2,1,3,1035.561,1035.561,1038.051,0,37,37,37,1,192,6,8,dress         ,seaturtle     ,html/resources/sequences_IDs/A/07_dress.jpg,html/resources/sequences_IDs/A/02_seaturtle.jpg,7,2,3,2,2,1,5,1,0,2,,,,,,,,,,,,,,,,,,,,
,,,,,2,2020-07-01_09h30.45.473,retriever_ti,2020.1.3,Win32,60,Firefox,1536,864,,,,,,,,,,,,,,,,,3,,,,,,,,,,,,,,,,,,,,,,,,,,,1038.668,193,left,0.689,dress         ,6,7,1,1,1,1038.705,1038.705,1041.199,0,38,38,38,1,193,6,5,dress         ,slipper     ,html/resources/sequences_IDs/A/07_dress.jpg,html/resources/sequences_IDs/B/08_slipper.jpg,7,8,3,2,3,2,5,6,0,2,,,,,,,,,,,,,,,,,,,,
,,,,,2,2020-07-01_09h30.45.473,retriever_ti,2020.1.3,Win32,60,Firefox,1536,864,,,,,,,,,,,,,,,,,3,,,,,,,,,,,,,,,,,,,,,,,,,,,1042.3,194,right,0.771,giraffe     ,7,3,-1,0,0,1042.336,1042.336,1044.832,0,39,39,39,1,194,8,7,seaturtle     ,giraffe     ,html/resources/sequences_IDs/A/02_seaturtle.jpg,html/resources/sequences_IDs/B/03_giraffe.jpg,2,3,2,1,1,1,1,2,0,2,,,,,,,,,,,,,,,,,,,,
,,,,,2,2020-07-01_09h30.45.473,retriever_ti,2020.1.3,Win32,60,Firefox,1536,864,,,,,,,,,,,,,,,,,3,,,,,,,,,,,,,,,,,,,,,,,,,,,1045.932,195,left,0.491,dress         ,6,7,1,1,1,1045.949,1045.949,1048.446,0,40,40,40,1,195,6,5,dress         ,slipper     ,html/resources/sequences_IDs/A/07_dress.jpg,html/resources/sequences_IDs/B/08_slipper.jpg,7,8,3,2,3,2,5,6,0,2,,,,,,,,,,,,,,,,,,,,
,,,,,2,2020-07-01_09h30.45.473,retriever_ti,2020.1.3,Win32,60,Firefox,1536,864,,,,,,,,,,,,,,,,,3,,,,,,,,,,,,,,,,,,,,,,,,,,,1049.547,196,left,0.605,dress         ,6,7,2,1,3,1049.567,1049.567,1052.063,0,41,41,41,1,196,6,4,dress         ,clownfish     ,html/resources/sequences_IDs/A/07_dress.jpg,html/resources/sequences_IDs/A/04_clownfish.jpg,7,4,3,2,2,1,5,3,0,2,,,,,,,,,,,,,,,,,,,,
,,,,,2,2020-07-01_09h30.45.473,retriever_ti,2020.1.3,Win32,60,Firefox,1536,864,,,,,,,,,,,,,,,,,3,,,,,,,,,,,,,,,,,,,,,,,,,,,1052.678,197,left,0.532,dress         ,6,7,-1,0,0,1052.715,1052.715,1055.21,0,42,42,42,1,197,6,7,dress         ,giraffe     ,html/resources/sequences_IDs/A/07_dress.jpg,html/resources/sequences_IDs/B/03_giraffe.jpg,7,3,3,2,1,1,5,2,0,2,,,,,,,,,,,,,,,,,,,,
,,,,,2,2020-07-01_09h30.45.473,retriever_ti,2020.1.3,Win32,60,Firefox,1536,864,,,,,,,,,,,,,,,,,3,,,,,,,,,,,,,,,,,,,,,,,,,,,1056.311,198,left,1.142,clownfish     ,4,4,-1,0,0,1056.33,1056.33,1058.825,0,43,43,43,1,198,4,5,clownfish     ,slipper     ,html/resources/sequences_IDs/A/04_clownfish.jpg,html/resources/sequences_IDs/B/08_slipper.jpg,4,8,2,1,3,2,3,6,0,2,,,,,,,,,,,,,,,,,,,,
,,,,,2,2020-07-01_09h30.45.473,retriever_ti,2020.1.3,Win32,60,Firefox,1536,864,,,,,,,,,,,,,,,,,3,,,,,,,,,,,,,,,,,,,,,,,,,,,1059.925,199,left,0.89,slipper     ,5,8,4,1,3,1059.963,1059.963,1062.457,0,44,44,44,1,199,5,1,slipper     ,phone       ,html/resources/sequences_IDs/B/08_slipper.jpg,html/resources/sequences_IDs/B/09_phone.jpg,8,9,3,2,4,2,6,7,0,2,,,,,,,,,,,,,,,,,,,,
,,,,,2,2020-07-01_09h30.45.473,retriever_ti,2020.1.3,Win32,60,Firefox,1536,864,,,,,,,,,,,,,,,,,3,,,,,,,,,,,,,,,,,,,,,,,,,,,1063.215,200,right,1.568,giraffe     ,7,3,2,1,3,1063.617,1063.617,1066.122,0,45,45,45,1,200,5,7,slipper     ,giraffe     ,html/resources/sequences_IDs/B/08_slipper.jpg,html/resources/sequences_IDs/B/03_giraffe.jpg,8,3,3,2,1,1,6,2,0,2,,,,,,,,,,,,,,,,,,,,
,,,,,2,2020-07-01_09h30.45.473,retriever_ti,2020.1.3,Win32,60,Firefox,1536,864,,,,,,,,,,,,,,,,,3,,,,,,,,,,,,,,,,,,,,,,,,,,,1066.74,201,left,0.524,giraffe     ,7,3,1,1,1,1066.756,1066.756,1069.253,0,46,46,46,1,201,7,6,giraffe     ,dress         ,html/resources/sequences_IDs/B/03_giraffe.jpg,html/resources/sequences_IDs/A/07_dress.jpg,3,7,1,1,3,2,2,5,0,2,,,,,,,,,,,,,,,,,,,,
,,,,,2,2020-07-01_09h30.45.473,retriever_ti,2020.1.3,Win32,60,Firefox,1536,864,,,,,,,,,,,,,,,,,3,,,,,,,,,,,,,,,,,,,,,,,,,,,1070.354,202,right,0.607,dress         ,6,7,1,1,1,1070.374,1070.374,1072.871,0,47,47,47,1,202,5,6,slipper     ,dress         ,html/resources/sequences_IDs/B/08_slipper.jpg,html/resources/sequences_IDs/A/07_dress.jpg,8,7,3,2,3,2,6,5,0,2,,,,,,,,,,,,,,,,,,,,
,,,,,2,2020-07-01_09h30.45.473,retriever_ti,2020.1.3,Win32,60,Firefox,1536,864,,,,,,,,,,,,,,,,,3,,,,,,,,,,,,,,,,,,,,,,,,,,,1073.969,203,left,0.468,dress         ,6,7,4,1,3,1073.988,1073.988,1076.483,0,48,48,48,1,203,6,2,dress         ,satellite_dish,html/resources/sequences_IDs/A/07_dress.jpg,html/resources/sequences_IDs/A/10_satellite_dish.jpg,7,10,3,2,4,2,5,8,0,2,,,,,,,,,,,,,,,,,,,,
,,,,,2,2020-07-01_09h30.45.473,retriever_ti,2020.1.3,Win32,60,Firefox,1536,864,,,,,,,,,,,,,,,,,3,,,,,,,,,,,,,,,,,,,,,,,,,,,1077.101,204,left,1.52,parrot      ,3,5,-1,0,0,1077.119,1077.119,1079.615,0,49,49,49,1,204,3,4,parrot      ,clownfish     ,html/resources/sequences_IDs/B/05_parrot.jpg,html/resources/sequences_IDs/A/04_clownfish.jpg,5,4,2,1,2,1,4,3,0,2,,,,,,,,,,,,,,,,,,,,
,,,,,2,2020-07-01_09h30.45.473,retriever_ti,2020.1.3,Win32,60,Firefox,1536,864,,,,,,,,,,,,,,,,,3,,,,,,,,,,,,,,,,,,,,,,,,,,,1080.717,205,right,0.438,clownfish     ,4,4,-4,0,3,1080.75,1080.75,1083.247,0,50,50,50,1,205,8,4,seaturtle     ,clownfish     ,html/resources/sequences_IDs/A/02_seaturtle.jpg,html/resources/sequences_IDs/A/04_clownfish.jpg,2,4,2,1,2,1,1,3,0,2,,,,,,,,,,,,,,,,,,,,
,,,,,2,2020-07-01_09h30.45.473,retriever_ti,2020.1.3,Win32,60,Firefox,1536,864,,,,,,,,,,,,,,,,,3,,,,,,,,,,,,,,,,,,,,,,,,,,,1083.864,206,right,0.573,clownfish     ,4,4,1,1,1,1083.887,1083.887,1086.379,0,51,51,51,1,206,3,4,parrot      ,clownfish     ,html/resources/sequences_IDs/B/05_parrot.jpg,html/resources/sequences_IDs/A/04_clownfish.jpg,5,4,2,1,2,1,4,3,0,2,,,,,,,,,,,,,,,,,,,,
,,,,,2,2020-07-01_09h30.45.473,retriever_ti,2020.1.3,Win32,60,Firefox,1536,864,,,,,,,,,,,,,,,,,3,,,,,,,,,,,,,,,,,,,,,,,,,,,1087.48,207,left,0.575,dress         ,6,7,5,1,3,1087.501,1087.501,1089.994,0,52,52,52,1,207,6,1,dress         ,phone       ,html/resources/sequences_IDs/A/07_dress.jpg,html/resources/sequences_IDs/B/09_phone.jpg,7,9,3,2,4,2,5,7,0,2,,,,,,,,,,,,,,,,,,,,
,,,,,2,2020-07-01_09h30.45.473,retriever_ti,2020.1.3,Win32,60,Firefox,1536,864,,,,,,,,,,,,,,,,,3,,,,,,,,,,,,,,,,,,,,,,,,,,,1090.611,208,left,0.505,giraffe     ,7,3,2,1,3,1090.648,1090.648,1093.142,0,53,53,53,1,208,7,5,giraffe     ,slipper     ,html/resources/sequences_IDs/B/03_giraffe.jpg,html/resources/sequences_IDs/B/08_slipper.jpg,3,8,1,1,3,2,2,6,0,2,,,,,,,,,,,,,,,,,,,,
,,,,,2,2020-07-01_09h30.45.473,retriever_ti,2020.1.3,Win32,60,Firefox,1536,864,,,,,,,,,,,,,,,,,3,,,,,,,,,,,,,,,,,,,,,,,,,,,1093.76,209,right,0.606,satellite_dish,2,10,-1,0,0,1093.779,1093.779,1096.274,0,54,54,54,1,209,3,2,parrot      ,satellite_dish,html/resources/sequences_IDs/B/05_parrot.jpg,html/resources/sequences_IDs/A/10_satellite_dish.jpg,5,10,2,1,4,2,4,8,0,2,,,,,,,,,,,,,,,,,,,,
,,,,,2,2020-07-01_09h30.45.473,retriever_ti,2020.1.3,Win32,60,Firefox,1536,864,,,,,,,,,,,,,,,,,3,,,,,,,,,,,,,,,,,,,,,,,,,,,1097.374,210,right,0.608,giraffe     ,7,3,3,1,3,1097.411,1097.411,1099.906,0,55,55,55,1,210,4,7,clownfish     ,giraffe     ,html/resources/sequences_IDs/A/04_clownfish.jpg,html/resources/sequences_IDs/B/03_giraffe.jpg,4,3,2,1,1,1,3,2,0,2,,,,,,,,,,,,,,,,,,,,
,,,,,2,2020-07-01_09h30.45.473,retriever_ti,2020.1.3,Win32,60,Firefox,1536,864,,,,,,,,,,,,,,,,,3,,,,,,,,,,,,,,,,,,,,,,,,,,,1100.523,211,right,0.468,clownfish     ,4,4,-1,0,0,1100.546,1100.546,1103.039,0,56,56,56,1,211,5,4,slipper     ,clownfish     ,html/resources/sequences_IDs/B/08_slipper.jpg,html/resources/sequences_IDs/A/04_clownfish.jpg,8,4,3,2,2,1,6,3,0,2,,,,,,,,,,,,,,,,,,,,
,,,,,2,2020-07-01_09h30.45.473,retriever_ti,2020.1.3,Win32,60,Firefox,1536,864,,,,,,,,,,,,,,,,,3,,,,,,,,,,,,,,,,,,,,,,,,,,,1104.138,212,left,0.472,giraffe     ,7,3,6,1,3,1104.175,1104.175,1106.671,0,57,57,57,1,212,7,1,giraffe     ,phone       ,html/resources/sequences_IDs/B/03_giraffe.jpg,html/resources/sequences_IDs/B/09_phone.jpg,3,9,1,1,4,2,2,7,0,2,,,,,,,,,,,,,,,,,,,,
,,,,,2,2020-07-01_09h30.45.473,retriever_ti,2020.1.3,Win32,60,Firefox,1536,864,,,,,,,,,,,,,,,,,3,,,,,,,,,,,,,,,,,,,,,,,,,,,1107.288,213,left,0.773,satellite_dish,2,10,-4,0,3,1107.324,1107.324,1109.818,0,58,58,58,1,213,2,6,satellite_dish,dress         ,html/resources/sequences_IDs/A/10_satellite_dish.jpg,html/resources/sequences_IDs/A/07_dress.jpg,10,7,4,2,3,2,8,5,0,2,,,,,,,,,,,,,,,,,,,,
,,,,,2,2020-07-01_09h30.45.473,retriever_ti,2020.1.3,Win32,60,Firefox,1536,864,,,,,,,,,,,,,,,,,3,,,,,,,,,,,,,,,,,,,,,,,,,,,1110.435,214,left,0.487,clownfish     ,4,4,-1,0,0,1110.456,1110.456,1112.951,0,59,59,59,1,214,4,5,clownfish     ,slipper     ,html/resources/sequences_IDs/A/04_clownfish.jpg,html/resources/sequences_IDs/B/08_slipper.jpg,4,8,2,1,3,2,3,6,0,2,,,,,,,,,,,,,,,,,,,,
,,,,,2,2020-07-01_09h30.45.473,retriever_ti,2020.1.3,Win32,60,Firefox,1536,864,,,,,,,,,,,,,,,,,3,,,,,,,,,,,,,,,,,,,,,,,,,,,1114.051,215,right,0.545,parrot      ,3,5,2,1,3,1114.086,1114.086,1116.583,0,60,60,60,1,215,1,3,phone       ,parrot      ,html/resources/sequences_IDs/B/09_phone.jpg,html/resources/sequences_IDs/B/05_parrot.jpg,9,5,4,2,2,1,7,4,0,2,,,,,,,,,,,,,,,,,,,,
,,,,,2,2020-07-01_09h30.45.473,retriever_ti,2020.1.3,Win32,60,Firefox,1536,864,,,,,,,,,,,,,,,,,3,,,,,,,,,,,,,,,,,,,,,,,,,,,1117.199,216,right,0.691,clownfish     ,4,4,3,1,3,1117.218,1117.218,1119.714,0,61,61,61,1,216,1,4,phone       ,clownfish     ,html/resources/sequences_IDs/B/09_phone.jpg,html/resources/sequences_IDs/A/04_clownfish.jpg,9,4,4,2,2,1,7,3,0,2,,,,,,,,,,,,,,,,,,,,
,,,,,2,2020-07-01_09h30.45.473,retriever_ti,2020.1.3,Win32,60,Firefox,1536,864,,,,,,,,,,,,,,,,,3,,,,,,,,,,,,,,,,,,,,,,,,,,,1120.331,217,left,0.756,clownfish     ,4,4,3,1,3,1120.367,1120.367,1122.864,0,62,62,62,1,217,4,1,clownfish     ,phone       ,html/resources/sequences_IDs/A/04_clownfish.jpg,html/resources/sequences_IDs/B/09_phone.jpg,4,9,2,1,4,2,3,7,0,2,,,,,,,,,,,,,,,,,,,,
,,,,,2,2020-07-01_09h30.45.473,retriever_ti,2020.1.3,Win32,60,Firefox,1536,864,,,,,,,,,,,,,,,,,3,,,,,,,,,,,,,,,,,,,,,,,,,,,1123.482,218,left,1.116,giraffe     ,7,3,1,1,0,1123.518,1123.518,1126.011,0,63,63,63,1,218,7,6,giraffe     ,dress         ,html/resources/sequences_IDs/B/03_giraffe.jpg,html/resources/sequences_IDs/A/07_dress.jpg,3,7,1,1,3,2,2,5,1,2,,,,,,,,,,,,,,,,,,,,
,,,,,2,2020-07-01_09h30.45.473,retriever_ti,2020.1.3,Win32,60,Firefox,1536,864,,,,,,,,,,,,,,,,,3,,,,,,,,,,,,,,,,,,,,,,,,,,,1127.112,219,left,0.857,giraffe     ,7,3,4,1,3,1127.132,1127.132,1129.627,0,64,64,64,1,219,7,3,giraffe     ,parrot      ,html/resources/sequences_IDs/B/03_giraffe.jpg,html/resources/sequences_IDs/B/05_parrot.jpg,3,5,1,1,2,1,2,4,0,2,,,,,,,,,,,,,,,,,,,,
,,,,,2,2020-07-01_09h30.45.473,retriever_ti,2020.1.3,Win32,60,Firefox,1536,864,,,,,,,,,,,,,,,,,3,,,,,,,,,,,,,,,,,,,,,,,,,,,1130.243,220,right,0.558,giraffe     ,7,3,-1,0,1,1130.264,1130.264,1132.757,0,65,65,65,1,220,8,7,seaturtle     ,giraffe     ,html/resources/sequences_IDs/A/02_seaturtle.jpg,html/resources/sequences_IDs/B/03_giraffe.jpg,2,3,2,1,1,1,1,2,1,2,,,,,,,,,,,,,,,,,,,,
,,,,,2,2020-07-01_09h30.45.473,retriever_ti,2020.1.3,Win32,60,Firefox,1536,864,,,,,,,,,,,,,,,,,3,,,,,,,,,,,,,,,,,,,,,,,,,,,1133.858,221,left,0.871,satellite_dish,2,10,-2,0,3,1133.9,1133.9,1136.389,0,66,66,66,1,221,2,4,satellite_dish,clownfish     ,html/resources/sequences_IDs/A/10_satellite_dish.jpg,html/resources/sequences_IDs/A/04_clownfish.jpg,10,4,4,2,2,1,8,3,0,2,,,,,,,,,,,,,,,,,,,,
,,,,,2,2020-07-01_09h30.45.473,retriever_ti,2020.1.3,Win32,60,Firefox,1536,864,,,,,,,,,,,,,,,,,3,,,,,,,,,,,,,,,,,,,,,,,,,,,1137.007,222,left,0.622,satellite_dish,2,10,1,1,1,1137.026,1137.026,1139.522,0,67,67,67,1,222,2,1,satellite_dish,phone       ,html/resources/sequences_IDs/A/10_satellite_dish.jpg,html/resources/sequences_IDs/B/09_phone.jpg,10,9,4,2,4,2,8,7,0,2,,,,,,,,,,,,,,,,,,,,
,,,,,2,2020-07-01_09h30.45.473,retriever_ti,2020.1.3,Win32,60,Firefox,1536,864,,,,,,,,,,,,,,,,,3,,,,,,,,,,,,,,,,,,,,,,,,,,,1140.622,223,right,1.307,parrot      ,3,5,-2,0,3,1140.656,1140.656,1143.153,0,68,68,68,1,223,5,3,slipper     ,parrot      ,html/resources/sequences_IDs/B/08_slipper.jpg,html/resources/sequences_IDs/B/05_parrot.jpg,8,5,3,2,2,1,6,4,0,2,,,,,,,,,,,,,,,,,,,,
,,,,,2,2020-07-01_09h30.45.473,retriever_ti,2020.1.3,Win32,60,Firefox,1536,864,,,,,,,,,,,,,,,,,3,,,,,,,,,,,,,,,,,,,,,,,,,,,1143.771,224,right,0.839,dress         ,6,7,1,1,1,1143.79,1143.79,1146.285,0,69,69,69,1,224,5,6,slipper     ,dress         ,html/resources/sequences_IDs/B/08_slipper.jpg,html/resources/sequences_IDs/A/07_dress.jpg,8,7,3,2,3,2,6,5,0,2,,,,,,,,,,,,,,,,,,,,
,,,,,2,2020-07-01_09h30.45.473,retriever_ti,2020.1.3,Win32,60,Firefox,1536,864,,,,,,,,,,,,,,,,,3,,,,,,,,,,,,,,,,,,,,,,,,,,,1147.385,225,right,0.573,dress         ,6,7,-2,0,3,1147.407,1147.407,1149.9,0,70,70,70,1,225,8,6,seaturtle     ,dress         ,html/resources/sequences_IDs/A/02_seaturtle.jpg,html/resources/sequences_IDs/A/07_dress.jpg,2,7,2,1,3,2,1,5,0,2,,,,,,,,,,,,,,,,,,,,
,,,,,2,2020-07-01_09h30.45.473,retriever_ti,2020.1.3,Win32,60,Firefox,1536,864,,,,,,,,,,,,,,,,,3,,,,,,,,,,,,,,,,,,,,,,,,,,,1150.518,226,left,1.086,seaturtle     ,8,2,5,1,3,1150.538,1150.538,1153.032,0,71,71,71,1,226,8,3,seaturtle     ,parrot      ,html/resources/sequences_IDs/A/02_seaturtle.jpg,html/resources/sequences_IDs/B/05_parrot.jpg,2,5,2,1,2,1,1,4,0,2,,,,,,,,,,,,,,,,,,,,
,,,,,2,2020-07-01_09h30.45.473,retriever_ti,2020.1.3,Win32,60,Firefox,1536,864,,,,,,,,,,,,,,,,,3,,,,,,,,,,,,,,,,,,,,,,,,,,,1153.649,227,right,1.375,dress         ,6,7,-1,0,0,1153.685,1153.685,1156.181,0,72,72,72,1,227,7,6,giraffe     ,dress         ,html/resources/sequences_IDs/B/03_giraffe.jpg,html/resources/sequences_IDs/A/07_dress.jpg,3,7,1,1,3,2,2,5,0,2,,,,,,,,,,,,,,,,,,,,
,,,,,2,2020-07-01_09h30.45.473,retriever_ti,2020.1.3,Win32,60,Firefox,1536,864,,,,,,,,,,,,,,,,,3,,,,,,,,,,,,,,,,,,,,,,,,,,,1157.28,228,right,0.626,dress         ,6,7,5,1,3,1157.298,1157.298,1159.795,0,73,73,73,1,228,1,6,phone       ,dress         ,html/resources/sequences_IDs/B/09_phone.jpg,html/resources/sequences_IDs/A/07_dress.jpg,9,7,4,2,3,2,7,5,0,2,,,,,,,,,,,,,,,,,,,,
,,,,,2,2020-07-01_09h30.45.473,retriever_ti,2020.1.3,Win32,60,Firefox,1536,864,,,,,,,,,,,,,,,,,3,,,,,,,,,,,,,,,,,,,,,,,,,,,1160.413,229,right,1.071,satellite_dish,2,10,-1,0,1,1160.447,1160.447,1162.944,0,74,74,74,1,229,3,2,parrot      ,satellite_dish,html/resources/sequences_IDs/B/05_parrot.jpg,html/resources/sequences_IDs/A/10_satellite_dish.jpg,5,10,2,1,4,2,4,8,1,2,,,,,,,,,,,,,,,,,,,,
,,,,,2,2020-07-01_09h30.45.473,retriever_ti,2020.1.3,Win32,60,Firefox,1536,864,,,,,,,,,,,,,,,,,3,,,,,,,,,,,,,,,,,,,,,,,,,,,1164.045,230,right,0.505,dress         ,6,7,2,1,3,1164.064,1164.064,1166.559,0,75,75,75,1,230,4,6,clownfish     ,dress         ,html/resources/sequences_IDs/A/04_clownfish.jpg,html/resources/sequences_IDs/A/07_dress.jpg,4,7,2,1,3,2,3,5,0,2,,,,,,,,,,,,,,,,,,,,
