instructionsLoop.thisRepN,instructionsLoop.thisTrialN,instructionsLoop.thisN,instructionsLoop.thisIndex,instructionsLoop.ran,participant,date,expName,psychopyVersion,OS,frameRate,browser,xResolution,yResolution,fix_onset,tprac,practiceKey.keys,practiceKey.rt,pracitem_chosen_name,acc_practice,P1_onsetPrac,P2_onsetPrac,onsetFeedbPrac,practiceTrials.thisRepN,practiceTrials.thisTrialN,practiceTrials.thisN,practiceTrials.thisIndex,practiceTrials.ran,P1,P2,Block,LocItem1,LocItem2,NameItem1,NameItem2,key_respAC_prac.keys,key_respAC_prac.corr,key_respAC_prac.rt,AC_acc,Attentions.thisRepN,Attentions.thisTrialN,Attentions.thisN,Attentions.thisIndex,Attentions.ran,Stim,Loc1,Loc2,Loc3,Loc4,CorrAns,keyDisturbed.keys,keyDisturbed.rt,repPractice.thisRepN,repPractice.thisTrialN,repPractice.thisN,repPractice.thisIndex,repPractice.ran,fixcross_onsetMain,trialNumber,key_resp.keys,key_resp.rt,item_chosen_name,item_chosen_value,item_chosen_ID,diff_chosen_minus_reject,acc_real,acc_feedback,P1_onset,P2_onset,feedb_onset,trials.thisRepN,trials.thisTrialN,trials.thisN,trials.thisIndex,trials.ran,Trial,ValueP1,ValueP2,P1name,P2name,P1Loc,P2Loc,P1id,P2id,Micro_categoryP1,Macro_categoryP1,Micro_categoryP2,Macro_categoryP2,ID_sequenceP1,ID_sequenceP2,InverseFb,pNumber,repBlocks.thisRepN,repBlocks.thisTrialN,repBlocks.thisN,repBlocks.thisIndex,repBlocks.ran,key_respAC.keys,key_respAC.corr,key_respAC.rt,trials_AC.thisRepN,trials_AC.thisTrialN,trials_AC.thisN,trials_AC.thisIndex,trials_AC.ran,Bonus,BonusLoop.thisRepN,BonusLoop.thisTrialN,BonusLoop.thisN,BonusLoop.thisIndex,BonusLoop.ran,comments
0,0,0,0,1,2,2020-07-01_11h31.23.544,retriever_ti,2020.1.3,Win32,60,Firefox,1920,1080,,,,,,,,,,,,,,,,,,,,,,,,,,,,,,,,,,,,,,,,,,,,,,,,,,,,,,,,,,,,,,,,,,,,,,,,,,,,,,,,,,,,,,,,,,,,,,,,,,
1,0,1,0,1,2,2020-07-01_11h31.23.544,retriever_ti,2020.1.3,Win32,60,Firefox,1920,1080,,,,,,,,,,,,,,,,,,,,,,,,,,,,,,,,,,,,,,,,,,,,,,,,,,,,,,,,,,,,,,,,,,,,,,,,,,,,,,,,,,,,,,,,,,,,,,,,,,
2,0,2,0,1,2,2020-07-01_11h31.23.544,retriever_ti,2020.1.3,Win32,60,Firefox,1920,1080,,,,,,,,,,,,,,,,,,,,,,,,,,,,,,,,,,,,,,,,,,,,,,,,,,,,,,,,,,,,,,,,,,,,,,,,,,,,,,,,,,,,,,,,,,,,,,,,,,
3,0,3,0,1,2,2020-07-01_11h31.23.544,retriever_ti,2020.1.3,Win32,60,Firefox,1920,1080,,,,,,,,,,,,,,,,,,,,,,,,,,,,,,,,,,,,,,,,,,,,,,,,,,,,,,,,,,,,,,,,,,,,,,,,,,,,,,,,,,,,,,,,,,,,,,,,,,
4,0,4,0,1,2,2020-07-01_11h31.23.544,retriever_ti,2020.1.3,Win32,60,Firefox,1920,1080,,,,,,,,,,,,,,,,,,,,,,,,,,,,,,,,,,,,,,,,,,,,,,,,,,,,,,,,,,,,,,,,,,,,,,,,,,,,,,,,,,,,,,,,,,,,,,,,,,
5,0,5,0,1,2,2020-07-01_11h31.23.544,retriever_ti,2020.1.3,Win32,60,Firefox,1920,1080,,,,,,,,,,,,,,,,,,,,,,,,,,,,,,,,,,,,,,,,,,,,,,,,,,,,,,,,,,,,,,,,,,,,,,,,,,,,,,,,,,,,,,,,,,,,,,,,,,
6,0,6,0,1,2,2020-07-01_11h31.23.544,retriever_ti,2020.1.3,Win32,60,Firefox,1920,1080,,,,,,,,,,,,,,,,,,,,,,,,,,,,,,,,,,,,,,,,,,,,,,,,,,,,,,,,,,,,,,,,,,,,,,,,,,,,,,,,,,,,,,,,,,,,,,,,,,
7,0,7,0,1,2,2020-07-01_11h31.23.544,retriever_ti,2020.1.3,Win32,60,Firefox,1920,1080,,,,,,,,,,,,,,,,,,,,,,,,,,,,,,,,,,,,,,,,,,,,,,,,,,,,,,,,,,,,,,,,,,,,,,,,,,,,,,,,,,,,,,,,,,,,,,,,,,
8,0,8,0,1,2,2020-07-01_11h31.23.544,retriever_ti,2020.1.3,Win32,60,Firefox,1920,1080,,,,,,,,,,,,,,,,,,,,,,,,,,,,,,,,,,,,,,,,,,,,,,,,,,,,,,,,,,,,,,,,,,,,,,,,,,,,,,,,,,,,,,,,,,,,,,,,,,
9,0,9,0,1,2,2020-07-01_11h31.23.544,retriever_ti,2020.1.3,Win32,60,Firefox,1920,1080,,,,,,,,,,,,,,,,,,,,,,,,,,,,,,,,,,,,,,,,,,,,,,,,,,,,,,,,,,,,,,,,,,,,,,,,,,,,,,,,,,,,,,,,,,,,,,,,,,
10,0,10,0,1,2,2020-07-01_11h31.23.544,retriever_ti,2020.1.3,Win32,60,Firefox,1920,1080,,,,,,,,,,,,,,,,,,,,,,,,,,,,,,,,,,,,,,,,,,,,,,,,,,,,,,,,,,,,,,,,,,,,,,,,,,,,,,,,,,,,,,,,,,,,,,,,,,
11,0,11,0,1,2,2020-07-01_11h31.23.544,retriever_ti,2020.1.3,Win32,60,Firefox,1920,1080,,,,,,,,,,,,,,,,,,,,,,,,,,,,,,,,,,,,,,,,,,,,,,,,,,,,,,,,,,,,,,,,,,,,,,,,,,,,,,,,,,,,,,,,,,,,,,,,,,
12,0,12,0,1,2,2020-07-01_11h31.23.544,retriever_ti,2020.1.3,Win32,60,Firefox,1920,1080,,,,,,,,,,,,,,,,,,,,,,,,,,,,,,,,,,,,,,,,,,,,,,,,,,,,,,,,,,,,,,,,,,,,,,,,,,,,,,,,,,,,,,,,,,,,,,,,,,
13,0,13,0,1,2,2020-07-01_11h31.23.544,retriever_ti,2020.1.3,Win32,60,Firefox,1920,1080,,,,,,,,,,,,,,,,,,,,,,,,,,,,,,,,,,,,,,,,,,,,,,,,,,,,,,,,,,,,,,,,,,,,,,,,,,,,,,,,,,,,,,,,,,,,,,,,,,
14,0,14,0,1,2,2020-07-01_11h31.23.544,retriever_ti,2020.1.3,Win32,60,Firefox,1920,1080,,,,,,,,,,,,,,,,,,,,,,,,,,,,,,,,,,,,,,,,,,,,,,,,,,,,,,,,,,,,,,,,,,,,,,,,,,,,,,,,,,,,,,,,,,,,,,,,,,
,,,,,2,2020-07-01_11h31.23.544,retriever_ti,2020.1.3,Win32,60,Firefox,1920,1080,208.218,1,NaN,NaN,No_response,2,208.226,208.226,210.731,0,0,0,0,1,2,5,1,html/resources/stimuli_practice_decision/04_beetle.jpg,html/resources/stimuli_practice_decision/02_canary.jpg,beetle,canary,,,,,,,,,,,,,,,,,,,,,,,,,,,,,,,,,,,,,,,,,,,,,,,,,,,,,,,,,,,,,,,,,,,,,,,,,,,,,
,,,,,2,2020-07-01_11h31.23.544,retriever_ti,2020.1.3,Win32,60,Firefox,1920,1080,211.262,2,left,1.027,rabbit,1,211.297,211.297,213.796,0,1,1,1,1,4,3,1,html/resources/stimuli_practice_decision/01_rabbit.jpg,html/resources/stimuli_practice_decision/07_sock.jpg,rabbit,sock,,,,,,,,,,,,,,,,,,,,,,,,,,,,,,,,,,,,,,,,,,,,,,,,,,,,,,,,,,,,,,,,,,,,,,,,,,,,,
,,,,,2,2020-07-01_11h31.23.544,retriever_ti,2020.1.3,Win32,60,Firefox,1920,1080,214.796,3,left,1.897,pullover,1,214.815,214.815,217.313,0,2,2,2,1,6,2,1,html/resources/stimuli_practice_decision/06_pullover.jpg,html/resources/stimuli_practice_decision/04_beetle.jpg,pullover,beetle,,,,,,,,,,,,,,,,,,,,,,,,,,,,,,,,,,,,,,,,,,,,,,,,,,,,,,,,,,,,,,,,,,,,,,,,,,,,,
,,,,,2,2020-07-01_11h31.23.544,retriever_ti,2020.1.3,Win32,60,Firefox,1920,1080,217.814,4,right,1.17,handmixer,0,217.83,217.83,220.33,0,3,3,3,1,7,1,1,html/resources/stimuli_practice_decision/05_glasses.jpg,html/resources/stimuli_practice_decision/08_handmixer.jpg,glasses,handmixer,,,,,,,,,,,,,,,,,,,,,,,,,,,,,,,,,,,,,,,,,,,,,,,,,,,,,,,,,,,,,,,,,,,,,,,,,,,,,
,,,,,2,2020-07-01_11h31.23.544,retriever_ti,2020.1.3,Win32,60,Firefox,1920,1080,220.847,5,left,1.886,glasses,1,220.883,220.883,223.379,0,4,4,4,1,7,6,1,html/resources/stimuli_practice_decision/05_glasses.jpg,html/resources/stimuli_practice_decision/06_pullover.jpg,glasses,pullover,,,,,,,,,,,,,,,,,,,,,,,,,,,,,,,,,,,,,,,,,,,,,,,,,,,,,,,,,,,,,,,,,,,,,,,,,,,,,
,,,,,2,2020-07-01_11h31.23.544,retriever_ti,2020.1.3,Win32,60,Firefox,1920,1080,224.38,6,left,1.469,rabbit,0,224.415,224.415,226.913,0,5,5,5,1,4,7,1,html/resources/stimuli_practice_decision/01_rabbit.jpg,html/resources/stimuli_practice_decision/05_glasses.jpg,rabbit,glasses,,,,,,,,,,,,,,,,,,,,,,,,,,,,,,,,,,,,,,,,,,,,,,,,,,,,,,,,,,,,,,,,,,,,,,,,,,,,,
,,,,,2,2020-07-01_11h31.23.544,retriever_ti,2020.1.3,Win32,60,Firefox,1920,1080,227.413,7,left,1.016,handmixer,0,227.446,227.446,229.946,0,6,6,6,1,1,2,1,html/resources/stimuli_practice_decision/08_handmixer.jpg,html/resources/stimuli_practice_decision/04_beetle.jpg,handmixer,beetle,,,,,,,,,,,,,,,,,,,,,,,,,,,,,,,,,,,,,,,,,,,,,,,,,,,,,,,,,,,,,,,,,,,,,,,,,,,,,
,,,,,2,2020-07-01_11h31.23.544,retriever_ti,2020.1.3,Win32,60,Firefox,1920,1080,230.947,8,left,1.023,rabbit,1,230.963,230.963,233.463,0,7,7,7,1,4,3,1,html/resources/stimuli_practice_decision/01_rabbit.jpg,html/resources/stimuli_practice_decision/07_sock.jpg,rabbit,sock,,,,,,,,,,,,,,,,,,,,,,,,,,,,,,,,,,,,,,,,,,,,,,,,,,,,,,,,,,,,,,,,,,,,,,,,,,,,,
,,,,,2,2020-07-01_11h31.23.544,retriever_ti,2020.1.3,Win32,60,Firefox,1920,1080,,,,,,,,,,,,,,,,,,,,,,left,1,4.49,1,0,0,0,2,1,html/resources/sequences_IDs/square1.png,star ↑,triangle →,circle ↓,← square,left,,,,,,,,,,,,,,,,,,,,,,,,,,,,,,,,,,,,,,,,,,,,,,,,,,,,,,,,,,,,,,
,,,,,2,2020-07-01_11h31.23.544,retriever_ti,2020.1.3,Win32,60,Firefox,1920,1080,,,,,,,,,,,,,,,,,,,,,,down,1,1.841,1,0,1,1,1,1,html/resources/sequences_IDs/star.png,square ↑,circle →,star ↓,← triangle,down,,,,,,,,,,,,,,,,,,,,,,,,,,,,,,,,,,,,,,,,,,,,,,,,,,,,,,,,,,,,,,
,,,,,2,2020-07-01_11h31.23.544,retriever_ti,2020.1.3,Win32,60,Firefox,1920,1080,,,,,,,,,,,,,,,,,,,,,,down,1,2.362,1,0,2,2,3,1,html/resources/sequences_IDs/triangle.png,star ↑,square →,triangle ↓,← circle,down,,,,,,,,,,,,,,,,,,,,,,,,,,,,,,,,,,,,,,,,,,,,,,,,,,,,,,,,,,,,,,
,,,,,2,2020-07-01_11h31.23.544,retriever_ti,2020.1.3,Win32,60,Firefox,1920,1080,,,,,,,,,,,,,,,,,,,,,,up,1,1.563,1,0,3,3,0,1,html/resources/sequences_IDs/circle.png,circle ↑,square →,triangle ↓,← star ,up,,,,,,,,,,,,,,,,,,,,,,,,,,,,,,,,,,,,,,,,,,,,,,,,,,,,,,,,,,,,,,
,,,,,2,2020-07-01_11h31.23.544,retriever_ti,2020.1.3,Win32,60,Firefox,1920,1080,,,,,,,,,,,,,,,,,,,,,,,,,,,,,,,,,,,,,0,6.809,0,0,0,0,1,,,,,,,,,,,,,,,,,,,,,,,,,,,,,,,,,,,,,,,,,,,,,,,,,,,,,,,
,,,,,2,2020-07-01_11h31.23.544,retriever_ti,2020.1.3,Win32,60,Firefox,1920,1080,257.941,9,right,1.981,glasses,1,257.965,257.965,260.463,0,0,0,0,1,6,7,1,html/resources/stimuli_practice_decision/06_pullover.jpg,html/resources/stimuli_practice_decision/05_glasses.jpg,pullover,glasses,,,,,,,,,,,,,,,,,,,,,,,,,,,,,,,,,,,,,,,,,,,,,,,,,,,,,,,,,,,,,,,,,,,,,,,,,,,,,
,,,,,2,2020-07-01_11h31.23.544,retriever_ti,2020.1.3,Win32,60,Firefox,1920,1080,261.463,10,left,1.697,pullover,1,261.496,261.496,263.996,0,1,1,1,1,6,2,1,html/resources/stimuli_practice_decision/06_pullover.jpg,html/resources/stimuli_practice_decision/04_beetle.jpg,pullover,beetle,,,,,,,,,,,,,,,,,,,,,,,,,,,,,,,,,,,,,,,,,,,,,,,,,,,,,,,,,,,,,,,,,,,,,,,,,,,,,
,,,,,2,2020-07-01_11h31.23.544,retriever_ti,2020.1.3,Win32,60,Firefox,1920,1080,264.497,11,left,1.542,canary,0,264.514,264.514,267.013,0,2,2,2,1,5,6,1,html/resources/stimuli_practice_decision/02_canary.jpg,html/resources/stimuli_practice_decision/06_pullover.jpg,canary,pullover,,,,,,,,,,,,,,,,,,,,,,,,,,,,,,,,,,,,,,,,,,,,,,,,,,,,,,,,,,,,,,,,,,,,,,,,,,,,,
,,,,,2,2020-07-01_11h31.23.544,retriever_ti,2020.1.3,Win32,60,Firefox,1920,1080,268.014,12,right,1.96,glasses,0,268.048,268.048,270.547,0,3,3,3,1,8,7,1,html/resources/stimuli_practice_decision/03_squirrel.jpg,html/resources/stimuli_practice_decision/05_glasses.jpg,squirrel,glasses,,,,,,,,,,,,,,,,,,,,,,,,,,,,,,,,,,,,,,,,,,,,,,,,,,,,,,,,,,,,,,,,,,,,,,,,,,,,,
,,,,,2,2020-07-01_11h31.23.544,retriever_ti,2020.1.3,Win32,60,Firefox,1920,1080,271.547,13,left,0.782,canary,1,271.581,271.581,274.08,0,4,4,4,1,5,3,1,html/resources/stimuli_practice_decision/02_canary.jpg,html/resources/stimuli_practice_decision/07_sock.jpg,canary,sock,,,,,,,,,,,,,,,,,,,,,,,,,,,,,,,,,,,,,,,,,,,,,,,,,,,,,,,,,,,,,,,,,,,,,,,,,,,,,
,,,,,2,2020-07-01_11h31.23.544,retriever_ti,2020.1.3,Win32,60,Firefox,1920,1080,274.597,14,right,1.513,squirrel,1,274.63,274.63,277.129,0,5,5,5,1,7,8,1,html/resources/stimuli_practice_decision/05_glasses.jpg,html/resources/stimuli_practice_decision/03_squirrel.jpg,glasses,squirrel,,,,,,,,,,,,,,,,,,,,,,,,,,,,,,,,,,,,,,,,,,,,,,,,,,,,,,,,,,,,,,,,,,,,,,,,,,,,,
,,,,,2,2020-07-01_11h31.23.544,retriever_ti,2020.1.3,Win32,60,Firefox,1920,1080,278.13,15,right,1.759,rabbit,0,278.165,278.165,280.663,0,6,6,6,1,5,4,1,html/resources/stimuli_practice_decision/02_canary.jpg,html/resources/stimuli_practice_decision/01_rabbit.jpg,canary,rabbit,,,,,,,,,,,,,,,,,,,,,,,,,,,,,,,,,,,,,,,,,,,,,,,,,,,,,,,,,,,,,,,,,,,,,,,,,,,,,
,,,,,2,2020-07-01_11h31.23.544,retriever_ti,2020.1.3,Win32,60,Firefox,1920,1080,281.663,16,left,0.931,canary,1,281.68,281.68,284.179,0,7,7,7,1,5,3,1,html/resources/stimuli_practice_decision/02_canary.jpg,html/resources/stimuli_practice_decision/07_sock.jpg,canary,sock,,,,,,,,,,,,,,,,,,,,,,,,,,,,,,,,,,,,,,,,,,,,,,,,,,,,,,,,,,,,,,,,,,,,,,,,,,,,,
,,,,,2,2020-07-01_11h31.23.544,retriever_ti,2020.1.3,Win32,60,Firefox,1920,1080,,,,,,,,,,,,,,,,,,,,,,left,1,2.432,1,0,0,0,2,1,html/resources/sequences_IDs/square1.png,star ↑,triangle →,circle ↓,← square,left,,,,,,,,,,,,,,,,,,,,,,,,,,,,,,,,,,,,,,,,,,,,,,,,,,,,,,,,,,,,,,
,,,,,2,2020-07-01_11h31.23.544,retriever_ti,2020.1.3,Win32,60,Firefox,1920,1080,,,,,,,,,,,,,,,,,,,,,,down,1,2.093,1,0,1,1,3,1,html/resources/sequences_IDs/triangle.png,star ↑,square →,triangle ↓,← circle,down,,,,,,,,,,,,,,,,,,,,,,,,,,,,,,,,,,,,,,,,,,,,,,,,,,,,,,,,,,,,,,
,,,,,2,2020-07-01_11h31.23.544,retriever_ti,2020.1.3,Win32,60,Firefox,1920,1080,,,,,,,,,,,,,,,,,,,,,,up,1,1.697,1,0,2,2,0,1,html/resources/sequences_IDs/circle.png,circle ↑,square →,triangle ↓,← star ,up,,,,,,,,,,,,,,,,,,,,,,,,,,,,,,,,,,,,,,,,,,,,,,,,,,,,,,,,,,,,,,
,,,,,2,2020-07-01_11h31.23.544,retriever_ti,2020.1.3,Win32,60,Firefox,1920,1080,,,,,,,,,,,,,,,,,,,,,,down,1,1.612,1,0,3,3,1,1,html/resources/sequences_IDs/star.png,square ↑,circle →,star ↓,← triangle,down,,,,,,,,,,,,,,,,,,,,,,,,,,,,,,,,,,,,,,,,,,,,,,,,,,,,,,,,,,,,,,
,,,,,2,2020-07-01_11h31.23.544,retriever_ti,2020.1.3,Win32,60,Firefox,1920,1080,,,,,,,,,,,,,,,,,,,,,,,,,,,,,,,,,,,,,0,6.343,1,0,1,0,1,,,,,,,,,,,,,,,,,,,,,,,,,,,,,,,,,,,,,,,,,,,,,,,,,,,,,,,
,,,,,2,2020-07-01_11h31.23.544,retriever_ti,2020.1.3,Win32,60,Firefox,1920,1080,,,,,,,,,,,,,,,,,1,,,,,,,,,,,,,,,,,,,,,,,,,,,312.94,1,left,1.516,phone       ,1,9,-5,0,3,312.98,312.98,315.48,0,0,0,0,1,1,1,6,phone       ,dress         ,html/resources/sequences_IDs/B/09_phone.jpg,html/resources/sequences_IDs/A/07_dress.jpg,9,7,4,2,3,2,7,5,0,2,,,,,,,,,,,,,,,,,,,,
,,,,,2,2020-07-01_11h31.23.544,retriever_ti,2020.1.3,Win32,60,Firefox,1920,1080,,,,,,,,,,,,,,,,,1,,,,,,,,,,,,,,,,,,,,,,,,,,,316.081,2,right,1.315,phone       ,1,9,-4,0,3,316.098,316.098,318.596,0,1,1,1,1,2,5,1,slipper     ,phone       ,html/resources/sequences_IDs/B/08_slipper.jpg,html/resources/sequences_IDs/B/09_phone.jpg,8,9,3,2,4,2,6,7,0,2,,,,,,,,,,,,,,,,,,,,
,,,,,2,2020-07-01_11h31.23.544,retriever_ti,2020.1.3,Win32,60,Firefox,1920,1080,,,,,,,,,,,,,,,,,1,,,,,,,,,,,,,,,,,,,,,,,,,,,319.213,3,left,1.485,giraffe     ,7,3,-1,0,1,319.232,319.232,321.731,0,2,2,2,1,3,7,8,giraffe     ,seaturtle     ,html/resources/sequences_IDs/B/03_giraffe.jpg,html/resources/sequences_IDs/A/02_seaturtle.jpg,3,2,1,1,2,1,2,1,1,2,,,,,,,,,,,,,,,,,,,,
,,,,,2,2020-07-01_11h31.23.544,retriever_ti,2020.1.3,Win32,60,Firefox,1920,1080,,,,,,,,,,,,,,,,,1,,,,,,,,,,,,,,,,,,,,,,,,,,,322.83,4,left,1.225,satellite_dish,2,10,1,1,1,322.863,322.863,325.363,0,3,3,3,1,4,2,1,satellite_dish,phone       ,html/resources/sequences_IDs/A/10_satellite_dish.jpg,html/resources/sequences_IDs/B/09_phone.jpg,10,9,4,2,4,2,8,7,0,2,,,,,,,,,,,,,,,,,,,,
,,,,,2,2020-07-01_11h31.23.544,retriever_ti,2020.1.3,Win32,60,Firefox,1920,1080,,,,,,,,,,,,,,,,,1,,,,,,,,,,,,,,,,,,,,,,,,,,,326.464,5,left,1.18,dress         ,6,7,1,1,1,326.498,326.498,328.996,0,4,4,4,1,5,6,5,dress         ,slipper     ,html/resources/sequences_IDs/A/07_dress.jpg,html/resources/sequences_IDs/B/08_slipper.jpg,7,8,3,2,3,2,5,6,0,2,,,,,,,,,,,,,,,,,,,,
,,,,,2,2020-07-01_11h31.23.544,retriever_ti,2020.1.3,Win32,60,Firefox,1920,1080,,,,,,,,,,,,,,,,,1,,,,,,,,,,,,,,,,,,,,,,,,,,,330.097,6,left,1.276,dress         ,6,7,2,1,3,330.131,330.131,332.63,0,5,5,5,1,6,6,4,dress         ,clownfish     ,html/resources/sequences_IDs/A/07_dress.jpg,html/resources/sequences_IDs/A/04_clownfish.jpg,7,4,3,2,2,1,5,3,0,2,,,,,,,,,,,,,,,,,,,,
,,,,,2,2020-07-01_11h31.23.544,retriever_ti,2020.1.3,Win32,60,Firefox,1920,1080,,,,,,,,,,,,,,,,,1,,,,,,,,,,,,,,,,,,,,,,,,,,,333.246,7,left,1.239,satellite_dish,2,10,-4,0,3,333.28,333.28,335.78,0,6,6,6,1,7,2,6,satellite_dish,dress         ,html/resources/sequences_IDs/A/10_satellite_dish.jpg,html/resources/sequences_IDs/A/07_dress.jpg,10,7,4,2,3,2,8,5,0,2,,,,,,,,,,,,,,,,,,,,
,,,,,2,2020-07-01_11h31.23.544,retriever_ti,2020.1.3,Win32,60,Firefox,1920,1080,,,,,,,,,,,,,,,,,1,,,,,,,,,,,,,,,,,,,,,,,,,,,336.38,8,left,1.441,parrot      ,3,5,-2,0,3,336.398,336.398,338.896,0,7,7,7,1,8,3,5,parrot      ,slipper     ,html/resources/sequences_IDs/B/05_parrot.jpg,html/resources/sequences_IDs/B/08_slipper.jpg,5,8,2,1,3,2,4,6,0,2,,,,,,,,,,,,,,,,,,,,
,,,,,2,2020-07-01_11h31.23.544,retriever_ti,2020.1.3,Win32,60,Firefox,1920,1080,,,,,,,,,,,,,,,,,1,,,,,,,,,,,,,,,,,,,,,,,,,,,339.497,9,left,1.954,seaturtle     ,8,2,2,1,3,339.53,339.53,342.029,0,8,8,8,1,9,8,6,seaturtle     ,dress         ,html/resources/sequences_IDs/A/02_seaturtle.jpg,html/resources/sequences_IDs/A/07_dress.jpg,2,7,2,1,3,2,1,5,0,2,,,,,,,,,,,,,,,,,,,,
,,,,,2,2020-07-01_11h31.23.544,retriever_ti,2020.1.3,Win32,60,Firefox,1920,1080,,,,,,,,,,,,,,,,,1,,,,,,,,,,,,,,,,,,,,,,,,,,,342.648,10,right,0.694,dress         ,6,7,1,1,0,342.68,342.68,345.179,0,9,9,9,1,10,5,6,slipper     ,dress         ,html/resources/sequences_IDs/B/08_slipper.jpg,html/resources/sequences_IDs/A/07_dress.jpg,8,7,3,2,3,2,6,5,1,2,,,,,,,,,,,,,,,,,,,,
,,,,,2,2020-07-01_11h31.23.544,retriever_ti,2020.1.3,Win32,60,Firefox,1920,1080,,,,,,,,,,,,,,,,,1,,,,,,,,,,,,,,,,,,,,,,,,,,,346.28,11,left,1.246,giraffe     ,7,3,1,1,1,346.298,346.298,348.796,0,10,10,10,1,11,7,6,giraffe     ,dress         ,html/resources/sequences_IDs/B/03_giraffe.jpg,html/resources/sequences_IDs/A/07_dress.jpg,3,7,1,1,3,2,2,5,0,2,,,,,,,,,,,,,,,,,,,,
,,,,,2,2020-07-01_11h31.23.544,retriever_ti,2020.1.3,Win32,60,Firefox,1920,1080,,,,,,,,,,,,,,,,,1,,,,,,,,,,,,,,,,,,,,,,,,,,,349.897,12,left,1.289,seaturtle     ,8,2,5,1,3,349.913,349.913,352.413,0,11,11,11,1,12,8,3,seaturtle     ,parrot      ,html/resources/sequences_IDs/A/02_seaturtle.jpg,html/resources/sequences_IDs/B/05_parrot.jpg,2,5,2,1,2,1,1,4,0,2,,,,,,,,,,,,,,,,,,,,
,,,,,2,2020-07-01_11h31.23.544,retriever_ti,2020.1.3,Win32,60,Firefox,1920,1080,,,,,,,,,,,,,,,,,1,,,,,,,,,,,,,,,,,,,,,,,,,,,353.03,13,left,0.876,parrot      ,3,5,-1,0,1,353.048,353.048,355.547,0,12,12,12,1,13,3,4,parrot      ,clownfish     ,html/resources/sequences_IDs/B/05_parrot.jpg,html/resources/sequences_IDs/A/04_clownfish.jpg,5,4,2,1,2,1,4,3,1,2,,,,,,,,,,,,,,,,,,,,
,,,,,2,2020-07-01_11h31.23.544,retriever_ti,2020.1.3,Win32,60,Firefox,1920,1080,,,,,,,,,,,,,,,,,1,,,,,,,,,,,,,,,,,,,,,,,,,,,356.647,14,right,1.028,giraffe     ,7,3,1,1,1,356.68,356.68,359.179,0,13,13,13,1,14,6,7,dress         ,giraffe     ,html/resources/sequences_IDs/A/07_dress.jpg,html/resources/sequences_IDs/B/03_giraffe.jpg,7,3,3,2,1,1,5,2,0,2,,,,,,,,,,,,,,,,,,,,
,,,,,2,2020-07-01_11h31.23.544,retriever_ti,2020.1.3,Win32,60,Firefox,1920,1080,,,,,,,,,,,,,,,,,1,,,,,,,,,,,,,,,,,,,,,,,,,,,360.28,15,right,0.764,satellite_dish,2,10,-3,0,3,360.298,360.298,362.796,0,14,14,14,1,15,5,2,slipper     ,satellite_dish,html/resources/sequences_IDs/B/08_slipper.jpg,html/resources/sequences_IDs/A/10_satellite_dish.jpg,8,10,3,2,4,2,6,8,0,2,,,,,,,,,,,,,,,,,,,,
,,,,,2,2020-07-01_11h31.23.544,retriever_ti,2020.1.3,Win32,60,Firefox,1920,1080,,,,,,,,,,,,,,,,,1,,,,,,,,,,,,,,,,,,,,,,,,,,,363.413,16,left,1.094,clownfish     ,4,4,-1,0,0,363.448,363.448,365.946,0,15,15,15,1,16,4,5,clownfish     ,slipper     ,html/resources/sequences_IDs/A/04_clownfish.jpg,html/resources/sequences_IDs/B/08_slipper.jpg,4,8,2,1,3,2,3,6,0,2,,,,,,,,,,,,,,,,,,,,
,,,,,2,2020-07-01_11h31.23.544,retriever_ti,2020.1.3,Win32,60,Firefox,1920,1080,,,,,,,,,,,,,,,,,1,,,,,,,,,,,,,,,,,,,,,,,,,,,367.047,17,right,0.826,slipper     ,5,8,1,1,1,367.063,367.063,369.563,0,16,16,16,1,17,4,5,clownfish     ,slipper     ,html/resources/sequences_IDs/A/04_clownfish.jpg,html/resources/sequences_IDs/B/08_slipper.jpg,4,8,2,1,3,2,3,6,0,2,,,,,,,,,,,,,,,,,,,,
,,,,,2,2020-07-01_11h31.23.544,retriever_ti,2020.1.3,Win32,60,Firefox,1920,1080,,,,,,,,,,,,,,,,,1,,,,,,,,,,,,,,,,,,,,,,,,,,,370.663,18,right,1.478,seaturtle     ,8,2,5,1,3,370.698,370.698,373.196,0,17,17,17,1,18,3,8,parrot      ,seaturtle     ,html/resources/sequences_IDs/B/05_parrot.jpg,html/resources/sequences_IDs/A/02_seaturtle.jpg,5,2,2,1,2,1,4,1,0,2,,,,,,,,,,,,,,,,,,,,
,,,,,2,2020-07-01_11h31.23.544,retriever_ti,2020.1.3,Win32,60,Firefox,1920,1080,,,,,,,,,,,,,,,,,1,,,,,,,,,,,,,,,,,,,,,,,,,,,373.796,19,right,2.113,parrot      ,3,5,-2,0,3,373.815,373.815,376.314,0,18,18,18,1,19,5,3,slipper     ,parrot      ,html/resources/sequences_IDs/B/08_slipper.jpg,html/resources/sequences_IDs/B/05_parrot.jpg,8,5,3,2,2,1,6,4,0,2,,,,,,,,,,,,,,,,,,,,
,,,,,2,2020-07-01_11h31.23.544,retriever_ti,2020.1.3,Win32,60,Firefox,1920,1080,,,,,,,,,,,,,,,,,1,,,,,,,,,,,,,,,,,,,,,,,,,,,376.93,20,right,0.976,giraffe     ,7,3,-1,0,0,376.963,376.963,379.463,0,19,19,19,1,20,8,7,seaturtle     ,giraffe     ,html/resources/sequences_IDs/A/02_seaturtle.jpg,html/resources/sequences_IDs/B/03_giraffe.jpg,2,3,2,1,1,1,1,2,0,2,,,,,,,,,,,,,,,,,,,,
,,,,,2,2020-07-01_11h31.23.544,retriever_ti,2020.1.3,Win32,60,Firefox,1920,1080,,,,,,,,,,,,,,,,,1,,,,,,,,,,,,,,,,,,,,,,,,,,,380.563,21,left,0.828,slipper     ,5,8,-3,0,3,380.596,380.596,383.096,0,20,20,20,1,21,5,8,slipper     ,seaturtle     ,html/resources/sequences_IDs/B/08_slipper.jpg,html/resources/sequences_IDs/A/02_seaturtle.jpg,8,2,3,2,2,1,6,1,0,2,,,,,,,,,,,,,,,,,,,,
,,,,,2,2020-07-01_11h31.23.544,retriever_ti,2020.1.3,Win32,60,Firefox,1920,1080,,,,,,,,,,,,,,,,,1,,,,,,,,,,,,,,,,,,,,,,,,,,,383.713,22,left,1.313,giraffe     ,7,3,3,1,3,383.748,383.748,386.247,0,21,21,21,1,22,7,4,giraffe     ,clownfish     ,html/resources/sequences_IDs/B/03_giraffe.jpg,html/resources/sequences_IDs/A/04_clownfish.jpg,3,4,1,1,2,1,2,3,0,2,,,,,,,,,,,,,,,,,,,,
,,,,,2,2020-07-01_11h31.23.544,retriever_ti,2020.1.3,Win32,60,Firefox,1920,1080,,,,,,,,,,,,,,,,,1,,,,,,,,,,,,,,,,,,,,,,,,,,,386.863,23,right,0.761,giraffe     ,7,3,3,1,3,386.898,386.898,389.396,0,22,22,22,1,23,4,7,clownfish     ,giraffe     ,html/resources/sequences_IDs/A/04_clownfish.jpg,html/resources/sequences_IDs/B/03_giraffe.jpg,4,3,2,1,1,1,3,2,0,2,,,,,,,,,,,,,,,,,,,,
,,,,,2,2020-07-01_11h31.23.544,retriever_ti,2020.1.3,Win32,60,Firefox,1920,1080,,,,,,,,,,,,,,,,,1,,,,,,,,,,,,,,,,,,,,,,,,,,,389.996,24,left,2.018,phone       ,1,9,-4,0,3,390.013,390.013,392.513,0,23,23,23,1,24,1,5,phone       ,slipper     ,html/resources/sequences_IDs/B/09_phone.jpg,html/resources/sequences_IDs/B/08_slipper.jpg,9,8,4,2,3,2,7,6,0,2,,,,,,,,,,,,,,,,,,,,
,,,,,2,2020-07-01_11h31.23.544,retriever_ti,2020.1.3,Win32,60,Firefox,1920,1080,,,,,,,,,,,,,,,,,1,,,,,,,,,,,,,,,,,,,,,,,,,,,393.113,25,left,1.515,dress         ,6,7,-2,0,3,393.146,393.146,395.646,0,24,24,24,1,25,6,8,dress         ,seaturtle     ,html/resources/sequences_IDs/A/07_dress.jpg,html/resources/sequences_IDs/A/02_seaturtle.jpg,7,2,3,2,2,1,5,1,0,2,,,,,,,,,,,,,,,,,,,,
,,,,,2,2020-07-01_11h31.23.544,retriever_ti,2020.1.3,Win32,60,Firefox,1920,1080,,,,,,,,,,,,,,,,,1,,,,,,,,,,,,,,,,,,,,,,,,,,,396.246,26,right,1.095,dress         ,6,7,3,1,3,396.263,396.263,398.763,0,25,25,25,1,26,3,6,parrot      ,dress         ,html/resources/sequences_IDs/B/05_parrot.jpg,html/resources/sequences_IDs/A/07_dress.jpg,5,7,2,1,3,2,4,5,0,2,,,,,,,,,,,,,,,,,,,,
,,,,,2,2020-07-01_11h31.23.544,retriever_ti,2020.1.3,Win32,60,Firefox,1920,1080,,,,,,,,,,,,,,,,,1,,,,,,,,,,,,,,,,,,,,,,,,,,,399.38,27,left,0.628,giraffe     ,7,3,2,1,3,399.397,399.397,401.896,0,26,26,26,1,27,7,5,giraffe     ,slipper     ,html/resources/sequences_IDs/B/03_giraffe.jpg,html/resources/sequences_IDs/B/08_slipper.jpg,3,8,1,1,3,2,2,6,0,2,,,,,,,,,,,,,,,,,,,,
,,,,,2,2020-07-01_11h31.23.544,retriever_ti,2020.1.3,Win32,60,Firefox,1920,1080,,,,,,,,,,,,,,,,,1,,,,,,,,,,,,,,,,,,,,,,,,,,,402.497,28,right,0.782,phone       ,1,9,-2,0,3,402.515,402.515,405.013,0,27,27,27,1,28,3,1,parrot      ,phone       ,html/resources/sequences_IDs/B/05_parrot.jpg,html/resources/sequences_IDs/B/09_phone.jpg,5,9,2,1,4,2,4,7,0,2,,,,,,,,,,,,,,,,,,,,
,,,,,2,2020-07-01_11h31.23.544,retriever_ti,2020.1.3,Win32,60,Firefox,1920,1080,,,,,,,,,,,,,,,,,1,,,,,,,,,,,,,,,,,,,,,,,,,,,405.614,29,left,1.144,giraffe     ,7,3,-1,0,0,405.646,405.646,408.146,0,28,28,28,1,29,7,8,giraffe     ,seaturtle     ,html/resources/sequences_IDs/B/03_giraffe.jpg,html/resources/sequences_IDs/A/02_seaturtle.jpg,3,2,1,1,2,1,2,1,0,2,,,,,,,,,,,,,,,,,,,,
,,,,,2,2020-07-01_11h31.23.544,retriever_ti,2020.1.3,Win32,60,Firefox,1920,1080,,,,,,,,,,,,,,,,,1,,,,,,,,,,,,,,,,,,,,,,,,,,,409.247,30,right,1.493,clownfish     ,4,4,-1,0,1,409.281,409.281,411.78,0,29,29,29,1,30,5,4,slipper     ,clownfish     ,html/resources/sequences_IDs/B/08_slipper.jpg,html/resources/sequences_IDs/A/04_clownfish.jpg,8,4,3,2,2,1,6,3,1,2,,,,,,,,,,,,,,,,,,,,
,,,,,2,2020-07-01_11h31.23.544,retriever_ti,2020.1.3,Win32,60,Firefox,1920,1080,,,,,,,,,,,,,,,,,1,,,,,,,,,,,,,,,,,,,,,,,,,,,412.88,31,right,0.661,clownfish     ,4,4,-1,0,0,412.915,412.915,415.413,0,30,30,30,1,31,5,4,slipper     ,clownfish     ,html/resources/sequences_IDs/B/08_slipper.jpg,html/resources/sequences_IDs/A/04_clownfish.jpg,8,4,3,2,2,1,6,3,0,2,,,,,,,,,,,,,,,,,,,,
,,,,,2,2020-07-01_11h31.23.544,retriever_ti,2020.1.3,Win32,60,Firefox,1920,1080,,,,,,,,,,,,,,,,,1,,,,,,,,,,,,,,,,,,,,,,,,,,,416.513,32,left,1.192,parrot      ,3,5,-1,0,0,416.546,416.546,419.047,0,31,31,31,1,32,3,4,parrot      ,clownfish     ,html/resources/sequences_IDs/B/05_parrot.jpg,html/resources/sequences_IDs/A/04_clownfish.jpg,5,4,2,1,2,1,4,3,0,2,,,,,,,,,,,,,,,,,,,,
,,,,,2,2020-07-01_11h31.23.544,retriever_ti,2020.1.3,Win32,60,Firefox,1920,1080,,,,,,,,,,,,,,,,,1,,,,,,,,,,,,,,,,,,,,,,,,,,,420.147,33,left,1.178,satellite_dish,2,10,-1,0,0,420.18,420.18,422.679,0,32,32,32,1,33,2,3,satellite_dish,parrot      ,html/resources/sequences_IDs/A/10_satellite_dish.jpg,html/resources/sequences_IDs/B/05_parrot.jpg,10,5,4,2,2,1,8,4,0,2,,,,,,,,,,,,,,,,,,,,
,,,,,2,2020-07-01_11h31.23.544,retriever_ti,2020.1.3,Win32,60,Firefox,1920,1080,,,,,,,,,,,,,,,,,1,,,,,,,,,,,,,,,,,,,,,,,,,,,423.78,34,left,1.497,dress         ,6,7,1,1,1,423.798,423.798,426.296,0,33,33,33,1,34,6,5,dress         ,slipper     ,html/resources/sequences_IDs/A/07_dress.jpg,html/resources/sequences_IDs/B/08_slipper.jpg,7,8,3,2,3,2,5,6,0,2,,,,,,,,,,,,,,,,,,,,
,,,,,2,2020-07-01_11h31.23.544,retriever_ti,2020.1.3,Win32,60,Firefox,1920,1080,,,,,,,,,,,,,,,,,1,,,,,,,,,,,,,,,,,,,,,,,,,,,427.397,35,NaN,NaN,No_response,NaN,NaN,NaN,2,2,427.43,427.43,429.93,0,34,34,34,1,35,7,3,giraffe     ,parrot      ,html/resources/sequences_IDs/B/03_giraffe.jpg,html/resources/sequences_IDs/B/05_parrot.jpg,3,5,1,1,2,1,2,4,0,2,,,,,,,,,,,,,,,,,,,,
,,,,,2,2020-07-01_11h31.23.544,retriever_ti,2020.1.3,Win32,60,Firefox,1920,1080,,,,,,,,,,,,,,,,,1,,,,,,,,,,,,,,,,,,,,,,,,,,,431.03,36,left,0.649,satellite_dish,2,10,-5,0,3,431.047,431.047,433.546,0,35,35,35,1,36,2,7,satellite_dish,giraffe     ,html/resources/sequences_IDs/A/10_satellite_dish.jpg,html/resources/sequences_IDs/B/03_giraffe.jpg,10,3,4,2,1,1,8,2,0,2,,,,,,,,,,,,,,,,,,,,
,,,,,2,2020-07-01_11h31.23.544,retriever_ti,2020.1.3,Win32,60,Firefox,1920,1080,,,,,,,,,,,,,,,,,1,,,,,,,,,,,,,,,,,,,,,,,,,,,434.163,37,left,0.626,satellite_dish,2,10,-3,0,3,434.198,434.198,436.697,0,36,36,36,1,37,2,5,satellite_dish,slipper     ,html/resources/sequences_IDs/A/10_satellite_dish.jpg,html/resources/sequences_IDs/B/08_slipper.jpg,10,8,4,2,3,2,8,6,0,2,,,,,,,,,,,,,,,,,,,,
,,,,,2,2020-07-01_11h31.23.544,retriever_ti,2020.1.3,Win32,60,Firefox,1920,1080,,,,,,,,,,,,,,,,,1,,,,,,,,,,,,,,,,,,,,,,,,,,,437.313,38,left,0.911,dress         ,6,7,3,1,3,437.33,437.33,439.83,0,37,37,37,1,38,6,3,dress         ,parrot      ,html/resources/sequences_IDs/A/07_dress.jpg,html/resources/sequences_IDs/B/05_parrot.jpg,7,5,3,2,2,1,5,4,0,2,,,,,,,,,,,,,,,,,,,,
,,,,,2,2020-07-01_11h31.23.544,retriever_ti,2020.1.3,Win32,60,Firefox,1920,1080,,,,,,,,,,,,,,,,,1,,,,,,,,,,,,,,,,,,,,,,,,,,,440.446,39,right,0.615,giraffe     ,7,3,2,1,3,440.48,440.48,442.98,0,38,38,38,1,39,5,7,slipper     ,giraffe     ,html/resources/sequences_IDs/B/08_slipper.jpg,html/resources/sequences_IDs/B/03_giraffe.jpg,8,3,3,2,1,1,6,2,0,2,,,,,,,,,,,,,,,,,,,,
,,,,,2,2020-07-01_11h31.23.544,retriever_ti,2020.1.3,Win32,60,Firefox,1920,1080,,,,,,,,,,,,,,,,,1,,,,,,,,,,,,,,,,,,,,,,,,,,,443.58,40,right,0.443,dress         ,6,7,1,1,1,443.613,443.613,446.113,0,39,39,39,1,40,5,6,slipper     ,dress         ,html/resources/sequences_IDs/B/08_slipper.jpg,html/resources/sequences_IDs/A/07_dress.jpg,8,7,3,2,3,2,6,5,0,2,,,,,,,,,,,,,,,,,,,,
,,,,,2,2020-07-01_11h31.23.544,retriever_ti,2020.1.3,Win32,60,Firefox,1920,1080,,,,,,,,,,,,,,,,,1,,,,,,,,,,,,,,,,,,,,,,,,,,,447.213,41,right,0.745,satellite_dish,2,10,-4,0,3,447.231,447.231,449.729,0,40,40,40,1,41,6,2,dress         ,satellite_dish,html/resources/sequences_IDs/A/07_dress.jpg,html/resources/sequences_IDs/A/10_satellite_dish.jpg,7,10,3,2,4,2,5,8,0,2,,,,,,,,,,,,,,,,,,,,
,,,,,2,2020-07-01_11h31.23.544,retriever_ti,2020.1.3,Win32,60,Firefox,1920,1080,,,,,,,,,,,,,,,,,1,,,,,,,,,,,,,,,,,,,,,,,,,,,450.33,42,right,0.711,dress         ,6,7,1,1,1,450.365,450.365,452.863,0,41,41,41,1,42,5,6,slipper     ,dress         ,html/resources/sequences_IDs/B/08_slipper.jpg,html/resources/sequences_IDs/A/07_dress.jpg,8,7,3,2,3,2,6,5,0,2,,,,,,,,,,,,,,,,,,,,
,,,,,2,2020-07-01_11h31.23.544,retriever_ti,2020.1.3,Win32,60,Firefox,1920,1080,,,,,,,,,,,,,,,,,1,,,,,,,,,,,,,,,,,,,,,,,,,,,453.963,43,left,1.179,giraffe     ,7,3,6,1,3,453.998,453.998,456.496,0,42,42,42,1,43,7,1,giraffe     ,phone       ,html/resources/sequences_IDs/B/03_giraffe.jpg,html/resources/sequences_IDs/B/09_phone.jpg,3,9,1,1,4,2,2,7,0,2,,,,,,,,,,,,,,,,,,,,
,,,,,2,2020-07-01_11h31.23.544,retriever_ti,2020.1.3,Win32,60,Firefox,1920,1080,,,,,,,,,,,,,,,,,1,,,,,,,,,,,,,,,,,,,,,,,,,,,457.096,44,right,1.616,giraffe     ,7,3,1,1,0,457.115,457.115,459.613,0,43,43,43,1,44,6,7,dress         ,giraffe     ,html/resources/sequences_IDs/A/07_dress.jpg,html/resources/sequences_IDs/B/03_giraffe.jpg,7,3,3,2,1,1,5,2,1,2,,,,,,,,,,,,,,,,,,,,
,,,,,2,2020-07-01_11h31.23.544,retriever_ti,2020.1.3,Win32,60,Firefox,1920,1080,,,,,,,,,,,,,,,,,1,,,,,,,,,,,,,,,,,,,,,,,,,,,460.713,45,right,1.294,satellite_dish,2,10,-1,0,0,460.748,460.748,463.246,0,44,44,44,1,45,3,2,parrot      ,satellite_dish,html/resources/sequences_IDs/B/05_parrot.jpg,html/resources/sequences_IDs/A/10_satellite_dish.jpg,5,10,2,1,4,2,4,8,0,2,,,,,,,,,,,,,,,,,,,,
,,,,,2,2020-07-01_11h31.23.544,retriever_ti,2020.1.3,Win32,60,Firefox,1920,1080,,,,,,,,,,,,,,,,,1,,,,,,,,,,,,,,,,,,,,,,,,,,,464.346,46,left,1.695,clownfish     ,4,4,1,1,1,464.381,464.381,466.88,0,45,45,45,1,46,4,3,clownfish     ,parrot      ,html/resources/sequences_IDs/A/04_clownfish.jpg,html/resources/sequences_IDs/B/05_parrot.jpg,4,5,2,1,2,1,3,4,0,2,,,,,,,,,,,,,,,,,,,,
,,,,,2,2020-07-01_11h31.23.544,retriever_ti,2020.1.3,Win32,60,Firefox,1920,1080,,,,,,,,,,,,,,,,,1,,,,,,,,,,,,,,,,,,,,,,,,,,,467.98,47,left,1.899,giraffe     ,7,3,-1,0,0,468.015,468.015,470.513,0,46,46,46,1,47,7,8,giraffe     ,seaturtle     ,html/resources/sequences_IDs/B/03_giraffe.jpg,html/resources/sequences_IDs/A/02_seaturtle.jpg,3,2,1,1,2,1,2,1,0,2,,,,,,,,,,,,,,,,,,,,
,,,,,2,2020-07-01_11h31.23.544,retriever_ti,2020.1.3,Win32,60,Firefox,1920,1080,,,,,,,,,,,,,,,,,1,,,,,,,,,,,,,,,,,,,,,,,,,,,471.613,48,left,1.477,phone       ,1,9,-2,0,3,471.648,471.648,474.146,0,47,47,47,1,48,1,3,phone       ,parrot      ,html/resources/sequences_IDs/B/09_phone.jpg,html/resources/sequences_IDs/B/05_parrot.jpg,9,5,4,2,2,1,7,4,0,2,,,,,,,,,,,,,,,,,,,,
,,,,,2,2020-07-01_11h31.23.544,retriever_ti,2020.1.3,Win32,60,Firefox,1920,1080,,,,,,,,,,,,,,,,,1,,,,,,,,,,,,,,,,,,,,,,,,,,,474.747,49,left,1.877,clownfish     ,4,4,-2,0,3,474.763,474.763,477.263,0,48,48,48,1,49,4,6,clownfish     ,dress         ,html/resources/sequences_IDs/A/04_clownfish.jpg,html/resources/sequences_IDs/A/07_dress.jpg,4,7,2,1,3,2,3,5,0,2,,,,,,,,,,,,,,,,,,,,
,,,,,2,2020-07-01_11h31.23.544,retriever_ti,2020.1.3,Win32,60,Firefox,1920,1080,,,,,,,,,,,,,,,,,1,,,,,,,,,,,,,,,,,,,,,,,,,,,477.88,50,right,1.613,satellite_dish,2,10,1,1,1,477.915,477.915,480.413,0,49,49,49,1,50,1,2,phone       ,satellite_dish,html/resources/sequences_IDs/B/09_phone.jpg,html/resources/sequences_IDs/A/10_satellite_dish.jpg,9,10,4,2,4,2,7,8,0,2,,,,,,,,,,,,,,,,,,,,
,,,,,2,2020-07-01_11h31.23.544,retriever_ti,2020.1.3,Win32,60,Firefox,1920,1080,,,,,,,,,,,,,,,,,1,,,,,,,,,,,,,,,,,,,,,,,,,,,481.513,51,right,1.366,satellite_dish,2,10,-6,0,3,481.546,481.546,484.048,0,50,50,50,1,51,8,2,seaturtle     ,satellite_dish,html/resources/sequences_IDs/A/02_seaturtle.jpg,html/resources/sequences_IDs/A/10_satellite_dish.jpg,2,10,2,1,4,2,1,8,0,2,,,,,,,,,,,,,,,,,,,,
,,,,,2,2020-07-01_11h31.23.544,retriever_ti,2020.1.3,Win32,60,Firefox,1920,1080,,,,,,,,,,,,,,,,,1,,,,,,,,,,,,,,,,,,,,,,,,,,,484.647,52,left,0.945,giraffe     ,7,3,5,1,3,484.68,484.68,487.18,0,51,51,51,1,52,7,2,giraffe     ,satellite_dish,html/resources/sequences_IDs/B/03_giraffe.jpg,html/resources/sequences_IDs/A/10_satellite_dish.jpg,3,10,1,1,4,2,2,8,0,2,,,,,,,,,,,,,,,,,,,,
,,,,,2,2020-07-01_11h31.23.544,retriever_ti,2020.1.3,Win32,60,Firefox,1920,1080,,,,,,,,,,,,,,,,,1,,,,,,,,,,,,,,,,,,,,,,,,,,,487.78,53,left,1.328,parrot      ,3,5,1,1,1,487.796,487.796,490.296,0,52,52,52,1,53,3,2,parrot      ,satellite_dish,html/resources/sequences_IDs/B/05_parrot.jpg,html/resources/sequences_IDs/A/10_satellite_dish.jpg,5,10,2,1,4,2,4,8,0,2,,,,,,,,,,,,,,,,,,,,
,,,,,2,2020-07-01_11h31.23.544,retriever_ti,2020.1.3,Win32,60,Firefox,1920,1080,,,,,,,,,,,,,,,,,1,,,,,,,,,,,,,,,,,,,,,,,,,,,491.397,54,right,0.878,clownfish     ,4,4,1,1,1,491.413,491.413,493.913,0,53,53,53,1,54,3,4,parrot      ,clownfish     ,html/resources/sequences_IDs/B/05_parrot.jpg,html/resources/sequences_IDs/A/04_clownfish.jpg,5,4,2,1,2,1,4,3,0,2,,,,,,,,,,,,,,,,,,,,
,,,,,2,2020-07-01_11h31.23.544,retriever_ti,2020.1.3,Win32,60,Firefox,1920,1080,,,,,,,,,,,,,,,,,1,,,,,,,,,,,,,,,,,,,,,,,,,,,495.013,55,left,1.546,parrot      ,3,5,-4,0,3,495.046,495.046,497.547,0,54,54,54,1,55,3,7,parrot      ,giraffe     ,html/resources/sequences_IDs/B/05_parrot.jpg,html/resources/sequences_IDs/B/03_giraffe.jpg,5,3,2,1,1,1,4,2,0,2,,,,,,,,,,,,,,,,,,,,
,,,,,2,2020-07-01_11h31.23.544,retriever_ti,2020.1.3,Win32,60,Firefox,1920,1080,,,,,,,,,,,,,,,,,1,,,,,,,,,,,,,,,,,,,,,,,,,,,498.164,56,right,1.26,clownfish     ,4,4,2,1,3,498.197,498.197,500.696,0,55,55,55,1,56,2,4,satellite_dish,clownfish     ,html/resources/sequences_IDs/A/10_satellite_dish.jpg,html/resources/sequences_IDs/A/04_clownfish.jpg,10,4,4,2,2,1,8,3,0,2,,,,,,,,,,,,,,,,,,,,
,,,,,2,2020-07-01_11h31.23.544,retriever_ti,2020.1.3,Win32,60,Firefox,1920,1080,,,,,,,,,,,,,,,,,1,,,,,,,,,,,,,,,,,,,,,,,,,,,501.297,57,right,1.777,satellite_dish,2,10,1,1,1,501.33,501.33,503.829,0,56,56,56,1,57,1,2,phone       ,satellite_dish,html/resources/sequences_IDs/B/09_phone.jpg,html/resources/sequences_IDs/A/10_satellite_dish.jpg,9,10,4,2,4,2,7,8,0,2,,,,,,,,,,,,,,,,,,,,
,,,,,2,2020-07-01_11h31.23.544,retriever_ti,2020.1.3,Win32,60,Firefox,1920,1080,,,,,,,,,,,,,,,,,1,,,,,,,,,,,,,,,,,,,,,,,,,,,504.93,58,left,1.677,seaturtle     ,8,2,7,1,3,504.948,504.948,507.447,0,57,57,57,1,58,8,1,seaturtle     ,phone       ,html/resources/sequences_IDs/A/02_seaturtle.jpg,html/resources/sequences_IDs/B/09_phone.jpg,2,9,2,1,4,2,1,7,0,2,,,,,,,,,,,,,,,,,,,,
,,,,,2,2020-07-01_11h31.23.544,retriever_ti,2020.1.3,Win32,60,Firefox,1920,1080,,,,,,,,,,,,,,,,,1,,,,,,,,,,,,,,,,,,,,,,,,,,,508.063,59,left,0.877,seaturtle     ,8,2,3,1,3,508.098,508.098,510.597,0,58,58,58,1,59,8,5,seaturtle     ,slipper     ,html/resources/sequences_IDs/A/02_seaturtle.jpg,html/resources/sequences_IDs/B/08_slipper.jpg,2,8,2,1,3,2,1,6,0,2,,,,,,,,,,,,,,,,,,,,
,,,,,2,2020-07-01_11h31.23.544,retriever_ti,2020.1.3,Win32,60,Firefox,1920,1080,,,,,,,,,,,,,,,,,1,,,,,,,,,,,,,,,,,,,,,,,,,,,511.213,60,right,0.581,clownfish     ,4,4,-1,0,0,511.23,511.23,513.73,0,59,59,59,1,60,5,4,slipper     ,clownfish     ,html/resources/sequences_IDs/B/08_slipper.jpg,html/resources/sequences_IDs/A/04_clownfish.jpg,8,4,3,2,2,1,6,3,0,2,,,,,,,,,,,,,,,,,,,,
,,,,,2,2020-07-01_11h31.23.544,retriever_ti,2020.1.3,Win32,60,Firefox,1920,1080,,,,,,,,,,,,,,,,,1,,,,,,,,,,,,,,,,,,,,,,,,,,,514.83,61,right,1.029,dress         ,6,7,-1,0,0,514.863,514.863,517.363,0,60,60,60,1,61,7,6,giraffe     ,dress         ,html/resources/sequences_IDs/B/03_giraffe.jpg,html/resources/sequences_IDs/A/07_dress.jpg,3,7,1,1,3,2,2,5,0,2,,,,,,,,,,,,,,,,,,,,
,,,,,2,2020-07-01_11h31.23.544,retriever_ti,2020.1.3,Win32,60,Firefox,1920,1080,,,,,,,,,,,,,,,,,1,,,,,,,,,,,,,,,,,,,,,,,,,,,518.464,62,left,1.194,dress         ,6,7,5,1,3,518.497,518.497,520.996,0,61,61,61,1,62,6,1,dress         ,phone       ,html/resources/sequences_IDs/A/07_dress.jpg,html/resources/sequences_IDs/B/09_phone.jpg,7,9,3,2,4,2,5,7,0,2,,,,,,,,,,,,,,,,,,,,
,,,,,2,2020-07-01_11h31.23.544,retriever_ti,2020.1.3,Win32,60,Firefox,1920,1080,,,,,,,,,,,,,,,,,1,,,,,,,,,,,,,,,,,,,,,,,,,,,521.596,63,left,0.745,clownfish     ,4,4,-4,0,3,521.613,521.613,524.113,0,62,62,62,1,63,4,8,clownfish     ,seaturtle     ,html/resources/sequences_IDs/A/04_clownfish.jpg,html/resources/sequences_IDs/A/02_seaturtle.jpg,4,2,2,1,2,1,3,1,0,2,,,,,,,,,,,,,,,,,,,,
,,,,,2,2020-07-01_11h31.23.544,retriever_ti,2020.1.3,Win32,60,Firefox,1920,1080,,,,,,,,,,,,,,,,,1,,,,,,,,,,,,,,,,,,,,,,,,,,,524.714,64,right,1.08,giraffe     ,7,3,6,1,3,524.747,524.747,527.246,0,63,63,63,1,64,1,7,phone       ,giraffe     ,html/resources/sequences_IDs/B/09_phone.jpg,html/resources/sequences_IDs/B/03_giraffe.jpg,9,3,4,2,1,1,7,2,0,2,,,,,,,,,,,,,,,,,,,,
,,,,,2,2020-07-01_11h31.23.544,retriever_ti,2020.1.3,Win32,60,Firefox,1920,1080,,,,,,,,,,,,,,,,,1,,,,,,,,,,,,,,,,,,,,,,,,,,,527.847,65,left,0.676,dress         ,6,7,-1,0,0,527.863,527.863,530.363,0,64,64,64,1,65,6,7,dress         ,giraffe     ,html/resources/sequences_IDs/A/07_dress.jpg,html/resources/sequences_IDs/B/03_giraffe.jpg,7,3,3,2,1,1,5,2,0,2,,,,,,,,,,,,,,,,,,,,
,,,,,2,2020-07-01_11h31.23.544,retriever_ti,2020.1.3,Win32,60,Firefox,1920,1080,,,,,,,,,,,,,,,,,1,,,,,,,,,,,,,,,,,,,,,,,,,,,531.463,66,right,0.862,clownfish     ,4,4,-4,0,3,531.48,531.48,533.98,0,65,65,65,1,66,8,4,seaturtle     ,clownfish     ,html/resources/sequences_IDs/A/02_seaturtle.jpg,html/resources/sequences_IDs/A/04_clownfish.jpg,2,4,2,1,2,1,1,3,0,2,,,,,,,,,,,,,,,,,,,,
,,,,,2,2020-07-01_11h31.23.544,retriever_ti,2020.1.3,Win32,60,Firefox,1920,1080,,,,,,,,,,,,,,,,,1,,,,,,,,,,,,,,,,,,,,,,,,,,,534.597,67,right,0.945,parrot      ,3,5,1,1,0,534.613,534.613,537.113,0,66,66,66,1,67,2,3,satellite_dish,parrot      ,html/resources/sequences_IDs/A/10_satellite_dish.jpg,html/resources/sequences_IDs/B/05_parrot.jpg,10,5,4,2,2,1,8,4,1,2,,,,,,,,,,,,,,,,,,,,
,,,,,2,2020-07-01_11h31.23.544,retriever_ti,2020.1.3,Win32,60,Firefox,1920,1080,,,,,,,,,,,,,,,,,1,,,,,,,,,,,,,,,,,,,,,,,,,,,538.213,68,right,1.517,clownfish     ,4,4,3,1,3,538.246,538.246,540.747,0,67,67,67,1,68,1,4,phone       ,clownfish     ,html/resources/sequences_IDs/B/09_phone.jpg,html/resources/sequences_IDs/A/04_clownfish.jpg,9,4,4,2,2,1,7,3,0,2,,,,,,,,,,,,,,,,,,,,
,,,,,2,2020-07-01_11h31.23.544,retriever_ti,2020.1.3,Win32,60,Firefox,1920,1080,,,,,,,,,,,,,,,,,1,,,,,,,,,,,,,,,,,,,,,,,,,,,541.363,69,left,0.613,clownfish     ,4,4,2,1,3,541.397,541.397,543.896,0,68,68,68,1,69,4,2,clownfish     ,satellite_dish,html/resources/sequences_IDs/A/04_clownfish.jpg,html/resources/sequences_IDs/A/10_satellite_dish.jpg,4,10,2,1,4,2,3,8,0,2,,,,,,,,,,,,,,,,,,,,
,,,,,2,2020-07-01_11h31.23.544,retriever_ti,2020.1.3,Win32,60,Firefox,1920,1080,,,,,,,,,,,,,,,,,1,,,,,,,,,,,,,,,,,,,,,,,,,,,544.497,70,right,0.811,seaturtle     ,8,2,7,1,3,544.53,544.53,547.03,0,69,69,69,1,70,1,8,phone       ,seaturtle     ,html/resources/sequences_IDs/B/09_phone.jpg,html/resources/sequences_IDs/A/02_seaturtle.jpg,9,2,4,2,2,1,7,1,0,2,,,,,,,,,,,,,,,,,,,,
,,,,,2,2020-07-01_11h31.23.544,retriever_ti,2020.1.3,Win32,60,Firefox,1920,1080,,,,,,,,,,,,,,,,,1,,,,,,,,,,,,,,,,,,,,,,,,,,,547.63,71,left,0.949,clownfish     ,4,4,3,1,3,547.647,547.647,550.146,0,70,70,70,1,71,4,1,clownfish     ,phone       ,html/resources/sequences_IDs/A/04_clownfish.jpg,html/resources/sequences_IDs/B/09_phone.jpg,4,9,2,1,4,2,3,7,0,2,,,,,,,,,,,,,,,,,,,,
,,,,,2,2020-07-01_11h31.23.544,retriever_ti,2020.1.3,Win32,60,Firefox,1920,1080,,,,,,,,,,,,,,,,,1,,,,,,,,,,,,,,,,,,,,,,,,,,,550.747,72,right,0.71,parrot      ,3,5,-1,0,0,550.765,550.765,553.263,0,71,71,71,1,72,4,3,clownfish     ,parrot      ,html/resources/sequences_IDs/A/04_clownfish.jpg,html/resources/sequences_IDs/B/05_parrot.jpg,4,5,2,1,2,1,3,4,0,2,,,,,,,,,,,,,,,,,,,,
,,,,,2,2020-07-01_11h31.23.544,retriever_ti,2020.1.3,Win32,60,Firefox,1920,1080,,,,,,,,,,,,,,,,,1,,,,,,,,,,,,,,,,,,,,,,,,,,,554.364,73,NaN,NaN,No_response,NaN,NaN,NaN,2,2,554.396,554.396,556.896,0,72,72,72,1,73,2,1,satellite_dish,phone       ,html/resources/sequences_IDs/A/10_satellite_dish.jpg,html/resources/sequences_IDs/B/09_phone.jpg,10,9,4,2,4,2,8,7,0,2,,,,,,,,,,,,,,,,,,,,
,,,,,2,2020-07-01_11h31.23.544,retriever_ti,2020.1.3,Win32,60,Firefox,1920,1080,,,,,,,,,,,,,,,,,1,,,,,,,,,,,,,,,,,,,,,,,,,,,557.997,74,right,1.811,giraffe     ,7,3,-1,0,0,558.015,558.015,560.513,0,73,73,73,1,74,8,7,seaturtle     ,giraffe     ,html/resources/sequences_IDs/A/02_seaturtle.jpg,html/resources/sequences_IDs/B/03_giraffe.jpg,2,3,2,1,1,1,1,2,0,2,,,,,,,,,,,,,,,,,,,,
,,,,,2,2020-07-01_11h31.23.544,retriever_ti,2020.1.3,Win32,60,Firefox,1920,1080,,,,,,,,,,,,,,,,,1,,,,,,,,,,,,,,,,,,,,,,,,,,,561.614,75,left,0.545,satellite_dish,2,10,-1,0,0,561.647,561.647,564.146,0,74,74,74,1,75,2,3,satellite_dish,parrot      ,html/resources/sequences_IDs/A/10_satellite_dish.jpg,html/resources/sequences_IDs/B/05_parrot.jpg,10,5,4,2,2,1,8,4,0,2,,,,,,,,,,,,,,,,,,,,
,,,,,2,2020-07-01_11h31.23.544,retriever_ti,2020.1.3,Win32,60,Firefox,1920,1080,,,,,,,,,,,,,,,,,1,,,,,,,,,,,,,,,,,,,,,,,,,,,565.247,76,left,0.793,satellite_dish,2,10,1,1,0,565.263,565.263,567.763,0,75,75,75,1,76,2,1,satellite_dish,phone       ,html/resources/sequences_IDs/A/10_satellite_dish.jpg,html/resources/sequences_IDs/B/09_phone.jpg,10,9,4,2,4,2,8,7,1,2,,,,,,,,,,,,,,,,,,,,
,,,,,2,2020-07-01_11h31.23.544,retriever_ti,2020.1.3,Win32,60,Firefox,1920,1080,,,,,,,,,,,,,,,,,1,,,,,,,,,,,,,,,,,,,,,,,,,,,568.864,77,right,0.544,seaturtle     ,8,2,6,1,3,568.88,568.88,571.379,0,76,76,76,1,77,2,8,satellite_dish,seaturtle     ,html/resources/sequences_IDs/A/10_satellite_dish.jpg,html/resources/sequences_IDs/A/02_seaturtle.jpg,10,2,4,2,2,1,8,1,0,2,,,,,,,,,,,,,,,,,,,,
,,,,,2,2020-07-01_11h31.23.544,retriever_ti,2020.1.3,Win32,60,Firefox,1920,1080,,,,,,,,,,,,,,,,,,,,,,,,,,,,,,,,,,,,,1,5.726,,,,,,,,,,,,,,,,,,,,,,,,,,,,,,,,,,,,,,,,,0,0,0,0,1,,,,,,,,,,,,,,,
,,,,,2,2020-07-01_11h31.23.544,retriever_ti,2020.1.3,Win32,60,Firefox,1920,1080,,,,,,,,,,,,,,,,,2,,,,,,,,,,,,,,,,,,,,,,,,,,,654.837,78,left,0.996,seaturtle     ,8,2,3,1,3,654.849,654.849,657.346,0,0,0,0,1,78,8,5,seaturtle     ,slipper     ,html/resources/sequences_IDs/A/02_seaturtle.jpg,html/resources/sequences_IDs/B/08_slipper.jpg,2,8,2,1,3,2,1,6,0,2,,,,,,,,,,,,,,,,,,,,
,,,,,2,2020-07-01_11h31.23.544,retriever_ti,2020.1.3,Win32,60,Firefox,1920,1080,,,,,,,,,,,,,,,,,2,,,,,,,,,,,,,,,,,,,,,,,,,,,657.947,79,right,1.37,giraffe     ,7,3,1,1,1,657.981,657.981,660.48,0,1,1,1,1,79,6,7,dress         ,giraffe     ,html/resources/sequences_IDs/A/07_dress.jpg,html/resources/sequences_IDs/B/03_giraffe.jpg,7,3,3,2,1,1,5,2,0,2,,,,,,,,,,,,,,,,,,,,
,,,,,2,2020-07-01_11h31.23.544,retriever_ti,2020.1.3,Win32,60,Firefox,1920,1080,,,,,,,,,,,,,,,,,2,,,,,,,,,,,,,,,,,,,,,,,,,,,661.58,80,right,0.69,clownfish     ,4,4,-1,0,1,661.598,661.598,664.096,0,2,2,2,1,80,5,4,slipper     ,clownfish     ,html/resources/sequences_IDs/B/08_slipper.jpg,html/resources/sequences_IDs/A/04_clownfish.jpg,8,4,3,2,2,1,6,3,1,2,,,,,,,,,,,,,,,,,,,,
,,,,,2,2020-07-01_11h31.23.544,retriever_ti,2020.1.3,Win32,60,Firefox,1920,1080,,,,,,,,,,,,,,,,,2,,,,,,,,,,,,,,,,,,,,,,,,,,,665.197,81,left,1.144,seaturtle     ,8,2,7,1,3,665.23,665.23,667.73,0,3,3,3,1,81,8,1,seaturtle     ,phone       ,html/resources/sequences_IDs/A/02_seaturtle.jpg,html/resources/sequences_IDs/B/09_phone.jpg,2,9,2,1,4,2,1,7,0,2,,,,,,,,,,,,,,,,,,,,
,,,,,2,2020-07-01_11h31.23.544,retriever_ti,2020.1.3,Win32,60,Firefox,1920,1080,,,,,,,,,,,,,,,,,2,,,,,,,,,,,,,,,,,,,,,,,,,,,668.346,82,left,1.164,clownfish     ,4,4,-2,0,3,668.381,668.381,670.879,0,4,4,4,1,82,4,6,clownfish     ,dress         ,html/resources/sequences_IDs/A/04_clownfish.jpg,html/resources/sequences_IDs/A/07_dress.jpg,4,7,2,1,3,2,3,5,0,2,,,,,,,,,,,,,,,,,,,,
,,,,,2,2020-07-01_11h31.23.544,retriever_ti,2020.1.3,Win32,60,Firefox,1920,1080,,,,,,,,,,,,,,,,,2,,,,,,,,,,,,,,,,,,,,,,,,,,,671.48,83,left,1.06,satellite_dish,2,10,1,1,0,671.497,671.497,673.997,0,5,5,5,1,83,2,1,satellite_dish,phone       ,html/resources/sequences_IDs/A/10_satellite_dish.jpg,html/resources/sequences_IDs/B/09_phone.jpg,10,9,4,2,4,2,8,7,1,2,,,,,,,,,,,,,,,,,,,,
,,,,,2,2020-07-01_11h31.23.544,retriever_ti,2020.1.3,Win32,60,Firefox,1920,1080,,,,,,,,,,,,,,,,,2,,,,,,,,,,,,,,,,,,,,,,,,,,,675.097,84,right,0.612,dress         ,6,7,1,1,0,675.13,675.13,677.629,0,6,6,6,1,84,5,6,slipper     ,dress         ,html/resources/sequences_IDs/B/08_slipper.jpg,html/resources/sequences_IDs/A/07_dress.jpg,8,7,3,2,3,2,6,5,1,2,,,,,,,,,,,,,,,,,,,,
,,,,,2,2020-07-01_11h31.23.544,retriever_ti,2020.1.3,Win32,60,Firefox,1920,1080,,,,,,,,,,,,,,,,,2,,,,,,,,,,,,,,,,,,,,,,,,,,,678.73,85,left,1.745,dress         ,6,7,-1,0,1,678.765,678.765,681.263,0,7,7,7,1,85,6,7,dress         ,giraffe     ,html/resources/sequences_IDs/A/07_dress.jpg,html/resources/sequences_IDs/B/03_giraffe.jpg,7,3,3,2,1,1,5,2,1,2,,,,,,,,,,,,,,,,,,,,
,,,,,2,2020-07-01_11h31.23.544,retriever_ti,2020.1.3,Win32,60,Firefox,1920,1080,,,,,,,,,,,,,,,,,2,,,,,,,,,,,,,,,,,,,,,,,,,,,682.363,86,left,1.484,slipper     ,5,8,-2,0,3,682.398,682.398,684.897,0,8,8,8,1,86,5,7,slipper     ,giraffe     ,html/resources/sequences_IDs/B/08_slipper.jpg,html/resources/sequences_IDs/B/03_giraffe.jpg,8,3,3,2,1,1,6,2,0,2,,,,,,,,,,,,,,,,,,,,
,,,,,2,2020-07-01_11h31.23.544,retriever_ti,2020.1.3,Win32,60,Firefox,1920,1080,,,,,,,,,,,,,,,,,2,,,,,,,,,,,,,,,,,,,,,,,,,,,685.497,87,right,1.61,dress         ,6,7,-1,0,0,685.532,685.532,688.03,0,9,9,9,1,87,7,6,giraffe     ,dress         ,html/resources/sequences_IDs/B/03_giraffe.jpg,html/resources/sequences_IDs/A/07_dress.jpg,3,7,1,1,3,2,2,5,0,2,,,,,,,,,,,,,,,,,,,,
,,,,,2,2020-07-01_11h31.23.544,retriever_ti,2020.1.3,Win32,60,Firefox,1920,1080,,,,,,,,,,,,,,,,,2,,,,,,,,,,,,,,,,,,,,,,,,,,,689.13,88,right,1.11,phone       ,1,9,-4,0,3,689.163,689.163,691.663,0,10,10,10,1,88,5,1,slipper     ,phone       ,html/resources/sequences_IDs/B/08_slipper.jpg,html/resources/sequences_IDs/B/09_phone.jpg,8,9,3,2,4,2,6,7,0,2,,,,,,,,,,,,,,,,,,,,
,,,,,2,2020-07-01_11h31.23.544,retriever_ti,2020.1.3,Win32,60,Firefox,1920,1080,,,,,,,,,,,,,,,,,2,,,,,,,,,,,,,,,,,,,,,,,,,,,692.263,89,left,1.221,parrot      ,3,5,-2,0,3,692.297,692.297,694.797,0,11,11,11,1,89,3,5,parrot      ,slipper     ,html/resources/sequences_IDs/B/05_parrot.jpg,html/resources/sequences_IDs/B/08_slipper.jpg,5,8,2,1,3,2,4,6,0,2,,,,,,,,,,,,,,,,,,,,
,,,,,2,2020-07-01_11h31.23.544,retriever_ti,2020.1.3,Win32,60,Firefox,1920,1080,,,,,,,,,,,,,,,,,2,,,,,,,,,,,,,,,,,,,,,,,,,,,695.413,90,right,0.779,seaturtle     ,8,2,3,1,3,695.43,695.43,697.929,0,12,12,12,1,90,5,8,slipper     ,seaturtle     ,html/resources/sequences_IDs/B/08_slipper.jpg,html/resources/sequences_IDs/A/02_seaturtle.jpg,8,2,3,2,2,1,6,1,0,2,,,,,,,,,,,,,,,,,,,,
,,,,,2,2020-07-01_11h31.23.544,retriever_ti,2020.1.3,Win32,60,Firefox,1920,1080,,,,,,,,,,,,,,,,,2,,,,,,,,,,,,,,,,,,,,,,,,,,,698.53,91,right,1.712,seaturtle     ,8,2,1,1,1,698.566,698.566,701.063,0,13,13,13,1,91,7,8,giraffe     ,seaturtle     ,html/resources/sequences_IDs/B/03_giraffe.jpg,html/resources/sequences_IDs/A/02_seaturtle.jpg,3,2,1,1,2,1,2,1,0,2,,,,,,,,,,,,,,,,,,,,
,,,,,2,2020-07-01_11h31.23.544,retriever_ti,2020.1.3,Win32,60,Firefox,1920,1080,,,,,,,,,,,,,,,,,2,,,,,,,,,,,,,,,,,,,,,,,,,,,702.163,92,right,0.795,satellite_dish,2,10,1,1,1,702.18,702.18,704.68,0,14,14,14,1,92,1,2,phone       ,satellite_dish,html/resources/sequences_IDs/B/09_phone.jpg,html/resources/sequences_IDs/A/10_satellite_dish.jpg,9,10,4,2,4,2,7,8,0,2,,,,,,,,,,,,,,,,,,,,
,,,,,2,2020-07-01_11h31.23.544,retriever_ti,2020.1.3,Win32,60,Firefox,1920,1080,,,,,,,,,,,,,,,,,2,,,,,,,,,,,,,,,,,,,,,,,,,,,705.78,93,left,0.743,satellite_dish,2,10,-1,0,0,705.798,705.798,708.297,0,15,15,15,1,93,2,3,satellite_dish,parrot      ,html/resources/sequences_IDs/A/10_satellite_dish.jpg,html/resources/sequences_IDs/B/05_parrot.jpg,10,5,4,2,2,1,8,4,0,2,,,,,,,,,,,,,,,,,,,,
,,,,,2,2020-07-01_11h31.23.544,retriever_ti,2020.1.3,Win32,60,Firefox,1920,1080,,,,,,,,,,,,,,,,,2,,,,,,,,,,,,,,,,,,,,,,,,,,,709.396,94,right,0.682,satellite_dish,2,10,-1,0,0,709.414,709.414,711.913,0,16,16,16,1,94,3,2,parrot      ,satellite_dish,html/resources/sequences_IDs/B/05_parrot.jpg,html/resources/sequences_IDs/A/10_satellite_dish.jpg,5,10,2,1,4,2,4,8,0,2,,,,,,,,,,,,,,,,,,,,
,,,,,2,2020-07-01_11h31.23.544,retriever_ti,2020.1.3,Win32,60,Firefox,1920,1080,,,,,,,,,,,,,,,,,2,,,,,,,,,,,,,,,,,,,,,,,,,,,713.015,95,left,0.645,dress         ,6,7,4,1,3,713.03,713.03,715.529,0,17,17,17,1,95,6,2,dress         ,satellite_dish,html/resources/sequences_IDs/A/07_dress.jpg,html/resources/sequences_IDs/A/10_satellite_dish.jpg,7,10,3,2,4,2,5,8,0,2,,,,,,,,,,,,,,,,,,,,
,,,,,2,2020-07-01_11h31.23.544,retriever_ti,2020.1.3,Win32,60,Firefox,1920,1080,,,,,,,,,,,,,,,,,2,,,,,,,,,,,,,,,,,,,,,,,,,,,716.13,96,left,0.816,clownfish     ,4,4,-4,0,3,716.148,716.148,718.646,0,18,18,18,1,96,4,8,clownfish     ,seaturtle     ,html/resources/sequences_IDs/A/04_clownfish.jpg,html/resources/sequences_IDs/A/02_seaturtle.jpg,4,2,2,1,2,1,3,1,0,2,,,,,,,,,,,,,,,,,,,,
,,,,,2,2020-07-01_11h31.23.544,retriever_ti,2020.1.3,Win32,60,Firefox,1920,1080,,,,,,,,,,,,,,,,,2,,,,,,,,,,,,,,,,,,,,,,,,,,,719.247,97,right,0.962,dress         ,6,7,5,1,3,719.263,719.263,721.763,0,19,19,19,1,97,1,6,phone       ,dress         ,html/resources/sequences_IDs/B/09_phone.jpg,html/resources/sequences_IDs/A/07_dress.jpg,9,7,4,2,3,2,7,5,0,2,,,,,,,,,,,,,,,,,,,,
,,,,,2,2020-07-01_11h31.23.544,retriever_ti,2020.1.3,Win32,60,Firefox,1920,1080,,,,,,,,,,,,,,,,,2,,,,,,,,,,,,,,,,,,,,,,,,,,,722.38,98,left,0.91,seaturtle     ,8,2,6,1,3,722.415,722.415,724.913,0,20,20,20,1,98,8,2,seaturtle     ,satellite_dish,html/resources/sequences_IDs/A/02_seaturtle.jpg,html/resources/sequences_IDs/A/10_satellite_dish.jpg,2,10,2,1,4,2,1,8,0,2,,,,,,,,,,,,,,,,,,,,
,,,,,2,2020-07-01_11h31.23.544,retriever_ti,2020.1.3,Win32,60,Firefox,1920,1080,,,,,,,,,,,,,,,,,2,,,,,,,,,,,,,,,,,,,,,,,,,,,725.513,99,right,1.112,dress         ,6,7,4,1,3,725.548,725.548,728.046,0,21,21,21,1,99,2,6,satellite_dish,dress         ,html/resources/sequences_IDs/A/10_satellite_dish.jpg,html/resources/sequences_IDs/A/07_dress.jpg,10,7,4,2,3,2,8,5,0,2,,,,,,,,,,,,,,,,,,,,
,,,,,2,2020-07-01_11h31.23.544,retriever_ti,2020.1.3,Win32,60,Firefox,1920,1080,,,,,,,,,,,,,,,,,2,,,,,,,,,,,,,,,,,,,,,,,,,,,728.647,100,left,0.827,giraffe     ,7,3,1,1,1,728.68,728.68,731.18,0,22,22,22,1,100,7,6,giraffe     ,dress         ,html/resources/sequences_IDs/B/03_giraffe.jpg,html/resources/sequences_IDs/A/07_dress.jpg,3,7,1,1,3,2,2,5,0,2,,,,,,,,,,,,,,,,,,,,
,,,,,2,2020-07-01_11h31.23.544,retriever_ti,2020.1.3,Win32,60,Firefox,1920,1080,,,,,,,,,,,,,,,,,2,,,,,,,,,,,,,,,,,,,,,,,,,,,732.28,101,right,1.211,seaturtle     ,8,2,6,1,3,732.315,732.315,734.813,0,23,23,23,1,101,2,8,satellite_dish,seaturtle     ,html/resources/sequences_IDs/A/10_satellite_dish.jpg,html/resources/sequences_IDs/A/02_seaturtle.jpg,10,2,4,2,2,1,8,1,0,2,,,,,,,,,,,,,,,,,,,,
,,,,,2,2020-07-01_11h31.23.544,retriever_ti,2020.1.3,Win32,60,Firefox,1920,1080,,,,,,,,,,,,,,,,,2,,,,,,,,,,,,,,,,,,,,,,,,,,,735.413,102,left,0.811,parrot      ,3,5,-4,0,3,735.448,735.448,737.946,0,24,24,24,1,102,3,7,parrot      ,giraffe     ,html/resources/sequences_IDs/B/05_parrot.jpg,html/resources/sequences_IDs/B/03_giraffe.jpg,5,3,2,1,1,1,4,2,0,2,,,,,,,,,,,,,,,,,,,,
,,,,,2,2020-07-01_11h31.23.544,retriever_ti,2020.1.3,Win32,60,Firefox,1920,1080,,,,,,,,,,,,,,,,,2,,,,,,,,,,,,,,,,,,,,,,,,,,,738.547,103,left,1.443,satellite_dish,2,10,-1,0,0,738.581,738.581,741.08,0,25,25,25,1,103,2,3,satellite_dish,parrot      ,html/resources/sequences_IDs/A/10_satellite_dish.jpg,html/resources/sequences_IDs/B/05_parrot.jpg,10,5,4,2,2,1,8,4,0,2,,,,,,,,,,,,,,,,,,,,
,,,,,2,2020-07-01_11h31.23.544,retriever_ti,2020.1.3,Win32,60,Firefox,1920,1080,,,,,,,,,,,,,,,,,2,,,,,,,,,,,,,,,,,,,,,,,,,,,742.18,104,right,1.543,parrot      ,3,5,-2,0,3,742.198,742.198,744.697,0,26,26,26,1,104,5,3,slipper     ,parrot      ,html/resources/sequences_IDs/B/08_slipper.jpg,html/resources/sequences_IDs/B/05_parrot.jpg,8,5,3,2,2,1,6,4,0,2,,,,,,,,,,,,,,,,,,,,
,,,,,2,2020-07-01_11h31.23.544,retriever_ti,2020.1.3,Win32,60,Firefox,1920,1080,,,,,,,,,,,,,,,,,2,,,,,,,,,,,,,,,,,,,,,,,,,,,745.297,105,left,1.114,giraffe     ,7,3,4,1,3,745.313,745.313,747.813,0,27,27,27,1,105,7,3,giraffe     ,parrot      ,html/resources/sequences_IDs/B/03_giraffe.jpg,html/resources/sequences_IDs/B/05_parrot.jpg,3,5,1,1,2,1,2,4,0,2,,,,,,,,,,,,,,,,,,,,
,,,,,2,2020-07-01_11h31.23.544,retriever_ti,2020.1.3,Win32,60,Firefox,1920,1080,,,,,,,,,,,,,,,,,2,,,,,,,,,,,,,,,,,,,,,,,,,,,748.413,106,left,1.393,satellite_dish,2,10,-3,0,3,748.448,748.448,750.947,0,28,28,28,1,106,2,5,satellite_dish,slipper     ,html/resources/sequences_IDs/A/10_satellite_dish.jpg,html/resources/sequences_IDs/B/08_slipper.jpg,10,8,4,2,3,2,8,6,0,2,,,,,,,,,,,,,,,,,,,,
,,,,,2,2020-07-01_11h31.23.544,retriever_ti,2020.1.3,Win32,60,Firefox,1920,1080,,,,,,,,,,,,,,,,,2,,,,,,,,,,,,,,,,,,,,,,,,,,,751.564,107,right,2.028,satellite_dish,2,10,-5,0,3,751.598,751.598,754.096,0,29,29,29,1,107,7,2,giraffe     ,satellite_dish,html/resources/sequences_IDs/B/03_giraffe.jpg,html/resources/sequences_IDs/A/10_satellite_dish.jpg,3,10,1,1,4,2,2,8,0,2,,,,,,,,,,,,,,,,,,,,
,,,,,2,2020-07-01_11h31.23.544,retriever_ti,2020.1.3,Win32,60,Firefox,1920,1080,,,,,,,,,,,,,,,,,2,,,,,,,,,,,,,,,,,,,,,,,,,,,754.698,108,left,0.911,dress         ,6,7,1,1,1,754.715,754.715,757.213,0,30,30,30,1,108,6,5,dress         ,slipper     ,html/resources/sequences_IDs/A/07_dress.jpg,html/resources/sequences_IDs/B/08_slipper.jpg,7,8,3,2,3,2,5,6,0,2,,,,,,,,,,,,,,,,,,,,
,,,,,2,2020-07-01_11h31.23.544,retriever_ti,2020.1.3,Win32,60,Firefox,1920,1080,,,,,,,,,,,,,,,,,2,,,,,,,,,,,,,,,,,,,,,,,,,,,758.313,109,left,0.744,clownfish     ,4,4,2,1,3,758.347,758.347,760.846,0,31,31,31,1,109,4,2,clownfish     ,satellite_dish,html/resources/sequences_IDs/A/04_clownfish.jpg,html/resources/sequences_IDs/A/10_satellite_dish.jpg,4,10,2,1,4,2,3,8,0,2,,,,,,,,,,,,,,,,,,,,
,,,,,2,2020-07-01_11h31.23.544,retriever_ti,2020.1.3,Win32,60,Firefox,1920,1080,,,,,,,,,,,,,,,,,2,,,,,,,,,,,,,,,,,,,,,,,,,,,761.447,110,right,0.642,satellite_dish,2,10,1,1,1,761.465,761.465,763.963,0,32,32,32,1,110,1,2,phone       ,satellite_dish,html/resources/sequences_IDs/B/09_phone.jpg,html/resources/sequences_IDs/A/10_satellite_dish.jpg,9,10,4,2,4,2,7,8,0,2,,,,,,,,,,,,,,,,,,,,
,,,,,2,2020-07-01_11h31.23.544,retriever_ti,2020.1.3,Win32,60,Firefox,1920,1080,,,,,,,,,,,,,,,,,2,,,,,,,,,,,,,,,,,,,,,,,,,,,765.063,111,left,0.76,satellite_dish,2,10,1,1,1,765.097,765.097,767.596,0,33,33,33,1,111,2,1,satellite_dish,phone       ,html/resources/sequences_IDs/A/10_satellite_dish.jpg,html/resources/sequences_IDs/B/09_phone.jpg,10,9,4,2,4,2,8,7,0,2,,,,,,,,,,,,,,,,,,,,
,,,,,2,2020-07-01_11h31.23.544,retriever_ti,2020.1.3,Win32,60,Firefox,1920,1080,,,,,,,,,,,,,,,,,2,,,,,,,,,,,,,,,,,,,,,,,,,,,768.697,112,left,0.845,dress         ,6,7,1,1,1,768.731,768.731,771.229,0,34,34,34,1,112,6,5,dress         ,slipper     ,html/resources/sequences_IDs/A/07_dress.jpg,html/resources/sequences_IDs/B/08_slipper.jpg,7,8,3,2,3,2,5,6,0,2,,,,,,,,,,,,,,,,,,,,
,,,,,2,2020-07-01_11h31.23.544,retriever_ti,2020.1.3,Win32,60,Firefox,1920,1080,,,,,,,,,,,,,,,,,2,,,,,,,,,,,,,,,,,,,,,,,,,,,772.33,113,right,0.609,clownfish     ,4,4,3,1,3,772.347,772.347,774.846,0,35,35,35,1,113,1,4,phone       ,clownfish     ,html/resources/sequences_IDs/B/09_phone.jpg,html/resources/sequences_IDs/A/04_clownfish.jpg,9,4,4,2,2,1,7,3,0,2,,,,,,,,,,,,,,,,,,,,
,,,,,2,2020-07-01_11h31.23.544,retriever_ti,2020.1.3,Win32,60,Firefox,1920,1080,,,,,,,,,,,,,,,,,2,,,,,,,,,,,,,,,,,,,,,,,,,,,775.447,114,left,1.7,satellite_dish,2,10,-1,0,1,775.465,775.465,777.963,0,36,36,36,1,114,2,3,satellite_dish,parrot      ,html/resources/sequences_IDs/A/10_satellite_dish.jpg,html/resources/sequences_IDs/B/05_parrot.jpg,10,5,4,2,2,1,8,4,1,2,,,,,,,,,,,,,,,,,,,,
,,,,,2,2020-07-01_11h31.23.544,retriever_ti,2020.1.3,Win32,60,Firefox,1920,1080,,,,,,,,,,,,,,,,,2,,,,,,,,,,,,,,,,,,,,,,,,,,,779.063,115,left,1.795,giraffe     ,7,3,2,1,3,779.081,779.081,781.58,0,37,37,37,1,115,7,5,giraffe     ,slipper     ,html/resources/sequences_IDs/B/03_giraffe.jpg,html/resources/sequences_IDs/B/08_slipper.jpg,3,8,1,1,3,2,2,6,0,2,,,,,,,,,,,,,,,,,,,,
,,,,,2,2020-07-01_11h31.23.544,retriever_ti,2020.1.3,Win32,60,Firefox,1920,1080,,,,,,,,,,,,,,,,,2,,,,,,,,,,,,,,,,,,,,,,,,,,,782.181,116,left,1.995,phone       ,1,9,-6,0,3,782.197,782.197,784.696,0,38,38,38,1,116,1,7,phone       ,giraffe     ,html/resources/sequences_IDs/B/09_phone.jpg,html/resources/sequences_IDs/B/03_giraffe.jpg,9,3,4,2,1,1,7,2,0,2,,,,,,,,,,,,,,,,,,,,
,,,,,2,2020-07-01_11h31.23.544,retriever_ti,2020.1.3,Win32,60,Firefox,1920,1080,,,,,,,,,,,,,,,,,2,,,,,,,,,,,,,,,,,,,,,,,,,,,785.313,117,right,0.912,clownfish     ,4,4,1,1,1,785.346,785.346,787.847,0,39,39,39,1,117,3,4,parrot      ,clownfish     ,html/resources/sequences_IDs/B/05_parrot.jpg,html/resources/sequences_IDs/A/04_clownfish.jpg,5,4,2,1,2,1,4,3,0,2,,,,,,,,,,,,,,,,,,,,
,,,,,2,2020-07-01_11h31.23.544,retriever_ti,2020.1.3,Win32,60,Firefox,1920,1080,,,,,,,,,,,,,,,,,2,,,,,,,,,,,,,,,,,,,,,,,,,,,788.947,118,left,1.295,parrot      ,3,5,2,1,3,788.965,788.965,791.463,0,40,40,40,1,118,3,1,parrot      ,phone       ,html/resources/sequences_IDs/B/05_parrot.jpg,html/resources/sequences_IDs/B/09_phone.jpg,5,9,2,1,4,2,4,7,0,2,,,,,,,,,,,,,,,,,,,,
,,,,,2,2020-07-01_11h31.23.544,retriever_ti,2020.1.3,Win32,60,Firefox,1920,1080,,,,,,,,,,,,,,,,,2,,,,,,,,,,,,,,,,,,,,,,,,,,,792.064,119,right,1.078,seaturtle     ,8,2,1,1,1,792.098,792.098,794.597,0,41,41,41,1,119,7,8,giraffe     ,seaturtle     ,html/resources/sequences_IDs/B/03_giraffe.jpg,html/resources/sequences_IDs/A/02_seaturtle.jpg,3,2,1,1,2,1,2,1,0,2,,,,,,,,,,,,,,,,,,,,
,,,,,2,2020-07-01_11h31.23.544,retriever_ti,2020.1.3,Win32,60,Firefox,1920,1080,,,,,,,,,,,,,,,,,2,,,,,,,,,,,,,,,,,,,,,,,,,,,795.697,120,left,1.845,phone       ,1,9,-4,0,3,795.715,795.715,798.213,0,42,42,42,1,120,1,5,phone       ,slipper     ,html/resources/sequences_IDs/B/09_phone.jpg,html/resources/sequences_IDs/B/08_slipper.jpg,9,8,4,2,3,2,7,6,0,2,,,,,,,,,,,,,,,,,,,,
,,,,,2,2020-07-01_11h31.23.544,retriever_ti,2020.1.3,Win32,60,Firefox,1920,1080,,,,,,,,,,,,,,,,,2,,,,,,,,,,,,,,,,,,,,,,,,,,,798.813,121,right,0.711,seaturtle     ,8,2,5,1,3,798.831,798.831,801.33,0,43,43,43,1,121,3,8,parrot      ,seaturtle     ,html/resources/sequences_IDs/B/05_parrot.jpg,html/resources/sequences_IDs/A/02_seaturtle.jpg,5,2,2,1,2,1,4,1,0,2,,,,,,,,,,,,,,,,,,,,
,,,,,2,2020-07-01_11h31.23.544,retriever_ti,2020.1.3,Win32,60,Firefox,1920,1080,,,,,,,,,,,,,,,,,2,,,,,,,,,,,,,,,,,,,,,,,,,,,801.946,122,left,0.616,clownfish     ,4,4,-3,0,3,801.98,801.98,804.48,0,44,44,44,1,122,4,7,clownfish     ,giraffe     ,html/resources/sequences_IDs/A/04_clownfish.jpg,html/resources/sequences_IDs/B/03_giraffe.jpg,4,3,2,1,1,1,3,2,0,2,,,,,,,,,,,,,,,,,,,,
,,,,,2,2020-07-01_11h31.23.544,retriever_ti,2020.1.3,Win32,60,Firefox,1920,1080,,,,,,,,,,,,,,,,,2,,,,,,,,,,,,,,,,,,,,,,,,,,,805.096,123,left,0.945,giraffe     ,7,3,6,1,3,805.115,805.115,807.613,0,45,45,45,1,123,7,1,giraffe     ,phone       ,html/resources/sequences_IDs/B/03_giraffe.jpg,html/resources/sequences_IDs/B/09_phone.jpg,3,9,1,1,4,2,2,7,0,2,,,,,,,,,,,,,,,,,,,,
,,,,,2,2020-07-01_11h31.23.544,retriever_ti,2020.1.3,Win32,60,Firefox,1920,1080,,,,,,,,,,,,,,,,,2,,,,,,,,,,,,,,,,,,,,,,,,,,,808.23,124,right,1.36,satellite_dish,2,10,-1,0,0,808.265,808.265,810.763,0,46,46,46,1,124,3,2,parrot      ,satellite_dish,html/resources/sequences_IDs/B/05_parrot.jpg,html/resources/sequences_IDs/A/10_satellite_dish.jpg,5,10,2,1,4,2,4,8,0,2,,,,,,,,,,,,,,,,,,,,
,,,,,2,2020-07-01_11h31.23.544,retriever_ti,2020.1.3,Win32,60,Firefox,1920,1080,,,,,,,,,,,,,,,,,2,,,,,,,,,,,,,,,,,,,,,,,,,,,811.863,125,right,0.75,clownfish     ,4,4,1,1,1,811.88,811.88,814.38,0,47,47,47,1,125,3,4,parrot      ,clownfish     ,html/resources/sequences_IDs/B/05_parrot.jpg,html/resources/sequences_IDs/A/04_clownfish.jpg,5,4,2,1,2,1,4,3,0,2,,,,,,,,,,,,,,,,,,,,
,,,,,2,2020-07-01_11h31.23.544,retriever_ti,2020.1.3,Win32,60,Firefox,1920,1080,,,,,,,,,,,,,,,,,2,,,,,,,,,,,,,,,,,,,,,,,,,,,815.48,126,right,0.613,clownfish     ,4,4,1,1,0,815.497,815.497,817.997,0,48,48,48,1,126,3,4,parrot      ,clownfish     ,html/resources/sequences_IDs/B/05_parrot.jpg,html/resources/sequences_IDs/A/04_clownfish.jpg,5,4,2,1,2,1,4,3,1,2,,,,,,,,,,,,,,,,,,,,
,,,,,2,2020-07-01_11h31.23.544,retriever_ti,2020.1.3,Win32,60,Firefox,1920,1080,,,,,,,,,,,,,,,,,2,,,,,,,,,,,,,,,,,,,,,,,,,,,819.097,127,left,0.611,clownfish     ,4,4,-1,0,0,819.114,819.114,821.613,0,49,49,49,1,127,4,5,clownfish     ,slipper     ,html/resources/sequences_IDs/A/04_clownfish.jpg,html/resources/sequences_IDs/B/08_slipper.jpg,4,8,2,1,3,2,3,6,0,2,,,,,,,,,,,,,,,,,,,,
,,,,,2,2020-07-01_11h31.23.544,retriever_ti,2020.1.3,Win32,60,Firefox,1920,1080,,,,,,,,,,,,,,,,,2,,,,,,,,,,,,,,,,,,,,,,,,,,,822.713,128,left,0.65,seaturtle     ,8,2,1,1,1,822.746,822.746,825.246,0,50,50,50,1,128,8,7,seaturtle     ,giraffe     ,html/resources/sequences_IDs/A/02_seaturtle.jpg,html/resources/sequences_IDs/B/03_giraffe.jpg,2,3,2,1,1,1,1,2,0,2,,,,,,,,,,,,,,,,,,,,
,,,,,2,2020-07-01_11h31.23.544,retriever_ti,2020.1.3,Win32,60,Firefox,1920,1080,,,,,,,,,,,,,,,,,2,,,,,,,,,,,,,,,,,,,,,,,,,,,826.347,129,right,0.866,seaturtle     ,8,2,1,1,0,826.365,826.365,828.863,0,51,51,51,1,129,7,8,giraffe     ,seaturtle     ,html/resources/sequences_IDs/B/03_giraffe.jpg,html/resources/sequences_IDs/A/02_seaturtle.jpg,3,2,1,1,2,1,2,1,1,2,,,,,,,,,,,,,,,,,,,,
,,,,,2,2020-07-01_11h31.23.544,retriever_ti,2020.1.3,Win32,60,Firefox,1920,1080,,,,,,,,,,,,,,,,,2,,,,,,,,,,,,,,,,,,,,,,,,,,,829.964,130,left,0.611,clownfish     ,4,4,-1,0,0,829.998,829.998,832.496,0,52,52,52,1,130,4,5,clownfish     ,slipper     ,html/resources/sequences_IDs/A/04_clownfish.jpg,html/resources/sequences_IDs/B/08_slipper.jpg,4,8,2,1,3,2,3,6,0,2,,,,,,,,,,,,,,,,,,,,
,,,,,2,2020-07-01_11h31.23.544,retriever_ti,2020.1.3,Win32,60,Firefox,1920,1080,,,,,,,,,,,,,,,,,2,,,,,,,,,,,,,,,,,,,,,,,,,,,833.597,131,left,1.16,dress         ,6,7,-1,0,0,833.631,833.631,836.129,0,53,53,53,1,131,6,7,dress         ,giraffe     ,html/resources/sequences_IDs/A/07_dress.jpg,html/resources/sequences_IDs/B/03_giraffe.jpg,7,3,3,2,1,1,5,2,0,2,,,,,,,,,,,,,,,,,,,,
,,,,,2,2020-07-01_11h31.23.544,retriever_ti,2020.1.3,Win32,60,Firefox,1920,1080,,,,,,,,,,,,,,,,,2,,,,,,,,,,,,,,,,,,,,,,,,,,,837.23,132,right,0.477,satellite_dish,2,10,-3,0,3,837.246,837.246,839.747,0,54,54,54,1,132,5,2,slipper     ,satellite_dish,html/resources/sequences_IDs/B/08_slipper.jpg,html/resources/sequences_IDs/A/10_satellite_dish.jpg,8,10,3,2,4,2,6,8,0,2,,,,,,,,,,,,,,,,,,,,
,,,,,2,2020-07-01_11h31.23.544,retriever_ti,2020.1.3,Win32,60,Firefox,1920,1080,,,,,,,,,,,,,,,,,2,,,,,,,,,,,,,,,,,,,,,,,,,,,840.363,133,left,0.53,seaturtle     ,8,2,1,1,1,840.38,840.38,842.88,0,55,55,55,1,133,8,7,seaturtle     ,giraffe     ,html/resources/sequences_IDs/A/02_seaturtle.jpg,html/resources/sequences_IDs/B/03_giraffe.jpg,2,3,2,1,1,1,1,2,0,2,,,,,,,,,,,,,,,,,,,,
,,,,,2,2020-07-01_11h31.23.544,retriever_ti,2020.1.3,Win32,60,Firefox,1920,1080,,,,,,,,,,,,,,,,,2,,,,,,,,,,,,,,,,,,,,,,,,,,,843.98,134,right,0.496,dress         ,6,7,-2,0,3,843.997,843.997,846.497,0,56,56,56,1,134,8,6,seaturtle     ,dress         ,html/resources/sequences_IDs/A/02_seaturtle.jpg,html/resources/sequences_IDs/A/07_dress.jpg,2,7,2,1,3,2,1,5,0,2,,,,,,,,,,,,,,,,,,,,
,,,,,2,2020-07-01_11h31.23.544,retriever_ti,2020.1.3,Win32,60,Firefox,1920,1080,,,,,,,,,,,,,,,,,2,,,,,,,,,,,,,,,,,,,,,,,,,,,847.113,135,right,0.711,parrot      ,3,5,-3,0,3,847.13,847.13,849.63,0,57,57,57,1,135,6,3,dress         ,parrot      ,html/resources/sequences_IDs/A/07_dress.jpg,html/resources/sequences_IDs/B/05_parrot.jpg,7,5,3,2,2,1,5,4,0,2,,,,,,,,,,,,,,,,,,,,
,,,,,2,2020-07-01_11h31.23.544,retriever_ti,2020.1.3,Win32,60,Firefox,1920,1080,,,,,,,,,,,,,,,,,2,,,,,,,,,,,,,,,,,,,,,,,,,,,850.247,136,right,0.827,dress         ,6,7,1,1,1,850.28,850.28,852.779,0,58,58,58,1,136,5,6,slipper     ,dress         ,html/resources/sequences_IDs/B/08_slipper.jpg,html/resources/sequences_IDs/A/07_dress.jpg,8,7,3,2,3,2,6,5,0,2,,,,,,,,,,,,,,,,,,,,
,,,,,2,2020-07-01_11h31.23.544,retriever_ti,2020.1.3,Win32,60,Firefox,1920,1080,,,,,,,,,,,,,,,,,2,,,,,,,,,,,,,,,,,,,,,,,,,,,853.88,137,right,0.678,seaturtle     ,8,2,7,1,3,853.915,853.915,856.413,0,59,59,59,1,137,1,8,phone       ,seaturtle     ,html/resources/sequences_IDs/B/09_phone.jpg,html/resources/sequences_IDs/A/02_seaturtle.jpg,9,2,4,2,2,1,7,1,0,2,,,,,,,,,,,,,,,,,,,,
,,,,,2,2020-07-01_11h31.23.544,retriever_ti,2020.1.3,Win32,60,Firefox,1920,1080,,,,,,,,,,,,,,,,,2,,,,,,,,,,,,,,,,,,,,,,,,,,,857.013,138,right,0.584,clownfish     ,4,4,-4,0,3,857.048,857.048,859.547,0,60,60,60,1,138,8,4,seaturtle     ,clownfish     ,html/resources/sequences_IDs/A/02_seaturtle.jpg,html/resources/sequences_IDs/A/04_clownfish.jpg,2,4,2,1,2,1,1,3,0,2,,,,,,,,,,,,,,,,,,,,
,,,,,2,2020-07-01_11h31.23.544,retriever_ti,2020.1.3,Win32,60,Firefox,1920,1080,,,,,,,,,,,,,,,,,2,,,,,,,,,,,,,,,,,,,,,,,,,,,860.163,139,right,0.576,dress         ,6,7,1,1,1,860.196,860.196,862.696,0,61,61,61,1,139,5,6,slipper     ,dress         ,html/resources/sequences_IDs/B/08_slipper.jpg,html/resources/sequences_IDs/A/07_dress.jpg,8,7,3,2,3,2,6,5,0,2,,,,,,,,,,,,,,,,,,,,
,,,,,2,2020-07-01_11h31.23.544,retriever_ti,2020.1.3,Win32,60,Firefox,1920,1080,,,,,,,,,,,,,,,,,2,,,,,,,,,,,,,,,,,,,,,,,,,,,863.796,140,left,0.695,clownfish     ,4,4,1,1,1,863.813,863.813,866.313,0,62,62,62,1,140,4,3,clownfish     ,parrot      ,html/resources/sequences_IDs/A/04_clownfish.jpg,html/resources/sequences_IDs/B/05_parrot.jpg,4,5,2,1,2,1,3,4,0,2,,,,,,,,,,,,,,,,,,,,
,,,,,2,2020-07-01_11h31.23.544,retriever_ti,2020.1.3,Win32,60,Firefox,1920,1080,,,,,,,,,,,,,,,,,2,,,,,,,,,,,,,,,,,,,,,,,,,,,867.414,141,right,0.477,seaturtle     ,8,2,2,1,3,867.431,867.431,869.93,0,63,63,63,1,141,6,8,dress         ,seaturtle     ,html/resources/sequences_IDs/A/07_dress.jpg,html/resources/sequences_IDs/A/02_seaturtle.jpg,7,2,3,2,2,1,5,1,0,2,,,,,,,,,,,,,,,,,,,,
,,,,,2,2020-07-01_11h31.23.544,retriever_ti,2020.1.3,Win32,60,Firefox,1920,1080,,,,,,,,,,,,,,,,,2,,,,,,,,,,,,,,,,,,,,,,,,,,,870.53,142,left,0.459,dress         ,6,7,5,1,3,870.547,870.547,873.046,0,64,64,64,1,142,6,1,dress         ,phone       ,html/resources/sequences_IDs/A/07_dress.jpg,html/resources/sequences_IDs/B/09_phone.jpg,7,9,3,2,4,2,5,7,0,2,,,,,,,,,,,,,,,,,,,,
,,,,,2,2020-07-01_11h31.23.544,retriever_ti,2020.1.3,Win32,60,Firefox,1920,1080,,,,,,,,,,,,,,,,,2,,,,,,,,,,,,,,,,,,,,,,,,,,,873.647,143,right,0.594,parrot      ,3,5,2,1,3,873.682,873.682,876.18,0,65,65,65,1,143,1,3,phone       ,parrot      ,html/resources/sequences_IDs/B/09_phone.jpg,html/resources/sequences_IDs/B/05_parrot.jpg,9,5,4,2,2,1,7,4,0,2,,,,,,,,,,,,,,,,,,,,
,,,,,2,2020-07-01_11h31.23.544,retriever_ti,2020.1.3,Win32,60,Firefox,1920,1080,,,,,,,,,,,,,,,,,2,,,,,,,,,,,,,,,,,,,,,,,,,,,876.78,144,left,0.497,satellite_dish,2,10,1,1,1,876.798,876.798,879.297,0,66,66,66,1,144,2,1,satellite_dish,phone       ,html/resources/sequences_IDs/A/10_satellite_dish.jpg,html/resources/sequences_IDs/B/09_phone.jpg,10,9,4,2,4,2,8,7,0,2,,,,,,,,,,,,,,,,,,,,
,,,,,2,2020-07-01_11h31.23.544,retriever_ti,2020.1.3,Win32,60,Firefox,1920,1080,,,,,,,,,,,,,,,,,2,,,,,,,,,,,,,,,,,,,,,,,,,,,880.397,145,right,0.497,clownfish     ,4,4,-1,0,0,880.413,880.413,882.913,0,67,67,67,1,145,5,4,slipper     ,clownfish     ,html/resources/sequences_IDs/B/08_slipper.jpg,html/resources/sequences_IDs/A/04_clownfish.jpg,8,4,3,2,2,1,6,3,0,2,,,,,,,,,,,,,,,,,,,,
,,,,,2,2020-07-01_11h31.23.544,retriever_ti,2020.1.3,Win32,60,Firefox,1920,1080,,,,,,,,,,,,,,,,,2,,,,,,,,,,,,,,,,,,,,,,,,,,,884.013,146,left,0.545,clownfish     ,4,4,1,1,1,884.046,884.046,886.546,0,68,68,68,1,146,4,3,clownfish     ,parrot      ,html/resources/sequences_IDs/A/04_clownfish.jpg,html/resources/sequences_IDs/B/05_parrot.jpg,4,5,2,1,2,1,3,4,0,2,,,,,,,,,,,,,,,,,,,,
,,,,,2,2020-07-01_11h31.23.544,retriever_ti,2020.1.3,Win32,60,Firefox,1920,1080,,,,,,,,,,,,,,,,,2,,,,,,,,,,,,,,,,,,,,,,,,,,,887.647,147,right,1.03,giraffe     ,7,3,5,1,3,887.682,887.682,890.179,0,69,69,69,1,147,2,7,satellite_dish,giraffe     ,html/resources/sequences_IDs/A/10_satellite_dish.jpg,html/resources/sequences_IDs/B/03_giraffe.jpg,10,3,4,2,1,1,8,2,0,2,,,,,,,,,,,,,,,,,,,,
,,,,,2,2020-07-01_11h31.23.544,retriever_ti,2020.1.3,Win32,60,Firefox,1920,1080,,,,,,,,,,,,,,,,,2,,,,,,,,,,,,,,,,,,,,,,,,,,,890.78,148,left,0.511,seaturtle     ,8,2,5,1,3,890.797,890.797,893.296,0,70,70,70,1,148,8,3,seaturtle     ,parrot      ,html/resources/sequences_IDs/A/02_seaturtle.jpg,html/resources/sequences_IDs/B/05_parrot.jpg,2,5,2,1,2,1,1,4,0,2,,,,,,,,,,,,,,,,,,,,
,,,,,2,2020-07-01_11h31.23.544,retriever_ti,2020.1.3,Win32,60,Firefox,1920,1080,,,,,,,,,,,,,,,,,2,,,,,,,,,,,,,,,,,,,,,,,,,,,893.897,149,right,0.534,dress         ,6,7,3,1,3,893.93,893.93,896.429,0,71,71,71,1,149,3,6,parrot      ,dress         ,html/resources/sequences_IDs/B/05_parrot.jpg,html/resources/sequences_IDs/A/07_dress.jpg,5,7,2,1,3,2,4,5,0,2,,,,,,,,,,,,,,,,,,,,
,,,,,2,2020-07-01_11h31.23.544,retriever_ti,2020.1.3,Win32,60,Firefox,1920,1080,,,,,,,,,,,,,,,,,2,,,,,,,,,,,,,,,,,,,,,,,,,,,897.03,150,right,0.744,clownfish     ,4,4,2,1,3,897.048,897.048,899.546,0,72,72,72,1,150,2,4,satellite_dish,clownfish     ,html/resources/sequences_IDs/A/10_satellite_dish.jpg,html/resources/sequences_IDs/A/04_clownfish.jpg,10,4,4,2,2,1,8,3,0,2,,,,,,,,,,,,,,,,,,,,
,,,,,2,2020-07-01_11h31.23.544,retriever_ti,2020.1.3,Win32,60,Firefox,1920,1080,,,,,,,,,,,,,,,,,2,,,,,,,,,,,,,,,,,,,,,,,,,,,900.146,151,left,0.516,clownfish     ,4,4,3,1,3,900.163,900.163,902.663,0,73,73,73,1,151,4,1,clownfish     ,phone       ,html/resources/sequences_IDs/A/04_clownfish.jpg,html/resources/sequences_IDs/B/09_phone.jpg,4,9,2,1,4,2,3,7,0,2,,,,,,,,,,,,,,,,,,,,
,,,,,2,2020-07-01_11h31.23.544,retriever_ti,2020.1.3,Win32,60,Firefox,1920,1080,,,,,,,,,,,,,,,,,2,,,,,,,,,,,,,,,,,,,,,,,,,,,903.264,152,right,0.444,clownfish     ,4,4,-1,0,0,903.281,903.281,905.779,0,74,74,74,1,152,5,4,slipper     ,clownfish     ,html/resources/sequences_IDs/B/08_slipper.jpg,html/resources/sequences_IDs/A/04_clownfish.jpg,8,4,3,2,2,1,6,3,0,2,,,,,,,,,,,,,,,,,,,,
,,,,,2,2020-07-01_11h31.23.544,retriever_ti,2020.1.3,Win32,60,Firefox,1920,1080,,,,,,,,,,,,,,,,,2,,,,,,,,,,,,,,,,,,,,,,,,,,,906.88,153,right,0.831,clownfish     ,4,4,-3,0,3,906.897,906.897,909.396,0,75,75,75,1,153,7,4,giraffe     ,clownfish     ,html/resources/sequences_IDs/B/03_giraffe.jpg,html/resources/sequences_IDs/A/04_clownfish.jpg,3,4,1,1,2,1,2,3,0,2,,,,,,,,,,,,,,,,,,,,
,,,,,2,2020-07-01_11h31.23.544,retriever_ti,2020.1.3,Win32,60,Firefox,1920,1080,,,,,,,,,,,,,,,,,2,,,,,,,,,,,,,,,,,,,,,,,,,,,909.997,154,right,0.898,clownfish     ,4,4,-2,0,3,910.03,910.03,912.529,0,76,76,76,1,154,6,4,dress         ,clownfish     ,html/resources/sequences_IDs/A/07_dress.jpg,html/resources/sequences_IDs/A/04_clownfish.jpg,7,4,3,2,2,1,5,3,0,2,,,,,,,,,,,,,,,,,,,,
,,,,,2,2020-07-01_11h31.23.544,retriever_ti,2020.1.3,Win32,60,Firefox,1920,1080,,,,,,,,,,,,,,,,,,,,,,,,,,,,,,,,,,,,,0,2.497,,,,,,,,,,,,,,,,,,,,,,,,,,,,,,,,,,,,,,,,,1,0,1,0,1,,,,,,,,,,,,,,,
,,,,,2,2020-07-01_11h31.23.544,retriever_ti,2020.1.3,Win32,60,Firefox,1920,1080,,,,,,,,,,,,,,,,,3,,,,,,,,,,,,,,,,,,,,,,,,,,,927.996,155,left,1.116,parrot      ,3,5,-4,0,3,928.01,928.01,930.496,0,0,0,0,1,155,3,7,parrot      ,giraffe     ,html/resources/sequences_IDs/B/05_parrot.jpg,html/resources/sequences_IDs/B/03_giraffe.jpg,5,3,2,1,1,1,4,2,0,2,,,,,,,,,,,,,,,,,,,,
,,,,,2,2020-07-01_11h31.23.544,retriever_ti,2020.1.3,Win32,60,Firefox,1920,1080,,,,,,,,,,,,,,,,,3,,,,,,,,,,,,,,,,,,,,,,,,,,,931.096,156,right,0.561,clownfish     ,4,4,-3,0,3,931.115,931.115,933.613,0,1,1,1,1,156,7,4,giraffe     ,clownfish     ,html/resources/sequences_IDs/B/03_giraffe.jpg,html/resources/sequences_IDs/A/04_clownfish.jpg,3,4,1,1,2,1,2,3,0,2,,,,,,,,,,,,,,,,,,,,
,,,,,2,2020-07-01_11h31.23.544,retriever_ti,2020.1.3,Win32,60,Firefox,1920,1080,,,,,,,,,,,,,,,,,3,,,,,,,,,,,,,,,,,,,,,,,,,,,934.213,157,right,0.649,seaturtle     ,8,2,1,1,1,934.247,934.247,936.746,0,2,2,2,1,157,7,8,giraffe     ,seaturtle     ,html/resources/sequences_IDs/B/03_giraffe.jpg,html/resources/sequences_IDs/A/02_seaturtle.jpg,3,2,1,1,2,1,2,1,0,2,,,,,,,,,,,,,,,,,,,,
,,,,,2,2020-07-01_11h31.23.544,retriever_ti,2020.1.3,Win32,60,Firefox,1920,1080,,,,,,,,,,,,,,,,,3,,,,,,,,,,,,,,,,,,,,,,,,,,,937.847,158,right,0.644,parrot      ,3,5,1,1,1,937.863,937.863,940.363,0,3,3,3,1,158,2,3,satellite_dish,parrot      ,html/resources/sequences_IDs/A/10_satellite_dish.jpg,html/resources/sequences_IDs/B/05_parrot.jpg,10,5,4,2,2,1,8,4,0,2,,,,,,,,,,,,,,,,,,,,
,,,,,2,2020-07-01_11h31.23.544,retriever_ti,2020.1.3,Win32,60,Firefox,1920,1080,,,,,,,,,,,,,,,,,3,,,,,,,,,,,,,,,,,,,,,,,,,,,941.463,159,left,0.412,slipper     ,5,8,3,1,3,941.496,941.496,943.996,0,4,4,4,1,159,5,2,slipper     ,satellite_dish,html/resources/sequences_IDs/B/08_slipper.jpg,html/resources/sequences_IDs/A/10_satellite_dish.jpg,8,10,3,2,4,2,6,8,0,2,,,,,,,,,,,,,,,,,,,,
,,,,,2,2020-07-01_11h31.23.544,retriever_ti,2020.1.3,Win32,60,Firefox,1920,1080,,,,,,,,,,,,,,,,,3,,,,,,,,,,,,,,,,,,,,,,,,,,,944.596,160,right,0.579,dress         ,6,7,3,1,3,944.613,944.613,947.113,0,5,5,5,1,160,3,6,parrot      ,dress         ,html/resources/sequences_IDs/B/05_parrot.jpg,html/resources/sequences_IDs/A/07_dress.jpg,5,7,2,1,3,2,4,5,0,2,,,,,,,,,,,,,,,,,,,,
,,,,,2,2020-07-01_11h31.23.544,retriever_ti,2020.1.3,Win32,60,Firefox,1920,1080,,,,,,,,,,,,,,,,,3,,,,,,,,,,,,,,,,,,,,,,,,,,,947.713,161,right,0.312,slipper     ,5,8,2,1,3,947.733,947.733,950.229,0,6,6,6,1,161,3,5,parrot      ,slipper     ,html/resources/sequences_IDs/B/05_parrot.jpg,html/resources/sequences_IDs/B/08_slipper.jpg,5,8,2,1,3,2,4,6,0,2,,,,,,,,,,,,,,,,,,,,
,,,,,2,2020-07-01_11h31.23.544,retriever_ti,2020.1.3,Win32,60,Firefox,1920,1080,,,,,,,,,,,,,,,,,3,,,,,,,,,,,,,,,,,,,,,,,,,,,950.83,162,left,0.194,seaturtle     ,8,2,6,1,3,950.863,950.863,953.363,0,7,7,7,1,162,8,2,seaturtle     ,satellite_dish,html/resources/sequences_IDs/A/02_seaturtle.jpg,html/resources/sequences_IDs/A/10_satellite_dish.jpg,2,10,2,1,4,2,1,8,0,2,,,,,,,,,,,,,,,,,,,,
,,,,,2,2020-07-01_11h31.23.544,retriever_ti,2020.1.3,Win32,60,Firefox,1920,1080,,,,,,,,,,,,,,,,,3,,,,,,,,,,,,,,,,,,,,,,,,,,,953.963,163,right,0.197,parrot      ,3,5,-1,0,1,953.98,953.98,956.48,0,8,8,8,1,163,4,3,clownfish     ,parrot      ,html/resources/sequences_IDs/A/04_clownfish.jpg,html/resources/sequences_IDs/B/05_parrot.jpg,4,5,2,1,2,1,3,4,1,2,,,,,,,,,,,,,,,,,,,,
,,,,,2,2020-07-01_11h31.23.544,retriever_ti,2020.1.3,Win32,60,Firefox,1920,1080,,,,,,,,,,,,,,,,,3,,,,,,,,,,,,,,,,,,,,,,,,,,,957.58,164,left,0.277,clownfish     ,4,4,-4,0,3,957.613,957.613,960.113,0,9,9,9,1,164,4,8,clownfish     ,seaturtle     ,html/resources/sequences_IDs/A/04_clownfish.jpg,html/resources/sequences_IDs/A/02_seaturtle.jpg,4,2,2,1,2,1,3,1,0,2,,,,,,,,,,,,,,,,,,,,
,,,,,2,2020-07-01_11h31.23.544,retriever_ti,2020.1.3,Win32,60,Firefox,1920,1080,,,,,,,,,,,,,,,,,3,,,,,,,,,,,,,,,,,,,,,,,,,,,960.714,165,right,0.128,clownfish     ,4,4,-1,0,0,960.73,960.73,963.23,0,10,10,10,1,165,5,4,slipper     ,clownfish     ,html/resources/sequences_IDs/B/08_slipper.jpg,html/resources/sequences_IDs/A/04_clownfish.jpg,8,4,3,2,2,1,6,3,0,2,,,,,,,,,,,,,,,,,,,,
,,,,,2,2020-07-01_11h31.23.544,retriever_ti,2020.1.3,Win32,60,Firefox,1920,1080,,,,,,,,,,,,,,,,,3,,,,,,,,,,,,,,,,,,,,,,,,,,,964.33,166,left,0.216,dress         ,6,7,-1,0,0,964.347,964.347,966.846,0,11,11,11,1,166,6,7,dress         ,giraffe     ,html/resources/sequences_IDs/A/07_dress.jpg,html/resources/sequences_IDs/B/03_giraffe.jpg,7,3,3,2,1,1,5,2,0,2,,,,,,,,,,,,,,,,,,,,
,,,,,2,2020-07-01_11h31.23.544,retriever_ti,2020.1.3,Win32,60,Firefox,1920,1080,,,,,,,,,,,,,,,,,3,,,,,,,,,,,,,,,,,,,,,,,,,,,967.947,167,right,0.111,satellite_dish,2,10,1,1,1,967.981,967.981,970.479,0,12,12,12,1,167,1,2,phone       ,satellite_dish,html/resources/sequences_IDs/B/09_phone.jpg,html/resources/sequences_IDs/A/10_satellite_dish.jpg,9,10,4,2,4,2,7,8,0,2,,,,,,,,,,,,,,,,,,,,
,,,,,2,2020-07-01_11h31.23.544,retriever_ti,2020.1.3,Win32,60,Firefox,1920,1080,,,,,,,,,,,,,,,,,3,,,,,,,,,,,,,,,,,,,,,,,,,,,971.58,168,left,0.212,satellite_dish,2,10,1,1,1,971.598,971.598,974.097,0,13,13,13,1,168,2,1,satellite_dish,phone       ,html/resources/sequences_IDs/A/10_satellite_dish.jpg,html/resources/sequences_IDs/B/09_phone.jpg,10,9,4,2,4,2,8,7,0,2,,,,,,,,,,,,,,,,,,,,
,,,,,2,2020-07-01_11h31.23.544,retriever_ti,2020.1.3,Win32,60,Firefox,1920,1080,,,,,,,,,,,,,,,,,3,,,,,,,,,,,,,,,,,,,,,,,,,,,975.197,169,right,0.112,slipper     ,5,8,1,1,0,975.215,975.215,977.713,0,14,14,14,1,169,4,5,clownfish     ,slipper     ,html/resources/sequences_IDs/A/04_clownfish.jpg,html/resources/sequences_IDs/B/08_slipper.jpg,4,8,2,1,3,2,3,6,1,2,,,,,,,,,,,,,,,,,,,,
,,,,,2,2020-07-01_11h31.23.544,retriever_ti,2020.1.3,Win32,60,Firefox,1920,1080,,,,,,,,,,,,,,,,,3,,,,,,,,,,,,,,,,,,,,,,,,,,,978.813,170,left,0.595,giraffe     ,7,3,5,1,3,978.83,978.83,981.33,0,15,15,15,1,170,7,2,giraffe     ,satellite_dish,html/resources/sequences_IDs/B/03_giraffe.jpg,html/resources/sequences_IDs/A/10_satellite_dish.jpg,3,10,1,1,4,2,2,8,0,2,,,,,,,,,,,,,,,,,,,,
,,,,,2,2020-07-01_11h31.23.544,retriever_ti,2020.1.3,Win32,60,Firefox,1920,1080,,,,,,,,,,,,,,,,,3,,,,,,,,,,,,,,,,,,,,,,,,,,,981.947,171,left,0.61,seaturtle     ,8,2,3,1,3,981.982,981.982,984.48,0,16,16,16,1,171,8,5,seaturtle     ,slipper     ,html/resources/sequences_IDs/A/02_seaturtle.jpg,html/resources/sequences_IDs/B/08_slipper.jpg,2,8,2,1,3,2,1,6,0,2,,,,,,,,,,,,,,,,,,,,
,,,,,2,2020-07-01_11h31.23.544,retriever_ti,2020.1.3,Win32,60,Firefox,1920,1080,,,,,,,,,,,,,,,,,3,,,,,,,,,,,,,,,,,,,,,,,,,,,985.08,172,left,0.651,parrot      ,3,5,2,1,3,985.096,985.096,987.596,0,17,17,17,1,172,3,1,parrot      ,phone       ,html/resources/sequences_IDs/B/05_parrot.jpg,html/resources/sequences_IDs/B/09_phone.jpg,5,9,2,1,4,2,4,7,0,2,,,,,,,,,,,,,,,,,,,,
,,,,,2,2020-07-01_11h31.23.544,retriever_ti,2020.1.3,Win32,60,Firefox,1920,1080,,,,,,,,,,,,,,,,,3,,,,,,,,,,,,,,,,,,,,,,,,,,,988.197,173,right,0.477,satellite_dish,2,10,1,1,1,988.23,988.23,990.73,0,18,18,18,1,173,1,2,phone       ,satellite_dish,html/resources/sequences_IDs/B/09_phone.jpg,html/resources/sequences_IDs/A/10_satellite_dish.jpg,9,10,4,2,4,2,7,8,0,2,,,,,,,,,,,,,,,,,,,,
,,,,,2,2020-07-01_11h31.23.544,retriever_ti,2020.1.3,Win32,60,Firefox,1920,1080,,,,,,,,,,,,,,,,,3,,,,,,,,,,,,,,,,,,,,,,,,,,,991.83,174,left,0.562,phone       ,1,9,-4,0,3,991.863,991.863,994.363,0,19,19,19,1,174,1,5,phone       ,slipper     ,html/resources/sequences_IDs/B/09_phone.jpg,html/resources/sequences_IDs/B/08_slipper.jpg,9,8,4,2,3,2,7,6,0,2,,,,,,,,,,,,,,,,,,,,
,,,,,2,2020-07-01_11h31.23.544,retriever_ti,2020.1.3,Win32,60,Firefox,1920,1080,,,,,,,,,,,,,,,,,3,,,,,,,,,,,,,,,,,,,,,,,,,,,994.963,175,right,0.479,giraffe     ,7,3,6,1,3,994.998,994.998,997.497,0,20,20,20,1,175,1,7,phone       ,giraffe     ,html/resources/sequences_IDs/B/09_phone.jpg,html/resources/sequences_IDs/B/03_giraffe.jpg,9,3,4,2,1,1,7,2,0,2,,,,,,,,,,,,,,,,,,,,
,,,,,2,2020-07-01_11h31.23.544,retriever_ti,2020.1.3,Win32,60,Firefox,1920,1080,,,,,,,,,,,,,,,,,3,,,,,,,,,,,,,,,,,,,,,,,,,,,998.113,176,left,0.61,satellite_dish,2,10,-6,0,3,998.148,998.148,1000.647,0,21,21,21,1,176,2,8,satellite_dish,seaturtle     ,html/resources/sequences_IDs/A/10_satellite_dish.jpg,html/resources/sequences_IDs/A/02_seaturtle.jpg,10,2,4,2,2,1,8,1,0,2,,,,,,,,,,,,,,,,,,,,
,,,,,2,2020-07-01_11h31.23.544,retriever_ti,2020.1.3,Win32,60,Firefox,1920,1080,,,,,,,,,,,,,,,,,3,,,,,,,,,,,,,,,,,,,,,,,,,,,1001.263,177,left,0.661,clownfish     ,4,4,1,1,1,1001.298,1001.298,1003.796,0,22,22,22,1,177,4,3,clownfish     ,parrot      ,html/resources/sequences_IDs/A/04_clownfish.jpg,html/resources/sequences_IDs/B/05_parrot.jpg,4,5,2,1,2,1,3,4,0,2,,,,,,,,,,,,,,,,,,,,
,,,,,2,2020-07-01_11h31.23.544,retriever_ti,2020.1.3,Win32,60,Firefox,1920,1080,,,,,,,,,,,,,,,,,3,,,,,,,,,,,,,,,,,,,,,,,,,,,1004.897,178,right,0.409,seaturtle     ,8,2,7,1,3,1004.93,1004.93,1007.43,0,23,23,23,1,178,1,8,phone       ,seaturtle     ,html/resources/sequences_IDs/B/09_phone.jpg,html/resources/sequences_IDs/A/02_seaturtle.jpg,9,2,4,2,2,1,7,1,0,2,,,,,,,,,,,,,,,,,,,,
,,,,,2,2020-07-01_11h31.23.544,retriever_ti,2020.1.3,Win32,60,Firefox,1920,1080,,,,,,,,,,,,,,,,,3,,,,,,,,,,,,,,,,,,,,,,,,,,,1008.03,179,left,0.397,seaturtle     ,8,2,7,1,3,1008.063,1008.063,1010.563,0,24,24,24,1,179,8,1,seaturtle     ,phone       ,html/resources/sequences_IDs/A/02_seaturtle.jpg,html/resources/sequences_IDs/B/09_phone.jpg,2,9,2,1,4,2,1,7,0,2,,,,,,,,,,,,,,,,,,,,
,,,,,2,2020-07-01_11h31.23.544,retriever_ti,2020.1.3,Win32,60,Firefox,1920,1080,,,,,,,,,,,,,,,,,3,,,,,,,,,,,,,,,,,,,,,,,,,,,1011.18,180,right,0.411,seaturtle     ,8,2,5,1,3,1011.198,1011.198,1013.696,0,25,25,25,1,180,3,8,parrot      ,seaturtle     ,html/resources/sequences_IDs/B/05_parrot.jpg,html/resources/sequences_IDs/A/02_seaturtle.jpg,5,2,2,1,2,1,4,1,0,2,,,,,,,,,,,,,,,,,,,,
,,,,,2,2020-07-01_11h31.23.544,retriever_ti,2020.1.3,Win32,60,Firefox,1920,1080,,,,,,,,,,,,,,,,,3,,,,,,,,,,,,,,,,,,,,,,,,,,,1014.313,181,left,1.209,dress         ,6,7,1,1,0,1014.33,1014.33,1016.83,0,26,26,26,1,181,6,5,dress         ,slipper     ,html/resources/sequences_IDs/A/07_dress.jpg,html/resources/sequences_IDs/B/08_slipper.jpg,7,8,3,2,3,2,5,6,1,2,,,,,,,,,,,,,,,,,,,,
,,,,,2,2020-07-01_11h31.23.544,retriever_ti,2020.1.3,Win32,60,Firefox,1920,1080,,,,,,,,,,,,,,,,,3,,,,,,,,,,,,,,,,,,,,,,,,,,,1017.93,182,right,0.678,parrot      ,3,5,-1,0,0,1017.946,1017.946,1020.446,0,27,27,27,1,182,4,3,clownfish     ,parrot      ,html/resources/sequences_IDs/A/04_clownfish.jpg,html/resources/sequences_IDs/B/05_parrot.jpg,4,5,2,1,2,1,3,4,0,2,,,,,,,,,,,,,,,,,,,,
,,,,,2,2020-07-01_11h31.23.544,retriever_ti,2020.1.3,Win32,60,Firefox,1920,1080,,,,,,,,,,,,,,,,,3,,,,,,,,,,,,,,,,,,,,,,,,,,,1021.547,183,left,0.278,dress         ,6,7,3,1,3,1021.581,1021.581,1024.08,0,28,28,28,1,183,6,3,dress         ,parrot      ,html/resources/sequences_IDs/A/07_dress.jpg,html/resources/sequences_IDs/B/05_parrot.jpg,7,5,3,2,2,1,5,4,0,2,,,,,,,,,,,,,,,,,,,,
,,,,,2,2020-07-01_11h31.23.544,retriever_ti,2020.1.3,Win32,60,Firefox,1920,1080,,,,,,,,,,,,,,,,,3,,,,,,,,,,,,,,,,,,,,,,,,,,,1024.696,184,right,0.666,satellite_dish,2,10,1,1,0,1024.73,1024.73,1027.23,0,29,29,29,1,184,1,2,phone       ,satellite_dish,html/resources/sequences_IDs/B/09_phone.jpg,html/resources/sequences_IDs/A/10_satellite_dish.jpg,9,10,4,2,4,2,7,8,1,2,,,,,,,,,,,,,,,,,,,,
,,,,,2,2020-07-01_11h31.23.544,retriever_ti,2020.1.3,Win32,60,Firefox,1920,1080,,,,,,,,,,,,,,,,,3,,,,,,,,,,,,,,,,,,,,,,,,,,,1028.33,185,left,0.416,satellite_dish,2,10,-1,0,0,1028.363,1028.363,1030.863,0,30,30,30,1,185,2,3,satellite_dish,parrot      ,html/resources/sequences_IDs/A/10_satellite_dish.jpg,html/resources/sequences_IDs/B/05_parrot.jpg,10,5,4,2,2,1,8,4,0,2,,,,,,,,,,,,,,,,,,,,
,,,,,2,2020-07-01_11h31.23.544,retriever_ti,2020.1.3,Win32,60,Firefox,1920,1080,,,,,,,,,,,,,,,,,3,,,,,,,,,,,,,,,,,,,,,,,,,,,1031.963,186,right,0.361,satellite_dish,2,10,-2,0,3,1031.997,1031.997,1034.496,0,31,31,31,1,186,4,2,clownfish     ,satellite_dish,html/resources/sequences_IDs/A/04_clownfish.jpg,html/resources/sequences_IDs/A/10_satellite_dish.jpg,4,10,2,1,4,2,3,8,0,2,,,,,,,,,,,,,,,,,,,,
,,,,,2,2020-07-01_11h31.23.544,retriever_ti,2020.1.3,Win32,60,Firefox,1920,1080,,,,,,,,,,,,,,,,,3,,,,,,,,,,,,,,,,,,,,,,,,,,,1035.114,187,left,0.428,giraffe     ,7,3,-1,0,0,1035.147,1035.147,1037.646,0,32,32,32,1,187,7,8,giraffe     ,seaturtle     ,html/resources/sequences_IDs/B/03_giraffe.jpg,html/resources/sequences_IDs/A/02_seaturtle.jpg,3,2,1,1,2,1,2,1,0,2,,,,,,,,,,,,,,,,,,,,
,,,,,2,2020-07-01_11h31.23.544,retriever_ti,2020.1.3,Win32,60,Firefox,1920,1080,,,,,,,,,,,,,,,,,3,,,,,,,,,,,,,,,,,,,,,,,,,,,1038.747,188,right,0.632,giraffe     ,7,3,-1,0,0,1038.783,1038.783,1041.28,0,33,33,33,1,188,8,7,seaturtle     ,giraffe     ,html/resources/sequences_IDs/A/02_seaturtle.jpg,html/resources/sequences_IDs/B/03_giraffe.jpg,2,3,2,1,1,1,1,2,0,2,,,,,,,,,,,,,,,,,,,,
,,,,,2,2020-07-01_11h31.23.544,retriever_ti,2020.1.3,Win32,60,Firefox,1920,1080,,,,,,,,,,,,,,,,,3,,,,,,,,,,,,,,,,,,,,,,,,,,,1042.38,189,left,0.363,slipper     ,5,8,-3,0,3,1042.415,1042.415,1044.914,0,34,34,34,1,189,5,8,slipper     ,seaturtle     ,html/resources/sequences_IDs/B/08_slipper.jpg,html/resources/sequences_IDs/A/02_seaturtle.jpg,8,2,3,2,2,1,6,1,0,2,,,,,,,,,,,,,,,,,,,,
,,,,,2,2020-07-01_11h31.23.544,retriever_ti,2020.1.3,Win32,60,Firefox,1920,1080,,,,,,,,,,,,,,,,,3,,,,,,,,,,,,,,,,,,,,,,,,,,,1045.53,190,right,0.362,slipper     ,5,8,3,1,3,1045.563,1045.563,1048.063,0,35,35,35,1,190,2,5,satellite_dish,slipper     ,html/resources/sequences_IDs/A/10_satellite_dish.jpg,html/resources/sequences_IDs/B/08_slipper.jpg,10,8,4,2,3,2,8,6,0,2,,,,,,,,,,,,,,,,,,,,
,,,,,2,2020-07-01_11h31.23.544,retriever_ti,2020.1.3,Win32,60,Firefox,1920,1080,,,,,,,,,,,,,,,,,3,,,,,,,,,,,,,,,,,,,,,,,,,,,1048.68,191,left,0.316,satellite_dish,2,10,-5,0,3,1048.698,1048.698,1051.196,0,36,36,36,1,191,2,7,satellite_dish,giraffe     ,html/resources/sequences_IDs/A/10_satellite_dish.jpg,html/resources/sequences_IDs/B/03_giraffe.jpg,10,3,4,2,1,1,8,2,0,2,,,,,,,,,,,,,,,,,,,,
,,,,,2,2020-07-01_11h31.23.544,retriever_ti,2020.1.3,Win32,60,Firefox,1920,1080,,,,,,,,,,,,,,,,,3,,,,,,,,,,,,,,,,,,,,,,,,,,,1051.813,192,right,0.399,seaturtle     ,8,2,2,1,3,1051.83,1051.83,1054.33,0,37,37,37,1,192,6,8,dress         ,seaturtle     ,html/resources/sequences_IDs/A/07_dress.jpg,html/resources/sequences_IDs/A/02_seaturtle.jpg,7,2,3,2,2,1,5,1,0,2,,,,,,,,,,,,,,,,,,,,
,,,,,2,2020-07-01_11h31.23.544,retriever_ti,2020.1.3,Win32,60,Firefox,1920,1080,,,,,,,,,,,,,,,,,3,,,,,,,,,,,,,,,,,,,,,,,,,,,1054.947,193,left,0.362,dress         ,6,7,1,1,1,1054.965,1054.965,1057.463,0,38,38,38,1,193,6,5,dress         ,slipper     ,html/resources/sequences_IDs/A/07_dress.jpg,html/resources/sequences_IDs/B/08_slipper.jpg,7,8,3,2,3,2,5,6,0,2,,,,,,,,,,,,,,,,,,,,
,,,,,2,2020-07-01_11h31.23.544,retriever_ti,2020.1.3,Win32,60,Firefox,1920,1080,,,,,,,,,,,,,,,,,3,,,,,,,,,,,,,,,,,,,,,,,,,,,1058.564,194,right,0.632,giraffe     ,7,3,-1,0,0,1058.58,1058.58,1061.08,0,39,39,39,1,194,8,7,seaturtle     ,giraffe     ,html/resources/sequences_IDs/A/02_seaturtle.jpg,html/resources/sequences_IDs/B/03_giraffe.jpg,2,3,2,1,1,1,1,2,0,2,,,,,,,,,,,,,,,,,,,,
,,,,,2,2020-07-01_11h31.23.544,retriever_ti,2020.1.3,Win32,60,Firefox,1920,1080,,,,,,,,,,,,,,,,,3,,,,,,,,,,,,,,,,,,,,,,,,,,,1062.18,195,left,0.447,dress         ,6,7,1,1,1,1062.197,1062.197,1064.696,0,40,40,40,1,195,6,5,dress         ,slipper     ,html/resources/sequences_IDs/A/07_dress.jpg,html/resources/sequences_IDs/B/08_slipper.jpg,7,8,3,2,3,2,5,6,0,2,,,,,,,,,,,,,,,,,,,,
,,,,,2,2020-07-01_11h31.23.544,retriever_ti,2020.1.3,Win32,60,Firefox,1920,1080,,,,,,,,,,,,,,,,,3,,,,,,,,,,,,,,,,,,,,,,,,,,,1065.796,196,left,0.445,dress         ,6,7,2,1,3,1065.83,1065.83,1068.33,0,41,41,41,1,196,6,4,dress         ,clownfish     ,html/resources/sequences_IDs/A/07_dress.jpg,html/resources/sequences_IDs/A/04_clownfish.jpg,7,4,3,2,2,1,5,3,0,2,,,,,,,,,,,,,,,,,,,,
,,,,,2,2020-07-01_11h31.23.544,retriever_ti,2020.1.3,Win32,60,Firefox,1920,1080,,,,,,,,,,,,,,,,,3,,,,,,,,,,,,,,,,,,,,,,,,,,,1068.946,197,right,0.546,giraffe     ,7,3,1,1,1,1068.963,1068.963,1071.463,0,42,42,42,1,197,6,7,dress         ,giraffe     ,html/resources/sequences_IDs/A/07_dress.jpg,html/resources/sequences_IDs/B/03_giraffe.jpg,7,3,3,2,1,1,5,2,0,2,,,,,,,,,,,,,,,,,,,,
,,,,,2,2020-07-01_11h31.23.544,retriever_ti,2020.1.3,Win32,60,Firefox,1920,1080,,,,,,,,,,,,,,,,,3,,,,,,,,,,,,,,,,,,,,,,,,,,,1072.563,198,left,0.544,clownfish     ,4,4,-1,0,0,1072.581,1072.581,1075.079,0,43,43,43,1,198,4,5,clownfish     ,slipper     ,html/resources/sequences_IDs/A/04_clownfish.jpg,html/resources/sequences_IDs/B/08_slipper.jpg,4,8,2,1,3,2,3,6,0,2,,,,,,,,,,,,,,,,,,,,
,,,,,2,2020-07-01_11h31.23.544,retriever_ti,2020.1.3,Win32,60,Firefox,1920,1080,,,,,,,,,,,,,,,,,3,,,,,,,,,,,,,,,,,,,,,,,,,,,1076.18,199,left,0.509,slipper     ,5,8,4,1,3,1076.213,1076.213,1078.715,0,44,44,44,1,199,5,1,slipper     ,phone       ,html/resources/sequences_IDs/B/08_slipper.jpg,html/resources/sequences_IDs/B/09_phone.jpg,8,9,3,2,4,2,6,7,0,2,,,,,,,,,,,,,,,,,,,,
,,,,,2,2020-07-01_11h31.23.544,retriever_ti,2020.1.3,Win32,60,Firefox,1920,1080,,,,,,,,,,,,,,,,,3,,,,,,,,,,,,,,,,,,,,,,,,,,,1079.33,200,right,0.427,giraffe     ,7,3,2,1,3,1079.363,1079.363,1081.863,0,45,45,45,1,200,5,7,slipper     ,giraffe     ,html/resources/sequences_IDs/B/08_slipper.jpg,html/resources/sequences_IDs/B/03_giraffe.jpg,8,3,3,2,1,1,6,2,0,2,,,,,,,,,,,,,,,,,,,,
,,,,,2,2020-07-01_11h31.23.544,retriever_ti,2020.1.3,Win32,60,Firefox,1920,1080,,,,,,,,,,,,,,,,,3,,,,,,,,,,,,,,,,,,,,,,,,,,,1082.463,201,right,0.493,dress         ,6,7,-1,0,0,1082.498,1082.498,1084.997,0,46,46,46,1,201,7,6,giraffe     ,dress         ,html/resources/sequences_IDs/B/03_giraffe.jpg,html/resources/sequences_IDs/A/07_dress.jpg,3,7,1,1,3,2,2,5,0,2,,,,,,,,,,,,,,,,,,,,
,,,,,2,2020-07-01_11h31.23.544,retriever_ti,2020.1.3,Win32,60,Firefox,1920,1080,,,,,,,,,,,,,,,,,3,,,,,,,,,,,,,,,,,,,,,,,,,,,1086.097,202,right,0.63,dress         ,6,7,1,1,1,1086.113,1086.113,1088.613,0,47,47,47,1,202,5,6,slipper     ,dress         ,html/resources/sequences_IDs/B/08_slipper.jpg,html/resources/sequences_IDs/A/07_dress.jpg,8,7,3,2,3,2,6,5,0,2,,,,,,,,,,,,,,,,,,,,
,,,,,2,2020-07-01_11h31.23.544,retriever_ti,2020.1.3,Win32,60,Firefox,1920,1080,,,,,,,,,,,,,,,,,3,,,,,,,,,,,,,,,,,,,,,,,,,,,1089.713,203,right,0.443,satellite_dish,2,10,-4,0,3,1089.73,1089.73,1092.229,0,48,48,48,1,203,6,2,dress         ,satellite_dish,html/resources/sequences_IDs/A/07_dress.jpg,html/resources/sequences_IDs/A/10_satellite_dish.jpg,7,10,3,2,4,2,5,8,0,2,,,,,,,,,,,,,,,,,,,,
,,,,,2,2020-07-01_11h31.23.544,retriever_ti,2020.1.3,Win32,60,Firefox,1920,1080,,,,,,,,,,,,,,,,,3,,,,,,,,,,,,,,,,,,,,,,,,,,,1092.83,204,right,0.542,clownfish     ,4,4,1,1,1,1092.863,1092.863,1095.363,0,49,49,49,1,204,3,4,parrot      ,clownfish     ,html/resources/sequences_IDs/B/05_parrot.jpg,html/resources/sequences_IDs/A/04_clownfish.jpg,5,4,2,1,2,1,4,3,0,2,,,,,,,,,,,,,,,,,,,,
,,,,,2,2020-07-01_11h31.23.544,retriever_ti,2020.1.3,Win32,60,Firefox,1920,1080,,,,,,,,,,,,,,,,,3,,,,,,,,,,,,,,,,,,,,,,,,,,,1096.463,205,right,0.611,clownfish     ,4,4,-4,0,3,1096.48,1096.48,1098.98,0,50,50,50,1,205,8,4,seaturtle     ,clownfish     ,html/resources/sequences_IDs/A/02_seaturtle.jpg,html/resources/sequences_IDs/A/04_clownfish.jpg,2,4,2,1,2,1,1,3,0,2,,,,,,,,,,,,,,,,,,,,
,,,,,2,2020-07-01_11h31.23.544,retriever_ti,2020.1.3,Win32,60,Firefox,1920,1080,,,,,,,,,,,,,,,,,3,,,,,,,,,,,,,,,,,,,,,,,,,,,1099.597,206,right,0.729,clownfish     ,4,4,1,1,1,1099.613,1099.613,1102.113,0,51,51,51,1,206,3,4,parrot      ,clownfish     ,html/resources/sequences_IDs/B/05_parrot.jpg,html/resources/sequences_IDs/A/04_clownfish.jpg,5,4,2,1,2,1,4,3,0,2,,,,,,,,,,,,,,,,,,,,
,,,,,2,2020-07-01_11h31.23.544,retriever_ti,2020.1.3,Win32,60,Firefox,1920,1080,,,,,,,,,,,,,,,,,3,,,,,,,,,,,,,,,,,,,,,,,,,,,1103.213,207,left,0.761,dress         ,6,7,5,1,3,1103.23,1103.23,1105.73,0,52,52,52,1,207,6,1,dress         ,phone       ,html/resources/sequences_IDs/A/07_dress.jpg,html/resources/sequences_IDs/B/09_phone.jpg,7,9,3,2,4,2,5,7,0,2,,,,,,,,,,,,,,,,,,,,
,,,,,2,2020-07-01_11h31.23.544,retriever_ti,2020.1.3,Win32,60,Firefox,1920,1080,,,,,,,,,,,,,,,,,3,,,,,,,,,,,,,,,,,,,,,,,,,,,1106.33,208,left,0.693,giraffe     ,7,3,2,1,3,1106.363,1106.363,1108.863,0,53,53,53,1,208,7,5,giraffe     ,slipper     ,html/resources/sequences_IDs/B/03_giraffe.jpg,html/resources/sequences_IDs/B/08_slipper.jpg,3,8,1,1,3,2,2,6,0,2,,,,,,,,,,,,,,,,,,,,
,,,,,2,2020-07-01_11h31.23.544,retriever_ti,2020.1.3,Win32,60,Firefox,1920,1080,,,,,,,,,,,,,,,,,3,,,,,,,,,,,,,,,,,,,,,,,,,,,1109.464,209,right,0.511,satellite_dish,2,10,-1,0,0,1109.498,1109.498,1111.996,0,54,54,54,1,209,3,2,parrot      ,satellite_dish,html/resources/sequences_IDs/B/05_parrot.jpg,html/resources/sequences_IDs/A/10_satellite_dish.jpg,5,10,2,1,4,2,4,8,0,2,,,,,,,,,,,,,,,,,,,,
,,,,,2,2020-07-01_11h31.23.544,retriever_ti,2020.1.3,Win32,60,Firefox,1920,1080,,,,,,,,,,,,,,,,,3,,,,,,,,,,,,,,,,,,,,,,,,,,,1113.097,210,left,0.511,clownfish     ,4,4,-3,0,3,1113.133,1113.133,1115.63,0,55,55,55,1,210,4,7,clownfish     ,giraffe     ,html/resources/sequences_IDs/A/04_clownfish.jpg,html/resources/sequences_IDs/B/03_giraffe.jpg,4,3,2,1,1,1,3,2,0,2,,,,,,,,,,,,,,,,,,,,
,,,,,2,2020-07-01_11h31.23.544,retriever_ti,2020.1.3,Win32,60,Firefox,1920,1080,,,,,,,,,,,,,,,,,3,,,,,,,,,,,,,,,,,,,,,,,,,,,1116.246,211,right,0.383,clownfish     ,4,4,-1,0,0,1116.281,1116.281,1118.78,0,56,56,56,1,211,5,4,slipper     ,clownfish     ,html/resources/sequences_IDs/B/08_slipper.jpg,html/resources/sequences_IDs/A/04_clownfish.jpg,8,4,3,2,2,1,6,3,0,2,,,,,,,,,,,,,,,,,,,,
,,,,,2,2020-07-01_11h31.23.544,retriever_ti,2020.1.3,Win32,60,Firefox,1920,1080,,,,,,,,,,,,,,,,,3,,,,,,,,,,,,,,,,,,,,,,,,,,,1119.88,212,left,0.565,giraffe     ,7,3,6,1,3,1119.915,1119.915,1122.413,0,57,57,57,1,212,7,1,giraffe     ,phone       ,html/resources/sequences_IDs/B/03_giraffe.jpg,html/resources/sequences_IDs/B/09_phone.jpg,3,9,1,1,4,2,2,7,0,2,,,,,,,,,,,,,,,,,,,,
,,,,,2,2020-07-01_11h31.23.544,retriever_ti,2020.1.3,Win32,60,Firefox,1920,1080,,,,,,,,,,,,,,,,,3,,,,,,,,,,,,,,,,,,,,,,,,,,,1123.014,213,left,1.243,satellite_dish,2,10,-4,0,3,1123.03,1123.03,1125.53,0,58,58,58,1,213,2,6,satellite_dish,dress         ,html/resources/sequences_IDs/A/10_satellite_dish.jpg,html/resources/sequences_IDs/A/07_dress.jpg,10,7,4,2,3,2,8,5,0,2,,,,,,,,,,,,,,,,,,,,
,,,,,2,2020-07-01_11h31.23.544,retriever_ti,2020.1.3,Win32,60,Firefox,1920,1080,,,,,,,,,,,,,,,,,3,,,,,,,,,,,,,,,,,,,,,,,,,,,1126.147,214,left,0.916,clownfish     ,4,4,-1,0,0,1126.18,1126.18,1128.679,0,59,59,59,1,214,4,5,clownfish     ,slipper     ,html/resources/sequences_IDs/A/04_clownfish.jpg,html/resources/sequences_IDs/B/08_slipper.jpg,4,8,2,1,3,2,3,6,0,2,,,,,,,,,,,,,,,,,,,,
,,,,,2,2020-07-01_11h31.23.544,retriever_ti,2020.1.3,Win32,60,Firefox,1920,1080,,,,,,,,,,,,,,,,,3,,,,,,,,,,,,,,,,,,,,,,,,,,,1129.78,215,right,0.612,parrot      ,3,5,2,1,3,1129.813,1129.813,1132.313,0,60,60,60,1,215,1,3,phone       ,parrot      ,html/resources/sequences_IDs/B/09_phone.jpg,html/resources/sequences_IDs/B/05_parrot.jpg,9,5,4,2,2,1,7,4,0,2,,,,,,,,,,,,,,,,,,,,
,,,,,2,2020-07-01_11h31.23.544,retriever_ti,2020.1.3,Win32,60,Firefox,1920,1080,,,,,,,,,,,,,,,,,3,,,,,,,,,,,,,,,,,,,,,,,,,,,1132.93,216,left,0.362,phone       ,1,9,-3,0,3,1132.948,1132.948,1135.447,0,61,61,61,1,216,1,4,phone       ,clownfish     ,html/resources/sequences_IDs/B/09_phone.jpg,html/resources/sequences_IDs/A/04_clownfish.jpg,9,4,4,2,2,1,7,3,0,2,,,,,,,,,,,,,,,,,,,,
,,,,,2,2020-07-01_11h31.23.544,retriever_ti,2020.1.3,Win32,60,Firefox,1920,1080,,,,,,,,,,,,,,,,,3,,,,,,,,,,,,,,,,,,,,,,,,,,,1136.063,217,right,0.294,phone       ,1,9,-3,0,3,1136.097,1136.097,1138.597,0,62,62,62,1,217,4,1,clownfish     ,phone       ,html/resources/sequences_IDs/A/04_clownfish.jpg,html/resources/sequences_IDs/B/09_phone.jpg,4,9,2,1,4,2,3,7,0,2,,,,,,,,,,,,,,,,,,,,
,,,,,2,2020-07-01_11h31.23.544,retriever_ti,2020.1.3,Win32,60,Firefox,1920,1080,,,,,,,,,,,,,,,,,3,,,,,,,,,,,,,,,,,,,,,,,,,,,1139.213,218,left,0.235,giraffe     ,7,3,1,1,0,1139.248,1139.248,1141.746,0,63,63,63,1,218,7,6,giraffe     ,dress         ,html/resources/sequences_IDs/B/03_giraffe.jpg,html/resources/sequences_IDs/A/07_dress.jpg,3,7,1,1,3,2,2,5,1,2,,,,,,,,,,,,,,,,,,,,
,,,,,2,2020-07-01_11h31.23.544,retriever_ti,2020.1.3,Win32,60,Firefox,1920,1080,,,,,,,,,,,,,,,,,3,,,,,,,,,,,,,,,,,,,,,,,,,,,1142.847,219,right,0.295,parrot      ,3,5,-4,0,3,1142.863,1142.863,1145.363,0,64,64,64,1,219,7,3,giraffe     ,parrot      ,html/resources/sequences_IDs/B/03_giraffe.jpg,html/resources/sequences_IDs/B/05_parrot.jpg,3,5,1,1,2,1,2,4,0,2,,,,,,,,,,,,,,,,,,,,
,,,,,2,2020-07-01_11h31.23.544,retriever_ti,2020.1.3,Win32,60,Firefox,1920,1080,,,,,,,,,,,,,,,,,3,,,,,,,,,,,,,,,,,,,,,,,,,,,1145.963,220,left,0.344,seaturtle     ,8,2,1,1,0,1145.998,1145.998,1148.497,0,65,65,65,1,220,8,7,seaturtle     ,giraffe     ,html/resources/sequences_IDs/A/02_seaturtle.jpg,html/resources/sequences_IDs/B/03_giraffe.jpg,2,3,2,1,1,1,1,2,1,2,,,,,,,,,,,,,,,,,,,,
,,,,,2,2020-07-01_11h31.23.544,retriever_ti,2020.1.3,Win32,60,Firefox,1920,1080,,,,,,,,,,,,,,,,,3,,,,,,,,,,,,,,,,,,,,,,,,,,,1149.596,221,right,0.245,clownfish     ,4,4,2,1,3,1149.63,1149.63,1152.13,0,66,66,66,1,221,2,4,satellite_dish,clownfish     ,html/resources/sequences_IDs/A/10_satellite_dish.jpg,html/resources/sequences_IDs/A/04_clownfish.jpg,10,4,4,2,2,1,8,3,0,2,,,,,,,,,,,,,,,,,,,,
,,,,,2,2020-07-01_11h31.23.544,retriever_ti,2020.1.3,Win32,60,Firefox,1920,1080,,,,,,,,,,,,,,,,,3,,,,,,,,,,,,,,,,,,,,,,,,,,,1152.747,222,left,0.566,satellite_dish,2,10,1,1,1,1152.763,1152.763,1155.263,0,67,67,67,1,222,2,1,satellite_dish,phone       ,html/resources/sequences_IDs/A/10_satellite_dish.jpg,html/resources/sequences_IDs/B/09_phone.jpg,10,9,4,2,4,2,8,7,0,2,,,,,,,,,,,,,,,,,,,,
,,,,,2,2020-07-01_11h31.23.544,retriever_ti,2020.1.3,Win32,60,Firefox,1920,1080,,,,,,,,,,,,,,,,,3,,,,,,,,,,,,,,,,,,,,,,,,,,,1156.363,223,right,0.427,parrot      ,3,5,-2,0,3,1156.38,1156.38,1158.88,0,68,68,68,1,223,5,3,slipper     ,parrot      ,html/resources/sequences_IDs/B/08_slipper.jpg,html/resources/sequences_IDs/B/05_parrot.jpg,8,5,3,2,2,1,6,4,0,2,,,,,,,,,,,,,,,,,,,,
,,,,,2,2020-07-01_11h31.23.544,retriever_ti,2020.1.3,Win32,60,Firefox,1920,1080,,,,,,,,,,,,,,,,,3,,,,,,,,,,,,,,,,,,,,,,,,,,,1159.497,224,right,0.561,dress         ,6,7,1,1,1,1159.515,1159.515,1162.013,0,69,69,69,1,224,5,6,slipper     ,dress         ,html/resources/sequences_IDs/B/08_slipper.jpg,html/resources/sequences_IDs/A/07_dress.jpg,8,7,3,2,3,2,6,5,0,2,,,,,,,,,,,,,,,,,,,,
,,,,,2,2020-07-01_11h31.23.544,retriever_ti,2020.1.3,Win32,60,Firefox,1920,1080,,,,,,,,,,,,,,,,,3,,,,,,,,,,,,,,,,,,,,,,,,,,,1163.113,225,right,0.328,dress         ,6,7,-2,0,3,1163.132,1163.132,1165.63,0,70,70,70,1,225,8,6,seaturtle     ,dress         ,html/resources/sequences_IDs/A/02_seaturtle.jpg,html/resources/sequences_IDs/A/07_dress.jpg,2,7,2,1,3,2,1,5,0,2,,,,,,,,,,,,,,,,,,,,
,,,,,2,2020-07-01_11h31.23.544,retriever_ti,2020.1.3,Win32,60,Firefox,1920,1080,,,,,,,,,,,,,,,,,3,,,,,,,,,,,,,,,,,,,,,,,,,,,1166.247,226,left,0.428,seaturtle     ,8,2,5,1,3,1166.28,1166.28,1168.78,0,71,71,71,1,226,8,3,seaturtle     ,parrot      ,html/resources/sequences_IDs/A/02_seaturtle.jpg,html/resources/sequences_IDs/B/05_parrot.jpg,2,5,2,1,2,1,1,4,0,2,,,,,,,,,,,,,,,,,,,,
,,,,,2,2020-07-01_11h31.23.544,retriever_ti,2020.1.3,Win32,60,Firefox,1920,1080,,,,,,,,,,,,,,,,,3,,,,,,,,,,,,,,,,,,,,,,,,,,,1169.397,227,right,0.31,dress         ,6,7,-1,0,0,1169.413,1169.413,1171.914,0,72,72,72,1,227,7,6,giraffe     ,dress         ,html/resources/sequences_IDs/B/03_giraffe.jpg,html/resources/sequences_IDs/A/07_dress.jpg,3,7,1,1,3,2,2,5,0,2,,,,,,,,,,,,,,,,,,,,
,,,,,2,2020-07-01_11h31.23.544,retriever_ti,2020.1.3,Win32,60,Firefox,1920,1080,,,,,,,,,,,,,,,,,3,,,,,,,,,,,,,,,,,,,,,,,,,,,1173.013,228,left,0.26,phone       ,1,9,-5,0,3,1173.047,1173.047,1175.547,0,73,73,73,1,228,1,6,phone       ,dress         ,html/resources/sequences_IDs/B/09_phone.jpg,html/resources/sequences_IDs/A/07_dress.jpg,9,7,4,2,3,2,7,5,0,2,,,,,,,,,,,,,,,,,,,,
,,,,,2,2020-07-01_11h31.23.544,retriever_ti,2020.1.3,Win32,60,Firefox,1920,1080,,,,,,,,,,,,,,,,,3,,,,,,,,,,,,,,,,,,,,,,,,,,,1176.163,229,right,0.261,satellite_dish,2,10,-1,0,1,1176.181,1176.181,1178.679,0,74,74,74,1,229,3,2,parrot      ,satellite_dish,html/resources/sequences_IDs/B/05_parrot.jpg,html/resources/sequences_IDs/A/10_satellite_dish.jpg,5,10,2,1,4,2,4,8,1,2,,,,,,,,,,,,,,,,,,,,
,,,,,2,2020-07-01_11h31.23.544,retriever_ti,2020.1.3,Win32,60,Firefox,1920,1080,,,,,,,,,,,,,,,,,3,,,,,,,,,,,,,,,,,,,,,,,,,,,1179.78,230,left,0.376,clownfish     ,4,4,-2,0,3,1179.814,1179.814,1182.313,0,75,75,75,1,230,4,6,clownfish     ,dress         ,html/resources/sequences_IDs/A/04_clownfish.jpg,html/resources/sequences_IDs/A/07_dress.jpg,4,7,2,1,3,2,3,5,0,2,,,,,,,,,,,,,,,,,,,,
