instructionsLoop.thisRepN,instructionsLoop.thisTrialN,instructionsLoop.thisN,instructionsLoop.thisIndex,instructionsLoop.ran,participant,date,expName,psychopyVersion,OS,frameRate,browser,xResolution,yResolution,fix_onset,tprac,practiceKey.keys,practiceKey.rt,pracitem_chosen_name,acc_practice,P1_onsetPrac,P2_onsetPrac,onsetFeedbPrac,practiceTrials.thisRepN,practiceTrials.thisTrialN,practiceTrials.thisN,practiceTrials.thisIndex,practiceTrials.ran,P1,P2,Block,LocItem1,LocItem2,NameItem1,NameItem2,key_respAC_prac.keys,key_respAC_prac.corr,key_respAC_prac.rt,AC_acc,Attentions.thisRepN,Attentions.thisTrialN,Attentions.thisN,Attentions.thisIndex,Attentions.ran,Stim,Loc1,Loc2,Loc3,Loc4,CorrAns,keyDisturbed.keys,keyDisturbed.rt,repPractice.thisRepN,repPractice.thisTrialN,repPractice.thisN,repPractice.thisIndex,repPractice.ran,fixcross_onsetMain,trialNumber,key_resp.keys,key_resp.rt,item_chosen_name,item_chosen_value,item_chosen_ID,diff_chosen_minus_reject,acc_real,acc_feedback,P1_onset,P2_onset,feedb_onset,trials.thisRepN,trials.thisTrialN,trials.thisN,trials.thisIndex,trials.ran,Trial,ValueP1,ValueP2,P1name,P2name,P1Loc,P2Loc,P1id,P2id,Micro_categoryP1,Macro_categoryP1,Micro_categoryP2,Macro_categoryP2,ID_sequenceP1,ID_sequenceP2,InverseFb,pNumber,repBlocks.thisRepN,repBlocks.thisTrialN,repBlocks.thisN,repBlocks.thisIndex,repBlocks.ran,key_respAC.keys,key_respAC.corr,key_respAC.rt,trials_AC.thisRepN,trials_AC.thisTrialN,trials_AC.thisN,trials_AC.thisIndex,trials_AC.ran,Bonus,BonusLoop.thisRepN,BonusLoop.thisTrialN,BonusLoop.thisN,BonusLoop.thisIndex,BonusLoop.ran,comments
0,0,0,0,1,2,2020-07-01_11h31.07.718,retriever_ti,2020.1.3,Win32,60,Chrome,1920,1080,,,,,,,,,,,,,,,,,,,,,,,,,,,,,,,,,,,,,,,,,,,,,,,,,,,,,,,,,,,,,,,,,,,,,,,,,,,,,,,,,,,,,,,,,,,,,,,,,,
1,0,1,0,1,2,2020-07-01_11h31.07.718,retriever_ti,2020.1.3,Win32,60,Chrome,1920,1080,,,,,,,,,,,,,,,,,,,,,,,,,,,,,,,,,,,,,,,,,,,,,,,,,,,,,,,,,,,,,,,,,,,,,,,,,,,,,,,,,,,,,,,,,,,,,,,,,,
2,0,2,0,1,2,2020-07-01_11h31.07.718,retriever_ti,2020.1.3,Win32,60,Chrome,1920,1080,,,,,,,,,,,,,,,,,,,,,,,,,,,,,,,,,,,,,,,,,,,,,,,,,,,,,,,,,,,,,,,,,,,,,,,,,,,,,,,,,,,,,,,,,,,,,,,,,,
3,0,3,0,1,2,2020-07-01_11h31.07.718,retriever_ti,2020.1.3,Win32,60,Chrome,1920,1080,,,,,,,,,,,,,,,,,,,,,,,,,,,,,,,,,,,,,,,,,,,,,,,,,,,,,,,,,,,,,,,,,,,,,,,,,,,,,,,,,,,,,,,,,,,,,,,,,,
4,0,4,0,1,2,2020-07-01_11h31.07.718,retriever_ti,2020.1.3,Win32,60,Chrome,1920,1080,,,,,,,,,,,,,,,,,,,,,,,,,,,,,,,,,,,,,,,,,,,,,,,,,,,,,,,,,,,,,,,,,,,,,,,,,,,,,,,,,,,,,,,,,,,,,,,,,,
5,0,5,0,1,2,2020-07-01_11h31.07.718,retriever_ti,2020.1.3,Win32,60,Chrome,1920,1080,,,,,,,,,,,,,,,,,,,,,,,,,,,,,,,,,,,,,,,,,,,,,,,,,,,,,,,,,,,,,,,,,,,,,,,,,,,,,,,,,,,,,,,,,,,,,,,,,,
6,0,6,0,1,2,2020-07-01_11h31.07.718,retriever_ti,2020.1.3,Win32,60,Chrome,1920,1080,,,,,,,,,,,,,,,,,,,,,,,,,,,,,,,,,,,,,,,,,,,,,,,,,,,,,,,,,,,,,,,,,,,,,,,,,,,,,,,,,,,,,,,,,,,,,,,,,,
7,0,7,0,1,2,2020-07-01_11h31.07.718,retriever_ti,2020.1.3,Win32,60,Chrome,1920,1080,,,,,,,,,,,,,,,,,,,,,,,,,,,,,,,,,,,,,,,,,,,,,,,,,,,,,,,,,,,,,,,,,,,,,,,,,,,,,,,,,,,,,,,,,,,,,,,,,,
8,0,8,0,1,2,2020-07-01_11h31.07.718,retriever_ti,2020.1.3,Win32,60,Chrome,1920,1080,,,,,,,,,,,,,,,,,,,,,,,,,,,,,,,,,,,,,,,,,,,,,,,,,,,,,,,,,,,,,,,,,,,,,,,,,,,,,,,,,,,,,,,,,,,,,,,,,,
9,0,9,0,1,2,2020-07-01_11h31.07.718,retriever_ti,2020.1.3,Win32,60,Chrome,1920,1080,,,,,,,,,,,,,,,,,,,,,,,,,,,,,,,,,,,,,,,,,,,,,,,,,,,,,,,,,,,,,,,,,,,,,,,,,,,,,,,,,,,,,,,,,,,,,,,,,,
10,0,10,0,1,2,2020-07-01_11h31.07.718,retriever_ti,2020.1.3,Win32,60,Chrome,1920,1080,,,,,,,,,,,,,,,,,,,,,,,,,,,,,,,,,,,,,,,,,,,,,,,,,,,,,,,,,,,,,,,,,,,,,,,,,,,,,,,,,,,,,,,,,,,,,,,,,,
11,0,11,0,1,2,2020-07-01_11h31.07.718,retriever_ti,2020.1.3,Win32,60,Chrome,1920,1080,,,,,,,,,,,,,,,,,,,,,,,,,,,,,,,,,,,,,,,,,,,,,,,,,,,,,,,,,,,,,,,,,,,,,,,,,,,,,,,,,,,,,,,,,,,,,,,,,,
12,0,12,0,1,2,2020-07-01_11h31.07.718,retriever_ti,2020.1.3,Win32,60,Chrome,1920,1080,,,,,,,,,,,,,,,,,,,,,,,,,,,,,,,,,,,,,,,,,,,,,,,,,,,,,,,,,,,,,,,,,,,,,,,,,,,,,,,,,,,,,,,,,,,,,,,,,,
13,0,13,0,1,2,2020-07-01_11h31.07.718,retriever_ti,2020.1.3,Win32,60,Chrome,1920,1080,,,,,,,,,,,,,,,,,,,,,,,,,,,,,,,,,,,,,,,,,,,,,,,,,,,,,,,,,,,,,,,,,,,,,,,,,,,,,,,,,,,,,,,,,,,,,,,,,,
14,0,14,0,1,2,2020-07-01_11h31.07.718,retriever_ti,2020.1.3,Win32,60,Chrome,1920,1080,,,,,,,,,,,,,,,,,,,,,,,,,,,,,,,,,,,,,,,,,,,,,,,,,,,,,,,,,,,,,,,,,,,,,,,,,,,,,,,,,,,,,,,,,,,,,,,,,,
15,0,15,0,1,2,2020-07-01_11h31.07.718,retriever_ti,2020.1.3,Win32,60,Chrome,1920,1080,,,,,,,,,,,,,,,,,,,,,,,,,,,,,,,,,,,,,,,,,,,,,,,,,,,,,,,,,,,,,,,,,,,,,,,,,,,,,,,,,,,,,,,,,,,,,,,,,,
16,0,16,0,1,2,2020-07-01_11h31.07.718,retriever_ti,2020.1.3,Win32,60,Chrome,1920,1080,,,,,,,,,,,,,,,,,,,,,,,,,,,,,,,,,,,,,,,,,,,,,,,,,,,,,,,,,,,,,,,,,,,,,,,,,,,,,,,,,,,,,,,,,,,,,,,,,,
,,,,,2,2020-07-01_11h31.07.718,retriever_ti,2020.1.3,Win32,60,Chrome,1920,1080,249.43317,1,NaN,NaN,No_response,2,249.451795,249.451795,251.951375,0,0,0,0,1,2,5,1,html/resources/stimuli_practice_decision/04_beetle.jpg,html/resources/stimuli_practice_decision/02_canary.jpg,beetle,canary,,,,,,,,,,,,,,,,,,,,,,,,,,,,,,,,,,,,,,,,,,,,,,,,,,,,,,,,,,,,,,,,,,,,,,,,,,,,,
,,,,,2,2020-07-01_11h31.07.718,retriever_ti,2020.1.3,Win32,60,Chrome,1920,1080,252.486395,2,left,1.123365,rabbit,1,252.518585,252.518585,255.017845,0,1,1,1,1,4,3,1,html/resources/stimuli_practice_decision/01_rabbit.jpg,html/resources/stimuli_practice_decision/07_sock.jpg,rabbit,sock,,,,,,,,,,,,,,,,,,,,,,,,,,,,,,,,,,,,,,,,,,,,,,,,,,,,,,,,,,,,,,,,,,,,,,,,,,,,,
,,,,,2,2020-07-01_11h31.07.718,retriever_ti,2020.1.3,Win32,60,Chrome,1920,1080,256.01818,3,left,1.580835,pullover,1,256.035225,256.035225,258.53494,0,2,2,2,1,6,2,1,html/resources/stimuli_practice_decision/06_pullover.jpg,html/resources/stimuli_practice_decision/04_beetle.jpg,pullover,beetle,,,,,,,,,,,,,,,,,,,,,,,,,,,,,,,,,,,,,,,,,,,,,,,,,,,,,,,,,,,,,,,,,,,,,,,,,,,,,
,,,,,2,2020-07-01_11h31.07.718,retriever_ti,2020.1.3,Win32,60,Chrome,1920,1080,259.052165,4,right,1.78703,handmixer,0,259.06898,259.06898,261.56837,0,3,3,3,1,7,1,1,html/resources/stimuli_practice_decision/05_glasses.jpg,html/resources/stimuli_practice_decision/08_handmixer.jpg,glasses,handmixer,,,,,,,,,,,,,,,,,,,,,,,,,,,,,,,,,,,,,,,,,,,,,,,,,,,,,,,,,,,,,,,,,,,,,,,,,,,,,
,,,,,2,2020-07-01_11h31.07.718,retriever_ti,2020.1.3,Win32,60,Chrome,1920,1080,262.08536,5,left,1.99535,glasses,1,262.11906,262.11906,264.6187,0,4,4,4,1,7,6,1,html/resources/stimuli_practice_decision/05_glasses.jpg,html/resources/stimuli_practice_decision/06_pullover.jpg,glasses,pullover,,,,,,,,,,,,,,,,,,,,,,,,,,,,,,,,,,,,,,,,,,,,,,,,,,,,,,,,,,,,,,,,,,,,,,,,,,,,,
,,,,,2,2020-07-01_11h31.07.718,retriever_ti,2020.1.3,Win32,60,Chrome,1920,1080,265.61934,6,right,1.820285,glasses,1,265.636125,265.636125,268.135525,0,5,5,5,1,4,7,1,html/resources/stimuli_practice_decision/01_rabbit.jpg,html/resources/stimuli_practice_decision/05_glasses.jpg,rabbit,glasses,,,,,,,,,,,,,,,,,,,,,,,,,,,,,,,,,,,,,,,,,,,,,,,,,,,,,,,,,,,,,,,,,,,,,,,,,,,,,
,,,,,2,2020-07-01_11h31.07.718,retriever_ti,2020.1.3,Win32,60,Chrome,1920,1080,268.6362,7,left,1.23865,handmixer,0,268.65287,268.65287,271.152405,0,6,6,6,1,1,2,1,html/resources/stimuli_practice_decision/08_handmixer.jpg,html/resources/stimuli_practice_decision/04_beetle.jpg,handmixer,beetle,,,,,,,,,,,,,,,,,,,,,,,,,,,,,,,,,,,,,,,,,,,,,,,,,,,,,,,,,,,,,,,,,,,,,,,,,,,,,
,,,,,2,2020-07-01_11h31.07.718,retriever_ti,2020.1.3,Win32,60,Chrome,1920,1080,272.15271,8,left,2.04806,rabbit,1,272.186525,272.186525,274.686035,0,7,7,7,1,4,3,1,html/resources/stimuli_practice_decision/01_rabbit.jpg,html/resources/stimuli_practice_decision/07_sock.jpg,rabbit,sock,,,,,,,,,,,,,,,,,,,,,,,,,,,,,,,,,,,,,,,,,,,,,,,,,,,,,,,,,,,,,,,,,,,,,,,,,,,,,
,,,,,2,2020-07-01_11h31.07.718,retriever_ti,2020.1.3,Win32,60,Chrome,1920,1080,,,,,,,,,,,,,,,,,,,,,,left,1,2.498185,1,0,0,0,2,1,html/resources/sequences_IDs/square1.png,star ↑,triangle →,circle ↓,← square,left,,,,,,,,,,,,,,,,,,,,,,,,,,,,,,,,,,,,,,,,,,,,,,,,,,,,,,,,,,,,,,
,,,,,2,2020-07-01_11h31.07.718,retriever_ti,2020.1.3,Win32,60,Chrome,1920,1080,,,,,,,,,,,,,,,,,,,,,,up,1,2.05573,1,0,1,1,0,1,html/resources/sequences_IDs/circle.png,circle ↑,square →,triangle ↓,← star ,up,,,,,,,,,,,,,,,,,,,,,,,,,,,,,,,,,,,,,,,,,,,,,,,,,,,,,,,,,,,,,,
,,,,,2,2020-07-01_11h31.07.718,retriever_ti,2020.1.3,Win32,60,Chrome,1920,1080,,,,,,,,,,,,,,,,,,,,,,down,1,1.794105,1,0,2,2,3,1,html/resources/sequences_IDs/triangle.png,star ↑,square →,triangle ↓,← circle,down,,,,,,,,,,,,,,,,,,,,,,,,,,,,,,,,,,,,,,,,,,,,,,,,,,,,,,,,,,,,,,
,,,,,2,2020-07-01_11h31.07.718,retriever_ti,2020.1.3,Win32,60,Chrome,1920,1080,,,,,,,,,,,,,,,,,,,,,,down,1,1.77252,1,0,3,3,1,1,html/resources/sequences_IDs/star.png,square ↑,circle →,star ↓,← triangle,down,,,,,,,,,,,,,,,,,,,,,,,,,,,,,,,,,,,,,,,,,,,,,,,,,,,,,,,,,,,,,,
,,,,,2,2020-07-01_11h31.07.718,retriever_ti,2020.1.3,Win32,60,Chrome,1920,1080,,,,,,,,,,,,,,,,,,,,,,,,,,,,,,,,,,,,,0,22.36943,0,0,0,0,1,,,,,,,,,,,,,,,,,,,,,,,,,,,,,,,,,,,,,,,,,,,,,,,,,,,,,,,
,,,,,2,2020-07-01_11h31.07.718,retriever_ti,2020.1.3,Win32,60,Chrome,1920,1080,315.835205,9,right,0.94514,glasses,1,315.8401,315.8401,318.339605,0,0,0,0,1,6,7,1,html/resources/stimuli_practice_decision/06_pullover.jpg,html/resources/stimuli_practice_decision/05_glasses.jpg,pullover,glasses,,,,,,,,,,,,,,,,,,,,,,,,,,,,,,,,,,,,,,,,,,,,,,,,,,,,,,,,,,,,,,,,,,,,,,,,,,,,,
,,,,,2,2020-07-01_11h31.07.718,retriever_ti,2020.1.3,Win32,60,Chrome,1920,1080,319.339945,10,right,1.75842,beetle,0,319.37361,319.37361,321.873165,0,1,1,1,1,6,2,1,html/resources/stimuli_practice_decision/06_pullover.jpg,html/resources/stimuli_practice_decision/04_beetle.jpg,pullover,beetle,,,,,,,,,,,,,,,,,,,,,,,,,,,,,,,,,,,,,,,,,,,,,,,,,,,,,,,,,,,,,,,,,,,,,,,,,,,,,
,,,,,2,2020-07-01_11h31.07.718,retriever_ti,2020.1.3,Win32,60,Chrome,1920,1080,322.373805,11,left,1.65082,canary,0,322.407245,322.407245,324.906765,0,2,2,2,1,5,6,1,html/resources/stimuli_practice_decision/02_canary.jpg,html/resources/stimuli_practice_decision/06_pullover.jpg,canary,pullover,,,,,,,,,,,,,,,,,,,,,,,,,,,,,,,,,,,,,,,,,,,,,,,,,,,,,,,,,,,,,,,,,,,,,,,,,,,,,
,,,,,2,2020-07-01_11h31.07.718,retriever_ti,2020.1.3,Win32,60,Chrome,1920,1080,325.90735,12,right,1.466095,glasses,0,325.92444,325.92444,328.423875,0,3,3,3,1,8,7,1,html/resources/stimuli_practice_decision/03_squirrel.jpg,html/resources/stimuli_practice_decision/05_glasses.jpg,squirrel,glasses,,,,,,,,,,,,,,,,,,,,,,,,,,,,,,,,,,,,,,,,,,,,,,,,,,,,,,,,,,,,,,,,,,,,,,,,,,,,,
,,,,,2,2020-07-01_11h31.07.718,retriever_ti,2020.1.3,Win32,60,Chrome,1920,1080,329.42405,13,left,1.58472,canary,1,329.441105,329.441105,331.940715,0,4,4,4,1,5,3,1,html/resources/stimuli_practice_decision/02_canary.jpg,html/resources/stimuli_practice_decision/07_sock.jpg,canary,sock,,,,,,,,,,,,,,,,,,,,,,,,,,,,,,,,,,,,,,,,,,,,,,,,,,,,,,,,,,,,,,,,,,,,,,,,,,,,,
,,,,,2,2020-07-01_11h31.07.718,retriever_ti,2020.1.3,Win32,60,Chrome,1920,1080,332.45794,14,left,2.18133,glasses,0,332.491305,332.491305,334.990925,0,5,5,5,1,7,8,1,html/resources/stimuli_practice_decision/05_glasses.jpg,html/resources/stimuli_practice_decision/03_squirrel.jpg,glasses,squirrel,,,,,,,,,,,,,,,,,,,,,,,,,,,,,,,,,,,,,,,,,,,,,,,,,,,,,,,,,,,,,,,,,,,,,,,,,,,,,
,,,,,2,2020-07-01_11h31.07.718,retriever_ti,2020.1.3,Win32,60,Chrome,1920,1080,335.991475,15,left,2.428545,canary,1,336.0083,336.0083,338.507845,0,6,6,6,1,5,4,1,html/resources/stimuli_practice_decision/02_canary.jpg,html/resources/stimuli_practice_decision/01_rabbit.jpg,canary,rabbit,,,,,,,,,,,,,,,,,,,,,,,,,,,,,,,,,,,,,,,,,,,,,,,,,,,,,,,,,,,,,,,,,,,,,,,,,,,,,
,,,,,2,2020-07-01_11h31.07.718,retriever_ti,2020.1.3,Win32,60,Chrome,1920,1080,339.50815,16,left,0.926815,canary,1,339.525265,339.525265,342.024825,0,7,7,7,1,5,3,1,html/resources/stimuli_practice_decision/02_canary.jpg,html/resources/stimuli_practice_decision/07_sock.jpg,canary,sock,,,,,,,,,,,,,,,,,,,,,,,,,,,,,,,,,,,,,,,,,,,,,,,,,,,,,,,,,,,,,,,,,,,,,,,,,,,,,
,,,,,2,2020-07-01_11h31.07.718,retriever_ti,2020.1.3,Win32,60,Chrome,1920,1080,,,,,,,,,,,,,,,,,,,,,,down,1,2.474645,1,0,0,0,3,1,html/resources/sequences_IDs/triangle.png,star ↑,square →,triangle ↓,← circle,down,,,,,,,,,,,,,,,,,,,,,,,,,,,,,,,,,,,,,,,,,,,,,,,,,,,,,,,,,,,,,,
,,,,,2,2020-07-01_11h31.07.718,retriever_ti,2020.1.3,Win32,60,Chrome,1920,1080,,,,,,,,,,,,,,,,,,,,,,up,1,0.964595,1,0,1,1,0,1,html/resources/sequences_IDs/circle.png,circle ↑,square →,triangle ↓,← star ,up,,,,,,,,,,,,,,,,,,,,,,,,,,,,,,,,,,,,,,,,,,,,,,,,,,,,,,,,,,,,,,
,,,,,2,2020-07-01_11h31.07.718,retriever_ti,2020.1.3,Win32,60,Chrome,1920,1080,,,,,,,,,,,,,,,,,,,,,,down,1,1.61888,1,0,2,2,1,1,html/resources/sequences_IDs/star.png,square ↑,circle →,star ↓,← triangle,down,,,,,,,,,,,,,,,,,,,,,,,,,,,,,,,,,,,,,,,,,,,,,,,,,,,,,,,,,,,,,,
,,,,,2,2020-07-01_11h31.07.718,retriever_ti,2020.1.3,Win32,60,Chrome,1920,1080,,,,,,,,,,,,,,,,,,,,,,left,1,2.036545,1,0,3,3,2,1,html/resources/sequences_IDs/square1.png,star ↑,triangle →,circle ↓,← square,left,,,,,,,,,,,,,,,,,,,,,,,,,,,,,,,,,,,,,,,,,,,,,,,,,,,,,,,,,,,,,,
,,,,,2,2020-07-01_11h31.07.718,retriever_ti,2020.1.3,Win32,60,Chrome,1920,1080,,,,,,,,,,,,,,,,,,,,,,,,,,,,,,,,,,,,,0,5.6618,1,0,1,0,1,,,,,,,,,,,,,,,,,,,,,,,,,,,,,,,,,,,,,,,,,,,,,,,,,,,,,,,
,,,,,2,2020-07-01_11h31.07.718,retriever_ti,2020.1.3,Win32,60,Chrome,1920,1080,,,,,,,,,,,,,,,,,1,,,,,,,,,,,,,,,,,,,,,,,,,,,369.33836,1,left,1.219005,phone       ,1,9,-5,0,3,369.346525,369.346525,371.844345,0,0,0,0,1,1,1,6,phone       ,dress         ,html/resources/sequences_IDs/B/09_phone.jpg,html/resources/sequences_IDs/A/07_dress.jpg,9,7,4,2,3,2,7,5,0,2,,,,,,,,,,,,,,,,,,,,
,,,,,2,2020-07-01_11h31.07.718,retriever_ti,2020.1.3,Win32,60,Chrome,1920,1080,,,,,,,,,,,,,,,,,1,,,,,,,,,,,,,,,,,,,,,,,,,,,372.46193,2,right,1.76632,phone       ,1,9,-4,0,3,372.4779,372.4779,374.977505,0,1,1,1,1,2,5,1,slipper     ,phone       ,html/resources/sequences_IDs/B/08_slipper.jpg,html/resources/sequences_IDs/B/09_phone.jpg,8,9,3,2,4,2,6,7,0,2,,,,,,,,,,,,,,,,,,,,
,,,,,2,2020-07-01_11h31.07.718,retriever_ti,2020.1.3,Win32,60,Chrome,1920,1080,,,,,,,,,,,,,,,,,1,,,,,,,,,,,,,,,,,,,,,,,,,,,375.594505,3,left,1.356845,giraffe     ,7,3,-1,0,1,375.628355,375.628355,378.12793,0,2,2,2,1,3,7,8,giraffe     ,seaturtle     ,html/resources/sequences_IDs/B/03_giraffe.jpg,html/resources/sequences_IDs/A/02_seaturtle.jpg,3,2,1,1,2,1,2,1,1,2,,,,,,,,,,,,,,,,,,,,
,,,,,2,2020-07-01_11h31.07.718,retriever_ti,2020.1.3,Win32,60,Chrome,1920,1080,,,,,,,,,,,,,,,,,1,,,,,,,,,,,,,,,,,,,,,,,,,,,379.22837,4,left,1.48283,satellite_dish,2,10,1,1,1,379.26181,379.26181,381.76136,0,3,3,3,1,4,2,1,satellite_dish,phone       ,html/resources/sequences_IDs/A/10_satellite_dish.jpg,html/resources/sequences_IDs/B/09_phone.jpg,10,9,4,2,4,2,8,7,0,2,,,,,,,,,,,,,,,,,,,,
,,,,,2,2020-07-01_11h31.07.718,retriever_ti,2020.1.3,Win32,60,Chrome,1920,1080,,,,,,,,,,,,,,,,,1,,,,,,,,,,,,,,,,,,,,,,,,,,,382.862015,5,left,1.818295,dress         ,6,7,1,1,1,382.895595,382.895595,385.39516,0,4,4,4,1,5,6,5,dress         ,slipper     ,html/resources/sequences_IDs/A/07_dress.jpg,html/resources/sequences_IDs/B/08_slipper.jpg,7,8,3,2,3,2,5,6,0,2,,,,,,,,,,,,,,,,,,,,
,,,,,2,2020-07-01_11h31.07.718,retriever_ti,2020.1.3,Win32,60,Chrome,1920,1080,,,,,,,,,,,,,,,,,1,,,,,,,,,,,,,,,,,,,,,,,,,,,386.495685,6,left,1.018665,dress         ,6,7,2,1,3,386.512435,386.512435,389.012015,0,5,5,5,1,6,6,4,dress         ,clownfish     ,html/resources/sequences_IDs/A/07_dress.jpg,html/resources/sequences_IDs/A/04_clownfish.jpg,7,4,3,2,2,1,5,3,0,2,,,,,,,,,,,,,,,,,,,,
,,,,,2,2020-07-01_11h31.07.718,retriever_ti,2020.1.3,Win32,60,Chrome,1920,1080,,,,,,,,,,,,,,,,,1,,,,,,,,,,,,,,,,,,,,,,,,,,,389.6291,7,right,1.650995,dress         ,6,7,4,1,3,389.646895,389.646895,392.145555,0,6,6,6,1,7,2,6,satellite_dish,dress         ,html/resources/sequences_IDs/A/10_satellite_dish.jpg,html/resources/sequences_IDs/A/07_dress.jpg,10,7,4,2,3,2,8,5,0,2,,,,,,,,,,,,,,,,,,,,
,,,,,2,2020-07-01_11h31.07.718,retriever_ti,2020.1.3,Win32,60,Chrome,1920,1080,,,,,,,,,,,,,,,,,1,,,,,,,,,,,,,,,,,,,,,,,,,,,392.76283,8,left,1.712875,parrot      ,3,5,-2,0,3,392.796235,392.796235,395.295755,0,7,7,7,1,8,3,5,parrot      ,slipper     ,html/resources/sequences_IDs/B/05_parrot.jpg,html/resources/sequences_IDs/B/08_slipper.jpg,5,8,2,1,3,2,4,6,0,2,,,,,,,,,,,,,,,,,,,,
,,,,,2,2020-07-01_11h31.07.718,retriever_ti,2020.1.3,Win32,60,Chrome,1920,1080,,,,,,,,,,,,,,,,,1,,,,,,,,,,,,,,,,,,,,,,,,,,,395.89614,9,right,2.42506,dress         ,6,7,-2,0,3,395.92986,395.92986,398.4293,0,8,8,8,1,9,8,6,seaturtle     ,dress         ,html/resources/sequences_IDs/A/02_seaturtle.jpg,html/resources/sequences_IDs/A/07_dress.jpg,2,7,2,1,3,2,1,5,0,2,,,,,,,,,,,,,,,,,,,,
,,,,,2,2020-07-01_11h31.07.718,retriever_ti,2020.1.3,Win32,60,Chrome,1920,1080,,,,,,,,,,,,,,,,,1,,,,,,,,,,,,,,,,,,,,,,,,,,,399.02999,10,NaN,NaN,No_response,NaN,NaN,NaN,2,2,399.063385,399.063385,401.56301,0,9,9,9,1,10,5,6,slipper     ,dress         ,html/resources/sequences_IDs/B/08_slipper.jpg,html/resources/sequences_IDs/A/07_dress.jpg,8,7,3,2,3,2,6,5,1,2,,,,,,,,,,,,,,,,,,,,
,,,,,2,2020-07-01_11h31.07.718,retriever_ti,2020.1.3,Win32,60,Chrome,1920,1080,,,,,,,,,,,,,,,,,1,,,,,,,,,,,,,,,,,,,,,,,,,,,402.66364,11,left,1.2592,giraffe     ,7,3,1,1,1,402.6803,402.6803,405.17988,0,10,10,10,1,11,7,6,giraffe     ,dress         ,html/resources/sequences_IDs/B/03_giraffe.jpg,html/resources/sequences_IDs/A/07_dress.jpg,3,7,1,1,3,2,2,5,0,2,,,,,,,,,,,,,,,,,,,,
,,,,,2,2020-07-01_11h31.07.718,retriever_ti,2020.1.3,Win32,60,Chrome,1920,1080,,,,,,,,,,,,,,,,,1,,,,,,,,,,,,,,,,,,,,,,,,,,,406.28052,12,left,1.4727,seaturtle     ,8,2,5,1,3,406.297315,406.297315,408.797025,0,11,11,11,1,12,8,3,seaturtle     ,parrot      ,html/resources/sequences_IDs/A/02_seaturtle.jpg,html/resources/sequences_IDs/B/05_parrot.jpg,2,5,2,1,2,1,1,4,0,2,,,,,,,,,,,,,,,,,,,,
,,,,,2,2020-07-01_11h31.07.718,retriever_ti,2020.1.3,Win32,60,Chrome,1920,1080,,,,,,,,,,,,,,,,,1,,,,,,,,,,,,,,,,,,,,,,,,,,,409.413835,13,right,1.26865,clownfish     ,4,4,1,1,0,409.430925,409.430925,411.93051,0,12,12,12,1,13,3,4,parrot      ,clownfish     ,html/resources/sequences_IDs/B/05_parrot.jpg,html/resources/sequences_IDs/A/04_clownfish.jpg,5,4,2,1,2,1,4,3,1,2,,,,,,,,,,,,,,,,,,,,
,,,,,2,2020-07-01_11h31.07.718,retriever_ti,2020.1.3,Win32,60,Chrome,1920,1080,,,,,,,,,,,,,,,,,1,,,,,,,,,,,,,,,,,,,,,,,,,,,413.0312,14,right,1.680745,giraffe     ,7,3,1,1,1,413.047935,413.047935,415.54743,0,13,13,13,1,14,6,7,dress         ,giraffe     ,html/resources/sequences_IDs/A/07_dress.jpg,html/resources/sequences_IDs/B/03_giraffe.jpg,7,3,3,2,1,1,5,2,0,2,,,,,,,,,,,,,,,,,,,,
,,,,,2,2020-07-01_11h31.07.718,retriever_ti,2020.1.3,Win32,60,Chrome,1920,1080,,,,,,,,,,,,,,,,,1,,,,,,,,,,,,,,,,,,,,,,,,,,,416.648085,15,left,1.912985,slipper     ,5,8,3,1,3,416.66493,416.66493,419.16434,0,14,14,14,1,15,5,2,slipper     ,satellite_dish,html/resources/sequences_IDs/B/08_slipper.jpg,html/resources/sequences_IDs/A/10_satellite_dish.jpg,8,10,3,2,4,2,6,8,0,2,,,,,,,,,,,,,,,,,,,,
,,,,,2,2020-07-01_11h31.07.718,retriever_ti,2020.1.3,Win32,60,Chrome,1920,1080,,,,,,,,,,,,,,,,,1,,,,,,,,,,,,,,,,,,,,,,,,,,,419.78131,16,left,0.841835,clownfish     ,4,4,-1,0,0,419.815085,419.815085,422.314705,0,15,15,15,1,16,4,5,clownfish     ,slipper     ,html/resources/sequences_IDs/A/04_clownfish.jpg,html/resources/sequences_IDs/B/08_slipper.jpg,4,8,2,1,3,2,3,6,0,2,,,,,,,,,,,,,,,,,,,,
,,,,,2,2020-07-01_11h31.07.718,retriever_ti,2020.1.3,Win32,60,Chrome,1920,1080,,,,,,,,,,,,,,,,,1,,,,,,,,,,,,,,,,,,,,,,,,,,,423.415325,17,right,1.096575,slipper     ,5,8,1,1,1,423.448745,423.448745,425.94827,0,16,16,16,1,17,4,5,clownfish     ,slipper     ,html/resources/sequences_IDs/A/04_clownfish.jpg,html/resources/sequences_IDs/B/08_slipper.jpg,4,8,2,1,3,2,3,6,0,2,,,,,,,,,,,,,,,,,,,,
,,,,,2,2020-07-01_11h31.07.718,retriever_ti,2020.1.3,Win32,60,Chrome,1920,1080,,,,,,,,,,,,,,,,,1,,,,,,,,,,,,,,,,,,,,,,,,,,,427.04892,18,left,1.814415,parrot      ,3,5,-5,0,3,427.065565,427.065565,429.565155,0,17,17,17,1,18,3,8,parrot      ,seaturtle     ,html/resources/sequences_IDs/B/05_parrot.jpg,html/resources/sequences_IDs/A/02_seaturtle.jpg,5,2,2,1,2,1,4,1,0,2,,,,,,,,,,,,,,,,,,,,
,,,,,2,2020-07-01_11h31.07.718,retriever_ti,2020.1.3,Win32,60,Chrome,1920,1080,,,,,,,,,,,,,,,,,1,,,,,,,,,,,,,,,,,,,,,,,,,,,430.16578,19,right,1.540475,parrot      ,3,5,-2,0,3,430.182575,430.182575,432.6821,0,18,18,18,1,19,5,3,slipper     ,parrot      ,html/resources/sequences_IDs/B/08_slipper.jpg,html/resources/sequences_IDs/B/05_parrot.jpg,8,5,3,2,2,1,6,4,0,2,,,,,,,,,,,,,,,,,,,,
,,,,,2,2020-07-01_11h31.07.718,retriever_ti,2020.1.3,Win32,60,Chrome,1920,1080,,,,,,,,,,,,,,,,,1,,,,,,,,,,,,,,,,,,,,,,,,,,,433.2991,20,right,1.75611,giraffe     ,7,3,-1,0,0,433.33283,433.33283,435.832395,0,19,19,19,1,20,8,7,seaturtle     ,giraffe     ,html/resources/sequences_IDs/A/02_seaturtle.jpg,html/resources/sequences_IDs/B/03_giraffe.jpg,2,3,2,1,1,1,1,2,0,2,,,,,,,,,,,,,,,,,,,,
,,,,,2,2020-07-01_11h31.07.718,retriever_ti,2020.1.3,Win32,60,Chrome,1920,1080,,,,,,,,,,,,,,,,,1,,,,,,,,,,,,,,,,,,,,,,,,,,,436.93301,21,right,1.998525,seaturtle     ,8,2,3,1,3,436.949805,436.949805,439.449335,0,20,20,20,1,21,5,8,slipper     ,seaturtle     ,html/resources/sequences_IDs/B/08_slipper.jpg,html/resources/sequences_IDs/A/02_seaturtle.jpg,8,2,3,2,2,1,6,1,0,2,,,,,,,,,,,,,,,,,,,,
,,,,,2,2020-07-01_11h31.07.718,retriever_ti,2020.1.3,Win32,60,Chrome,1920,1080,,,,,,,,,,,,,,,,,1,,,,,,,,,,,,,,,,,,,,,,,,,,,440.066555,22,right,2.36652,clownfish     ,4,4,-3,0,3,440.08344,440.08344,442.582925,0,21,21,21,1,22,7,4,giraffe     ,clownfish     ,html/resources/sequences_IDs/B/03_giraffe.jpg,html/resources/sequences_IDs/A/04_clownfish.jpg,3,4,1,1,2,1,2,3,0,2,,,,,,,,,,,,,,,,,,,,
,,,,,2,2020-07-01_11h31.07.718,retriever_ti,2020.1.3,Win32,60,Chrome,1920,1080,,,,,,,,,,,,,,,,,1,,,,,,,,,,,,,,,,,,,,,,,,,,,443.18339,23,left,1.734965,clownfish     ,4,4,-3,0,3,443.217035,443.217035,445.716485,0,22,22,22,1,23,4,7,clownfish     ,giraffe     ,html/resources/sequences_IDs/A/04_clownfish.jpg,html/resources/sequences_IDs/B/03_giraffe.jpg,4,3,2,1,1,1,3,2,0,2,,,,,,,,,,,,,,,,,,,,
,,,,,2,2020-07-01_11h31.07.718,retriever_ti,2020.1.3,Win32,60,Chrome,1920,1080,,,,,,,,,,,,,,,,,1,,,,,,,,,,,,,,,,,,,,,,,,,,,446.317125,24,left,1.70934,phone       ,1,9,-4,0,3,446.333905,446.333905,448.8334,0,23,23,23,1,24,1,5,phone       ,slipper     ,html/resources/sequences_IDs/B/09_phone.jpg,html/resources/sequences_IDs/B/08_slipper.jpg,9,8,4,2,3,2,7,6,0,2,,,,,,,,,,,,,,,,,,,,
,,,,,2,2020-07-01_11h31.07.718,retriever_ti,2020.1.3,Win32,60,Chrome,1920,1080,,,,,,,,,,,,,,,,,1,,,,,,,,,,,,,,,,,,,,,,,,,,,449.433775,25,right,1.759215,seaturtle     ,8,2,2,1,3,449.46741,449.46741,451.96705,0,24,24,24,1,25,6,8,dress         ,seaturtle     ,html/resources/sequences_IDs/A/07_dress.jpg,html/resources/sequences_IDs/A/02_seaturtle.jpg,7,2,3,2,2,1,5,1,0,2,,,,,,,,,,,,,,,,,,,,
,,,,,2,2020-07-01_11h31.07.718,retriever_ti,2020.1.3,Win32,60,Chrome,1920,1080,,,,,,,,,,,,,,,,,1,,,,,,,,,,,,,,,,,,,,,,,,,,,452.584295,26,left,1.536765,parrot      ,3,5,-3,0,3,452.61777,452.61777,455.11724,0,25,25,25,1,26,3,6,parrot      ,dress         ,html/resources/sequences_IDs/B/05_parrot.jpg,html/resources/sequences_IDs/A/07_dress.jpg,5,7,2,1,3,2,4,5,0,2,,,,,,,,,,,,,,,,,,,,
,,,,,2,2020-07-01_11h31.07.718,retriever_ti,2020.1.3,Win32,60,Chrome,1920,1080,,,,,,,,,,,,,,,,,1,,,,,,,,,,,,,,,,,,,,,,,,,,,455.734305,27,left,1.371555,giraffe     ,7,3,2,1,3,455.751495,455.751495,458.250865,0,26,26,26,1,27,7,5,giraffe     ,slipper     ,html/resources/sequences_IDs/B/03_giraffe.jpg,html/resources/sequences_IDs/B/08_slipper.jpg,3,8,1,1,3,2,2,6,0,2,,,,,,,,,,,,,,,,,,,,
,,,,,2,2020-07-01_11h31.07.718,retriever_ti,2020.1.3,Win32,60,Chrome,1920,1080,,,,,,,,,,,,,,,,,1,,,,,,,,,,,,,,,,,,,,,,,,,,,458.851555,28,left,1.61545,parrot      ,3,5,2,1,3,458.885025,458.885025,461.384505,0,27,27,27,1,28,3,1,parrot      ,phone       ,html/resources/sequences_IDs/B/05_parrot.jpg,html/resources/sequences_IDs/B/09_phone.jpg,5,9,2,1,4,2,4,7,0,2,,,,,,,,,,,,,,,,,,,,
,,,,,2,2020-07-01_11h31.07.718,retriever_ti,2020.1.3,Win32,60,Chrome,1920,1080,,,,,,,,,,,,,,,,,1,,,,,,,,,,,,,,,,,,,,,,,,,,,462.00151,29,right,2.3248,seaturtle     ,8,2,1,1,1,462.018495,462.018495,464.517965,0,28,28,28,1,29,7,8,giraffe     ,seaturtle     ,html/resources/sequences_IDs/B/03_giraffe.jpg,html/resources/sequences_IDs/A/02_seaturtle.jpg,3,2,1,1,2,1,2,1,0,2,,,,,,,,,,,,,,,,,,,,
,,,,,2,2020-07-01_11h31.07.718,retriever_ti,2020.1.3,Win32,60,Chrome,1920,1080,,,,,,,,,,,,,,,,,1,,,,,,,,,,,,,,,,,,,,,,,,,,,465.61891,30,right,1.08462,clownfish     ,4,4,-1,0,1,465.636095,465.636095,468.134995,0,29,29,29,1,30,5,4,slipper     ,clownfish     ,html/resources/sequences_IDs/B/08_slipper.jpg,html/resources/sequences_IDs/A/04_clownfish.jpg,8,4,3,2,2,1,6,3,1,2,,,,,,,,,,,,,,,,,,,,
,,,,,2,2020-07-01_11h31.07.718,retriever_ti,2020.1.3,Win32,60,Chrome,1920,1080,,,,,,,,,,,,,,,,,1,,,,,,,,,,,,,,,,,,,,,,,,,,,469.235725,31,right,0.72065,clownfish     ,4,4,-1,0,0,469.269055,469.269055,471.76855,0,30,30,30,1,31,5,4,slipper     ,clownfish     ,html/resources/sequences_IDs/B/08_slipper.jpg,html/resources/sequences_IDs/A/04_clownfish.jpg,8,4,3,2,2,1,6,3,0,2,,,,,,,,,,,,,,,,,,,,
,,,,,2,2020-07-01_11h31.07.718,retriever_ti,2020.1.3,Win32,60,Chrome,1920,1080,,,,,,,,,,,,,,,,,1,,,,,,,,,,,,,,,,,,,,,,,,,,,472.86925,32,right,2.044895,clownfish     ,4,4,1,1,1,472.9027,472.9027,475.40232,0,31,31,31,1,32,3,4,parrot      ,clownfish     ,html/resources/sequences_IDs/B/05_parrot.jpg,html/resources/sequences_IDs/A/04_clownfish.jpg,5,4,2,1,2,1,4,3,0,2,,,,,,,,,,,,,,,,,,,,
,,,,,2,2020-07-01_11h31.07.718,retriever_ti,2020.1.3,Win32,60,Chrome,1920,1080,,,,,,,,,,,,,,,,,1,,,,,,,,,,,,,,,,,,,,,,,,,,,476.502915,33,left,2.24661,satellite_dish,2,10,-1,0,0,476.51966,476.51966,479.0192,0,32,32,32,1,33,2,3,satellite_dish,parrot      ,html/resources/sequences_IDs/A/10_satellite_dish.jpg,html/resources/sequences_IDs/B/05_parrot.jpg,10,5,4,2,2,1,8,4,0,2,,,,,,,,,,,,,,,,,,,,
,,,,,2,2020-07-01_11h31.07.718,retriever_ti,2020.1.3,Win32,60,Chrome,1920,1080,,,,,,,,,,,,,,,,,1,,,,,,,,,,,,,,,,,,,,,,,,,,,480.119825,34,left,1.313215,dress         ,6,7,1,1,1,480.136635,480.136635,482.636245,0,33,33,33,1,34,6,5,dress         ,slipper     ,html/resources/sequences_IDs/A/07_dress.jpg,html/resources/sequences_IDs/B/08_slipper.jpg,7,8,3,2,3,2,5,6,0,2,,,,,,,,,,,,,,,,,,,,
,,,,,2,2020-07-01_11h31.07.718,retriever_ti,2020.1.3,Win32,60,Chrome,1920,1080,,,,,,,,,,,,,,,,,1,,,,,,,,,,,,,,,,,,,,,,,,,,,483.736645,35,left,1.067975,giraffe     ,7,3,4,1,3,483.75371,483.75371,486.25309,0,34,34,34,1,35,7,3,giraffe     ,parrot      ,html/resources/sequences_IDs/B/03_giraffe.jpg,html/resources/sequences_IDs/B/05_parrot.jpg,3,5,1,1,2,1,2,4,0,2,,,,,,,,,,,,,,,,,,,,
,,,,,2,2020-07-01_11h31.07.718,retriever_ti,2020.1.3,Win32,60,Chrome,1920,1080,,,,,,,,,,,,,,,,,1,,,,,,,,,,,,,,,,,,,,,,,,,,,486.85381,36,right,1.31975,giraffe     ,7,3,5,1,3,486.870455,486.870455,489.37002,0,35,35,35,1,36,2,7,satellite_dish,giraffe     ,html/resources/sequences_IDs/A/10_satellite_dish.jpg,html/resources/sequences_IDs/B/03_giraffe.jpg,10,3,4,2,1,1,8,2,0,2,,,,,,,,,,,,,,,,,,,,
,,,,,2,2020-07-01_11h31.07.718,retriever_ti,2020.1.3,Win32,60,Chrome,1920,1080,,,,,,,,,,,,,,,,,1,,,,,,,,,,,,,,,,,,,,,,,,,,,489.97042,37,left,2.100575,satellite_dish,2,10,-3,0,3,490.004065,490.004065,492.503615,0,36,36,36,1,37,2,5,satellite_dish,slipper     ,html/resources/sequences_IDs/A/10_satellite_dish.jpg,html/resources/sequences_IDs/B/08_slipper.jpg,10,8,4,2,3,2,8,6,0,2,,,,,,,,,,,,,,,,,,,,
,,,,,2,2020-07-01_11h31.07.718,retriever_ti,2020.1.3,Win32,60,Chrome,1920,1080,,,,,,,,,,,,,,,,,1,,,,,,,,,,,,,,,,,,,,,,,,,,,493.104335,38,left,2.0381,dress         ,6,7,3,1,3,493.137625,493.137625,495.637305,0,37,37,37,1,38,6,3,dress         ,parrot      ,html/resources/sequences_IDs/A/07_dress.jpg,html/resources/sequences_IDs/B/05_parrot.jpg,7,5,3,2,2,1,5,4,0,2,,,,,,,,,,,,,,,,,,,,
,,,,,2,2020-07-01_11h31.07.718,retriever_ti,2020.1.3,Win32,60,Chrome,1920,1080,,,,,,,,,,,,,,,,,1,,,,,,,,,,,,,,,,,,,,,,,,,,,496.25446,39,right,1.2391,giraffe     ,7,3,2,1,3,496.2879,496.2879,498.7875,0,38,38,38,1,39,5,7,slipper     ,giraffe     ,html/resources/sequences_IDs/B/08_slipper.jpg,html/resources/sequences_IDs/B/03_giraffe.jpg,8,3,3,2,1,1,6,2,0,2,,,,,,,,,,,,,,,,,,,,
,,,,,2,2020-07-01_11h31.07.718,retriever_ti,2020.1.3,Win32,60,Chrome,1920,1080,,,,,,,,,,,,,,,,,1,,,,,,,,,,,,,,,,,,,,,,,,,,,499.40447,40,right,1.748935,dress         ,6,7,1,1,1,499.421495,499.421495,501.920995,0,39,39,39,1,40,5,6,slipper     ,dress         ,html/resources/sequences_IDs/B/08_slipper.jpg,html/resources/sequences_IDs/A/07_dress.jpg,8,7,3,2,3,2,6,5,0,2,,,,,,,,,,,,,,,,,,,,
,,,,,2,2020-07-01_11h31.07.718,retriever_ti,2020.1.3,Win32,60,Chrome,1920,1080,,,,,,,,,,,,,,,,,1,,,,,,,,,,,,,,,,,,,,,,,,,,,503.021625,41,left,1.15652,dress         ,6,7,4,1,3,503.055085,503.055085,505.554705,0,40,40,40,1,41,6,2,dress         ,satellite_dish,html/resources/sequences_IDs/A/07_dress.jpg,html/resources/sequences_IDs/A/10_satellite_dish.jpg,7,10,3,2,4,2,5,8,0,2,,,,,,,,,,,,,,,,,,,,
,,,,,2,2020-07-01_11h31.07.718,retriever_ti,2020.1.3,Win32,60,Chrome,1920,1080,,,,,,,,,,,,,,,,,1,,,,,,,,,,,,,,,,,,,,,,,,,,,506.171885,42,right,1.211485,dress         ,6,7,1,1,1,506.188685,506.188685,508.688285,0,41,41,41,1,42,5,6,slipper     ,dress         ,html/resources/sequences_IDs/B/08_slipper.jpg,html/resources/sequences_IDs/A/07_dress.jpg,8,7,3,2,3,2,6,5,0,2,,,,,,,,,,,,,,,,,,,,
,,,,,2,2020-07-01_11h31.07.718,retriever_ti,2020.1.3,Win32,60,Chrome,1920,1080,,,,,,,,,,,,,,,,,1,,,,,,,,,,,,,,,,,,,,,,,,,,,509.788615,43,left,1.042835,giraffe     ,7,3,6,1,3,509.80562,509.80562,512.30516,0,42,42,42,1,43,7,1,giraffe     ,phone       ,html/resources/sequences_IDs/B/03_giraffe.jpg,html/resources/sequences_IDs/B/09_phone.jpg,3,9,1,1,4,2,2,7,0,2,,,,,,,,,,,,,,,,,,,,
,,,,,2,2020-07-01_11h31.07.718,retriever_ti,2020.1.3,Win32,60,Chrome,1920,1080,,,,,,,,,,,,,,,,,1,,,,,,,,,,,,,,,,,,,,,,,,,,,512.905855,44,right,0.665265,giraffe     ,7,3,1,1,0,512.92255,512.92255,515.42216,0,43,43,43,1,44,6,7,dress         ,giraffe     ,html/resources/sequences_IDs/A/07_dress.jpg,html/resources/sequences_IDs/B/03_giraffe.jpg,7,3,3,2,1,1,5,2,1,2,,,,,,,,,,,,,,,,,,,,
,,,,,2,2020-07-01_11h31.07.718,retriever_ti,2020.1.3,Win32,60,Chrome,1920,1080,,,,,,,,,,,,,,,,,1,,,,,,,,,,,,,,,,,,,,,,,,,,,516.522745,45,left,1.373965,parrot      ,3,5,1,1,1,516.5562,516.5562,519.05572,0,44,44,44,1,45,3,2,parrot      ,satellite_dish,html/resources/sequences_IDs/B/05_parrot.jpg,html/resources/sequences_IDs/A/10_satellite_dish.jpg,5,10,2,1,4,2,4,8,0,2,,,,,,,,,,,,,,,,,,,,
,,,,,2,2020-07-01_11h31.07.718,retriever_ti,2020.1.3,Win32,60,Chrome,1920,1080,,,,,,,,,,,,,,,,,1,,,,,,,,,,,,,,,,,,,,,,,,,,,520.156355,46,right,1.012365,parrot      ,3,5,-1,0,0,520.189815,520.189815,522.68936,0,45,45,45,1,46,4,3,clownfish     ,parrot      ,html/resources/sequences_IDs/A/04_clownfish.jpg,html/resources/sequences_IDs/B/05_parrot.jpg,4,5,2,1,2,1,3,4,0,2,,,,,,,,,,,,,,,,,,,,
,,,,,2,2020-07-01_11h31.07.718,retriever_ti,2020.1.3,Win32,60,Chrome,1920,1080,,,,,,,,,,,,,,,,,1,,,,,,,,,,,,,,,,,,,,,,,,,,,523.78976,47,right,1.908015,seaturtle     ,8,2,1,1,1,523.80683,523.80683,526.30637,0,46,46,46,1,47,7,8,giraffe     ,seaturtle     ,html/resources/sequences_IDs/B/03_giraffe.jpg,html/resources/sequences_IDs/A/02_seaturtle.jpg,3,2,1,1,2,1,2,1,0,2,,,,,,,,,,,,,,,,,,,,
,,,,,2,2020-07-01_11h31.07.718,retriever_ti,2020.1.3,Win32,60,Chrome,1920,1080,,,,,,,,,,,,,,,,,1,,,,,,,,,,,,,,,,,,,,,,,,,,,527.40699,48,right,1.70597,parrot      ,3,5,2,1,3,527.42372,527.42372,529.923305,0,47,47,47,1,48,1,3,phone       ,parrot      ,html/resources/sequences_IDs/B/09_phone.jpg,html/resources/sequences_IDs/B/05_parrot.jpg,9,5,4,2,2,1,7,4,0,2,,,,,,,,,,,,,,,,,,,,
,,,,,2,2020-07-01_11h31.07.718,retriever_ti,2020.1.3,Win32,60,Chrome,1920,1080,,,,,,,,,,,,,,,,,1,,,,,,,,,,,,,,,,,,,,,,,,,,,530.54059,49,left,2.07236,clownfish     ,4,4,-2,0,3,530.574005,530.574005,533.073575,0,48,48,48,1,49,4,6,clownfish     ,dress         ,html/resources/sequences_IDs/A/04_clownfish.jpg,html/resources/sequences_IDs/A/07_dress.jpg,4,7,2,1,3,2,3,5,0,2,,,,,,,,,,,,,,,,,,,,
,,,,,2,2020-07-01_11h31.07.718,retriever_ti,2020.1.3,Win32,60,Chrome,1920,1080,,,,,,,,,,,,,,,,,1,,,,,,,,,,,,,,,,,,,,,,,,,,,533.69055,50,left,1.552675,phone       ,1,9,-1,0,0,533.70759,533.70759,536.20722,0,49,49,49,1,50,1,2,phone       ,satellite_dish,html/resources/sequences_IDs/B/09_phone.jpg,html/resources/sequences_IDs/A/10_satellite_dish.jpg,9,10,4,2,4,2,7,8,0,2,,,,,,,,,,,,,,,,,,,,
,,,,,2,2020-07-01_11h31.07.718,retriever_ti,2020.1.3,Win32,60,Chrome,1920,1080,,,,,,,,,,,,,,,,,1,,,,,,,,,,,,,,,,,,,,,,,,,,,537.30777,51,left,1.184485,seaturtle     ,8,2,6,1,3,537.324525,537.324525,539.8241,0,50,50,50,1,51,8,2,seaturtle     ,satellite_dish,html/resources/sequences_IDs/A/02_seaturtle.jpg,html/resources/sequences_IDs/A/10_satellite_dish.jpg,2,10,2,1,4,2,1,8,0,2,,,,,,,,,,,,,,,,,,,,
,,,,,2,2020-07-01_11h31.07.718,retriever_ti,2020.1.3,Win32,60,Chrome,1920,1080,,,,,,,,,,,,,,,,,1,,,,,,,,,,,,,,,,,,,,,,,,,,,540.441365,52,left,1.277065,giraffe     ,7,3,5,1,3,540.45808,540.45808,542.95768,0,51,51,51,1,52,7,2,giraffe     ,satellite_dish,html/resources/sequences_IDs/B/03_giraffe.jpg,html/resources/sequences_IDs/A/10_satellite_dish.jpg,3,10,1,1,4,2,2,8,0,2,,,,,,,,,,,,,,,,,,,,
,,,,,2,2020-07-01_11h31.07.718,retriever_ti,2020.1.3,Win32,60,Chrome,1920,1080,,,,,,,,,,,,,,,,,1,,,,,,,,,,,,,,,,,,,,,,,,,,,543.55814,53,left,1.56763,parrot      ,3,5,1,1,1,543.591875,543.591875,546.09133,0,52,52,52,1,53,3,2,parrot      ,satellite_dish,html/resources/sequences_IDs/B/05_parrot.jpg,html/resources/sequences_IDs/A/10_satellite_dish.jpg,5,10,2,1,4,2,4,8,0,2,,,,,,,,,,,,,,,,,,,,
,,,,,2,2020-07-01_11h31.07.718,retriever_ti,2020.1.3,Win32,60,Chrome,1920,1080,,,,,,,,,,,,,,,,,1,,,,,,,,,,,,,,,,,,,,,,,,,,,547.19194,54,right,2.056435,clownfish     ,4,4,1,1,1,547.208595,547.208595,549.708205,0,53,53,53,1,54,3,4,parrot      ,clownfish     ,html/resources/sequences_IDs/B/05_parrot.jpg,html/resources/sequences_IDs/A/04_clownfish.jpg,5,4,2,1,2,1,4,3,0,2,,,,,,,,,,,,,,,,,,,,
,,,,,2,2020-07-01_11h31.07.718,retriever_ti,2020.1.3,Win32,60,Chrome,1920,1080,,,,,,,,,,,,,,,,,1,,,,,,,,,,,,,,,,,,,,,,,,,,,550.808915,55,right,1.95629,giraffe     ,7,3,4,1,3,550.842295,550.842295,553.341905,0,54,54,54,1,55,3,7,parrot      ,giraffe     ,html/resources/sequences_IDs/B/05_parrot.jpg,html/resources/sequences_IDs/B/03_giraffe.jpg,5,3,2,1,1,1,4,2,0,2,,,,,,,,,,,,,,,,,,,,
,,,,,2,2020-07-01_11h31.07.718,retriever_ti,2020.1.3,Win32,60,Chrome,1920,1080,,,,,,,,,,,,,,,,,1,,,,,,,,,,,,,,,,,,,,,,,,,,,553.95878,56,right,1.025785,clownfish     ,4,4,2,1,3,553.99256,553.99256,556.49208,0,55,55,55,1,56,2,4,satellite_dish,clownfish     ,html/resources/sequences_IDs/A/10_satellite_dish.jpg,html/resources/sequences_IDs/A/04_clownfish.jpg,10,4,4,2,2,1,8,3,0,2,,,,,,,,,,,,,,,,,,,,
,,,,,2,2020-07-01_11h31.07.718,retriever_ti,2020.1.3,Win32,60,Chrome,1920,1080,,,,,,,,,,,,,,,,,1,,,,,,,,,,,,,,,,,,,,,,,,,,,557.09276,57,NaN,NaN,No_response,NaN,NaN,NaN,2,2,557.10949,557.10949,559.60906,0,56,56,56,1,57,1,2,phone       ,satellite_dish,html/resources/sequences_IDs/B/09_phone.jpg,html/resources/sequences_IDs/A/10_satellite_dish.jpg,9,10,4,2,4,2,7,8,0,2,,,,,,,,,,,,,,,,,,,,
,,,,,2,2020-07-01_11h31.07.718,retriever_ti,2020.1.3,Win32,60,Chrome,1920,1080,,,,,,,,,,,,,,,,,1,,,,,,,,,,,,,,,,,,,,,,,,,,,560.70969,58,left,1.015915,seaturtle     ,8,2,7,1,3,560.74306,560.74306,563.24265,0,57,57,57,1,58,8,1,seaturtle     ,phone       ,html/resources/sequences_IDs/A/02_seaturtle.jpg,html/resources/sequences_IDs/B/09_phone.jpg,2,9,2,1,4,2,1,7,0,2,,,,,,,,,,,,,,,,,,,,
,,,,,2,2020-07-01_11h31.07.718,retriever_ti,2020.1.3,Win32,60,Chrome,1920,1080,,,,,,,,,,,,,,,,,1,,,,,,,,,,,,,,,,,,,,,,,,,,,563.85964,59,left,0.723175,seaturtle     ,8,2,3,1,3,563.87667,563.87667,566.37627,0,58,58,58,1,59,8,5,seaturtle     ,slipper     ,html/resources/sequences_IDs/A/02_seaturtle.jpg,html/resources/sequences_IDs/B/08_slipper.jpg,2,8,2,1,3,2,1,6,0,2,,,,,,,,,,,,,,,,,,,,
,,,,,2,2020-07-01_11h31.07.718,retriever_ti,2020.1.3,Win32,60,Chrome,1920,1080,,,,,,,,,,,,,,,,,1,,,,,,,,,,,,,,,,,,,,,,,,,,,566.99351,60,right,0.72092,clownfish     ,4,4,-1,0,0,567.02693,567.02693,569.52666,0,59,59,59,1,60,5,4,slipper     ,clownfish     ,html/resources/sequences_IDs/B/08_slipper.jpg,html/resources/sequences_IDs/A/04_clownfish.jpg,8,4,3,2,2,1,6,3,0,2,,,,,,,,,,,,,,,,,,,,
,,,,,2,2020-07-01_11h31.07.718,retriever_ti,2020.1.3,Win32,60,Chrome,1920,1080,,,,,,,,,,,,,,,,,1,,,,,,,,,,,,,,,,,,,,,,,,,,,570.62712,61,left,1.040025,giraffe     ,7,3,1,1,1,570.660545,570.660545,573.16016,0,60,60,60,1,61,7,6,giraffe     ,dress         ,html/resources/sequences_IDs/B/03_giraffe.jpg,html/resources/sequences_IDs/A/07_dress.jpg,3,7,1,1,3,2,2,5,0,2,,,,,,,,,,,,,,,,,,,,
,,,,,2,2020-07-01_11h31.07.718,retriever_ti,2020.1.3,Win32,60,Chrome,1920,1080,,,,,,,,,,,,,,,,,1,,,,,,,,,,,,,,,,,,,,,,,,,,,574.26073,62,left,1.09281,dress         ,6,7,5,1,3,574.277605,574.277605,576.777055,0,61,61,61,1,62,6,1,dress         ,phone       ,html/resources/sequences_IDs/A/07_dress.jpg,html/resources/sequences_IDs/B/09_phone.jpg,7,9,3,2,4,2,5,7,0,2,,,,,,,,,,,,,,,,,,,,
,,,,,2,2020-07-01_11h31.07.718,retriever_ti,2020.1.3,Win32,60,Chrome,1920,1080,,,,,,,,,,,,,,,,,1,,,,,,,,,,,,,,,,,,,,,,,,,,,577.37741,63,right,1.2348,seaturtle     ,8,2,4,1,3,577.394345,577.394345,579.893965,0,62,62,62,1,63,4,8,clownfish     ,seaturtle     ,html/resources/sequences_IDs/A/04_clownfish.jpg,html/resources/sequences_IDs/A/02_seaturtle.jpg,4,2,2,1,2,1,3,1,0,2,,,,,,,,,,,,,,,,,,,,
,,,,,2,2020-07-01_11h31.07.718,retriever_ti,2020.1.3,Win32,60,Chrome,1920,1080,,,,,,,,,,,,,,,,,1,,,,,,,,,,,,,,,,,,,,,,,,,,,580.51122,64,right,0.947005,giraffe     ,7,3,6,1,3,580.527975,580.527975,583.02752,0,63,63,63,1,64,1,7,phone       ,giraffe     ,html/resources/sequences_IDs/B/09_phone.jpg,html/resources/sequences_IDs/B/03_giraffe.jpg,9,3,4,2,1,1,7,2,0,2,,,,,,,,,,,,,,,,,,,,
,,,,,2,2020-07-01_11h31.07.718,retriever_ti,2020.1.3,Win32,60,Chrome,1920,1080,,,,,,,,,,,,,,,,,1,,,,,,,,,,,,,,,,,,,,,,,,,,,583.644585,65,right,1.27493,giraffe     ,7,3,1,1,1,583.678275,583.678275,586.17783,0,64,64,64,1,65,6,7,dress         ,giraffe     ,html/resources/sequences_IDs/A/07_dress.jpg,html/resources/sequences_IDs/B/03_giraffe.jpg,7,3,3,2,1,1,5,2,0,2,,,,,,,,,,,,,,,,,,,,
,,,,,2,2020-07-01_11h31.07.718,retriever_ti,2020.1.3,Win32,60,Chrome,1920,1080,,,,,,,,,,,,,,,,,1,,,,,,,,,,,,,,,,,,,,,,,,,,,587.278595,66,left,1.13328,seaturtle     ,8,2,4,1,3,587.311985,587.311985,589.81141,0,65,65,65,1,66,8,4,seaturtle     ,clownfish     ,html/resources/sequences_IDs/A/02_seaturtle.jpg,html/resources/sequences_IDs/A/04_clownfish.jpg,2,4,2,1,2,1,1,3,0,2,,,,,,,,,,,,,,,,,,,,
,,,,,2,2020-07-01_11h31.07.718,retriever_ti,2020.1.3,Win32,60,Chrome,1920,1080,,,,,,,,,,,,,,,,,1,,,,,,,,,,,,,,,,,,,,,,,,,,,590.412185,67,left,1.44901,satellite_dish,2,10,-1,0,1,590.428705,590.428705,592.92836,0,66,66,66,1,67,2,3,satellite_dish,parrot      ,html/resources/sequences_IDs/A/10_satellite_dish.jpg,html/resources/sequences_IDs/B/05_parrot.jpg,10,5,4,2,2,1,8,4,1,2,,,,,,,,,,,,,,,,,,,,
,,,,,2,2020-07-01_11h31.07.718,retriever_ti,2020.1.3,Win32,60,Chrome,1920,1080,,,,,,,,,,,,,,,,,1,,,,,,,,,,,,,,,,,,,,,,,,,,,594.02874,68,right,1.011675,clownfish     ,4,4,3,1,3,594.045815,594.045815,596.545405,0,67,67,67,1,68,1,4,phone       ,clownfish     ,html/resources/sequences_IDs/B/09_phone.jpg,html/resources/sequences_IDs/A/04_clownfish.jpg,9,4,4,2,2,1,7,3,0,2,,,,,,,,,,,,,,,,,,,,
,,,,,2,2020-07-01_11h31.07.718,retriever_ti,2020.1.3,Win32,60,Chrome,1920,1080,,,,,,,,,,,,,,,,,1,,,,,,,,,,,,,,,,,,,,,,,,,,,597.162635,69,left,0.94562,clownfish     ,4,4,2,1,3,597.179445,597.179445,599.67894,0,68,68,68,1,69,4,2,clownfish     ,satellite_dish,html/resources/sequences_IDs/A/04_clownfish.jpg,html/resources/sequences_IDs/A/10_satellite_dish.jpg,4,10,2,1,4,2,3,8,0,2,,,,,,,,,,,,,,,,,,,,
,,,,,2,2020-07-01_11h31.07.718,retriever_ti,2020.1.3,Win32,60,Chrome,1920,1080,,,,,,,,,,,,,,,,,1,,,,,,,,,,,,,,,,,,,,,,,,,,,600.29613,70,right,0.66247,seaturtle     ,8,2,7,1,3,600.31299,600.31299,602.81264,0,69,69,69,1,70,1,8,phone       ,seaturtle     ,html/resources/sequences_IDs/B/09_phone.jpg,html/resources/sequences_IDs/A/02_seaturtle.jpg,9,2,4,2,2,1,7,1,0,2,,,,,,,,,,,,,,,,,,,,
,,,,,2,2020-07-01_11h31.07.718,retriever_ti,2020.1.3,Win32,60,Chrome,1920,1080,,,,,,,,,,,,,,,,,1,,,,,,,,,,,,,,,,,,,,,,,,,,,603.42943,71,left,0.72293,clownfish     ,4,4,3,1,3,603.46322,603.46322,605.962725,0,70,70,70,1,71,4,1,clownfish     ,phone       ,html/resources/sequences_IDs/A/04_clownfish.jpg,html/resources/sequences_IDs/B/09_phone.jpg,4,9,2,1,4,2,3,7,0,2,,,,,,,,,,,,,,,,,,,,
,,,,,2,2020-07-01_11h31.07.718,retriever_ti,2020.1.3,Win32,60,Chrome,1920,1080,,,,,,,,,,,,,,,,,1,,,,,,,,,,,,,,,,,,,,,,,,,,,606.58,72,left,1.354925,clownfish     ,4,4,1,1,1,606.596795,606.596795,609.096345,0,71,71,71,1,72,4,3,clownfish     ,parrot      ,html/resources/sequences_IDs/A/04_clownfish.jpg,html/resources/sequences_IDs/B/05_parrot.jpg,4,5,2,1,2,1,3,4,0,2,,,,,,,,,,,,,,,,,,,,
,,,,,2,2020-07-01_11h31.07.718,retriever_ti,2020.1.3,Win32,60,Chrome,1920,1080,,,,,,,,,,,,,,,,,1,,,,,,,,,,,,,,,,,,,,,,,,,,,610.196925,73,left,1.08275,satellite_dish,2,10,1,1,1,610.230345,610.230345,612.729935,0,72,72,72,1,73,2,1,satellite_dish,phone       ,html/resources/sequences_IDs/A/10_satellite_dish.jpg,html/resources/sequences_IDs/B/09_phone.jpg,10,9,4,2,4,2,8,7,0,2,,,,,,,,,,,,,,,,,,,,
,,,,,2,2020-07-01_11h31.07.718,retriever_ti,2020.1.3,Win32,60,Chrome,1920,1080,,,,,,,,,,,,,,,,,1,,,,,,,,,,,,,,,,,,,,,,,,,,,613.830445,74,right,1.41847,giraffe     ,7,3,-1,0,0,613.84751,613.84751,616.346935,0,73,73,73,1,74,8,7,seaturtle     ,giraffe     ,html/resources/sequences_IDs/A/02_seaturtle.jpg,html/resources/sequences_IDs/B/03_giraffe.jpg,2,3,2,1,1,1,1,2,0,2,,,,,,,,,,,,,,,,,,,,
,,,,,2,2020-07-01_11h31.07.718,retriever_ti,2020.1.3,Win32,60,Chrome,1920,1080,,,,,,,,,,,,,,,,,1,,,,,,,,,,,,,,,,,,,,,,,,,,,617.447675,75,right,1.684305,parrot      ,3,5,1,1,1,617.46429,617.46429,619.963855,0,74,74,74,1,75,2,3,satellite_dish,parrot      ,html/resources/sequences_IDs/A/10_satellite_dish.jpg,html/resources/sequences_IDs/B/05_parrot.jpg,10,5,4,2,2,1,8,4,0,2,,,,,,,,,,,,,,,,,,,,
,,,,,2,2020-07-01_11h31.07.718,retriever_ti,2020.1.3,Win32,60,Chrome,1920,1080,,,,,,,,,,,,,,,,,1,,,,,,,,,,,,,,,,,,,,,,,,,,,621.06458,76,left,1.279205,satellite_dish,2,10,1,1,0,621.08133,621.08133,623.58079,0,75,75,75,1,76,2,1,satellite_dish,phone       ,html/resources/sequences_IDs/A/10_satellite_dish.jpg,html/resources/sequences_IDs/B/09_phone.jpg,10,9,4,2,4,2,8,7,1,2,,,,,,,,,,,,,,,,,,,,
,,,,,2,2020-07-01_11h31.07.718,retriever_ti,2020.1.3,Win32,60,Chrome,1920,1080,,,,,,,,,,,,,,,,,1,,,,,,,,,,,,,,,,,,,,,,,,,,,624.681455,77,right,0.856375,seaturtle     ,8,2,6,1,3,624.69818,624.69818,627.19781,0,76,76,76,1,77,2,8,satellite_dish,seaturtle     ,html/resources/sequences_IDs/A/10_satellite_dish.jpg,html/resources/sequences_IDs/A/02_seaturtle.jpg,10,2,4,2,2,1,8,1,0,2,,,,,,,,,,,,,,,,,,,,
,,,,,2,2020-07-01_11h31.07.718,retriever_ti,2020.1.3,Win32,60,Chrome,1920,1080,,,,,,,,,,,,,,,,,,,,,,,,,,,,,,,,,,,,,0,6.772895,,,,,,,,,,,,,,,,,,,,,,,,,,,,,,,,,,,,,,,,,0,0,0,0,1,,,,,,,,,,,,,,,
,,,,,2,2020-07-01_11h31.07.718,retriever_ti,2020.1.3,Win32,60,Chrome,1920,1080,,,,,,,,,,,,,,,,,2,,,,,,,,,,,,,,,,,,,,,,,,,,,650.66919,78,left,1.14711,seaturtle     ,8,2,3,1,3,650.700915,650.700915,653.19989,0,0,0,0,1,78,8,5,seaturtle     ,slipper     ,html/resources/sequences_IDs/A/02_seaturtle.jpg,html/resources/sequences_IDs/B/08_slipper.jpg,2,8,2,1,3,2,1,6,0,2,,,,,,,,,,,,,,,,,,,,
,,,,,2,2020-07-01_11h31.07.718,retriever_ti,2020.1.3,Win32,60,Chrome,1920,1080,,,,,,,,,,,,,,,,,2,,,,,,,,,,,,,,,,,,,,,,,,,,,653.817215,79,right,0.74896,giraffe     ,7,3,1,1,1,653.85063,653.85063,656.3501,0,1,1,1,1,79,6,7,dress         ,giraffe     ,html/resources/sequences_IDs/A/07_dress.jpg,html/resources/sequences_IDs/B/03_giraffe.jpg,7,3,3,2,1,1,5,2,0,2,,,,,,,,,,,,,,,,,,,,
,,,,,2,2020-07-01_11h31.07.718,retriever_ti,2020.1.3,Win32,60,Chrome,1920,1080,,,,,,,,,,,,,,,,,2,,,,,,,,,,,,,,,,,,,,,,,,,,,657.45046,80,right,0.749785,clownfish     ,4,4,-1,0,1,657.467465,657.467465,659.96707,0,2,2,2,1,80,5,4,slipper     ,clownfish     ,html/resources/sequences_IDs/B/08_slipper.jpg,html/resources/sequences_IDs/A/04_clownfish.jpg,8,4,3,2,2,1,6,3,1,2,,,,,,,,,,,,,,,,,,,,
,,,,,2,2020-07-01_11h31.07.718,retriever_ti,2020.1.3,Win32,60,Chrome,1920,1080,,,,,,,,,,,,,,,,,2,,,,,,,,,,,,,,,,,,,,,,,,,,,661.067715,81,left,0.784985,seaturtle     ,8,2,7,1,3,661.084545,661.084545,663.584145,0,3,3,3,1,81,8,1,seaturtle     ,phone       ,html/resources/sequences_IDs/A/02_seaturtle.jpg,html/resources/sequences_IDs/B/09_phone.jpg,2,9,2,1,4,2,1,7,0,2,,,,,,,,,,,,,,,,,,,,
,,,,,2,2020-07-01_11h31.07.718,retriever_ti,2020.1.3,Win32,60,Chrome,1920,1080,,,,,,,,,,,,,,,,,2,,,,,,,,,,,,,,,,,,,,,,,,,,,664.20139,82,right,0.71588,dress         ,6,7,2,1,3,664.234785,664.234785,666.73434,0,4,4,4,1,82,4,6,clownfish     ,dress         ,html/resources/sequences_IDs/A/04_clownfish.jpg,html/resources/sequences_IDs/A/07_dress.jpg,4,7,2,1,3,2,3,5,0,2,,,,,,,,,,,,,,,,,,,,
,,,,,2,2020-07-01_11h31.07.718,retriever_ti,2020.1.3,Win32,60,Chrome,1920,1080,,,,,,,,,,,,,,,,,2,,,,,,,,,,,,,,,,,,,,,,,,,,,667.334735,83,left,1.2886,satellite_dish,2,10,1,1,0,667.36841,667.36841,669.86787,0,5,5,5,1,83,2,1,satellite_dish,phone       ,html/resources/sequences_IDs/A/10_satellite_dish.jpg,html/resources/sequences_IDs/B/09_phone.jpg,10,9,4,2,4,2,8,7,1,2,,,,,,,,,,,,,,,,,,,,
,,,,,2,2020-07-01_11h31.07.718,retriever_ti,2020.1.3,Win32,60,Chrome,1920,1080,,,,,,,,,,,,,,,,,2,,,,,,,,,,,,,,,,,,,,,,,,,,,670.968505,84,right,1.57821,dress         ,6,7,1,1,0,671.00196,671.00196,673.501535,0,6,6,6,1,84,5,6,slipper     ,dress         ,html/resources/sequences_IDs/B/08_slipper.jpg,html/resources/sequences_IDs/A/07_dress.jpg,8,7,3,2,3,2,6,5,1,2,,,,,,,,,,,,,,,,,,,,
,,,,,2,2020-07-01_11h31.07.718,retriever_ti,2020.1.3,Win32,60,Chrome,1920,1080,,,,,,,,,,,,,,,,,2,,,,,,,,,,,,,,,,,,,,,,,,,,,674.602245,85,right,1.38699,giraffe     ,7,3,1,1,0,674.63578,674.63578,677.135155,0,7,7,7,1,85,6,7,dress         ,giraffe     ,html/resources/sequences_IDs/A/07_dress.jpg,html/resources/sequences_IDs/B/03_giraffe.jpg,7,3,3,2,1,1,5,2,1,2,,,,,,,,,,,,,,,,,,,,
,,,,,2,2020-07-01_11h31.07.718,retriever_ti,2020.1.3,Win32,60,Chrome,1920,1080,,,,,,,,,,,,,,,,,2,,,,,,,,,,,,,,,,,,,,,,,,,,,678.235805,86,right,1.715635,giraffe     ,7,3,2,1,3,678.26921,678.26921,680.7688,0,8,8,8,1,86,5,7,slipper     ,giraffe     ,html/resources/sequences_IDs/B/08_slipper.jpg,html/resources/sequences_IDs/B/03_giraffe.jpg,8,3,3,2,1,1,6,2,0,2,,,,,,,,,,,,,,,,,,,,
,,,,,2,2020-07-01_11h31.07.718,retriever_ti,2020.1.3,Win32,60,Chrome,1920,1080,,,,,,,,,,,,,,,,,2,,,,,,,,,,,,,,,,,,,,,,,,,,,681.369245,87,left,1.921195,giraffe     ,7,3,1,1,1,681.38622,681.38622,683.885645,0,9,9,9,1,87,7,6,giraffe     ,dress         ,html/resources/sequences_IDs/B/03_giraffe.jpg,html/resources/sequences_IDs/A/07_dress.jpg,3,7,1,1,3,2,2,5,0,2,,,,,,,,,,,,,,,,,,,,
,,,,,2,2020-07-01_11h31.07.718,retriever_ti,2020.1.3,Win32,60,Chrome,1920,1080,,,,,,,,,,,,,,,,,2,,,,,,,,,,,,,,,,,,,,,,,,,,,684.986345,88,left,1.42543,slipper     ,5,8,4,1,3,685.019775,685.019775,687.51938,0,10,10,10,1,88,5,1,slipper     ,phone       ,html/resources/sequences_IDs/B/08_slipper.jpg,html/resources/sequences_IDs/B/09_phone.jpg,8,9,3,2,4,2,6,7,0,2,,,,,,,,,,,,,,,,,,,,
,,,,,2,2020-07-01_11h31.07.718,retriever_ti,2020.1.3,Win32,60,Chrome,1920,1080,,,,,,,,,,,,,,,,,2,,,,,,,,,,,,,,,,,,,,,,,,,,,688.136635,89,right,1.09466,slipper     ,5,8,2,1,3,688.15326,688.15326,690.652935,0,11,11,11,1,89,3,5,parrot      ,slipper     ,html/resources/sequences_IDs/B/05_parrot.jpg,html/resources/sequences_IDs/B/08_slipper.jpg,5,8,2,1,3,2,4,6,0,2,,,,,,,,,,,,,,,,,,,,
,,,,,2,2020-07-01_11h31.07.718,retriever_ti,2020.1.3,Win32,60,Chrome,1920,1080,,,,,,,,,,,,,,,,,2,,,,,,,,,,,,,,,,,,,,,,,,,,,691.26984,90,right,1.879235,seaturtle     ,8,2,3,1,3,691.3036,691.3036,693.80319,0,12,12,12,1,90,5,8,slipper     ,seaturtle     ,html/resources/sequences_IDs/B/08_slipper.jpg,html/resources/sequences_IDs/A/02_seaturtle.jpg,8,2,3,2,2,1,6,1,0,2,,,,,,,,,,,,,,,,,,,,
,,,,,2,2020-07-01_11h31.07.718,retriever_ti,2020.1.3,Win32,60,Chrome,1920,1080,,,,,,,,,,,,,,,,,2,,,,,,,,,,,,,,,,,,,,,,,,,,,694.420425,91,left,1.75137,giraffe     ,7,3,-1,0,0,694.437225,694.437225,696.936705,0,13,13,13,1,91,7,8,giraffe     ,seaturtle     ,html/resources/sequences_IDs/B/03_giraffe.jpg,html/resources/sequences_IDs/A/02_seaturtle.jpg,3,2,1,1,2,1,2,1,0,2,,,,,,,,,,,,,,,,,,,,
,,,,,2,2020-07-01_11h31.07.718,retriever_ti,2020.1.3,Win32,60,Chrome,1920,1080,,,,,,,,,,,,,,,,,2,,,,,,,,,,,,,,,,,,,,,,,,,,,698.03745,92,right,0.98979,satellite_dish,2,10,1,1,1,698.054255,698.054255,700.55366,0,14,14,14,1,92,1,2,phone       ,satellite_dish,html/resources/sequences_IDs/B/09_phone.jpg,html/resources/sequences_IDs/A/10_satellite_dish.jpg,9,10,4,2,4,2,7,8,0,2,,,,,,,,,,,,,,,,,,,,
,,,,,2,2020-07-01_11h31.07.718,retriever_ti,2020.1.3,Win32,60,Chrome,1920,1080,,,,,,,,,,,,,,,,,2,,,,,,,,,,,,,,,,,,,,,,,,,,,701.65411,93,right,1.68753,parrot      ,3,5,1,1,1,701.671175,701.671175,704.170665,0,15,15,15,1,93,2,3,satellite_dish,parrot      ,html/resources/sequences_IDs/A/10_satellite_dish.jpg,html/resources/sequences_IDs/B/05_parrot.jpg,10,5,4,2,2,1,8,4,0,2,,,,,,,,,,,,,,,,,,,,
,,,,,2,2020-07-01_11h31.07.718,retriever_ti,2020.1.3,Win32,60,Chrome,1920,1080,,,,,,,,,,,,,,,,,2,,,,,,,,,,,,,,,,,,,,,,,,,,,705.271995,94,left,0.722385,parrot      ,3,5,1,1,1,705.288275,705.288275,707.787575,0,16,16,16,1,94,3,2,parrot      ,satellite_dish,html/resources/sequences_IDs/B/05_parrot.jpg,html/resources/sequences_IDs/A/10_satellite_dish.jpg,5,10,2,1,4,2,4,8,0,2,,,,,,,,,,,,,,,,,,,,
,,,,,2,2020-07-01_11h31.07.718,retriever_ti,2020.1.3,Win32,60,Chrome,1920,1080,,,,,,,,,,,,,,,,,2,,,,,,,,,,,,,,,,,,,,,,,,,,,708.888275,95,left,1.42871,dress         ,6,7,4,1,3,708.921715,708.921715,711.4213,0,17,17,17,1,95,6,2,dress         ,satellite_dish,html/resources/sequences_IDs/A/07_dress.jpg,html/resources/sequences_IDs/A/10_satellite_dish.jpg,7,10,3,2,4,2,5,8,0,2,,,,,,,,,,,,,,,,,,,,
,,,,,2,2020-07-01_11h31.07.718,retriever_ti,2020.1.3,Win32,60,Chrome,1920,1080,,,,,,,,,,,,,,,,,2,,,,,,,,,,,,,,,,,,,,,,,,,,,712.03855,96,right,1.350785,seaturtle     ,8,2,4,1,3,712.055315,712.055315,714.554855,0,18,18,18,1,96,4,8,clownfish     ,seaturtle     ,html/resources/sequences_IDs/A/04_clownfish.jpg,html/resources/sequences_IDs/A/02_seaturtle.jpg,4,2,2,1,2,1,3,1,0,2,,,,,,,,,,,,,,,,,,,,
,,,,,2,2020-07-01_11h31.07.718,retriever_ti,2020.1.3,Win32,60,Chrome,1920,1080,,,,,,,,,,,,,,,,,2,,,,,,,,,,,,,,,,,,,,,,,,,,,715.17172,97,right,2.13601,dress         ,6,7,5,1,3,715.20554,715.20554,717.705165,0,19,19,19,1,97,1,6,phone       ,dress         ,html/resources/sequences_IDs/B/09_phone.jpg,html/resources/sequences_IDs/A/07_dress.jpg,9,7,4,2,3,2,7,5,0,2,,,,,,,,,,,,,,,,,,,,
,,,,,2,2020-07-01_11h31.07.718,retriever_ti,2020.1.3,Win32,60,Chrome,1920,1080,,,,,,,,,,,,,,,,,2,,,,,,,,,,,,,,,,,,,,,,,,,,,718.322415,98,left,0.75326,seaturtle     ,8,2,6,1,3,718.339185,718.339185,720.8387,0,20,20,20,1,98,8,2,seaturtle     ,satellite_dish,html/resources/sequences_IDs/A/02_seaturtle.jpg,html/resources/sequences_IDs/A/10_satellite_dish.jpg,2,10,2,1,4,2,1,8,0,2,,,,,,,,,,,,,,,,,,,,
,,,,,2,2020-07-01_11h31.07.718,retriever_ti,2020.1.3,Win32,60,Chrome,1920,1080,,,,,,,,,,,,,,,,,2,,,,,,,,,,,,,,,,,,,,,,,,,,,721.45564,99,left,0.99165,satellite_dish,2,10,-4,0,3,721.47263,721.47263,724.005695,0,21,21,21,1,99,2,6,satellite_dish,dress         ,html/resources/sequences_IDs/A/10_satellite_dish.jpg,html/resources/sequences_IDs/A/07_dress.jpg,10,7,4,2,3,2,8,5,0,2,,,,,,,,,,,,,,,,,,,,
,,,,,2,2020-07-01_11h31.07.718,retriever_ti,2020.1.3,Win32,60,Chrome,1920,1080,,,,,,,,,,,,,,,,,2,,,,,,,,,,,,,,,,,,,,,,,,,,,724.622995,100,right,1.249615,dress         ,6,7,-1,0,0,724.65628,724.65628,727.155815,0,22,22,22,1,100,7,6,giraffe     ,dress         ,html/resources/sequences_IDs/B/03_giraffe.jpg,html/resources/sequences_IDs/A/07_dress.jpg,3,7,1,1,3,2,2,5,0,2,,,,,,,,,,,,,,,,,,,,
,,,,,2,2020-07-01_11h31.07.718,retriever_ti,2020.1.3,Win32,60,Chrome,1920,1080,,,,,,,,,,,,,,,,,2,,,,,,,,,,,,,,,,,,,,,,,,,,,728.25643,101,right,1.41759,seaturtle     ,8,2,6,1,3,728.27331,728.27331,730.77275,0,23,23,23,1,101,2,8,satellite_dish,seaturtle     ,html/resources/sequences_IDs/A/10_satellite_dish.jpg,html/resources/sequences_IDs/A/02_seaturtle.jpg,10,2,4,2,2,1,8,1,0,2,,,,,,,,,,,,,,,,,,,,
,,,,,2,2020-07-01_11h31.07.718,retriever_ti,2020.1.3,Win32,60,Chrome,1920,1080,,,,,,,,,,,,,,,,,2,,,,,,,,,,,,,,,,,,,,,,,,,,,731.389765,102,right,0.953255,giraffe     ,7,3,4,1,3,731.4068,731.4068,733.906455,0,24,24,24,1,102,3,7,parrot      ,giraffe     ,html/resources/sequences_IDs/B/05_parrot.jpg,html/resources/sequences_IDs/B/03_giraffe.jpg,5,3,2,1,1,1,4,2,0,2,,,,,,,,,,,,,,,,,,,,
,,,,,2,2020-07-01_11h31.07.718,retriever_ti,2020.1.3,Win32,60,Chrome,1920,1080,,,,,,,,,,,,,,,,,2,,,,,,,,,,,,,,,,,,,,,,,,,,,734.523735,103,right,1.831075,parrot      ,3,5,1,1,1,734.540425,734.540425,737.0399,0,25,25,25,1,103,2,3,satellite_dish,parrot      ,html/resources/sequences_IDs/A/10_satellite_dish.jpg,html/resources/sequences_IDs/B/05_parrot.jpg,10,5,4,2,2,1,8,4,0,2,,,,,,,,,,,,,,,,,,,,
,,,,,2,2020-07-01_11h31.07.718,retriever_ti,2020.1.3,Win32,60,Chrome,1920,1080,,,,,,,,,,,,,,,,,2,,,,,,,,,,,,,,,,,,,,,,,,,,,738.14065,104,right,0.613915,parrot      ,3,5,-2,0,3,738.157405,738.157405,740.657025,0,26,26,26,1,104,5,3,slipper     ,parrot      ,html/resources/sequences_IDs/B/08_slipper.jpg,html/resources/sequences_IDs/B/05_parrot.jpg,8,5,3,2,2,1,6,4,0,2,,,,,,,,,,,,,,,,,,,,
,,,,,2,2020-07-01_11h31.07.718,retriever_ti,2020.1.3,Win32,60,Chrome,1920,1080,,,,,,,,,,,,,,,,,2,,,,,,,,,,,,,,,,,,,,,,,,,,,741.273835,105,right,0.966285,parrot      ,3,5,-4,0,3,741.29095,741.29095,743.790555,0,27,27,27,1,105,7,3,giraffe     ,parrot      ,html/resources/sequences_IDs/B/03_giraffe.jpg,html/resources/sequences_IDs/B/05_parrot.jpg,3,5,1,1,2,1,2,4,0,2,,,,,,,,,,,,,,,,,,,,
,,,,,2,2020-07-01_11h31.07.718,retriever_ti,2020.1.3,Win32,60,Chrome,1920,1080,,,,,,,,,,,,,,,,,2,,,,,,,,,,,,,,,,,,,,,,,,,,,744.40778,106,left,1.637555,satellite_dish,2,10,-3,0,3,744.42442,744.42442,746.924035,0,28,28,28,1,106,2,5,satellite_dish,slipper     ,html/resources/sequences_IDs/A/10_satellite_dish.jpg,html/resources/sequences_IDs/B/08_slipper.jpg,10,8,4,2,3,2,8,6,0,2,,,,,,,,,,,,,,,,,,,,
,,,,,2,2020-07-01_11h31.07.718,retriever_ti,2020.1.3,Win32,60,Chrome,1920,1080,,,,,,,,,,,,,,,,,2,,,,,,,,,,,,,,,,,,,,,,,,,,,747.524395,107,right,0.868295,satellite_dish,2,10,-5,0,3,747.541435,747.541435,750.04104,0,29,29,29,1,107,7,2,giraffe     ,satellite_dish,html/resources/sequences_IDs/B/03_giraffe.jpg,html/resources/sequences_IDs/A/10_satellite_dish.jpg,3,10,1,1,4,2,2,8,0,2,,,,,,,,,,,,,,,,,,,,
,,,,,2,2020-07-01_11h31.07.718,retriever_ti,2020.1.3,Win32,60,Chrome,1920,1080,,,,,,,,,,,,,,,,,2,,,,,,,,,,,,,,,,,,,,,,,,,,,750.65829,108,right,1.58218,slipper     ,5,8,-1,0,0,750.691805,750.691805,753.19123,0,30,30,30,1,108,6,5,dress         ,slipper     ,html/resources/sequences_IDs/A/07_dress.jpg,html/resources/sequences_IDs/B/08_slipper.jpg,7,8,3,2,3,2,5,6,0,2,,,,,,,,,,,,,,,,,,,,
,,,,,2,2020-07-01_11h31.07.718,retriever_ti,2020.1.3,Win32,60,Chrome,1920,1080,,,,,,,,,,,,,,,,,2,,,,,,,,,,,,,,,,,,,,,,,,,,,754.291895,109,left,1.280535,clownfish     ,4,4,2,1,3,754.308725,754.308725,756.80817,0,31,31,31,1,109,4,2,clownfish     ,satellite_dish,html/resources/sequences_IDs/A/04_clownfish.jpg,html/resources/sequences_IDs/A/10_satellite_dish.jpg,4,10,2,1,4,2,3,8,0,2,,,,,,,,,,,,,,,,,,,,
,,,,,2,2020-07-01_11h31.07.718,retriever_ti,2020.1.3,Win32,60,Chrome,1920,1080,,,,,,,,,,,,,,,,,2,,,,,,,,,,,,,,,,,,,,,,,,,,,757.425165,110,right,2.18752,satellite_dish,2,10,1,1,1,757.44229,757.44229,759.94174,0,32,32,32,1,110,1,2,phone       ,satellite_dish,html/resources/sequences_IDs/B/09_phone.jpg,html/resources/sequences_IDs/A/10_satellite_dish.jpg,9,10,4,2,4,2,7,8,0,2,,,,,,,,,,,,,,,,,,,,
,,,,,2,2020-07-01_11h31.07.718,retriever_ti,2020.1.3,Win32,60,Chrome,1920,1080,,,,,,,,,,,,,,,,,2,,,,,,,,,,,,,,,,,,,,,,,,,,,761.042395,111,left,0.743945,satellite_dish,2,10,1,1,1,761.075915,761.075915,763.57543,0,33,33,33,1,111,2,1,satellite_dish,phone       ,html/resources/sequences_IDs/A/10_satellite_dish.jpg,html/resources/sequences_IDs/B/09_phone.jpg,10,9,4,2,4,2,8,7,0,2,,,,,,,,,,,,,,,,,,,,
,,,,,2,2020-07-01_11h31.07.718,retriever_ti,2020.1.3,Win32,60,Chrome,1920,1080,,,,,,,,,,,,,,,,,2,,,,,,,,,,,,,,,,,,,,,,,,,,,764.6761,112,left,1.32616,dress         ,6,7,1,1,1,764.709465,764.709465,767.20912,0,34,34,34,1,112,6,5,dress         ,slipper     ,html/resources/sequences_IDs/A/07_dress.jpg,html/resources/sequences_IDs/B/08_slipper.jpg,7,8,3,2,3,2,5,6,0,2,,,,,,,,,,,,,,,,,,,,
,,,,,2,2020-07-01_11h31.07.718,retriever_ti,2020.1.3,Win32,60,Chrome,1920,1080,,,,,,,,,,,,,,,,,2,,,,,,,,,,,,,,,,,,,,,,,,,,,768.309695,113,right,1.29322,clownfish     ,4,4,3,1,3,768.32651,768.32651,770.825965,0,35,35,35,1,113,1,4,phone       ,clownfish     ,html/resources/sequences_IDs/B/09_phone.jpg,html/resources/sequences_IDs/A/04_clownfish.jpg,9,4,4,2,2,1,7,3,0,2,,,,,,,,,,,,,,,,,,,,
,,,,,2,2020-07-01_11h31.07.718,retriever_ti,2020.1.3,Win32,60,Chrome,1920,1080,,,,,,,,,,,,,,,,,2,,,,,,,,,,,,,,,,,,,,,,,,,,,771.426445,114,right,1.563185,parrot      ,3,5,1,1,0,771.44337,771.44337,773.942955,0,36,36,36,1,114,2,3,satellite_dish,parrot      ,html/resources/sequences_IDs/A/10_satellite_dish.jpg,html/resources/sequences_IDs/B/05_parrot.jpg,10,5,4,2,2,1,8,4,1,2,,,,,,,,,,,,,,,,,,,,
,,,,,2,2020-07-01_11h31.07.718,retriever_ti,2020.1.3,Win32,60,Chrome,1920,1080,,,,,,,,,,,,,,,,,2,,,,,,,,,,,,,,,,,,,,,,,,,,,775.04362,115,left,1.77771,giraffe     ,7,3,2,1,3,775.06032,775.06032,777.559865,0,37,37,37,1,115,7,5,giraffe     ,slipper     ,html/resources/sequences_IDs/B/03_giraffe.jpg,html/resources/sequences_IDs/B/08_slipper.jpg,3,8,1,1,3,2,2,6,0,2,,,,,,,,,,,,,,,,,,,,
,,,,,2,2020-07-01_11h31.07.718,retriever_ti,2020.1.3,Win32,60,Chrome,1920,1080,,,,,,,,,,,,,,,,,2,,,,,,,,,,,,,,,,,,,,,,,,,,,778.17715,116,right,1.3072,giraffe     ,7,3,6,1,3,778.193905,778.193905,780.69351,0,38,38,38,1,116,1,7,phone       ,giraffe     ,html/resources/sequences_IDs/B/09_phone.jpg,html/resources/sequences_IDs/B/03_giraffe.jpg,9,3,4,2,1,1,7,2,0,2,,,,,,,,,,,,,,,,,,,,
,,,,,2,2020-07-01_11h31.07.718,retriever_ti,2020.1.3,Win32,60,Chrome,1920,1080,,,,,,,,,,,,,,,,,2,,,,,,,,,,,,,,,,,,,,,,,,,,,781.310465,117,right,1.905905,clownfish     ,4,4,1,1,1,781.34526,781.34526,783.843755,0,39,39,39,1,117,3,4,parrot      ,clownfish     ,html/resources/sequences_IDs/B/05_parrot.jpg,html/resources/sequences_IDs/A/04_clownfish.jpg,5,4,2,1,2,1,4,3,0,2,,,,,,,,,,,,,,,,,,,,
,,,,,2,2020-07-01_11h31.07.718,retriever_ti,2020.1.3,Win32,60,Chrome,1920,1080,,,,,,,,,,,,,,,,,2,,,,,,,,,,,,,,,,,,,,,,,,,,,784.94444,118,left,1.44661,parrot      ,3,5,2,1,3,784.977935,784.977935,787.47731,0,40,40,40,1,118,3,1,parrot      ,phone       ,html/resources/sequences_IDs/B/05_parrot.jpg,html/resources/sequences_IDs/B/09_phone.jpg,5,9,2,1,4,2,4,7,0,2,,,,,,,,,,,,,,,,,,,,
,,,,,2,2020-07-01_11h31.07.718,retriever_ti,2020.1.3,Win32,60,Chrome,1920,1080,,,,,,,,,,,,,,,,,2,,,,,,,,,,,,,,,,,,,,,,,,,,,788.078035,119,right,1.202755,seaturtle     ,8,2,1,1,1,788.11145,788.11145,790.61097,0,41,41,41,1,119,7,8,giraffe     ,seaturtle     ,html/resources/sequences_IDs/B/03_giraffe.jpg,html/resources/sequences_IDs/A/02_seaturtle.jpg,3,2,1,1,2,1,2,1,0,2,,,,,,,,,,,,,,,,,,,,
,,,,,2,2020-07-01_11h31.07.718,retriever_ti,2020.1.3,Win32,60,Chrome,1920,1080,,,,,,,,,,,,,,,,,2,,,,,,,,,,,,,,,,,,,,,,,,,,,791.71122,120,right,1.302505,slipper     ,5,8,4,1,3,791.745035,791.745035,794.244655,0,42,42,42,1,120,1,5,phone       ,slipper     ,html/resources/sequences_IDs/B/09_phone.jpg,html/resources/sequences_IDs/B/08_slipper.jpg,9,8,4,2,3,2,7,6,0,2,,,,,,,,,,,,,,,,,,,,
,,,,,2,2020-07-01_11h31.07.718,retriever_ti,2020.1.3,Win32,60,Chrome,1920,1080,,,,,,,,,,,,,,,,,2,,,,,,,,,,,,,,,,,,,,,,,,,,,794.845615,121,right,2.0676,seaturtle     ,8,2,5,1,3,794.86213,794.86213,797.36147,0,43,43,43,1,121,3,8,parrot      ,seaturtle     ,html/resources/sequences_IDs/B/05_parrot.jpg,html/resources/sequences_IDs/A/02_seaturtle.jpg,5,2,2,1,2,1,4,1,0,2,,,,,,,,,,,,,,,,,,,,
,,,,,2,2020-07-01_11h31.07.718,retriever_ti,2020.1.3,Win32,60,Chrome,1920,1080,,,,,,,,,,,,,,,,,2,,,,,,,,,,,,,,,,,,,,,,,,,,,797.97872,122,NaN,NaN,No_response,NaN,NaN,NaN,2,2,797.995525,797.995525,800.495155,0,44,44,44,1,122,4,7,clownfish     ,giraffe     ,html/resources/sequences_IDs/A/04_clownfish.jpg,html/resources/sequences_IDs/B/03_giraffe.jpg,4,3,2,1,1,1,3,2,0,2,,,,,,,,,,,,,,,,,,,,
,,,,,2,2020-07-01_11h31.07.718,retriever_ti,2020.1.3,Win32,60,Chrome,1920,1080,,,,,,,,,,,,,,,,,2,,,,,,,,,,,,,,,,,,,,,,,,,,,801.595435,123,left,1.093705,giraffe     ,7,3,6,1,3,801.61251,801.61251,804.11203,0,45,45,45,1,123,7,1,giraffe     ,phone       ,html/resources/sequences_IDs/B/03_giraffe.jpg,html/resources/sequences_IDs/B/09_phone.jpg,3,9,1,1,4,2,2,7,0,2,,,,,,,,,,,,,,,,,,,,
,,,,,2,2020-07-01_11h31.07.718,retriever_ti,2020.1.3,Win32,60,Chrome,1920,1080,,,,,,,,,,,,,,,,,2,,,,,,,,,,,,,,,,,,,,,,,,,,,804.72926,124,right,1.02468,satellite_dish,2,10,-1,0,0,804.74603,804.74603,807.245595,0,46,46,46,1,124,3,2,parrot      ,satellite_dish,html/resources/sequences_IDs/B/05_parrot.jpg,html/resources/sequences_IDs/A/10_satellite_dish.jpg,5,10,2,1,4,2,4,8,0,2,,,,,,,,,,,,,,,,,,,,
,,,,,2,2020-07-01_11h31.07.718,retriever_ti,2020.1.3,Win32,60,Chrome,1920,1080,,,,,,,,,,,,,,,,,2,,,,,,,,,,,,,,,,,,,,,,,,,,,808.34627,125,right,1.25006,clownfish     ,4,4,1,1,1,808.37972,808.37972,810.879235,0,47,47,47,1,125,3,4,parrot      ,clownfish     ,html/resources/sequences_IDs/B/05_parrot.jpg,html/resources/sequences_IDs/A/04_clownfish.jpg,5,4,2,1,2,1,4,3,0,2,,,,,,,,,,,,,,,,,,,,
,,,,,2,2020-07-01_11h31.07.718,retriever_ti,2020.1.3,Win32,60,Chrome,1920,1080,,,,,,,,,,,,,,,,,2,,,,,,,,,,,,,,,,,,,,,,,,,,,811.97992,126,right,0.757685,clownfish     ,4,4,1,1,0,811.996575,811.996575,814.49616,0,48,48,48,1,126,3,4,parrot      ,clownfish     ,html/resources/sequences_IDs/B/05_parrot.jpg,html/resources/sequences_IDs/A/04_clownfish.jpg,5,4,2,1,2,1,4,3,1,2,,,,,,,,,,,,,,,,,,,,
,,,,,2,2020-07-01_11h31.07.718,retriever_ti,2020.1.3,Win32,60,Chrome,1920,1080,,,,,,,,,,,,,,,,,2,,,,,,,,,,,,,,,,,,,,,,,,,,,815.596535,127,right,1.7817,slipper     ,5,8,1,1,1,815.630425,815.630425,818.129875,0,49,49,49,1,127,4,5,clownfish     ,slipper     ,html/resources/sequences_IDs/A/04_clownfish.jpg,html/resources/sequences_IDs/B/08_slipper.jpg,4,8,2,1,3,2,3,6,0,2,,,,,,,,,,,,,,,,,,,,
,,,,,2,2020-07-01_11h31.07.718,retriever_ti,2020.1.3,Win32,60,Chrome,1920,1080,,,,,,,,,,,,,,,,,2,,,,,,,,,,,,,,,,,,,,,,,,,,,819.230505,128,left,1.49062,seaturtle     ,8,2,1,1,1,819.26392,819.26392,821.76345,0,50,50,50,1,128,8,7,seaturtle     ,giraffe     ,html/resources/sequences_IDs/A/02_seaturtle.jpg,html/resources/sequences_IDs/B/03_giraffe.jpg,2,3,2,1,1,1,1,2,0,2,,,,,,,,,,,,,,,,,,,,
,,,,,2,2020-07-01_11h31.07.718,retriever_ti,2020.1.3,Win32,60,Chrome,1920,1080,,,,,,,,,,,,,,,,,2,,,,,,,,,,,,,,,,,,,,,,,,,,,822.864115,129,right,0.65824,seaturtle     ,8,2,1,1,0,822.897525,822.897525,825.397065,0,51,51,51,1,129,7,8,giraffe     ,seaturtle     ,html/resources/sequences_IDs/B/03_giraffe.jpg,html/resources/sequences_IDs/A/02_seaturtle.jpg,3,2,1,1,2,1,2,1,1,2,,,,,,,,,,,,,,,,,,,,
,,,,,2,2020-07-01_11h31.07.718,retriever_ti,2020.1.3,Win32,60,Chrome,1920,1080,,,,,,,,,,,,,,,,,2,,,,,,,,,,,,,,,,,,,,,,,,,,,826.497735,130,left,1.46793,clownfish     ,4,4,-1,0,0,826.51452,826.51452,829.014055,0,52,52,52,1,130,4,5,clownfish     ,slipper     ,html/resources/sequences_IDs/A/04_clownfish.jpg,html/resources/sequences_IDs/B/08_slipper.jpg,4,8,2,1,3,2,3,6,0,2,,,,,,,,,,,,,,,,,,,,
,,,,,2,2020-07-01_11h31.07.718,retriever_ti,2020.1.3,Win32,60,Chrome,1920,1080,,,,,,,,,,,,,,,,,2,,,,,,,,,,,,,,,,,,,,,,,,,,,830.11464,131,left,1.30747,dress         ,6,7,-1,0,0,830.14813,830.14813,832.64769,0,53,53,53,1,131,6,7,dress         ,giraffe     ,html/resources/sequences_IDs/A/07_dress.jpg,html/resources/sequences_IDs/B/03_giraffe.jpg,7,3,3,2,1,1,5,2,0,2,,,,,,,,,,,,,,,,,,,,
,,,,,2,2020-07-01_11h31.07.718,retriever_ti,2020.1.3,Win32,60,Chrome,1920,1080,,,,,,,,,,,,,,,,,2,,,,,,,,,,,,,,,,,,,,,,,,,,,833.74801,132,right,0.89788,satellite_dish,2,10,-3,0,3,833.781775,833.781775,836.28132,0,54,54,54,1,132,5,2,slipper     ,satellite_dish,html/resources/sequences_IDs/B/08_slipper.jpg,html/resources/sequences_IDs/A/10_satellite_dish.jpg,8,10,3,2,4,2,6,8,0,2,,,,,,,,,,,,,,,,,,,,
,,,,,2,2020-07-01_11h31.07.718,retriever_ti,2020.1.3,Win32,60,Chrome,1920,1080,,,,,,,,,,,,,,,,,2,,,,,,,,,,,,,,,,,,,,,,,,,,,836.898545,133,right,0.80454,giraffe     ,7,3,-1,0,0,836.93199,836.93199,839.43157,0,55,55,55,1,133,8,7,seaturtle     ,giraffe     ,html/resources/sequences_IDs/A/02_seaturtle.jpg,html/resources/sequences_IDs/B/03_giraffe.jpg,2,3,2,1,1,1,1,2,0,2,,,,,,,,,,,,,,,,,,,,
,,,,,2,2020-07-01_11h31.07.718,retriever_ti,2020.1.3,Win32,60,Chrome,1920,1080,,,,,,,,,,,,,,,,,2,,,,,,,,,,,,,,,,,,,,,,,,,,,840.53226,134,left,1.250325,seaturtle     ,8,2,2,1,3,840.56569,840.56569,843.065175,0,56,56,56,1,134,8,6,seaturtle     ,dress         ,html/resources/sequences_IDs/A/02_seaturtle.jpg,html/resources/sequences_IDs/A/07_dress.jpg,2,7,2,1,3,2,1,5,0,2,,,,,,,,,,,,,,,,,,,,
,,,,,2,2020-07-01_11h31.07.718,retriever_ti,2020.1.3,Win32,60,Chrome,1920,1080,,,,,,,,,,,,,,,,,2,,,,,,,,,,,,,,,,,,,,,,,,,,,843.682135,135,left,1.741775,dress         ,6,7,3,1,3,843.699265,843.699265,846.198725,0,57,57,57,1,135,6,3,dress         ,parrot      ,html/resources/sequences_IDs/A/07_dress.jpg,html/resources/sequences_IDs/B/05_parrot.jpg,7,5,3,2,2,1,5,4,0,2,,,,,,,,,,,,,,,,,,,,
,,,,,2,2020-07-01_11h31.07.718,retriever_ti,2020.1.3,Win32,60,Chrome,1920,1080,,,,,,,,,,,,,,,,,2,,,,,,,,,,,,,,,,,,,,,,,,,,,846.799405,136,right,1.19766,dress         ,6,7,1,1,1,846.83276,846.83276,849.33231,0,58,58,58,1,136,5,6,slipper     ,dress         ,html/resources/sequences_IDs/B/08_slipper.jpg,html/resources/sequences_IDs/A/07_dress.jpg,8,7,3,2,3,2,6,5,0,2,,,,,,,,,,,,,,,,,,,,
,,,,,2,2020-07-01_11h31.07.718,retriever_ti,2020.1.3,Win32,60,Chrome,1920,1080,,,,,,,,,,,,,,,,,2,,,,,,,,,,,,,,,,,,,,,,,,,,,850.432935,137,right,0.81493,seaturtle     ,8,2,7,1,3,850.449715,850.449715,852.9494,0,59,59,59,1,137,1,8,phone       ,seaturtle     ,html/resources/sequences_IDs/B/09_phone.jpg,html/resources/sequences_IDs/A/02_seaturtle.jpg,9,2,4,2,2,1,7,1,0,2,,,,,,,,,,,,,,,,,,,,
,,,,,2,2020-07-01_11h31.07.718,retriever_ti,2020.1.3,Win32,60,Chrome,1920,1080,,,,,,,,,,,,,,,,,2,,,,,,,,,,,,,,,,,,,,,,,,,,,853.56628,138,right,0.93761,clownfish     ,4,4,-4,0,3,853.60007,853.60007,856.09955,0,60,60,60,1,138,8,4,seaturtle     ,clownfish     ,html/resources/sequences_IDs/A/02_seaturtle.jpg,html/resources/sequences_IDs/A/04_clownfish.jpg,2,4,2,1,2,1,1,3,0,2,,,,,,,,,,,,,,,,,,,,
,,,,,2,2020-07-01_11h31.07.718,retriever_ti,2020.1.3,Win32,60,Chrome,1920,1080,,,,,,,,,,,,,,,,,2,,,,,,,,,,,,,,,,,,,,,,,,,,,856.71682,139,right,1.52328,dress         ,6,7,1,1,1,856.733595,856.733595,859.23325,0,61,61,61,1,139,5,6,slipper     ,dress         ,html/resources/sequences_IDs/B/08_slipper.jpg,html/resources/sequences_IDs/A/07_dress.jpg,8,7,3,2,3,2,6,5,0,2,,,,,,,,,,,,,,,,,,,,
,,,,,2,2020-07-01_11h31.07.718,retriever_ti,2020.1.3,Win32,60,Chrome,1920,1080,,,,,,,,,,,,,,,,,2,,,,,,,,,,,,,,,,,,,,,,,,,,,860.33377,140,right,1.46322,parrot      ,3,5,-1,0,0,860.367185,860.367185,862.86675,0,62,62,62,1,140,4,3,clownfish     ,parrot      ,html/resources/sequences_IDs/A/04_clownfish.jpg,html/resources/sequences_IDs/B/05_parrot.jpg,4,5,2,1,2,1,3,4,0,2,,,,,,,,,,,,,,,,,,,,
,,,,,2,2020-07-01_11h31.07.718,retriever_ti,2020.1.3,Win32,60,Chrome,1920,1080,,,,,,,,,,,,,,,,,2,,,,,,,,,,,,,,,,,,,,,,,,,,,863.96745,141,right,0.54637,seaturtle     ,8,2,2,1,3,864.00092,864.00092,866.500345,0,63,63,63,1,141,6,8,dress         ,seaturtle     ,html/resources/sequences_IDs/A/07_dress.jpg,html/resources/sequences_IDs/A/02_seaturtle.jpg,7,2,3,2,2,1,5,1,0,2,,,,,,,,,,,,,,,,,,,,
,,,,,2,2020-07-01_11h31.07.718,retriever_ti,2020.1.3,Win32,60,Chrome,1920,1080,,,,,,,,,,,,,,,,,2,,,,,,,,,,,,,,,,,,,,,,,,,,,867.10072,142,left,1.085095,dress         ,6,7,5,1,3,867.1344,867.1344,869.634095,0,64,64,64,1,142,6,1,dress         ,phone       ,html/resources/sequences_IDs/A/07_dress.jpg,html/resources/sequences_IDs/B/09_phone.jpg,7,9,3,2,4,2,5,7,0,2,,,,,,,,,,,,,,,,,,,,
,,,,,2,2020-07-01_11h31.07.718,retriever_ti,2020.1.3,Win32,60,Chrome,1920,1080,,,,,,,,,,,,,,,,,2,,,,,,,,,,,,,,,,,,,,,,,,,,,870.25127,143,right,0.82325,parrot      ,3,5,2,1,3,870.284655,870.284655,872.784175,0,65,65,65,1,143,1,3,phone       ,parrot      ,html/resources/sequences_IDs/B/09_phone.jpg,html/resources/sequences_IDs/B/05_parrot.jpg,9,5,4,2,2,1,7,4,0,2,,,,,,,,,,,,,,,,,,,,
,,,,,2,2020-07-01_11h31.07.718,retriever_ti,2020.1.3,Win32,60,Chrome,1920,1080,,,,,,,,,,,,,,,,,2,,,,,,,,,,,,,,,,,,,,,,,,,,,873.40118,144,left,0.899025,satellite_dish,2,10,1,1,1,873.41826,873.41826,875.917775,0,66,66,66,1,144,2,1,satellite_dish,phone       ,html/resources/sequences_IDs/A/10_satellite_dish.jpg,html/resources/sequences_IDs/B/09_phone.jpg,10,9,4,2,4,2,8,7,0,2,,,,,,,,,,,,,,,,,,,,
,,,,,2,2020-07-01_11h31.07.718,retriever_ti,2020.1.3,Win32,60,Chrome,1920,1080,,,,,,,,,,,,,,,,,2,,,,,,,,,,,,,,,,,,,,,,,,,,,877.01846,145,right,0.695695,clownfish     ,4,4,-1,0,0,877.0519,877.0519,879.551435,0,67,67,67,1,145,5,4,slipper     ,clownfish     ,html/resources/sequences_IDs/B/08_slipper.jpg,html/resources/sequences_IDs/A/04_clownfish.jpg,8,4,3,2,2,1,6,3,0,2,,,,,,,,,,,,,,,,,,,,
,,,,,2,2020-07-01_11h31.07.718,retriever_ti,2020.1.3,Win32,60,Chrome,1920,1080,,,,,,,,,,,,,,,,,2,,,,,,,,,,,,,,,,,,,,,,,,,,,880.65214,146,left,0.982795,clownfish     ,4,4,1,1,1,880.685535,880.685535,883.185095,0,68,68,68,1,146,4,3,clownfish     ,parrot      ,html/resources/sequences_IDs/A/04_clownfish.jpg,html/resources/sequences_IDs/B/05_parrot.jpg,4,5,2,1,2,1,3,4,0,2,,,,,,,,,,,,,,,,,,,,
,,,,,2,2020-07-01_11h31.07.718,retriever_ti,2020.1.3,Win32,60,Chrome,1920,1080,,,,,,,,,,,,,,,,,2,,,,,,,,,,,,,,,,,,,,,,,,,,,884.285725,147,right,0.980215,giraffe     ,7,3,5,1,3,884.319375,884.319375,886.818665,0,69,69,69,1,147,2,7,satellite_dish,giraffe     ,html/resources/sequences_IDs/A/10_satellite_dish.jpg,html/resources/sequences_IDs/B/03_giraffe.jpg,10,3,4,2,1,1,8,2,0,2,,,,,,,,,,,,,,,,,,,,
,,,,,2,2020-07-01_11h31.07.718,retriever_ti,2020.1.3,Win32,60,Chrome,1920,1080,,,,,,,,,,,,,,,,,2,,,,,,,,,,,,,,,,,,,,,,,,,,,887.43571,148,left,1.282895,seaturtle     ,8,2,5,1,3,887.46961,887.46961,889.968895,0,70,70,70,1,148,8,3,seaturtle     ,parrot      ,html/resources/sequences_IDs/A/02_seaturtle.jpg,html/resources/sequences_IDs/B/05_parrot.jpg,2,5,2,1,2,1,1,4,0,2,,,,,,,,,,,,,,,,,,,,
,,,,,2,2020-07-01_11h31.07.718,retriever_ti,2020.1.3,Win32,60,Chrome,1920,1080,,,,,,,,,,,,,,,,,2,,,,,,,,,,,,,,,,,,,,,,,,,,,890.58635,149,left,0.75796,parrot      ,3,5,-3,0,3,890.60318,890.60318,893.1025,0,71,71,71,1,149,3,6,parrot      ,dress         ,html/resources/sequences_IDs/B/05_parrot.jpg,html/resources/sequences_IDs/A/07_dress.jpg,5,7,2,1,3,2,4,5,0,2,,,,,,,,,,,,,,,,,,,,
,,,,,2,2020-07-01_11h31.07.718,retriever_ti,2020.1.3,Win32,60,Chrome,1920,1080,,,,,,,,,,,,,,,,,2,,,,,,,,,,,,,,,,,,,,,,,,,,,893.703015,150,right,1.28524,clownfish     ,4,4,2,1,3,893.73669,893.73669,896.236095,0,72,72,72,1,150,2,4,satellite_dish,clownfish     ,html/resources/sequences_IDs/A/10_satellite_dish.jpg,html/resources/sequences_IDs/A/04_clownfish.jpg,10,4,4,2,2,1,8,3,0,2,,,,,,,,,,,,,,,,,,,,
,,,,,2,2020-07-01_11h31.07.718,retriever_ti,2020.1.3,Win32,60,Chrome,1920,1080,,,,,,,,,,,,,,,,,2,,,,,,,,,,,,,,,,,,,,,,,,,,,896.836795,151,left,0.86713,clownfish     ,4,4,3,1,3,896.87021,896.87021,899.369675,0,73,73,73,1,151,4,1,clownfish     ,phone       ,html/resources/sequences_IDs/A/04_clownfish.jpg,html/resources/sequences_IDs/B/09_phone.jpg,4,9,2,1,4,2,3,7,0,2,,,,,,,,,,,,,,,,,,,,
,,,,,2,2020-07-01_11h31.07.718,retriever_ti,2020.1.3,Win32,60,Chrome,1920,1080,,,,,,,,,,,,,,,,,2,,,,,,,,,,,,,,,,,,,,,,,,,,,899.986955,152,right,0.56243,clownfish     ,4,4,-1,0,0,900.003685,900.003685,902.50338,0,74,74,74,1,152,5,4,slipper     ,clownfish     ,html/resources/sequences_IDs/B/08_slipper.jpg,html/resources/sequences_IDs/A/04_clownfish.jpg,8,4,3,2,2,1,6,3,0,2,,,,,,,,,,,,,,,,,,,,
,,,,,2,2020-07-01_11h31.07.718,retriever_ti,2020.1.3,Win32,60,Chrome,1920,1080,,,,,,,,,,,,,,,,,2,,,,,,,,,,,,,,,,,,,,,,,,,,,903.60372,153,left,1.531485,giraffe     ,7,3,3,1,3,903.620695,903.620695,906.12036,0,75,75,75,1,153,7,4,giraffe     ,clownfish     ,html/resources/sequences_IDs/B/03_giraffe.jpg,html/resources/sequences_IDs/A/04_clownfish.jpg,3,4,1,1,2,1,2,3,0,2,,,,,,,,,,,,,,,,,,,,
,,,,,2,2020-07-01_11h31.07.718,retriever_ti,2020.1.3,Win32,60,Chrome,1920,1080,,,,,,,,,,,,,,,,,2,,,,,,,,,,,,,,,,,,,,,,,,,,,906.73745,154,right,0.84846,clownfish     ,4,4,-2,0,3,906.770905,906.770905,909.27045,0,76,76,76,1,154,6,4,dress         ,clownfish     ,html/resources/sequences_IDs/A/07_dress.jpg,html/resources/sequences_IDs/A/04_clownfish.jpg,7,4,3,2,2,1,5,3,0,2,,,,,,,,,,,,,,,,,,,,
,,,,,2,2020-07-01_11h31.07.718,retriever_ti,2020.1.3,Win32,60,Chrome,1920,1080,,,,,,,,,,,,,,,,,,,,,,,,,,,,,,,,,,,,,0,4.187145,,,,,,,,,,,,,,,,,,,,,,,,,,,,,,,,,,,,,,,,,1,0,1,0,1,,,,,,,,,,,,,,,
,,,,,2,2020-07-01_11h31.07.718,retriever_ti,2020.1.3,Win32,60,Chrome,1920,1080,,,,,,,,,,,,,,,,,3,,,,,,,,,,,,,,,,,,,,,,,,,,,920.56017,155,right,1.09071,giraffe     ,7,3,4,1,3,920.5725,920.5725,923.07157,0,0,0,0,1,155,3,7,parrot      ,giraffe     ,html/resources/sequences_IDs/B/05_parrot.jpg,html/resources/sequences_IDs/B/03_giraffe.jpg,5,3,2,1,1,1,4,2,0,2,,,,,,,,,,,,,,,,,,,,
,,,,,2,2020-07-01_11h31.07.718,retriever_ti,2020.1.3,Win32,60,Chrome,1920,1080,,,,,,,,,,,,,,,,,3,,,,,,,,,,,,,,,,,,,,,,,,,,,923.688595,156,left,0.744395,giraffe     ,7,3,3,1,3,923.70556,923.70556,926.205165,0,1,1,1,1,156,7,4,giraffe     ,clownfish     ,html/resources/sequences_IDs/B/03_giraffe.jpg,html/resources/sequences_IDs/A/04_clownfish.jpg,3,4,1,1,2,1,2,3,0,2,,,,,,,,,,,,,,,,,,,,
,,,,,2,2020-07-01_11h31.07.718,retriever_ti,2020.1.3,Win32,60,Chrome,1920,1080,,,,,,,,,,,,,,,,,3,,,,,,,,,,,,,,,,,,,,,,,,,,,926.80585,157,right,0.834645,seaturtle     ,8,2,1,1,1,926.839555,926.839555,929.33885,0,2,2,2,1,157,7,8,giraffe     ,seaturtle     ,html/resources/sequences_IDs/B/03_giraffe.jpg,html/resources/sequences_IDs/A/02_seaturtle.jpg,3,2,1,1,2,1,2,1,0,2,,,,,,,,,,,,,,,,,,,,
,,,,,2,2020-07-01_11h31.07.718,retriever_ti,2020.1.3,Win32,60,Chrome,1920,1080,,,,,,,,,,,,,,,,,3,,,,,,,,,,,,,,,,,,,,,,,,,,,930.439415,158,left,1.293665,satellite_dish,2,10,-1,0,0,930.4561,930.4561,932.9557,0,3,3,3,1,158,2,3,satellite_dish,parrot      ,html/resources/sequences_IDs/A/10_satellite_dish.jpg,html/resources/sequences_IDs/B/05_parrot.jpg,10,5,4,2,2,1,8,4,0,2,,,,,,,,,,,,,,,,,,,,
,,,,,2,2020-07-01_11h31.07.718,retriever_ti,2020.1.3,Win32,60,Chrome,1920,1080,,,,,,,,,,,,,,,,,3,,,,,,,,,,,,,,,,,,,,,,,,,,,934.05636,159,right,0.944135,satellite_dish,2,10,-3,0,3,934.089985,934.089985,936.58932,0,4,4,4,1,159,5,2,slipper     ,satellite_dish,html/resources/sequences_IDs/B/08_slipper.jpg,html/resources/sequences_IDs/A/10_satellite_dish.jpg,8,10,3,2,4,2,6,8,0,2,,,,,,,,,,,,,,,,,,,,
,,,,,2,2020-07-01_11h31.07.718,retriever_ti,2020.1.3,Win32,60,Chrome,1920,1080,,,,,,,,,,,,,,,,,3,,,,,,,,,,,,,,,,,,,,,,,,,,,937.20643,160,right,1.673815,dress         ,6,7,3,1,3,937.223555,937.223555,939.72287,0,5,5,5,1,160,3,6,parrot      ,dress         ,html/resources/sequences_IDs/B/05_parrot.jpg,html/resources/sequences_IDs/A/07_dress.jpg,5,7,2,1,3,2,4,5,0,2,,,,,,,,,,,,,,,,,,,,
,,,,,2,2020-07-01_11h31.07.718,retriever_ti,2020.1.3,Win32,60,Chrome,1920,1080,,,,,,,,,,,,,,,,,3,,,,,,,,,,,,,,,,,,,,,,,,,,,940.32361,161,left,0.72958,parrot      ,3,5,-2,0,3,940.3571,940.3571,942.856485,0,6,6,6,1,161,3,5,parrot      ,slipper     ,html/resources/sequences_IDs/B/05_parrot.jpg,html/resources/sequences_IDs/B/08_slipper.jpg,5,8,2,1,3,2,4,6,0,2,,,,,,,,,,,,,,,,,,,,
,,,,,2,2020-07-01_11h31.07.718,retriever_ti,2020.1.3,Win32,60,Chrome,1920,1080,,,,,,,,,,,,,,,,,3,,,,,,,,,,,,,,,,,,,,,,,,,,,943.456895,162,left,1.417905,seaturtle     ,8,2,6,1,3,943.490545,943.490545,945.99007,0,7,7,7,1,162,8,2,seaturtle     ,satellite_dish,html/resources/sequences_IDs/A/02_seaturtle.jpg,html/resources/sequences_IDs/A/10_satellite_dish.jpg,2,10,2,1,4,2,1,8,0,2,,,,,,,,,,,,,,,,,,,,
,,,,,2,2020-07-01_11h31.07.718,retriever_ti,2020.1.3,Win32,60,Chrome,1920,1080,,,,,,,,,,,,,,,,,3,,,,,,,,,,,,,,,,,,,,,,,,,,,946.60735,163,left,1.466155,clownfish     ,4,4,1,1,0,946.64086,946.64086,949.140325,0,8,8,8,1,163,4,3,clownfish     ,parrot      ,html/resources/sequences_IDs/A/04_clownfish.jpg,html/resources/sequences_IDs/B/05_parrot.jpg,4,5,2,1,2,1,3,4,1,2,,,,,,,,,,,,,,,,,,,,
,,,,,2,2020-07-01_11h31.07.718,retriever_ti,2020.1.3,Win32,60,Chrome,1920,1080,,,,,,,,,,,,,,,,,3,,,,,,,,,,,,,,,,,,,,,,,,,,,950.24105,164,right,0.765105,seaturtle     ,8,2,4,1,3,950.257695,950.257695,952.75744,0,9,9,9,1,164,4,8,clownfish     ,seaturtle     ,html/resources/sequences_IDs/A/04_clownfish.jpg,html/resources/sequences_IDs/A/02_seaturtle.jpg,4,2,2,1,2,1,3,1,0,2,,,,,,,,,,,,,,,,,,,,
,,,,,2,2020-07-01_11h31.07.718,retriever_ti,2020.1.3,Win32,60,Chrome,1920,1080,,,,,,,,,,,,,,,,,3,,,,,,,,,,,,,,,,,,,,,,,,,,,953.37428,165,left,1.225965,slipper     ,5,8,1,1,1,953.391355,953.391355,955.891,0,10,10,10,1,165,5,4,slipper     ,clownfish     ,html/resources/sequences_IDs/B/08_slipper.jpg,html/resources/sequences_IDs/A/04_clownfish.jpg,8,4,3,2,2,1,6,3,0,2,,,,,,,,,,,,,,,,,,,,
,,,,,2,2020-07-01_11h31.07.718,retriever_ti,2020.1.3,Win32,60,Chrome,1920,1080,,,,,,,,,,,,,,,,,3,,,,,,,,,,,,,,,,,,,,,,,,,,,956.991575,166,right,1.08113,giraffe     ,7,3,1,1,1,957.0082,957.0082,959.507825,0,11,11,11,1,166,6,7,dress         ,giraffe     ,html/resources/sequences_IDs/A/07_dress.jpg,html/resources/sequences_IDs/B/03_giraffe.jpg,7,3,3,2,1,1,5,2,0,2,,,,,,,,,,,,,,,,,,,,
,,,,,2,2020-07-01_11h31.07.718,retriever_ti,2020.1.3,Win32,60,Chrome,1920,1080,,,,,,,,,,,,,,,,,3,,,,,,,,,,,,,,,,,,,,,,,,,,,960.608495,167,right,0.92198,satellite_dish,2,10,1,1,1,960.62523,960.62523,963.12488,0,12,12,12,1,167,1,2,phone       ,satellite_dish,html/resources/sequences_IDs/B/09_phone.jpg,html/resources/sequences_IDs/A/10_satellite_dish.jpg,9,10,4,2,4,2,7,8,0,2,,,,,,,,,,,,,,,,,,,,
,,,,,2,2020-07-01_11h31.07.718,retriever_ti,2020.1.3,Win32,60,Chrome,1920,1080,,,,,,,,,,,,,,,,,3,,,,,,,,,,,,,,,,,,,,,,,,,,,964.22544,168,left,0.728595,satellite_dish,2,10,1,1,1,964.24216,964.24216,966.74173,0,13,13,13,1,168,2,1,satellite_dish,phone       ,html/resources/sequences_IDs/A/10_satellite_dish.jpg,html/resources/sequences_IDs/B/09_phone.jpg,10,9,4,2,4,2,8,7,0,2,,,,,,,,,,,,,,,,,,,,
,,,,,2,2020-07-01_11h31.07.718,retriever_ti,2020.1.3,Win32,60,Chrome,1920,1080,,,,,,,,,,,,,,,,,3,,,,,,,,,,,,,,,,,,,,,,,,,,,967.842345,169,right,0.863225,slipper     ,5,8,1,1,0,967.87587,967.87587,970.37553,0,14,14,14,1,169,4,5,clownfish     ,slipper     ,html/resources/sequences_IDs/A/04_clownfish.jpg,html/resources/sequences_IDs/B/08_slipper.jpg,4,8,2,1,3,2,3,6,1,2,,,,,,,,,,,,,,,,,,,,
,,,,,2,2020-07-01_11h31.07.718,retriever_ti,2020.1.3,Win32,60,Chrome,1920,1080,,,,,,,,,,,,,,,,,3,,,,,,,,,,,,,,,,,,,,,,,,,,,971.475705,170,left,1.599585,giraffe     ,7,3,5,1,3,971.49274,971.49274,973.99231,0,15,15,15,1,170,7,2,giraffe     ,satellite_dish,html/resources/sequences_IDs/B/03_giraffe.jpg,html/resources/sequences_IDs/A/10_satellite_dish.jpg,3,10,1,1,4,2,2,8,0,2,,,,,,,,,,,,,,,,,,,,
,,,,,2,2020-07-01_11h31.07.718,retriever_ti,2020.1.3,Win32,60,Chrome,1920,1080,,,,,,,,,,,,,,,,,3,,,,,,,,,,,,,,,,,,,,,,,,,,,974.593195,171,left,0.9571,seaturtle     ,8,2,3,1,3,974.62681,974.62681,977.125965,0,16,16,16,1,171,8,5,seaturtle     ,slipper     ,html/resources/sequences_IDs/A/02_seaturtle.jpg,html/resources/sequences_IDs/B/08_slipper.jpg,2,8,2,1,3,2,1,6,0,2,,,,,,,,,,,,,,,,,,,,
,,,,,2,2020-07-01_11h31.07.718,retriever_ti,2020.1.3,Win32,60,Chrome,1920,1080,,,,,,,,,,,,,,,,,3,,,,,,,,,,,,,,,,,,,,,,,,,,,977.74289,172,right,1.61917,phone       ,1,9,-2,0,3,977.759965,977.759965,980.25951,0,17,17,17,1,172,3,1,parrot      ,phone       ,html/resources/sequences_IDs/B/05_parrot.jpg,html/resources/sequences_IDs/B/09_phone.jpg,5,9,2,1,4,2,4,7,0,2,,,,,,,,,,,,,,,,,,,,
,,,,,2,2020-07-01_11h31.07.718,retriever_ti,2020.1.3,Win32,60,Chrome,1920,1080,,,,,,,,,,,,,,,,,3,,,,,,,,,,,,,,,,,,,,,,,,,,,980.876935,173,right,0.891025,satellite_dish,2,10,1,1,1,980.910315,980.910315,983.40976,0,18,18,18,1,173,1,2,phone       ,satellite_dish,html/resources/sequences_IDs/B/09_phone.jpg,html/resources/sequences_IDs/A/10_satellite_dish.jpg,9,10,4,2,4,2,7,8,0,2,,,,,,,,,,,,,,,,,,,,
,,,,,2,2020-07-01_11h31.07.718,retriever_ti,2020.1.3,Win32,60,Chrome,1920,1080,,,,,,,,,,,,,,,,,3,,,,,,,,,,,,,,,,,,,,,,,,,,,984.510475,174,right,1.07165,slipper     ,5,8,4,1,3,984.52723,984.52723,987.02678,0,19,19,19,1,174,1,5,phone       ,slipper     ,html/resources/sequences_IDs/B/09_phone.jpg,html/resources/sequences_IDs/B/08_slipper.jpg,9,8,4,2,3,2,7,6,0,2,,,,,,,,,,,,,,,,,,,,
,,,,,2,2020-07-01_11h31.07.718,retriever_ti,2020.1.3,Win32,60,Chrome,1920,1080,,,,,,,,,,,,,,,,,3,,,,,,,,,,,,,,,,,,,,,,,,,,,987.643715,175,right,0.561285,giraffe     ,7,3,6,1,3,987.660715,987.660715,990.160275,0,20,20,20,1,175,1,7,phone       ,giraffe     ,html/resources/sequences_IDs/B/09_phone.jpg,html/resources/sequences_IDs/B/03_giraffe.jpg,9,3,4,2,1,1,7,2,0,2,,,,,,,,,,,,,,,,,,,,
,,,,,2,2020-07-01_11h31.07.718,retriever_ti,2020.1.3,Win32,60,Chrome,1920,1080,,,,,,,,,,,,,,,,,3,,,,,,,,,,,,,,,,,,,,,,,,,,,990.77761,176,right,0.87474,seaturtle     ,8,2,6,1,3,990.81102,990.81102,993.31066,0,21,21,21,1,176,2,8,satellite_dish,seaturtle     ,html/resources/sequences_IDs/A/10_satellite_dish.jpg,html/resources/sequences_IDs/A/02_seaturtle.jpg,10,2,4,2,2,1,8,1,0,2,,,,,,,,,,,,,,,,,,,,
,,,,,2,2020-07-01_11h31.07.718,retriever_ti,2020.1.3,Win32,60,Chrome,1920,1080,,,,,,,,,,,,,,,,,3,,,,,,,,,,,,,,,,,,,,,,,,,,,993.92783,177,right,1.09346,parrot      ,3,5,-1,0,0,993.96125,993.96125,996.460765,0,22,22,22,1,177,4,3,clownfish     ,parrot      ,html/resources/sequences_IDs/A/04_clownfish.jpg,html/resources/sequences_IDs/B/05_parrot.jpg,4,5,2,1,2,1,3,4,0,2,,,,,,,,,,,,,,,,,,,,
,,,,,2,2020-07-01_11h31.07.718,retriever_ti,2020.1.3,Win32,60,Chrome,1920,1080,,,,,,,,,,,,,,,,,3,,,,,,,,,,,,,,,,,,,,,,,,,,,997.56113,178,right,0.8992,seaturtle     ,8,2,7,1,3,997.594935,997.594935,1000.09443,0,23,23,23,1,178,1,8,phone       ,seaturtle     ,html/resources/sequences_IDs/B/09_phone.jpg,html/resources/sequences_IDs/A/02_seaturtle.jpg,9,2,4,2,2,1,7,1,0,2,,,,,,,,,,,,,,,,,,,,
,,,,,2,2020-07-01_11h31.07.718,retriever_ti,2020.1.3,Win32,60,Chrome,1920,1080,,,,,,,,,,,,,,,,,3,,,,,,,,,,,,,,,,,,,,,,,,,,,1000.7117,179,left,1.12712,seaturtle     ,8,2,7,1,3,1000.72849,1000.72849,1003.22803,0,24,24,24,1,179,8,1,seaturtle     ,phone       ,html/resources/sequences_IDs/A/02_seaturtle.jpg,html/resources/sequences_IDs/B/09_phone.jpg,2,9,2,1,4,2,1,7,0,2,,,,,,,,,,,,,,,,,,,,
,,,,,2,2020-07-01_11h31.07.718,retriever_ti,2020.1.3,Win32,60,Chrome,1920,1080,,,,,,,,,,,,,,,,,3,,,,,,,,,,,,,,,,,,,,,,,,,,,1003.84532,180,right,0.62433,seaturtle     ,8,2,5,1,3,1003.878745,1003.878745,1006.378335,0,25,25,25,1,180,3,8,parrot      ,seaturtle     ,html/resources/sequences_IDs/B/05_parrot.jpg,html/resources/sequences_IDs/A/02_seaturtle.jpg,5,2,2,1,2,1,4,1,0,2,,,,,,,,,,,,,,,,,,,,
,,,,,2,2020-07-01_11h31.07.718,retriever_ti,2020.1.3,Win32,60,Chrome,1920,1080,,,,,,,,,,,,,,,,,3,,,,,,,,,,,,,,,,,,,,,,,,,,,1006.995265,181,left,1.412175,dress         ,6,7,1,1,0,1007.01226,1007.01226,1009.51206,0,26,26,26,1,181,6,5,dress         ,slipper     ,html/resources/sequences_IDs/A/07_dress.jpg,html/resources/sequences_IDs/B/08_slipper.jpg,7,8,3,2,3,2,5,6,1,2,,,,,,,,,,,,,,,,,,,,
,,,,,2,2020-07-01_11h31.07.718,retriever_ti,2020.1.3,Win32,60,Chrome,1920,1080,,,,,,,,,,,,,,,,,3,,,,,,,,,,,,,,,,,,,,,,,,,,,1010.612645,182,left,1.98007,clownfish     ,4,4,1,1,1,1010.645995,1010.645995,1013.145535,0,27,27,27,1,182,4,3,clownfish     ,parrot      ,html/resources/sequences_IDs/A/04_clownfish.jpg,html/resources/sequences_IDs/B/05_parrot.jpg,4,5,2,1,2,1,3,4,0,2,,,,,,,,,,,,,,,,,,,,
,,,,,2,2020-07-01_11h31.07.718,retriever_ti,2020.1.3,Win32,60,Chrome,1920,1080,,,,,,,,,,,,,,,,,3,,,,,,,,,,,,,,,,,,,,,,,,,,,1014.24612,183,right,1.337775,parrot      ,3,5,-3,0,3,1014.279615,1014.279615,1016.779085,0,28,28,28,1,183,6,3,dress         ,parrot      ,html/resources/sequences_IDs/A/07_dress.jpg,html/resources/sequences_IDs/B/05_parrot.jpg,7,5,3,2,2,1,5,4,0,2,,,,,,,,,,,,,,,,,,,,
,,,,,2,2020-07-01_11h31.07.718,retriever_ti,2020.1.3,Win32,60,Chrome,1920,1080,,,,,,,,,,,,,,,,,3,,,,,,,,,,,,,,,,,,,,,,,,,,,1017.379455,184,right,0.953505,satellite_dish,2,10,1,1,0,1017.413285,1017.413285,1019.91292,0,29,29,29,1,184,1,2,phone       ,satellite_dish,html/resources/sequences_IDs/B/09_phone.jpg,html/resources/sequences_IDs/A/10_satellite_dish.jpg,9,10,4,2,4,2,7,8,1,2,,,,,,,,,,,,,,,,,,,,
,,,,,2,2020-07-01_11h31.07.718,retriever_ti,2020.1.3,Win32,60,Chrome,1920,1080,,,,,,,,,,,,,,,,,3,,,,,,,,,,,,,,,,,,,,,,,,,,,1021.013435,185,left,1.100825,satellite_dish,2,10,-1,0,0,1021.030175,1021.030175,1023.52968,0,30,30,30,1,185,2,3,satellite_dish,parrot      ,html/resources/sequences_IDs/A/10_satellite_dish.jpg,html/resources/sequences_IDs/B/05_parrot.jpg,10,5,4,2,2,1,8,4,0,2,,,,,,,,,,,,,,,,,,,,
,,,,,2,2020-07-01_11h31.07.718,retriever_ti,2020.1.3,Win32,60,Chrome,1920,1080,,,,,,,,,,,,,,,,,3,,,,,,,,,,,,,,,,,,,,,,,,,,,1024.63032,186,right,2.347175,satellite_dish,2,10,-2,0,3,1024.647295,1024.647295,1027.146625,0,31,31,31,1,186,4,2,clownfish     ,satellite_dish,html/resources/sequences_IDs/A/04_clownfish.jpg,html/resources/sequences_IDs/A/10_satellite_dish.jpg,4,10,2,1,4,2,3,8,0,2,,,,,,,,,,,,,,,,,,,,
,,,,,2,2020-07-01_11h31.07.718,retriever_ti,2020.1.3,Win32,60,Chrome,1920,1080,,,,,,,,,,,,,,,,,3,,,,,,,,,,,,,,,,,,,,,,,,,,,1027.763645,187,right,1.04238,seaturtle     ,8,2,1,1,1,1027.797355,1027.797355,1030.296885,0,32,32,32,1,187,7,8,giraffe     ,seaturtle     ,html/resources/sequences_IDs/B/03_giraffe.jpg,html/resources/sequences_IDs/A/02_seaturtle.jpg,3,2,1,1,2,1,2,1,0,2,,,,,,,,,,,,,,,,,,,,
,,,,,2,2020-07-01_11h31.07.718,retriever_ti,2020.1.3,Win32,60,Chrome,1920,1080,,,,,,,,,,,,,,,,,3,,,,,,,,,,,,,,,,,,,,,,,,,,,1031.3975,188,left,1.317505,seaturtle     ,8,2,1,1,1,1031.41424,1031.41424,1033.9138,0,33,33,33,1,188,8,7,seaturtle     ,giraffe     ,html/resources/sequences_IDs/A/02_seaturtle.jpg,html/resources/sequences_IDs/B/03_giraffe.jpg,2,3,2,1,1,1,1,2,0,2,,,,,,,,,,,,,,,,,,,,
,,,,,2,2020-07-01_11h31.07.718,retriever_ti,2020.1.3,Win32,60,Chrome,1920,1080,,,,,,,,,,,,,,,,,3,,,,,,,,,,,,,,,,,,,,,,,,,,,1035.014495,189,right,0.664945,seaturtle     ,8,2,3,1,3,1035.03117,1035.03117,1037.530795,0,34,34,34,1,189,5,8,slipper     ,seaturtle     ,html/resources/sequences_IDs/B/08_slipper.jpg,html/resources/sequences_IDs/A/02_seaturtle.jpg,8,2,3,2,2,1,6,1,0,2,,,,,,,,,,,,,,,,,,,,
,,,,,2,2020-07-01_11h31.07.718,retriever_ti,2020.1.3,Win32,60,Chrome,1920,1080,,,,,,,,,,,,,,,,,3,,,,,,,,,,,,,,,,,,,,,,,,,,,1038.148055,190,left,1.399515,satellite_dish,2,10,-3,0,3,1038.181535,1038.181535,1040.68105,0,35,35,35,1,190,2,5,satellite_dish,slipper     ,html/resources/sequences_IDs/A/10_satellite_dish.jpg,html/resources/sequences_IDs/B/08_slipper.jpg,10,8,4,2,3,2,8,6,0,2,,,,,,,,,,,,,,,,,,,,
,,,,,2,2020-07-01_11h31.07.718,retriever_ti,2020.1.3,Win32,60,Chrome,1920,1080,,,,,,,,,,,,,,,,,3,,,,,,,,,,,,,,,,,,,,,,,,,,,1041.298005,191,left,1.038315,satellite_dish,2,10,-5,0,3,1041.31512,1041.31512,1043.814575,0,36,36,36,1,191,2,7,satellite_dish,giraffe     ,html/resources/sequences_IDs/A/10_satellite_dish.jpg,html/resources/sequences_IDs/B/03_giraffe.jpg,10,3,4,2,1,1,8,2,0,2,,,,,,,,,,,,,,,,,,,,
,,,,,2,2020-07-01_11h31.07.718,retriever_ti,2020.1.3,Win32,60,Chrome,1920,1080,,,,,,,,,,,,,,,,,3,,,,,,,,,,,,,,,,,,,,,,,,,,,1044.415245,192,right,0.633415,seaturtle     ,8,2,2,1,3,1044.44868,1044.44868,1046.94816,0,37,37,37,1,192,6,8,dress         ,seaturtle     ,html/resources/sequences_IDs/A/07_dress.jpg,html/resources/sequences_IDs/A/02_seaturtle.jpg,7,2,3,2,2,1,5,1,0,2,,,,,,,,,,,,,,,,,,,,
,,,,,2,2020-07-01_11h31.07.718,retriever_ti,2020.1.3,Win32,60,Chrome,1920,1080,,,,,,,,,,,,,,,,,3,,,,,,,,,,,,,,,,,,,,,,,,,,,1047.565245,193,left,1.439715,dress         ,6,7,1,1,1,1047.582245,1047.582245,1050.08206,0,38,38,38,1,193,6,5,dress         ,slipper     ,html/resources/sequences_IDs/A/07_dress.jpg,html/resources/sequences_IDs/B/08_slipper.jpg,7,8,3,2,3,2,5,6,0,2,,,,,,,,,,,,,,,,,,,,
,,,,,2,2020-07-01_11h31.07.718,retriever_ti,2020.1.3,Win32,60,Chrome,1920,1080,,,,,,,,,,,,,,,,,3,,,,,,,,,,,,,,,,,,,,,,,,,,,1051.182415,194,left,1.24688,seaturtle     ,8,2,1,1,1,1051.199215,1051.199215,1053.698775,0,39,39,39,1,194,8,7,seaturtle     ,giraffe     ,html/resources/sequences_IDs/A/02_seaturtle.jpg,html/resources/sequences_IDs/B/03_giraffe.jpg,2,3,2,1,1,1,1,2,0,2,,,,,,,,,,,,,,,,,,,,
,,,,,2,2020-07-01_11h31.07.718,retriever_ti,2020.1.3,Win32,60,Chrome,1920,1080,,,,,,,,,,,,,,,,,3,,,,,,,,,,,,,,,,,,,,,,,,,,,1054.79943,195,left,1.03093,dress         ,6,7,1,1,1,1054.816195,1054.816195,1057.315765,0,40,40,40,1,195,6,5,dress         ,slipper     ,html/resources/sequences_IDs/A/07_dress.jpg,html/resources/sequences_IDs/B/08_slipper.jpg,7,8,3,2,3,2,5,6,0,2,,,,,,,,,,,,,,,,,,,,
,,,,,2,2020-07-01_11h31.07.718,retriever_ti,2020.1.3,Win32,60,Chrome,1920,1080,,,,,,,,,,,,,,,,,3,,,,,,,,,,,,,,,,,,,,,,,,,,,1058.41648,196,left,1.062255,dress         ,6,7,2,1,3,1058.433115,1058.433115,1060.932635,0,41,41,41,1,196,6,4,dress         ,clownfish     ,html/resources/sequences_IDs/A/07_dress.jpg,html/resources/sequences_IDs/A/04_clownfish.jpg,7,4,3,2,2,1,5,3,0,2,,,,,,,,,,,,,,,,,,,,
,,,,,2,2020-07-01_11h31.07.718,retriever_ti,2020.1.3,Win32,60,Chrome,1920,1080,,,,,,,,,,,,,,,,,3,,,,,,,,,,,,,,,,,,,,,,,,,,,1061.54963,197,left,1.177465,dress         ,6,7,-1,0,0,1061.566635,1061.566635,1064.06625,0,42,42,42,1,197,6,7,dress         ,giraffe     ,html/resources/sequences_IDs/A/07_dress.jpg,html/resources/sequences_IDs/B/03_giraffe.jpg,7,3,3,2,1,1,5,2,0,2,,,,,,,,,,,,,,,,,,,,
,,,,,2,2020-07-01_11h31.07.718,retriever_ti,2020.1.3,Win32,60,Chrome,1920,1080,,,,,,,,,,,,,,,,,3,,,,,,,,,,,,,,,,,,,,,,,,,,,1065.16693,198,left,1.78828,clownfish     ,4,4,-1,0,0,1065.200465,1065.200465,1067.70002,0,43,43,43,1,198,4,5,clownfish     ,slipper     ,html/resources/sequences_IDs/A/04_clownfish.jpg,html/resources/sequences_IDs/B/08_slipper.jpg,4,8,2,1,3,2,3,6,0,2,,,,,,,,,,,,,,,,,,,,
,,,,,2,2020-07-01_11h31.07.718,retriever_ti,2020.1.3,Win32,60,Chrome,1920,1080,,,,,,,,,,,,,,,,,3,,,,,,,,,,,,,,,,,,,,,,,,,,,1068.80065,199,left,1.135205,slipper     ,5,8,4,1,3,1068.81735,1068.81735,1071.31693,0,44,44,44,1,199,5,1,slipper     ,phone       ,html/resources/sequences_IDs/B/08_slipper.jpg,html/resources/sequences_IDs/B/09_phone.jpg,8,9,3,2,4,2,6,7,0,2,,,,,,,,,,,,,,,,,,,,
,,,,,2,2020-07-01_11h31.07.718,retriever_ti,2020.1.3,Win32,60,Chrome,1920,1080,,,,,,,,,,,,,,,,,3,,,,,,,,,,,,,,,,,,,,,,,,,,,1071.93406,200,right,1.282295,giraffe     ,7,3,2,1,3,1071.967525,1071.967525,1074.467115,0,45,45,45,1,200,5,7,slipper     ,giraffe     ,html/resources/sequences_IDs/B/08_slipper.jpg,html/resources/sequences_IDs/B/03_giraffe.jpg,8,3,3,2,1,1,6,2,0,2,,,,,,,,,,,,,,,,,,,,
,,,,,2,2020-07-01_11h31.07.718,retriever_ti,2020.1.3,Win32,60,Chrome,1920,1080,,,,,,,,,,,,,,,,,3,,,,,,,,,,,,,,,,,,,,,,,,,,,1075.084165,201,left,0.880935,giraffe     ,7,3,1,1,1,1075.101105,1075.101105,1077.60076,0,46,46,46,1,201,7,6,giraffe     ,dress         ,html/resources/sequences_IDs/B/03_giraffe.jpg,html/resources/sequences_IDs/A/07_dress.jpg,3,7,1,1,3,2,2,5,0,2,,,,,,,,,,,,,,,,,,,,
,,,,,2,2020-07-01_11h31.07.718,retriever_ti,2020.1.3,Win32,60,Chrome,1920,1080,,,,,,,,,,,,,,,,,3,,,,,,,,,,,,,,,,,,,,,,,,,,,1078.701305,202,right,1.38305,dress         ,6,7,1,1,1,1078.7181,1078.7181,1081.217655,0,47,47,47,1,202,5,6,slipper     ,dress         ,html/resources/sequences_IDs/B/08_slipper.jpg,html/resources/sequences_IDs/A/07_dress.jpg,8,7,3,2,3,2,6,5,0,2,,,,,,,,,,,,,,,,,,,,
,,,,,2,2020-07-01_11h31.07.718,retriever_ti,2020.1.3,Win32,60,Chrome,1920,1080,,,,,,,,,,,,,,,,,3,,,,,,,,,,,,,,,,,,,,,,,,,,,1082.31843,203,left,1.28424,dress         ,6,7,4,1,3,1082.33517,1082.33517,1084.83461,0,48,48,48,1,203,6,2,dress         ,satellite_dish,html/resources/sequences_IDs/A/07_dress.jpg,html/resources/sequences_IDs/A/10_satellite_dish.jpg,7,10,3,2,4,2,5,8,0,2,,,,,,,,,,,,,,,,,,,,
,,,,,2,2020-07-01_11h31.07.718,retriever_ti,2020.1.3,Win32,60,Chrome,1920,1080,,,,,,,,,,,,,,,,,3,,,,,,,,,,,,,,,,,,,,,,,,,,,1085.451545,204,right,1.486745,clownfish     ,4,4,1,1,1,1085.468835,1085.468835,1087.96815,0,49,49,49,1,204,3,4,parrot      ,clownfish     ,html/resources/sequences_IDs/B/05_parrot.jpg,html/resources/sequences_IDs/A/04_clownfish.jpg,5,4,2,1,2,1,4,3,0,2,,,,,,,,,,,,,,,,,,,,
,,,,,2,2020-07-01_11h31.07.718,retriever_ti,2020.1.3,Win32,60,Chrome,1920,1080,,,,,,,,,,,,,,,,,3,,,,,,,,,,,,,,,,,,,,,,,,,,,1089.068815,205,left,1.178115,seaturtle     ,8,2,4,1,3,1089.102315,1089.102315,1091.601845,0,50,50,50,1,205,8,4,seaturtle     ,clownfish     ,html/resources/sequences_IDs/A/02_seaturtle.jpg,html/resources/sequences_IDs/A/04_clownfish.jpg,2,4,2,1,2,1,1,3,0,2,,,,,,,,,,,,,,,,,,,,
,,,,,2,2020-07-01_11h31.07.718,retriever_ti,2020.1.3,Win32,60,Chrome,1920,1080,,,,,,,,,,,,,,,,,3,,,,,,,,,,,,,,,,,,,,,,,,,,,1092.21904,206,right,0.996645,clownfish     ,4,4,1,1,1,1092.23584,1092.23584,1094.735395,0,51,51,51,1,206,3,4,parrot      ,clownfish     ,html/resources/sequences_IDs/B/05_parrot.jpg,html/resources/sequences_IDs/A/04_clownfish.jpg,5,4,2,1,2,1,4,3,0,2,,,,,,,,,,,,,,,,,,,,
,,,,,2,2020-07-01_11h31.07.718,retriever_ti,2020.1.3,Win32,60,Chrome,1920,1080,,,,,,,,,,,,,,,,,3,,,,,,,,,,,,,,,,,,,,,,,,,,,1095.835695,207,left,1.00511,dress         ,6,7,5,1,3,1095.869475,1095.869475,1098.36899,0,52,52,52,1,207,6,1,dress         ,phone       ,html/resources/sequences_IDs/A/07_dress.jpg,html/resources/sequences_IDs/B/09_phone.jpg,7,9,3,2,4,2,5,7,0,2,,,,,,,,,,,,,,,,,,,,
,,,,,2,2020-07-01_11h31.07.718,retriever_ti,2020.1.3,Win32,60,Chrome,1920,1080,,,,,,,,,,,,,,,,,3,,,,,,,,,,,,,,,,,,,,,,,,,,,1098.986,208,left,0.787105,giraffe     ,7,3,2,1,3,1099.019775,1099.019775,1101.51929,0,53,53,53,1,208,7,5,giraffe     ,slipper     ,html/resources/sequences_IDs/B/03_giraffe.jpg,html/resources/sequences_IDs/B/08_slipper.jpg,3,8,1,1,3,2,2,6,0,2,,,,,,,,,,,,,,,,,,,,
,,,,,2,2020-07-01_11h31.07.718,retriever_ti,2020.1.3,Win32,60,Chrome,1920,1080,,,,,,,,,,,,,,,,,3,,,,,,,,,,,,,,,,,,,,,,,,,,,1102.136575,209,right,1.236495,satellite_dish,2,10,-1,0,0,1102.15327,1102.15327,1104.65294,0,54,54,54,1,209,3,2,parrot      ,satellite_dish,html/resources/sequences_IDs/B/05_parrot.jpg,html/resources/sequences_IDs/A/10_satellite_dish.jpg,5,10,2,1,4,2,4,8,0,2,,,,,,,,,,,,,,,,,,,,
,,,,,2,2020-07-01_11h31.07.718,retriever_ti,2020.1.3,Win32,60,Chrome,1920,1080,,,,,,,,,,,,,,,,,3,,,,,,,,,,,,,,,,,,,,,,,,,,,1105.753245,210,right,1.713215,giraffe     ,7,3,3,1,3,1105.786975,1105.786975,1108.286455,0,55,55,55,1,210,4,7,clownfish     ,giraffe     ,html/resources/sequences_IDs/A/04_clownfish.jpg,html/resources/sequences_IDs/B/03_giraffe.jpg,4,3,2,1,1,1,3,2,0,2,,,,,,,,,,,,,,,,,,,,
,,,,,2,2020-07-01_11h31.07.718,retriever_ti,2020.1.3,Win32,60,Chrome,1920,1080,,,,,,,,,,,,,,,,,3,,,,,,,,,,,,,,,,,,,,,,,,,,,1108.90376,211,right,1.799125,clownfish     ,4,4,-1,0,0,1108.937245,1108.937245,1111.436855,0,56,56,56,1,211,5,4,slipper     ,clownfish     ,html/resources/sequences_IDs/B/08_slipper.jpg,html/resources/sequences_IDs/A/04_clownfish.jpg,8,4,3,2,2,1,6,3,0,2,,,,,,,,,,,,,,,,,,,,
,,,,,2,2020-07-01_11h31.07.718,retriever_ti,2020.1.3,Win32,60,Chrome,1920,1080,,,,,,,,,,,,,,,,,3,,,,,,,,,,,,,,,,,,,,,,,,,,,1112.53743,212,left,1.71776,giraffe     ,7,3,6,1,3,1112.554115,1112.554115,1115.05371,0,57,57,57,1,212,7,1,giraffe     ,phone       ,html/resources/sequences_IDs/B/03_giraffe.jpg,html/resources/sequences_IDs/B/09_phone.jpg,3,9,1,1,4,2,2,7,0,2,,,,,,,,,,,,,,,,,,,,
,,,,,2,2020-07-01_11h31.07.718,retriever_ti,2020.1.3,Win32,60,Chrome,1920,1080,,,,,,,,,,,,,,,,,3,,,,,,,,,,,,,,,,,,,,,,,,,,,1115.670725,213,right,1.505,dress         ,6,7,4,1,3,1115.687755,1115.687755,1118.187275,0,58,58,58,1,213,2,6,satellite_dish,dress         ,html/resources/sequences_IDs/A/10_satellite_dish.jpg,html/resources/sequences_IDs/A/07_dress.jpg,10,7,4,2,3,2,8,5,0,2,,,,,,,,,,,,,,,,,,,,
,,,,,2,2020-07-01_11h31.07.718,retriever_ti,2020.1.3,Win32,60,Chrome,1920,1080,,,,,,,,,,,,,,,,,3,,,,,,,,,,,,,,,,,,,,,,,,,,,1118.80461,214,right,1.80549,slipper     ,5,8,1,1,1,1118.838135,1118.838135,1121.33752,0,59,59,59,1,214,4,5,clownfish     ,slipper     ,html/resources/sequences_IDs/A/04_clownfish.jpg,html/resources/sequences_IDs/B/08_slipper.jpg,4,8,2,1,3,2,3,6,0,2,,,,,,,,,,,,,,,,,,,,
,,,,,2,2020-07-01_11h31.07.718,retriever_ti,2020.1.3,Win32,60,Chrome,1920,1080,,,,,,,,,,,,,,,,,3,,,,,,,,,,,,,,,,,,,,,,,,,,,1122.43817,215,right,2.27379,parrot      ,3,5,2,1,3,1122.45496,1122.45496,1124.954485,0,60,60,60,1,215,1,3,phone       ,parrot      ,html/resources/sequences_IDs/B/09_phone.jpg,html/resources/sequences_IDs/B/05_parrot.jpg,9,5,4,2,2,1,7,4,0,2,,,,,,,,,,,,,,,,,,,,
,,,,,2,2020-07-01_11h31.07.718,retriever_ti,2020.1.3,Win32,60,Chrome,1920,1080,,,,,,,,,,,,,,,,,3,,,,,,,,,,,,,,,,,,,,,,,,,,,1125.571575,216,right,1.322595,clownfish     ,4,4,3,1,3,1125.588525,1125.588525,1128.08825,0,61,61,61,1,216,1,4,phone       ,clownfish     ,html/resources/sequences_IDs/B/09_phone.jpg,html/resources/sequences_IDs/A/04_clownfish.jpg,9,4,4,2,2,1,7,3,0,2,,,,,,,,,,,,,,,,,,,,
,,,,,2,2020-07-01_11h31.07.718,retriever_ti,2020.1.3,Win32,60,Chrome,1920,1080,,,,,,,,,,,,,,,,,3,,,,,,,,,,,,,,,,,,,,,,,,,,,1128.70536,217,left,0.636545,clownfish     ,4,4,3,1,3,1128.722175,1128.722175,1131.22174,0,62,62,62,1,217,4,1,clownfish     ,phone       ,html/resources/sequences_IDs/A/04_clownfish.jpg,html/resources/sequences_IDs/B/09_phone.jpg,4,9,2,1,4,2,3,7,0,2,,,,,,,,,,,,,,,,,,,,
,,,,,2,2020-07-01_11h31.07.718,retriever_ti,2020.1.3,Win32,60,Chrome,1920,1080,,,,,,,,,,,,,,,,,3,,,,,,,,,,,,,,,,,,,,,,,,,,,1131.838585,218,left,1.832955,giraffe     ,7,3,1,1,0,1131.872415,1131.872415,1134.371915,0,63,63,63,1,218,7,6,giraffe     ,dress         ,html/resources/sequences_IDs/B/03_giraffe.jpg,html/resources/sequences_IDs/A/07_dress.jpg,3,7,1,1,3,2,2,5,1,2,,,,,,,,,,,,,,,,,,,,
,,,,,2,2020-07-01_11h31.07.718,retriever_ti,2020.1.3,Win32,60,Chrome,1920,1080,,,,,,,,,,,,,,,,,3,,,,,,,,,,,,,,,,,,,,,,,,,,,1135.472245,219,left,1.119695,giraffe     ,7,3,4,1,3,1135.505955,1135.505955,1138.00554,0,64,64,64,1,219,7,3,giraffe     ,parrot      ,html/resources/sequences_IDs/B/03_giraffe.jpg,html/resources/sequences_IDs/B/05_parrot.jpg,3,5,1,1,2,1,2,4,0,2,,,,,,,,,,,,,,,,,,,,
,,,,,2,2020-07-01_11h31.07.718,retriever_ti,2020.1.3,Win32,60,Chrome,1920,1080,,,,,,,,,,,,,,,,,3,,,,,,,,,,,,,,,,,,,,,,,,,,,1138.60625,220,left,0.923505,seaturtle     ,8,2,1,1,0,1138.62288,1138.62288,1141.122495,0,65,65,65,1,220,8,7,seaturtle     ,giraffe     ,html/resources/sequences_IDs/A/02_seaturtle.jpg,html/resources/sequences_IDs/B/03_giraffe.jpg,2,3,2,1,1,1,1,2,1,2,,,,,,,,,,,,,,,,,,,,
,,,,,2,2020-07-01_11h31.07.718,retriever_ti,2020.1.3,Win32,60,Chrome,1920,1080,,,,,,,,,,,,,,,,,3,,,,,,,,,,,,,,,,,,,,,,,,,,,1142.22311,221,left,1.28565,satellite_dish,2,10,-2,0,3,1142.240035,1142.240035,1144.739395,0,66,66,66,1,221,2,4,satellite_dish,clownfish     ,html/resources/sequences_IDs/A/10_satellite_dish.jpg,html/resources/sequences_IDs/A/04_clownfish.jpg,10,4,4,2,2,1,8,3,0,2,,,,,,,,,,,,,,,,,,,,
,,,,,2,2020-07-01_11h31.07.718,retriever_ti,2020.1.3,Win32,60,Chrome,1920,1080,,,,,,,,,,,,,,,,,3,,,,,,,,,,,,,,,,,,,,,,,,,,,1145.339775,222,left,0.982025,satellite_dish,2,10,1,1,1,1145.373555,1145.373555,1147.873145,0,67,67,67,1,222,2,1,satellite_dish,phone       ,html/resources/sequences_IDs/A/10_satellite_dish.jpg,html/resources/sequences_IDs/B/09_phone.jpg,10,9,4,2,4,2,8,7,0,2,,,,,,,,,,,,,,,,,,,,
