instructionsLoop.thisRepN,instructionsLoop.thisTrialN,instructionsLoop.thisN,instructionsLoop.thisIndex,instructionsLoop.ran,participant,date,expName,psychopyVersion,OS,frameRate,browser,xResolution,yResolution,fix_onset,tprac,practiceKey.keys,practiceKey.rt,pracitem_chosen_name,acc_practice,P1_onsetPrac,P2_onsetPrac,onsetFeedbPrac,practiceTrials.thisRepN,practiceTrials.thisTrialN,practiceTrials.thisN,practiceTrials.thisIndex,practiceTrials.ran,P1,P2,Block,LocItem1,LocItem2,NameItem1,NameItem2,key_respAC_prac.keys,key_respAC_prac.corr,key_respAC_prac.rt,AC_acc,Attentions.thisRepN,Attentions.thisTrialN,Attentions.thisN,Attentions.thisIndex,Attentions.ran,Stim,Loc1,Loc2,Loc3,Loc4,CorrAns,keyDisturbed.keys,keyDisturbed.rt,repPractice.thisRepN,repPractice.thisTrialN,repPractice.thisN,repPractice.thisIndex,repPractice.ran,fixcross_onsetMain,trialNumber,key_resp.keys,key_resp.rt,item_chosen_name,item_chosen_value,item_chosen_ID,diff_chosen_minus_reject,acc_real,acc_feedback,P1_onset,P2_onset,feedb_onset,trials.thisRepN,trials.thisTrialN,trials.thisN,trials.thisIndex,trials.ran,Trial,ValueP1,ValueP2,P1name,P2name,P1Loc,P2Loc,P1id,P2id,Micro_categoryP1,Macro_categoryP1,Micro_categoryP2,Macro_categoryP2,ID_sequenceP1,ID_sequenceP2,InverseFb,pNumber,repBlocks.thisRepN,repBlocks.thisTrialN,repBlocks.thisN,repBlocks.thisIndex,repBlocks.ran,key_respAC.keys,key_respAC.corr,key_respAC.rt,trials_AC.thisRepN,trials_AC.thisTrialN,trials_AC.thisN,trials_AC.thisIndex,trials_AC.ran,Bonus,BonusLoop.thisRepN,BonusLoop.thisTrialN,BonusLoop.thisN,BonusLoop.thisIndex,BonusLoop.ran,comments
0,0,0,0,1,2,2020-07-01_09h32.07.316,retriever_ti,2020.1.3,Win32,60,Chrome,1536,864,,,,,,,,,,,,,,,,,,,,,,,,,,,,,,,,,,,,,,,,,,,,,,,,,,,,,,,,,,,,,,,,,,,,,,,,,,,,,,,,,,,,,,,,,,,,,,,,,,
1,0,1,0,1,2,2020-07-01_09h32.07.316,retriever_ti,2020.1.3,Win32,60,Chrome,1536,864,,,,,,,,,,,,,,,,,,,,,,,,,,,,,,,,,,,,,,,,,,,,,,,,,,,,,,,,,,,,,,,,,,,,,,,,,,,,,,,,,,,,,,,,,,,,,,,,,,
2,0,2,0,1,2,2020-07-01_09h32.07.316,retriever_ti,2020.1.3,Win32,60,Chrome,1536,864,,,,,,,,,,,,,,,,,,,,,,,,,,,,,,,,,,,,,,,,,,,,,,,,,,,,,,,,,,,,,,,,,,,,,,,,,,,,,,,,,,,,,,,,,,,,,,,,,,
3,0,3,0,1,2,2020-07-01_09h32.07.316,retriever_ti,2020.1.3,Win32,60,Chrome,1536,864,,,,,,,,,,,,,,,,,,,,,,,,,,,,,,,,,,,,,,,,,,,,,,,,,,,,,,,,,,,,,,,,,,,,,,,,,,,,,,,,,,,,,,,,,,,,,,,,,,
4,0,4,0,1,2,2020-07-01_09h32.07.316,retriever_ti,2020.1.3,Win32,60,Chrome,1536,864,,,,,,,,,,,,,,,,,,,,,,,,,,,,,,,,,,,,,,,,,,,,,,,,,,,,,,,,,,,,,,,,,,,,,,,,,,,,,,,,,,,,,,,,,,,,,,,,,,
5,0,5,0,1,2,2020-07-01_09h32.07.316,retriever_ti,2020.1.3,Win32,60,Chrome,1536,864,,,,,,,,,,,,,,,,,,,,,,,,,,,,,,,,,,,,,,,,,,,,,,,,,,,,,,,,,,,,,,,,,,,,,,,,,,,,,,,,,,,,,,,,,,,,,,,,,,
6,0,6,0,1,2,2020-07-01_09h32.07.316,retriever_ti,2020.1.3,Win32,60,Chrome,1536,864,,,,,,,,,,,,,,,,,,,,,,,,,,,,,,,,,,,,,,,,,,,,,,,,,,,,,,,,,,,,,,,,,,,,,,,,,,,,,,,,,,,,,,,,,,,,,,,,,,
7,0,7,0,1,2,2020-07-01_09h32.07.316,retriever_ti,2020.1.3,Win32,60,Chrome,1536,864,,,,,,,,,,,,,,,,,,,,,,,,,,,,,,,,,,,,,,,,,,,,,,,,,,,,,,,,,,,,,,,,,,,,,,,,,,,,,,,,,,,,,,,,,,,,,,,,,,
8,0,8,0,1,2,2020-07-01_09h32.07.316,retriever_ti,2020.1.3,Win32,60,Chrome,1536,864,,,,,,,,,,,,,,,,,,,,,,,,,,,,,,,,,,,,,,,,,,,,,,,,,,,,,,,,,,,,,,,,,,,,,,,,,,,,,,,,,,,,,,,,,,,,,,,,,,
9,0,9,0,1,2,2020-07-01_09h32.07.316,retriever_ti,2020.1.3,Win32,60,Chrome,1536,864,,,,,,,,,,,,,,,,,,,,,,,,,,,,,,,,,,,,,,,,,,,,,,,,,,,,,,,,,,,,,,,,,,,,,,,,,,,,,,,,,,,,,,,,,,,,,,,,,,
10,0,10,0,1,2,2020-07-01_09h32.07.316,retriever_ti,2020.1.3,Win32,60,Chrome,1536,864,,,,,,,,,,,,,,,,,,,,,,,,,,,,,,,,,,,,,,,,,,,,,,,,,,,,,,,,,,,,,,,,,,,,,,,,,,,,,,,,,,,,,,,,,,,,,,,,,,
11,0,11,0,1,2,2020-07-01_09h32.07.316,retriever_ti,2020.1.3,Win32,60,Chrome,1536,864,,,,,,,,,,,,,,,,,,,,,,,,,,,,,,,,,,,,,,,,,,,,,,,,,,,,,,,,,,,,,,,,,,,,,,,,,,,,,,,,,,,,,,,,,,,,,,,,,,
12,0,12,0,1,2,2020-07-01_09h32.07.316,retriever_ti,2020.1.3,Win32,60,Chrome,1536,864,,,,,,,,,,,,,,,,,,,,,,,,,,,,,,,,,,,,,,,,,,,,,,,,,,,,,,,,,,,,,,,,,,,,,,,,,,,,,,,,,,,,,,,,,,,,,,,,,,
13,0,13,0,1,2,2020-07-01_09h32.07.316,retriever_ti,2020.1.3,Win32,60,Chrome,1536,864,,,,,,,,,,,,,,,,,,,,,,,,,,,,,,,,,,,,,,,,,,,,,,,,,,,,,,,,,,,,,,,,,,,,,,,,,,,,,,,,,,,,,,,,,,,,,,,,,,
14,0,14,0,1,2,2020-07-01_09h32.07.316,retriever_ti,2020.1.3,Win32,60,Chrome,1536,864,,,,,,,,,,,,,,,,,,,,,,,,,,,,,,,,,,,,,,,,,,,,,,,,,,,,,,,,,,,,,,,,,,,,,,,,,,,,,,,,,,,,,,,,,,,,,,,,,,
15,0,15,0,1,2,2020-07-01_09h32.07.316,retriever_ti,2020.1.3,Win32,60,Chrome,1536,864,,,,,,,,,,,,,,,,,,,,,,,,,,,,,,,,,,,,,,,,,,,,,,,,,,,,,,,,,,,,,,,,,,,,,,,,,,,,,,,,,,,,,,,,,,,,,,,,,,
16,0,16,0,1,2,2020-07-01_09h32.07.316,retriever_ti,2020.1.3,Win32,60,Chrome,1536,864,,,,,,,,,,,,,,,,,,,,,,,,,,,,,,,,,,,,,,,,,,,,,,,,,,,,,,,,,,,,,,,,,,,,,,,,,,,,,,,,,,,,,,,,,,,,,,,,,,
17,0,17,0,1,2,2020-07-01_09h32.07.316,retriever_ti,2020.1.3,Win32,60,Chrome,1536,864,,,,,,,,,,,,,,,,,,,,,,,,,,,,,,,,,,,,,,,,,,,,,,,,,,,,,,,,,,,,,,,,,,,,,,,,,,,,,,,,,,,,,,,,,,,,,,,,,,
,,,,,2,2020-07-01_09h32.07.316,retriever_ti,2020.1.3,Win32,60,Chrome,1536,864,109.636745,1,right,1.617275,canary,1,109.674655,109.674655,112.165485,0,0,0,0,1,2,5,1,html/resources/stimuli_practice_decision/04_beetle.jpg,html/resources/stimuli_practice_decision/02_canary.jpg,beetle,canary,,,,,,,,,,,,,,,,,,,,,,,,,,,,,,,,,,,,,,,,,,,,,,,,,,,,,,,,,,,,,,,,,,,,,,,,,,,,,
,,,,,2,2020-07-01_09h32.07.316,retriever_ti,2020.1.3,Win32,60,Chrome,1536,864,112.882575,2,left,1.078435,rabbit,1,112.91336,112.91336,115.40583,0,1,1,1,1,4,3,1,html/resources/stimuli_practice_decision/01_rabbit.jpg,html/resources/stimuli_practice_decision/07_sock.jpg,rabbit,sock,,,,,,,,,,,,,,,,,,,,,,,,,,,,,,,,,,,,,,,,,,,,,,,,,,,,,,,,,,,,,,,,,,,,,,,,,,,,,
,,,,,2,2020-07-01_09h32.07.316,retriever_ti,2020.1.3,Win32,60,Chrome,1536,864,116.404895,3,left,0.924385,pullover,1,116.421955,116.421955,118.91283,0,2,2,2,1,6,2,1,html/resources/stimuli_practice_decision/06_pullover.jpg,html/resources/stimuli_practice_decision/04_beetle.jpg,pullover,beetle,,,,,,,,,,,,,,,,,,,,,,,,,,,,,,,,,,,,,,,,,,,,,,,,,,,,,,,,,,,,,,,,,,,,,,,,,,,,,
,,,,,2,2020-07-01_09h32.07.316,retriever_ti,2020.1.3,Win32,60,Chrome,1536,864,119.428695,4,right,1.061165,handmixer,0,119.46281,119.46281,121.954485,0,3,3,3,1,7,1,1,html/resources/stimuli_practice_decision/05_glasses.jpg,html/resources/stimuli_practice_decision/08_handmixer.jpg,glasses,handmixer,,,,,,,,,,,,,,,,,,,,,,,,,,,,,,,,,,,,,,,,,,,,,,,,,,,,,,,,,,,,,,,,,,,,,,,,,,,,,
,,,,,2,2020-07-01_09h32.07.316,retriever_ti,2020.1.3,Win32,60,Chrome,1536,864,122.471015,5,right,0.848605,pullover,0,122.50474,122.50474,124.996295,0,4,4,4,1,7,6,1,html/resources/stimuli_practice_decision/05_glasses.jpg,html/resources/stimuli_practice_decision/06_pullover.jpg,glasses,pullover,,,,,,,,,,,,,,,,,,,,,,,,,,,,,,,,,,,,,,,,,,,,,,,,,,,,,,,,,,,,,,,,,,,,,,,,,,,,,
,,,,,2,2020-07-01_09h32.07.316,retriever_ti,2020.1.3,Win32,60,Chrome,1536,864,125.99414,6,right,0.7857,glasses,1,126.01069,126.01069,128.50331,0,5,5,5,1,4,7,1,html/resources/stimuli_practice_decision/01_rabbit.jpg,html/resources/stimuli_practice_decision/05_glasses.jpg,rabbit,glasses,,,,,,,,,,,,,,,,,,,,,,,,,,,,,,,,,,,,,,,,,,,,,,,,,,,,,,,,,,,,,,,,,,,,,,,,,,,,,
,,,,,2,2020-07-01_09h32.07.316,retriever_ti,2020.1.3,Win32,60,Chrome,1536,864,129.01924,7,left,0.81983,handmixer,0,129.052485,129.052485,131.5451,0,6,6,6,1,1,2,1,html/resources/stimuli_practice_decision/08_handmixer.jpg,html/resources/stimuli_practice_decision/04_beetle.jpg,handmixer,beetle,,,,,,,,,,,,,,,,,,,,,,,,,,,,,,,,,,,,,,,,,,,,,,,,,,,,,,,,,,,,,,,,,,,,,,,,,,,,,
,,,,,2,2020-07-01_09h32.07.316,retriever_ti,2020.1.3,Win32,60,Chrome,1536,864,132.544055,8,left,1.54288,rabbit,1,132.577625,132.577625,135.06872,0,7,7,7,1,4,3,1,html/resources/stimuli_practice_decision/01_rabbit.jpg,html/resources/stimuli_practice_decision/07_sock.jpg,rabbit,sock,,,,,,,,,,,,,,,,,,,,,,,,,,,,,,,,,,,,,,,,,,,,,,,,,,,,,,,,,,,,,,,,,,,,,,,,,,,,,
,,,,,2,2020-07-01_09h32.07.316,retriever_ti,2020.1.3,Win32,60,Chrome,1536,864,,,,,,,,,,,,,,,,,,,,,,down,1,1.581965,1,0,0,0,3,1,html/resources/sequences_IDs/triangle.png,star ↑,square →,triangle ↓,← circle,down,,,,,,,,,,,,,,,,,,,,,,,,,,,,,,,,,,,,,,,,,,,,,,,,,,,,,,,,,,,,,,
,,,,,2,2020-07-01_09h32.07.316,retriever_ti,2020.1.3,Win32,60,Chrome,1536,864,,,,,,,,,,,,,,,,,,,,,,down,1,1.33107,1,0,1,1,1,1,html/resources/sequences_IDs/star.png,square ↑,circle →,star ↓,← triangle,down,,,,,,,,,,,,,,,,,,,,,,,,,,,,,,,,,,,,,,,,,,,,,,,,,,,,,,,,,,,,,,
,,,,,2,2020-07-01_09h32.07.316,retriever_ti,2020.1.3,Win32,60,Chrome,1536,864,,,,,,,,,,,,,,,,,,,,,,left,1,1.382635,1,0,2,2,2,1,html/resources/sequences_IDs/square1.png,star ↑,triangle →,circle ↓,← square,left,,,,,,,,,,,,,,,,,,,,,,,,,,,,,,,,,,,,,,,,,,,,,,,,,,,,,,,,,,,,,,
,,,,,2,2020-07-01_09h32.07.316,retriever_ti,2020.1.3,Win32,60,Chrome,1536,864,,,,,,,,,,,,,,,,,,,,,,up,1,1.096095,1,0,3,3,0,1,html/resources/sequences_IDs/circle.png,circle ↑,square →,triangle ↓,← star ,up,,,,,,,,,,,,,,,,,,,,,,,,,,,,,,,,,,,,,,,,,,,,,,,,,,,,,,,,,,,,,,
,,,,,2,2020-07-01_09h32.07.316,retriever_ti,2020.1.3,Win32,60,Chrome,1536,864,,,,,,,,,,,,,,,,,,,,,,,,,,,,,,,,,,,,,0,9.091915,0,0,0,0,1,,,,,,,,,,,,,,,,,,,,,,,,,,,,,,,,,,,,,,,,,,,,,,,,,,,,,,,
,,,,,2,2020-07-01_09h32.07.316,retriever_ti,2020.1.3,Win32,60,Chrome,1536,864,157.920755,9,right,0.697375,glasses,1,157.957435,157.957435,160.449435,0,0,0,0,1,6,7,1,html/resources/stimuli_practice_decision/06_pullover.jpg,html/resources/stimuli_practice_decision/05_glasses.jpg,pullover,glasses,,,,,,,,,,,,,,,,,,,,,,,,,,,,,,,,,,,,,,,,,,,,,,,,,,,,,,,,,,,,,,,,,,,,,,,,,,,,,
,,,,,2,2020-07-01_09h32.07.316,retriever_ti,2020.1.3,Win32,60,Chrome,1536,864,161.44716,10,left,0.85558,pullover,1,161.48107,161.48107,163.97313,0,1,1,1,1,6,2,1,html/resources/stimuli_practice_decision/06_pullover.jpg,html/resources/stimuli_practice_decision/04_beetle.jpg,pullover,beetle,,,,,,,,,,,,,,,,,,,,,,,,,,,,,,,,,,,,,,,,,,,,,,,,,,,,,,,,,,,,,,,,,,,,,,,,,,,,,
,,,,,2,2020-07-01_09h32.07.316,retriever_ti,2020.1.3,Win32,60,Chrome,1536,864,164.48976,11,right,1.64981,pullover,1,164.506625,164.506625,166.99832,0,2,2,2,1,5,6,1,html/resources/stimuli_practice_decision/02_canary.jpg,html/resources/stimuli_practice_decision/06_pullover.jpg,canary,pullover,,,,,,,,,,,,,,,,,,,,,,,,,,,,,,,,,,,,,,,,,,,,,,,,,,,,,,,,,,,,,,,,,,,,,,,,,,,,,
,,,,,2,2020-07-01_09h32.07.316,retriever_ti,2020.1.3,Win32,60,Chrome,1536,864,167.9964,12,right,1.105405,glasses,0,168.013075,168.013075,170.50534,0,3,3,3,1,8,7,1,html/resources/stimuli_practice_decision/03_squirrel.jpg,html/resources/stimuli_practice_decision/05_glasses.jpg,squirrel,glasses,,,,,,,,,,,,,,,,,,,,,,,,,,,,,,,,,,,,,,,,,,,,,,,,,,,,,,,,,,,,,,,,,,,,,,,,,,,,,
,,,,,2,2020-07-01_09h32.07.316,retriever_ti,2020.1.3,Win32,60,Chrome,1536,864,171.50326,13,left,0.803385,canary,1,171.52088,171.52088,174.012405,0,4,4,4,1,5,3,1,html/resources/stimuli_practice_decision/02_canary.jpg,html/resources/stimuli_practice_decision/07_sock.jpg,canary,sock,,,,,,,,,,,,,,,,,,,,,,,,,,,,,,,,,,,,,,,,,,,,,,,,,,,,,,,,,,,,,,,,,,,,,,,,,,,,,
,,,,,2,2020-07-01_09h32.07.316,retriever_ti,2020.1.3,Win32,60,Chrome,1536,864,174.52795,14,left,0.760555,glasses,0,174.56135,174.56135,177.05388,0,5,5,5,1,7,8,1,html/resources/stimuli_practice_decision/05_glasses.jpg,html/resources/stimuli_practice_decision/03_squirrel.jpg,glasses,squirrel,,,,,,,,,,,,,,,,,,,,,,,,,,,,,,,,,,,,,,,,,,,,,,,,,,,,,,,,,,,,,,,,,,,,,,,,,,,,,
,,,,,2,2020-07-01_09h32.07.316,retriever_ti,2020.1.3,Win32,60,Chrome,1536,864,178.052225,15,NaN,NaN,No_response,2,178.068905,178.068905,180.561075,0,6,6,6,1,5,4,1,html/resources/stimuli_practice_decision/02_canary.jpg,html/resources/stimuli_practice_decision/01_rabbit.jpg,canary,rabbit,,,,,,,,,,,,,,,,,,,,,,,,,,,,,,,,,,,,,,,,,,,,,,,,,,,,,,,,,,,,,,,,,,,,,,,,,,,,,
,,,,,2,2020-07-01_09h32.07.316,retriever_ti,2020.1.3,Win32,60,Chrome,1536,864,181.559385,16,left,0.55296,canary,1,181.593835,181.593835,184.08527,0,7,7,7,1,5,3,1,html/resources/stimuli_practice_decision/02_canary.jpg,html/resources/stimuli_practice_decision/07_sock.jpg,canary,sock,,,,,,,,,,,,,,,,,,,,,,,,,,,,,,,,,,,,,,,,,,,,,,,,,,,,,,,,,,,,,,,,,,,,,,,,,,,,,
,,,,,2,2020-07-01_09h32.07.316,retriever_ti,2020.1.3,Win32,60,Chrome,1536,864,,,,,,,,,,,,,,,,,,,,,,up,1,1.383525,1,0,0,0,0,1,html/resources/sequences_IDs/circle.png,circle ↑,square →,triangle ↓,← star ,up,,,,,,,,,,,,,,,,,,,,,,,,,,,,,,,,,,,,,,,,,,,,,,,,,,,,,,,,,,,,,,
,,,,,2,2020-07-01_09h32.07.316,retriever_ti,2020.1.3,Win32,60,Chrome,1536,864,,,,,,,,,,,,,,,,,,,,,,down,1,1.157955,1,0,1,1,3,1,html/resources/sequences_IDs/triangle.png,star ↑,square →,triangle ↓,← circle,down,,,,,,,,,,,,,,,,,,,,,,,,,,,,,,,,,,,,,,,,,,,,,,,,,,,,,,,,,,,,,,
,,,,,2,2020-07-01_09h32.07.316,retriever_ti,2020.1.3,Win32,60,Chrome,1536,864,,,,,,,,,,,,,,,,,,,,,,down,1,1.005855,1,0,2,2,1,1,html/resources/sequences_IDs/star.png,square ↑,circle →,star ↓,← triangle,down,,,,,,,,,,,,,,,,,,,,,,,,,,,,,,,,,,,,,,,,,,,,,,,,,,,,,,,,,,,,,,
,,,,,2,2020-07-01_09h32.07.316,retriever_ti,2020.1.3,Win32,60,Chrome,1536,864,,,,,,,,,,,,,,,,,,,,,,left,1,1.1315,1,0,3,3,2,1,html/resources/sequences_IDs/square1.png,star ↑,triangle →,circle ↓,← square,left,,,,,,,,,,,,,,,,,,,,,,,,,,,,,,,,,,,,,,,,,,,,,,,,,,,,,,,,,,,,,,
,,,,,2,2020-07-01_09h32.07.316,retriever_ti,2020.1.3,Win32,60,Chrome,1536,864,,,,,,,,,,,,,,,,,,,,,,,,,,,,,,,,,,,,,0,5.97498,1,0,1,0,1,,,,,,,,,,,,,,,,,,,,,,,,,,,,,,,,,,,,,,,,,,,,,,,,,,,,,,,
,,,,,2,2020-07-01_09h32.07.316,retriever_ti,2020.1.3,Win32,60,Chrome,1536,864,,,,,,,,,,,,,,,,,1,,,,,,,,,,,,,,,,,,,,,,,,,,,202.93156,1,right,0.85814,dress         ,6,7,5,1,3,202.9683,202.9683,205.462095,0,0,0,0,1,1,1,6,phone       ,dress         ,html/resources/sequences_IDs/B/09_phone.jpg,html/resources/sequences_IDs/A/07_dress.jpg,9,7,4,2,3,2,7,5,0,2,,,,,,,,,,,,,,,,,,,,
,,,,,2,2020-07-01_09h32.07.316,retriever_ti,2020.1.3,Win32,60,Chrome,1536,864,,,,,,,,,,,,,,,,,1,,,,,,,,,,,,,,,,,,,,,,,,,,,206.07858,2,right,1.041425,phone       ,1,9,-4,0,3,206.094865,206.094865,208.584625,0,1,1,1,1,2,5,1,slipper     ,phone       ,html/resources/sequences_IDs/B/08_slipper.jpg,html/resources/sequences_IDs/B/09_phone.jpg,8,9,3,2,4,2,6,7,0,2,,,,,,,,,,,,,,,,,,,,
,,,,,2,2020-07-01_09h32.07.316,retriever_ti,2020.1.3,Win32,60,Chrome,1536,864,,,,,,,,,,,,,,,,,1,,,,,,,,,,,,,,,,,,,,,,,,,,,209.20144,3,left,1.069845,giraffe     ,7,3,-1,0,1,209.217345,209.217345,211.709375,0,2,2,2,1,3,7,8,giraffe     ,seaturtle     ,html/resources/sequences_IDs/B/03_giraffe.jpg,html/resources/sequences_IDs/A/02_seaturtle.jpg,3,2,1,1,2,1,2,1,1,2,,,,,,,,,,,,,,,,,,,,
,,,,,2,2020-07-01_09h32.07.316,retriever_ti,2020.1.3,Win32,60,Chrome,1536,864,,,,,,,,,,,,,,,,,1,,,,,,,,,,,,,,,,,,,,,,,,,,,212.80689,4,left,1.412295,satellite_dish,2,10,1,1,1,212.841245,212.841245,215.33296,0,3,3,3,1,4,2,1,satellite_dish,phone       ,html/resources/sequences_IDs/A/10_satellite_dish.jpg,html/resources/sequences_IDs/B/09_phone.jpg,10,9,4,2,4,2,8,7,0,2,,,,,,,,,,,,,,,,,,,,
,,,,,2,2020-07-01_09h32.07.316,retriever_ti,2020.1.3,Win32,60,Chrome,1536,864,,,,,,,,,,,,,,,,,1,,,,,,,,,,,,,,,,,,,,,,,,,,,216.430715,5,left,0.868715,dress         ,6,7,1,1,1,216.46416,216.46416,218.956725,0,4,4,4,1,5,6,5,dress         ,slipper     ,html/resources/sequences_IDs/A/07_dress.jpg,html/resources/sequences_IDs/B/08_slipper.jpg,7,8,3,2,3,2,5,6,0,2,,,,,,,,,,,,,,,,,,,,
,,,,,2,2020-07-01_09h32.07.316,retriever_ti,2020.1.3,Win32,60,Chrome,1536,864,,,,,,,,,,,,,,,,,1,,,,,,,,,,,,,,,,,,,,,,,,,,,220.055065,6,left,1.032005,dress         ,6,7,2,1,3,220.07235,220.07235,222.563485,0,5,5,5,1,6,6,4,dress         ,clownfish     ,html/resources/sequences_IDs/A/07_dress.jpg,html/resources/sequences_IDs/A/04_clownfish.jpg,7,4,3,2,2,1,5,3,0,2,,,,,,,,,,,,,,,,,,,,
,,,,,2,2020-07-01_09h32.07.316,retriever_ti,2020.1.3,Win32,60,Chrome,1536,864,,,,,,,,,,,,,,,,,1,,,,,,,,,,,,,,,,,,,,,,,,,,,223.17927,7,left,0.87757,satellite_dish,2,10,-4,0,3,223.214105,223.214105,225.70432,0,6,6,6,1,7,2,6,satellite_dish,dress         ,html/resources/sequences_IDs/A/10_satellite_dish.jpg,html/resources/sequences_IDs/A/07_dress.jpg,10,7,4,2,3,2,8,5,0,2,,,,,,,,,,,,,,,,,,,,
,,,,,2,2020-07-01_09h32.07.316,retriever_ti,2020.1.3,Win32,60,Chrome,1536,864,,,,,,,,,,,,,,,,,1,,,,,,,,,,,,,,,,,,,,,,,,,,,226.321245,8,left,0.841385,parrot      ,3,5,-2,0,3,226.355745,226.355745,228.846115,0,7,7,7,1,8,3,5,parrot      ,slipper     ,html/resources/sequences_IDs/B/05_parrot.jpg,html/resources/sequences_IDs/B/08_slipper.jpg,5,8,2,1,3,2,4,6,0,2,,,,,,,,,,,,,,,,,,,,
,,,,,2,2020-07-01_09h32.07.316,retriever_ti,2020.1.3,Win32,60,Chrome,1536,864,,,,,,,,,,,,,,,,,1,,,,,,,,,,,,,,,,,,,,,,,,,,,229.46314,9,left,1.21988,seaturtle     ,8,2,2,1,3,229.495385,229.495385,231.987485,0,8,8,8,1,9,8,6,seaturtle     ,dress         ,html/resources/sequences_IDs/A/02_seaturtle.jpg,html/resources/sequences_IDs/A/07_dress.jpg,2,7,2,1,3,2,1,5,0,2,,,,,,,,,,,,,,,,,,,,
,,,,,2,2020-07-01_09h32.07.316,retriever_ti,2020.1.3,Win32,60,Chrome,1536,864,,,,,,,,,,,,,,,,,1,,,,,,,,,,,,,,,,,,,,,,,,,,,232.602855,10,right,0.643865,dress         ,6,7,1,1,0,232.636865,232.636865,235.1286,0,9,9,9,1,10,5,6,slipper     ,dress         ,html/resources/sequences_IDs/B/08_slipper.jpg,html/resources/sequences_IDs/A/07_dress.jpg,8,7,3,2,3,2,6,5,1,2,,,,,,,,,,,,,,,,,,,,
,,,,,2,2020-07-01_09h32.07.316,retriever_ti,2020.1.3,Win32,60,Chrome,1536,864,,,,,,,,,,,,,,,,,1,,,,,,,,,,,,,,,,,,,,,,,,,,,236.243125,11,left,0.74343,giraffe     ,7,3,1,1,1,236.284955,236.284955,238.78536,0,10,10,10,1,11,7,6,giraffe     ,dress         ,html/resources/sequences_IDs/B/03_giraffe.jpg,html/resources/sequences_IDs/A/07_dress.jpg,3,7,1,1,3,2,2,5,0,2,,,,,,,,,,,,,,,,,,,,
,,,,,2,2020-07-01_09h32.07.316,retriever_ti,2020.1.3,Win32,60,Chrome,1536,864,,,,,,,,,,,,,,,,,1,,,,,,,,,,,,,,,,,,,,,,,,,,,239.8839,12,left,1.407685,seaturtle     ,8,2,5,1,3,239.917825,239.917825,242.40874,0,11,11,11,1,12,8,3,seaturtle     ,parrot      ,html/resources/sequences_IDs/A/02_seaturtle.jpg,html/resources/sequences_IDs/B/05_parrot.jpg,2,5,2,1,2,1,1,4,0,2,,,,,,,,,,,,,,,,,,,,
,,,,,2,2020-07-01_09h32.07.316,retriever_ti,2020.1.3,Win32,60,Chrome,1536,864,,,,,,,,,,,,,,,,,1,,,,,,,,,,,,,,,,,,,,,,,,,,,243.02546,13,left,0.988185,parrot      ,3,5,-1,0,1,243.044215,243.044215,245.53405,0,12,12,12,1,13,3,4,parrot      ,clownfish     ,html/resources/sequences_IDs/B/05_parrot.jpg,html/resources/sequences_IDs/A/04_clownfish.jpg,5,4,2,1,2,1,4,3,1,2,,,,,,,,,,,,,,,,,,,,
,,,,,2,2020-07-01_09h32.07.316,retriever_ti,2020.1.3,Win32,60,Chrome,1536,864,,,,,,,,,,,,,,,,,1,,,,,,,,,,,,,,,,,,,,,,,,,,,246.631335,14,right,1.04272,giraffe     ,7,3,1,1,1,246.66486,246.66486,249.15722,0,13,13,13,1,14,6,7,dress         ,giraffe     ,html/resources/sequences_IDs/A/07_dress.jpg,html/resources/sequences_IDs/B/03_giraffe.jpg,7,3,3,2,1,1,5,2,0,2,,,,,,,,,,,,,,,,,,,,
,,,,,2,2020-07-01_09h32.07.316,retriever_ti,2020.1.3,Win32,60,Chrome,1536,864,,,,,,,,,,,,,,,,,1,,,,,,,,,,,,,,,,,,,,,,,,,,,250.25459,15,right,0.699345,satellite_dish,2,10,-3,0,3,250.28845,250.28845,252.78085,0,14,14,14,1,15,5,2,slipper     ,satellite_dish,html/resources/sequences_IDs/B/08_slipper.jpg,html/resources/sequences_IDs/A/10_satellite_dish.jpg,8,10,3,2,4,2,6,8,0,2,,,,,,,,,,,,,,,,,,,,
,,,,,2,2020-07-01_09h32.07.316,retriever_ti,2020.1.3,Win32,60,Chrome,1536,864,,,,,,,,,,,,,,,,,1,,,,,,,,,,,,,,,,,,,,,,,,,,,253.39648,16,left,0.691825,clownfish     ,4,4,-1,0,0,253.4302,253.4302,255.922005,0,15,15,15,1,16,4,5,clownfish     ,slipper     ,html/resources/sequences_IDs/A/04_clownfish.jpg,html/resources/sequences_IDs/B/08_slipper.jpg,4,8,2,1,3,2,3,6,0,2,,,,,,,,,,,,,,,,,,,,
,,,,,2,2020-07-01_09h32.07.316,retriever_ti,2020.1.3,Win32,60,Chrome,1536,864,,,,,,,,,,,,,,,,,1,,,,,,,,,,,,,,,,,,,,,,,,,,,257.019425,17,left,0.722025,clownfish     ,4,4,-1,0,0,257.053705,257.053705,259.54569,0,16,16,16,1,17,4,5,clownfish     ,slipper     ,html/resources/sequences_IDs/A/04_clownfish.jpg,html/resources/sequences_IDs/B/08_slipper.jpg,4,8,2,1,3,2,3,6,0,2,,,,,,,,,,,,,,,,,,,,
,,,,,2,2020-07-01_09h32.07.316,retriever_ti,2020.1.3,Win32,60,Chrome,1536,864,,,,,,,,,,,,,,,,,1,,,,,,,,,,,,,,,,,,,,,,,,,,,260.644085,18,left,0.807425,parrot      ,3,5,-5,0,3,260.660675,260.660675,263.152315,0,17,17,17,1,18,3,8,parrot      ,seaturtle     ,html/resources/sequences_IDs/B/05_parrot.jpg,html/resources/sequences_IDs/A/02_seaturtle.jpg,5,2,2,1,2,1,4,1,0,2,,,,,,,,,,,,,,,,,,,,
,,,,,2,2020-07-01_09h32.07.316,retriever_ti,2020.1.3,Win32,60,Chrome,1536,864,,,,,,,,,,,,,,,,,1,,,,,,,,,,,,,,,,,,,,,,,,,,,263.76798,19,right,0.77158,parrot      ,3,5,-2,0,3,263.800985,263.800985,266.293495,0,18,18,18,1,19,5,3,slipper     ,parrot      ,html/resources/sequences_IDs/B/08_slipper.jpg,html/resources/sequences_IDs/B/05_parrot.jpg,8,5,3,2,2,1,6,4,0,2,,,,,,,,,,,,,,,,,,,,
,,,,,2,2020-07-01_09h32.07.316,retriever_ti,2020.1.3,Win32,60,Chrome,1536,864,,,,,,,,,,,,,,,,,1,,,,,,,,,,,,,,,,,,,,,,,,,,,266.90918,20,right,0.917385,giraffe     ,7,3,-1,0,0,266.944575,266.944575,269.435235,0,19,19,19,1,20,8,7,seaturtle     ,giraffe     ,html/resources/sequences_IDs/A/02_seaturtle.jpg,html/resources/sequences_IDs/B/03_giraffe.jpg,2,3,2,1,1,1,1,2,0,2,,,,,,,,,,,,,,,,,,,,
,,,,,2,2020-07-01_09h32.07.316,retriever_ti,2020.1.3,Win32,60,Chrome,1536,864,,,,,,,,,,,,,,,,,1,,,,,,,,,,,,,,,,,,,,,,,,,,,270.53393,21,right,0.88654,seaturtle     ,8,2,3,1,3,270.55099,270.55099,273.04186,0,20,20,20,1,21,5,8,slipper     ,seaturtle     ,html/resources/sequences_IDs/B/08_slipper.jpg,html/resources/sequences_IDs/A/02_seaturtle.jpg,8,2,3,2,2,1,6,1,0,2,,,,,,,,,,,,,,,,,,,,
,,,,,2,2020-07-01_09h32.07.316,retriever_ti,2020.1.3,Win32,60,Chrome,1536,864,,,,,,,,,,,,,,,,,1,,,,,,,,,,,,,,,,,,,,,,,,,,,273.658935,22,left,0.9759,giraffe     ,7,3,3,1,3,273.692785,273.692785,276.183305,0,21,21,21,1,22,7,4,giraffe     ,clownfish     ,html/resources/sequences_IDs/B/03_giraffe.jpg,html/resources/sequences_IDs/A/04_clownfish.jpg,3,4,1,1,2,1,2,3,0,2,,,,,,,,,,,,,,,,,,,,
,,,,,2,2020-07-01_09h32.07.316,retriever_ti,2020.1.3,Win32,60,Chrome,1536,864,,,,,,,,,,,,,,,,,1,,,,,,,,,,,,,,,,,,,,,,,,,,,276.79902,23,right,0.66784,giraffe     ,7,3,3,1,3,276.81754,276.81754,279.30827,0,22,22,22,1,23,4,7,clownfish     ,giraffe     ,html/resources/sequences_IDs/A/04_clownfish.jpg,html/resources/sequences_IDs/B/03_giraffe.jpg,4,3,2,1,1,1,3,2,0,2,,,,,,,,,,,,,,,,,,,,
,,,,,2,2020-07-01_09h32.07.316,retriever_ti,2020.1.3,Win32,60,Chrome,1536,864,,,,,,,,,,,,,,,,,1,,,,,,,,,,,,,,,,,,,,,,,,,,,279.925065,24,left,1.30622,phone       ,1,9,-4,0,3,279.941795,279.941795,282.43302,0,23,23,23,1,24,1,5,phone       ,slipper     ,html/resources/sequences_IDs/B/09_phone.jpg,html/resources/sequences_IDs/B/08_slipper.jpg,9,8,4,2,3,2,7,6,0,2,,,,,,,,,,,,,,,,,,,,
,,,,,2,2020-07-01_09h32.07.316,retriever_ti,2020.1.3,Win32,60,Chrome,1536,864,,,,,,,,,,,,,,,,,1,,,,,,,,,,,,,,,,,,,,,,,,,,,283.0486,25,left,1.29113,dress         ,6,7,-2,0,3,283.06602,283.06602,285.55771,0,24,24,24,1,25,6,8,dress         ,seaturtle     ,html/resources/sequences_IDs/A/07_dress.jpg,html/resources/sequences_IDs/A/02_seaturtle.jpg,7,2,3,2,2,1,5,1,0,2,,,,,,,,,,,,,,,,,,,,
,,,,,2,2020-07-01_09h32.07.316,retriever_ti,2020.1.3,Win32,60,Chrome,1536,864,,,,,,,,,,,,,,,,,1,,,,,,,,,,,,,,,,,,,,,,,,,,,286.174235,26,left,0.91038,parrot      ,3,5,-3,0,3,286.19154,286.19154,288.68245,0,25,25,25,1,26,3,6,parrot      ,dress         ,html/resources/sequences_IDs/B/05_parrot.jpg,html/resources/sequences_IDs/A/07_dress.jpg,5,7,2,1,3,2,4,5,0,2,,,,,,,,,,,,,,,,,,,,
,,,,,2,2020-07-01_09h32.07.316,retriever_ti,2020.1.3,Win32,60,Chrome,1536,864,,,,,,,,,,,,,,,,,1,,,,,,,,,,,,,,,,,,,,,,,,,,,289.29822,27,left,1.03616,giraffe     ,7,3,2,1,3,289.316365,289.316365,291.8074,0,26,26,26,1,27,7,5,giraffe     ,slipper     ,html/resources/sequences_IDs/B/03_giraffe.jpg,html/resources/sequences_IDs/B/08_slipper.jpg,3,8,1,1,3,2,2,6,0,2,,,,,,,,,,,,,,,,,,,,
,,,,,2,2020-07-01_09h32.07.316,retriever_ti,2020.1.3,Win32,60,Chrome,1536,864,,,,,,,,,,,,,,,,,1,,,,,,,,,,,,,,,,,,,,,,,,,,,292.422945,28,left,1.26477,parrot      ,3,5,2,1,3,292.44019,292.44019,294.93259,0,27,27,27,1,28,3,1,parrot      ,phone       ,html/resources/sequences_IDs/B/05_parrot.jpg,html/resources/sequences_IDs/B/09_phone.jpg,5,9,2,1,4,2,4,7,0,2,,,,,,,,,,,,,,,,,,,,
,,,,,2,2020-07-01_09h32.07.316,retriever_ti,2020.1.3,Win32,60,Chrome,1536,864,,,,,,,,,,,,,,,,,1,,,,,,,,,,,,,,,,,,,,,,,,,,,295.54828,29,right,1.511655,seaturtle     ,8,2,1,1,1,295.581905,295.581905,298.07354,0,28,28,28,1,29,7,8,giraffe     ,seaturtle     ,html/resources/sequences_IDs/B/03_giraffe.jpg,html/resources/sequences_IDs/A/02_seaturtle.jpg,3,2,1,1,2,1,2,1,0,2,,,,,,,,,,,,,,,,,,,,
,,,,,2,2020-07-01_09h32.07.316,retriever_ti,2020.1.3,Win32,60,Chrome,1536,864,,,,,,,,,,,,,,,,,1,,,,,,,,,,,,,,,,,,,,,,,,,,,299.171085,30,left,1.25885,slipper     ,5,8,1,1,0,299.187875,299.187875,301.680485,0,29,29,29,1,30,5,4,slipper     ,clownfish     ,html/resources/sequences_IDs/B/08_slipper.jpg,html/resources/sequences_IDs/A/04_clownfish.jpg,8,4,3,2,2,1,6,3,1,2,,,,,,,,,,,,,,,,,,,,
,,,,,2,2020-07-01_09h32.07.316,retriever_ti,2020.1.3,Win32,60,Chrome,1536,864,,,,,,,,,,,,,,,,,1,,,,,,,,,,,,,,,,,,,,,,,,,,,302.7786,31,right,0.572305,clownfish     ,4,4,-1,0,0,302.81224,302.81224,305.30363,0,30,30,30,1,31,5,4,slipper     ,clownfish     ,html/resources/sequences_IDs/B/08_slipper.jpg,html/resources/sequences_IDs/A/04_clownfish.jpg,8,4,3,2,2,1,6,3,0,2,,,,,,,,,,,,,,,,,,,,
,,,,,2,2020-07-01_09h32.07.316,retriever_ti,2020.1.3,Win32,60,Chrome,1536,864,,,,,,,,,,,,,,,,,1,,,,,,,,,,,,,,,,,,,,,,,,,,,306.401435,32,left,1.897545,parrot      ,3,5,-1,0,0,306.435165,306.435165,308.927215,0,31,31,31,1,32,3,4,parrot      ,clownfish     ,html/resources/sequences_IDs/B/05_parrot.jpg,html/resources/sequences_IDs/A/04_clownfish.jpg,5,4,2,1,2,1,4,3,0,2,,,,,,,,,,,,,,,,,,,,
,,,,,2,2020-07-01_09h32.07.316,retriever_ti,2020.1.3,Win32,60,Chrome,1536,864,,,,,,,,,,,,,,,,,1,,,,,,,,,,,,,,,,,,,,,,,,,,,310.02575,33,left,0.585015,satellite_dish,2,10,-1,0,0,310.058385,310.058385,312.55079,0,32,32,32,1,33,2,3,satellite_dish,parrot      ,html/resources/sequences_IDs/A/10_satellite_dish.jpg,html/resources/sequences_IDs/B/05_parrot.jpg,10,5,4,2,2,1,8,4,0,2,,,,,,,,,,,,,,,,,,,,
,,,,,2,2020-07-01_09h32.07.316,retriever_ti,2020.1.3,Win32,60,Chrome,1536,864,,,,,,,,,,,,,,,,,1,,,,,,,,,,,,,,,,,,,,,,,,,,,313.64804,34,left,0.815185,dress         ,6,7,1,1,1,313.665665,313.665665,316.15761,0,33,33,33,1,34,6,5,dress         ,slipper     ,html/resources/sequences_IDs/A/07_dress.jpg,html/resources/sequences_IDs/B/08_slipper.jpg,7,8,3,2,3,2,5,6,0,2,,,,,,,,,,,,,,,,,,,,
,,,,,2,2020-07-01_09h32.07.316,retriever_ti,2020.1.3,Win32,60,Chrome,1536,864,,,,,,,,,,,,,,,,,1,,,,,,,,,,,,,,,,,,,,,,,,,,,317.25595,35,left,0.709805,giraffe     ,7,3,4,1,3,317.27362,317.27362,319.764345,0,34,34,34,1,35,7,3,giraffe     ,parrot      ,html/resources/sequences_IDs/B/03_giraffe.jpg,html/resources/sequences_IDs/B/05_parrot.jpg,3,5,1,1,2,1,2,4,0,2,,,,,,,,,,,,,,,,,,,,
,,,,,2,2020-07-01_09h32.07.316,retriever_ti,2020.1.3,Win32,60,Chrome,1536,864,,,,,,,,,,,,,,,,,1,,,,,,,,,,,,,,,,,,,,,,,,,,,320.382185,36,left,0.74301,satellite_dish,2,10,-5,0,3,320.41356,320.41356,322.905765,0,35,35,35,1,36,2,7,satellite_dish,giraffe     ,html/resources/sequences_IDs/A/10_satellite_dish.jpg,html/resources/sequences_IDs/B/03_giraffe.jpg,10,3,4,2,1,1,8,2,0,2,,,,,,,,,,,,,,,,,,,,
,,,,,2,2020-07-01_09h32.07.316,retriever_ti,2020.1.3,Win32,60,Chrome,1536,864,,,,,,,,,,,,,,,,,1,,,,,,,,,,,,,,,,,,,,,,,,,,,323.52161,37,left,0.58982,satellite_dish,2,10,-3,0,3,323.539355,323.539355,326.03077,0,36,36,36,1,37,2,5,satellite_dish,slipper     ,html/resources/sequences_IDs/A/10_satellite_dish.jpg,html/resources/sequences_IDs/B/08_slipper.jpg,10,8,4,2,3,2,8,6,0,2,,,,,,,,,,,,,,,,,,,,
,,,,,2,2020-07-01_09h32.07.316,retriever_ti,2020.1.3,Win32,60,Chrome,1536,864,,,,,,,,,,,,,,,,,1,,,,,,,,,,,,,,,,,,,,,,,,,,,326.64723,38,left,0.61132,dress         ,6,7,3,1,3,326.682165,326.682165,329.172075,0,37,37,37,1,38,6,3,dress         ,parrot      ,html/resources/sequences_IDs/A/07_dress.jpg,html/resources/sequences_IDs/B/05_parrot.jpg,7,5,3,2,2,1,5,4,0,2,,,,,,,,,,,,,,,,,,,,
,,,,,2,2020-07-01_09h32.07.316,retriever_ti,2020.1.3,Win32,60,Chrome,1536,864,,,,,,,,,,,,,,,,,1,,,,,,,,,,,,,,,,,,,,,,,,,,,329.7883,39,right,0.56049,giraffe     ,7,3,2,1,3,329.804385,329.804385,332.296845,0,38,38,38,1,39,5,7,slipper     ,giraffe     ,html/resources/sequences_IDs/B/08_slipper.jpg,html/resources/sequences_IDs/B/03_giraffe.jpg,8,3,3,2,1,1,6,2,0,2,,,,,,,,,,,,,,,,,,,,
,,,,,2,2020-07-01_09h32.07.316,retriever_ti,2020.1.3,Win32,60,Chrome,1536,864,,,,,,,,,,,,,,,,,1,,,,,,,,,,,,,,,,,,,,,,,,,,,332.91229,40,right,0.95287,dress         ,6,7,1,1,1,332.92996,332.92996,335.42179,0,39,39,39,1,40,5,6,slipper     ,dress         ,html/resources/sequences_IDs/B/08_slipper.jpg,html/resources/sequences_IDs/A/07_dress.jpg,8,7,3,2,3,2,6,5,0,2,,,,,,,,,,,,,,,,,,,,
,,,,,2,2020-07-01_09h32.07.316,retriever_ti,2020.1.3,Win32,60,Chrome,1536,864,,,,,,,,,,,,,,,,,1,,,,,,,,,,,,,,,,,,,,,,,,,,,336.51902,41,left,0.4877,dress         ,6,7,4,1,3,336.53578,336.53578,339.028745,0,40,40,40,1,41,6,2,dress         ,satellite_dish,html/resources/sequences_IDs/A/07_dress.jpg,html/resources/sequences_IDs/A/10_satellite_dish.jpg,7,10,3,2,4,2,5,8,0,2,,,,,,,,,,,,,,,,,,,,
,,,,,2,2020-07-01_09h32.07.316,retriever_ti,2020.1.3,Win32,60,Chrome,1536,864,,,,,,,,,,,,,,,,,1,,,,,,,,,,,,,,,,,,,,,,,,,,,339.643815,42,right,0.66838,dress         ,6,7,1,1,1,339.67756,339.67756,342.16994,0,41,41,41,1,42,5,6,slipper     ,dress         ,html/resources/sequences_IDs/B/08_slipper.jpg,html/resources/sequences_IDs/A/07_dress.jpg,8,7,3,2,3,2,6,5,0,2,,,,,,,,,,,,,,,,,,,,
,,,,,2,2020-07-01_09h32.07.316,retriever_ti,2020.1.3,Win32,60,Chrome,1536,864,,,,,,,,,,,,,,,,,1,,,,,,,,,,,,,,,,,,,,,,,,,,,343.267775,43,left,0.506075,giraffe     ,7,3,6,1,3,343.28598,343.28598,345.7768,0,42,42,42,1,43,7,1,giraffe     ,phone       ,html/resources/sequences_IDs/B/03_giraffe.jpg,html/resources/sequences_IDs/B/09_phone.jpg,3,9,1,1,4,2,2,7,0,2,,,,,,,,,,,,,,,,,,,,
,,,,,2,2020-07-01_09h32.07.316,retriever_ti,2020.1.3,Win32,60,Chrome,1536,864,,,,,,,,,,,,,,,,,1,,,,,,,,,,,,,,,,,,,,,,,,,,,346.39319,44,right,0.76755,giraffe     ,7,3,1,1,0,346.40984,346.40984,348.901565,0,43,43,43,1,44,6,7,dress         ,giraffe     ,html/resources/sequences_IDs/A/07_dress.jpg,html/resources/sequences_IDs/B/03_giraffe.jpg,7,3,3,2,1,1,5,2,1,2,,,,,,,,,,,,,,,,,,,,
,,,,,2,2020-07-01_09h32.07.316,retriever_ti,2020.1.3,Win32,60,Chrome,1536,864,,,,,,,,,,,,,,,,,1,,,,,,,,,,,,,,,,,,,,,,,,,,,349.99978,45,right,0.69604,satellite_dish,2,10,-1,0,0,350.04972,350.04972,352.54175,0,44,44,44,1,45,3,2,parrot      ,satellite_dish,html/resources/sequences_IDs/B/05_parrot.jpg,html/resources/sequences_IDs/A/10_satellite_dish.jpg,5,10,2,1,4,2,4,8,0,2,,,,,,,,,,,,,,,,,,,,
,,,,,2,2020-07-01_09h32.07.316,retriever_ti,2020.1.3,Win32,60,Chrome,1536,864,,,,,,,,,,,,,,,,,1,,,,,,,,,,,,,,,,,,,,,,,,,,,353.639055,46,right,1.14612,parrot      ,3,5,-1,0,0,353.656825,353.656825,356.14868,0,45,45,45,1,46,4,3,clownfish     ,parrot      ,html/resources/sequences_IDs/A/04_clownfish.jpg,html/resources/sequences_IDs/B/05_parrot.jpg,4,5,2,1,2,1,3,4,0,2,,,,,,,,,,,,,,,,,,,,
,,,,,2,2020-07-01_09h32.07.316,retriever_ti,2020.1.3,Win32,60,Chrome,1536,864,,,,,,,,,,,,,,,,,1,,,,,,,,,,,,,,,,,,,,,,,,,,,357.378855,47,left,0.58545,giraffe     ,7,3,-1,0,0,357.396125,357.396125,359.88829,0,46,46,46,1,47,7,8,giraffe     ,seaturtle     ,html/resources/sequences_IDs/B/03_giraffe.jpg,html/resources/sequences_IDs/A/02_seaturtle.jpg,3,2,1,1,2,1,2,1,0,2,,,,,,,,,,,,,,,,,,,,
,,,,,2,2020-07-01_09h32.07.316,retriever_ti,2020.1.3,Win32,60,Chrome,1536,864,,,,,,,,,,,,,,,,,1,,,,,,,,,,,,,,,,,,,,,,,,,,,360.987665,48,right,0.69761,parrot      ,3,5,2,1,3,361.003795,361.003795,363.494955,0,47,47,47,1,48,1,3,phone       ,parrot      ,html/resources/sequences_IDs/B/09_phone.jpg,html/resources/sequences_IDs/B/05_parrot.jpg,9,5,4,2,2,1,7,4,0,2,,,,,,,,,,,,,,,,,,,,
,,,,,2,2020-07-01_09h32.07.316,retriever_ti,2020.1.3,Win32,60,Chrome,1536,864,,,,,,,,,,,,,,,,,1,,,,,,,,,,,,,,,,,,,,,,,,,,,364.111545,49,right,0.82539,dress         ,6,7,2,1,3,364.14429,364.14429,366.63658,0,48,48,48,1,49,4,6,clownfish     ,dress         ,html/resources/sequences_IDs/A/04_clownfish.jpg,html/resources/sequences_IDs/A/07_dress.jpg,4,7,2,1,3,2,3,5,0,2,,,,,,,,,,,,,,,,,,,,
,,,,,2,2020-07-01_09h32.07.316,retriever_ti,2020.1.3,Win32,60,Chrome,1536,864,,,,,,,,,,,,,,,,,1,,,,,,,,,,,,,,,,,,,,,,,,,,,367.252035,50,right,1.119875,satellite_dish,2,10,1,1,1,367.286255,367.286255,369.77805,0,49,49,49,1,50,1,2,phone       ,satellite_dish,html/resources/sequences_IDs/B/09_phone.jpg,html/resources/sequences_IDs/A/10_satellite_dish.jpg,9,10,4,2,4,2,7,8,0,2,,,,,,,,,,,,,,,,,,,,
,,,,,2,2020-07-01_09h32.07.316,retriever_ti,2020.1.3,Win32,60,Chrome,1536,864,,,,,,,,,,,,,,,,,1,,,,,,,,,,,,,,,,,,,,,,,,,,,370.875335,51,left,1.237665,seaturtle     ,8,2,6,1,3,370.89202,370.89202,373.384585,0,50,50,50,1,51,8,2,seaturtle     ,satellite_dish,html/resources/sequences_IDs/A/02_seaturtle.jpg,html/resources/sequences_IDs/A/10_satellite_dish.jpg,2,10,2,1,4,2,1,8,0,2,,,,,,,,,,,,,,,,,,,,
,,,,,2,2020-07-01_09h32.07.316,retriever_ti,2020.1.3,Win32,60,Chrome,1536,864,,,,,,,,,,,,,,,,,1,,,,,,,,,,,,,,,,,,,,,,,,,,,374.000445,52,left,0.76852,giraffe     ,7,3,5,1,3,374.03362,374.03362,376.5263,0,51,51,51,1,52,7,2,giraffe     ,satellite_dish,html/resources/sequences_IDs/B/03_giraffe.jpg,html/resources/sequences_IDs/A/10_satellite_dish.jpg,3,10,1,1,4,2,2,8,0,2,,,,,,,,,,,,,,,,,,,,
,,,,,2,2020-07-01_09h32.07.316,retriever_ti,2020.1.3,Win32,60,Chrome,1536,864,,,,,,,,,,,,,,,,,1,,,,,,,,,,,,,,,,,,,,,,,,,,,377.141625,53,right,0.96597,satellite_dish,2,10,-1,0,0,377.1748,377.1748,379.667725,0,52,52,52,1,53,3,2,parrot      ,satellite_dish,html/resources/sequences_IDs/B/05_parrot.jpg,html/resources/sequences_IDs/A/10_satellite_dish.jpg,5,10,2,1,4,2,4,8,0,2,,,,,,,,,,,,,,,,,,,,
,,,,,2,2020-07-01_09h32.07.316,retriever_ti,2020.1.3,Win32,60,Chrome,1536,864,,,,,,,,,,,,,,,,,1,,,,,,,,,,,,,,,,,,,,,,,,,,,380.765165,54,right,1.105375,clownfish     ,4,4,1,1,1,380.782185,380.782185,383.274365,0,53,53,53,1,54,3,4,parrot      ,clownfish     ,html/resources/sequences_IDs/B/05_parrot.jpg,html/resources/sequences_IDs/A/04_clownfish.jpg,5,4,2,1,2,1,4,3,0,2,,,,,,,,,,,,,,,,,,,,
,,,,,2,2020-07-01_09h32.07.316,retriever_ti,2020.1.3,Win32,60,Chrome,1536,864,,,,,,,,,,,,,,,,,1,,,,,,,,,,,,,,,,,,,,,,,,,,,384.372785,55,right,0.767485,giraffe     ,7,3,4,1,3,384.40552,384.40552,386.897765,0,54,54,54,1,55,3,7,parrot      ,giraffe     ,html/resources/sequences_IDs/B/05_parrot.jpg,html/resources/sequences_IDs/B/03_giraffe.jpg,5,3,2,1,1,1,4,2,0,2,,,,,,,,,,,,,,,,,,,,
,,,,,2,2020-07-01_09h32.07.316,retriever_ti,2020.1.3,Win32,60,Chrome,1536,864,,,,,,,,,,,,,,,,,1,,,,,,,,,,,,,,,,,,,,,,,,,,,387.51398,56,left,1.07547,satellite_dish,2,10,-2,0,3,387.548905,387.548905,390.039295,0,55,55,55,1,56,2,4,satellite_dish,clownfish     ,html/resources/sequences_IDs/A/10_satellite_dish.jpg,html/resources/sequences_IDs/A/04_clownfish.jpg,10,4,4,2,2,1,8,3,0,2,,,,,,,,,,,,,,,,,,,,
,,,,,2,2020-07-01_09h32.07.316,retriever_ti,2020.1.3,Win32,60,Chrome,1536,864,,,,,,,,,,,,,,,,,1,,,,,,,,,,,,,,,,,,,,,,,,,,,390.655425,57,right,0.628945,satellite_dish,2,10,1,1,1,390.68851,390.68851,393.180955,0,56,56,56,1,57,1,2,phone       ,satellite_dish,html/resources/sequences_IDs/B/09_phone.jpg,html/resources/sequences_IDs/A/10_satellite_dish.jpg,9,10,4,2,4,2,7,8,0,2,,,,,,,,,,,,,,,,,,,,
,,,,,2,2020-07-01_09h32.07.316,retriever_ti,2020.1.3,Win32,60,Chrome,1536,864,,,,,,,,,,,,,,,,,1,,,,,,,,,,,,,,,,,,,,,,,,,,,394.27964,58,left,1.07376,seaturtle     ,8,2,7,1,3,394.313215,394.313215,396.804565,0,57,57,57,1,58,8,1,seaturtle     ,phone       ,html/resources/sequences_IDs/A/02_seaturtle.jpg,html/resources/sequences_IDs/B/09_phone.jpg,2,9,2,1,4,2,1,7,0,2,,,,,,,,,,,,,,,,,,,,
,,,,,2,2020-07-01_09h32.07.316,retriever_ti,2020.1.3,Win32,60,Chrome,1536,864,,,,,,,,,,,,,,,,,1,,,,,,,,,,,,,,,,,,,,,,,,,,,397.419595,59,left,0.686105,seaturtle     ,8,2,3,1,3,397.45405,397.45405,399.945455,0,58,58,58,1,59,8,5,seaturtle     ,slipper     ,html/resources/sequences_IDs/A/02_seaturtle.jpg,html/resources/sequences_IDs/B/08_slipper.jpg,2,8,2,1,3,2,1,6,0,2,,,,,,,,,,,,,,,,,,,,
,,,,,2,2020-07-01_09h32.07.316,retriever_ti,2020.1.3,Win32,60,Chrome,1536,864,,,,,,,,,,,,,,,,,1,,,,,,,,,,,,,,,,,,,,,,,,,,,400.56226,60,right,0.86824,clownfish     ,4,4,-1,0,0,400.59503,400.59503,403.087075,0,59,59,59,1,60,5,4,slipper     ,clownfish     ,html/resources/sequences_IDs/B/08_slipper.jpg,html/resources/sequences_IDs/A/04_clownfish.jpg,8,4,3,2,2,1,6,3,0,2,,,,,,,,,,,,,,,,,,,,
,,,,,2,2020-07-01_09h32.07.316,retriever_ti,2020.1.3,Win32,60,Chrome,1536,864,,,,,,,,,,,,,,,,,1,,,,,,,,,,,,,,,,,,,,,,,,,,,404.184325,61,left,0.541145,giraffe     ,7,3,1,1,1,404.20127,404.20127,406.693645,0,60,60,60,1,61,7,6,giraffe     ,dress         ,html/resources/sequences_IDs/B/03_giraffe.jpg,html/resources/sequences_IDs/A/07_dress.jpg,3,7,1,1,3,2,2,5,0,2,,,,,,,,,,,,,,,,,,,,
,,,,,2,2020-07-01_09h32.07.316,retriever_ti,2020.1.3,Win32,60,Chrome,1536,864,,,,,,,,,,,,,,,,,1,,,,,,,,,,,,,,,,,,,,,,,,,,,407.7922,62,left,0.53523,dress         ,6,7,5,1,3,407.82598,407.82598,410.317255,0,61,61,61,1,62,6,1,dress         ,phone       ,html/resources/sequences_IDs/A/07_dress.jpg,html/resources/sequences_IDs/B/09_phone.jpg,7,9,3,2,4,2,5,7,0,2,,,,,,,,,,,,,,,,,,,,
,,,,,2,2020-07-01_09h32.07.316,retriever_ti,2020.1.3,Win32,60,Chrome,1536,864,,,,,,,,,,,,,,,,,1,,,,,,,,,,,,,,,,,,,,,,,,,,,410.93367,63,right,1.158045,seaturtle     ,8,2,4,1,3,410.951915,410.951915,413.44203,0,62,62,62,1,63,4,8,clownfish     ,seaturtle     ,html/resources/sequences_IDs/A/04_clownfish.jpg,html/resources/sequences_IDs/A/02_seaturtle.jpg,4,2,2,1,2,1,3,1,0,2,,,,,,,,,,,,,,,,,,,,
,,,,,2,2020-07-01_09h32.07.316,retriever_ti,2020.1.3,Win32,60,Chrome,1536,864,,,,,,,,,,,,,,,,,1,,,,,,,,,,,,,,,,,,,,,,,,,,,414.058745,64,right,0.591115,giraffe     ,7,3,6,1,3,414.093255,414.093255,416.58346,0,63,63,63,1,64,1,7,phone       ,giraffe     ,html/resources/sequences_IDs/B/09_phone.jpg,html/resources/sequences_IDs/B/03_giraffe.jpg,9,3,4,2,1,1,7,2,0,2,,,,,,,,,,,,,,,,,,,,
,,,,,2,2020-07-01_09h32.07.316,retriever_ti,2020.1.3,Win32,60,Chrome,1536,864,,,,,,,,,,,,,,,,,1,,,,,,,,,,,,,,,,,,,,,,,,,,,417.38195,65,right,0.69471,giraffe     ,7,3,1,1,1,417.41702,417.41702,419.9079,0,64,64,64,1,65,6,7,dress         ,giraffe     ,html/resources/sequences_IDs/A/07_dress.jpg,html/resources/sequences_IDs/B/03_giraffe.jpg,7,3,3,2,1,1,5,2,0,2,,,,,,,,,,,,,,,,,,,,
,,,,,2,2020-07-01_09h32.07.316,retriever_ti,2020.1.3,Win32,60,Chrome,1536,864,,,,,,,,,,,,,,,,,1,,,,,,,,,,,,,,,,,,,,,,,,,,,421.005125,66,left,0.667035,seaturtle     ,8,2,4,1,3,421.022625,421.022625,423.514525,0,65,65,65,1,66,8,4,seaturtle     ,clownfish     ,html/resources/sequences_IDs/A/02_seaturtle.jpg,html/resources/sequences_IDs/A/04_clownfish.jpg,2,4,2,1,2,1,1,3,0,2,,,,,,,,,,,,,,,,,,,,
,,,,,2,2020-07-01_09h32.07.316,retriever_ti,2020.1.3,Win32,60,Chrome,1536,864,,,,,,,,,,,,,,,,,1,,,,,,,,,,,,,,,,,,,,,,,,,,,424.130045,67,left,0.649725,satellite_dish,2,10,-1,0,1,424.163135,424.163135,426.65599,0,66,66,66,1,67,2,3,satellite_dish,parrot      ,html/resources/sequences_IDs/A/10_satellite_dish.jpg,html/resources/sequences_IDs/B/05_parrot.jpg,10,5,4,2,2,1,8,4,1,2,,,,,,,,,,,,,,,,,,,,
,,,,,2,2020-07-01_09h32.07.316,retriever_ti,2020.1.3,Win32,60,Chrome,1536,864,,,,,,,,,,,,,,,,,1,,,,,,,,,,,,,,,,,,,,,,,,,,,427.755125,68,right,0.94918,clownfish     ,4,4,3,1,3,427.78952,427.78952,430.27946,0,67,67,67,1,68,1,4,phone       ,clownfish     ,html/resources/sequences_IDs/B/09_phone.jpg,html/resources/sequences_IDs/A/04_clownfish.jpg,9,4,4,2,2,1,7,3,0,2,,,,,,,,,,,,,,,,,,,,
,,,,,2,2020-07-01_09h32.07.316,retriever_ti,2020.1.3,Win32,60,Chrome,1536,864,,,,,,,,,,,,,,,,,1,,,,,,,,,,,,,,,,,,,,,,,,,,,430.89485,69,right,0.56222,satellite_dish,2,10,-2,0,3,430.914055,430.914055,433.404365,0,68,68,68,1,69,4,2,clownfish     ,satellite_dish,html/resources/sequences_IDs/A/04_clownfish.jpg,html/resources/sequences_IDs/A/10_satellite_dish.jpg,4,10,2,1,4,2,3,8,0,2,,,,,,,,,,,,,,,,,,,,
,,,,,2,2020-07-01_09h32.07.316,retriever_ti,2020.1.3,Win32,60,Chrome,1536,864,,,,,,,,,,,,,,,,,1,,,,,,,,,,,,,,,,,,,,,,,,,,,434.020655,70,right,0.678655,seaturtle     ,8,2,7,1,3,434.03793,434.03793,436.52923,0,69,69,69,1,70,1,8,phone       ,seaturtle     ,html/resources/sequences_IDs/B/09_phone.jpg,html/resources/sequences_IDs/A/02_seaturtle.jpg,9,2,4,2,2,1,7,1,0,2,,,,,,,,,,,,,,,,,,,,
,,,,,2,2020-07-01_09h32.07.316,retriever_ti,2020.1.3,Win32,60,Chrome,1536,864,,,,,,,,,,,,,,,,,1,,,,,,,,,,,,,,,,,,,,,,,,,,,437.14509,71,left,0.57892,clownfish     ,4,4,3,1,3,437.162905,437.162905,439.6538,0,70,70,70,1,71,4,1,clownfish     ,phone       ,html/resources/sequences_IDs/A/04_clownfish.jpg,html/resources/sequences_IDs/B/09_phone.jpg,4,9,2,1,4,2,3,7,0,2,,,,,,,,,,,,,,,,,,,,
,,,,,2,2020-07-01_09h32.07.316,retriever_ti,2020.1.3,Win32,60,Chrome,1536,864,,,,,,,,,,,,,,,,,1,,,,,,,,,,,,,,,,,,,,,,,,,,,440.270015,72,right,0.862775,parrot      ,3,5,-1,0,0,440.286935,440.286935,442.778865,0,71,71,71,1,72,4,3,clownfish     ,parrot      ,html/resources/sequences_IDs/A/04_clownfish.jpg,html/resources/sequences_IDs/B/05_parrot.jpg,4,5,2,1,2,1,3,4,0,2,,,,,,,,,,,,,,,,,,,,
,,,,,2,2020-07-01_09h32.07.316,retriever_ti,2020.1.3,Win32,60,Chrome,1536,864,,,,,,,,,,,,,,,,,1,,,,,,,,,,,,,,,,,,,,,,,,,,,443.87682,73,left,0.572185,satellite_dish,2,10,1,1,1,443.910985,443.910985,446.46839,0,72,72,72,1,73,2,1,satellite_dish,phone       ,html/resources/sequences_IDs/A/10_satellite_dish.jpg,html/resources/sequences_IDs/B/09_phone.jpg,10,9,4,2,4,2,8,7,0,2,,,,,,,,,,,,,,,,,,,,
,,,,,2,2020-07-01_09h32.07.316,retriever_ti,2020.1.3,Win32,60,Chrome,1536,864,,,,,,,,,,,,,,,,,1,,,,,,,,,,,,,,,,,,,,,,,,,,,447.566185,74,right,0.64465,giraffe     ,7,3,-1,0,0,447.601735,447.601735,450.091905,0,73,73,73,1,74,8,7,seaturtle     ,giraffe     ,html/resources/sequences_IDs/A/02_seaturtle.jpg,html/resources/sequences_IDs/B/03_giraffe.jpg,2,3,2,1,1,1,1,2,0,2,,,,,,,,,,,,,,,,,,,,
,,,,,2,2020-07-01_09h32.07.316,retriever_ti,2020.1.3,Win32,60,Chrome,1536,864,,,,,,,,,,,,,,,,,1,,,,,,,,,,,,,,,,,,,,,,,,,,,451.189625,75,left,0.566105,satellite_dish,2,10,-1,0,0,451.22263,451.22263,453.71546,0,74,74,74,1,75,2,3,satellite_dish,parrot      ,html/resources/sequences_IDs/A/10_satellite_dish.jpg,html/resources/sequences_IDs/B/05_parrot.jpg,10,5,4,2,2,1,8,4,0,2,,,,,,,,,,,,,,,,,,,,
,,,,,2,2020-07-01_09h32.07.316,retriever_ti,2020.1.3,Win32,60,Chrome,1536,864,,,,,,,,,,,,,,,,,1,,,,,,,,,,,,,,,,,,,,,,,,,,,454.81392,76,left,0.68235,satellite_dish,2,10,1,1,0,454.846535,454.846535,457.33893,0,75,75,75,1,76,2,1,satellite_dish,phone       ,html/resources/sequences_IDs/A/10_satellite_dish.jpg,html/resources/sequences_IDs/B/09_phone.jpg,10,9,4,2,4,2,8,7,1,2,,,,,,,,,,,,,,,,,,,,
,,,,,2,2020-07-01_09h32.07.316,retriever_ti,2020.1.3,Win32,60,Chrome,1536,864,,,,,,,,,,,,,,,,,1,,,,,,,,,,,,,,,,,,,,,,,,,,,458.4372,77,left,1.18404,satellite_dish,2,10,-6,0,3,458.47163,458.47163,460.96236,0,76,76,76,1,77,2,8,satellite_dish,seaturtle     ,html/resources/sequences_IDs/A/10_satellite_dish.jpg,html/resources/sequences_IDs/A/02_seaturtle.jpg,10,2,4,2,2,1,8,1,0,2,,,,,,,,,,,,,,,,,,,,
,,,,,2,2020-07-01_09h32.07.316,retriever_ti,2020.1.3,Win32,60,Chrome,1536,864,,,,,,,,,,,,,,,,,,,,,,,,,,,,,,,,,,,,,0,3.828265,,,,,,,,,,,,,,,,,,,,,,,,,,,,,,,,,,,,,,,,,0,0,0,0,1,,,,,,,,,,,,,,,
,,,,,2,2020-07-01_09h32.07.316,retriever_ti,2020.1.3,Win32,60,Chrome,1536,864,,,,,,,,,,,,,,,,,2,,,,,,,,,,,,,,,,,,,,,,,,,,,476.73195,78,left,0.52934,seaturtle     ,8,2,3,1,3,476.75315,476.75315,479.245915,0,0,0,0,1,78,8,5,seaturtle     ,slipper     ,html/resources/sequences_IDs/A/02_seaturtle.jpg,html/resources/sequences_IDs/B/08_slipper.jpg,2,8,2,1,3,2,1,6,0,2,,,,,,,,,,,,,,,,,,,,
,,,,,2,2020-07-01_09h32.07.316,retriever_ti,2020.1.3,Win32,60,Chrome,1536,864,,,,,,,,,,,,,,,,,2,,,,,,,,,,,,,,,,,,,,,,,,,,,479.86117,79,right,0.61604,giraffe     ,7,3,1,1,1,479.878675,479.878675,482.370985,0,1,1,1,1,79,6,7,dress         ,giraffe     ,html/resources/sequences_IDs/A/07_dress.jpg,html/resources/sequences_IDs/B/03_giraffe.jpg,7,3,3,2,1,1,5,2,0,2,,,,,,,,,,,,,,,,,,,,
,,,,,2,2020-07-01_09h32.07.316,retriever_ti,2020.1.3,Win32,60,Chrome,1536,864,,,,,,,,,,,,,,,,,2,,,,,,,,,,,,,,,,,,,,,,,,,,,483.46982,80,right,0.505505,clownfish     ,4,4,-1,0,1,483.503195,483.503195,485.993885,0,2,2,2,1,80,5,4,slipper     ,clownfish     ,html/resources/sequences_IDs/B/08_slipper.jpg,html/resources/sequences_IDs/A/04_clownfish.jpg,8,4,3,2,2,1,6,3,1,2,,,,,,,,,,,,,,,,,,,,
,,,,,2,2020-07-01_09h32.07.316,retriever_ti,2020.1.3,Win32,60,Chrome,1536,864,,,,,,,,,,,,,,,,,2,,,,,,,,,,,,,,,,,,,,,,,,,,,487.09249,81,left,0.414185,seaturtle     ,8,2,7,1,3,487.10994,487.10994,489.60082,0,3,3,3,1,81,8,1,seaturtle     ,phone       ,html/resources/sequences_IDs/A/02_seaturtle.jpg,html/resources/sequences_IDs/B/09_phone.jpg,2,9,2,1,4,2,1,7,0,2,,,,,,,,,,,,,,,,,,,,
,,,,,2,2020-07-01_09h32.07.316,retriever_ti,2020.1.3,Win32,60,Chrome,1536,864,,,,,,,,,,,,,,,,,2,,,,,,,,,,,,,,,,,,,,,,,,,,,490.2164,82,right,0.643885,dress         ,6,7,2,1,3,490.233975,490.233975,492.72557,0,4,4,4,1,82,4,6,clownfish     ,dress         ,html/resources/sequences_IDs/A/04_clownfish.jpg,html/resources/sequences_IDs/A/07_dress.jpg,4,7,2,1,3,2,3,5,0,2,,,,,,,,,,,,,,,,,,,,
,,,,,2,2020-07-01_09h32.07.316,retriever_ti,2020.1.3,Win32,60,Chrome,1536,864,,,,,,,,,,,,,,,,,2,,,,,,,,,,,,,,,,,,,,,,,,,,,493.343515,83,left,0.525235,satellite_dish,2,10,1,1,0,493.36059,493.36059,495.85049,0,5,5,5,1,83,2,1,satellite_dish,phone       ,html/resources/sequences_IDs/A/10_satellite_dish.jpg,html/resources/sequences_IDs/B/09_phone.jpg,10,9,4,2,4,2,8,7,1,2,,,,,,,,,,,,,,,,,,,,
,,,,,2,2020-07-01_09h32.07.316,retriever_ti,2020.1.3,Win32,60,Chrome,1536,864,,,,,,,,,,,,,,,,,2,,,,,,,,,,,,,,,,,,,,,,,,,,,496.94857,84,right,0.49617,dress         ,6,7,1,1,0,496.9818,496.9818,499.474305,0,6,6,6,1,84,5,6,slipper     ,dress         ,html/resources/sequences_IDs/B/08_slipper.jpg,html/resources/sequences_IDs/A/07_dress.jpg,8,7,3,2,3,2,6,5,1,2,,,,,,,,,,,,,,,,,,,,
,,,,,2,2020-07-01_09h32.07.316,retriever_ti,2020.1.3,Win32,60,Chrome,1536,864,,,,,,,,,,,,,,,,,2,,,,,,,,,,,,,,,,,,,,,,,,,,,500.571895,85,left,0.45201,dress         ,6,7,-1,0,1,500.589585,500.589585,503.08047,0,7,7,7,1,85,6,7,dress         ,giraffe     ,html/resources/sequences_IDs/A/07_dress.jpg,html/resources/sequences_IDs/B/03_giraffe.jpg,7,3,3,2,1,1,5,2,1,2,,,,,,,,,,,,,,,,,,,,
,,,,,2,2020-07-01_09h32.07.316,retriever_ti,2020.1.3,Win32,60,Chrome,1536,864,,,,,,,,,,,,,,,,,2,,,,,,,,,,,,,,,,,,,,,,,,,,,504.17808,86,right,0.483455,giraffe     ,7,3,2,1,3,504.19473,504.19473,506.687465,0,8,8,8,1,86,5,7,slipper     ,giraffe     ,html/resources/sequences_IDs/B/08_slipper.jpg,html/resources/sequences_IDs/B/03_giraffe.jpg,8,3,3,2,1,1,6,2,0,2,,,,,,,,,,,,,,,,,,,,
,,,,,2,2020-07-01_09h32.07.316,retriever_ti,2020.1.3,Win32,60,Chrome,1536,864,,,,,,,,,,,,,,,,,2,,,,,,,,,,,,,,,,,,,,,,,,,,,507.30358,87,right,0.883935,dress         ,6,7,-1,0,0,507.320895,507.320895,509.812185,0,9,9,9,1,87,7,6,giraffe     ,dress         ,html/resources/sequences_IDs/B/03_giraffe.jpg,html/resources/sequences_IDs/A/07_dress.jpg,3,7,1,1,3,2,2,5,0,2,,,,,,,,,,,,,,,,,,,,
,,,,,2,2020-07-01_09h32.07.316,retriever_ti,2020.1.3,Win32,60,Chrome,1536,864,,,,,,,,,,,,,,,,,2,,,,,,,,,,,,,,,,,,,,,,,,,,,510.911175,88,left,0.80403,slipper     ,5,8,4,1,3,510.943805,510.943805,513.436025,0,10,10,10,1,88,5,1,slipper     ,phone       ,html/resources/sequences_IDs/B/08_slipper.jpg,html/resources/sequences_IDs/B/09_phone.jpg,8,9,3,2,4,2,6,7,0,2,,,,,,,,,,,,,,,,,,,,
,,,,,2,2020-07-01_09h32.07.316,retriever_ti,2020.1.3,Win32,60,Chrome,1536,864,,,,,,,,,,,,,,,,,2,,,,,,,,,,,,,,,,,,,,,,,,,,,514.051635,89,left,0.578265,parrot      ,3,5,-2,0,3,514.0691,514.0691,516.693675,0,11,11,11,1,89,3,5,parrot      ,slipper     ,html/resources/sequences_IDs/B/05_parrot.jpg,html/resources/sequences_IDs/B/08_slipper.jpg,5,8,2,1,3,2,4,6,0,2,,,,,,,,,,,,,,,,,,,,
,,,,,2,2020-07-01_09h32.07.316,retriever_ti,2020.1.3,Win32,60,Chrome,1536,864,,,,,,,,,,,,,,,,,2,,,,,,,,,,,,,,,,,,,,,,,,,,,517.3101,90,right,0.595475,seaturtle     ,8,2,3,1,3,517.34511,517.34511,519.83486,0,12,12,12,1,90,5,8,slipper     ,seaturtle     ,html/resources/sequences_IDs/B/08_slipper.jpg,html/resources/sequences_IDs/A/02_seaturtle.jpg,8,2,3,2,2,1,6,1,0,2,,,,,,,,,,,,,,,,,,,,
,,,,,2,2020-07-01_09h32.07.316,retriever_ti,2020.1.3,Win32,60,Chrome,1536,864,,,,,,,,,,,,,,,,,2,,,,,,,,,,,,,,,,,,,,,,,,,,,520.45085,91,left,0.755595,giraffe     ,7,3,-1,0,0,520.468975,520.468975,522.959845,0,13,13,13,1,91,7,8,giraffe     ,seaturtle     ,html/resources/sequences_IDs/B/03_giraffe.jpg,html/resources/sequences_IDs/A/02_seaturtle.jpg,3,2,1,1,2,1,2,1,0,2,,,,,,,,,,,,,,,,,,,,
,,,,,2,2020-07-01_09h32.07.316,retriever_ti,2020.1.3,Win32,60,Chrome,1536,864,,,,,,,,,,,,,,,,,2,,,,,,,,,,,,,,,,,,,,,,,,,,,524.058475,92,right,0.63028,satellite_dish,2,10,1,1,1,524.091225,524.091225,526.5834,0,14,14,14,1,92,1,2,phone       ,satellite_dish,html/resources/sequences_IDs/B/09_phone.jpg,html/resources/sequences_IDs/A/10_satellite_dish.jpg,9,10,4,2,4,2,7,8,0,2,,,,,,,,,,,,,,,,,,,,
,,,,,2,2020-07-01_09h32.07.316,retriever_ti,2020.1.3,Win32,60,Chrome,1536,864,,,,,,,,,,,,,,,,,2,,,,,,,,,,,,,,,,,,,,,,,,,,,527.682365,93,left,0.67581,satellite_dish,2,10,-1,0,0,527.697845,527.697845,530.189865,0,15,15,15,1,93,2,3,satellite_dish,parrot      ,html/resources/sequences_IDs/A/10_satellite_dish.jpg,html/resources/sequences_IDs/B/05_parrot.jpg,10,5,4,2,2,1,8,4,0,2,,,,,,,,,,,,,,,,,,,,
,,,,,2,2020-07-01_09h32.07.316,retriever_ti,2020.1.3,Win32,60,Chrome,1536,864,,,,,,,,,,,,,,,,,2,,,,,,,,,,,,,,,,,,,,,,,,,,,531.28848,94,right,0.73287,satellite_dish,2,10,-1,0,0,531.32262,531.32262,533.813915,0,16,16,16,1,94,3,2,parrot      ,satellite_dish,html/resources/sequences_IDs/B/05_parrot.jpg,html/resources/sequences_IDs/A/10_satellite_dish.jpg,5,10,2,1,4,2,4,8,0,2,,,,,,,,,,,,,,,,,,,,
,,,,,2,2020-07-01_09h32.07.316,retriever_ti,2020.1.3,Win32,60,Chrome,1536,864,,,,,,,,,,,,,,,,,2,,,,,,,,,,,,,,,,,,,,,,,,,,,534.911115,95,right,1.018755,satellite_dish,2,10,-4,0,3,534.928415,534.928415,537.42007,0,17,17,17,1,95,6,2,dress         ,satellite_dish,html/resources/sequences_IDs/A/07_dress.jpg,html/resources/sequences_IDs/A/10_satellite_dish.jpg,7,10,3,2,4,2,5,8,0,2,,,,,,,,,,,,,,,,,,,,
,,,,,2,2020-07-01_09h32.07.316,retriever_ti,2020.1.3,Win32,60,Chrome,1536,864,,,,,,,,,,,,,,,,,2,,,,,,,,,,,,,,,,,,,,,,,,,,,538.03631,96,right,0.90933,seaturtle     ,8,2,4,1,3,538.071145,538.071145,540.56165,0,18,18,18,1,96,4,8,clownfish     ,seaturtle     ,html/resources/sequences_IDs/A/04_clownfish.jpg,html/resources/sequences_IDs/A/02_seaturtle.jpg,4,2,2,1,2,1,3,1,0,2,,,,,,,,,,,,,,,,,,,,
,,,,,2,2020-07-01_09h32.07.316,retriever_ti,2020.1.3,Win32,60,Chrome,1536,864,,,,,,,,,,,,,,,,,2,,,,,,,,,,,,,,,,,,,,,,,,,,,541.178295,97,right,0.868025,dress         ,6,7,5,1,3,541.195135,541.195135,543.686525,0,19,19,19,1,97,1,6,phone       ,dress         ,html/resources/sequences_IDs/B/09_phone.jpg,html/resources/sequences_IDs/A/07_dress.jpg,9,7,4,2,3,2,7,5,0,2,,,,,,,,,,,,,,,,,,,,
,,,,,2,2020-07-01_09h32.07.316,retriever_ti,2020.1.3,Win32,60,Chrome,1536,864,,,,,,,,,,,,,,,,,2,,,,,,,,,,,,,,,,,,,,,,,,,,,544.30261,98,right,0.87549,satellite_dish,2,10,-6,0,3,544.320225,544.320225,546.81109,0,20,20,20,1,98,8,2,seaturtle     ,satellite_dish,html/resources/sequences_IDs/A/02_seaturtle.jpg,html/resources/sequences_IDs/A/10_satellite_dish.jpg,2,10,2,1,4,2,1,8,0,2,,,,,,,,,,,,,,,,,,,,
,,,,,2,2020-07-01_09h32.07.316,retriever_ti,2020.1.3,Win32,60,Chrome,1536,864,,,,,,,,,,,,,,,,,2,,,,,,,,,,,,,,,,,,,,,,,,,,,547.576625,99,right,0.81569,dress         ,6,7,4,1,3,547.609755,547.609755,550.10243,0,21,21,21,1,99,2,6,satellite_dish,dress         ,html/resources/sequences_IDs/A/10_satellite_dish.jpg,html/resources/sequences_IDs/A/07_dress.jpg,10,7,4,2,3,2,8,5,0,2,,,,,,,,,,,,,,,,,,,,
,,,,,2,2020-07-01_09h32.07.316,retriever_ti,2020.1.3,Win32,60,Chrome,1536,864,,,,,,,,,,,,,,,,,2,,,,,,,,,,,,,,,,,,,,,,,,,,,550.71779,100,right,0.79665,dress         ,6,7,-1,0,0,550.75165,550.75165,553.243885,0,22,22,22,1,100,7,6,giraffe     ,dress         ,html/resources/sequences_IDs/B/03_giraffe.jpg,html/resources/sequences_IDs/A/07_dress.jpg,3,7,1,1,3,2,2,5,0,2,,,,,,,,,,,,,,,,,,,,
,,,,,2,2020-07-01_09h32.07.316,retriever_ti,2020.1.3,Win32,60,Chrome,1536,864,,,,,,,,,,,,,,,,,2,,,,,,,,,,,,,,,,,,,,,,,,,,,554.34118,101,left,0.7279,satellite_dish,2,10,-6,0,3,554.357915,554.357915,556.850575,0,23,23,23,1,101,2,8,satellite_dish,seaturtle     ,html/resources/sequences_IDs/A/10_satellite_dish.jpg,html/resources/sequences_IDs/A/02_seaturtle.jpg,10,2,4,2,2,1,8,1,0,2,,,,,,,,,,,,,,,,,,,,
,,,,,2,2020-07-01_09h32.07.316,retriever_ti,2020.1.3,Win32,60,Chrome,1536,864,,,,,,,,,,,,,,,,,2,,,,,,,,,,,,,,,,,,,,,,,,,,,557.46677,102,right,0.548155,giraffe     ,7,3,4,1,3,557.48345,557.48345,559.975155,0,24,24,24,1,102,3,7,parrot      ,giraffe     ,html/resources/sequences_IDs/B/05_parrot.jpg,html/resources/sequences_IDs/B/03_giraffe.jpg,5,3,2,1,1,1,4,2,0,2,,,,,,,,,,,,,,,,,,,,
,,,,,2,2020-07-01_09h32.07.316,retriever_ti,2020.1.3,Win32,60,Chrome,1536,864,,,,,,,,,,,,,,,,,2,,,,,,,,,,,,,,,,,,,,,,,,,,,560.59127,103,left,0.56065,satellite_dish,2,10,-1,0,0,560.608225,560.608225,563.10057,0,25,25,25,1,103,2,3,satellite_dish,parrot      ,html/resources/sequences_IDs/A/10_satellite_dish.jpg,html/resources/sequences_IDs/B/05_parrot.jpg,10,5,4,2,2,1,8,4,0,2,,,,,,,,,,,,,,,,,,,,
,,,,,2,2020-07-01_09h32.07.316,retriever_ti,2020.1.3,Win32,60,Chrome,1536,864,,,,,,,,,,,,,,,,,2,,,,,,,,,,,,,,,,,,,,,,,,,,,564.198805,104,right,0.59549,parrot      ,3,5,-2,0,3,564.23233,564.23233,566.723485,0,26,26,26,1,104,5,3,slipper     ,parrot      ,html/resources/sequences_IDs/B/08_slipper.jpg,html/resources/sequences_IDs/B/05_parrot.jpg,8,5,3,2,2,1,6,4,0,2,,,,,,,,,,,,,,,,,,,,
,,,,,2,2020-07-01_09h32.07.316,retriever_ti,2020.1.3,Win32,60,Chrome,1536,864,,,,,,,,,,,,,,,,,2,,,,,,,,,,,,,,,,,,,,,,,,,,,567.34022,105,left,0.83601,giraffe     ,7,3,4,1,3,567.357495,567.357495,569.84847,0,27,27,27,1,105,7,3,giraffe     ,parrot      ,html/resources/sequences_IDs/B/03_giraffe.jpg,html/resources/sequences_IDs/B/05_parrot.jpg,3,5,1,1,2,1,2,4,0,2,,,,,,,,,,,,,,,,,,,,
,,,,,2,2020-07-01_09h32.07.316,retriever_ti,2020.1.3,Win32,60,Chrome,1536,864,,,,,,,,,,,,,,,,,2,,,,,,,,,,,,,,,,,,,,,,,,,,,570.4639,106,left,0.747725,satellite_dish,2,10,-3,0,3,570.497525,570.497525,572.989865,0,28,28,28,1,106,2,5,satellite_dish,slipper     ,html/resources/sequences_IDs/A/10_satellite_dish.jpg,html/resources/sequences_IDs/B/08_slipper.jpg,10,8,4,2,3,2,8,6,0,2,,,,,,,,,,,,,,,,,,,,
,,,,,2,2020-07-01_09h32.07.316,retriever_ti,2020.1.3,Win32,60,Chrome,1536,864,,,,,,,,,,,,,,,,,2,,,,,,,,,,,,,,,,,,,,,,,,,,,573.606475,107,left,0.95834,giraffe     ,7,3,5,1,3,573.62237,573.62237,576.11463,0,29,29,29,1,107,7,2,giraffe     ,satellite_dish,html/resources/sequences_IDs/B/03_giraffe.jpg,html/resources/sequences_IDs/A/10_satellite_dish.jpg,3,10,1,1,4,2,2,8,0,2,,,,,,,,,,,,,,,,,,,,
,,,,,2,2020-07-01_09h32.07.316,retriever_ti,2020.1.3,Win32,60,Chrome,1536,864,,,,,,,,,,,,,,,,,2,,,,,,,,,,,,,,,,,,,,,,,,,,,576.730075,108,left,0.775165,dress         ,6,7,1,1,1,576.74679,576.74679,579.239275,0,30,30,30,1,108,6,5,dress         ,slipper     ,html/resources/sequences_IDs/A/07_dress.jpg,html/resources/sequences_IDs/B/08_slipper.jpg,7,8,3,2,3,2,5,6,0,2,,,,,,,,,,,,,,,,,,,,
,,,,,2,2020-07-01_09h32.07.316,retriever_ti,2020.1.3,Win32,60,Chrome,1536,864,,,,,,,,,,,,,,,,,2,,,,,,,,,,,,,,,,,,,,,,,,,,,580.337215,109,right,0.734165,satellite_dish,2,10,-2,0,3,580.353655,580.353655,582.846495,0,31,31,31,1,109,4,2,clownfish     ,satellite_dish,html/resources/sequences_IDs/A/04_clownfish.jpg,html/resources/sequences_IDs/A/10_satellite_dish.jpg,4,10,2,1,4,2,3,8,0,2,,,,,,,,,,,,,,,,,,,,
,,,,,2,2020-07-01_09h32.07.316,retriever_ti,2020.1.3,Win32,60,Chrome,1536,864,,,,,,,,,,,,,,,,,2,,,,,,,,,,,,,,,,,,,,,,,,,,,583.464125,110,right,0.772495,satellite_dish,2,10,1,1,1,583.480895,583.480895,585.971245,0,32,32,32,1,110,1,2,phone       ,satellite_dish,html/resources/sequences_IDs/B/09_phone.jpg,html/resources/sequences_IDs/A/10_satellite_dish.jpg,9,10,4,2,4,2,7,8,0,2,,,,,,,,,,,,,,,,,,,,
,,,,,2,2020-07-01_09h32.07.316,retriever_ti,2020.1.3,Win32,60,Chrome,1536,864,,,,,,,,,,,,,,,,,2,,,,,,,,,,,,,,,,,,,,,,,,,,,587.06908,111,left,1.04297,satellite_dish,2,10,1,1,1,587.085915,587.085915,589.578095,0,33,33,33,1,111,2,1,satellite_dish,phone       ,html/resources/sequences_IDs/A/10_satellite_dish.jpg,html/resources/sequences_IDs/B/09_phone.jpg,10,9,4,2,4,2,8,7,0,2,,,,,,,,,,,,,,,,,,,,
,,,,,2,2020-07-01_09h32.07.316,retriever_ti,2020.1.3,Win32,60,Chrome,1536,864,,,,,,,,,,,,,,,,,2,,,,,,,,,,,,,,,,,,,,,,,,,,,590.675285,112,left,0.595105,dress         ,6,7,1,1,1,590.69297,590.69297,593.184735,0,34,34,34,1,112,6,5,dress         ,slipper     ,html/resources/sequences_IDs/A/07_dress.jpg,html/resources/sequences_IDs/B/08_slipper.jpg,7,8,3,2,3,2,5,6,0,2,,,,,,,,,,,,,,,,,,,,
,,,,,2,2020-07-01_09h32.07.316,retriever_ti,2020.1.3,Win32,60,Chrome,1536,864,,,,,,,,,,,,,,,,,2,,,,,,,,,,,,,,,,,,,,,,,,,,,594.283095,113,left,0.75936,phone       ,1,9,-3,0,3,594.31647,594.31647,596.808285,0,35,35,35,1,113,1,4,phone       ,clownfish     ,html/resources/sequences_IDs/B/09_phone.jpg,html/resources/sequences_IDs/A/04_clownfish.jpg,9,4,4,2,2,1,7,3,0,2,,,,,,,,,,,,,,,,,,,,
,,,,,2,2020-07-01_09h32.07.316,retriever_ti,2020.1.3,Win32,60,Chrome,1536,864,,,,,,,,,,,,,,,,,2,,,,,,,,,,,,,,,,,,,,,,,,,,,597.42478,114,left,0.45983,satellite_dish,2,10,-1,0,1,597.458445,597.458445,599.94938,0,36,36,36,1,114,2,3,satellite_dish,parrot      ,html/resources/sequences_IDs/A/10_satellite_dish.jpg,html/resources/sequences_IDs/B/05_parrot.jpg,10,5,4,2,2,1,8,4,1,2,,,,,,,,,,,,,,,,,,,,
,,,,,2,2020-07-01_09h32.07.316,retriever_ti,2020.1.3,Win32,60,Chrome,1536,864,,,,,,,,,,,,,,,,,2,,,,,,,,,,,,,,,,,,,,,,,,,,,601.047975,115,left,0.530745,giraffe     ,7,3,2,1,3,601.0824,601.0824,603.573375,0,37,37,37,1,115,7,5,giraffe     ,slipper     ,html/resources/sequences_IDs/B/03_giraffe.jpg,html/resources/sequences_IDs/B/08_slipper.jpg,3,8,1,1,3,2,2,6,0,2,,,,,,,,,,,,,,,,,,,,
,,,,,2,2020-07-01_09h32.07.316,retriever_ti,2020.1.3,Win32,60,Chrome,1536,864,,,,,,,,,,,,,,,,,2,,,,,,,,,,,,,,,,,,,,,,,,,,,604.18892,116,right,0.532175,giraffe     ,7,3,6,1,3,604.224015,604.224015,606.71442,0,38,38,38,1,116,1,7,phone       ,giraffe     ,html/resources/sequences_IDs/B/09_phone.jpg,html/resources/sequences_IDs/B/03_giraffe.jpg,9,3,4,2,1,1,7,2,0,2,,,,,,,,,,,,,,,,,,,,
,,,,,2,2020-07-01_09h32.07.316,retriever_ti,2020.1.3,Win32,60,Chrome,1536,864,,,,,,,,,,,,,,,,,2,,,,,,,,,,,,,,,,,,,,,,,,,,,607.33101,117,left,0.90362,parrot      ,3,5,-1,0,0,607.351435,607.351435,609.839145,0,39,39,39,1,117,3,4,parrot      ,clownfish     ,html/resources/sequences_IDs/B/05_parrot.jpg,html/resources/sequences_IDs/A/04_clownfish.jpg,5,4,2,1,2,1,4,3,0,2,,,,,,,,,,,,,,,,,,,,
,,,,,2,2020-07-01_09h32.07.316,retriever_ti,2020.1.3,Win32,60,Chrome,1536,864,,,,,,,,,,,,,,,,,2,,,,,,,,,,,,,,,,,,,,,,,,,,,610.936675,118,left,0.49643,parrot      ,3,5,2,1,3,610.970025,610.970025,613.4628,0,40,40,40,1,118,3,1,parrot      ,phone       ,html/resources/sequences_IDs/B/05_parrot.jpg,html/resources/sequences_IDs/B/09_phone.jpg,5,9,2,1,4,2,4,7,0,2,,,,,,,,,,,,,,,,,,,,
,,,,,2,2020-07-01_09h32.07.316,retriever_ti,2020.1.3,Win32,60,Chrome,1536,864,,,,,,,,,,,,,,,,,2,,,,,,,,,,,,,,,,,,,,,,,,,,,614.078005,119,left,0.626755,giraffe     ,7,3,-1,0,0,614.111685,614.111685,616.60446,0,41,41,41,1,119,7,8,giraffe     ,seaturtle     ,html/resources/sequences_IDs/B/03_giraffe.jpg,html/resources/sequences_IDs/A/02_seaturtle.jpg,3,2,1,1,2,1,2,1,0,2,,,,,,,,,,,,,,,,,,,,
,,,,,2,2020-07-01_09h32.07.316,retriever_ti,2020.1.3,Win32,60,Chrome,1536,864,,,,,,,,,,,,,,,,,2,,,,,,,,,,,,,,,,,,,,,,,,,,,617.70239,120,left,0.82354,phone       ,1,9,-4,0,3,617.736095,617.736095,620.22798,0,42,42,42,1,120,1,5,phone       ,slipper     ,html/resources/sequences_IDs/B/09_phone.jpg,html/resources/sequences_IDs/B/08_slipper.jpg,9,8,4,2,3,2,7,6,0,2,,,,,,,,,,,,,,,,,,,,
,,,,,2,2020-07-01_09h32.07.316,retriever_ti,2020.1.3,Win32,60,Chrome,1536,864,,,,,,,,,,,,,,,,,2,,,,,,,,,,,,,,,,,,,,,,,,,,,620.843255,121,left,0.698155,parrot      ,3,5,-5,0,3,620.87664,620.87664,623.368835,0,43,43,43,1,121,3,8,parrot      ,seaturtle     ,html/resources/sequences_IDs/B/05_parrot.jpg,html/resources/sequences_IDs/A/02_seaturtle.jpg,5,2,2,1,2,1,4,1,0,2,,,,,,,,,,,,,,,,,,,,
,,,,,2,2020-07-01_09h32.07.316,retriever_ti,2020.1.3,Win32,60,Chrome,1536,864,,,,,,,,,,,,,,,,,2,,,,,,,,,,,,,,,,,,,,,,,,,,,623.984945,122,right,0.66613,giraffe     ,7,3,3,1,3,624.018765,624.018765,626.51012,0,44,44,44,1,122,4,7,clownfish     ,giraffe     ,html/resources/sequences_IDs/A/04_clownfish.jpg,html/resources/sequences_IDs/B/03_giraffe.jpg,4,3,2,1,1,1,3,2,0,2,,,,,,,,,,,,,,,,,,,,
,,,,,2,2020-07-01_09h32.07.316,retriever_ti,2020.1.3,Win32,60,Chrome,1536,864,,,,,,,,,,,,,,,,,2,,,,,,,,,,,,,,,,,,,,,,,,,,,627.127025,123,left,0.44797,giraffe     ,7,3,6,1,3,627.145315,627.145315,629.635225,0,45,45,45,1,123,7,1,giraffe     ,phone       ,html/resources/sequences_IDs/B/03_giraffe.jpg,html/resources/sequences_IDs/B/09_phone.jpg,3,9,1,1,4,2,2,7,0,2,,,,,,,,,,,,,,,,,,,,
,,,,,2,2020-07-01_09h32.07.316,retriever_ti,2020.1.3,Win32,60,Chrome,1536,864,,,,,,,,,,,,,,,,,2,,,,,,,,,,,,,,,,,,,,,,,,,,,630.251,124,right,0.73825,satellite_dish,2,10,-1,0,0,630.28509,630.28509,632.776455,0,46,46,46,1,124,3,2,parrot      ,satellite_dish,html/resources/sequences_IDs/B/05_parrot.jpg,html/resources/sequences_IDs/A/10_satellite_dish.jpg,5,10,2,1,4,2,4,8,0,2,,,,,,,,,,,,,,,,,,,,
,,,,,2,2020-07-01_09h32.07.316,retriever_ti,2020.1.3,Win32,60,Chrome,1536,864,,,,,,,,,,,,,,,,,2,,,,,,,,,,,,,,,,,,,,,,,,,,,633.875005,125,left,0.604835,parrot      ,3,5,-1,0,0,633.90853,633.90853,636.39997,0,47,47,47,1,125,3,4,parrot      ,clownfish     ,html/resources/sequences_IDs/B/05_parrot.jpg,html/resources/sequences_IDs/A/04_clownfish.jpg,5,4,2,1,2,1,4,3,0,2,,,,,,,,,,,,,,,,,,,,
,,,,,2,2020-07-01_09h32.07.316,retriever_ti,2020.1.3,Win32,60,Chrome,1536,864,,,,,,,,,,,,,,,,,2,,,,,,,,,,,,,,,,,,,,,,,,,,,637.498145,126,right,0.6064,clownfish     ,4,4,1,1,0,637.53123,637.53123,640.0234,0,48,48,48,1,126,3,4,parrot      ,clownfish     ,html/resources/sequences_IDs/B/05_parrot.jpg,html/resources/sequences_IDs/A/04_clownfish.jpg,5,4,2,1,2,1,4,3,1,2,,,,,,,,,,,,,,,,,,,,
,,,,,2,2020-07-01_09h32.07.316,retriever_ti,2020.1.3,Win32,60,Chrome,1536,864,,,,,,,,,,,,,,,,,2,,,,,,,,,,,,,,,,,,,,,,,,,,,641.121645,127,left,0.562335,clownfish     ,4,4,-1,0,0,641.139,641.139,643.63053,0,49,49,49,1,127,4,5,clownfish     ,slipper     ,html/resources/sequences_IDs/A/04_clownfish.jpg,html/resources/sequences_IDs/B/08_slipper.jpg,4,8,2,1,3,2,3,6,0,2,,,,,,,,,,,,,,,,,,,,
,,,,,2,2020-07-01_09h32.07.316,retriever_ti,2020.1.3,Win32,60,Chrome,1536,864,,,,,,,,,,,,,,,,,2,,,,,,,,,,,,,,,,,,,,,,,,,,,644.72796,128,right,0.61092,giraffe     ,7,3,-1,0,0,644.762215,644.762215,647.25361,0,50,50,50,1,128,8,7,seaturtle     ,giraffe     ,html/resources/sequences_IDs/A/02_seaturtle.jpg,html/resources/sequences_IDs/B/03_giraffe.jpg,2,3,2,1,1,1,1,2,0,2,,,,,,,,,,,,,,,,,,,,
,,,,,2,2020-07-01_09h32.07.316,retriever_ti,2020.1.3,Win32,60,Chrome,1536,864,,,,,,,,,,,,,,,,,2,,,,,,,,,,,,,,,,,,,,,,,,,,,648.352195,129,left,0.431305,giraffe     ,7,3,-1,0,1,648.368935,648.368935,650.8605,0,51,51,51,1,129,7,8,giraffe     ,seaturtle     ,html/resources/sequences_IDs/B/03_giraffe.jpg,html/resources/sequences_IDs/A/02_seaturtle.jpg,3,2,1,1,2,1,2,1,1,2,,,,,,,,,,,,,,,,,,,,
,,,,,2,2020-07-01_09h32.07.316,retriever_ti,2020.1.3,Win32,60,Chrome,1536,864,,,,,,,,,,,,,,,,,2,,,,,,,,,,,,,,,,,,,,,,,,,,,651.958685,130,left,0.494415,clownfish     ,4,4,-1,0,0,651.99206,651.99206,654.483985,0,52,52,52,1,130,4,5,clownfish     ,slipper     ,html/resources/sequences_IDs/A/04_clownfish.jpg,html/resources/sequences_IDs/B/08_slipper.jpg,4,8,2,1,3,2,3,6,0,2,,,,,,,,,,,,,,,,,,,,
,,,,,2,2020-07-01_09h32.07.316,retriever_ti,2020.1.3,Win32,60,Chrome,1536,864,,,,,,,,,,,,,,,,,2,,,,,,,,,,,,,,,,,,,,,,,,,,,655.582545,131,right,0.678125,giraffe     ,7,3,1,1,1,655.617235,655.617235,658.10724,0,53,53,53,1,131,6,7,dress         ,giraffe     ,html/resources/sequences_IDs/A/07_dress.jpg,html/resources/sequences_IDs/B/03_giraffe.jpg,7,3,3,2,1,1,5,2,0,2,,,,,,,,,,,,,,,,,,,,
,,,,,2,2020-07-01_09h32.07.316,retriever_ti,2020.1.3,Win32,60,Chrome,1536,864,,,,,,,,,,,,,,,,,2,,,,,,,,,,,,,,,,,,,,,,,,,,,659.20561,132,right,0.62996,satellite_dish,2,10,-3,0,3,659.2229,659.2229,661.71413,0,54,54,54,1,132,5,2,slipper     ,satellite_dish,html/resources/sequences_IDs/B/08_slipper.jpg,html/resources/sequences_IDs/A/10_satellite_dish.jpg,8,10,3,2,4,2,6,8,0,2,,,,,,,,,,,,,,,,,,,,
,,,,,2,2020-07-01_09h32.07.316,retriever_ti,2020.1.3,Win32,60,Chrome,1536,864,,,,,,,,,,,,,,,,,2,,,,,,,,,,,,,,,,,,,,,,,,,,,662.33045,133,right,0.741795,giraffe     ,7,3,-1,0,0,662.364575,662.364575,664.855735,0,55,55,55,1,133,8,7,seaturtle     ,giraffe     ,html/resources/sequences_IDs/A/02_seaturtle.jpg,html/resources/sequences_IDs/B/03_giraffe.jpg,2,3,2,1,1,1,1,2,0,2,,,,,,,,,,,,,,,,,,,,
,,,,,2,2020-07-01_09h32.07.316,retriever_ti,2020.1.3,Win32,60,Chrome,1536,864,,,,,,,,,,,,,,,,,2,,,,,,,,,,,,,,,,,,,,,,,,,,,665.95334,134,right,1.145995,dress         ,6,7,-2,0,3,665.97009,665.97009,668.463015,0,56,56,56,1,134,8,6,seaturtle     ,dress         ,html/resources/sequences_IDs/A/02_seaturtle.jpg,html/resources/sequences_IDs/A/07_dress.jpg,2,7,2,1,3,2,1,5,0,2,,,,,,,,,,,,,,,,,,,,
,,,,,2,2020-07-01_09h32.07.316,retriever_ti,2020.1.3,Win32,60,Chrome,1536,864,,,,,,,,,,,,,,,,,2,,,,,,,,,,,,,,,,,,,,,,,,,,,669.07811,135,left,0.636235,dress         ,6,7,3,1,3,669.09503,669.09503,671.58764,0,57,57,57,1,135,6,3,dress         ,parrot      ,html/resources/sequences_IDs/A/07_dress.jpg,html/resources/sequences_IDs/B/05_parrot.jpg,7,5,3,2,2,1,5,4,0,2,,,,,,,,,,,,,,,,,,,,
,,,,,2,2020-07-01_09h32.07.316,retriever_ti,2020.1.3,Win32,60,Chrome,1536,864,,,,,,,,,,,,,,,,,2,,,,,,,,,,,,,,,,,,,,,,,,,,,672.202625,136,right,0.481325,dress         ,6,7,1,1,1,672.22039,672.22039,674.712075,0,58,58,58,1,136,5,6,slipper     ,dress         ,html/resources/sequences_IDs/B/08_slipper.jpg,html/resources/sequences_IDs/A/07_dress.jpg,8,7,3,2,3,2,6,5,0,2,,,,,,,,,,,,,,,,,,,,
,,,,,2,2020-07-01_09h32.07.316,retriever_ti,2020.1.3,Win32,60,Chrome,1536,864,,,,,,,,,,,,,,,,,2,,,,,,,,,,,,,,,,,,,,,,,,,,,675.81161,137,right,0.59825,seaturtle     ,8,2,7,1,3,675.827815,675.827815,678.31894,0,59,59,59,1,137,1,8,phone       ,seaturtle     ,html/resources/sequences_IDs/B/09_phone.jpg,html/resources/sequences_IDs/A/02_seaturtle.jpg,9,2,4,2,2,1,7,1,0,2,,,,,,,,,,,,,,,,,,,,
,,,,,2,2020-07-01_09h32.07.316,retriever_ti,2020.1.3,Win32,60,Chrome,1536,864,,,,,,,,,,,,,,,,,2,,,,,,,,,,,,,,,,,,,,,,,,,,,678.934485,138,left,0.75588,seaturtle     ,8,2,4,1,3,678.951975,678.951975,681.443795,0,60,60,60,1,138,8,4,seaturtle     ,clownfish     ,html/resources/sequences_IDs/A/02_seaturtle.jpg,html/resources/sequences_IDs/A/04_clownfish.jpg,2,4,2,1,2,1,1,3,0,2,,,,,,,,,,,,,,,,,,,,
,,,,,2,2020-07-01_09h32.07.316,retriever_ti,2020.1.3,Win32,60,Chrome,1536,864,,,,,,,,,,,,,,,,,2,,,,,,,,,,,,,,,,,,,,,,,,,,,682.061075,139,right,0.576355,dress         ,6,7,1,1,1,682.094895,682.094895,684.58524,0,61,61,61,1,139,5,6,slipper     ,dress         ,html/resources/sequences_IDs/B/08_slipper.jpg,html/resources/sequences_IDs/A/07_dress.jpg,8,7,3,2,3,2,6,5,0,2,,,,,,,,,,,,,,,,,,,,
,,,,,2,2020-07-01_09h32.07.316,retriever_ti,2020.1.3,Win32,60,Chrome,1536,864,,,,,,,,,,,,,,,,,2,,,,,,,,,,,,,,,,,,,,,,,,,,,685.683035,140,left,1.20097,clownfish     ,4,4,1,1,1,685.716215,685.716215,688.208365,0,62,62,62,1,140,4,3,clownfish     ,parrot      ,html/resources/sequences_IDs/A/04_clownfish.jpg,html/resources/sequences_IDs/B/05_parrot.jpg,4,5,2,1,2,1,3,4,0,2,,,,,,,,,,,,,,,,,,,,
,,,,,2,2020-07-01_09h32.07.316,retriever_ti,2020.1.3,Win32,60,Chrome,1536,864,,,,,,,,,,,,,,,,,2,,,,,,,,,,,,,,,,,,,,,,,,,,,689.30638,141,right,1.232895,seaturtle     ,8,2,2,1,3,689.323645,689.323645,691.81547,0,63,63,63,1,141,6,8,dress         ,seaturtle     ,html/resources/sequences_IDs/A/07_dress.jpg,html/resources/sequences_IDs/A/02_seaturtle.jpg,7,2,3,2,2,1,5,1,0,2,,,,,,,,,,,,,,,,,,,,
,,,,,2,2020-07-01_09h32.07.316,retriever_ti,2020.1.3,Win32,60,Chrome,1536,864,,,,,,,,,,,,,,,,,2,,,,,,,,,,,,,,,,,,,,,,,,,,,692.43069,142,left,0.52901,dress         ,6,7,5,1,3,692.465355,692.465355,694.956715,0,64,64,64,1,142,6,1,dress         ,phone       ,html/resources/sequences_IDs/A/07_dress.jpg,html/resources/sequences_IDs/B/09_phone.jpg,7,9,3,2,4,2,5,7,0,2,,,,,,,,,,,,,,,,,,,,
,,,,,2,2020-07-01_09h32.07.316,retriever_ti,2020.1.3,Win32,60,Chrome,1536,864,,,,,,,,,,,,,,,,,2,,,,,,,,,,,,,,,,,,,,,,,,,,,695.572155,143,right,0.68807,parrot      ,3,5,2,1,3,695.60594,695.60594,698.09806,0,65,65,65,1,143,1,3,phone       ,parrot      ,html/resources/sequences_IDs/B/09_phone.jpg,html/resources/sequences_IDs/B/05_parrot.jpg,9,5,4,2,2,1,7,4,0,2,,,,,,,,,,,,,,,,,,,,
,,,,,2,2020-07-01_09h32.07.316,retriever_ti,2020.1.3,Win32,60,Chrome,1536,864,,,,,,,,,,,,,,,,,2,,,,,,,,,,,,,,,,,,,,,,,,,,,698.71348,144,left,0.66256,satellite_dish,2,10,1,1,1,698.74871,698.74871,701.239705,0,66,66,66,1,144,2,1,satellite_dish,phone       ,html/resources/sequences_IDs/A/10_satellite_dish.jpg,html/resources/sequences_IDs/B/09_phone.jpg,10,9,4,2,4,2,8,7,0,2,,,,,,,,,,,,,,,,,,,,
,,,,,2,2020-07-01_09h32.07.316,retriever_ti,2020.1.3,Win32,60,Chrome,1536,864,,,,,,,,,,,,,,,,,2,,,,,,,,,,,,,,,,,,,,,,,,,,,702.33796,145,right,0.552745,clownfish     ,4,4,-1,0,0,702.353965,702.353965,704.84685,0,67,67,67,1,145,5,4,slipper     ,clownfish     ,html/resources/sequences_IDs/B/08_slipper.jpg,html/resources/sequences_IDs/A/04_clownfish.jpg,8,4,3,2,2,1,6,3,0,2,,,,,,,,,,,,,,,,,,,,
,,,,,2,2020-07-01_09h32.07.316,retriever_ti,2020.1.3,Win32,60,Chrome,1536,864,,,,,,,,,,,,,,,,,2,,,,,,,,,,,,,,,,,,,,,,,,,,,705.94442,146,left,1.17892,clownfish     ,4,4,1,1,1,705.96194,705.96194,708.45339,0,68,68,68,1,146,4,3,clownfish     ,parrot      ,html/resources/sequences_IDs/A/04_clownfish.jpg,html/resources/sequences_IDs/B/05_parrot.jpg,4,5,2,1,2,1,3,4,0,2,,,,,,,,,,,,,,,,,,,,
,,,,,2,2020-07-01_09h32.07.316,retriever_ti,2020.1.3,Win32,60,Chrome,1536,864,,,,,,,,,,,,,,,,,2,,,,,,,,,,,,,,,,,,,,,,,,,,,709.551075,147,right,1.017445,giraffe     ,7,3,5,1,3,709.584995,709.584995,712.07687,0,69,69,69,1,147,2,7,satellite_dish,giraffe     ,html/resources/sequences_IDs/A/10_satellite_dish.jpg,html/resources/sequences_IDs/B/03_giraffe.jpg,10,3,4,2,1,1,8,2,0,2,,,,,,,,,,,,,,,,,,,,
,,,,,2,2020-07-01_09h32.07.316,retriever_ti,2020.1.3,Win32,60,Chrome,1536,864,,,,,,,,,,,,,,,,,2,,,,,,,,,,,,,,,,,,,,,,,,,,,712.69193,148,right,1.11226,parrot      ,3,5,-5,0,3,712.70957,712.70957,715.20145,0,70,70,70,1,148,8,3,seaturtle     ,parrot      ,html/resources/sequences_IDs/A/02_seaturtle.jpg,html/resources/sequences_IDs/B/05_parrot.jpg,2,5,2,1,2,1,1,4,0,2,,,,,,,,,,,,,,,,,,,,
,,,,,2,2020-07-01_09h32.07.316,retriever_ti,2020.1.3,Win32,60,Chrome,1536,864,,,,,,,,,,,,,,,,,2,,,,,,,,,,,,,,,,,,,,,,,,,,,715.817795,149,right,1.14257,dress         ,6,7,3,1,3,715.851285,715.851285,718.34294,0,71,71,71,1,149,3,6,parrot      ,dress         ,html/resources/sequences_IDs/B/05_parrot.jpg,html/resources/sequences_IDs/A/07_dress.jpg,5,7,2,1,3,2,4,5,0,2,,,,,,,,,,,,,,,,,,,,
,,,,,2,2020-07-01_09h32.07.316,retriever_ti,2020.1.3,Win32,60,Chrome,1536,864,,,,,,,,,,,,,,,,,2,,,,,,,,,,,,,,,,,,,,,,,,,,,718.95818,150,left,0.77953,satellite_dish,2,10,-2,0,3,718.97539,718.97539,721.46768,0,72,72,72,1,150,2,4,satellite_dish,clownfish     ,html/resources/sequences_IDs/A/10_satellite_dish.jpg,html/resources/sequences_IDs/A/04_clownfish.jpg,10,4,4,2,2,1,8,3,0,2,,,,,,,,,,,,,,,,,,,,
,,,,,2,2020-07-01_09h32.07.316,retriever_ti,2020.1.3,Win32,60,Chrome,1536,864,,,,,,,,,,,,,,,,,2,,,,,,,,,,,,,,,,,,,,,,,,,,,722.084375,151,left,0.58609,clownfish     ,4,4,3,1,3,722.101645,722.101645,724.59293,0,73,73,73,1,151,4,1,clownfish     ,phone       ,html/resources/sequences_IDs/A/04_clownfish.jpg,html/resources/sequences_IDs/B/09_phone.jpg,4,9,2,1,4,2,3,7,0,2,,,,,,,,,,,,,,,,,,,,
,,,,,2,2020-07-01_09h32.07.316,retriever_ti,2020.1.3,Win32,60,Chrome,1536,864,,,,,,,,,,,,,,,,,2,,,,,,,,,,,,,,,,,,,,,,,,,,,725.20873,152,right,1.20416,clownfish     ,4,4,-1,0,0,725.2423,725.2423,727.733885,0,74,74,74,1,152,5,4,slipper     ,clownfish     ,html/resources/sequences_IDs/B/08_slipper.jpg,html/resources/sequences_IDs/A/04_clownfish.jpg,8,4,3,2,2,1,6,3,0,2,,,,,,,,,,,,,,,,,,,,
,,,,,2,2020-07-01_09h32.07.316,retriever_ti,2020.1.3,Win32,60,Chrome,1536,864,,,,,,,,,,,,,,,,,2,,,,,,,,,,,,,,,,,,,,,,,,,,,728.831825,153,left,0.958325,giraffe     ,7,3,3,1,3,728.86622,728.86622,731.357395,0,75,75,75,1,153,7,4,giraffe     ,clownfish     ,html/resources/sequences_IDs/B/03_giraffe.jpg,html/resources/sequences_IDs/A/04_clownfish.jpg,3,4,1,1,2,1,2,3,0,2,,,,,,,,,,,,,,,,,,,,
,,,,,2,2020-07-01_09h32.07.316,retriever_ti,2020.1.3,Win32,60,Chrome,1536,864,,,,,,,,,,,,,,,,,2,,,,,,,,,,,,,,,,,,,,,,,,,,,731.972995,154,left,1.27028,dress         ,6,7,2,1,3,732.00641,732.00641,734.49908,0,76,76,76,1,154,6,4,dress         ,clownfish     ,html/resources/sequences_IDs/A/07_dress.jpg,html/resources/sequences_IDs/A/04_clownfish.jpg,7,4,3,2,2,1,5,3,0,2,,,,,,,,,,,,,,,,,,,,
,,,,,2,2020-07-01_09h32.07.316,retriever_ti,2020.1.3,Win32,60,Chrome,1536,864,,,,,,,,,,,,,,,,,,,,,,,,,,,,,,,,,,,,,0,2.001335,,,,,,,,,,,,,,,,,,,,,,,,,,,,,,,,,,,,,,,,,1,0,1,0,1,,,,,,,,,,,,,,,
,,,,,2,2020-07-01_09h32.07.316,retriever_ti,2020.1.3,Win32,60,Chrome,1536,864,,,,,,,,,,,,,,,,,3,,,,,,,,,,,,,,,,,,,,,,,,,,,741.61792,155,right,0.659975,giraffe     ,7,3,4,1,3,741.64791,741.64791,744.13943,0,0,0,0,1,155,3,7,parrot      ,giraffe     ,html/resources/sequences_IDs/B/05_parrot.jpg,html/resources/sequences_IDs/B/03_giraffe.jpg,5,3,2,1,1,1,4,2,0,2,,,,,,,,,,,,,,,,,,,,
,,,,,2,2020-07-01_09h32.07.316,retriever_ti,2020.1.3,Win32,60,Chrome,1536,864,,,,,,,,,,,,,,,,,3,,,,,,,,,,,,,,,,,,,,,,,,,,,744.75542,156,left,0.765735,giraffe     ,7,3,3,1,3,744.773515,744.773515,747.264075,0,1,1,1,1,156,7,4,giraffe     ,clownfish     ,html/resources/sequences_IDs/B/03_giraffe.jpg,html/resources/sequences_IDs/A/04_clownfish.jpg,3,4,1,1,2,1,2,3,0,2,,,,,,,,,,,,,,,,,,,,
,,,,,2,2020-07-01_09h32.07.316,retriever_ti,2020.1.3,Win32,60,Chrome,1536,864,,,,,,,,,,,,,,,,,3,,,,,,,,,,,,,,,,,,,,,,,,,,,747.879895,157,left,1.07703,giraffe     ,7,3,-1,0,0,747.913895,747.913895,750.405395,0,2,2,2,1,157,7,8,giraffe     ,seaturtle     ,html/resources/sequences_IDs/B/03_giraffe.jpg,html/resources/sequences_IDs/A/02_seaturtle.jpg,3,2,1,1,2,1,2,1,0,2,,,,,,,,,,,,,,,,,,,,
,,,,,2,2020-07-01_09h32.07.316,retriever_ti,2020.1.3,Win32,60,Chrome,1536,864,,,,,,,,,,,,,,,,,3,,,,,,,,,,,,,,,,,,,,,,,,,,,751.50324,158,left,0.66758,satellite_dish,2,10,-1,0,0,751.51976,751.51976,754.012385,0,3,3,3,1,158,2,3,satellite_dish,parrot      ,html/resources/sequences_IDs/A/10_satellite_dish.jpg,html/resources/sequences_IDs/B/05_parrot.jpg,10,5,4,2,2,1,8,4,0,2,,,,,,,,,,,,,,,,,,,,
,,,,,2,2020-07-01_09h32.07.316,retriever_ti,2020.1.3,Win32,60,Chrome,1536,864,,,,,,,,,,,,,,,,,3,,,,,,,,,,,,,,,,,,,,,,,,,,,755.110675,159,right,0.706485,satellite_dish,2,10,-3,0,3,755.127455,755.127455,757.61879,0,4,4,4,1,159,5,2,slipper     ,satellite_dish,html/resources/sequences_IDs/B/08_slipper.jpg,html/resources/sequences_IDs/A/10_satellite_dish.jpg,8,10,3,2,4,2,6,8,0,2,,,,,,,,,,,,,,,,,,,,
,,,,,2,2020-07-01_09h32.07.316,retriever_ti,2020.1.3,Win32,60,Chrome,1536,864,,,,,,,,,,,,,,,,,3,,,,,,,,,,,,,,,,,,,,,,,,,,,758.23475,160,right,1.180275,dress         ,6,7,3,1,3,758.267855,758.267855,760.760315,0,5,5,5,1,160,3,6,parrot      ,dress         ,html/resources/sequences_IDs/B/05_parrot.jpg,html/resources/sequences_IDs/A/07_dress.jpg,5,7,2,1,3,2,4,5,0,2,,,,,,,,,,,,,,,,,,,,
,,,,,2,2020-07-01_09h32.07.316,retriever_ti,2020.1.3,Win32,60,Chrome,1536,864,,,,,,,,,,,,,,,,,3,,,,,,,,,,,,,,,,,,,,,,,,,,,761.37623,161,left,1.005955,parrot      ,3,5,-2,0,3,761.40966,761.40966,763.901685,0,6,6,6,1,161,3,5,parrot      ,slipper     ,html/resources/sequences_IDs/B/05_parrot.jpg,html/resources/sequences_IDs/B/08_slipper.jpg,5,8,2,1,3,2,4,6,0,2,,,,,,,,,,,,,,,,,,,,
,,,,,2,2020-07-01_09h32.07.316,retriever_ti,2020.1.3,Win32,60,Chrome,1536,864,,,,,,,,,,,,,,,,,3,,,,,,,,,,,,,,,,,,,,,,,,,,,764.517575,162,right,0.66057,satellite_dish,2,10,-6,0,3,764.55207,764.55207,767.043205,0,7,7,7,1,162,8,2,seaturtle     ,satellite_dish,html/resources/sequences_IDs/A/02_seaturtle.jpg,html/resources/sequences_IDs/A/10_satellite_dish.jpg,2,10,2,1,4,2,1,8,0,2,,,,,,,,,,,,,,,,,,,,
,,,,,2,2020-07-01_09h32.07.316,retriever_ti,2020.1.3,Win32,60,Chrome,1536,864,,,,,,,,,,,,,,,,,3,,,,,,,,,,,,,,,,,,,,,,,,,,,767.658805,163,right,1.345075,parrot      ,3,5,-1,0,1,767.692725,767.692725,770.18461,0,8,8,8,1,163,4,3,clownfish     ,parrot      ,html/resources/sequences_IDs/A/04_clownfish.jpg,html/resources/sequences_IDs/B/05_parrot.jpg,4,5,2,1,2,1,3,4,1,2,,,,,,,,,,,,,,,,,,,,
,,,,,2,2020-07-01_09h32.07.316,retriever_ti,2020.1.3,Win32,60,Chrome,1536,864,,,,,,,,,,,,,,,,,3,,,,,,,,,,,,,,,,,,,,,,,,,,,771.282245,164,left,0.99373,clownfish     ,4,4,-4,0,3,771.29939,771.29939,773.79173,0,9,9,9,1,164,4,8,clownfish     ,seaturtle     ,html/resources/sequences_IDs/A/04_clownfish.jpg,html/resources/sequences_IDs/A/02_seaturtle.jpg,4,2,2,1,2,1,3,1,0,2,,,,,,,,,,,,,,,,,,,,
,,,,,2,2020-07-01_09h32.07.316,retriever_ti,2020.1.3,Win32,60,Chrome,1536,864,,,,,,,,,,,,,,,,,3,,,,,,,,,,,,,,,,,,,,,,,,,,,774.40681,165,left,1.047135,slipper     ,5,8,1,1,1,774.44216,774.44216,776.933475,0,10,10,10,1,165,5,4,slipper     ,clownfish     ,html/resources/sequences_IDs/B/08_slipper.jpg,html/resources/sequences_IDs/A/04_clownfish.jpg,8,4,3,2,2,1,6,3,0,2,,,,,,,,,,,,,,,,,,,,
,,,,,2,2020-07-01_09h32.07.316,retriever_ti,2020.1.3,Win32,60,Chrome,1536,864,,,,,,,,,,,,,,,,,3,,,,,,,,,,,,,,,,,,,,,,,,,,,778.031435,166,right,0.59604,giraffe     ,7,3,1,1,1,778.04892,778.04892,780.54006,0,11,11,11,1,166,6,7,dress         ,giraffe     ,html/resources/sequences_IDs/A/07_dress.jpg,html/resources/sequences_IDs/B/03_giraffe.jpg,7,3,3,2,1,1,5,2,0,2,,,,,,,,,,,,,,,,,,,,
,,,,,2,2020-07-01_09h32.07.316,retriever_ti,2020.1.3,Win32,60,Chrome,1536,864,,,,,,,,,,,,,,,,,3,,,,,,,,,,,,,,,,,,,,,,,,,,,781.6374,167,right,0.86169,satellite_dish,2,10,1,1,1,781.65398,781.65398,784.147065,0,12,12,12,1,167,1,2,phone       ,satellite_dish,html/resources/sequences_IDs/B/09_phone.jpg,html/resources/sequences_IDs/A/10_satellite_dish.jpg,9,10,4,2,4,2,7,8,0,2,,,,,,,,,,,,,,,,,,,,
,,,,,2,2020-07-01_09h32.07.316,retriever_ti,2020.1.3,Win32,60,Chrome,1536,864,,,,,,,,,,,,,,,,,3,,,,,,,,,,,,,,,,,,,,,,,,,,,785.24492,168,left,0.91213,satellite_dish,2,10,1,1,1,785.262185,785.262185,787.75331,0,13,13,13,1,168,2,1,satellite_dish,phone       ,html/resources/sequences_IDs/A/10_satellite_dish.jpg,html/resources/sequences_IDs/B/09_phone.jpg,10,9,4,2,4,2,8,7,0,2,,,,,,,,,,,,,,,,,,,,
,,,,,2,2020-07-01_09h32.07.316,retriever_ti,2020.1.3,Win32,60,Chrome,1536,864,,,,,,,,,,,,,,,,,3,,,,,,,,,,,,,,,,,,,,,,,,,,,788.852125,169,right,0.85074,slipper     ,5,8,1,1,0,788.869005,788.869005,791.360085,0,14,14,14,1,169,4,5,clownfish     ,slipper     ,html/resources/sequences_IDs/A/04_clownfish.jpg,html/resources/sequences_IDs/B/08_slipper.jpg,4,8,2,1,3,2,3,6,1,2,,,,,,,,,,,,,,,,,,,,
,,,,,2,2020-07-01_09h32.07.316,retriever_ti,2020.1.3,Win32,60,Chrome,1536,864,,,,,,,,,,,,,,,,,3,,,,,,,,,,,,,,,,,,,,,,,,,,,792.45875,170,left,0.526755,giraffe     ,7,3,5,1,3,792.492285,792.492285,794.983905,0,15,15,15,1,170,7,2,giraffe     ,satellite_dish,html/resources/sequences_IDs/B/03_giraffe.jpg,html/resources/sequences_IDs/A/10_satellite_dish.jpg,3,10,1,1,4,2,2,8,0,2,,,,,,,,,,,,,,,,,,,,
,,,,,2,2020-07-01_09h32.07.316,retriever_ti,2020.1.3,Win32,60,Chrome,1536,864,,,,,,,,,,,,,,,,,3,,,,,,,,,,,,,,,,,,,,,,,,,,,795.599255,171,left,0.94497,seaturtle     ,8,2,3,1,3,795.61632,795.61632,798.108675,0,16,16,16,1,171,8,5,seaturtle     ,slipper     ,html/resources/sequences_IDs/A/02_seaturtle.jpg,html/resources/sequences_IDs/B/08_slipper.jpg,2,8,2,1,3,2,1,6,0,2,,,,,,,,,,,,,,,,,,,,
,,,,,2,2020-07-01_09h32.07.316,retriever_ti,2020.1.3,Win32,60,Chrome,1536,864,,,,,,,,,,,,,,,,,3,,,,,,,,,,,,,,,,,,,,,,,,,,,798.724525,172,left,0.648145,parrot      ,3,5,2,1,3,798.741025,798.741025,801.23341,0,17,17,17,1,172,3,1,parrot      ,phone       ,html/resources/sequences_IDs/B/05_parrot.jpg,html/resources/sequences_IDs/B/09_phone.jpg,5,9,2,1,4,2,4,7,0,2,,,,,,,,,,,,,,,,,,,,
,,,,,2,2020-07-01_09h32.07.316,retriever_ti,2020.1.3,Win32,60,Chrome,1536,864,,,,,,,,,,,,,,,,,3,,,,,,,,,,,,,,,,,,,,,,,,,,,801.848945,173,right,0.65131,satellite_dish,2,10,1,1,1,801.866395,801.866395,804.35858,0,18,18,18,1,173,1,2,phone       ,satellite_dish,html/resources/sequences_IDs/B/09_phone.jpg,html/resources/sequences_IDs/A/10_satellite_dish.jpg,9,10,4,2,4,2,7,8,0,2,,,,,,,,,,,,,,,,,,,,
,,,,,2,2020-07-01_09h32.07.316,retriever_ti,2020.1.3,Win32,60,Chrome,1536,864,,,,,,,,,,,,,,,,,3,,,,,,,,,,,,,,,,,,,,,,,,,,,805.4557,174,left,1.19548,phone       ,1,9,-4,0,3,805.47239,805.47239,807.96496,0,19,19,19,1,174,1,5,phone       ,slipper     ,html/resources/sequences_IDs/B/09_phone.jpg,html/resources/sequences_IDs/B/08_slipper.jpg,9,8,4,2,3,2,7,6,0,2,,,,,,,,,,,,,,,,,,,,
,,,,,2,2020-07-01_09h32.07.316,retriever_ti,2020.1.3,Win32,60,Chrome,1536,864,,,,,,,,,,,,,,,,,3,,,,,,,,,,,,,,,,,,,,,,,,,,,808.581825,175,right,0.47217,giraffe     ,7,3,6,1,3,808.597585,808.597585,811.08992,0,20,20,20,1,175,1,7,phone       ,giraffe     ,html/resources/sequences_IDs/B/09_phone.jpg,html/resources/sequences_IDs/B/03_giraffe.jpg,9,3,4,2,1,1,7,2,0,2,,,,,,,,,,,,,,,,,,,,
,,,,,2,2020-07-01_09h32.07.316,retriever_ti,2020.1.3,Win32,60,Chrome,1536,864,,,,,,,,,,,,,,,,,3,,,,,,,,,,,,,,,,,,,,,,,,,,,811.70576,176,left,0.52593,satellite_dish,2,10,-6,0,3,811.723175,811.723175,814.214725,0,21,21,21,1,176,2,8,satellite_dish,seaturtle     ,html/resources/sequences_IDs/A/10_satellite_dish.jpg,html/resources/sequences_IDs/A/02_seaturtle.jpg,10,2,4,2,2,1,8,1,0,2,,,,,,,,,,,,,,,,,,,,
,,,,,2,2020-07-01_09h32.07.316,retriever_ti,2020.1.3,Win32,60,Chrome,1536,864,,,,,,,,,,,,,,,,,3,,,,,,,,,,,,,,,,,,,,,,,,,,,814.830845,177,right,0.87389,parrot      ,3,5,-1,0,0,814.84761,814.84761,817.33928,0,22,22,22,1,177,4,3,clownfish     ,parrot      ,html/resources/sequences_IDs/A/04_clownfish.jpg,html/resources/sequences_IDs/B/05_parrot.jpg,4,5,2,1,2,1,3,4,0,2,,,,,,,,,,,,,,,,,,,,
,,,,,2,2020-07-01_09h32.07.316,retriever_ti,2020.1.3,Win32,60,Chrome,1536,864,,,,,,,,,,,,,,,,,3,,,,,,,,,,,,,,,,,,,,,,,,,,,818.43739,178,right,0.515855,seaturtle     ,8,2,7,1,3,818.4546,818.4546,820.946125,0,23,23,23,1,178,1,8,phone       ,seaturtle     ,html/resources/sequences_IDs/B/09_phone.jpg,html/resources/sequences_IDs/A/02_seaturtle.jpg,9,2,4,2,2,1,7,1,0,2,,,,,,,,,,,,,,,,,,,,
,,,,,2,2020-07-01_09h32.07.316,retriever_ti,2020.1.3,Win32,60,Chrome,1536,864,,,,,,,,,,,,,,,,,3,,,,,,,,,,,,,,,,,,,,,,,,,,,821.561315,179,left,0.66184,seaturtle     ,8,2,7,1,3,821.594765,821.594765,824.087555,0,24,24,24,1,179,8,1,seaturtle     ,phone       ,html/resources/sequences_IDs/A/02_seaturtle.jpg,html/resources/sequences_IDs/B/09_phone.jpg,2,9,2,1,4,2,1,7,0,2,,,,,,,,,,,,,,,,,,,,
,,,,,2,2020-07-01_09h32.07.316,retriever_ti,2020.1.3,Win32,60,Chrome,1536,864,,,,,,,,,,,,,,,,,3,,,,,,,,,,,,,,,,,,,,,,,,,,,824.704105,180,right,0.907295,seaturtle     ,8,2,5,1,3,824.720345,824.720345,827.212375,0,25,25,25,1,180,3,8,parrot      ,seaturtle     ,html/resources/sequences_IDs/B/05_parrot.jpg,html/resources/sequences_IDs/A/02_seaturtle.jpg,5,2,2,1,2,1,4,1,0,2,,,,,,,,,,,,,,,,,,,,
,,,,,2,2020-07-01_09h32.07.316,retriever_ti,2020.1.3,Win32,60,Chrome,1536,864,,,,,,,,,,,,,,,,,3,,,,,,,,,,,,,,,,,,,,,,,,,,,827.828275,181,left,0.620235,dress         ,6,7,1,1,0,827.863045,827.863045,830.353745,0,26,26,26,1,181,6,5,dress         ,slipper     ,html/resources/sequences_IDs/A/07_dress.jpg,html/resources/sequences_IDs/B/08_slipper.jpg,7,8,3,2,3,2,5,6,1,2,,,,,,,,,,,,,,,,,,,,
,,,,,2,2020-07-01_09h32.07.316,retriever_ti,2020.1.3,Win32,60,Chrome,1536,864,,,,,,,,,,,,,,,,,3,,,,,,,,,,,,,,,,,,,,,,,,,,,831.45284,182,right,1.301145,parrot      ,3,5,-1,0,0,831.46996,831.46996,833.960365,0,27,27,27,1,182,4,3,clownfish     ,parrot      ,html/resources/sequences_IDs/A/04_clownfish.jpg,html/resources/sequences_IDs/B/05_parrot.jpg,4,5,2,1,2,1,3,4,0,2,,,,,,,,,,,,,,,,,,,,
,,,,,2,2020-07-01_09h32.07.316,retriever_ti,2020.1.3,Win32,60,Chrome,1536,864,,,,,,,,,,,,,,,,,3,,,,,,,,,,,,,,,,,,,,,,,,,,,835.058185,183,left,1.10635,dress         ,6,7,3,1,3,835.074755,835.074755,837.567905,0,28,28,28,1,183,6,3,dress         ,parrot      ,html/resources/sequences_IDs/A/07_dress.jpg,html/resources/sequences_IDs/B/05_parrot.jpg,7,5,3,2,2,1,5,4,0,2,,,,,,,,,,,,,,,,,,,,
,,,,,2,2020-07-01_09h32.07.316,retriever_ti,2020.1.3,Win32,60,Chrome,1536,864,,,,,,,,,,,,,,,,,3,,,,,,,,,,,,,,,,,,,,,,,,,,,838.18286,184,right,0.71611,satellite_dish,2,10,1,1,0,838.217115,838.217115,840.709225,0,29,29,29,1,184,1,2,phone       ,satellite_dish,html/resources/sequences_IDs/B/09_phone.jpg,html/resources/sequences_IDs/A/10_satellite_dish.jpg,9,10,4,2,4,2,7,8,1,2,,,,,,,,,,,,,,,,,,,,
,,,,,2,2020-07-01_09h32.07.316,retriever_ti,2020.1.3,Win32,60,Chrome,1536,864,,,,,,,,,,,,,,,,,3,,,,,,,,,,,,,,,,,,,,,,,,,,,841.80626,185,left,1.03632,satellite_dish,2,10,-1,0,0,841.82359,841.82359,844.31567,0,30,30,30,1,185,2,3,satellite_dish,parrot      ,html/resources/sequences_IDs/A/10_satellite_dish.jpg,html/resources/sequences_IDs/B/05_parrot.jpg,10,5,4,2,2,1,8,4,0,2,,,,,,,,,,,,,,,,,,,,
,,,,,2,2020-07-01_09h32.07.316,retriever_ti,2020.1.3,Win32,60,Chrome,1536,864,,,,,,,,,,,,,,,,,3,,,,,,,,,,,,,,,,,,,,,,,,,,,845.414215,186,left,1.25383,clownfish     ,4,4,2,1,3,845.44773,845.44773,847.939035,0,31,31,31,1,186,4,2,clownfish     ,satellite_dish,html/resources/sequences_IDs/A/04_clownfish.jpg,html/resources/sequences_IDs/A/10_satellite_dish.jpg,4,10,2,1,4,2,3,8,0,2,,,,,,,,,,,,,,,,,,,,
,,,,,2,2020-07-01_09h32.07.316,retriever_ti,2020.1.3,Win32,60,Chrome,1536,864,,,,,,,,,,,,,,,,,3,,,,,,,,,,,,,,,,,,,,,,,,,,,848.554565,187,left,0.5642,giraffe     ,7,3,-1,0,0,848.571965,848.571965,851.06404,0,32,32,32,1,187,7,8,giraffe     ,seaturtle     ,html/resources/sequences_IDs/B/03_giraffe.jpg,html/resources/sequences_IDs/A/02_seaturtle.jpg,3,2,1,1,2,1,2,1,0,2,,,,,,,,,,,,,,,,,,,,
,,,,,2,2020-07-01_09h32.07.316,retriever_ti,2020.1.3,Win32,60,Chrome,1536,864,,,,,,,,,,,,,,,,,3,,,,,,,,,,,,,,,,,,,,,,,,,,,852.16183,188,left,0.933595,seaturtle     ,8,2,1,1,1,852.19658,852.19658,854.687725,0,33,33,33,1,188,8,7,seaturtle     ,giraffe     ,html/resources/sequences_IDs/A/02_seaturtle.jpg,html/resources/sequences_IDs/B/03_giraffe.jpg,2,3,2,1,1,1,1,2,0,2,,,,,,,,,,,,,,,,,,,,
,,,,,2,2020-07-01_09h32.07.316,retriever_ti,2020.1.3,Win32,60,Chrome,1536,864,,,,,,,,,,,,,,,,,3,,,,,,,,,,,,,,,,,,,,,,,,,,,855.785595,189,right,1.08713,seaturtle     ,8,2,3,1,3,855.81972,855.81972,858.310985,0,34,34,34,1,189,5,8,slipper     ,seaturtle     ,html/resources/sequences_IDs/B/08_slipper.jpg,html/resources/sequences_IDs/A/02_seaturtle.jpg,8,2,3,2,2,1,6,1,0,2,,,,,,,,,,,,,,,,,,,,
,,,,,2,2020-07-01_09h32.07.316,retriever_ti,2020.1.3,Win32,60,Chrome,1536,864,,,,,,,,,,,,,,,,,3,,,,,,,,,,,,,,,,,,,,,,,,,,,858.927705,190,left,0.75644,satellite_dish,2,10,-3,0,3,858.944625,858.944625,861.43558,0,35,35,35,1,190,2,5,satellite_dish,slipper     ,html/resources/sequences_IDs/A/10_satellite_dish.jpg,html/resources/sequences_IDs/B/08_slipper.jpg,10,8,4,2,3,2,8,6,0,2,,,,,,,,,,,,,,,,,,,,
,,,,,2,2020-07-01_09h32.07.316,retriever_ti,2020.1.3,Win32,60,Chrome,1536,864,,,,,,,,,,,,,,,,,3,,,,,,,,,,,,,,,,,,,,,,,,,,,862.05138,191,right,0.75561,giraffe     ,7,3,5,1,3,862.08525,862.08525,864.576915,0,36,36,36,1,191,2,7,satellite_dish,giraffe     ,html/resources/sequences_IDs/A/10_satellite_dish.jpg,html/resources/sequences_IDs/B/03_giraffe.jpg,10,3,4,2,1,1,8,2,0,2,,,,,,,,,,,,,,,,,,,,
,,,,,2,2020-07-01_09h32.07.316,retriever_ti,2020.1.3,Win32,60,Chrome,1536,864,,,,,,,,,,,,,,,,,3,,,,,,,,,,,,,,,,,,,,,,,,,,,865.193175,192,right,1.14523,seaturtle     ,8,2,2,1,3,865.209975,865.209975,867.701775,0,37,37,37,1,192,6,8,dress         ,seaturtle     ,html/resources/sequences_IDs/A/07_dress.jpg,html/resources/sequences_IDs/A/02_seaturtle.jpg,7,2,3,2,2,1,5,1,0,2,,,,,,,,,,,,,,,,,,,,
,,,,,2,2020-07-01_09h32.07.316,retriever_ti,2020.1.3,Win32,60,Chrome,1536,864,,,,,,,,,,,,,,,,,3,,,,,,,,,,,,,,,,,,,,,,,,,,,868.3181,193,right,1.03262,slipper     ,5,8,-1,0,0,868.33625,868.33625,870.826725,0,38,38,38,1,193,6,5,dress         ,slipper     ,html/resources/sequences_IDs/A/07_dress.jpg,html/resources/sequences_IDs/B/08_slipper.jpg,7,8,3,2,3,2,5,6,0,2,,,,,,,,,,,,,,,,,,,,
,,,,,2,2020-07-01_09h32.07.316,retriever_ti,2020.1.3,Win32,60,Chrome,1536,864,,,,,,,,,,,,,,,,,3,,,,,,,,,,,,,,,,,,,,,,,,,,,871.924675,194,right,0.727135,giraffe     ,7,3,-1,0,0,871.941555,871.941555,874.43317,0,39,39,39,1,194,8,7,seaturtle     ,giraffe     ,html/resources/sequences_IDs/A/02_seaturtle.jpg,html/resources/sequences_IDs/B/03_giraffe.jpg,2,3,2,1,1,1,1,2,0,2,,,,,,,,,,,,,,,,,,,,
,,,,,2,2020-07-01_09h32.07.316,retriever_ti,2020.1.3,Win32,60,Chrome,1536,864,,,,,,,,,,,,,,,,,3,,,,,,,,,,,,,,,,,,,,,,,,,,,875.532,195,left,1.295055,dress         ,6,7,1,1,1,875.56428,875.56428,878.0568,0,40,40,40,1,195,6,5,dress         ,slipper     ,html/resources/sequences_IDs/A/07_dress.jpg,html/resources/sequences_IDs/B/08_slipper.jpg,7,8,3,2,3,2,5,6,0,2,,,,,,,,,,,,,,,,,,,,
,,,,,2,2020-07-01_09h32.07.316,retriever_ti,2020.1.3,Win32,60,Chrome,1536,864,,,,,,,,,,,,,,,,,3,,,,,,,,,,,,,,,,,,,,,,,,,,,879.15545,196,right,1.376915,clownfish     ,4,4,-2,0,3,879.189,879.189,881.6801,0,41,41,41,1,196,6,4,dress         ,clownfish     ,html/resources/sequences_IDs/A/07_dress.jpg,html/resources/sequences_IDs/A/04_clownfish.jpg,7,4,3,2,2,1,5,3,0,2,,,,,,,,,,,,,,,,,,,,
,,,,,2,2020-07-01_09h32.07.316,retriever_ti,2020.1.3,Win32,60,Chrome,1536,864,,,,,,,,,,,,,,,,,3,,,,,,,,,,,,,,,,,,,,,,,,,,,882.29619,197,right,0.87611,giraffe     ,7,3,1,1,1,882.31389,882.31389,884.80487,0,42,42,42,1,197,6,7,dress         ,giraffe     ,html/resources/sequences_IDs/A/07_dress.jpg,html/resources/sequences_IDs/B/03_giraffe.jpg,7,3,3,2,1,1,5,2,0,2,,,,,,,,,,,,,,,,,,,,
,,,,,2,2020-07-01_09h32.07.316,retriever_ti,2020.1.3,Win32,60,Chrome,1536,864,,,,,,,,,,,,,,,,,3,,,,,,,,,,,,,,,,,,,,,,,,,,,885.90226,198,left,1.1624,clownfish     ,4,4,-1,0,0,885.936385,885.936385,888.428815,0,43,43,43,1,198,4,5,clownfish     ,slipper     ,html/resources/sequences_IDs/A/04_clownfish.jpg,html/resources/sequences_IDs/B/08_slipper.jpg,4,8,2,1,3,2,3,6,0,2,,,,,,,,,,,,,,,,,,,,
,,,,,2,2020-07-01_09h32.07.316,retriever_ti,2020.1.3,Win32,60,Chrome,1536,864,,,,,,,,,,,,,,,,,3,,,,,,,,,,,,,,,,,,,,,,,,,,,889.526865,199,right,0.833915,phone       ,1,9,-4,0,3,889.55923,889.55923,892.05206,0,44,44,44,1,199,5,1,slipper     ,phone       ,html/resources/sequences_IDs/B/08_slipper.jpg,html/resources/sequences_IDs/B/09_phone.jpg,8,9,3,2,4,2,6,7,0,2,,,,,,,,,,,,,,,,,,,,
,,,,,2,2020-07-01_09h32.07.316,retriever_ti,2020.1.3,Win32,60,Chrome,1536,864,,,,,,,,,,,,,,,,,3,,,,,,,,,,,,,,,,,,,,,,,,,,,892.667875,200,right,0.729795,giraffe     ,7,3,2,1,3,892.68436,892.68436,895.17667,0,45,45,45,1,200,5,7,slipper     ,giraffe     ,html/resources/sequences_IDs/B/08_slipper.jpg,html/resources/sequences_IDs/B/03_giraffe.jpg,8,3,3,2,1,1,6,2,0,2,,,,,,,,,,,,,,,,,,,,
,,,,,2,2020-07-01_09h32.07.316,retriever_ti,2020.1.3,Win32,60,Chrome,1536,864,,,,,,,,,,,,,,,,,3,,,,,,,,,,,,,,,,,,,,,,,,,,,895.79294,201,left,0.802825,giraffe     ,7,3,1,1,1,895.810595,895.810595,898.30142,0,46,46,46,1,201,7,6,giraffe     ,dress         ,html/resources/sequences_IDs/B/03_giraffe.jpg,html/resources/sequences_IDs/A/07_dress.jpg,3,7,1,1,3,2,2,5,0,2,,,,,,,,,,,,,,,,,,,,
,,,,,2,2020-07-01_09h32.07.316,retriever_ti,2020.1.3,Win32,60,Chrome,1536,864,,,,,,,,,,,,,,,,,3,,,,,,,,,,,,,,,,,,,,,,,,,,,899.39927,202,left,1.051985,slipper     ,5,8,-1,0,0,899.432555,899.432555,901.924855,0,47,47,47,1,202,5,6,slipper     ,dress         ,html/resources/sequences_IDs/B/08_slipper.jpg,html/resources/sequences_IDs/A/07_dress.jpg,8,7,3,2,3,2,6,5,0,2,,,,,,,,,,,,,,,,,,,,
,,,,,2,2020-07-01_09h32.07.316,retriever_ti,2020.1.3,Win32,60,Chrome,1536,864,,,,,,,,,,,,,,,,,3,,,,,,,,,,,,,,,,,,,,,,,,,,,903.02368,203,right,0.862625,satellite_dish,2,10,-4,0,3,903.05691,903.05691,905.548545,0,48,48,48,1,203,6,2,dress         ,satellite_dish,html/resources/sequences_IDs/A/07_dress.jpg,html/resources/sequences_IDs/A/10_satellite_dish.jpg,7,10,3,2,4,2,5,8,0,2,,,,,,,,,,,,,,,,,,,,
,,,,,2,2020-07-01_09h32.07.316,retriever_ti,2020.1.3,Win32,60,Chrome,1536,864,,,,,,,,,,,,,,,,,3,,,,,,,,,,,,,,,,,,,,,,,,,,,906.16534,204,right,1.58617,clownfish     ,4,4,1,1,1,906.20047,906.20047,908.68973,0,49,49,49,1,204,3,4,parrot      ,clownfish     ,html/resources/sequences_IDs/B/05_parrot.jpg,html/resources/sequences_IDs/A/04_clownfish.jpg,5,4,2,1,2,1,4,3,0,2,,,,,,,,,,,,,,,,,,,,
,,,,,2,2020-07-01_09h32.07.316,retriever_ti,2020.1.3,Win32,60,Chrome,1536,864,,,,,,,,,,,,,,,,,3,,,,,,,,,,,,,,,,,,,,,,,,,,,909.78756,205,right,0.540075,clownfish     ,4,4,-4,0,3,909.824135,909.824135,912.313705,0,50,50,50,1,205,8,4,seaturtle     ,clownfish     ,html/resources/sequences_IDs/A/02_seaturtle.jpg,html/resources/sequences_IDs/A/04_clownfish.jpg,2,4,2,1,2,1,1,3,0,2,,,,,,,,,,,,,,,,,,,,
,,,,,2,2020-07-01_09h32.07.316,retriever_ti,2020.1.3,Win32,60,Chrome,1536,864,,,,,,,,,,,,,,,,,3,,,,,,,,,,,,,,,,,,,,,,,,,,,912.929025,206,right,0.75387,clownfish     ,4,4,1,1,1,912.94531,912.94531,915.43806,0,51,51,51,1,206,3,4,parrot      ,clownfish     ,html/resources/sequences_IDs/B/05_parrot.jpg,html/resources/sequences_IDs/A/04_clownfish.jpg,5,4,2,1,2,1,4,3,0,2,,,,,,,,,,,,,,,,,,,,
,,,,,2,2020-07-01_09h32.07.316,retriever_ti,2020.1.3,Win32,60,Chrome,1536,864,,,,,,,,,,,,,,,,,3,,,,,,,,,,,,,,,,,,,,,,,,,,,916.53607,207,left,0.82641,dress         ,6,7,5,1,3,916.56984,916.56984,919.06158,0,52,52,52,1,207,6,1,dress         ,phone       ,html/resources/sequences_IDs/A/07_dress.jpg,html/resources/sequences_IDs/B/09_phone.jpg,7,9,3,2,4,2,5,7,0,2,,,,,,,,,,,,,,,,,,,,
,,,,,2,2020-07-01_09h32.07.316,retriever_ti,2020.1.3,Win32,60,Chrome,1536,864,,,,,,,,,,,,,,,,,3,,,,,,,,,,,,,,,,,,,,,,,,,,,919.67758,208,left,0.69418,giraffe     ,7,3,2,1,3,919.69596,919.69596,922.18643,0,53,53,53,1,208,7,5,giraffe     ,slipper     ,html/resources/sequences_IDs/B/03_giraffe.jpg,html/resources/sequences_IDs/B/08_slipper.jpg,3,8,1,1,3,2,2,6,0,2,,,,,,,,,,,,,,,,,,,,
,,,,,2,2020-07-01_09h32.07.316,retriever_ti,2020.1.3,Win32,60,Chrome,1536,864,,,,,,,,,,,,,,,,,3,,,,,,,,,,,,,,,,,,,,,,,,,,,922.802865,209,left,0.864575,parrot      ,3,5,1,1,1,922.83748,922.83748,925.328065,0,54,54,54,1,209,3,2,parrot      ,satellite_dish,html/resources/sequences_IDs/B/05_parrot.jpg,html/resources/sequences_IDs/A/10_satellite_dish.jpg,5,10,2,1,4,2,4,8,0,2,,,,,,,,,,,,,,,,,,,,
,,,,,2,2020-07-01_09h32.07.316,retriever_ti,2020.1.3,Win32,60,Chrome,1536,864,,,,,,,,,,,,,,,,,3,,,,,,,,,,,,,,,,,,,,,,,,,,,926.50919,210,right,0.881705,giraffe     ,7,3,3,1,3,926.52522,926.52522,929.017695,0,55,55,55,1,210,4,7,clownfish     ,giraffe     ,html/resources/sequences_IDs/A/04_clownfish.jpg,html/resources/sequences_IDs/B/03_giraffe.jpg,4,3,2,1,1,1,3,2,0,2,,,,,,,,,,,,,,,,,,,,
,,,,,2,2020-07-01_09h32.07.316,retriever_ti,2020.1.3,Win32,60,Chrome,1536,864,,,,,,,,,,,,,,,,,3,,,,,,,,,,,,,,,,,,,,,,,,,,,929.633095,211,right,1.033855,clownfish     ,4,4,-1,0,0,929.667145,929.667145,932.159575,0,56,56,56,1,211,5,4,slipper     ,clownfish     ,html/resources/sequences_IDs/B/08_slipper.jpg,html/resources/sequences_IDs/A/04_clownfish.jpg,8,4,3,2,2,1,6,3,0,2,,,,,,,,,,,,,,,,,,,,
,,,,,2,2020-07-01_09h32.07.316,retriever_ti,2020.1.3,Win32,60,Chrome,1536,864,,,,,,,,,,,,,,,,,3,,,,,,,,,,,,,,,,,,,,,,,,,,,933.258595,212,left,0.67796,giraffe     ,7,3,6,1,3,933.291995,933.291995,935.782425,0,57,57,57,1,212,7,1,giraffe     ,phone       ,html/resources/sequences_IDs/B/03_giraffe.jpg,html/resources/sequences_IDs/B/09_phone.jpg,3,9,1,1,4,2,2,7,0,2,,,,,,,,,,,,,,,,,,,,
,,,,,2,2020-07-01_09h32.07.316,retriever_ti,2020.1.3,Win32,60,Chrome,1536,864,,,,,,,,,,,,,,,,,3,,,,,,,,,,,,,,,,,,,,,,,,,,,936.39872,213,left,1.200895,satellite_dish,2,10,-4,0,3,936.4172,936.4172,938.907185,0,58,58,58,1,213,2,6,satellite_dish,dress         ,html/resources/sequences_IDs/A/10_satellite_dish.jpg,html/resources/sequences_IDs/A/07_dress.jpg,10,7,4,2,3,2,8,5,0,2,,,,,,,,,,,,,,,,,,,,
,,,,,2,2020-07-01_09h32.07.316,retriever_ti,2020.1.3,Win32,60,Chrome,1536,864,,,,,,,,,,,,,,,,,3,,,,,,,,,,,,,,,,,,,,,,,,,,,939.524135,214,left,0.673625,clownfish     ,4,4,-1,0,0,939.558485,939.558485,942.04867,0,59,59,59,1,214,4,5,clownfish     ,slipper     ,html/resources/sequences_IDs/A/04_clownfish.jpg,html/resources/sequences_IDs/B/08_slipper.jpg,4,8,2,1,3,2,3,6,0,2,,,,,,,,,,,,,,,,,,,,
,,,,,2,2020-07-01_09h32.07.316,retriever_ti,2020.1.3,Win32,60,Chrome,1536,864,,,,,,,,,,,,,,,,,3,,,,,,,,,,,,,,,,,,,,,,,,,,,943.14654,215,right,0.54963,parrot      ,3,5,2,1,3,943.180595,943.180595,945.672295,0,60,60,60,1,215,1,3,phone       ,parrot      ,html/resources/sequences_IDs/B/09_phone.jpg,html/resources/sequences_IDs/B/05_parrot.jpg,9,5,4,2,2,1,7,4,0,2,,,,,,,,,,,,,,,,,,,,
,,,,,2,2020-07-01_09h32.07.316,retriever_ti,2020.1.3,Win32,60,Chrome,1536,864,,,,,,,,,,,,,,,,,3,,,,,,,,,,,,,,,,,,,,,,,,,,,946.2877,216,right,0.773405,clownfish     ,4,4,3,1,3,946.32213,946.32213,948.813695,0,61,61,61,1,216,1,4,phone       ,clownfish     ,html/resources/sequences_IDs/B/09_phone.jpg,html/resources/sequences_IDs/A/04_clownfish.jpg,9,4,4,2,2,1,7,3,0,2,,,,,,,,,,,,,,,,,,,,
,,,,,2,2020-07-01_09h32.07.316,retriever_ti,2020.1.3,Win32,60,Chrome,1536,864,,,,,,,,,,,,,,,,,3,,,,,,,,,,,,,,,,,,,,,,,,,,,949.42957,217,left,1.01343,clownfish     ,4,4,3,1,3,949.4461,949.4461,951.93847,0,62,62,62,1,217,4,1,clownfish     ,phone       ,html/resources/sequences_IDs/A/04_clownfish.jpg,html/resources/sequences_IDs/B/09_phone.jpg,4,9,2,1,4,2,3,7,0,2,,,,,,,,,,,,,,,,,,,,
,,,,,2,2020-07-01_09h32.07.316,retriever_ti,2020.1.3,Win32,60,Chrome,1536,864,,,,,,,,,,,,,,,,,3,,,,,,,,,,,,,,,,,,,,,,,,,,,952.55409,218,left,0.88307,giraffe     ,7,3,1,1,0,952.58809,952.58809,955.08,0,63,63,63,1,218,7,6,giraffe     ,dress         ,html/resources/sequences_IDs/B/03_giraffe.jpg,html/resources/sequences_IDs/A/07_dress.jpg,3,7,1,1,3,2,2,5,1,2,,,,,,,,,,,,,,,,,,,,
,,,,,2,2020-07-01_09h32.07.316,retriever_ti,2020.1.3,Win32,60,Chrome,1536,864,,,,,,,,,,,,,,,,,3,,,,,,,,,,,,,,,,,,,,,,,,,,,956.17699,219,left,1.30233,giraffe     ,7,3,4,1,3,956.21082,956.21082,958.703125,0,64,64,64,1,219,7,3,giraffe     ,parrot      ,html/resources/sequences_IDs/B/03_giraffe.jpg,html/resources/sequences_IDs/B/05_parrot.jpg,3,5,1,1,2,1,2,4,0,2,,,,,,,,,,,,,,,,,,,,
,,,,,2,2020-07-01_09h32.07.316,retriever_ti,2020.1.3,Win32,60,Chrome,1536,864,,,,,,,,,,,,,,,,,3,,,,,,,,,,,,,,,,,,,,,,,,,,,959.31994,220,left,1.67153,seaturtle     ,8,2,1,1,0,959.35465,959.35465,961.84466,0,65,65,65,1,220,8,7,seaturtle     ,giraffe     ,html/resources/sequences_IDs/A/02_seaturtle.jpg,html/resources/sequences_IDs/B/03_giraffe.jpg,2,3,2,1,1,1,1,2,1,2,,,,,,,,,,,,,,,,,,,,
,,,,,2,2020-07-01_09h32.07.316,retriever_ti,2020.1.3,Win32,60,Chrome,1536,864,,,,,,,,,,,,,,,,,3,,,,,,,,,,,,,,,,,,,,,,,,,,,962.9423,221,right,1.26878,clownfish     ,4,4,2,1,3,962.975885,962.975885,965.468455,0,66,66,66,1,221,2,4,satellite_dish,clownfish     ,html/resources/sequences_IDs/A/10_satellite_dish.jpg,html/resources/sequences_IDs/A/04_clownfish.jpg,10,4,4,2,2,1,8,3,0,2,,,,,,,,,,,,,,,,,,,,
,,,,,2,2020-07-01_09h32.07.316,retriever_ti,2020.1.3,Win32,60,Chrome,1536,864,,,,,,,,,,,,,,,,,3,,,,,,,,,,,,,,,,,,,,,,,,,,,966.083495,222,left,0.840815,satellite_dish,2,10,1,1,1,966.101015,966.101015,968.59302,0,67,67,67,1,222,2,1,satellite_dish,phone       ,html/resources/sequences_IDs/A/10_satellite_dish.jpg,html/resources/sequences_IDs/B/09_phone.jpg,10,9,4,2,4,2,8,7,0,2,,,,,,,,,,,,,,,,,,,,
