instructionsLoop.thisRepN,instructionsLoop.thisTrialN,instructionsLoop.thisN,instructionsLoop.thisIndex,instructionsLoop.ran,participant,date,expName,psychopyVersion,OS,frameRate,browser,xResolution,yResolution,fix_onset,tprac,practiceKey.keys,practiceKey.rt,pracitem_chosen_name,acc_practice,P1_onsetPrac,P2_onsetPrac,onsetFeedbPrac,practiceTrials.thisRepN,practiceTrials.thisTrialN,practiceTrials.thisN,practiceTrials.thisIndex,practiceTrials.ran,P1,P2,Block,LocItem1,LocItem2,NameItem1,NameItem2,key_respAC_prac.keys,key_respAC_prac.corr,key_respAC_prac.rt,AC_acc,Attentions.thisRepN,Attentions.thisTrialN,Attentions.thisN,Attentions.thisIndex,Attentions.ran,Stim,Loc1,Loc2,Loc3,Loc4,CorrAns,keyDisturbed.keys,keyDisturbed.rt,repPractice.thisRepN,repPractice.thisTrialN,repPractice.thisN,repPractice.thisIndex,repPractice.ran,fixcross_onsetMain,trialNumber,key_resp.keys,key_resp.rt,item_chosen_name,item_chosen_value,item_chosen_ID,diff_chosen_minus_reject,acc_real,acc_feedback,P1_onset,P2_onset,feedb_onset,trials.thisRepN,trials.thisTrialN,trials.thisN,trials.thisIndex,trials.ran,Trial,ValueP1,ValueP2,P1name,P2name,P1Loc,P2Loc,P1id,P2id,Micro_categoryP1,Macro_categoryP1,Micro_categoryP2,Macro_categoryP2,ID_sequenceP1,ID_sequenceP2,InverseFb,pNumber,repBlocks.thisRepN,repBlocks.thisTrialN,repBlocks.thisN,repBlocks.thisIndex,repBlocks.ran,key_respAC.keys,key_respAC.corr,key_respAC.rt,trials_AC.thisRepN,trials_AC.thisTrialN,trials_AC.thisN,trials_AC.thisIndex,trials_AC.ran,Bonus,BonusLoop.thisRepN,BonusLoop.thisTrialN,BonusLoop.thisN,BonusLoop.thisIndex,BonusLoop.ran,comments
0,0,0,0,1,30,2020-07-03_13h51.58.836,retriever_ti,2020.1.3,MacIntel,60,Chrome,1440,900,,,,,,,,,,,,,,,,,,,,,,,,,,,,,,,,,,,,,,,,,,,,,,,,,,,,,,,,,,,,,,,,,,,,,,,,,,,,,,,,,,,,,,,,,,,,,,,,,,
1,0,1,0,1,30,2020-07-03_13h51.58.836,retriever_ti,2020.1.3,MacIntel,60,Chrome,1440,900,,,,,,,,,,,,,,,,,,,,,,,,,,,,,,,,,,,,,,,,,,,,,,,,,,,,,,,,,,,,,,,,,,,,,,,,,,,,,,,,,,,,,,,,,,,,,,,,,,
2,0,2,0,1,30,2020-07-03_13h51.58.836,retriever_ti,2020.1.3,MacIntel,60,Chrome,1440,900,,,,,,,,,,,,,,,,,,,,,,,,,,,,,,,,,,,,,,,,,,,,,,,,,,,,,,,,,,,,,,,,,,,,,,,,,,,,,,,,,,,,,,,,,,,,,,,,,,
3,0,3,0,1,30,2020-07-03_13h51.58.836,retriever_ti,2020.1.3,MacIntel,60,Chrome,1440,900,,,,,,,,,,,,,,,,,,,,,,,,,,,,,,,,,,,,,,,,,,,,,,,,,,,,,,,,,,,,,,,,,,,,,,,,,,,,,,,,,,,,,,,,,,,,,,,,,,
4,0,4,0,1,30,2020-07-03_13h51.58.836,retriever_ti,2020.1.3,MacIntel,60,Chrome,1440,900,,,,,,,,,,,,,,,,,,,,,,,,,,,,,,,,,,,,,,,,,,,,,,,,,,,,,,,,,,,,,,,,,,,,,,,,,,,,,,,,,,,,,,,,,,,,,,,,,,
5,0,5,0,1,30,2020-07-03_13h51.58.836,retriever_ti,2020.1.3,MacIntel,60,Chrome,1440,900,,,,,,,,,,,,,,,,,,,,,,,,,,,,,,,,,,,,,,,,,,,,,,,,,,,,,,,,,,,,,,,,,,,,,,,,,,,,,,,,,,,,,,,,,,,,,,,,,,
6,0,6,0,1,30,2020-07-03_13h51.58.836,retriever_ti,2020.1.3,MacIntel,60,Chrome,1440,900,,,,,,,,,,,,,,,,,,,,,,,,,,,,,,,,,,,,,,,,,,,,,,,,,,,,,,,,,,,,,,,,,,,,,,,,,,,,,,,,,,,,,,,,,,,,,,,,,,
7,0,7,0,1,30,2020-07-03_13h51.58.836,retriever_ti,2020.1.3,MacIntel,60,Chrome,1440,900,,,,,,,,,,,,,,,,,,,,,,,,,,,,,,,,,,,,,,,,,,,,,,,,,,,,,,,,,,,,,,,,,,,,,,,,,,,,,,,,,,,,,,,,,,,,,,,,,,
8,0,8,0,1,30,2020-07-03_13h51.58.836,retriever_ti,2020.1.3,MacIntel,60,Chrome,1440,900,,,,,,,,,,,,,,,,,,,,,,,,,,,,,,,,,,,,,,,,,,,,,,,,,,,,,,,,,,,,,,,,,,,,,,,,,,,,,,,,,,,,,,,,,,,,,,,,,,
9,0,9,0,1,30,2020-07-03_13h51.58.836,retriever_ti,2020.1.3,MacIntel,60,Chrome,1440,900,,,,,,,,,,,,,,,,,,,,,,,,,,,,,,,,,,,,,,,,,,,,,,,,,,,,,,,,,,,,,,,,,,,,,,,,,,,,,,,,,,,,,,,,,,,,,,,,,,
10,0,10,0,1,30,2020-07-03_13h51.58.836,retriever_ti,2020.1.3,MacIntel,60,Chrome,1440,900,,,,,,,,,,,,,,,,,,,,,,,,,,,,,,,,,,,,,,,,,,,,,,,,,,,,,,,,,,,,,,,,,,,,,,,,,,,,,,,,,,,,,,,,,,,,,,,,,,
11,0,11,0,1,30,2020-07-03_13h51.58.836,retriever_ti,2020.1.3,MacIntel,60,Chrome,1440,900,,,,,,,,,,,,,,,,,,,,,,,,,,,,,,,,,,,,,,,,,,,,,,,,,,,,,,,,,,,,,,,,,,,,,,,,,,,,,,,,,,,,,,,,,,,,,,,,,,
12,0,12,0,1,30,2020-07-03_13h51.58.836,retriever_ti,2020.1.3,MacIntel,60,Chrome,1440,900,,,,,,,,,,,,,,,,,,,,,,,,,,,,,,,,,,,,,,,,,,,,,,,,,,,,,,,,,,,,,,,,,,,,,,,,,,,,,,,,,,,,,,,,,,,,,,,,,,
13,0,13,0,1,30,2020-07-03_13h51.58.836,retriever_ti,2020.1.3,MacIntel,60,Chrome,1440,900,,,,,,,,,,,,,,,,,,,,,,,,,,,,,,,,,,,,,,,,,,,,,,,,,,,,,,,,,,,,,,,,,,,,,,,,,,,,,,,,,,,,,,,,,,,,,,,,,,
14,0,14,0,1,30,2020-07-03_13h51.58.836,retriever_ti,2020.1.3,MacIntel,60,Chrome,1440,900,,,,,,,,,,,,,,,,,,,,,,,,,,,,,,,,,,,,,,,,,,,,,,,,,,,,,,,,,,,,,,,,,,,,,,,,,,,,,,,,,,,,,,,,,,,,,,,,,,
,,,,,30,2020-07-03_13h51.58.836,retriever_ti,2020.1.3,MacIntel,60,Chrome,1440,900,197.253185,1,right,1.14694,canary,1,197.294725,197.294725,199.79326,0,0,0,0,1,2,5,1,html/resources/stimuli_practice_decision/04_beetle.jpg,html/resources/stimuli_practice_decision/02_canary.jpg,beetle,canary,,,,,,,,,,,,,,,,,,,,,,,,,,,,,,,,,,,,,,,,,,,,,,,,,,,,,,,,,,,,,,,,,,,,,,,,,,,,,
,,,,,30,2020-07-03_13h51.58.836,retriever_ti,2020.1.3,MacIntel,60,Chrome,1440,900,200.322115,2,left,1.12645,rabbit,1,200.33768,200.33768,202.829055,0,1,1,1,1,4,3,1,html/resources/stimuli_practice_decision/01_rabbit.jpg,html/resources/stimuli_practice_decision/07_sock.jpg,rabbit,sock,,,,,,,,,,,,,,,,,,,,,,,,,,,,,,,,,,,,,,,,,,,,,,,,,,,,,,,,,,,,,,,,,,,,,,,,,,,,,
,,,,,30,2020-07-03_13h51.58.836,retriever_ti,2020.1.3,MacIntel,60,Chrome,1440,900,203.83042,3,left,1.49827,pullover,1,203.84629,203.84629,206.344645,0,2,2,2,1,6,2,1,html/resources/stimuli_practice_decision/06_pullover.jpg,html/resources/stimuli_practice_decision/04_beetle.jpg,pullover,beetle,,,,,,,,,,,,,,,,,,,,,,,,,,,,,,,,,,,,,,,,,,,,,,,,,,,,,,,,,,,,,,,,,,,,,,,,,,,,,
,,,,,30,2020-07-03_13h51.58.836,retriever_ti,2020.1.3,MacIntel,60,Chrome,1440,900,206.847035,4,right,1.018985,handmixer,0,206.88142,206.88142,209.379055,0,3,3,3,1,7,1,1,html/resources/stimuli_practice_decision/05_glasses.jpg,html/resources/stimuli_practice_decision/08_handmixer.jpg,glasses,handmixer,,,,,,,,,,,,,,,,,,,,,,,,,,,,,,,,,,,,,,,,,,,,,,,,,,,,,,,,,,,,,,,,,,,,,,,,,,,,,
,,,,,30,2020-07-03_13h51.58.836,retriever_ti,2020.1.3,MacIntel,60,Chrome,1440,900,209.88062,5,right,1.19023,pullover,0,209.89882,209.89882,212.396655,0,4,4,4,1,7,6,1,html/resources/stimuli_practice_decision/05_glasses.jpg,html/resources/stimuli_practice_decision/06_pullover.jpg,glasses,pullover,,,,,,,,,,,,,,,,,,,,,,,,,,,,,,,,,,,,,,,,,,,,,,,,,,,,,,,,,,,,,,,,,,,,,,,,,,,,,
,,,,,30,2020-07-03_13h51.58.836,retriever_ti,2020.1.3,MacIntel,60,Chrome,1440,900,213.39886,6,left,1.429545,rabbit,0,213.417475,213.417475,215.91463,0,5,5,5,1,4,7,1,html/resources/stimuli_practice_decision/01_rabbit.jpg,html/resources/stimuli_practice_decision/05_glasses.jpg,rabbit,glasses,,,,,,,,,,,,,,,,,,,,,,,,,,,,,,,,,,,,,,,,,,,,,,,,,,,,,,,,,,,,,,,,,,,,,,,,,,,,,
,,,,,30,2020-07-03_13h51.58.836,retriever_ti,2020.1.3,MacIntel,60,Chrome,1440,900,216.432825,7,left,1.36946,handmixer,0,216.448975,216.448975,218.948645,0,6,6,6,1,1,2,1,html/resources/stimuli_practice_decision/08_handmixer.jpg,html/resources/stimuli_practice_decision/04_beetle.jpg,handmixer,beetle,,,,,,,,,,,,,,,,,,,,,,,,,,,,,,,,,,,,,,,,,,,,,,,,,,,,,,,,,,,,,,,,,,,,,,,,,,,,,
,,,,,30,2020-07-03_13h51.58.836,retriever_ti,2020.1.3,MacIntel,60,Chrome,1440,900,219.951645,8,left,1.19364,rabbit,1,219.9674,219.9674,222.467155,0,7,7,7,1,4,3,1,html/resources/stimuli_practice_decision/01_rabbit.jpg,html/resources/stimuli_practice_decision/07_sock.jpg,rabbit,sock,,,,,,,,,,,,,,,,,,,,,,,,,,,,,,,,,,,,,,,,,,,,,,,,,,,,,,,,,,,,,,,,,,,,,,,,,,,,,
,,,,,30,2020-07-03_13h51.58.836,retriever_ti,2020.1.3,MacIntel,60,Chrome,1440,900,,,,,,,,,,,,,,,,,,,,,,up,1,1.54759,1,0,0,0,0,1,html/resources/sequences_IDs/circle.png,circle ↑,square →,triangle ↓,← star ,up,,,,,,,,,,,,,,,,,,,,,,,,,,,,,,,,,,,,,,,,,,,,,,,,,,,,,,,,,,,,,,
,,,,,30,2020-07-03_13h51.58.836,retriever_ti,2020.1.3,MacIntel,60,Chrome,1440,900,,,,,,,,,,,,,,,,,,,,,,down,1,3.131125,1,0,1,1,1,1,html/resources/sequences_IDs/star.png,square ↑,circle →,star ↓,← triangle,down,,,,,,,,,,,,,,,,,,,,,,,,,,,,,,,,,,,,,,,,,,,,,,,,,,,,,,,,,,,,,,
,,,,,30,2020-07-03_13h51.58.836,retriever_ti,2020.1.3,MacIntel,60,Chrome,1440,900,,,,,,,,,,,,,,,,,,,,,,down,1,3.81527,1,0,2,2,3,1,html/resources/sequences_IDs/triangle.png,star ↑,square →,triangle ↓,← circle,down,,,,,,,,,,,,,,,,,,,,,,,,,,,,,,,,,,,,,,,,,,,,,,,,,,,,,,,,,,,,,,
,,,,,30,2020-07-03_13h51.58.836,retriever_ti,2020.1.3,MacIntel,60,Chrome,1440,900,,,,,,,,,,,,,,,,,,,,,,left,1,1.72755,1,0,3,3,2,1,html/resources/sequences_IDs/square1.png,star ↑,triangle →,circle ↓,← square,left,,,,,,,,,,,,,,,,,,,,,,,,,,,,,,,,,,,,,,,,,,,,,,,,,,,,,,,,,,,,,,
,,,,,30,2020-07-03_13h51.58.836,retriever_ti,2020.1.3,MacIntel,60,Chrome,1440,900,,,,,,,,,,,,,,,,,,,,,,,,,,,,,,,,,,,,,0,7.15491,0,0,0,0,1,,,,,,,,,,,,,,,,,,,,,,,,,,,,,,,,,,,,,,,,,,,,,,,,,,,,,,,
,,,,,30,2020-07-03_13h51.58.836,retriever_ti,2020.1.3,MacIntel,60,Chrome,1440,900,244.566495,9,right,0.98888,glasses,1,244.59297,244.59297,247.093155,0,0,0,0,1,6,7,1,html/resources/stimuli_practice_decision/06_pullover.jpg,html/resources/stimuli_practice_decision/05_glasses.jpg,pullover,glasses,,,,,,,,,,,,,,,,,,,,,,,,,,,,,,,,,,,,,,,,,,,,,,,,,,,,,,,,,,,,,,,,,,,,,,,,,,,,,
,,,,,30,2020-07-03_13h51.58.836,retriever_ti,2020.1.3,MacIntel,60,Chrome,1440,900,248.09661,10,right,1.459545,beetle,0,248.129615,248.129615,250.62675,0,1,1,1,1,6,2,1,html/resources/stimuli_practice_decision/06_pullover.jpg,html/resources/stimuli_practice_decision/04_beetle.jpg,pullover,beetle,,,,,,,,,,,,,,,,,,,,,,,,,,,,,,,,,,,,,,,,,,,,,,,,,,,,,,,,,,,,,,,,,,,,,,,,,,,,,
,,,,,30,2020-07-03_13h51.58.836,retriever_ti,2020.1.3,MacIntel,60,Chrome,1440,900,251.12972,11,left,1.565795,canary,0,251.14547,251.14547,253.64704,0,2,2,2,1,5,6,1,html/resources/stimuli_practice_decision/02_canary.jpg,html/resources/stimuli_practice_decision/06_pullover.jpg,canary,pullover,,,,,,,,,,,,,,,,,,,,,,,,,,,,,,,,,,,,,,,,,,,,,,,,,,,,,,,,,,,,,,,,,,,,,,,,,,,,,
,,,,,30,2020-07-03_13h51.58.836,retriever_ti,2020.1.3,MacIntel,60,Chrome,1440,900,254.649095,12,right,1.066175,glasses,0,254.681505,254.681505,257.18194,0,3,3,3,1,8,7,1,html/resources/stimuli_practice_decision/03_squirrel.jpg,html/resources/stimuli_practice_decision/05_glasses.jpg,squirrel,glasses,,,,,,,,,,,,,,,,,,,,,,,,,,,,,,,,,,,,,,,,,,,,,,,,,,,,,,,,,,,,,,,,,,,,,,,,,,,,,
,,,,,30,2020-07-03_13h51.58.836,retriever_ti,2020.1.3,MacIntel,60,Chrome,1440,900,258.18363,13,left,1.220655,canary,1,258.216225,258.216225,260.7163,0,4,4,4,1,5,3,1,html/resources/stimuli_practice_decision/02_canary.jpg,html/resources/stimuli_practice_decision/07_sock.jpg,canary,sock,,,,,,,,,,,,,,,,,,,,,,,,,,,,,,,,,,,,,,,,,,,,,,,,,,,,,,,,,,,,,,,,,,,,,,,,,,,,,
,,,,,30,2020-07-03_13h51.58.836,retriever_ti,2020.1.3,MacIntel,60,Chrome,1440,900,261.231145,14,left,1.18426,glasses,0,261.26496,261.26496,263.76596,0,5,5,5,1,7,8,1,html/resources/stimuli_practice_decision/05_glasses.jpg,html/resources/stimuli_practice_decision/03_squirrel.jpg,glasses,squirrel,,,,,,,,,,,,,,,,,,,,,,,,,,,,,,,,,,,,,,,,,,,,,,,,,,,,,,,,,,,,,,,,,,,,,,,,,,,,,
,,,,,30,2020-07-03_13h51.58.836,retriever_ti,2020.1.3,MacIntel,60,Chrome,1440,900,264.767675,15,right,1.17163,rabbit,0,264.799945,264.799945,267.299405,0,6,6,6,1,5,4,1,html/resources/stimuli_practice_decision/02_canary.jpg,html/resources/stimuli_practice_decision/01_rabbit.jpg,canary,rabbit,,,,,,,,,,,,,,,,,,,,,,,,,,,,,,,,,,,,,,,,,,,,,,,,,,,,,,,,,,,,,,,,,,,,,,,,,,,,,
,,,,,30,2020-07-03_13h51.58.836,retriever_ti,2020.1.3,MacIntel,60,Chrome,1440,900,268.300805,16,left,0.99487,canary,1,268.333895,268.333895,270.820895,0,7,7,7,1,5,3,1,html/resources/stimuli_practice_decision/02_canary.jpg,html/resources/stimuli_practice_decision/07_sock.jpg,canary,sock,,,,,,,,,,,,,,,,,,,,,,,,,,,,,,,,,,,,,,,,,,,,,,,,,,,,,,,,,,,,,,,,,,,,,,,,,,,,,
,,,,,30,2020-07-03_13h51.58.836,retriever_ti,2020.1.3,MacIntel,60,Chrome,1440,900,,,,,,,,,,,,,,,,,,,,,,up,1,1.26729,1,0,0,0,0,1,html/resources/sequences_IDs/circle.png,circle ↑,square →,triangle ↓,← star ,up,,,,,,,,,,,,,,,,,,,,,,,,,,,,,,,,,,,,,,,,,,,,,,,,,,,,,,,,,,,,,,
,,,,,30,2020-07-03_13h51.58.836,retriever_ti,2020.1.3,MacIntel,60,Chrome,1440,900,,,,,,,,,,,,,,,,,,,,,,down,1,1.418845,1,0,1,1,3,1,html/resources/sequences_IDs/triangle.png,star ↑,square →,triangle ↓,← circle,down,,,,,,,,,,,,,,,,,,,,,,,,,,,,,,,,,,,,,,,,,,,,,,,,,,,,,,,,,,,,,,
,,,,,30,2020-07-03_13h51.58.836,retriever_ti,2020.1.3,MacIntel,60,Chrome,1440,900,,,,,,,,,,,,,,,,,,,,,,left,1,1.56695,1,0,2,2,2,1,html/resources/sequences_IDs/square1.png,star ↑,triangle →,circle ↓,← square,left,,,,,,,,,,,,,,,,,,,,,,,,,,,,,,,,,,,,,,,,,,,,,,,,,,,,,,,,,,,,,,
,,,,,30,2020-07-03_13h51.58.836,retriever_ti,2020.1.3,MacIntel,60,Chrome,1440,900,,,,,,,,,,,,,,,,,,,,,,down,1,1.60968,1,0,3,3,1,1,html/resources/sequences_IDs/star.png,square ↑,circle →,star ↓,← triangle,down,,,,,,,,,,,,,,,,,,,,,,,,,,,,,,,,,,,,,,,,,,,,,,,,,,,,,,,,,,,,,,
,,,,,30,2020-07-03_13h51.58.836,retriever_ti,2020.1.3,MacIntel,60,Chrome,1440,900,,,,,,,,,,,,,,,,,,,,,,,,,,,,,,,,,,,,,0,4.646445,1,0,1,0,1,,,,,,,,,,,,,,,,,,,,,,,,,,,,,,,,,,,,,,,,,,,,,,,,,,,,,,,
,,,,,30,2020-07-03_13h51.58.836,retriever_ti,2020.1.3,MacIntel,60,Chrome,1440,900,,,,,,,,,,,,,,,,,1,,,,,,,,,,,,,,,,,,,,,,,,,,,290.74426,1,left,1.01007,holdfast    ,5,4,2,1,3,290.765865,290.765865,293.25965,0,0,0,0,1,1,5,3,holdfast    ,gloves      ,html/resources/sequences_IDs/B/04_holdfast.jpg,html/resources/sequences_IDs/B/06_gloves.jpg,4,6,2,1,3,2,3,5,0,30,,,,,,,,,,,,,,,,,,,,
,,,,,30,2020-07-03_13h51.58.836,retriever_ti,2020.1.3,MacIntel,60,Chrome,1440,900,,,,,,,,,,,,,,,,,1,,,,,,,,,,,,,,,,,,,,,,,,,,,293.877485,2,right,0.90655,calculator    ,6,9,3,1,3,293.910845,293.910845,296.409555,0,1,1,1,1,2,3,6,gloves      ,calculator    ,html/resources/sequences_IDs/B/06_gloves.jpg,html/resources/sequences_IDs/A/09_calculator.jpg,6,9,3,2,4,2,5,8,0,30,,,,,,,,,,,,,,,,,,,,
,,,,,30,2020-07-03_13h51.58.836,retriever_ti,2020.1.3,MacIntel,60,Chrome,1440,900,,,,,,,,,,,,,,,,,1,,,,,,,,,,,,,,,,,,,,,,,,,,,297.01243,3,right,1.073615,peacock       ,8,5,6,1,3,297.04584,297.04584,299.545045,0,2,2,2,1,3,2,8,seaturtle     ,peacock       ,html/resources/sequences_IDs/A/02_seaturtle.jpg,html/resources/sequences_IDs/A/05_peacock.jpg,2,5,2,1,2,1,2,4,0,30,,,,,,,,,,,,,,,,,,,,
,,,,,30,2020-07-03_13h51.58.836,retriever_ti,2020.1.3,MacIntel,60,Chrome,1440,900,,,,,,,,,,,,,,,,,1,,,,,,,,,,,,,,,,,,,,,,,,,,,300.14764,4,left,1.01798,dress         ,4,7,3,1,3,300.182265,300.182265,302.680035,0,3,3,3,1,4,4,1,dress         ,redfox      ,html/resources/sequences_IDs/A/07_dress.jpg,html/resources/sequences_IDs/B/01_redfox.jpg,7,1,3,2,1,1,6,1,0,30,,,,,,,,,,,,,,,,,,,,
,,,,,30,2020-07-03_13h51.58.836,retriever_ti,2020.1.3,MacIntel,60,Chrome,1440,900,,,,,,,,,,,,,,,,,1,,,,,,,,,,,,,,,,,,,,,,,,,,,303.28217,5,right,0.82066,seaturtle     ,2,2,-6,0,3,303.297765,303.297765,305.79605,0,4,4,4,1,5,8,2,peacock       ,seaturtle     ,html/resources/sequences_IDs/A/05_peacock.jpg,html/resources/sequences_IDs/A/02_seaturtle.jpg,5,2,2,1,2,1,4,2,0,30,,,,,,,,,,,,,,,,,,,,
,,,,,30,2020-07-03_13h51.58.836,retriever_ti,2020.1.3,MacIntel,60,Chrome,1440,900,,,,,,,,,,,,,,,,,1,,,,,,,,,,,,,,,,,,,,,,,,,,,306.396785,6,left,0.74147,calculator    ,6,9,-1,0,1,306.41844,306.41844,308.91447,0,5,5,5,1,6,6,7,calculator    ,slipper     ,html/resources/sequences_IDs/A/09_calculator.jpg,html/resources/sequences_IDs/B/08_slipper.jpg,9,8,4,2,3,2,8,7,1,30,,,,,,,,,,,,,,,,,,,,
,,,,,30,2020-07-03_13h51.58.836,retriever_ti,2020.1.3,MacIntel,60,Chrome,1440,900,,,,,,,,,,,,,,,,,1,,,,,,,,,,,,,,,,,,,,,,,,,,,310.016085,7,right,1.04504,holdfast    ,5,4,1,1,1,310.048925,310.048925,312.548295,0,6,6,6,1,7,4,5,dress         ,holdfast    ,html/resources/sequences_IDs/A/07_dress.jpg,html/resources/sequences_IDs/B/04_holdfast.jpg,7,4,3,2,2,1,6,3,0,30,,,,,,,,,,,,,,,,,,,,
,,,,,30,2020-07-03_13h51.58.836,retriever_ti,2020.1.3,MacIntel,60,Chrome,1440,900,,,,,,,,,,,,,,,,,1,,,,,,,,,,,,,,,,,,,,,,,,,,,313.650335,8,left,1.229745,seaturtle     ,2,2,1,1,1,313.66754,313.66754,316.16639,0,7,7,7,1,8,2,1,seaturtle     ,redfox      ,html/resources/sequences_IDs/A/02_seaturtle.jpg,html/resources/sequences_IDs/B/01_redfox.jpg,2,1,2,1,1,1,2,1,0,30,,,,,,,,,,,,,,,,,,,,
,,,,,30,2020-07-03_13h51.58.836,retriever_ti,2020.1.3,MacIntel,60,Chrome,1440,900,,,,,,,,,,,,,,,,,1,,,,,,,,,,,,,,,,,,,,,,,,,,,317.27094,9,left,1.1907,calculator    ,6,9,1,1,1,317.28458,317.28458,319.78704,0,8,8,8,1,9,6,5,calculator    ,holdfast    ,html/resources/sequences_IDs/A/09_calculator.jpg,html/resources/sequences_IDs/B/04_holdfast.jpg,9,4,4,2,2,1,8,3,0,30,,,,,,,,,,,,,,,,,,,,
,,,,,30,2020-07-03_13h51.58.836,retriever_ti,2020.1.3,MacIntel,60,Chrome,1440,900,,,,,,,,,,,,,,,,,1,,,,,,,,,,,,,,,,,,,,,,,,,,,320.88922,10,right,0.81082,dress         ,4,7,1,1,1,320.922435,320.922435,323.418885,0,9,9,9,1,10,3,4,gloves      ,dress         ,html/resources/sequences_IDs/B/06_gloves.jpg,html/resources/sequences_IDs/A/07_dress.jpg,6,7,3,2,3,2,5,6,0,30,,,,,,,,,,,,,,,,,,,,
,,,,,30,2020-07-03_13h51.58.836,retriever_ti,2020.1.3,MacIntel,60,Chrome,1440,900,,,,,,,,,,,,,,,,,1,,,,,,,,,,,,,,,,,,,,,,,,,,,324.519835,11,right,0.9739,peacock       ,8,5,1,1,1,324.553565,324.553565,327.05425,0,10,10,10,1,11,7,8,slipper     ,peacock       ,html/resources/sequences_IDs/B/08_slipper.jpg,html/resources/sequences_IDs/A/05_peacock.jpg,8,5,3,2,2,1,7,4,0,30,,,,,,,,,,,,,,,,,,,,
,,,,,30,2020-07-03_13h51.58.836,retriever_ti,2020.1.3,MacIntel,60,Chrome,1440,900,,,,,,,,,,,,,,,,,1,,,,,,,,,,,,,,,,,,,,,,,,,,,328.157865,12,left,0.96079,seaturtle     ,2,2,-1,0,0,328.17185,328.17185,330.671505,0,11,11,11,1,12,2,3,seaturtle     ,gloves      ,html/resources/sequences_IDs/A/02_seaturtle.jpg,html/resources/sequences_IDs/B/06_gloves.jpg,2,6,2,1,3,2,2,5,0,30,,,,,,,,,,,,,,,,,,,,
,,,,,30,2020-07-03_13h51.58.836,retriever_ti,2020.1.3,MacIntel,60,Chrome,1440,900,,,,,,,,,,,,,,,,,1,,,,,,,,,,,,,,,,,,,,,,,,,,,331.773275,13,left,1.062015,holdfast    ,5,4,4,1,3,331.80692,331.80692,334.30609,0,12,12,12,1,13,5,1,holdfast    ,redfox      ,html/resources/sequences_IDs/B/04_holdfast.jpg,html/resources/sequences_IDs/B/01_redfox.jpg,4,1,2,1,1,1,3,1,0,30,,,,,,,,,,,,,,,,,,,,
,,,,,30,2020-07-03_13h51.58.836,retriever_ti,2020.1.3,MacIntel,60,Chrome,1440,900,,,,,,,,,,,,,,,,,1,,,,,,,,,,,,,,,,,,,,,,,,,,,334.90943,14,right,0.74216,seaturtle     ,2,2,1,1,1,334.94278,334.94278,337.44059,0,13,13,13,1,14,1,2,redfox      ,seaturtle     ,html/resources/sequences_IDs/B/01_redfox.jpg,html/resources/sequences_IDs/A/02_seaturtle.jpg,1,2,1,1,2,1,1,2,0,30,,,,,,,,,,,,,,,,,,,,
,,,,,30,2020-07-03_13h51.58.836,retriever_ti,2020.1.3,MacIntel,60,Chrome,1440,900,,,,,,,,,,,,,,,,,1,,,,,,,,,,,,,,,,,,,,,,,,,,,338.54324,15,left,0.934035,dress         ,4,7,-3,0,3,338.55899,338.55899,341.06014,0,14,14,14,1,15,4,7,dress         ,slipper     ,html/resources/sequences_IDs/A/07_dress.jpg,html/resources/sequences_IDs/B/08_slipper.jpg,7,8,3,2,3,2,6,7,0,30,,,,,,,,,,,,,,,,,,,,
,,,,,30,2020-07-03_13h51.58.836,retriever_ti,2020.1.3,MacIntel,60,Chrome,1440,900,,,,,,,,,,,,,,,,,1,,,,,,,,,,,,,,,,,,,,,,,,,,,341.679055,16,right,0.63049,seaturtle     ,2,2,-5,0,3,341.712425,341.712425,344.21113,0,15,15,15,1,16,7,2,slipper     ,seaturtle     ,html/resources/sequences_IDs/B/08_slipper.jpg,html/resources/sequences_IDs/A/02_seaturtle.jpg,8,2,3,2,2,1,7,2,0,30,,,,,,,,,,,,,,,,,,,,
,,,,,30,2020-07-03_13h51.58.836,retriever_ti,2020.1.3,MacIntel,60,Chrome,1440,900,,,,,,,,,,,,,,,,,1,,,,,,,,,,,,,,,,,,,,,,,,,,,344.8138,17,right,0.809665,gloves      ,3,6,-5,0,3,344.82759,344.82759,347.327275,0,16,16,16,1,17,8,3,peacock       ,gloves      ,html/resources/sequences_IDs/A/05_peacock.jpg,html/resources/sequences_IDs/B/06_gloves.jpg,5,6,2,1,3,2,4,5,0,30,,,,,,,,,,,,,,,,,,,,
,,,,,30,2020-07-03_13h51.58.836,retriever_ti,2020.1.3,MacIntel,60,Chrome,1440,900,,,,,,,,,,,,,,,,,1,,,,,,,,,,,,,,,,,,,,,,,,,,,347.93069,18,right,0.82173,dress         ,4,7,-1,0,0,347.96422,347.96422,350.461725,0,17,17,17,1,18,5,4,holdfast    ,dress         ,html/resources/sequences_IDs/B/04_holdfast.jpg,html/resources/sequences_IDs/A/07_dress.jpg,4,7,2,1,3,2,3,6,0,30,,,,,,,,,,,,,,,,,,,,
,,,,,30,2020-07-03_13h51.58.836,retriever_ti,2020.1.3,MacIntel,60,Chrome,1440,900,,,,,,,,,,,,,,,,,1,,,,,,,,,,,,,,,,,,,,,,,,,,,351.566485,19,left,0.85893,calculator    ,6,9,-2,0,3,351.59929,351.59929,354.09667,0,18,18,18,1,19,6,8,calculator    ,peacock       ,html/resources/sequences_IDs/A/09_calculator.jpg,html/resources/sequences_IDs/A/05_peacock.jpg,9,5,4,2,2,1,8,4,0,30,,,,,,,,,,,,,,,,,,,,
,,,,,30,2020-07-03_13h51.58.836,retriever_ti,2020.1.3,MacIntel,60,Chrome,1440,900,,,,,,,,,,,,,,,,,1,,,,,,,,,,,,,,,,,,,,,,,,,,,354.699325,20,left,1.002035,gloves      ,3,6,-1,0,0,354.716005,354.716005,357.21616,0,19,19,19,1,20,3,4,gloves      ,dress         ,html/resources/sequences_IDs/B/06_gloves.jpg,html/resources/sequences_IDs/A/07_dress.jpg,6,7,3,2,3,2,5,6,0,30,,,,,,,,,,,,,,,,,,,,
,,,,,30,2020-07-03_13h51.58.836,retriever_ti,2020.1.3,MacIntel,60,Chrome,1440,900,,,,,,,,,,,,,,,,,1,,,,,,,,,,,,,,,,,,,,,,,,,,,358.31586,21,right,0.859595,holdfast    ,5,4,-2,0,3,358.33457,358.33457,360.83375,0,20,20,20,1,21,7,5,slipper     ,holdfast    ,html/resources/sequences_IDs/B/08_slipper.jpg,html/resources/sequences_IDs/B/04_holdfast.jpg,8,4,3,2,2,1,7,3,0,30,,,,,,,,,,,,,,,,,,,,
,,,,,30,2020-07-03_13h51.58.836,retriever_ti,2020.1.3,MacIntel,60,Chrome,1440,900,,,,,,,,,,,,,,,,,1,,,,,,,,,,,,,,,,,,,,,,,,,,,361.43585,22,left,1.305135,holdfast    ,5,4,-3,0,3,361.45031,361.45031,363.952955,0,21,21,21,1,22,5,8,holdfast    ,peacock       ,html/resources/sequences_IDs/B/04_holdfast.jpg,html/resources/sequences_IDs/A/05_peacock.jpg,4,5,2,1,2,1,3,4,0,30,,,,,,,,,,,,,,,,,,,,
,,,,,30,2020-07-03_13h51.58.836,retriever_ti,2020.1.3,MacIntel,60,Chrome,1440,900,,,,,,,,,,,,,,,,,1,,,,,,,,,,,,,,,,,,,,,,,,,,,364.56715,23,left,0.738145,seaturtle     ,2,2,1,1,1,364.60139,364.60139,367.100895,0,22,22,22,1,23,2,1,seaturtle     ,redfox      ,html/resources/sequences_IDs/A/02_seaturtle.jpg,html/resources/sequences_IDs/B/01_redfox.jpg,2,1,2,1,1,1,2,1,0,30,,,,,,,,,,,,,,,,,,,,
,,,,,30,2020-07-03_13h51.58.836,retriever_ti,2020.1.3,MacIntel,60,Chrome,1440,900,,,,,,,,,,,,,,,,,1,,,,,,,,,,,,,,,,,,,,,,,,,,,368.202565,24,left,1.12365,gloves      ,3,6,1,1,1,368.236055,368.236055,370.73562,0,23,23,23,1,24,3,2,gloves      ,seaturtle     ,html/resources/sequences_IDs/B/06_gloves.jpg,html/resources/sequences_IDs/A/02_seaturtle.jpg,6,2,3,2,2,1,5,2,0,30,,,,,,,,,,,,,,,,,,,,
,,,,,30,2020-07-03_13h51.58.836,retriever_ti,2020.1.3,MacIntel,60,Chrome,1440,900,,,,,,,,,,,,,,,,,1,,,,,,,,,,,,,,,,,,,,,,,,,,,371.84105,25,right,1.133365,calculator    ,6,9,5,1,3,371.87427,371.87427,374.372495,0,24,24,24,1,25,1,6,redfox      ,calculator    ,html/resources/sequences_IDs/B/01_redfox.jpg,html/resources/sequences_IDs/A/09_calculator.jpg,1,9,1,1,4,2,1,8,0,30,,,,,,,,,,,,,,,,,,,,
,,,,,30,2020-07-03_13h51.58.836,retriever_ti,2020.1.3,MacIntel,60,Chrome,1440,900,,,,,,,,,,,,,,,,,1,,,,,,,,,,,,,,,,,,,,,,,,,,,374.974745,26,left,0.84481,gloves      ,3,6,-5,0,3,375.008985,375.008985,377.505515,0,25,25,25,1,26,3,8,gloves      ,peacock       ,html/resources/sequences_IDs/B/06_gloves.jpg,html/resources/sequences_IDs/A/05_peacock.jpg,6,5,3,2,2,1,5,4,0,30,,,,,,,,,,,,,,,,,,,,
,,,,,30,2020-07-03_13h51.58.836,retriever_ti,2020.1.3,MacIntel,60,Chrome,1440,900,,,,,,,,,,,,,,,,,1,,,,,,,,,,,,,,,,,,,,,,,,,,,378.108155,27,right,0.72249,gloves      ,3,6,-3,0,3,378.122995,378.122995,380.62333,0,26,26,26,1,27,6,3,calculator    ,gloves      ,html/resources/sequences_IDs/A/09_calculator.jpg,html/resources/sequences_IDs/B/06_gloves.jpg,9,6,4,2,3,2,8,5,0,30,,,,,,,,,,,,,,,,,,,,
,,,,,30,2020-07-03_13h51.58.836,retriever_ti,2020.1.3,MacIntel,60,Chrome,1440,900,,,,,,,,,,,,,,,,,1,,,,,,,,,,,,,,,,,,,,,,,,,,,381.244065,28,right,0.50722,dress         ,4,7,-4,0,3,381.27774,381.27774,383.77391,0,27,27,27,1,28,8,4,peacock       ,dress         ,html/resources/sequences_IDs/A/05_peacock.jpg,html/resources/sequences_IDs/A/07_dress.jpg,5,7,2,1,3,2,4,6,0,30,,,,,,,,,,,,,,,,,,,,
,,,,,30,2020-07-03_13h51.58.836,retriever_ti,2020.1.3,MacIntel,60,Chrome,1440,900,,,,,,,,,,,,,,,,,1,,,,,,,,,,,,,,,,,,,,,,,,,,,384.375985,29,right,0.81043,gloves      ,3,6,2,1,3,384.39162,384.39162,386.89326,0,28,28,28,1,29,1,3,redfox      ,gloves      ,html/resources/sequences_IDs/B/01_redfox.jpg,html/resources/sequences_IDs/B/06_gloves.jpg,1,6,1,1,3,2,1,5,0,30,,,,,,,,,,,,,,,,,,,,
,,,,,30,2020-07-03_13h51.58.836,retriever_ti,2020.1.3,MacIntel,60,Chrome,1440,900,,,,,,,,,,,,,,,,,1,,,,,,,,,,,,,,,,,,,,,,,,,,,387.49473,30,right,0.625875,dress         ,4,7,-1,0,0,387.5283,387.5283,390.027595,0,29,29,29,1,30,5,4,holdfast    ,dress         ,html/resources/sequences_IDs/B/04_holdfast.jpg,html/resources/sequences_IDs/A/07_dress.jpg,4,7,2,1,3,2,3,6,0,30,,,,,,,,,,,,,,,,,,,,
,,,,,30,2020-07-03_13h51.58.836,retriever_ti,2020.1.3,MacIntel,60,Chrome,1440,900,,,,,,,,,,,,,,,,,1,,,,,,,,,,,,,,,,,,,,,,,,,,,391.128505,31,left,0.557715,holdfast    ,5,4,3,1,3,391.162725,391.162725,393.660555,0,30,30,30,1,31,5,2,holdfast    ,seaturtle     ,html/resources/sequences_IDs/B/04_holdfast.jpg,html/resources/sequences_IDs/A/02_seaturtle.jpg,4,2,2,1,2,1,3,2,0,30,,,,,,,,,,,,,,,,,,,,
,,,,,30,2020-07-03_13h51.58.836,retriever_ti,2020.1.3,MacIntel,60,Chrome,1440,900,,,,,,,,,,,,,,,,,1,,,,,,,,,,,,,,,,,,,,,,,,,,,394.2638,32,left,0.6068,seaturtle     ,2,2,-5,0,3,394.297625,394.297625,396.795855,0,31,31,31,1,32,2,7,seaturtle     ,slipper     ,html/resources/sequences_IDs/A/02_seaturtle.jpg,html/resources/sequences_IDs/B/08_slipper.jpg,2,8,2,1,3,2,2,7,0,30,,,,,,,,,,,,,,,,,,,,
,,,,,30,2020-07-03_13h51.58.836,retriever_ti,2020.1.3,MacIntel,60,Chrome,1440,900,,,,,,,,,,,,,,,,,1,,,,,,,,,,,,,,,,,,,,,,,,,,,397.41571,33,right,0.88004,gloves      ,3,6,1,1,1,397.448885,397.448885,399.9483,0,32,32,32,1,33,2,3,seaturtle     ,gloves      ,html/resources/sequences_IDs/A/02_seaturtle.jpg,html/resources/sequences_IDs/B/06_gloves.jpg,2,6,2,1,3,2,2,5,0,30,,,,,,,,,,,,,,,,,,,,
,,,,,30,2020-07-03_13h51.58.836,retriever_ti,2020.1.3,MacIntel,60,Chrome,1440,900,,,,,,,,,,,,,,,,,1,,,,,,,,,,,,,,,,,,,,,,,,,,,401.050405,34,left,0.777055,calculator    ,6,9,-1,0,0,401.082725,401.082725,403.58091,0,33,33,33,1,34,6,7,calculator    ,slipper     ,html/resources/sequences_IDs/A/09_calculator.jpg,html/resources/sequences_IDs/B/08_slipper.jpg,9,8,4,2,3,2,8,7,0,30,,,,,,,,,,,,,,,,,,,,
,,,,,30,2020-07-03_13h51.58.836,retriever_ti,2020.1.3,MacIntel,60,Chrome,1440,900,,,,,,,,,,,,,,,,,1,,,,,,,,,,,,,,,,,,,,,,,,,,,404.68217,35,left,1.20601,seaturtle     ,2,2,1,1,0,404.715705,404.715705,407.215535,0,34,34,34,1,35,2,1,seaturtle     ,redfox      ,html/resources/sequences_IDs/A/02_seaturtle.jpg,html/resources/sequences_IDs/B/01_redfox.jpg,2,1,2,1,1,1,2,1,1,30,,,,,,,,,,,,,,,,,,,,
,,,,,30,2020-07-03_13h51.58.836,retriever_ti,2020.1.3,MacIntel,60,Chrome,1440,900,,,,,,,,,,,,,,,,,1,,,,,,,,,,,,,,,,,,,,,,,,,,,408.319475,36,left,1.159445,dress         ,4,7,1,1,0,408.3524,408.3524,410.85028,0,35,35,35,1,36,4,3,dress         ,gloves      ,html/resources/sequences_IDs/A/07_dress.jpg,html/resources/sequences_IDs/B/06_gloves.jpg,7,6,3,2,3,2,6,5,1,30,,,,,,,,,,,,,,,,,,,,
,,,,,30,2020-07-03_13h51.58.836,retriever_ti,2020.1.3,MacIntel,60,Chrome,1440,900,,,,,,,,,,,,,,,,,1,,,,,,,,,,,,,,,,,,,,,,,,,,,411.953905,37,left,1.614295,calculator    ,6,9,4,1,3,411.98699,411.98699,414.484185,0,36,36,36,1,37,6,2,calculator    ,seaturtle     ,html/resources/sequences_IDs/A/09_calculator.jpg,html/resources/sequences_IDs/A/02_seaturtle.jpg,9,2,4,2,2,1,8,2,0,30,,,,,,,,,,,,,,,,,,,,
,,,,,30,2020-07-03_13h51.58.836,retriever_ti,2020.1.3,MacIntel,60,Chrome,1440,900,,,,,,,,,,,,,,,,,1,,,,,,,,,,,,,,,,,,,,,,,,,,,415.085005,38,left,0.791595,gloves      ,3,6,1,1,0,415.104585,415.104585,417.602695,0,37,37,37,1,38,3,2,gloves      ,seaturtle     ,html/resources/sequences_IDs/B/06_gloves.jpg,html/resources/sequences_IDs/A/02_seaturtle.jpg,6,2,3,2,2,1,5,2,1,30,,,,,,,,,,,,,,,,,,,,
,,,,,30,2020-07-03_13h51.58.836,retriever_ti,2020.1.3,MacIntel,60,Chrome,1440,900,,,,,,,,,,,,,,,,,1,,,,,,,,,,,,,,,,,,,,,,,,,,,418.70437,39,right,0.57827,calculator    ,6,9,-1,0,0,418.737225,418.737225,421.239985,0,38,38,38,1,39,7,6,slipper     ,calculator    ,html/resources/sequences_IDs/B/08_slipper.jpg,html/resources/sequences_IDs/A/09_calculator.jpg,8,9,3,2,4,2,7,8,0,30,,,,,,,,,,,,,,,,,,,,
,,,,,30,2020-07-03_13h51.58.836,retriever_ti,2020.1.3,MacIntel,60,Chrome,1440,900,,,,,,,,,,,,,,,,,1,,,,,,,,,,,,,,,,,,,,,,,,,,,422.341275,40,left,0.516975,slipper     ,7,8,6,1,3,422.37272,422.37272,424.871825,0,39,39,39,1,40,7,1,slipper     ,redfox      ,html/resources/sequences_IDs/B/08_slipper.jpg,html/resources/sequences_IDs/B/01_redfox.jpg,8,1,3,2,1,1,7,1,0,30,,,,,,,,,,,,,,,,,,,,
,,,,,30,2020-07-03_13h51.58.836,retriever_ti,2020.1.3,MacIntel,60,Chrome,1440,900,,,,,,,,,,,,,,,,,1,,,,,,,,,,,,,,,,,,,,,,,,,,,425.475005,41,right,0.826295,slipper     ,7,8,6,1,3,425.489475,425.489475,427.99222,0,40,40,40,1,41,1,7,redfox      ,slipper     ,html/resources/sequences_IDs/B/01_redfox.jpg,html/resources/sequences_IDs/B/08_slipper.jpg,1,8,1,1,3,2,1,7,0,30,,,,,,,,,,,,,,,,,,,,
,,,,,30,2020-07-03_13h51.58.836,retriever_ti,2020.1.3,MacIntel,60,Chrome,1440,900,,,,,,,,,,,,,,,,,1,,,,,,,,,,,,,,,,,,,,,,,,,,,428.593165,42,left,1.40719,dress         ,4,7,1,1,1,428.60731,428.60731,431.093935,0,41,41,41,1,42,4,3,dress         ,gloves      ,html/resources/sequences_IDs/A/07_dress.jpg,html/resources/sequences_IDs/B/06_gloves.jpg,7,6,3,2,3,2,6,5,0,30,,,,,,,,,,,,,,,,,,,,
,,,,,30,2020-07-03_13h51.58.836,retriever_ti,2020.1.3,MacIntel,60,Chrome,1440,900,,,,,,,,,,,,,,,,,1,,,,,,,,,,,,,,,,,,,,,,,,,,,432.195535,43,right,0.649235,dress         ,4,7,-2,0,3,432.208365,432.208365,434.710005,0,42,42,42,1,43,6,4,calculator    ,dress         ,html/resources/sequences_IDs/A/09_calculator.jpg,html/resources/sequences_IDs/A/07_dress.jpg,9,7,4,2,3,2,8,6,0,30,,,,,,,,,,,,,,,,,,,,
,,,,,30,2020-07-03_13h51.58.836,retriever_ti,2020.1.3,MacIntel,60,Chrome,1440,900,,,,,,,,,,,,,,,,,1,,,,,,,,,,,,,,,,,,,,,,,,,,,435.3112,44,left,0.666385,dress         ,4,7,-1,0,1,435.32632,435.32632,437.825695,0,43,43,43,1,44,4,5,dress         ,holdfast    ,html/resources/sequences_IDs/A/07_dress.jpg,html/resources/sequences_IDs/B/04_holdfast.jpg,7,4,3,2,2,1,6,3,1,30,,,,,,,,,,,,,,,,,,,,
,,,,,30,2020-07-03_13h51.58.836,retriever_ti,2020.1.3,MacIntel,60,Chrome,1440,900,,,,,,,,,,,,,,,,,1,,,,,,,,,,,,,,,,,,,,,,,,,,,438.927695,45,left,0.91722,peacock       ,8,5,7,1,3,438.945235,438.945235,441.444905,0,44,44,44,1,45,8,1,peacock       ,redfox      ,html/resources/sequences_IDs/A/05_peacock.jpg,html/resources/sequences_IDs/B/01_redfox.jpg,5,1,2,1,1,1,4,1,0,30,,,,,,,,,,,,,,,,,,,,
,,,,,30,2020-07-03_13h51.58.836,retriever_ti,2020.1.3,MacIntel,60,Chrome,1440,900,,,,,,,,,,,,,,,,,1,,,,,,,,,,,,,,,,,,,,,,,,,,,442.04896,46,right,1.047535,holdfast    ,5,4,-1,0,1,442.082515,442.082515,444.578065,0,45,45,45,1,46,6,5,calculator    ,holdfast    ,html/resources/sequences_IDs/A/09_calculator.jpg,html/resources/sequences_IDs/B/04_holdfast.jpg,9,4,4,2,2,1,8,3,1,30,,,,,,,,,,,,,,,,,,,,
,,,,,30,2020-07-03_13h51.58.836,retriever_ti,2020.1.3,MacIntel,60,Chrome,1440,900,,,,,,,,,,,,,,,,,1,,,,,,,,,,,,,,,,,,,,,,,,,,,445.682945,47,right,0.995825,peacock       ,8,5,7,1,3,445.69653,445.69653,448.19855,0,46,46,46,1,47,1,8,redfox      ,peacock       ,html/resources/sequences_IDs/B/01_redfox.jpg,html/resources/sequences_IDs/A/05_peacock.jpg,1,5,1,1,2,1,1,4,0,30,,,,,,,,,,,,,,,,,,,,
,,,,,30,2020-07-03_13h51.58.836,retriever_ti,2020.1.3,MacIntel,60,Chrome,1440,900,,,,,,,,,,,,,,,,,1,,,,,,,,,,,,,,,,,,,,,,,,,,,448.81531,48,left,1.09659,gloves      ,3,6,2,1,3,448.831975,448.831975,451.32162,0,47,47,47,1,48,3,1,gloves      ,redfox      ,html/resources/sequences_IDs/B/06_gloves.jpg,html/resources/sequences_IDs/B/01_redfox.jpg,6,1,3,2,1,1,5,1,0,30,,,,,,,,,,,,,,,,,,,,
,,,,,30,2020-07-03_13h51.58.836,retriever_ti,2020.1.3,MacIntel,60,Chrome,1440,900,,,,,,,,,,,,,,,,,1,,,,,,,,,,,,,,,,,,,,,,,,,,,451.93538,49,left,0.58246,slipper     ,7,8,-1,0,1,451.948785,451.948785,454.44899,0,48,48,48,1,49,7,8,slipper     ,peacock       ,html/resources/sequences_IDs/B/08_slipper.jpg,html/resources/sequences_IDs/A/05_peacock.jpg,8,5,3,2,2,1,7,4,1,30,,,,,,,,,,,,,,,,,,,,
,,,,,30,2020-07-03_13h51.58.836,retriever_ti,2020.1.3,MacIntel,60,Chrome,1440,900,,,,,,,,,,,,,,,,,1,,,,,,,,,,,,,,,,,,,,,,,,,,,455.54925,50,left,0.838905,dress         ,4,7,-2,0,3,455.569,455.569,458.068565,0,49,49,49,1,50,4,6,dress         ,calculator    ,html/resources/sequences_IDs/A/07_dress.jpg,html/resources/sequences_IDs/A/09_calculator.jpg,7,9,3,2,4,2,6,8,0,30,,,,,,,,,,,,,,,,,,,,
,,,,,30,2020-07-03_13h51.58.836,retriever_ti,2020.1.3,MacIntel,60,Chrome,1440,900,,,,,,,,,,,,,,,,,1,,,,,,,,,,,,,,,,,,,,,,,,,,,458.68848,51,left,0.816885,slipper     ,7,8,4,1,3,458.721795,458.721795,461.219125,0,50,50,50,1,51,7,3,slipper     ,gloves      ,html/resources/sequences_IDs/B/08_slipper.jpg,html/resources/sequences_IDs/B/06_gloves.jpg,8,6,3,2,3,2,7,5,0,30,,,,,,,,,,,,,,,,,,,,
,,,,,30,2020-07-03_13h51.58.836,retriever_ti,2020.1.3,MacIntel,60,Chrome,1440,900,,,,,,,,,,,,,,,,,1,,,,,,,,,,,,,,,,,,,,,,,,,,,461.8208,52,left,1.027055,dress         ,4,7,-1,0,0,461.8356,461.8356,464.335985,0,51,51,51,1,52,4,5,dress         ,holdfast    ,html/resources/sequences_IDs/A/07_dress.jpg,html/resources/sequences_IDs/B/04_holdfast.jpg,7,4,3,2,2,1,6,3,0,30,,,,,,,,,,,,,,,,,,,,
,,,,,30,2020-07-03_13h51.58.836,retriever_ti,2020.1.3,MacIntel,60,Chrome,1440,900,,,,,,,,,,,,,,,,,1,,,,,,,,,,,,,,,,,,,,,,,,,,,465.439755,53,left,1.10101,peacock       ,8,5,2,1,3,465.454445,465.454445,467.956765,0,52,52,52,1,53,8,6,peacock       ,calculator    ,html/resources/sequences_IDs/A/05_peacock.jpg,html/resources/sequences_IDs/A/09_calculator.jpg,5,9,2,1,4,2,4,8,0,30,,,,,,,,,,,,,,,,,,,,
,,,,,30,2020-07-03_13h51.58.836,retriever_ti,2020.1.3,MacIntel,60,Chrome,1440,900,,,,,,,,,,,,,,,,,1,,,,,,,,,,,,,,,,,,,,,,,,,,,468.571535,54,right,0.97491,dress         ,4,7,3,1,3,468.590575,468.590575,471.08935,0,53,53,53,1,54,1,4,redfox      ,dress         ,html/resources/sequences_IDs/B/01_redfox.jpg,html/resources/sequences_IDs/A/07_dress.jpg,1,7,1,1,3,2,1,6,0,30,,,,,,,,,,,,,,,,,,,,
,,,,,30,2020-07-03_13h51.58.836,retriever_ti,2020.1.3,MacIntel,60,Chrome,1440,900,,,,,,,,,,,,,,,,,1,,,,,,,,,,,,,,,,,,,,,,,,,,,471.705615,55,left,1.08918,seaturtle     ,2,2,-4,0,3,471.72227,471.72227,474.22439,0,54,54,54,1,55,2,6,seaturtle     ,calculator    ,html/resources/sequences_IDs/A/02_seaturtle.jpg,html/resources/sequences_IDs/A/09_calculator.jpg,2,9,2,1,4,2,2,8,0,30,,,,,,,,,,,,,,,,,,,,
,,,,,30,2020-07-03_13h51.58.836,retriever_ti,2020.1.3,MacIntel,60,Chrome,1440,900,,,,,,,,,,,,,,,,,1,,,,,,,,,,,,,,,,,,,,,,,,,,,474.840785,56,right,0.593285,holdfast    ,5,4,4,1,3,474.87514,474.87514,477.374555,0,55,55,55,1,56,1,5,redfox      ,holdfast    ,html/resources/sequences_IDs/B/01_redfox.jpg,html/resources/sequences_IDs/B/04_holdfast.jpg,1,4,1,1,2,1,1,3,0,30,,,,,,,,,,,,,,,,,,,,
,,,,,30,2020-07-03_13h51.58.836,retriever_ti,2020.1.3,MacIntel,60,Chrome,1440,900,,,,,,,,,,,,,,,,,1,,,,,,,,,,,,,,,,,,,,,,,,,,,477.97623,57,right,0.574175,holdfast    ,5,4,3,1,3,478.00959,478.00959,480.509345,0,56,56,56,1,57,2,5,seaturtle     ,holdfast    ,html/resources/sequences_IDs/A/02_seaturtle.jpg,html/resources/sequences_IDs/B/04_holdfast.jpg,2,4,2,1,2,1,2,3,0,30,,,,,,,,,,,,,,,,,,,,
,,,,,30,2020-07-03_13h51.58.836,retriever_ti,2020.1.3,MacIntel,60,Chrome,1440,900,,,,,,,,,,,,,,,,,1,,,,,,,,,,,,,,,,,,,,,,,,,,,481.110065,58,right,0.993295,dress         ,4,7,2,1,3,481.14505,481.14505,483.644725,0,57,57,57,1,58,2,4,seaturtle     ,dress         ,html/resources/sequences_IDs/A/02_seaturtle.jpg,html/resources/sequences_IDs/A/07_dress.jpg,2,7,2,1,3,2,2,6,0,30,,,,,,,,,,,,,,,,,,,,
,,,,,30,2020-07-03_13h51.58.836,retriever_ti,2020.1.3,MacIntel,60,Chrome,1440,900,,,,,,,,,,,,,,,,,1,,,,,,,,,,,,,,,,,,,,,,,,,,,484.260125,59,right,0.96509,holdfast    ,5,4,-1,0,0,484.27868,484.27868,486.776385,0,58,58,58,1,59,6,5,calculator    ,holdfast    ,html/resources/sequences_IDs/A/09_calculator.jpg,html/resources/sequences_IDs/B/04_holdfast.jpg,9,4,4,2,2,1,8,3,0,30,,,,,,,,,,,,,,,,,,,,
,,,,,30,2020-07-03_13h51.58.836,retriever_ti,2020.1.3,MacIntel,60,Chrome,1440,900,,,,,,,,,,,,,,,,,1,,,,,,,,,,,,,,,,,,,,,,,,,,,487.88062,60,right,0.97034,slipper     ,7,8,4,1,3,487.91361,487.91361,490.41144,0,59,59,59,1,60,3,7,gloves      ,slipper     ,html/resources/sequences_IDs/B/06_gloves.jpg,html/resources/sequences_IDs/B/08_slipper.jpg,6,8,3,2,3,2,5,7,0,30,,,,,,,,,,,,,,,,,,,,
,,,,,30,2020-07-03_13h51.58.836,retriever_ti,2020.1.3,MacIntel,60,Chrome,1440,900,,,,,,,,,,,,,,,,,1,,,,,,,,,,,,,,,,,,,,,,,,,,,491.01688,61,left,0.61492,slipper     ,7,8,-1,0,0,491.049355,491.049355,493.545365,0,60,60,60,1,61,7,8,slipper     ,peacock       ,html/resources/sequences_IDs/B/08_slipper.jpg,html/resources/sequences_IDs/A/05_peacock.jpg,8,5,3,2,2,1,7,4,0,30,,,,,,,,,,,,,,,,,,,,
,,,,,30,2020-07-03_13h51.58.836,retriever_ti,2020.1.3,MacIntel,60,Chrome,1440,900,,,,,,,,,,,,,,,,,1,,,,,,,,,,,,,,,,,,,,,,,,,,,494.64999,62,left,0.83013,holdfast    ,5,4,-1,0,0,494.682675,494.682675,497.182385,0,61,61,61,1,62,5,6,holdfast    ,calculator    ,html/resources/sequences_IDs/B/04_holdfast.jpg,html/resources/sequences_IDs/A/09_calculator.jpg,4,9,2,1,4,2,3,8,0,30,,,,,,,,,,,,,,,,,,,,
,,,,,30,2020-07-03_13h51.58.836,retriever_ti,2020.1.3,MacIntel,60,Chrome,1440,900,,,,,,,,,,,,,,,,,1,,,,,,,,,,,,,,,,,,,,,,,,,,,498.28186,63,left,0.81509,dress         ,4,7,2,1,3,498.30113,498.30113,500.79992,0,62,62,62,1,63,4,2,dress         ,seaturtle     ,html/resources/sequences_IDs/A/07_dress.jpg,html/resources/sequences_IDs/A/02_seaturtle.jpg,7,2,3,2,2,1,6,2,0,30,,,,,,,,,,,,,,,,,,,,
,,,,,30,2020-07-03_13h51.58.836,retriever_ti,2020.1.3,MacIntel,60,Chrome,1440,900,,,,,,,,,,,,,,,,,1,,,,,,,,,,,,,,,,,,,,,,,,,,,501.415535,64,left,0.61054,holdfast    ,5,4,-2,0,3,501.44951,501.44951,503.9509,0,63,63,63,1,64,5,7,holdfast    ,slipper     ,html/resources/sequences_IDs/B/04_holdfast.jpg,html/resources/sequences_IDs/B/08_slipper.jpg,4,8,2,1,3,2,3,7,0,30,,,,,,,,,,,,,,,,,,,,
,,,,,30,2020-07-03_13h51.58.836,retriever_ti,2020.1.3,MacIntel,60,Chrome,1440,900,,,,,,,,,,,,,,,,,1,,,,,,,,,,,,,,,,,,,,,,,,,,,504.553095,65,right,1.325695,dress         ,4,7,-3,0,3,504.58616,504.58616,507.083365,0,64,64,64,1,65,7,4,slipper     ,dress         ,html/resources/sequences_IDs/B/08_slipper.jpg,html/resources/sequences_IDs/A/07_dress.jpg,8,7,3,2,3,2,7,6,0,30,,,,,,,,,,,,,,,,,,,,
,,,,,30,2020-07-03_13h51.58.836,retriever_ti,2020.1.3,MacIntel,60,Chrome,1440,900,,,,,,,,,,,,,,,,,1,,,,,,,,,,,,,,,,,,,,,,,,,,,507.686275,66,right,0.89188,slipper     ,7,8,-1,0,0,507.70172,507.70172,510.202495,0,65,65,65,1,66,8,7,peacock       ,slipper     ,html/resources/sequences_IDs/A/05_peacock.jpg,html/resources/sequences_IDs/B/08_slipper.jpg,5,8,2,1,3,2,4,7,0,30,,,,,,,,,,,,,,,,,,,,
,,,,,30,2020-07-03_13h51.58.836,retriever_ti,2020.1.3,MacIntel,60,Chrome,1440,900,,,,,,,,,,,,,,,,,1,,,,,,,,,,,,,,,,,,,,,,,,,,,511.30545,67,left,0.863975,calculator    ,6,9,-1,0,0,511.319535,511.319535,513.819035,0,66,66,66,1,67,6,7,calculator    ,slipper     ,html/resources/sequences_IDs/A/09_calculator.jpg,html/resources/sequences_IDs/B/08_slipper.jpg,9,8,4,2,3,2,8,7,0,30,,,,,,,,,,,,,,,,,,,,
,,,,,30,2020-07-03_13h51.58.836,retriever_ti,2020.1.3,MacIntel,60,Chrome,1440,900,,,,,,,,,,,,,,,,,1,,,,,,,,,,,,,,,,,,,,,,,,,,,514.92148,68,right,0.775985,calculator    ,6,9,-1,0,0,514.95606,514.95606,517.45569,0,67,67,67,1,68,7,6,slipper     ,calculator    ,html/resources/sequences_IDs/B/08_slipper.jpg,html/resources/sequences_IDs/A/09_calculator.jpg,8,9,3,2,4,2,7,8,0,30,,,,,,,,,,,,,,,,,,,,
,,,,,30,2020-07-03_13h51.58.836,retriever_ti,2020.1.3,MacIntel,60,Chrome,1440,900,,,,,,,,,,,,,,,,,1,,,,,,,,,,,,,,,,,,,,,,,,,,,518.557905,69,right,0.842745,holdfast    ,5,4,-3,0,3,518.59097,518.59097,521.08829,0,68,68,68,1,69,8,5,peacock       ,holdfast    ,html/resources/sequences_IDs/A/05_peacock.jpg,html/resources/sequences_IDs/B/04_holdfast.jpg,5,4,2,1,2,1,4,3,0,30,,,,,,,,,,,,,,,,,,,,
,,,,,30,2020-07-03_13h51.58.836,retriever_ti,2020.1.3,MacIntel,60,Chrome,1440,900,,,,,,,,,,,,,,,,,1,,,,,,,,,,,,,,,,,,,,,,,,,,,521.69147,70,left,0.771525,gloves      ,3,6,-2,0,3,521.70769,521.70769,524.206545,0,69,69,69,1,70,3,5,gloves      ,holdfast    ,html/resources/sequences_IDs/B/06_gloves.jpg,html/resources/sequences_IDs/B/04_holdfast.jpg,6,4,3,2,2,1,5,3,0,30,,,,,,,,,,,,,,,,,,,,
,,,,,30,2020-07-03_13h51.58.836,retriever_ti,2020.1.3,MacIntel,60,Chrome,1440,900,,,,,,,,,,,,,,,,,1,,,,,,,,,,,,,,,,,,,,,,,,,,,524.81073,71,right,0.62925,slipper     ,7,8,-1,0,0,524.824345,524.824345,527.326775,0,70,70,70,1,71,8,7,peacock       ,slipper     ,html/resources/sequences_IDs/A/05_peacock.jpg,html/resources/sequences_IDs/B/08_slipper.jpg,5,8,2,1,3,2,4,7,0,30,,,,,,,,,,,,,,,,,,,,
,,,,,30,2020-07-03_13h51.58.836,retriever_ti,2020.1.3,MacIntel,60,Chrome,1440,900,,,,,,,,,,,,,,,,,1,,,,,,,,,,,,,,,,,,,,,,,,,,,528.42846,72,right,0.508355,peacock       ,8,5,4,1,3,528.44236,528.44236,530.94261,0,71,71,71,1,72,4,8,dress         ,peacock       ,html/resources/sequences_IDs/A/07_dress.jpg,html/resources/sequences_IDs/A/05_peacock.jpg,7,5,3,2,2,1,6,4,0,30,,,,,,,,,,,,,,,,,,,,
,,,,,30,2020-07-03_13h51.58.836,retriever_ti,2020.1.3,MacIntel,60,Chrome,1440,900,,,,,,,,,,,,,,,,,1,,,,,,,,,,,,,,,,,,,,,,,,,,,531.56106,73,right,1.126475,seaturtle     ,2,2,-1,0,0,531.595185,531.595185,534.0938,0,72,72,72,1,73,3,2,gloves      ,seaturtle     ,html/resources/sequences_IDs/B/06_gloves.jpg,html/resources/sequences_IDs/A/02_seaturtle.jpg,6,2,3,2,2,1,5,2,0,30,,,,,,,,,,,,,,,,,,,,
,,,,,30,2020-07-03_13h51.58.836,retriever_ti,2020.1.3,MacIntel,60,Chrome,1440,900,,,,,,,,,,,,,,,,,1,,,,,,,,,,,,,,,,,,,,,,,,,,,535.19758,74,right,0.543175,gloves      ,3,6,-1,0,0,535.21132,535.21132,537.7113,0,73,73,73,1,74,4,3,dress         ,gloves      ,html/resources/sequences_IDs/A/07_dress.jpg,html/resources/sequences_IDs/B/06_gloves.jpg,7,6,3,2,3,2,6,5,0,30,,,,,,,,,,,,,,,,,,,,
,,,,,30,2020-07-03_13h51.58.836,retriever_ti,2020.1.3,MacIntel,60,Chrome,1440,900,,,,,,,,,,,,,,,,,1,,,,,,,,,,,,,,,,,,,,,,,,,,,538.812985,75,left,0.91813,calculator    ,6,9,5,1,3,538.831655,538.831655,541.332075,0,74,74,74,1,75,6,1,calculator    ,redfox      ,html/resources/sequences_IDs/A/09_calculator.jpg,html/resources/sequences_IDs/B/01_redfox.jpg,9,1,4,2,1,1,8,1,0,30,,,,,,,,,,,,,,,,,,,,
,,,,,30,2020-07-03_13h51.58.836,retriever_ti,2020.1.3,MacIntel,60,Chrome,1440,900,,,,,,,,,,,,,,,,,1,,,,,,,,,,,,,,,,,,,,,,,,,,,541.94563,76,left,1.02546,redfox      ,1,1,-1,0,0,541.96547,541.96547,544.462835,0,75,75,75,1,76,1,2,redfox      ,seaturtle     ,html/resources/sequences_IDs/B/01_redfox.jpg,html/resources/sequences_IDs/A/02_seaturtle.jpg,1,2,1,1,2,1,1,2,0,30,,,,,,,,,,,,,,,,,,,,
,,,,,30,2020-07-03_13h51.58.836,retriever_ti,2020.1.3,MacIntel,60,Chrome,1440,900,,,,,,,,,,,,,,,,,1,,,,,,,,,,,,,,,,,,,,,,,,,,,545.56391,77,left,0.79639,holdfast    ,5,4,-1,0,0,545.598005,545.598005,548.09842,0,76,76,76,1,77,5,6,holdfast    ,calculator    ,html/resources/sequences_IDs/B/04_holdfast.jpg,html/resources/sequences_IDs/A/09_calculator.jpg,4,9,2,1,4,2,3,8,0,30,,,,,,,,,,,,,,,,,,,,
,,,,,30,2020-07-03_13h51.58.836,retriever_ti,2020.1.3,MacIntel,60,Chrome,1440,900,,,,,,,,,,,,,,,,,,,,,,,,,,,,,,,,,,,,,0,2.90456,,,,,,,,,,,,,,,,,,,,,,,,,,,,,,,,,,,,,,,,,0,0,0,0,1,,,,,,,,,,,,,,,
,,,,,30,2020-07-03_13h51.58.836,retriever_ti,2020.1.3,MacIntel,60,Chrome,1440,900,,,,,,,,,,,,,,,,,2,,,,,,,,,,,,,,,,,,,,,,,,,,,564.46691,78,left,0.89716,calculator    ,6,9,5,1,3,564.480075,564.480075,566.973215,0,0,0,0,1,78,6,1,calculator    ,redfox      ,html/resources/sequences_IDs/A/09_calculator.jpg,html/resources/sequences_IDs/B/01_redfox.jpg,9,1,4,2,1,1,8,1,0,30,,,,,,,,,,,,,,,,,,,,
,,,,,30,2020-07-03_13h51.58.836,retriever_ti,2020.1.3,MacIntel,60,Chrome,1440,900,,,,,,,,,,,,,,,,,2,,,,,,,,,,,,,,,,,,,,,,,,,,,567.588635,79,right,0.64102,gloves      ,3,6,-1,0,0,567.622995,567.622995,570.12222,0,1,1,1,1,79,4,3,dress         ,gloves      ,html/resources/sequences_IDs/A/07_dress.jpg,html/resources/sequences_IDs/B/06_gloves.jpg,7,6,3,2,3,2,6,5,0,30,,,,,,,,,,,,,,,,,,,,
,,,,,30,2020-07-03_13h51.58.836,retriever_ti,2020.1.3,MacIntel,60,Chrome,1440,900,,,,,,,,,,,,,,,,,2,,,,,,,,,,,,,,,,,,,,,,,,,,,571.22462,80,right,0.69453,holdfast    ,5,4,4,1,3,571.257895,571.257895,573.757405,0,2,2,2,1,80,1,5,redfox      ,holdfast    ,html/resources/sequences_IDs/B/01_redfox.jpg,html/resources/sequences_IDs/B/04_holdfast.jpg,1,4,1,1,2,1,1,3,0,30,,,,,,,,,,,,,,,,,,,,
,,,,,30,2020-07-03_13h51.58.836,retriever_ti,2020.1.3,MacIntel,60,Chrome,1440,900,,,,,,,,,,,,,,,,,2,,,,,,,,,,,,,,,,,,,,,,,,,,,574.35977,81,right,0.55763,dress         ,4,7,-1,0,0,574.393375,574.393375,576.89552,0,3,3,3,1,81,5,4,holdfast    ,dress         ,html/resources/sequences_IDs/B/04_holdfast.jpg,html/resources/sequences_IDs/A/07_dress.jpg,4,7,2,1,3,2,3,6,0,30,,,,,,,,,,,,,,,,,,,,
,,,,,30,2020-07-03_13h51.58.836,retriever_ti,2020.1.3,MacIntel,60,Chrome,1440,900,,,,,,,,,,,,,,,,,2,,,,,,,,,,,,,,,,,,,,,,,,,,,577.99564,82,right,0.460985,holdfast    ,5,4,2,1,3,578.011115,578.011115,580.511575,0,4,4,4,1,82,3,5,gloves      ,holdfast    ,html/resources/sequences_IDs/B/06_gloves.jpg,html/resources/sequences_IDs/B/04_holdfast.jpg,6,4,3,2,2,1,5,3,0,30,,,,,,,,,,,,,,,,,,,,
,,,,,30,2020-07-03_13h51.58.836,retriever_ti,2020.1.3,MacIntel,60,Chrome,1440,900,,,,,,,,,,,,,,,,,2,,,,,,,,,,,,,,,,,,,,,,,,,,,581.12603,83,left,0.623385,calculator    ,6,9,-1,0,0,581.14648,581.14648,583.6437,0,5,5,5,1,83,6,7,calculator    ,slipper     ,html/resources/sequences_IDs/A/09_calculator.jpg,html/resources/sequences_IDs/B/08_slipper.jpg,9,8,4,2,3,2,8,7,0,30,,,,,,,,,,,,,,,,,,,,
,,,,,30,2020-07-03_13h51.58.836,retriever_ti,2020.1.3,MacIntel,60,Chrome,1440,900,,,,,,,,,,,,,,,,,2,,,,,,,,,,,,,,,,,,,,,,,,,,,584.734345,84,left,0.90352,slipper     ,7,8,4,1,3,584.745865,584.745865,587.245365,0,6,6,6,1,84,7,3,slipper     ,gloves      ,html/resources/sequences_IDs/B/08_slipper.jpg,html/resources/sequences_IDs/B/06_gloves.jpg,8,6,3,2,3,2,7,5,0,30,,,,,,,,,,,,,,,,,,,,
,,,,,30,2020-07-03_13h51.58.836,retriever_ti,2020.1.3,MacIntel,60,Chrome,1440,900,,,,,,,,,,,,,,,,,2,,,,,,,,,,,,,,,,,,,,,,,,,,,587.848605,85,right,0.60473,slipper     ,7,8,3,1,3,587.86308,587.86308,590.36765,0,7,7,7,1,85,4,7,dress         ,slipper     ,html/resources/sequences_IDs/A/07_dress.jpg,html/resources/sequences_IDs/B/08_slipper.jpg,7,8,3,2,3,2,6,7,0,30,,,,,,,,,,,,,,,,,,,,
,,,,,30,2020-07-03_13h51.58.836,retriever_ti,2020.1.3,MacIntel,60,Chrome,1440,900,,,,,,,,,,,,,,,,,2,,,,,,,,,,,,,,,,,,,,,,,,,,,590.981925,86,right,0.661145,seaturtle     ,2,2,1,1,1,591.017465,591.017465,593.515575,0,8,8,8,1,86,1,2,redfox      ,seaturtle     ,html/resources/sequences_IDs/B/01_redfox.jpg,html/resources/sequences_IDs/A/02_seaturtle.jpg,1,2,1,1,2,1,1,2,0,30,,,,,,,,,,,,,,,,,,,,
,,,,,30,2020-07-03_13h51.58.836,retriever_ti,2020.1.3,MacIntel,60,Chrome,1440,900,,,,,,,,,,,,,,,,,2,,,,,,,,,,,,,,,,,,,,,,,,,,,594.618295,87,right,0.46221,redfox      ,1,1,-6,0,3,594.650275,594.650275,597.148925,0,9,9,9,1,87,7,1,slipper     ,redfox      ,html/resources/sequences_IDs/B/08_slipper.jpg,html/resources/sequences_IDs/B/01_redfox.jpg,8,1,3,2,1,1,7,1,0,30,,,,,,,,,,,,,,,,,,,,
,,,,,30,2020-07-03_13h51.58.836,retriever_ti,2020.1.3,MacIntel,60,Chrome,1440,900,,,,,,,,,,,,,,,,,2,,,,,,,,,,,,,,,,,,,,,,,,,,,597.76779,88,right,1.13968,calculator    ,6,9,3,1,3,597.80216,597.80216,600.300485,0,10,10,10,1,88,3,6,gloves      ,calculator    ,html/resources/sequences_IDs/B/06_gloves.jpg,html/resources/sequences_IDs/A/09_calculator.jpg,6,9,3,2,4,2,5,8,0,30,,,,,,,,,,,,,,,,,,,,
,,,,,30,2020-07-03_13h51.58.836,retriever_ti,2020.1.3,MacIntel,60,Chrome,1440,900,,,,,,,,,,,,,,,,,2,,,,,,,,,,,,,,,,,,,,,,,,,,,600.90321,89,right,0.564605,calculator    ,6,9,-2,0,3,600.9182,600.9182,603.41792,0,11,11,11,1,89,8,6,peacock       ,calculator    ,html/resources/sequences_IDs/A/05_peacock.jpg,html/resources/sequences_IDs/A/09_calculator.jpg,5,9,2,1,4,2,4,8,0,30,,,,,,,,,,,,,,,,,,,,
,,,,,30,2020-07-03_13h51.58.836,retriever_ti,2020.1.3,MacIntel,60,Chrome,1440,900,,,,,,,,,,,,,,,,,2,,,,,,,,,,,,,,,,,,,,,,,,,,,604.019655,90,left,0.812045,holdfast    ,5,4,-2,0,3,604.053525,604.053525,606.553645,0,12,12,12,1,90,5,7,holdfast    ,slipper     ,html/resources/sequences_IDs/B/04_holdfast.jpg,html/resources/sequences_IDs/B/08_slipper.jpg,4,8,2,1,3,2,3,7,0,30,,,,,,,,,,,,,,,,,,,,
,,,,,30,2020-07-03_13h51.58.836,retriever_ti,2020.1.3,MacIntel,60,Chrome,1440,900,,,,,,,,,,,,,,,,,2,,,,,,,,,,,,,,,,,,,,,,,,,,,607.155185,91,right,0.70943,slipper     ,7,8,-1,0,0,607.189115,607.189115,609.68608,0,13,13,13,1,91,8,7,peacock       ,slipper     ,html/resources/sequences_IDs/A/05_peacock.jpg,html/resources/sequences_IDs/B/08_slipper.jpg,5,8,2,1,3,2,4,7,0,30,,,,,,,,,,,,,,,,,,,,
,,,,,30,2020-07-03_13h51.58.836,retriever_ti,2020.1.3,MacIntel,60,Chrome,1440,900,,,,,,,,,,,,,,,,,2,,,,,,,,,,,,,,,,,,,,,,,,,,,610.78971,92,right,0.804825,seaturtle     ,2,2,1,1,0,610.82203,610.82203,613.32272,0,14,14,14,1,92,1,2,redfox      ,seaturtle     ,html/resources/sequences_IDs/B/01_redfox.jpg,html/resources/sequences_IDs/A/02_seaturtle.jpg,1,2,1,1,2,1,1,2,1,30,,,,,,,,,,,,,,,,,,,,
,,,,,30,2020-07-03_13h51.58.836,retriever_ti,2020.1.3,MacIntel,60,Chrome,1440,900,,,,,,,,,,,,,,,,,2,,,,,,,,,,,,,,,,,,,,,,,,,,,614.426685,93,right,1.3465,holdfast    ,5,4,-1,0,0,614.439535,614.439535,616.938765,0,15,15,15,1,93,6,5,calculator    ,holdfast    ,html/resources/sequences_IDs/A/09_calculator.jpg,html/resources/sequences_IDs/B/04_holdfast.jpg,9,4,4,2,2,1,8,3,0,30,,,,,,,,,,,,,,,,,,,,
,,,,,30,2020-07-03_13h51.58.836,retriever_ti,2020.1.3,MacIntel,60,Chrome,1440,900,,,,,,,,,,,,,,,,,2,,,,,,,,,,,,,,,,,,,,,,,,,,,618.040775,94,right,1.02716,dress         ,4,7,-3,0,3,618.07482,618.07482,620.5767,0,16,16,16,1,94,7,4,slipper     ,dress         ,html/resources/sequences_IDs/B/08_slipper.jpg,html/resources/sequences_IDs/A/07_dress.jpg,8,7,3,2,3,2,7,6,0,30,,,,,,,,,,,,,,,,,,,,
,,,,,30,2020-07-03_13h51.58.836,retriever_ti,2020.1.3,MacIntel,60,Chrome,1440,900,,,,,,,,,,,,,,,,,2,,,,,,,,,,,,,,,,,,,,,,,,,,,621.191625,95,right,0.74176,peacock       ,8,5,4,1,3,621.22479,621.22479,623.7252,0,17,17,17,1,95,4,8,dress         ,peacock       ,html/resources/sequences_IDs/A/07_dress.jpg,html/resources/sequences_IDs/A/05_peacock.jpg,7,5,3,2,2,1,6,4,0,30,,,,,,,,,,,,,,,,,,,,
,,,,,30,2020-07-03_13h51.58.836,retriever_ti,2020.1.3,MacIntel,60,Chrome,1440,900,,,,,,,,,,,,,,,,,2,,,,,,,,,,,,,,,,,,,,,,,,,,,624.32722,96,right,0.887345,holdfast    ,5,4,-2,0,3,624.36062,624.36062,626.84745,0,18,18,18,1,96,7,5,slipper     ,holdfast    ,html/resources/sequences_IDs/B/08_slipper.jpg,html/resources/sequences_IDs/B/04_holdfast.jpg,8,4,3,2,2,1,7,3,0,30,,,,,,,,,,,,,,,,,,,,
,,,,,30,2020-07-03_13h51.58.836,retriever_ti,2020.1.3,MacIntel,60,Chrome,1440,900,,,,,,,,,,,,,,,,,2,,,,,,,,,,,,,,,,,,,,,,,,,,,627.45937,97,left,1.58241,gloves      ,3,6,1,1,1,627.478845,627.478845,629.976235,0,19,19,19,1,97,3,2,gloves      ,seaturtle     ,html/resources/sequences_IDs/B/06_gloves.jpg,html/resources/sequences_IDs/A/02_seaturtle.jpg,6,2,3,2,2,1,5,2,0,30,,,,,,,,,,,,,,,,,,,,
,,,,,30,2020-07-03_13h51.58.836,retriever_ti,2020.1.3,MacIntel,60,Chrome,1440,900,,,,,,,,,,,,,,,,,2,,,,,,,,,,,,,,,,,,,,,,,,,,,631.078965,98,left,1.112935,calculator    ,6,9,1,1,1,631.11099,631.11099,633.612805,0,20,20,20,1,98,6,5,calculator    ,holdfast    ,html/resources/sequences_IDs/A/09_calculator.jpg,html/resources/sequences_IDs/B/04_holdfast.jpg,9,4,4,2,2,1,8,3,0,30,,,,,,,,,,,,,,,,,,,,
,,,,,30,2020-07-03_13h51.58.836,retriever_ti,2020.1.3,MacIntel,60,Chrome,1440,900,,,,,,,,,,,,,,,,,2,,,,,,,,,,,,,,,,,,,,,,,,,,,634.714385,99,right,0.57846,calculator    ,6,9,5,1,3,634.730465,634.730465,637.23083,0,21,21,21,1,99,1,6,redfox      ,calculator    ,html/resources/sequences_IDs/B/01_redfox.jpg,html/resources/sequences_IDs/A/09_calculator.jpg,1,9,1,1,4,2,1,8,0,30,,,,,,,,,,,,,,,,,,,,
,,,,,30,2020-07-03_13h51.58.836,retriever_ti,2020.1.3,MacIntel,60,Chrome,1440,900,,,,,,,,,,,,,,,,,2,,,,,,,,,,,,,,,,,,,,,,,,,,,637.84642,100,right,0.72572,gloves      ,3,6,-5,0,3,637.880585,637.880585,640.384225,0,22,22,22,1,100,8,3,peacock       ,gloves      ,html/resources/sequences_IDs/A/05_peacock.jpg,html/resources/sequences_IDs/B/06_gloves.jpg,5,6,2,1,3,2,4,5,0,30,,,,,,,,,,,,,,,,,,,,
,,,,,30,2020-07-03_13h51.58.836,retriever_ti,2020.1.3,MacIntel,60,Chrome,1440,900,,,,,,,,,,,,,,,,,2,,,,,,,,,,,,,,,,,,,,,,,,,,,641.00323,101,right,0.9577,calculator    ,6,9,4,1,3,641.034865,641.034865,643.533875,0,23,23,23,1,101,2,6,seaturtle     ,calculator    ,html/resources/sequences_IDs/A/02_seaturtle.jpg,html/resources/sequences_IDs/A/09_calculator.jpg,2,9,2,1,4,2,2,8,0,30,,,,,,,,,,,,,,,,,,,,
,,,,,30,2020-07-03_13h51.58.836,retriever_ti,2020.1.3,MacIntel,60,Chrome,1440,900,,,,,,,,,,,,,,,,,2,,,,,,,,,,,,,,,,,,,,,,,,,,,644.13459,102,right,1.224075,calculator    ,6,9,-1,0,0,644.149655,644.149655,646.651245,0,24,24,24,1,102,7,6,slipper     ,calculator    ,html/resources/sequences_IDs/B/08_slipper.jpg,html/resources/sequences_IDs/A/09_calculator.jpg,8,9,3,2,4,2,7,8,0,30,,,,,,,,,,,,,,,,,,,,
,,,,,30,2020-07-03_13h51.58.836,retriever_ti,2020.1.3,MacIntel,60,Chrome,1440,900,,,,,,,,,,,,,,,,,2,,,,,,,,,,,,,,,,,,,,,,,,,,,647.75056,103,left,1.10634,calculator    ,6,9,-2,0,3,647.769585,647.769585,650.26724,0,25,25,25,1,103,6,8,calculator    ,peacock       ,html/resources/sequences_IDs/A/09_calculator.jpg,html/resources/sequences_IDs/A/05_peacock.jpg,9,5,4,2,2,1,8,4,0,30,,,,,,,,,,,,,,,,,,,,
,,,,,30,2020-07-03_13h51.58.836,retriever_ti,2020.1.3,MacIntel,60,Chrome,1440,900,,,,,,,,,,,,,,,,,2,,,,,,,,,,,,,,,,,,,,,,,,,,,650.870205,104,left,1.137345,peacock       ,8,5,7,1,3,650.90396,650.90396,653.40317,0,26,26,26,1,104,8,1,peacock       ,redfox      ,html/resources/sequences_IDs/A/05_peacock.jpg,html/resources/sequences_IDs/B/01_redfox.jpg,5,1,2,1,1,1,4,1,0,30,,,,,,,,,,,,,,,,,,,,
,,,,,30,2020-07-03_13h51.58.836,retriever_ti,2020.1.3,MacIntel,60,Chrome,1440,900,,,,,,,,,,,,,,,,,2,,,,,,,,,,,,,,,,,,,,,,,,,,,654.02029,105,right,0.635665,calculator    ,6,9,1,1,1,654.055215,654.055215,656.55258,0,27,27,27,1,105,5,6,holdfast    ,calculator    ,html/resources/sequences_IDs/B/04_holdfast.jpg,html/resources/sequences_IDs/A/09_calculator.jpg,4,9,2,1,4,2,3,8,0,30,,,,,,,,,,,,,,,,,,,,
,,,,,30,2020-07-03_13h51.58.836,retriever_ti,2020.1.3,MacIntel,60,Chrome,1440,900,,,,,,,,,,,,,,,,,2,,,,,,,,,,,,,,,,,,,,,,,,,,,657.654415,106,left,1.433675,seaturtle     ,2,2,-3,0,3,657.687895,657.687895,660.188895,0,28,28,28,1,106,2,5,seaturtle     ,holdfast    ,html/resources/sequences_IDs/A/02_seaturtle.jpg,html/resources/sequences_IDs/B/04_holdfast.jpg,2,4,2,1,2,1,2,3,0,30,,,,,,,,,,,,,,,,,,,,
,,,,,30,2020-07-03_13h51.58.836,retriever_ti,2020.1.3,MacIntel,60,Chrome,1440,900,,,,,,,,,,,,,,,,,2,,,,,,,,,,,,,,,,,,,,,,,,,,,660.79113,107,left,1.05078,seaturtle     ,2,2,1,1,1,660.824045,660.824045,663.32159,0,29,29,29,1,107,2,1,seaturtle     ,redfox      ,html/resources/sequences_IDs/A/02_seaturtle.jpg,html/resources/sequences_IDs/B/01_redfox.jpg,2,1,2,1,1,1,2,1,0,30,,,,,,,,,,,,,,,,,,,,
,,,,,30,2020-07-03_13h51.58.836,retriever_ti,2020.1.3,MacIntel,60,Chrome,1440,900,,,,,,,,,,,,,,,,,2,,,,,,,,,,,,,,,,,,,,,,,,,,,664.422585,108,right,0.99619,dress         ,4,7,-1,0,0,664.45694,664.45694,666.956955,0,30,30,30,1,108,5,4,holdfast    ,dress         ,html/resources/sequences_IDs/B/04_holdfast.jpg,html/resources/sequences_IDs/A/07_dress.jpg,4,7,2,1,3,2,3,6,0,30,,,,,,,,,,,,,,,,,,,,
,,,,,30,2020-07-03_13h51.58.836,retriever_ti,2020.1.3,MacIntel,60,Chrome,1440,900,,,,,,,,,,,,,,,,,2,,,,,,,,,,,,,,,,,,,,,,,,,,,668.0619,109,left,1.122165,slipper     ,7,8,-1,0,0,668.074835,668.074835,670.575365,0,31,31,31,1,109,7,8,slipper     ,peacock       ,html/resources/sequences_IDs/B/08_slipper.jpg,html/resources/sequences_IDs/A/05_peacock.jpg,8,5,3,2,2,1,7,4,0,30,,,,,,,,,,,,,,,,,,,,
,,,,,30,2020-07-03_13h51.58.836,retriever_ti,2020.1.3,MacIntel,60,Chrome,1440,900,,,,,,,,,,,,,,,,,2,,,,,,,,,,,,,,,,,,,,,,,,,,,671.67687,110,right,0.45347,peacock       ,8,5,7,1,3,671.696005,671.696005,674.19284,0,32,32,32,1,110,1,8,redfox      ,peacock       ,html/resources/sequences_IDs/B/01_redfox.jpg,html/resources/sequences_IDs/A/05_peacock.jpg,1,5,1,1,2,1,1,4,0,30,,,,,,,,,,,,,,,,,,,,
,,,,,30,2020-07-03_13h51.58.836,retriever_ti,2020.1.3,MacIntel,60,Chrome,1440,900,,,,,,,,,,,,,,,,,2,,,,,,,,,,,,,,,,,,,,,,,,,,,674.79687,111,right,0.942325,dress         ,4,7,2,1,3,674.8279,674.8279,677.329055,0,33,33,33,1,111,2,4,seaturtle     ,dress         ,html/resources/sequences_IDs/A/02_seaturtle.jpg,html/resources/sequences_IDs/A/07_dress.jpg,2,7,2,1,3,2,2,6,0,30,,,,,,,,,,,,,,,,,,,,
,,,,,30,2020-07-03_13h51.58.836,retriever_ti,2020.1.3,MacIntel,60,Chrome,1440,900,,,,,,,,,,,,,,,,,2,,,,,,,,,,,,,,,,,,,,,,,,,,,677.944295,112,left,0.786325,dress         ,4,7,2,1,3,677.963795,677.963795,680.46337,0,34,34,34,1,112,4,2,dress         ,seaturtle     ,html/resources/sequences_IDs/A/07_dress.jpg,html/resources/sequences_IDs/A/02_seaturtle.jpg,7,2,3,2,2,1,6,2,0,30,,,,,,,,,,,,,,,,,,,,
,,,,,30,2020-07-03_13h51.58.836,retriever_ti,2020.1.3,MacIntel,60,Chrome,1440,900,,,,,,,,,,,,,,,,,2,,,,,,,,,,,,,,,,,,,,,,,,,,,681.078825,113,left,0.734105,calculator    ,6,9,4,1,3,681.11528,681.11528,683.613645,0,35,35,35,1,113,6,2,calculator    ,seaturtle     ,html/resources/sequences_IDs/A/09_calculator.jpg,html/resources/sequences_IDs/A/02_seaturtle.jpg,9,2,4,2,2,1,8,2,0,30,,,,,,,,,,,,,,,,,,,,
,,,,,30,2020-07-03_13h51.58.836,retriever_ti,2020.1.3,MacIntel,60,Chrome,1440,900,,,,,,,,,,,,,,,,,2,,,,,,,,,,,,,,,,,,,,,,,,,,,684.21508,114,right,0.9303,seaturtle     ,2,2,1,1,1,684.232305,684.232305,686.72961,0,36,36,36,1,114,1,2,redfox      ,seaturtle     ,html/resources/sequences_IDs/B/01_redfox.jpg,html/resources/sequences_IDs/A/02_seaturtle.jpg,1,2,1,1,2,1,1,2,0,30,,,,,,,,,,,,,,,,,,,,
,,,,,30,2020-07-03_13h51.58.836,retriever_ti,2020.1.3,MacIntel,60,Chrome,1440,900,,,,,,,,,,,,,,,,,2,,,,,,,,,,,,,,,,,,,,,,,,,,,687.83257,115,left,0.93784,peacock       ,8,5,1,1,1,687.849375,687.849375,690.35074,0,37,37,37,1,115,8,7,peacock       ,slipper     ,html/resources/sequences_IDs/A/05_peacock.jpg,html/resources/sequences_IDs/B/08_slipper.jpg,5,8,2,1,3,2,4,7,0,30,,,,,,,,,,,,,,,,,,,,
,,,,,30,2020-07-03_13h51.58.836,retriever_ti,2020.1.3,MacIntel,60,Chrome,1440,900,,,,,,,,,,,,,,,,,2,,,,,,,,,,,,,,,,,,,,,,,,,,,691.452445,116,left,0.624945,peacock       ,8,5,3,1,3,691.484835,691.484835,693.9851,0,38,38,38,1,116,8,5,peacock       ,holdfast    ,html/resources/sequences_IDs/A/05_peacock.jpg,html/resources/sequences_IDs/B/04_holdfast.jpg,5,4,2,1,2,1,4,3,0,30,,,,,,,,,,,,,,,,,,,,
,,,,,30,2020-07-03_13h51.58.836,retriever_ti,2020.1.3,MacIntel,60,Chrome,1440,900,,,,,,,,,,,,,,,,,2,,,,,,,,,,,,,,,,,,,,,,,,,,,694.60298,117,right,0.75775,gloves      ,3,6,-1,0,0,694.61897,694.61897,697.120385,0,39,39,39,1,117,4,3,dress         ,gloves      ,html/resources/sequences_IDs/A/07_dress.jpg,html/resources/sequences_IDs/B/06_gloves.jpg,7,6,3,2,3,2,6,5,0,30,,,,,,,,,,,,,,,,,,,,
,,,,,30,2020-07-03_13h51.58.836,retriever_ti,2020.1.3,MacIntel,60,Chrome,1440,900,,,,,,,,,,,,,,,,,2,,,,,,,,,,,,,,,,,,,,,,,,,,,698.21819,118,right,0.515085,dress         ,4,7,3,1,3,698.253425,698.253425,700.75286,0,40,40,40,1,118,1,4,redfox      ,dress         ,html/resources/sequences_IDs/B/01_redfox.jpg,html/resources/sequences_IDs/A/07_dress.jpg,1,7,1,1,3,2,1,6,0,30,,,,,,,,,,,,,,,,,,,,
,,,,,30,2020-07-03_13h51.58.836,retriever_ti,2020.1.3,MacIntel,60,Chrome,1440,900,,,,,,,,,,,,,,,,,2,,,,,,,,,,,,,,,,,,,,,,,,,,,701.371415,119,left,0.61519,calculator    ,6,9,-1,0,0,701.38808,701.38808,703.88524,0,41,41,41,1,119,6,7,calculator    ,slipper     ,html/resources/sequences_IDs/A/09_calculator.jpg,html/resources/sequences_IDs/B/08_slipper.jpg,9,8,4,2,3,2,8,7,0,30,,,,,,,,,,,,,,,,,,,,
,,,,,30,2020-07-03_13h51.58.836,retriever_ti,2020.1.3,MacIntel,60,Chrome,1440,900,,,,,,,,,,,,,,,,,2,,,,,,,,,,,,,,,,,,,,,,,,,,,704.99006,120,left,0.806915,seaturtle     ,2,2,1,1,1,705.004165,705.004165,707.50513,0,42,42,42,1,120,2,1,seaturtle     ,redfox      ,html/resources/sequences_IDs/A/02_seaturtle.jpg,html/resources/sequences_IDs/B/01_redfox.jpg,2,1,2,1,1,1,2,1,0,30,,,,,,,,,,,,,,,,,,,,
,,,,,30,2020-07-03_13h51.58.836,retriever_ti,2020.1.3,MacIntel,60,Chrome,1440,900,,,,,,,,,,,,,,,,,2,,,,,,,,,,,,,,,,,,,,,,,,,,,708.606375,121,left,0.988145,holdfast    ,5,4,-1,0,1,708.64082,708.64082,711.13867,0,43,43,43,1,121,5,6,holdfast    ,calculator    ,html/resources/sequences_IDs/B/04_holdfast.jpg,html/resources/sequences_IDs/A/09_calculator.jpg,4,9,2,1,4,2,3,8,1,30,,,,,,,,,,,,,,,,,,,,
,,,,,30,2020-07-03_13h51.58.836,retriever_ti,2020.1.3,MacIntel,60,Chrome,1440,900,,,,,,,,,,,,,,,,,2,,,,,,,,,,,,,,,,,,,,,,,,,,,712.242515,122,right,0.866765,peacock       ,8,5,6,1,3,712.25868,712.25868,714.755925,0,44,44,44,1,122,2,8,seaturtle     ,peacock       ,html/resources/sequences_IDs/A/02_seaturtle.jpg,html/resources/sequences_IDs/A/05_peacock.jpg,2,5,2,1,2,1,2,4,0,30,,,,,,,,,,,,,,,,,,,,
,,,,,30,2020-07-03_13h51.58.836,retriever_ti,2020.1.3,MacIntel,60,Chrome,1440,900,,,,,,,,,,,,,,,,,2,,,,,,,,,,,,,,,,,,,,,,,,,,,715.35732,123,left,0.61165,dress         ,4,7,-2,0,3,715.37402,715.37402,717.87392,0,45,45,45,1,123,4,6,dress         ,calculator    ,html/resources/sequences_IDs/A/07_dress.jpg,html/resources/sequences_IDs/A/09_calculator.jpg,7,9,3,2,4,2,6,8,0,30,,,,,,,,,,,,,,,,,,,,
,,,,,30,2020-07-03_13h51.58.836,retriever_ti,2020.1.3,MacIntel,60,Chrome,1440,900,,,,,,,,,,,,,,,,,2,,,,,,,,,,,,,,,,,,,,,,,,,,,718.47469,124,left,0.99119,holdfast    ,5,4,-1,0,0,718.49429,718.49429,720.99211,0,46,46,46,1,124,5,6,holdfast    ,calculator    ,html/resources/sequences_IDs/B/04_holdfast.jpg,html/resources/sequences_IDs/A/09_calculator.jpg,4,9,2,1,4,2,3,8,0,30,,,,,,,,,,,,,,,,,,,,
,,,,,30,2020-07-03_13h51.58.836,retriever_ti,2020.1.3,MacIntel,60,Chrome,1440,900,,,,,,,,,,,,,,,,,2,,,,,,,,,,,,,,,,,,,,,,,,,,,722.09706,125,right,0.849195,gloves      ,3,6,1,1,1,722.12833,722.12833,724.628445,0,47,47,47,1,125,2,3,seaturtle     ,gloves      ,html/resources/sequences_IDs/A/02_seaturtle.jpg,html/resources/sequences_IDs/B/06_gloves.jpg,2,6,2,1,3,2,2,5,0,30,,,,,,,,,,,,,,,,,,,,
,,,,,30,2020-07-03_13h51.58.836,retriever_ti,2020.1.3,MacIntel,60,Chrome,1440,900,,,,,,,,,,,,,,,,,2,,,,,,,,,,,,,,,,,,,,,,,,,,,725.73061,126,left,0.894665,holdfast    ,5,4,4,1,3,725.763525,725.763525,728.260975,0,48,48,48,1,126,5,1,holdfast    ,redfox      ,html/resources/sequences_IDs/B/04_holdfast.jpg,html/resources/sequences_IDs/B/01_redfox.jpg,4,1,2,1,1,1,3,1,0,30,,,,,,,,,,,,,,,,,,,,
,,,,,30,2020-07-03_13h51.58.836,retriever_ti,2020.1.3,MacIntel,60,Chrome,1440,900,,,,,,,,,,,,,,,,,2,,,,,,,,,,,,,,,,,,,,,,,,,,,728.863835,127,left,0.78638,gloves      ,3,6,-1,0,0,728.89794,728.89794,731.39537,0,49,49,49,1,127,3,4,gloves      ,dress         ,html/resources/sequences_IDs/B/06_gloves.jpg,html/resources/sequences_IDs/A/07_dress.jpg,6,7,3,2,3,2,5,6,0,30,,,,,,,,,,,,,,,,,,,,
,,,,,30,2020-07-03_13h51.58.836,retriever_ti,2020.1.3,MacIntel,60,Chrome,1440,900,,,,,,,,,,,,,,,,,2,,,,,,,,,,,,,,,,,,,,,,,,,,,732.49905,128,right,0.671835,dress         ,4,7,1,1,0,732.532725,732.532725,735.031945,0,50,50,50,1,128,3,4,gloves      ,dress         ,html/resources/sequences_IDs/B/06_gloves.jpg,html/resources/sequences_IDs/A/07_dress.jpg,6,7,3,2,3,2,5,6,1,30,,,,,,,,,,,,,,,,,,,,
,,,,,30,2020-07-03_13h51.58.836,retriever_ti,2020.1.3,MacIntel,60,Chrome,1440,900,,,,,,,,,,,,,,,,,2,,,,,,,,,,,,,,,,,,,,,,,,,,,736.12186,129,left,1.02515,gloves      ,3,6,2,1,3,736.133355,736.133355,738.63326,0,51,51,51,1,129,3,1,gloves      ,redfox      ,html/resources/sequences_IDs/B/06_gloves.jpg,html/resources/sequences_IDs/B/01_redfox.jpg,6,1,3,2,1,1,5,1,0,30,,,,,,,,,,,,,,,,,,,,
,,,,,30,2020-07-03_13h51.58.836,retriever_ti,2020.1.3,MacIntel,60,Chrome,1440,900,,,,,,,,,,,,,,,,,2,,,,,,,,,,,,,,,,,,,,,,,,,,,739.236985,130,right,1.045735,gloves      ,3,6,1,1,0,739.249895,739.249895,741.751205,0,52,52,52,1,130,2,3,seaturtle     ,gloves      ,html/resources/sequences_IDs/A/02_seaturtle.jpg,html/resources/sequences_IDs/B/06_gloves.jpg,2,6,2,1,3,2,2,5,1,30,,,,,,,,,,,,,,,,,,,,
,,,,,30,2020-07-03_13h51.58.836,retriever_ti,2020.1.3,MacIntel,60,Chrome,1440,900,,,,,,,,,,,,,,,,,2,,,,,,,,,,,,,,,,,,,,,,,,,,,742.85035,131,right,0.776005,gloves      ,3,6,2,1,3,742.885925,742.885925,745.388725,0,53,53,53,1,131,1,3,redfox      ,gloves      ,html/resources/sequences_IDs/B/01_redfox.jpg,html/resources/sequences_IDs/B/06_gloves.jpg,1,6,1,1,3,2,1,5,0,30,,,,,,,,,,,,,,,,,,,,
,,,,,30,2020-07-03_13h51.58.836,retriever_ti,2020.1.3,MacIntel,60,Chrome,1440,900,,,,,,,,,,,,,,,,,2,,,,,,,,,,,,,,,,,,,,,,,,,,,746.004535,132,right,0.76293,dress         ,4,7,1,1,1,746.01869,746.01869,748.51888,0,54,54,54,1,132,3,4,gloves      ,dress         ,html/resources/sequences_IDs/B/06_gloves.jpg,html/resources/sequences_IDs/A/07_dress.jpg,6,7,3,2,3,2,5,6,0,30,,,,,,,,,,,,,,,,,,,,
,,,,,30,2020-07-03_13h51.58.836,retriever_ti,2020.1.3,MacIntel,60,Chrome,1440,900,,,,,,,,,,,,,,,,,2,,,,,,,,,,,,,,,,,,,,,,,,,,,749.623055,133,right,0.855575,slipper     ,7,8,6,1,3,749.65534,749.65534,752.152985,0,55,55,55,1,133,1,7,redfox      ,slipper     ,html/resources/sequences_IDs/B/01_redfox.jpg,html/resources/sequences_IDs/B/08_slipper.jpg,1,8,1,1,3,2,1,7,0,30,,,,,,,,,,,,,,,,,,,,
,,,,,30,2020-07-03_13h51.58.836,retriever_ti,2020.1.3,MacIntel,60,Chrome,1440,900,,,,,,,,,,,,,,,,,2,,,,,,,,,,,,,,,,,,,,,,,,,,,752.75649,134,left,0.790085,slipper     ,7,8,1,1,0,752.770465,752.770465,755.27267,0,56,56,56,1,134,7,6,slipper     ,calculator    ,html/resources/sequences_IDs/B/08_slipper.jpg,html/resources/sequences_IDs/A/09_calculator.jpg,8,9,3,2,4,2,7,8,1,30,,,,,,,,,,,,,,,,,,,,
,,,,,30,2020-07-03_13h51.58.836,retriever_ti,2020.1.3,MacIntel,60,Chrome,1440,900,,,,,,,,,,,,,,,,,2,,,,,,,,,,,,,,,,,,,,,,,,,,,756.37421,135,right,0.915345,peacock       ,8,5,3,1,3,756.40744,756.40744,758.905055,0,57,57,57,1,135,5,8,holdfast    ,peacock       ,html/resources/sequences_IDs/B/04_holdfast.jpg,html/resources/sequences_IDs/A/05_peacock.jpg,4,5,2,1,2,1,3,4,0,30,,,,,,,,,,,,,,,,,,,,
,,,,,30,2020-07-03_13h51.58.836,retriever_ti,2020.1.3,MacIntel,60,Chrome,1440,900,,,,,,,,,,,,,,,,,2,,,,,,,,,,,,,,,,,,,,,,,,,,,759.52557,136,right,1.09418,slipper     ,7,8,4,1,3,759.540215,759.540215,762.04034,0,58,58,58,1,136,3,7,gloves      ,slipper     ,html/resources/sequences_IDs/B/06_gloves.jpg,html/resources/sequences_IDs/B/08_slipper.jpg,6,8,3,2,3,2,5,7,0,30,,,,,,,,,,,,,,,,,,,,
,,,,,30,2020-07-03_13h51.58.836,retriever_ti,2020.1.3,MacIntel,60,Chrome,1440,900,,,,,,,,,,,,,,,,,2,,,,,,,,,,,,,,,,,,,,,,,,,,,762.65696,137,right,0.97836,calculator    ,6,9,-1,0,0,762.67432,762.67432,765.17538,0,59,59,59,1,137,7,6,slipper     ,calculator    ,html/resources/sequences_IDs/B/08_slipper.jpg,html/resources/sequences_IDs/A/09_calculator.jpg,8,9,3,2,4,2,7,8,0,30,,,,,,,,,,,,,,,,,,,,
,,,,,30,2020-07-03_13h51.58.836,retriever_ti,2020.1.3,MacIntel,60,Chrome,1440,900,,,,,,,,,,,,,,,,,2,,,,,,,,,,,,,,,,,,,,,,,,,,,766.278735,138,right,1.142425,seaturtle     ,2,2,-3,0,3,766.31097,766.31097,768.808535,0,60,60,60,1,138,5,2,holdfast    ,seaturtle     ,html/resources/sequences_IDs/B/04_holdfast.jpg,html/resources/sequences_IDs/A/02_seaturtle.jpg,4,2,2,1,2,1,3,2,0,30,,,,,,,,,,,,,,,,,,,,
,,,,,30,2020-07-03_13h51.58.836,retriever_ti,2020.1.3,MacIntel,60,Chrome,1440,900,,,,,,,,,,,,,,,,,2,,,,,,,,,,,,,,,,,,,,,,,,,,,769.412665,139,left,0.82494,gloves      ,3,6,1,1,1,769.44597,769.44597,771.943235,0,61,61,61,1,139,3,2,gloves      ,seaturtle     ,html/resources/sequences_IDs/B/06_gloves.jpg,html/resources/sequences_IDs/A/02_seaturtle.jpg,6,2,3,2,2,1,5,2,0,30,,,,,,,,,,,,,,,,,,,,
,,,,,30,2020-07-03_13h51.58.836,retriever_ti,2020.1.3,MacIntel,60,Chrome,1440,900,,,,,,,,,,,,,,,,,2,,,,,,,,,,,,,,,,,,,,,,,,,,,773.04705,140,left,1.067415,dress         ,4,7,-1,0,0,773.08064,773.08064,775.578585,0,62,62,62,1,140,4,5,dress         ,holdfast    ,html/resources/sequences_IDs/A/07_dress.jpg,html/resources/sequences_IDs/B/04_holdfast.jpg,7,4,3,2,2,1,6,3,0,30,,,,,,,,,,,,,,,,,,,,
,,,,,30,2020-07-03_13h51.58.836,retriever_ti,2020.1.3,MacIntel,60,Chrome,1440,900,,,,,,,,,,,,,,,,,2,,,,,,,,,,,,,,,,,,,,,,,,,,,776.67863,141,right,0.917185,peacock       ,8,5,1,1,1,776.71459,776.71459,779.21222,0,63,63,63,1,141,7,8,slipper     ,peacock       ,html/resources/sequences_IDs/B/08_slipper.jpg,html/resources/sequences_IDs/A/05_peacock.jpg,8,5,3,2,2,1,7,4,0,30,,,,,,,,,,,,,,,,,,,,
,,,,,30,2020-07-03_13h51.58.836,retriever_ti,2020.1.3,MacIntel,60,Chrome,1440,900,,,,,,,,,,,,,,,,,2,,,,,,,,,,,,,,,,,,,,,,,,,,,780.31594,142,right,1.485185,dress         ,4,7,-2,0,3,780.349105,780.349105,782.84936,0,64,64,64,1,142,6,4,calculator    ,dress         ,html/resources/sequences_IDs/A/09_calculator.jpg,html/resources/sequences_IDs/A/07_dress.jpg,9,7,4,2,3,2,8,6,0,30,,,,,,,,,,,,,,,,,,,,
,,,,,30,2020-07-03_13h51.58.836,retriever_ti,2020.1.3,MacIntel,60,Chrome,1440,900,,,,,,,,,,,,,,,,,2,,,,,,,,,,,,,,,,,,,,,,,,,,,783.464495,143,right,0.81993,dress         ,4,7,-1,0,1,783.483925,783.483925,785.982385,0,65,65,65,1,143,5,4,holdfast    ,dress         ,html/resources/sequences_IDs/B/04_holdfast.jpg,html/resources/sequences_IDs/A/07_dress.jpg,4,7,2,1,3,2,3,6,1,30,,,,,,,,,,,,,,,,,,,,
,,,,,30,2020-07-03_13h51.58.836,retriever_ti,2020.1.3,MacIntel,60,Chrome,1440,900,,,,,,,,,,,,,,,,,2,,,,,,,,,,,,,,,,,,,,,,,,,,,787.085205,144,left,0.925465,peacock       ,8,5,1,1,0,787.09954,787.09954,789.598575,0,66,66,66,1,144,8,7,peacock       ,slipper     ,html/resources/sequences_IDs/A/05_peacock.jpg,html/resources/sequences_IDs/B/08_slipper.jpg,5,8,2,1,3,2,4,7,1,30,,,,,,,,,,,,,,,,,,,,
,,,,,30,2020-07-03_13h51.58.836,retriever_ti,2020.1.3,MacIntel,60,Chrome,1440,900,,,,,,,,,,,,,,,,,2,,,,,,,,,,,,,,,,,,,,,,,,,,,790.702645,145,left,1.022785,dress         ,4,7,-1,0,0,790.73715,790.73715,793.23702,0,67,67,67,1,145,4,5,dress         ,holdfast    ,html/resources/sequences_IDs/A/07_dress.jpg,html/resources/sequences_IDs/B/04_holdfast.jpg,7,4,3,2,2,1,6,3,0,30,,,,,,,,,,,,,,,,,,,,
,,,,,30,2020-07-03_13h51.58.836,retriever_ti,2020.1.3,MacIntel,60,Chrome,1440,900,,,,,,,,,,,,,,,,,2,,,,,,,,,,,,,,,,,,,,,,,,,,,794.338485,146,left,0.775775,peacock       ,8,5,6,1,3,794.35624,794.35624,796.853635,0,68,68,68,1,146,8,2,peacock       ,seaturtle     ,html/resources/sequences_IDs/A/05_peacock.jpg,html/resources/sequences_IDs/A/02_seaturtle.jpg,5,2,2,1,2,1,4,2,0,30,,,,,,,,,,,,,,,,,,,,
,,,,,30,2020-07-03_13h51.58.836,retriever_ti,2020.1.3,MacIntel,60,Chrome,1440,900,,,,,,,,,,,,,,,,,2,,,,,,,,,,,,,,,,,,,,,,,,,,,797.47242,147,right,0.60845,gloves      ,3,6,-3,0,3,797.505445,797.505445,800.003005,0,69,69,69,1,147,6,3,calculator    ,gloves      ,html/resources/sequences_IDs/A/09_calculator.jpg,html/resources/sequences_IDs/B/06_gloves.jpg,9,6,4,2,3,2,8,5,0,30,,,,,,,,,,,,,,,,,,,,
,,,,,30,2020-07-03_13h51.58.836,retriever_ti,2020.1.3,MacIntel,60,Chrome,1440,900,,,,,,,,,,,,,,,,,2,,,,,,,,,,,,,,,,,,,,,,,,,,,800.606075,148,right,1.119025,seaturtle     ,2,2,-5,0,3,800.64019,800.64019,803.13726,0,70,70,70,1,148,7,2,slipper     ,seaturtle     ,html/resources/sequences_IDs/B/08_slipper.jpg,html/resources/sequences_IDs/A/02_seaturtle.jpg,8,2,3,2,2,1,7,2,0,30,,,,,,,,,,,,,,,,,,,,
,,,,,30,2020-07-03_13h51.58.836,retriever_ti,2020.1.3,MacIntel,60,Chrome,1440,900,,,,,,,,,,,,,,,,,2,,,,,,,,,,,,,,,,,,,,,,,,,,,803.73901,149,left,0.9882,peacock       ,8,5,4,1,3,803.757685,803.757685,806.256555,0,71,71,71,1,149,8,4,peacock       ,dress         ,html/resources/sequences_IDs/A/05_peacock.jpg,html/resources/sequences_IDs/A/07_dress.jpg,5,7,2,1,3,2,4,6,0,30,,,,,,,,,,,,,,,,,,,,
,,,,,30,2020-07-03_13h51.58.836,retriever_ti,2020.1.3,MacIntel,60,Chrome,1440,900,,,,,,,,,,,,,,,,,2,,,,,,,,,,,,,,,,,,,,,,,,,,,806.87495,150,right,1.1299,gloves      ,3,6,1,1,1,806.90959,806.90959,809.40619,0,72,72,72,1,150,2,3,seaturtle     ,gloves      ,html/resources/sequences_IDs/A/02_seaturtle.jpg,html/resources/sequences_IDs/B/06_gloves.jpg,2,6,2,1,3,2,2,5,0,30,,,,,,,,,,,,,,,,,,,,
,,,,,30,2020-07-03_13h51.58.836,retriever_ti,2020.1.3,MacIntel,60,Chrome,1440,900,,,,,,,,,,,,,,,,,2,,,,,,,,,,,,,,,,,,,,,,,,,,,810.512115,151,left,0.89995,dress         ,4,7,3,1,3,810.524835,810.524835,813.02568,0,73,73,73,1,151,4,1,dress         ,redfox      ,html/resources/sequences_IDs/A/07_dress.jpg,html/resources/sequences_IDs/B/01_redfox.jpg,7,1,3,2,1,1,6,1,0,30,,,,,,,,,,,,,,,,,,,,
,,,,,30,2020-07-03_13h51.58.836,retriever_ti,2020.1.3,MacIntel,60,Chrome,1440,900,,,,,,,,,,,,,,,,,2,,,,,,,,,,,,,,,,,,,,,,,,,,,813.644355,152,right,0.654235,peacock       ,8,5,5,1,3,813.677755,813.677755,816.1779,0,74,74,74,1,152,3,8,gloves      ,peacock       ,html/resources/sequences_IDs/B/06_gloves.jpg,html/resources/sequences_IDs/A/05_peacock.jpg,6,5,3,2,2,1,5,4,0,30,,,,,,,,,,,,,,,,,,,,
,,,,,30,2020-07-03_13h51.58.836,retriever_ti,2020.1.3,MacIntel,60,Chrome,1440,900,,,,,,,,,,,,,,,,,2,,,,,,,,,,,,,,,,,,,,,,,,,,,816.79346,153,left,0.85918,seaturtle     ,2,2,-5,0,3,816.828015,816.828015,819.326745,0,75,75,75,1,153,2,7,seaturtle     ,slipper     ,html/resources/sequences_IDs/A/02_seaturtle.jpg,html/resources/sequences_IDs/B/08_slipper.jpg,2,8,2,1,3,2,2,7,0,30,,,,,,,,,,,,,,,,,,,,
,,,,,30,2020-07-03_13h51.58.836,retriever_ti,2020.1.3,MacIntel,60,Chrome,1440,900,,,,,,,,,,,,,,,,,2,,,,,,,,,,,,,,,,,,,,,,,,,,,819.945815,154,right,0.742055,gloves      ,3,6,-2,0,3,819.961705,819.961705,822.463215,0,76,76,76,1,154,5,3,holdfast    ,gloves      ,html/resources/sequences_IDs/B/04_holdfast.jpg,html/resources/sequences_IDs/B/06_gloves.jpg,4,6,2,1,3,2,3,5,0,30,,,,,,,,,,,,,,,,,,,,
,,,,,30,2020-07-03_13h51.58.836,retriever_ti,2020.1.3,MacIntel,60,Chrome,1440,900,,,,,,,,,,,,,,,,,,,,,,,,,,,,,,,,,,,,,0,1.81938,,,,,,,,,,,,,,,,,,,,,,,,,,,,,,,,,,,,,,,,,1,0,1,0,1,,,,,,,,,,,,,,,
,,,,,30,2020-07-03_13h51.58.836,retriever_ti,2020.1.3,MacIntel,60,Chrome,1440,900,,,,,,,,,,,,,,,,,3,,,,,,,,,,,,,,,,,,,,,,,,,,,835.802145,155,left,1.11275,calculator    ,6,9,3,1,3,835.812975,835.812975,838.30499,0,0,0,0,1,155,6,3,calculator    ,gloves      ,html/resources/sequences_IDs/A/09_calculator.jpg,html/resources/sequences_IDs/B/06_gloves.jpg,9,6,4,2,3,2,8,5,0,30,,,,,,,,,,,,,,,,,,,,
,,,,,30,2020-07-03_13h51.58.836,retriever_ti,2020.1.3,MacIntel,60,Chrome,1440,900,,,,,,,,,,,,,,,,,3,,,,,,,,,,,,,,,,,,,,,,,,,,,838.918175,156,left,0.94698,seaturtle     ,2,2,1,1,1,838.93866,838.93866,841.434655,0,1,1,1,1,156,2,1,seaturtle     ,redfox      ,html/resources/sequences_IDs/A/02_seaturtle.jpg,html/resources/sequences_IDs/B/01_redfox.jpg,2,1,2,1,1,1,2,1,0,30,,,,,,,,,,,,,,,,,,,,
,,,,,30,2020-07-03_13h51.58.836,retriever_ti,2020.1.3,MacIntel,60,Chrome,1440,900,,,,,,,,,,,,,,,,,3,,,,,,,,,,,,,,,,,,,,,,,,,,,842.53595,157,right,0.778785,dress         ,4,7,1,1,1,842.55539,842.55539,845.05209,0,2,2,2,1,157,3,4,gloves      ,dress         ,html/resources/sequences_IDs/B/06_gloves.jpg,html/resources/sequences_IDs/A/07_dress.jpg,6,7,3,2,3,2,5,6,0,30,,,,,,,,,,,,,,,,,,,,
,,,,,30,2020-07-03_13h51.58.836,retriever_ti,2020.1.3,MacIntel,60,Chrome,1440,900,,,,,,,,,,,,,,,,,3,,,,,,,,,,,,,,,,,,,,,,,,,,,846.156325,158,left,0.761405,peacock       ,8,5,4,1,3,846.17102,846.17102,848.671715,0,3,3,3,1,158,8,4,peacock       ,dress         ,html/resources/sequences_IDs/A/05_peacock.jpg,html/resources/sequences_IDs/A/07_dress.jpg,5,7,2,1,3,2,4,6,0,30,,,,,,,,,,,,,,,,,,,,
,,,,,30,2020-07-03_13h51.58.836,retriever_ti,2020.1.3,MacIntel,60,Chrome,1440,900,,,,,,,,,,,,,,,,,3,,,,,,,,,,,,,,,,,,,,,,,,,,,849.2744,159,right,0.91804,peacock       ,8,5,3,1,3,849.309015,849.309015,851.804495,0,4,4,4,1,159,5,8,holdfast    ,peacock       ,html/resources/sequences_IDs/B/04_holdfast.jpg,html/resources/sequences_IDs/A/05_peacock.jpg,4,5,2,1,2,1,3,4,0,30,,,,,,,,,,,,,,,,,,,,
,,,,,30,2020-07-03_13h51.58.836,retriever_ti,2020.1.3,MacIntel,60,Chrome,1440,900,,,,,,,,,,,,,,,,,3,,,,,,,,,,,,,,,,,,,,,,,,,,,852.409705,160,left,1.125005,slipper     ,7,8,1,1,1,852.4433,852.4433,854.938935,0,5,5,5,1,160,7,6,slipper     ,calculator    ,html/resources/sequences_IDs/B/08_slipper.jpg,html/resources/sequences_IDs/A/09_calculator.jpg,8,9,3,2,4,2,7,8,0,30,,,,,,,,,,,,,,,,,,,,
,,,,,30,2020-07-03_13h51.58.836,retriever_ti,2020.1.3,MacIntel,60,Chrome,1440,900,,,,,,,,,,,,,,,,,3,,,,,,,,,,,,,,,,,,,,,,,,,,,856.040185,161,right,1.109685,seaturtle     ,2,2,1,1,0,856.058335,856.058335,858.557345,0,6,6,6,1,161,1,2,redfox      ,seaturtle     ,html/resources/sequences_IDs/B/01_redfox.jpg,html/resources/sequences_IDs/A/02_seaturtle.jpg,1,2,1,1,2,1,1,2,1,30,,,,,,,,,,,,,,,,,,,,
,,,,,30,2020-07-03_13h51.58.836,retriever_ti,2020.1.3,MacIntel,60,Chrome,1440,900,,,,,,,,,,,,,,,,,3,,,,,,,,,,,,,,,,,,,,,,,,,,,859.658475,162,left,1.212495,calculator    ,6,9,4,1,3,859.691935,859.691935,862.19428,0,7,7,7,1,162,6,2,calculator    ,seaturtle     ,html/resources/sequences_IDs/A/09_calculator.jpg,html/resources/sequences_IDs/A/02_seaturtle.jpg,9,2,4,2,2,1,8,2,0,30,,,,,,,,,,,,,,,,,,,,
,,,,,30,2020-07-03_13h51.58.836,retriever_ti,2020.1.3,MacIntel,60,Chrome,1440,900,,,,,,,,,,,,,,,,,3,,,,,,,,,,,,,,,,,,,,,,,,,,,862.81126,163,right,1.245265,slipper     ,7,8,3,1,3,862.846525,862.846525,865.34442,0,8,8,8,1,163,4,7,dress         ,slipper     ,html/resources/sequences_IDs/A/07_dress.jpg,html/resources/sequences_IDs/B/08_slipper.jpg,7,8,3,2,3,2,6,7,0,30,,,,,,,,,,,,,,,,,,,,
,,,,,30,2020-07-03_13h51.58.836,retriever_ti,2020.1.3,MacIntel,60,Chrome,1440,900,,,,,,,,,,,,,,,,,3,,,,,,,,,,,,,,,,,,,,,,,,,,,865.94627,164,right,1.39274,gloves      ,3,6,1,1,1,865.960195,865.960195,868.462265,0,9,9,9,1,164,2,3,seaturtle     ,gloves      ,html/resources/sequences_IDs/A/02_seaturtle.jpg,html/resources/sequences_IDs/B/06_gloves.jpg,2,6,2,1,3,2,2,5,0,30,,,,,,,,,,,,,,,,,,,,
,,,,,30,2020-07-03_13h51.58.836,retriever_ti,2020.1.3,MacIntel,60,Chrome,1440,900,,,,,,,,,,,,,,,,,3,,,,,,,,,,,,,,,,,,,,,,,,,,,869.561305,165,left,1.118715,holdfast    ,5,4,3,1,3,869.594815,869.594815,872.0955,0,10,10,10,1,165,5,2,holdfast    ,seaturtle     ,html/resources/sequences_IDs/B/04_holdfast.jpg,html/resources/sequences_IDs/A/02_seaturtle.jpg,4,2,2,1,2,1,3,2,0,30,,,,,,,,,,,,,,,,,,,,
,,,,,30,2020-07-03_13h51.58.836,retriever_ti,2020.1.3,MacIntel,60,Chrome,1440,900,,,,,,,,,,,,,,,,,3,,,,,,,,,,,,,,,,,,,,,,,,,,,872.697885,166,right,0.98887,calculator    ,6,9,-1,0,0,872.71346,872.71346,875.21276,0,11,11,11,1,166,7,6,slipper     ,calculator    ,html/resources/sequences_IDs/B/08_slipper.jpg,html/resources/sequences_IDs/A/09_calculator.jpg,8,9,3,2,4,2,7,8,0,30,,,,,,,,,,,,,,,,,,,,
,,,,,30,2020-07-03_13h51.58.836,retriever_ti,2020.1.3,MacIntel,60,Chrome,1440,900,,,,,,,,,,,,,,,,,3,,,,,,,,,,,,,,,,,,,,,,,,,,,876.31513,167,left,1.354985,peacock       ,8,5,5,1,3,876.33276,876.33276,878.834095,0,12,12,12,1,167,8,3,peacock       ,gloves      ,html/resources/sequences_IDs/A/05_peacock.jpg,html/resources/sequences_IDs/B/06_gloves.jpg,5,6,2,1,3,2,4,5,0,30,,,,,,,,,,,,,,,,,,,,
,,,,,30,2020-07-03_13h51.58.836,retriever_ti,2020.1.3,MacIntel,60,Chrome,1440,900,,,,,,,,,,,,,,,,,3,,,,,,,,,,,,,,,,,,,,,,,,,,,879.450035,168,right,0.71127,dress         ,4,7,-1,0,0,879.483265,879.483265,881.99968,0,13,13,13,1,168,5,4,holdfast    ,dress         ,html/resources/sequences_IDs/B/04_holdfast.jpg,html/resources/sequences_IDs/A/07_dress.jpg,4,7,2,1,3,2,3,6,0,30,,,,,,,,,,,,,,,,,,,,
,,,,,30,2020-07-03_13h51.58.836,retriever_ti,2020.1.3,MacIntel,60,Chrome,1440,900,,,,,,,,,,,,,,,,,3,,,,,,,,,,,,,,,,,,,,,,,,,,,883.101095,169,left,1.02337,dress         ,4,7,3,1,3,883.13725,883.13725,885.63342,0,14,14,14,1,169,4,1,dress         ,redfox      ,html/resources/sequences_IDs/A/07_dress.jpg,html/resources/sequences_IDs/B/01_redfox.jpg,7,1,3,2,1,1,6,1,0,30,,,,,,,,,,,,,,,,,,,,
,,,,,30,2020-07-03_13h51.58.836,retriever_ti,2020.1.3,MacIntel,60,Chrome,1440,900,,,,,,,,,,,,,,,,,3,,,,,,,,,,,,,,,,,,,,,,,,,,,886.23592,170,right,0.791185,slipper     ,7,8,6,1,3,886.26883,886.26883,888.76937,0,15,15,15,1,170,1,7,redfox      ,slipper     ,html/resources/sequences_IDs/B/01_redfox.jpg,html/resources/sequences_IDs/B/08_slipper.jpg,1,8,1,1,3,2,1,7,0,30,,,,,,,,,,,,,,,,,,,,
,,,,,30,2020-07-03_13h51.58.836,retriever_ti,2020.1.3,MacIntel,60,Chrome,1440,900,,,,,,,,,,,,,,,,,3,,,,,,,,,,,,,,,,,,,,,,,,,,,889.370655,171,right,0.897485,dress         ,4,7,2,1,3,889.38565,889.38565,891.88588,0,16,16,16,1,171,2,4,seaturtle     ,dress         ,html/resources/sequences_IDs/A/02_seaturtle.jpg,html/resources/sequences_IDs/A/07_dress.jpg,2,7,2,1,3,2,2,6,0,30,,,,,,,,,,,,,,,,,,,,
,,,,,30,2020-07-03_13h51.58.836,retriever_ti,2020.1.3,MacIntel,60,Chrome,1440,900,,,,,,,,,,,,,,,,,3,,,,,,,,,,,,,,,,,,,,,,,,,,,892.506235,172,right,1.29315,slipper     ,7,8,4,1,3,892.53924,892.53924,895.038395,0,17,17,17,1,172,3,7,gloves      ,slipper     ,html/resources/sequences_IDs/B/06_gloves.jpg,html/resources/sequences_IDs/B/08_slipper.jpg,6,8,3,2,3,2,5,7,0,30,,,,,,,,,,,,,,,,,,,,
,,,,,30,2020-07-03_13h51.58.836,retriever_ti,2020.1.3,MacIntel,60,Chrome,1440,900,,,,,,,,,,,,,,,,,3,,,,,,,,,,,,,,,,,,,,,,,,,,,895.656195,173,left,0.68715,dress         ,4,7,1,1,1,895.67121,895.67121,898.173005,0,18,18,18,1,173,4,3,dress         ,gloves      ,html/resources/sequences_IDs/A/07_dress.jpg,html/resources/sequences_IDs/B/06_gloves.jpg,7,6,3,2,3,2,6,5,0,30,,,,,,,,,,,,,,,,,,,,
,,,,,30,2020-07-03_13h51.58.836,retriever_ti,2020.1.3,MacIntel,60,Chrome,1440,900,,,,,,,,,,,,,,,,,3,,,,,,,,,,,,,,,,,,,,,,,,,,,899.272465,174,right,0.82751,peacock       ,8,5,6,1,3,899.305425,899.305425,901.80624,0,19,19,19,1,174,2,8,seaturtle     ,peacock       ,html/resources/sequences_IDs/A/02_seaturtle.jpg,html/resources/sequences_IDs/A/05_peacock.jpg,2,5,2,1,2,1,2,4,0,30,,,,,,,,,,,,,,,,,,,,
,,,,,30,2020-07-03_13h51.58.836,retriever_ti,2020.1.3,MacIntel,60,Chrome,1440,900,,,,,,,,,,,,,,,,,3,,,,,,,,,,,,,,,,,,,,,,,,,,,902.40751,175,left,0.908705,slipper     ,7,8,1,1,0,902.423375,902.423375,904.923455,0,20,20,20,1,175,7,6,slipper     ,calculator    ,html/resources/sequences_IDs/B/08_slipper.jpg,html/resources/sequences_IDs/A/09_calculator.jpg,8,9,3,2,4,2,7,8,1,30,,,,,,,,,,,,,,,,,,,,
,,,,,30,2020-07-03_13h51.58.836,retriever_ti,2020.1.3,MacIntel,60,Chrome,1440,900,,,,,,,,,,,,,,,,,3,,,,,,,,,,,,,,,,,,,,,,,,,,,906.02669,176,left,1.014205,peacock       ,8,5,1,1,1,906.04155,906.04155,908.542555,0,21,21,21,1,176,8,7,peacock       ,slipper     ,html/resources/sequences_IDs/A/05_peacock.jpg,html/resources/sequences_IDs/B/08_slipper.jpg,5,8,2,1,3,2,4,7,0,30,,,,,,,,,,,,,,,,,,,,
,,,,,30,2020-07-03_13h51.58.836,retriever_ti,2020.1.3,MacIntel,60,Chrome,1440,900,,,,,,,,,,,,,,,,,3,,,,,,,,,,,,,,,,,,,,,,,,,,,909.64539,177,right,1.103045,holdfast    ,5,4,2,1,3,909.67836,909.67836,912.17583,0,22,22,22,1,177,3,5,gloves      ,holdfast    ,html/resources/sequences_IDs/B/06_gloves.jpg,html/resources/sequences_IDs/B/04_holdfast.jpg,6,4,3,2,2,1,5,3,0,30,,,,,,,,,,,,,,,,,,,,
,,,,,30,2020-07-03_13h51.58.836,retriever_ti,2020.1.3,MacIntel,60,Chrome,1440,900,,,,,,,,,,,,,,,,,3,,,,,,,,,,,,,,,,,,,,,,,,,,,912.779035,178,left,0.62183,dress         ,4,7,1,1,1,912.79384,912.79384,915.29567,0,23,23,23,1,178,4,3,dress         ,gloves      ,html/resources/sequences_IDs/A/07_dress.jpg,html/resources/sequences_IDs/B/06_gloves.jpg,7,6,3,2,3,2,6,5,0,30,,,,,,,,,,,,,,,,,,,,
,,,,,30,2020-07-03_13h51.58.836,retriever_ti,2020.1.3,MacIntel,60,Chrome,1440,900,,,,,,,,,,,,,,,,,3,,,,,,,,,,,,,,,,,,,,,,,,,,,916.397015,179,left,1.19257,seaturtle     ,2,2,1,1,1,916.411725,916.411725,918.91032,0,24,24,24,1,179,2,1,seaturtle     ,redfox      ,html/resources/sequences_IDs/A/02_seaturtle.jpg,html/resources/sequences_IDs/B/01_redfox.jpg,2,1,2,1,1,1,2,1,0,30,,,,,,,,,,,,,,,,,,,,
,,,,,30,2020-07-03_13h51.58.836,retriever_ti,2020.1.3,MacIntel,60,Chrome,1440,900,,,,,,,,,,,,,,,,,3,,,,,,,,,,,,,,,,,,,,,,,,,,,920.016605,180,left,0.97714,calculator    ,6,9,1,1,1,920.048785,920.048785,922.548005,0,25,25,25,1,180,6,5,calculator    ,holdfast    ,html/resources/sequences_IDs/A/09_calculator.jpg,html/resources/sequences_IDs/B/04_holdfast.jpg,9,4,4,2,2,1,8,3,0,30,,,,,,,,,,,,,,,,,,,,
,,,,,30,2020-07-03_13h51.58.836,retriever_ti,2020.1.3,MacIntel,60,Chrome,1440,900,,,,,,,,,,,,,,,,,3,,,,,,,,,,,,,,,,,,,,,,,,,,,923.648215,181,right,1.49226,dress         ,4,7,-1,0,0,923.66484,923.66484,926.164005,0,26,26,26,1,181,5,4,holdfast    ,dress         ,html/resources/sequences_IDs/B/04_holdfast.jpg,html/resources/sequences_IDs/A/07_dress.jpg,4,7,2,1,3,2,3,6,0,30,,,,,,,,,,,,,,,,,,,,
,,,,,30,2020-07-03_13h51.58.836,retriever_ti,2020.1.3,MacIntel,60,Chrome,1440,900,,,,,,,,,,,,,,,,,3,,,,,,,,,,,,,,,,,,,,,,,,,,,927.26521,182,left,1.4846,holdfast    ,5,4,-2,0,3,927.298745,927.298745,929.80001,0,27,27,27,1,182,5,7,holdfast    ,slipper     ,html/resources/sequences_IDs/B/04_holdfast.jpg,html/resources/sequences_IDs/B/08_slipper.jpg,4,8,2,1,3,2,3,7,0,30,,,,,,,,,,,,,,,,,,,,
,,,,,30,2020-07-03_13h51.58.836,retriever_ti,2020.1.3,MacIntel,60,Chrome,1440,900,,,,,,,,,,,,,,,,,3,,,,,,,,,,,,,,,,,,,,,,,,,,,930.40182,183,left,0.81794,peacock       ,8,5,1,1,1,930.416705,930.416705,932.91747,0,28,28,28,1,183,8,7,peacock       ,slipper     ,html/resources/sequences_IDs/A/05_peacock.jpg,html/resources/sequences_IDs/B/08_slipper.jpg,5,8,2,1,3,2,4,7,0,30,,,,,,,,,,,,,,,,,,,,
,,,,,30,2020-07-03_13h51.58.836,retriever_ti,2020.1.3,MacIntel,60,Chrome,1440,900,,,,,,,,,,,,,,,,,3,,,,,,,,,,,,,,,,,,,,,,,,,,,934.01995,184,left,0.798975,peacock       ,8,5,7,1,3,934.051785,934.051785,936.55094,0,29,29,29,1,184,8,1,peacock       ,redfox      ,html/resources/sequences_IDs/A/05_peacock.jpg,html/resources/sequences_IDs/B/01_redfox.jpg,5,1,2,1,1,1,4,1,0,30,,,,,,,,,,,,,,,,,,,,
,,,,,30,2020-07-03_13h51.58.836,retriever_ti,2020.1.3,MacIntel,60,Chrome,1440,900,,,,,,,,,,,,,,,,,3,,,,,,,,,,,,,,,,,,,,,,,,,,,937.15342,185,right,1.252755,calculator    ,6,9,3,1,3,937.18831,937.18831,939.68525,0,30,30,30,1,185,3,6,gloves      ,calculator    ,html/resources/sequences_IDs/B/06_gloves.jpg,html/resources/sequences_IDs/A/09_calculator.jpg,6,9,3,2,4,2,5,8,0,30,,,,,,,,,,,,,,,,,,,,
,,,,,30,2020-07-03_13h51.58.836,retriever_ti,2020.1.3,MacIntel,60,Chrome,1440,900,,,,,,,,,,,,,,,,,3,,,,,,,,,,,,,,,,,,,,,,,,,,,940.2877,186,right,0.850555,peacock       ,8,5,1,1,1,940.322595,940.322595,942.82058,0,31,31,31,1,186,7,8,slipper     ,peacock       ,html/resources/sequences_IDs/B/08_slipper.jpg,html/resources/sequences_IDs/A/05_peacock.jpg,8,5,3,2,2,1,7,4,0,30,,,,,,,,,,,,,,,,,,,,
,,,,,30,2020-07-03_13h51.58.836,retriever_ti,2020.1.3,MacIntel,60,Chrome,1440,900,,,,,,,,,,,,,,,,,3,,,,,,,,,,,,,,,,,,,,,,,,,,,943.924155,187,left,1.014115,slipper     ,7,8,4,1,3,943.95586,943.95586,946.45563,0,32,32,32,1,187,7,3,slipper     ,gloves      ,html/resources/sequences_IDs/B/08_slipper.jpg,html/resources/sequences_IDs/B/06_gloves.jpg,8,6,3,2,3,2,7,5,0,30,,,,,,,,,,,,,,,,,,,,
,,,,,30,2020-07-03_13h51.58.836,retriever_ti,2020.1.3,MacIntel,60,Chrome,1440,900,,,,,,,,,,,,,,,,,3,,,,,,,,,,,,,,,,,,,,,,,,,,,947.07421,188,left,0.77379,peacock       ,8,5,6,1,3,947.107745,947.107745,949.60615,0,33,33,33,1,188,8,2,peacock       ,seaturtle     ,html/resources/sequences_IDs/A/05_peacock.jpg,html/resources/sequences_IDs/A/02_seaturtle.jpg,5,2,2,1,2,1,4,2,0,30,,,,,,,,,,,,,,,,,,,,
,,,,,30,2020-07-03_13h51.58.836,retriever_ti,2020.1.3,MacIntel,60,Chrome,1440,900,,,,,,,,,,,,,,,,,3,,,,,,,,,,,,,,,,,,,,,,,,,,,950.20799,189,right,0.67751,seaturtle     ,2,2,1,1,1,950.2237,950.2237,952.723955,0,34,34,34,1,189,1,2,redfox      ,seaturtle     ,html/resources/sequences_IDs/B/01_redfox.jpg,html/resources/sequences_IDs/A/02_seaturtle.jpg,1,2,1,1,2,1,1,2,0,30,,,,,,,,,,,,,,,,,,,,
,,,,,30,2020-07-03_13h51.58.836,retriever_ti,2020.1.3,MacIntel,60,Chrome,1440,900,,,,,,,,,,,,,,,,,3,,,,,,,,,,,,,,,,,,,,,,,,,,,953.827105,190,right,0.624125,dress         ,4,7,-3,0,3,953.860135,953.860135,956.35875,0,35,35,35,1,190,7,4,slipper     ,dress         ,html/resources/sequences_IDs/B/08_slipper.jpg,html/resources/sequences_IDs/A/07_dress.jpg,8,7,3,2,3,2,7,6,0,30,,,,,,,,,,,,,,,,,,,,
,,,,,30,2020-07-03_13h51.58.836,retriever_ti,2020.1.3,MacIntel,60,Chrome,1440,900,,,,,,,,,,,,,,,,,3,,,,,,,,,,,,,,,,,,,,,,,,,,,956.9608,191,left,0.65693,dress         ,4,7,2,1,3,956.994235,956.994235,959.4932,0,36,36,36,1,191,4,2,dress         ,seaturtle     ,html/resources/sequences_IDs/A/07_dress.jpg,html/resources/sequences_IDs/A/02_seaturtle.jpg,7,2,3,2,2,1,6,2,0,30,,,,,,,,,,,,,,,,,,,,
,,,,,30,2020-07-03_13h51.58.836,retriever_ti,2020.1.3,MacIntel,60,Chrome,1440,900,,,,,,,,,,,,,,,,,3,,,,,,,,,,,,,,,,,,,,,,,,,,,960.095965,192,left,0.941835,holdfast    ,5,4,2,1,3,960.130675,960.130675,962.6258,0,37,37,37,1,192,5,3,holdfast    ,gloves      ,html/resources/sequences_IDs/B/04_holdfast.jpg,html/resources/sequences_IDs/B/06_gloves.jpg,4,6,2,1,3,2,3,5,0,30,,,,,,,,,,,,,,,,,,,,
,,,,,30,2020-07-03_13h51.58.836,retriever_ti,2020.1.3,MacIntel,60,Chrome,1440,900,,,,,,,,,,,,,,,,,3,,,,,,,,,,,,,,,,,,,,,,,,,,,963.228675,193,left,0.68221,dress         ,4,7,-1,0,0,963.26191,963.26191,965.760905,0,38,38,38,1,193,4,5,dress         ,holdfast    ,html/resources/sequences_IDs/A/07_dress.jpg,html/resources/sequences_IDs/B/04_holdfast.jpg,7,4,3,2,2,1,6,3,0,30,,,,,,,,,,,,,,,,,,,,
,,,,,30,2020-07-03_13h51.58.836,retriever_ti,2020.1.3,MacIntel,60,Chrome,1440,900,,,,,,,,,,,,,,,,,3,,,,,,,,,,,,,,,,,,,,,,,,,,,966.86285,194,right,1.09504,calculator    ,6,9,1,1,0,966.88283,966.88283,969.38236,0,39,39,39,1,194,5,6,holdfast    ,calculator    ,html/resources/sequences_IDs/B/04_holdfast.jpg,html/resources/sequences_IDs/A/09_calculator.jpg,4,9,2,1,4,2,3,8,1,30,,,,,,,,,,,,,,,,,,,,
,,,,,30,2020-07-03_13h51.58.836,retriever_ti,2020.1.3,MacIntel,60,Chrome,1440,900,,,,,,,,,,,,,,,,,3,,,,,,,,,,,,,,,,,,,,,,,,,,,970.48252,195,right,0.966335,slipper     ,7,8,1,1,1,970.49895,970.49895,972.99698,0,40,40,40,1,195,6,7,calculator    ,slipper     ,html/resources/sequences_IDs/A/09_calculator.jpg,html/resources/sequences_IDs/B/08_slipper.jpg,9,8,4,2,3,2,8,7,0,30,,,,,,,,,,,,,,,,,,,,
,,,,,30,2020-07-03_13h51.58.836,retriever_ti,2020.1.3,MacIntel,60,Chrome,1440,900,,,,,,,,,,,,,,,,,3,,,,,,,,,,,,,,,,,,,,,,,,,,,974.09937,196,left,0.892815,gloves      ,3,6,2,1,3,974.133225,974.133225,976.632905,0,41,41,41,1,196,3,1,gloves      ,redfox      ,html/resources/sequences_IDs/B/06_gloves.jpg,html/resources/sequences_IDs/B/01_redfox.jpg,6,1,3,2,1,1,5,1,0,30,,,,,,,,,,,,,,,,,,,,
,,,,,30,2020-07-03_13h51.58.836,retriever_ti,2020.1.3,MacIntel,60,Chrome,1440,900,,,,,,,,,,,,,,,,,3,,,,,,,,,,,,,,,,,,,,,,,,,,,977.235095,197,right,0.59508,dress         ,4,7,1,1,0,977.249915,977.249915,979.749345,0,42,42,42,1,197,3,4,gloves      ,dress         ,html/resources/sequences_IDs/B/06_gloves.jpg,html/resources/sequences_IDs/A/07_dress.jpg,6,7,3,2,3,2,5,6,1,30,,,,,,,,,,,,,,,,,,,,
,,,,,30,2020-07-03_13h51.58.836,retriever_ti,2020.1.3,MacIntel,60,Chrome,1440,900,,,,,,,,,,,,,,,,,3,,,,,,,,,,,,,,,,,,,,,,,,,,,980.852365,198,left,0.819105,peacock       ,8,5,1,1,0,980.868835,980.868835,983.370425,0,43,43,43,1,198,8,7,peacock       ,slipper     ,html/resources/sequences_IDs/A/05_peacock.jpg,html/resources/sequences_IDs/B/08_slipper.jpg,5,8,2,1,3,2,4,7,1,30,,,,,,,,,,,,,,,,,,,,
,,,,,30,2020-07-03_13h51.58.836,retriever_ti,2020.1.3,MacIntel,60,Chrome,1440,900,,,,,,,,,,,,,,,,,3,,,,,,,,,,,,,,,,,,,,,,,,,,,984.4645,199,left,1.117145,calculator    ,6,9,-1,0,0,984.50918,984.50918,987.00227,0,44,44,44,1,199,6,7,calculator    ,slipper     ,html/resources/sequences_IDs/A/09_calculator.jpg,html/resources/sequences_IDs/B/08_slipper.jpg,9,8,4,2,3,2,8,7,0,30,,,,,,,,,,,,,,,,,,,,
,,,,,30,2020-07-03_13h51.58.836,retriever_ti,2020.1.3,MacIntel,60,Chrome,1440,900,,,,,,,,,,,,,,,,,3,,,,,,,,,,,,,,,,,,,,,,,,,,,988.10676,200,right,1.01855,seaturtle     ,2,2,-1,0,0,988.138375,988.138375,990.637375,0,45,45,45,1,200,3,2,gloves      ,seaturtle     ,html/resources/sequences_IDs/B/06_gloves.jpg,html/resources/sequences_IDs/A/02_seaturtle.jpg,6,2,3,2,2,1,5,2,0,30,,,,,,,,,,,,,,,,,,,,
,,,,,30,2020-07-03_13h51.58.836,retriever_ti,2020.1.3,MacIntel,60,Chrome,1440,900,,,,,,,,,,,,,,,,,3,,,,,,,,,,,,,,,,,,,,,,,,,,,991.738205,201,right,0.77449,calculator    ,6,9,5,1,3,991.77422,991.77422,994.271065,0,46,46,46,1,201,1,6,redfox      ,calculator    ,html/resources/sequences_IDs/B/01_redfox.jpg,html/resources/sequences_IDs/A/09_calculator.jpg,1,9,1,1,4,2,1,8,0,30,,,,,,,,,,,,,,,,,,,,
,,,,,30,2020-07-03_13h51.58.836,retriever_ti,2020.1.3,MacIntel,60,Chrome,1440,900,,,,,,,,,,,,,,,,,3,,,,,,,,,,,,,,,,,,,,,,,,,,,994.8739,202,left,0.61828,holdfast    ,5,4,4,1,3,994.90766,994.90766,997.405825,0,47,47,47,1,202,5,1,holdfast    ,redfox      ,html/resources/sequences_IDs/B/04_holdfast.jpg,html/resources/sequences_IDs/B/01_redfox.jpg,4,1,2,1,1,1,3,1,0,30,,,,,,,,,,,,,,,,,,,,
,,,,,30,2020-07-03_13h51.58.836,retriever_ti,2020.1.3,MacIntel,60,Chrome,1440,900,,,,,,,,,,,,,,,,,3,,,,,,,,,,,,,,,,,,,,,,,,,,,998.01024,203,left,0.72898,calculator    ,6,9,5,1,3,998.024835,998.024835,1000.524335,0,48,48,48,1,203,6,1,calculator    ,redfox      ,html/resources/sequences_IDs/A/09_calculator.jpg,html/resources/sequences_IDs/B/01_redfox.jpg,9,1,4,2,1,1,8,1,0,30,,,,,,,,,,,,,,,,,,,,
,,,,,30,2020-07-03_13h51.58.836,retriever_ti,2020.1.3,MacIntel,60,Chrome,1440,900,,,,,,,,,,,,,,,,,3,,,,,,,,,,,,,,,,,,,,,,,,,,,1001.12708,204,left,0.92898,slipper     ,7,8,5,1,3,1001.160585,1001.160585,1003.65907,0,49,49,49,1,204,7,2,slipper     ,seaturtle     ,html/resources/sequences_IDs/B/08_slipper.jpg,html/resources/sequences_IDs/A/02_seaturtle.jpg,8,2,3,2,2,1,7,2,0,30,,,,,,,,,,,,,,,,,,,,
,,,,,30,2020-07-03_13h51.58.836,retriever_ti,2020.1.3,MacIntel,60,Chrome,1440,900,,,,,,,,,,,,,,,,,3,,,,,,,,,,,,,,,,,,,,,,,,,,,1004.276325,205,right,0.6034,peacock       ,8,5,7,1,3,1004.311045,1004.311045,1006.80879,0,50,50,50,1,205,1,8,redfox      ,peacock       ,html/resources/sequences_IDs/B/01_redfox.jpg,html/resources/sequences_IDs/A/05_peacock.jpg,1,5,1,1,2,1,1,4,0,30,,,,,,,,,,,,,,,,,,,,
,,,,,30,2020-07-03_13h51.58.836,retriever_ti,2020.1.3,MacIntel,60,Chrome,1440,900,,,,,,,,,,,,,,,,,3,,,,,,,,,,,,,,,,,,,,,,,,,,,1007.410595,206,right,1.196235,calculator    ,6,9,1,1,1,1007.4446,1007.4446,1009.94451,0,51,51,51,1,206,5,6,holdfast    ,calculator    ,html/resources/sequences_IDs/B/04_holdfast.jpg,html/resources/sequences_IDs/A/09_calculator.jpg,4,9,2,1,4,2,3,8,0,30,,,,,,,,,,,,,,,,,,,,
,,,,,30,2020-07-03_13h51.58.836,retriever_ti,2020.1.3,MacIntel,60,Chrome,1440,900,,,,,,,,,,,,,,,,,3,,,,,,,,,,,,,,,,,,,,,,,,,,,1011.046695,207,left,0.8311,dress         ,4,7,-2,0,3,1011.06243,1011.06243,1013.564295,0,52,52,52,1,207,4,6,dress         ,calculator    ,html/resources/sequences_IDs/A/07_dress.jpg,html/resources/sequences_IDs/A/09_calculator.jpg,7,9,3,2,4,2,6,8,0,30,,,,,,,,,,,,,,,,,,,,
,,,,,30,2020-07-03_13h51.58.836,retriever_ti,2020.1.3,MacIntel,60,Chrome,1440,900,,,,,,,,,,,,,,,,,3,,,,,,,,,,,,,,,,,,,,,,,,,,,1014.17947,208,right,0.867585,seaturtle     ,2,2,-1,0,0,1014.2127,1014.2127,1016.69904,0,53,53,53,1,208,3,2,gloves      ,seaturtle     ,html/resources/sequences_IDs/B/06_gloves.jpg,html/resources/sequences_IDs/A/02_seaturtle.jpg,6,2,3,2,2,1,5,2,0,30,,,,,,,,,,,,,,,,,,,,
,,,,,30,2020-07-03_13h51.58.836,retriever_ti,2020.1.3,MacIntel,60,Chrome,1440,900,,,,,,,,,,,,,,,,,3,,,,,,,,,,,,,,,,,,,,,,,,,,,1017.80161,209,left,0.780035,slipper     ,7,8,6,1,3,1017.834015,1017.834015,1020.330115,0,54,54,54,1,209,7,1,slipper     ,redfox      ,html/resources/sequences_IDs/B/08_slipper.jpg,html/resources/sequences_IDs/B/01_redfox.jpg,8,1,3,2,1,1,7,1,0,30,,,,,,,,,,,,,,,,,,,,
,,,,,30,2020-07-03_13h51.58.836,retriever_ti,2020.1.3,MacIntel,60,Chrome,1440,900,,,,,,,,,,,,,,,,,3,,,,,,,,,,,,,,,,,,,,,,,,,,,1020.933065,210,left,0.777165,dress         ,4,7,-1,0,0,1020.94852,1020.94852,1023.449055,0,55,55,55,1,210,4,5,dress         ,holdfast    ,html/resources/sequences_IDs/A/07_dress.jpg,html/resources/sequences_IDs/B/04_holdfast.jpg,7,4,3,2,2,1,6,3,0,30,,,,,,,,,,,,,,,,,,,,
,,,,,30,2020-07-03_13h51.58.836,retriever_ti,2020.1.3,MacIntel,60,Chrome,1440,900,,,,,,,,,,,,,,,,,3,,,,,,,,,,,,,,,,,,,,,,,,,,,1024.55241,211,right,0.92988,peacock       ,8,5,2,1,3,1024.56627,1024.56627,1027.067735,0,56,56,56,1,211,6,8,calculator    ,peacock       ,html/resources/sequences_IDs/A/09_calculator.jpg,html/resources/sequences_IDs/A/05_peacock.jpg,9,5,4,2,2,1,8,4,0,30,,,,,,,,,,,,,,,,,,,,
,,,,,30,2020-07-03_13h51.58.836,retriever_ti,2020.1.3,MacIntel,60,Chrome,1440,900,,,,,,,,,,,,,,,,,3,,,,,,,,,,,,,,,,,,,,,,,,,,,1027.67126,212,left,0.821065,seaturtle     ,2,2,-5,0,3,1027.704885,1027.704885,1030.200385,0,57,57,57,1,212,2,7,seaturtle     ,slipper     ,html/resources/sequences_IDs/A/02_seaturtle.jpg,html/resources/sequences_IDs/B/08_slipper.jpg,2,8,2,1,3,2,2,7,0,30,,,,,,,,,,,,,,,,,,,,
,,,,,30,2020-07-03_13h51.58.836,retriever_ti,2020.1.3,MacIntel,60,Chrome,1440,900,,,,,,,,,,,,,,,,,3,,,,,,,,,,,,,,,,,,,,,,,,,,,1030.804475,213,left,0.687345,peacock       ,8,5,3,1,3,1030.838615,1030.838615,1033.33656,0,58,58,58,1,213,8,5,peacock       ,holdfast    ,html/resources/sequences_IDs/A/05_peacock.jpg,html/resources/sequences_IDs/B/04_holdfast.jpg,5,4,2,1,2,1,4,3,0,30,,,,,,,,,,,,,,,,,,,,
,,,,,30,2020-07-03_13h51.58.836,retriever_ti,2020.1.3,MacIntel,60,Chrome,1440,900,,,,,,,,,,,,,,,,,3,,,,,,,,,,,,,,,,,,,,,,,,,,,1033.954925,214,left,0.728455,peacock       ,8,5,2,1,3,1033.96976,1033.96976,1036.469895,0,59,59,59,1,214,8,6,peacock       ,calculator    ,html/resources/sequences_IDs/A/05_peacock.jpg,html/resources/sequences_IDs/A/09_calculator.jpg,5,9,2,1,4,2,4,8,0,30,,,,,,,,,,,,,,,,,,,,
,,,,,30,2020-07-03_13h51.58.836,retriever_ti,2020.1.3,MacIntel,60,Chrome,1440,900,,,,,,,,,,,,,,,,,3,,,,,,,,,,,,,,,,,,,,,,,,,,,1037.071185,215,right,0.608225,dress         ,4,7,-1,0,1,1037.088275,1037.088275,1039.589965,0,60,60,60,1,215,5,4,holdfast    ,dress         ,html/resources/sequences_IDs/B/04_holdfast.jpg,html/resources/sequences_IDs/A/07_dress.jpg,4,7,2,1,3,2,3,6,1,30,,,,,,,,,,,,,,,,,,,,
,,,,,30,2020-07-03_13h51.58.836,retriever_ti,2020.1.3,MacIntel,60,Chrome,1440,900,,,,,,,,,,,,,,,,,3,,,,,,,,,,,,,,,,,,,,,,,,,,,1040.691075,216,right,1.196535,calculator    ,6,9,1,1,1,1040.724375,1040.724375,1043.222915,0,61,61,61,1,216,5,6,holdfast    ,calculator    ,html/resources/sequences_IDs/B/04_holdfast.jpg,html/resources/sequences_IDs/A/09_calculator.jpg,4,9,2,1,4,2,3,8,0,30,,,,,,,,,,,,,,,,,,,,
,,,,,30,2020-07-03_13h51.58.836,retriever_ti,2020.1.3,MacIntel,60,Chrome,1440,900,,,,,,,,,,,,,,,,,3,,,,,,,,,,,,,,,,,,,,,,,,,,,1044.32615,217,left,0.673015,calculator    ,6,9,1,1,1,1044.35806,1044.35806,1046.85856,0,62,62,62,1,217,6,5,calculator    ,holdfast    ,html/resources/sequences_IDs/A/09_calculator.jpg,html/resources/sequences_IDs/B/04_holdfast.jpg,9,4,4,2,2,1,8,3,0,30,,,,,,,,,,,,,,,,,,,,
,,,,,30,2020-07-03_13h51.58.836,retriever_ti,2020.1.3,MacIntel,60,Chrome,1440,900,,,,,,,,,,,,,,,,,3,,,,,,,,,,,,,,,,,,,,,,,,,,,1047.95869,218,right,1.035575,gloves      ,3,6,1,1,0,1047.974505,1047.974505,1050.4772,0,63,63,63,1,218,2,3,seaturtle     ,gloves      ,html/resources/sequences_IDs/A/02_seaturtle.jpg,html/resources/sequences_IDs/B/06_gloves.jpg,2,6,2,1,3,2,2,5,1,30,,,,,,,,,,,,,,,,,,,,
,,,,,30,2020-07-03_13h51.58.836,retriever_ti,2020.1.3,MacIntel,60,Chrome,1440,900,,,,,,,,,,,,,,,,,3,,,,,,,,,,,,,,,,,,,,,,,,,,,1051.57894,219,left,0.640445,seaturtle     ,2,2,-1,0,0,1051.59296,1051.59296,1054.118255,0,64,64,64,1,219,2,3,seaturtle     ,gloves      ,html/resources/sequences_IDs/A/02_seaturtle.jpg,html/resources/sequences_IDs/B/06_gloves.jpg,2,6,2,1,3,2,2,5,0,30,,,,,,,,,,,,,,,,,,,,
,,,,,30,2020-07-03_13h51.58.836,retriever_ti,2020.1.3,MacIntel,60,Chrome,1440,900,,,,,,,,,,,,,,,,,3,,,,,,,,,,,,,,,,,,,,,,,,,,,1055.209025,220,right,0.924575,peacock       ,8,5,4,1,3,1055.24401,1055.24401,1057.74348,0,65,65,65,1,220,4,8,dress         ,peacock       ,html/resources/sequences_IDs/A/07_dress.jpg,html/resources/sequences_IDs/A/05_peacock.jpg,7,5,3,2,2,1,6,4,0,30,,,,,,,,,,,,,,,,,,,,
,,,,,30,2020-07-03_13h51.58.836,retriever_ti,2020.1.3,MacIntel,60,Chrome,1440,900,,,,,,,,,,,,,,,,,3,,,,,,,,,,,,,,,,,,,,,,,,,,,1058.34559,221,right,0.82674,holdfast    ,5,4,4,1,3,1058.37964,1058.37964,1060.879445,0,66,66,66,1,221,1,5,redfox      ,holdfast    ,html/resources/sequences_IDs/B/01_redfox.jpg,html/resources/sequences_IDs/B/04_holdfast.jpg,1,4,1,1,2,1,1,3,0,30,,,,,,,,,,,,,,,,,,,,
