instructionsLoop.thisRepN,instructionsLoop.thisTrialN,instructionsLoop.thisN,instructionsLoop.thisIndex,instructionsLoop.ran,participant,date,expName,psychopyVersion,OS,frameRate,browser,xResolution,yResolution,fix_onset,tprac,practiceKey.keys,practiceKey.rt,pracitem_chosen_name,acc_practice,P1_onsetPrac,P2_onsetPrac,onsetFeedbPrac,practiceTrials.thisRepN,practiceTrials.thisTrialN,practiceTrials.thisN,practiceTrials.thisIndex,practiceTrials.ran,P1,P2,Block,LocItem1,LocItem2,NameItem1,NameItem2,key_respAC_prac.keys,key_respAC_prac.corr,key_respAC_prac.rt,AC_acc,Attentions.thisRepN,Attentions.thisTrialN,Attentions.thisN,Attentions.thisIndex,Attentions.ran,Stim,Loc1,Loc2,Loc3,Loc4,CorrAns,keyDisturbed.keys,keyDisturbed.rt,repPractice.thisRepN,repPractice.thisTrialN,repPractice.thisN,repPractice.thisIndex,repPractice.ran,fixcross_onsetMain,trialNumber,key_resp.keys,key_resp.rt,item_chosen_name,item_chosen_value,item_chosen_ID,diff_chosen_minus_reject,acc_real,acc_feedback,P1_onset,P2_onset,feedb_onset,trials.thisRepN,trials.thisTrialN,trials.thisN,trials.thisIndex,trials.ran,Trial,ValueP1,ValueP2,P1name,P2name,P1Loc,P2Loc,P1id,P2id,Micro_categoryP1,Macro_categoryP1,Micro_categoryP2,Macro_categoryP2,ID_sequenceP1,ID_sequenceP2,InverseFb,pNumber,repBlocks.thisRepN,repBlocks.thisTrialN,repBlocks.thisN,repBlocks.thisIndex,repBlocks.ran,key_respAC.keys,key_respAC.corr,key_respAC.rt,trials_AC.thisRepN,trials_AC.thisTrialN,trials_AC.thisN,trials_AC.thisIndex,trials_AC.ran,Bonus,BonusLoop.thisRepN,BonusLoop.thisTrialN,BonusLoop.thisN,BonusLoop.thisIndex,BonusLoop.ran,comments
0,0,0,0,1,31,2020-07-03_15h37.06.323,retriever_ti,2020.1.3,Win32,60,Chrome,1536,864,,,,,,,,,,,,,,,,,,,,,,,,,,,,,,,,,,,,,,,,,,,,,,,,,,,,,,,,,,,,,,,,,,,,,,,,,,,,,,,,,,,,,,,,,,,,,,,,,,
1,0,1,0,1,31,2020-07-03_15h37.06.323,retriever_ti,2020.1.3,Win32,60,Chrome,1536,864,,,,,,,,,,,,,,,,,,,,,,,,,,,,,,,,,,,,,,,,,,,,,,,,,,,,,,,,,,,,,,,,,,,,,,,,,,,,,,,,,,,,,,,,,,,,,,,,,,
2,0,2,0,1,31,2020-07-03_15h37.06.323,retriever_ti,2020.1.3,Win32,60,Chrome,1536,864,,,,,,,,,,,,,,,,,,,,,,,,,,,,,,,,,,,,,,,,,,,,,,,,,,,,,,,,,,,,,,,,,,,,,,,,,,,,,,,,,,,,,,,,,,,,,,,,,,
3,0,3,0,1,31,2020-07-03_15h37.06.323,retriever_ti,2020.1.3,Win32,60,Chrome,1536,864,,,,,,,,,,,,,,,,,,,,,,,,,,,,,,,,,,,,,,,,,,,,,,,,,,,,,,,,,,,,,,,,,,,,,,,,,,,,,,,,,,,,,,,,,,,,,,,,,,
4,0,4,0,1,31,2020-07-03_15h37.06.323,retriever_ti,2020.1.3,Win32,60,Chrome,1536,864,,,,,,,,,,,,,,,,,,,,,,,,,,,,,,,,,,,,,,,,,,,,,,,,,,,,,,,,,,,,,,,,,,,,,,,,,,,,,,,,,,,,,,,,,,,,,,,,,,
5,0,5,0,1,31,2020-07-03_15h37.06.323,retriever_ti,2020.1.3,Win32,60,Chrome,1536,864,,,,,,,,,,,,,,,,,,,,,,,,,,,,,,,,,,,,,,,,,,,,,,,,,,,,,,,,,,,,,,,,,,,,,,,,,,,,,,,,,,,,,,,,,,,,,,,,,,
6,0,6,0,1,31,2020-07-03_15h37.06.323,retriever_ti,2020.1.3,Win32,60,Chrome,1536,864,,,,,,,,,,,,,,,,,,,,,,,,,,,,,,,,,,,,,,,,,,,,,,,,,,,,,,,,,,,,,,,,,,,,,,,,,,,,,,,,,,,,,,,,,,,,,,,,,,
7,0,7,0,1,31,2020-07-03_15h37.06.323,retriever_ti,2020.1.3,Win32,60,Chrome,1536,864,,,,,,,,,,,,,,,,,,,,,,,,,,,,,,,,,,,,,,,,,,,,,,,,,,,,,,,,,,,,,,,,,,,,,,,,,,,,,,,,,,,,,,,,,,,,,,,,,,
8,0,8,0,1,31,2020-07-03_15h37.06.323,retriever_ti,2020.1.3,Win32,60,Chrome,1536,864,,,,,,,,,,,,,,,,,,,,,,,,,,,,,,,,,,,,,,,,,,,,,,,,,,,,,,,,,,,,,,,,,,,,,,,,,,,,,,,,,,,,,,,,,,,,,,,,,,
9,0,9,0,1,31,2020-07-03_15h37.06.323,retriever_ti,2020.1.3,Win32,60,Chrome,1536,864,,,,,,,,,,,,,,,,,,,,,,,,,,,,,,,,,,,,,,,,,,,,,,,,,,,,,,,,,,,,,,,,,,,,,,,,,,,,,,,,,,,,,,,,,,,,,,,,,,
10,0,10,0,1,31,2020-07-03_15h37.06.323,retriever_ti,2020.1.3,Win32,60,Chrome,1536,864,,,,,,,,,,,,,,,,,,,,,,,,,,,,,,,,,,,,,,,,,,,,,,,,,,,,,,,,,,,,,,,,,,,,,,,,,,,,,,,,,,,,,,,,,,,,,,,,,,
11,0,11,0,1,31,2020-07-03_15h37.06.323,retriever_ti,2020.1.3,Win32,60,Chrome,1536,864,,,,,,,,,,,,,,,,,,,,,,,,,,,,,,,,,,,,,,,,,,,,,,,,,,,,,,,,,,,,,,,,,,,,,,,,,,,,,,,,,,,,,,,,,,,,,,,,,,
12,0,12,0,1,31,2020-07-03_15h37.06.323,retriever_ti,2020.1.3,Win32,60,Chrome,1536,864,,,,,,,,,,,,,,,,,,,,,,,,,,,,,,,,,,,,,,,,,,,,,,,,,,,,,,,,,,,,,,,,,,,,,,,,,,,,,,,,,,,,,,,,,,,,,,,,,,
13,0,13,0,1,31,2020-07-03_15h37.06.323,retriever_ti,2020.1.3,Win32,60,Chrome,1536,864,,,,,,,,,,,,,,,,,,,,,,,,,,,,,,,,,,,,,,,,,,,,,,,,,,,,,,,,,,,,,,,,,,,,,,,,,,,,,,,,,,,,,,,,,,,,,,,,,,
14,0,14,0,1,31,2020-07-03_15h37.06.323,retriever_ti,2020.1.3,Win32,60,Chrome,1536,864,,,,,,,,,,,,,,,,,,,,,,,,,,,,,,,,,,,,,,,,,,,,,,,,,,,,,,,,,,,,,,,,,,,,,,,,,,,,,,,,,,,,,,,,,,,,,,,,,,
,,,,,31,2020-07-03_15h37.06.323,retriever_ti,2020.1.3,Win32,60,Chrome,1536,864,247.4872,1,NaN,NaN,No_response,2,247.50763,247.50763,250.00516,0,0,0,0,1,2,5,1,html/resources/stimuli_practice_decision/04_beetle.jpg,html/resources/stimuli_practice_decision/02_canary.jpg,beetle,canary,,,,,,,,,,,,,,,,,,,,,,,,,,,,,,,,,,,,,,,,,,,,,,,,,,,,,,,,,,,,,,,,,,,,,,,,,,,,,
,,,,,31,2020-07-03_15h37.06.323,retriever_ti,2020.1.3,Win32,60,Chrome,1536,864,250.61605,2,left,1.05524,rabbit,1,250.67556,250.67556,253.172095,0,1,1,1,1,4,3,1,html/resources/stimuli_practice_decision/01_rabbit.jpg,html/resources/stimuli_practice_decision/07_sock.jpg,rabbit,sock,,,,,,,,,,,,,,,,,,,,,,,,,,,,,,,,,,,,,,,,,,,,,,,,,,,,,,,,,,,,,,,,,,,,,,,,,,,,,
,,,,,31,2020-07-03_15h37.06.323,retriever_ti,2020.1.3,Win32,60,Chrome,1536,864,254.172345,3,left,1.809355,pullover,1,254.191445,254.191445,256.688745,0,2,2,2,1,6,2,1,html/resources/stimuli_practice_decision/06_pullover.jpg,html/resources/stimuli_practice_decision/04_beetle.jpg,pullover,beetle,,,,,,,,,,,,,,,,,,,,,,,,,,,,,,,,,,,,,,,,,,,,,,,,,,,,,,,,,,,,,,,,,,,,,,,,,,,,,
,,,,,31,2020-07-03_15h37.06.323,retriever_ti,2020.1.3,Win32,60,Chrome,1536,864,257.207025,4,left,1.86702,glasses,1,257.24232,257.24232,259.738825,0,3,3,3,1,7,1,1,html/resources/stimuli_practice_decision/05_glasses.jpg,html/resources/stimuli_practice_decision/08_handmixer.jpg,glasses,handmixer,,,,,,,,,,,,,,,,,,,,,,,,,,,,,,,,,,,,,,,,,,,,,,,,,,,,,,,,,,,,,,,,,,,,,,,,,,,,,
,,,,,31,2020-07-03_15h37.06.323,retriever_ti,2020.1.3,Win32,60,Chrome,1536,864,260.256705,5,right,1.481615,pullover,0,260.275905,260.275905,262.772365,0,4,4,4,1,7,6,1,html/resources/stimuli_practice_decision/05_glasses.jpg,html/resources/stimuli_practice_decision/06_pullover.jpg,glasses,pullover,,,,,,,,,,,,,,,,,,,,,,,,,,,,,,,,,,,,,,,,,,,,,,,,,,,,,,,,,,,,,,,,,,,,,,,,,,,,,
,,,,,31,2020-07-03_15h37.06.323,retriever_ti,2020.1.3,Win32,60,Chrome,1536,864,263.774155,6,left,1.055835,rabbit,0,263.79214,263.79214,266.28858,0,5,5,5,1,4,7,1,html/resources/stimuli_practice_decision/01_rabbit.jpg,html/resources/stimuli_practice_decision/05_glasses.jpg,rabbit,glasses,,,,,,,,,,,,,,,,,,,,,,,,,,,,,,,,,,,,,,,,,,,,,,,,,,,,,,,,,,,,,,,,,,,,,,,,,,,,,
,,,,,31,2020-07-03_15h37.06.323,retriever_ti,2020.1.3,Win32,60,Chrome,1536,864,266.78997,7,right,1.29114,beetle,1,266.80913,266.80913,269.30538,0,6,6,6,1,1,2,1,html/resources/stimuli_practice_decision/08_handmixer.jpg,html/resources/stimuli_practice_decision/04_beetle.jpg,handmixer,beetle,,,,,,,,,,,,,,,,,,,,,,,,,,,,,,,,,,,,,,,,,,,,,,,,,,,,,,,,,,,,,,,,,,,,,,,,,,,,,
,,,,,31,2020-07-03_15h37.06.323,retriever_ti,2020.1.3,Win32,60,Chrome,1536,864,270.30791,8,left,1.39453,rabbit,1,270.34299,270.34299,272.839655,0,7,7,7,1,4,3,1,html/resources/stimuli_practice_decision/01_rabbit.jpg,html/resources/stimuli_practice_decision/07_sock.jpg,rabbit,sock,,,,,,,,,,,,,,,,,,,,,,,,,,,,,,,,,,,,,,,,,,,,,,,,,,,,,,,,,,,,,,,,,,,,,,,,,,,,,
,,,,,31,2020-07-03_15h37.06.323,retriever_ti,2020.1.3,Win32,60,Chrome,1536,864,,,,,,,,,,,,,,,,,,,,,,down,1,3.1939,1,0,0,0,3,1,html/resources/sequences_IDs/triangle.png,star ↑,square →,triangle ↓,← circle,down,,,,,,,,,,,,,,,,,,,,,,,,,,,,,,,,,,,,,,,,,,,,,,,,,,,,,,,,,,,,,,
,,,,,31,2020-07-03_15h37.06.323,retriever_ti,2020.1.3,Win32,60,Chrome,1536,864,,,,,,,,,,,,,,,,,,,,,,up,1,4.288145,1,0,1,1,0,1,html/resources/sequences_IDs/circle.png,circle ↑,square →,triangle ↓,← star ,up,,,,,,,,,,,,,,,,,,,,,,,,,,,,,,,,,,,,,,,,,,,,,,,,,,,,,,,,,,,,,,
,,,,,31,2020-07-03_15h37.06.323,retriever_ti,2020.1.3,Win32,60,Chrome,1536,864,,,,,,,,,,,,,,,,,,,,,,down,1,2.25108,1,0,2,2,1,1,html/resources/sequences_IDs/star.png,square ↑,circle →,star ↓,← triangle,down,,,,,,,,,,,,,,,,,,,,,,,,,,,,,,,,,,,,,,,,,,,,,,,,,,,,,,,,,,,,,,
,,,,,31,2020-07-03_15h37.06.323,retriever_ti,2020.1.3,Win32,60,Chrome,1536,864,,,,,,,,,,,,,,,,,,,,,,left,1,1.633495,1,0,3,3,2,1,html/resources/sequences_IDs/square1.png,star ↑,triangle →,circle ↓,← square,left,,,,,,,,,,,,,,,,,,,,,,,,,,,,,,,,,,,,,,,,,,,,,,,,,,,,,,,,,,,,,,
,,,,,31,2020-07-03_15h37.06.323,retriever_ti,2020.1.3,Win32,60,Chrome,1536,864,,,,,,,,,,,,,,,,,,,,,,,,,,,,,,,,,,,,,0,20.27267,0,0,0,0,1,,,,,,,,,,,,,,,,,,,,,,,,,,,,,,,,,,,,,,,,,,,,,,,,,,,,,,,
,,,,,31,2020-07-03_15h37.06.323,retriever_ti,2020.1.3,Win32,60,Chrome,1536,864,310.492125,9,left,1.20893,pullover,0,310.509935,310.509935,313.00974,0,0,0,0,1,6,7,1,html/resources/stimuli_practice_decision/06_pullover.jpg,html/resources/stimuli_practice_decision/05_glasses.jpg,pullover,glasses,,,,,,,,,,,,,,,,,,,,,,,,,,,,,,,,,,,,,,,,,,,,,,,,,,,,,,,,,,,,,,,,,,,,,,,,,,,,,
,,,,,31,2020-07-03_15h37.06.323,retriever_ti,2020.1.3,Win32,60,Chrome,1536,864,314.01049,10,right,0.825185,beetle,0,314.04655,314.04655,316.54182,0,1,1,1,1,6,2,1,html/resources/stimuli_practice_decision/06_pullover.jpg,html/resources/stimuli_practice_decision/04_beetle.jpg,pullover,beetle,,,,,,,,,,,,,,,,,,,,,,,,,,,,,,,,,,,,,,,,,,,,,,,,,,,,,,,,,,,,,,,,,,,,,,,,,,,,,
,,,,,31,2020-07-03_15h37.06.323,retriever_ti,2020.1.3,Win32,60,Chrome,1536,864,317.04511,11,left,1.20284,canary,0,317.080545,317.080545,319.574845,0,2,2,2,1,5,6,1,html/resources/stimuli_practice_decision/02_canary.jpg,html/resources/stimuli_practice_decision/06_pullover.jpg,canary,pullover,,,,,,,,,,,,,,,,,,,,,,,,,,,,,,,,,,,,,,,,,,,,,,,,,,,,,,,,,,,,,,,,,,,,,,,,,,,,,
,,,,,31,2020-07-03_15h37.06.323,retriever_ti,2020.1.3,Win32,60,Chrome,1536,864,320.576265,12,left,2.22222,squirrel,1,320.595635,320.595635,323.0918,0,3,3,3,1,8,7,1,html/resources/stimuli_practice_decision/03_squirrel.jpg,html/resources/stimuli_practice_decision/05_glasses.jpg,squirrel,glasses,,,,,,,,,,,,,,,,,,,,,,,,,,,,,,,,,,,,,,,,,,,,,,,,,,,,,,,,,,,,,,,,,,,,,,,,,,,,,
,,,,,31,2020-07-03_15h37.06.323,retriever_ti,2020.1.3,Win32,60,Chrome,1536,864,324.094015,13,left,1.468985,canary,1,324.11229,324.11229,326.60909,0,4,4,4,1,5,3,1,html/resources/stimuli_practice_decision/02_canary.jpg,html/resources/stimuli_practice_decision/07_sock.jpg,canary,sock,,,,,,,,,,,,,,,,,,,,,,,,,,,,,,,,,,,,,,,,,,,,,,,,,,,,,,,,,,,,,,,,,,,,,,,,,,,,,
,,,,,31,2020-07-03_15h37.06.323,retriever_ti,2020.1.3,Win32,60,Chrome,1536,864,327.11228,14,right,1.59974,squirrel,1,327.147945,327.147945,329.642805,0,5,5,5,1,7,8,1,html/resources/stimuli_practice_decision/05_glasses.jpg,html/resources/stimuli_practice_decision/03_squirrel.jpg,glasses,squirrel,,,,,,,,,,,,,,,,,,,,,,,,,,,,,,,,,,,,,,,,,,,,,,,,,,,,,,,,,,,,,,,,,,,,,,,,,,,,,
,,,,,31,2020-07-03_15h37.06.323,retriever_ti,2020.1.3,Win32,60,Chrome,1536,864,330.642325,15,right,1.154065,rabbit,0,330.660705,330.660705,333.159365,0,6,6,6,1,5,4,1,html/resources/stimuli_practice_decision/02_canary.jpg,html/resources/stimuli_practice_decision/01_rabbit.jpg,canary,rabbit,,,,,,,,,,,,,,,,,,,,,,,,,,,,,,,,,,,,,,,,,,,,,,,,,,,,,,,,,,,,,,,,,,,,,,,,,,,,,
,,,,,31,2020-07-03_15h37.06.323,retriever_ti,2020.1.3,Win32,60,Chrome,1536,864,334.16094,16,left,1.468015,canary,1,334.19574,334.19574,336.693095,0,7,7,7,1,5,3,1,html/resources/stimuli_practice_decision/02_canary.jpg,html/resources/stimuli_practice_decision/07_sock.jpg,canary,sock,,,,,,,,,,,,,,,,,,,,,,,,,,,,,,,,,,,,,,,,,,,,,,,,,,,,,,,,,,,,,,,,,,,,,,,,,,,,,
,,,,,31,2020-07-03_15h37.06.323,retriever_ti,2020.1.3,Win32,60,Chrome,1536,864,,,,,,,,,,,,,,,,,,,,,,left,1,1.7507,1,0,0,0,2,1,html/resources/sequences_IDs/square1.png,star ↑,triangle →,circle ↓,← square,left,,,,,,,,,,,,,,,,,,,,,,,,,,,,,,,,,,,,,,,,,,,,,,,,,,,,,,,,,,,,,,
,,,,,31,2020-07-03_15h37.06.323,retriever_ti,2020.1.3,Win32,60,Chrome,1536,864,,,,,,,,,,,,,,,,,,,,,,up,1,1.232725,1,0,1,1,0,1,html/resources/sequences_IDs/circle.png,circle ↑,square →,triangle ↓,← star ,up,,,,,,,,,,,,,,,,,,,,,,,,,,,,,,,,,,,,,,,,,,,,,,,,,,,,,,,,,,,,,,
,,,,,31,2020-07-03_15h37.06.323,retriever_ti,2020.1.3,Win32,60,Chrome,1536,864,,,,,,,,,,,,,,,,,,,,,,down,1,1.177865,1,0,2,2,3,1,html/resources/sequences_IDs/triangle.png,star ↑,square →,triangle ↓,← circle,down,,,,,,,,,,,,,,,,,,,,,,,,,,,,,,,,,,,,,,,,,,,,,,,,,,,,,,,,,,,,,,
,,,,,31,2020-07-03_15h37.06.323,retriever_ti,2020.1.3,Win32,60,Chrome,1536,864,,,,,,,,,,,,,,,,,,,,,,down,1,1.264775,1,0,3,3,1,1,html/resources/sequences_IDs/star.png,square ↑,circle →,star ↓,← triangle,down,,,,,,,,,,,,,,,,,,,,,,,,,,,,,,,,,,,,,,,,,,,,,,,,,,,,,,,,,,,,,,
,,,,,31,2020-07-03_15h37.06.323,retriever_ti,2020.1.3,Win32,60,Chrome,1536,864,,,,,,,,,,,,,,,,,,,,,,,,,,,,,,,,,,,,,0,2.8268,1,0,1,0,1,,,,,,,,,,,,,,,,,,,,,,,,,,,,,,,,,,,,,,,,,,,,,,,,,,,,,,,
,,,,,31,2020-07-03_15h37.06.323,retriever_ti,2020.1.3,Win32,60,Chrome,1536,864,,,,,,,,,,,,,,,,,1,,,,,,,,,,,,,,,,,,,,,,,,,,,354.436905,1,right,1.25847,satellite_dish,1,10,-1,0,0,354.48001,354.48001,356.977545,0,0,0,0,1,1,2,1,phone       ,satellite_dish,html/resources/sequences_IDs/B/09_phone.jpg,html/resources/sequences_IDs/A/10_satellite_dish.jpg,9,10,4,2,4,2,7,8,0,31,,,,,,,,,,,,,,,,,,,,
,,,,,31,2020-07-03_15h37.06.323,retriever_ti,2020.1.3,Win32,60,Chrome,1536,864,,,,,,,,,,,,,,,,,1,,,,,,,,,,,,,,,,,,,,,,,,,,,358.07897,2,left,0.96798,dolphin     ,8,2,1,1,1,358.098785,358.098785,360.594375,0,1,1,1,1,2,8,7,dolphin     ,camel         ,html/resources/sequences_IDs/B/02_dolphin.jpg,html/resources/sequences_IDs/A/03_camel.jpg,2,3,1,1,1,1,1,2,0,31,,,,,,,,,,,,,,,,,,,,
,,,,,31,2020-07-03_15h37.06.323,retriever_ti,2020.1.3,Win32,60,Chrome,1536,864,,,,,,,,,,,,,,,,,1,,,,,,,,,,,,,,,,,,,,,,,,,,,361.6984,3,left,1.326335,sport_tshirt,6,7,1,1,1,361.71706,361.71706,364.21038,0,2,2,2,1,3,6,5,sport_tshirt,hat           ,html/resources/sequences_IDs/B/07_sport_tshirt.jpg,html/resources/sequences_IDs/A/08_hat.jpg,7,8,3,2,3,2,5,6,0,31,,,,,,,,,,,,,,,,,,,,
,,,,,31,2020-07-03_15h37.06.323,retriever_ti,2020.1.3,Win32,60,Chrome,1536,864,,,,,,,,,,,,,,,,,1,,,,,,,,,,,,,,,,,,,,,,,,,,,365.313035,4,left,1.19966,dolphin     ,8,2,4,1,3,365.348145,365.348145,367.84645,0,3,3,3,1,4,8,4,dolphin     ,holdfast    ,html/resources/sequences_IDs/B/02_dolphin.jpg,html/resources/sequences_IDs/B/04_holdfast.jpg,2,4,1,1,2,1,1,3,0,31,,,,,,,,,,,,,,,,,,,,
,,,,,31,2020-07-03_15h37.06.323,retriever_ti,2020.1.3,Win32,60,Chrome,1536,864,,,,,,,,,,,,,,,,,1,,,,,,,,,,,,,,,,,,,,,,,,,,,368.463325,5,left,1.146625,camel         ,7,3,1,1,0,368.499895,368.499895,370.99451,0,4,4,4,1,5,7,6,camel         ,sport_tshirt,html/resources/sequences_IDs/A/03_camel.jpg,html/resources/sequences_IDs/B/07_sport_tshirt.jpg,3,7,1,1,3,2,2,5,1,31,,,,,,,,,,,,,,,,,,,,
,,,,,31,2020-07-03_15h37.06.323,retriever_ti,2020.1.3,Win32,60,Chrome,1536,864,,,,,,,,,,,,,,,,,1,,,,,,,,,,,,,,,,,,,,,,,,,,,372.09694,6,right,0.966135,dolphin     ,8,2,1,1,1,372.13308,372.13308,374.628265,0,5,5,5,1,6,7,8,camel         ,dolphin     ,html/resources/sequences_IDs/A/03_camel.jpg,html/resources/sequences_IDs/B/02_dolphin.jpg,3,2,1,1,1,1,2,1,0,31,,,,,,,,,,,,,,,,,,,,
,,,,,31,2020-07-03_15h37.06.323,retriever_ti,2020.1.3,Win32,60,Chrome,1536,864,,,,,,,,,,,,,,,,,1,,,,,,,,,,,,,,,,,,,,,,,,,,,375.730095,7,right,1.295655,dolphin     ,8,2,4,1,3,375.748235,375.748235,378.24485,0,6,6,6,1,7,4,8,holdfast    ,dolphin     ,html/resources/sequences_IDs/B/04_holdfast.jpg,html/resources/sequences_IDs/B/02_dolphin.jpg,4,2,2,1,1,1,3,1,0,31,,,,,,,,,,,,,,,,,,,,
,,,,,31,2020-07-03_15h37.06.323,retriever_ti,2020.1.3,Win32,60,Chrome,1536,864,,,,,,,,,,,,,,,,,1,,,,,,,,,,,,,,,,,,,,,,,,,,,378.84726,8,right,1.321165,peacock       ,3,5,2,1,3,378.86492,378.86492,381.36159,0,7,7,7,1,8,1,3,satellite_dish,peacock       ,html/resources/sequences_IDs/A/10_satellite_dish.jpg,html/resources/sequences_IDs/A/05_peacock.jpg,10,5,4,2,2,1,8,4,0,31,,,,,,,,,,,,,,,,,,,,
,,,,,31,2020-07-03_15h37.06.323,retriever_ti,2020.1.3,Win32,60,Chrome,1536,864,,,,,,,,,,,,,,,,,1,,,,,,,,,,,,,,,,,,,,,,,,,,,381.96332,9,left,1.279755,camel         ,7,3,2,1,3,381.982525,381.982525,384.47882,0,8,8,8,1,9,7,5,camel         ,hat           ,html/resources/sequences_IDs/A/03_camel.jpg,html/resources/sequences_IDs/A/08_hat.jpg,3,8,1,1,3,2,2,6,0,31,,,,,,,,,,,,,,,,,,,,
,,,,,31,2020-07-03_15h37.06.323,retriever_ti,2020.1.3,Win32,60,Chrome,1536,864,,,,,,,,,,,,,,,,,1,,,,,,,,,,,,,,,,,,,,,,,,,,,385.097305,10,left,1.57897,sport_tshirt,6,7,-1,0,0,385.115845,385.115845,387.611765,0,9,9,9,1,10,6,7,sport_tshirt,camel         ,html/resources/sequences_IDs/B/07_sport_tshirt.jpg,html/resources/sequences_IDs/A/03_camel.jpg,7,3,3,2,1,1,5,2,0,31,,,,,,,,,,,,,,,,,,,,
,,,,,31,2020-07-03_15h37.06.323,retriever_ti,2020.1.3,Win32,60,Chrome,1536,864,,,,,,,,,,,,,,,,,1,,,,,,,,,,,,,,,,,,,,,,,,,,,388.71292,11,right,1.165975,dolphin     ,8,2,1,1,1,388.747575,388.747575,391.24558,0,10,10,10,1,11,7,8,camel         ,dolphin     ,html/resources/sequences_IDs/A/03_camel.jpg,html/resources/sequences_IDs/B/02_dolphin.jpg,3,2,1,1,1,1,2,1,0,31,,,,,,,,,,,,,,,,,,,,
,,,,,31,2020-07-03_15h37.06.323,retriever_ti,2020.1.3,Win32,60,Chrome,1536,864,,,,,,,,,,,,,,,,,1,,,,,,,,,,,,,,,,,,,,,,,,,,,392.346735,12,left,1.613335,camel         ,7,3,3,1,3,392.38223,392.38223,394.878825,0,11,11,11,1,12,7,4,camel         ,holdfast    ,html/resources/sequences_IDs/A/03_camel.jpg,html/resources/sequences_IDs/B/04_holdfast.jpg,3,4,1,1,2,1,2,3,0,31,,,,,,,,,,,,,,,,,,,,
,,,,,31,2020-07-03_15h37.06.323,retriever_ti,2020.1.3,Win32,60,Chrome,1536,864,,,,,,,,,,,,,,,,,1,,,,,,,,,,,,,,,,,,,,,,,,,,,395.48151,13,left,1.268975,hat           ,5,8,-1,0,0,395.51638,395.51638,398.012965,0,12,12,12,1,13,5,6,hat           ,sport_tshirt,html/resources/sequences_IDs/A/08_hat.jpg,html/resources/sequences_IDs/B/07_sport_tshirt.jpg,8,7,3,2,3,2,6,5,0,31,,,,,,,,,,,,,,,,,,,,
,,,,,31,2020-07-03_15h37.06.323,retriever_ti,2020.1.3,Win32,60,Chrome,1536,864,,,,,,,,,,,,,,,,,1,,,,,,,,,,,,,,,,,,,,,,,,,,,399.11627,14,left,0.756485,peacock       ,3,5,-2,0,3,399.134865,399.134865,401.629125,0,13,13,13,1,14,3,5,peacock       ,hat           ,html/resources/sequences_IDs/A/05_peacock.jpg,html/resources/sequences_IDs/A/08_hat.jpg,5,8,2,1,3,2,4,6,0,31,,,,,,,,,,,,,,,,,,,,
,,,,,31,2020-07-03_15h37.06.323,retriever_ti,2020.1.3,Win32,60,Chrome,1536,864,,,,,,,,,,,,,,,,,1,,,,,,,,,,,,,,,,,,,,,,,,,,,402.24652,15,right,0.892705,peacock       ,3,5,-1,0,0,402.264735,402.264735,404.763035,0,14,14,14,1,15,4,3,holdfast    ,peacock       ,html/resources/sequences_IDs/B/04_holdfast.jpg,html/resources/sequences_IDs/A/05_peacock.jpg,4,5,2,1,2,1,3,4,0,31,,,,,,,,,,,,,,,,,,,,
,,,,,31,2020-07-03_15h37.06.323,retriever_ti,2020.1.3,Win32,60,Chrome,1536,864,,,,,,,,,,,,,,,,,1,,,,,,,,,,,,,,,,,,,,,,,,,,,405.866515,16,right,1.116295,camel         ,7,3,3,1,3,405.884545,405.884545,408.38001,0,15,15,15,1,16,4,7,holdfast    ,camel         ,html/resources/sequences_IDs/B/04_holdfast.jpg,html/resources/sequences_IDs/A/03_camel.jpg,4,3,2,1,1,1,3,2,0,31,,,,,,,,,,,,,,,,,,,,
,,,,,31,2020-07-03_15h37.06.323,retriever_ti,2020.1.3,Win32,60,Chrome,1536,864,,,,,,,,,,,,,,,,,1,,,,,,,,,,,,,,,,,,,,,,,,,,,408.98318,17,right,0.942595,camel         ,7,3,2,1,3,409.00183,409.00183,411.49638,0,16,16,16,1,17,5,7,hat           ,camel         ,html/resources/sequences_IDs/A/08_hat.jpg,html/resources/sequences_IDs/A/03_camel.jpg,8,3,3,2,1,1,6,2,0,31,,,,,,,,,,,,,,,,,,,,
,,,,,31,2020-07-03_15h37.06.323,retriever_ti,2020.1.3,Win32,60,Chrome,1536,864,,,,,,,,,,,,,,,,,1,,,,,,,,,,,,,,,,,,,,,,,,,,,412.10394,18,left,1.179125,satellite_dish,1,10,-5,0,3,412.12059,412.12059,414.606115,0,17,17,17,1,18,1,6,satellite_dish,sport_tshirt,html/resources/sequences_IDs/A/10_satellite_dish.jpg,html/resources/sequences_IDs/B/07_sport_tshirt.jpg,10,7,4,2,3,2,8,5,0,31,,,,,,,,,,,,,,,,,,,,
,,,,,31,2020-07-03_15h37.06.323,retriever_ti,2020.1.3,Win32,60,Chrome,1536,864,,,,,,,,,,,,,,,,,1,,,,,,,,,,,,,,,,,,,,,,,,,,,415.227575,19,left,1.244035,holdfast    ,4,4,-1,0,0,415.238265,415.238265,417.730835,0,18,18,18,1,19,4,5,holdfast    ,hat           ,html/resources/sequences_IDs/B/04_holdfast.jpg,html/resources/sequences_IDs/A/08_hat.jpg,4,8,2,1,3,2,3,6,0,31,,,,,,,,,,,,,,,,,,,,
,,,,,31,2020-07-03_15h37.06.323,retriever_ti,2020.1.3,Win32,60,Chrome,1536,864,,,,,,,,,,,,,,,,,1,,,,,,,,,,,,,,,,,,,,,,,,,,,418.83399,20,left,0.748555,peacock       ,3,5,-1,0,0,418.85269,418.85269,421.347295,0,19,19,19,1,20,3,4,peacock       ,holdfast    ,html/resources/sequences_IDs/A/05_peacock.jpg,html/resources/sequences_IDs/B/04_holdfast.jpg,5,4,2,1,2,1,4,3,0,31,,,,,,,,,,,,,,,,,,,,
,,,,,31,2020-07-03_15h37.06.323,retriever_ti,2020.1.3,Win32,60,Chrome,1536,864,,,,,,,,,,,,,,,,,1,,,,,,,,,,,,,,,,,,,,,,,,,,,422.44833,21,right,0.88852,dolphin     ,8,2,7,1,3,422.48411,422.48411,424.9804,0,20,20,20,1,21,1,8,satellite_dish,dolphin     ,html/resources/sequences_IDs/A/10_satellite_dish.jpg,html/resources/sequences_IDs/B/02_dolphin.jpg,10,2,4,2,1,1,8,1,0,31,,,,,,,,,,,,,,,,,,,,
,,,,,31,2020-07-03_15h37.06.323,retriever_ti,2020.1.3,Win32,60,Chrome,1536,864,,,,,,,,,,,,,,,,,1,,,,,,,,,,,,,,,,,,,,,,,,,,,425.58319,22,right,0.76258,peacock       ,3,5,-2,0,3,425.601095,425.601095,428.097935,0,21,21,21,1,22,5,3,hat           ,peacock       ,html/resources/sequences_IDs/A/08_hat.jpg,html/resources/sequences_IDs/A/05_peacock.jpg,8,5,3,2,2,1,6,4,0,31,,,,,,,,,,,,,,,,,,,,
,,,,,31,2020-07-03_15h37.06.323,retriever_ti,2020.1.3,Win32,60,Chrome,1536,864,,,,,,,,,,,,,,,,,1,,,,,,,,,,,,,,,,,,,,,,,,,,,428.699925,23,right,1.090435,camel         ,7,3,4,1,3,428.72105,428.72105,431.21418,0,22,22,22,1,23,3,7,peacock       ,camel         ,html/resources/sequences_IDs/A/05_peacock.jpg,html/resources/sequences_IDs/A/03_camel.jpg,5,3,2,1,1,1,4,2,0,31,,,,,,,,,,,,,,,,,,,,
,,,,,31,2020-07-03_15h37.06.323,retriever_ti,2020.1.3,Win32,60,Chrome,1536,864,,,,,,,,,,,,,,,,,1,,,,,,,,,,,,,,,,,,,,,,,,,,,431.831875,24,right,0.95136,phone       ,2,9,-2,0,3,431.849665,431.849665,434.34751,0,23,23,23,1,24,4,2,holdfast    ,phone       ,html/resources/sequences_IDs/B/04_holdfast.jpg,html/resources/sequences_IDs/B/09_phone.jpg,4,9,2,1,4,2,3,7,0,31,,,,,,,,,,,,,,,,,,,,
,,,,,31,2020-07-03_15h37.06.323,retriever_ti,2020.1.3,Win32,60,Chrome,1536,864,,,,,,,,,,,,,,,,,1,,,,,,,,,,,,,,,,,,,,,,,,,,,434.95138,25,left,0.769805,peacock       ,3,5,1,1,1,434.986765,434.986765,437.48215,0,24,24,24,1,25,3,2,peacock       ,phone       ,html/resources/sequences_IDs/A/05_peacock.jpg,html/resources/sequences_IDs/B/09_phone.jpg,5,9,2,1,4,2,4,7,0,31,,,,,,,,,,,,,,,,,,,,
,,,,,31,2020-07-03_15h37.06.323,retriever_ti,2020.1.3,Win32,60,Chrome,1536,864,,,,,,,,,,,,,,,,,1,,,,,,,,,,,,,,,,,,,,,,,,,,,438.58307,26,right,0.86793,phone       ,2,9,1,1,1,438.61796,438.61796,441.114775,0,25,25,25,1,26,1,2,satellite_dish,phone       ,html/resources/sequences_IDs/A/10_satellite_dish.jpg,html/resources/sequences_IDs/B/09_phone.jpg,10,9,4,2,4,2,8,7,0,31,,,,,,,,,,,,,,,,,,,,
,,,,,31,2020-07-03_15h37.06.323,retriever_ti,2020.1.3,Win32,60,Chrome,1536,864,,,,,,,,,,,,,,,,,1,,,,,,,,,,,,,,,,,,,,,,,,,,,442.218195,27,right,1.120805,hat           ,5,8,1,1,0,442.255335,442.255335,444.748125,0,26,26,26,1,27,4,5,holdfast    ,hat           ,html/resources/sequences_IDs/B/04_holdfast.jpg,html/resources/sequences_IDs/A/08_hat.jpg,4,8,2,1,3,2,3,6,1,31,,,,,,,,,,,,,,,,,,,,
,,,,,31,2020-07-03_15h37.06.323,retriever_ti,2020.1.3,Win32,60,Chrome,1536,864,,,,,,,,,,,,,,,,,1,,,,,,,,,,,,,,,,,,,,,,,,,,,445.850445,28,right,1.174365,phone       ,2,9,-3,0,3,445.86844,445.86844,448.36574,0,27,27,27,1,28,5,2,hat           ,phone       ,html/resources/sequences_IDs/A/08_hat.jpg,html/resources/sequences_IDs/B/09_phone.jpg,8,9,3,2,4,2,6,7,0,31,,,,,,,,,,,,,,,,,,,,
,,,,,31,2020-07-03_15h37.06.323,retriever_ti,2020.1.3,Win32,60,Chrome,1536,864,,,,,,,,,,,,,,,,,1,,,,,,,,,,,,,,,,,,,,,,,,,,,448.96987,29,left,0.867895,dolphin     ,8,2,1,1,1,449.004125,449.004125,451.499055,0,28,28,28,1,29,8,7,dolphin     ,camel         ,html/resources/sequences_IDs/B/02_dolphin.jpg,html/resources/sequences_IDs/A/03_camel.jpg,2,3,1,1,1,1,1,2,0,31,,,,,,,,,,,,,,,,,,,,
,,,,,31,2020-07-03_15h37.06.323,retriever_ti,2020.1.3,Win32,60,Chrome,1536,864,,,,,,,,,,,,,,,,,1,,,,,,,,,,,,,,,,,,,,,,,,,,,452.600705,30,right,1.05207,hat           ,5,8,4,1,3,452.618935,452.618935,455.115335,0,29,29,29,1,30,1,5,satellite_dish,hat           ,html/resources/sequences_IDs/A/10_satellite_dish.jpg,html/resources/sequences_IDs/A/08_hat.jpg,10,8,4,2,3,2,8,6,0,31,,,,,,,,,,,,,,,,,,,,
,,,,,31,2020-07-03_15h37.06.323,retriever_ti,2020.1.3,Win32,60,Chrome,1536,864,,,,,,,,,,,,,,,,,1,,,,,,,,,,,,,,,,,,,,,,,,,,,455.71805,31,right,1.382985,peacock       ,3,5,-1,0,1,455.752635,455.752635,458.24897,0,30,30,30,1,31,4,3,holdfast    ,peacock       ,html/resources/sequences_IDs/B/04_holdfast.jpg,html/resources/sequences_IDs/A/05_peacock.jpg,4,5,2,1,2,1,3,4,1,31,,,,,,,,,,,,,,,,,,,,
,,,,,31,2020-07-03_15h37.06.323,retriever_ti,2020.1.3,Win32,60,Chrome,1536,864,,,,,,,,,,,,,,,,,1,,,,,,,,,,,,,,,,,,,,,,,,,,,459.350095,32,left,0.808815,dolphin     ,8,2,5,1,3,459.38488,459.38488,461.88292,0,31,31,31,1,32,8,3,dolphin     ,peacock       ,html/resources/sequences_IDs/B/02_dolphin.jpg,html/resources/sequences_IDs/A/05_peacock.jpg,2,5,1,1,2,1,1,4,0,31,,,,,,,,,,,,,,,,,,,,
,,,,,31,2020-07-03_15h37.06.323,retriever_ti,2020.1.3,Win32,60,Chrome,1536,864,,,,,,,,,,,,,,,,,1,,,,,,,,,,,,,,,,,,,,,,,,,,,462.48508,33,right,0.73303,peacock       ,3,5,1,1,1,462.504265,462.504265,465.00022,0,32,32,32,1,33,2,3,phone       ,peacock       ,html/resources/sequences_IDs/B/09_phone.jpg,html/resources/sequences_IDs/A/05_peacock.jpg,9,5,4,2,2,1,7,4,0,31,,,,,,,,,,,,,,,,,,,,
,,,,,31,2020-07-03_15h37.06.323,retriever_ti,2020.1.3,Win32,60,Chrome,1536,864,,,,,,,,,,,,,,,,,1,,,,,,,,,,,,,,,,,,,,,,,,,,,466.102555,34,left,0.588245,dolphin     ,8,2,2,1,3,466.139175,466.139175,468.63355,0,33,33,33,1,34,8,6,dolphin     ,sport_tshirt,html/resources/sequences_IDs/B/02_dolphin.jpg,html/resources/sequences_IDs/B/07_sport_tshirt.jpg,2,7,1,1,3,2,1,5,0,31,,,,,,,,,,,,,,,,,,,,
,,,,,31,2020-07-03_15h37.06.323,retriever_ti,2020.1.3,Win32,60,Chrome,1536,864,,,,,,,,,,,,,,,,,1,,,,,,,,,,,,,,,,,,,,,,,,,,,469.236885,35,right,0.426875,dolphin     ,8,2,3,1,3,469.25712,469.25712,471.75014,0,34,34,34,1,35,5,8,hat           ,dolphin     ,html/resources/sequences_IDs/A/08_hat.jpg,html/resources/sequences_IDs/B/02_dolphin.jpg,8,2,3,2,1,1,6,1,0,31,,,,,,,,,,,,,,,,,,,,
,,,,,31,2020-07-03_15h37.06.323,retriever_ti,2020.1.3,Win32,60,Chrome,1536,864,,,,,,,,,,,,,,,,,1,,,,,,,,,,,,,,,,,,,,,,,,,,,472.36855,36,right,0.606895,holdfast    ,4,4,-1,0,0,472.386825,472.386825,474.88363,0,35,35,35,1,36,5,4,hat           ,holdfast    ,html/resources/sequences_IDs/A/08_hat.jpg,html/resources/sequences_IDs/B/04_holdfast.jpg,8,4,3,2,2,1,6,3,0,31,,,,,,,,,,,,,,,,,,,,
,,,,,31,2020-07-03_15h37.06.323,retriever_ti,2020.1.3,Win32,60,Chrome,1536,864,,,,,,,,,,,,,,,,,1,,,,,,,,,,,,,,,,,,,,,,,,,,,475.987255,37,right,1.4911,hat           ,5,8,-1,0,1,476.00459,476.00459,478.49994,0,36,36,36,1,37,6,5,sport_tshirt,hat           ,html/resources/sequences_IDs/B/07_sport_tshirt.jpg,html/resources/sequences_IDs/A/08_hat.jpg,7,8,3,2,3,2,5,6,1,31,,,,,,,,,,,,,,,,,,,,
,,,,,31,2020-07-03_15h37.06.323,retriever_ti,2020.1.3,Win32,60,Chrome,1536,864,,,,,,,,,,,,,,,,,1,,,,,,,,,,,,,,,,,,,,,,,,,,,479.603785,38,left,1.191635,camel         ,7,3,6,1,3,479.639085,479.639085,482.134045,0,37,37,37,1,38,7,1,camel         ,satellite_dish,html/resources/sequences_IDs/A/03_camel.jpg,html/resources/sequences_IDs/A/10_satellite_dish.jpg,3,10,1,1,4,2,2,8,0,31,,,,,,,,,,,,,,,,,,,,
,,,,,31,2020-07-03_15h37.06.323,retriever_ti,2020.1.3,Win32,60,Chrome,1536,864,,,,,,,,,,,,,,,,,1,,,,,,,,,,,,,,,,,,,,,,,,,,,482.752195,39,left,0.953565,dolphin     ,8,2,1,1,0,482.77157,482.77157,485.26729,0,38,38,38,1,39,8,7,dolphin     ,camel         ,html/resources/sequences_IDs/B/02_dolphin.jpg,html/resources/sequences_IDs/A/03_camel.jpg,2,3,1,1,1,1,1,2,1,31,,,,,,,,,,,,,,,,,,,,
,,,,,31,2020-07-03_15h37.06.323,retriever_ti,2020.1.3,Win32,60,Chrome,1536,864,,,,,,,,,,,,,,,,,1,,,,,,,,,,,,,,,,,,,,,,,,,,,486.36943,40,right,0.88096,hat           ,5,8,-1,0,0,486.4046,486.4046,488.900575,0,39,39,39,1,40,6,5,sport_tshirt,hat           ,html/resources/sequences_IDs/B/07_sport_tshirt.jpg,html/resources/sequences_IDs/A/08_hat.jpg,7,8,3,2,3,2,5,6,0,31,,,,,,,,,,,,,,,,,,,,
,,,,,31,2020-07-03_15h37.06.323,retriever_ti,2020.1.3,Win32,60,Chrome,1536,864,,,,,,,,,,,,,,,,,1,,,,,,,,,,,,,,,,,,,,,,,,,,,490.002895,41,left,1.91415,peacock       ,3,5,1,1,0,490.0214,490.0214,492.517385,0,40,40,40,1,41,3,2,peacock       ,phone       ,html/resources/sequences_IDs/A/05_peacock.jpg,html/resources/sequences_IDs/B/09_phone.jpg,5,9,2,1,4,2,4,7,1,31,,,,,,,,,,,,,,,,,,,,
,,,,,31,2020-07-03_15h37.06.323,retriever_ti,2020.1.3,Win32,60,Chrome,1536,864,,,,,,,,,,,,,,,,,1,,,,,,,,,,,,,,,,,,,,,,,,,,,493.621175,42,right,0.72291,peacock       ,3,5,-3,0,3,493.655985,493.655985,496.15102,0,41,41,41,1,42,6,3,sport_tshirt,peacock       ,html/resources/sequences_IDs/B/07_sport_tshirt.jpg,html/resources/sequences_IDs/A/05_peacock.jpg,7,5,3,2,2,1,5,4,0,31,,,,,,,,,,,,,,,,,,,,
,,,,,31,2020-07-03_15h37.06.323,retriever_ti,2020.1.3,Win32,60,Chrome,1536,864,,,,,,,,,,,,,,,,,1,,,,,,,,,,,,,,,,,,,,,,,,,,,496.75245,43,left,0.869995,hat           ,5,8,1,1,1,496.78792,496.78792,499.28467,0,42,42,42,1,43,5,4,hat           ,holdfast    ,html/resources/sequences_IDs/A/08_hat.jpg,html/resources/sequences_IDs/B/04_holdfast.jpg,8,4,3,2,2,1,6,3,0,31,,,,,,,,,,,,,,,,,,,,
,,,,,31,2020-07-03_15h37.06.323,retriever_ti,2020.1.3,Win32,60,Chrome,1536,864,,,,,,,,,,,,,,,,,1,,,,,,,,,,,,,,,,,,,,,,,,,,,500.386605,44,left,0.82305,phone       ,2,9,-3,0,3,500.421285,500.421285,502.91847,0,43,43,43,1,44,2,5,phone       ,hat           ,html/resources/sequences_IDs/B/09_phone.jpg,html/resources/sequences_IDs/A/08_hat.jpg,9,8,4,2,3,2,7,6,0,31,,,,,,,,,,,,,,,,,,,,
,,,,,31,2020-07-03_15h37.06.323,retriever_ti,2020.1.3,Win32,60,Chrome,1536,864,,,,,,,,,,,,,,,,,1,,,,,,,,,,,,,,,,,,,,,,,,,,,503.522245,45,left,0.75427,camel         ,7,3,1,1,1,503.55643,503.55643,506.051875,0,44,44,44,1,45,7,6,camel         ,sport_tshirt,html/resources/sequences_IDs/A/03_camel.jpg,html/resources/sequences_IDs/B/07_sport_tshirt.jpg,3,7,1,1,3,2,2,5,0,31,,,,,,,,,,,,,,,,,,,,
,,,,,31,2020-07-03_15h37.06.323,retriever_ti,2020.1.3,Win32,60,Chrome,1536,864,,,,,,,,,,,,,,,,,1,,,,,,,,,,,,,,,,,,,,,,,,,,,507.154065,46,left,0.79557,phone       ,2,9,1,1,1,507.1888,507.1888,509.685605,0,45,45,45,1,46,2,1,phone       ,satellite_dish,html/resources/sequences_IDs/B/09_phone.jpg,html/resources/sequences_IDs/A/10_satellite_dish.jpg,9,10,4,2,4,2,7,8,0,31,,,,,,,,,,,,,,,,,,,,
,,,,,31,2020-07-03_15h37.06.323,retriever_ti,2020.1.3,Win32,60,Chrome,1536,864,,,,,,,,,,,,,,,,,1,,,,,,,,,,,,,,,,,,,,,,,,,,,510.788795,47,right,0.03297,phone       ,2,9,1,1,1,510.807215,510.807215,513.302345,0,46,46,46,1,47,1,2,satellite_dish,phone       ,html/resources/sequences_IDs/A/10_satellite_dish.jpg,html/resources/sequences_IDs/B/09_phone.jpg,10,9,4,2,4,2,8,7,0,31,,,,,,,,,,,,,,,,,,,,
,,,,,31,2020-07-03_15h37.06.323,retriever_ti,2020.1.3,Win32,60,Chrome,1536,864,,,,,,,,,,,,,,,,,1,,,,,,,,,,,,,,,,,,,,,,,,,,,514.42187,48,left,0.450445,camel         ,7,3,4,1,3,514.45488,514.45488,516.95255,0,47,47,47,1,48,7,3,camel         ,peacock       ,html/resources/sequences_IDs/A/03_camel.jpg,html/resources/sequences_IDs/A/05_peacock.jpg,3,5,1,1,2,1,2,4,0,31,,,,,,,,,,,,,,,,,,,,
,,,,,31,2020-07-03_15h37.06.323,retriever_ti,2020.1.3,Win32,60,Chrome,1536,864,,,,,,,,,,,,,,,,,1,,,,,,,,,,,,,,,,,,,,,,,,,,,517.55617,49,right,0.80146,peacock       ,3,5,1,1,1,517.590495,517.590495,520.08606,0,48,48,48,1,49,2,3,phone       ,peacock       ,html/resources/sequences_IDs/B/09_phone.jpg,html/resources/sequences_IDs/A/05_peacock.jpg,9,5,4,2,2,1,7,4,0,31,,,,,,,,,,,,,,,,,,,,
,,,,,31,2020-07-03_15h37.06.323,retriever_ti,2020.1.3,Win32,60,Chrome,1536,864,,,,,,,,,,,,,,,,,1,,,,,,,,,,,,,,,,,,,,,,,,,,,521.189725,50,left,1.396685,camel         ,7,3,1,1,1,521.224155,521.224155,523.71911,0,49,49,49,1,50,7,6,camel         ,sport_tshirt,html/resources/sequences_IDs/A/03_camel.jpg,html/resources/sequences_IDs/B/07_sport_tshirt.jpg,3,7,1,1,3,2,2,5,0,31,,,,,,,,,,,,,,,,,,,,
,,,,,31,2020-07-03_15h37.06.323,retriever_ti,2020.1.3,Win32,60,Chrome,1536,864,,,,,,,,,,,,,,,,,1,,,,,,,,,,,,,,,,,,,,,,,,,,,524.820465,51,left,1.528125,hat           ,5,8,-1,0,0,524.856165,524.856165,527.353165,0,50,50,50,1,51,5,6,hat           ,sport_tshirt,html/resources/sequences_IDs/A/08_hat.jpg,html/resources/sequences_IDs/B/07_sport_tshirt.jpg,8,7,3,2,3,2,6,5,0,31,,,,,,,,,,,,,,,,,,,,
,,,,,31,2020-07-03_15h37.06.323,retriever_ti,2020.1.3,Win32,60,Chrome,1536,864,,,,,,,,,,,,,,,,,1,,,,,,,,,,,,,,,,,,,,,,,,,,,528.45516,52,left,1.070385,satellite_dish,1,10,-3,0,3,528.489885,528.489885,530.985665,0,51,51,51,1,52,1,4,satellite_dish,holdfast    ,html/resources/sequences_IDs/A/10_satellite_dish.jpg,html/resources/sequences_IDs/B/04_holdfast.jpg,10,4,4,2,2,1,8,3,0,31,,,,,,,,,,,,,,,,,,,,
,,,,,31,2020-07-03_15h37.06.323,retriever_ti,2020.1.3,Win32,60,Chrome,1536,864,,,,,,,,,,,,,,,,,1,,,,,,,,,,,,,,,,,,,,,,,,,,,531.58916,53,left,0.919835,dolphin     ,8,2,3,1,3,531.62331,531.62331,534.12011,0,52,52,52,1,53,8,5,dolphin     ,hat           ,html/resources/sequences_IDs/B/02_dolphin.jpg,html/resources/sequences_IDs/A/08_hat.jpg,2,8,1,1,3,2,1,6,0,31,,,,,,,,,,,,,,,,,,,,
,,,,,31,2020-07-03_15h37.06.323,retriever_ti,2020.1.3,Win32,60,Chrome,1536,864,,,,,,,,,,,,,,,,,1,,,,,,,,,,,,,,,,,,,,,,,,,,,534.73818,54,right,0.94011,satellite_dish,1,10,-5,0,3,534.75665,534.75665,537.25309,0,53,53,53,1,54,6,1,sport_tshirt,satellite_dish,html/resources/sequences_IDs/B/07_sport_tshirt.jpg,html/resources/sequences_IDs/A/10_satellite_dish.jpg,7,10,3,2,4,2,5,8,0,31,,,,,,,,,,,,,,,,,,,,
,,,,,31,2020-07-03_15h37.06.323,retriever_ti,2020.1.3,Win32,60,Chrome,1536,864,,,,,,,,,,,,,,,,,1,,,,,,,,,,,,,,,,,,,,,,,,,,,537.855535,55,left,0.940355,peacock       ,3,5,1,1,1,537.890535,537.890535,540.38656,0,54,54,54,1,55,3,2,peacock       ,phone       ,html/resources/sequences_IDs/A/05_peacock.jpg,html/resources/sequences_IDs/B/09_phone.jpg,5,9,2,1,4,2,4,7,0,31,,,,,,,,,,,,,,,,,,,,
,,,,,31,2020-07-03_15h37.06.323,retriever_ti,2020.1.3,Win32,60,Chrome,1536,864,,,,,,,,,,,,,,,,,1,,,,,,,,,,,,,,,,,,,,,,,,,,,541.48943,56,left,0.812595,camel         ,7,3,5,1,3,541.52416,541.52416,544.02061,0,55,55,55,1,56,7,2,camel         ,phone       ,html/resources/sequences_IDs/A/03_camel.jpg,html/resources/sequences_IDs/B/09_phone.jpg,3,9,1,1,4,2,2,7,0,31,,,,,,,,,,,,,,,,,,,,
,,,,,31,2020-07-03_15h37.06.323,retriever_ti,2020.1.3,Win32,60,Chrome,1536,864,,,,,,,,,,,,,,,,,1,,,,,,,,,,,,,,,,,,,,,,,,,,,544.638075,57,right,1.32545,sport_tshirt,6,7,2,1,3,544.656995,544.656995,547.153935,0,56,56,56,1,57,4,6,holdfast    ,sport_tshirt,html/resources/sequences_IDs/B/04_holdfast.jpg,html/resources/sequences_IDs/B/07_sport_tshirt.jpg,4,7,2,1,3,2,3,5,0,31,,,,,,,,,,,,,,,,,,,,
,,,,,31,2020-07-03_15h37.06.323,retriever_ti,2020.1.3,Win32,60,Chrome,1536,864,,,,,,,,,,,,,,,,,1,,,,,,,,,,,,,,,,,,,,,,,,,,,547.757155,58,left,0.58853,dolphin     ,8,2,6,1,3,547.775275,547.775275,550.27031,0,57,57,57,1,58,8,2,dolphin     ,phone       ,html/resources/sequences_IDs/B/02_dolphin.jpg,html/resources/sequences_IDs/B/09_phone.jpg,2,9,1,1,4,2,1,7,0,31,,,,,,,,,,,,,,,,,,,,
,,,,,31,2020-07-03_15h37.06.323,retriever_ti,2020.1.3,Win32,60,Chrome,1536,864,,,,,,,,,,,,,,,,,1,,,,,,,,,,,,,,,,,,,,,,,,,,,550.872045,59,left,0.670325,dolphin     ,8,2,7,1,3,550.89145,550.89145,553.387855,0,58,58,58,1,59,8,1,dolphin     ,satellite_dish,html/resources/sequences_IDs/B/02_dolphin.jpg,html/resources/sequences_IDs/A/10_satellite_dish.jpg,2,10,1,1,4,2,1,8,0,31,,,,,,,,,,,,,,,,,,,,
,,,,,31,2020-07-03_15h37.06.323,retriever_ti,2020.1.3,Win32,60,Chrome,1536,864,,,,,,,,,,,,,,,,,1,,,,,,,,,,,,,,,,,,,,,,,,,,,553.99124,60,right,0.675345,dolphin     ,8,2,6,1,3,554.026335,554.026335,556.521415,0,59,59,59,1,60,2,8,phone       ,dolphin     ,html/resources/sequences_IDs/B/09_phone.jpg,html/resources/sequences_IDs/B/02_dolphin.jpg,9,2,4,2,1,1,7,1,0,31,,,,,,,,,,,,,,,,,,,,
,,,,,31,2020-07-03_15h37.06.323,retriever_ti,2020.1.3,Win32,60,Chrome,1536,864,,,,,,,,,,,,,,,,,1,,,,,,,,,,,,,,,,,,,,,,,,,,,557.124785,61,right,1.935695,camel         ,7,3,1,1,1,557.159385,557.159385,559.65478,0,60,60,60,1,61,6,7,sport_tshirt,camel         ,html/resources/sequences_IDs/B/07_sport_tshirt.jpg,html/resources/sequences_IDs/A/03_camel.jpg,7,3,3,2,1,1,5,2,0,31,,,,,,,,,,,,,,,,,,,,
,,,,,31,2020-07-03_15h37.06.323,retriever_ti,2020.1.3,Win32,60,Chrome,1536,864,,,,,,,,,,,,,,,,,1,,,,,,,,,,,,,,,,,,,,,,,,,,,560.756895,62,right,1.05382,peacock       ,3,5,-1,0,0,560.77679,560.77679,563.27156,0,61,61,61,1,62,4,3,holdfast    ,peacock       ,html/resources/sequences_IDs/B/04_holdfast.jpg,html/resources/sequences_IDs/A/05_peacock.jpg,4,5,2,1,2,1,3,4,0,31,,,,,,,,,,,,,,,,,,,,
,,,,,31,2020-07-03_15h37.06.323,retriever_ti,2020.1.3,Win32,60,Chrome,1536,864,,,,,,,,,,,,,,,,,1,,,,,,,,,,,,,,,,,,,,,,,,,,,564.37362,63,left,1.67793,holdfast    ,4,4,-1,0,0,564.39084,564.39084,566.888005,0,62,62,62,1,63,4,5,holdfast    ,hat           ,html/resources/sequences_IDs/B/04_holdfast.jpg,html/resources/sequences_IDs/A/08_hat.jpg,4,8,2,1,3,2,3,6,0,31,,,,,,,,,,,,,,,,,,,,
,,,,,31,2020-07-03_15h37.06.323,retriever_ti,2020.1.3,Win32,60,Chrome,1536,864,,,,,,,,,,,,,,,,,1,,,,,,,,,,,,,,,,,,,,,,,,,,,567.98936,64,right,0.543165,satellite_dish,1,10,-4,0,3,568.02361,568.02361,570.52152,0,63,63,63,1,64,5,1,hat           ,satellite_dish,html/resources/sequences_IDs/A/08_hat.jpg,html/resources/sequences_IDs/A/10_satellite_dish.jpg,8,10,3,2,4,2,6,8,0,31,,,,,,,,,,,,,,,,,,,,
,,,,,31,2020-07-03_15h37.06.323,retriever_ti,2020.1.3,Win32,60,Chrome,1536,864,,,,,,,,,,,,,,,,,1,,,,,,,,,,,,,,,,,,,,,,,,,,,571.126145,65,left,0.455755,peacock       ,3,5,-5,0,3,571.158625,571.158625,573.6548,0,64,64,64,1,65,3,8,peacock       ,dolphin     ,html/resources/sequences_IDs/A/05_peacock.jpg,html/resources/sequences_IDs/B/02_dolphin.jpg,5,2,2,1,1,1,4,1,0,31,,,,,,,,,,,,,,,,,,,,
,,,,,31,2020-07-03_15h37.06.323,retriever_ti,2020.1.3,Win32,60,Chrome,1536,864,,,,,,,,,,,,,,,,,1,,,,,,,,,,,,,,,,,,,,,,,,,,,574.274125,66,right,0.41402,satellite_dish,1,10,-1,0,1,574.30985,574.30985,576.80524,0,65,65,65,1,66,2,1,phone       ,satellite_dish,html/resources/sequences_IDs/B/09_phone.jpg,html/resources/sequences_IDs/A/10_satellite_dish.jpg,9,10,4,2,4,2,7,8,1,31,,,,,,,,,,,,,,,,,,,,
,,,,,31,2020-07-03_15h37.06.323,retriever_ti,2020.1.3,Win32,60,Chrome,1536,864,,,,,,,,,,,,,,,,,1,,,,,,,,,,,,,,,,,,,,,,,,,,,577.909185,67,right,0.58167,phone       ,2,9,-4,0,3,577.92712,577.92712,580.42268,0,66,66,66,1,67,6,2,sport_tshirt,phone       ,html/resources/sequences_IDs/B/07_sport_tshirt.jpg,html/resources/sequences_IDs/B/09_phone.jpg,7,9,3,2,4,2,5,7,0,31,,,,,,,,,,,,,,,,,,,,
,,,,,31,2020-07-03_15h37.06.323,retriever_ti,2020.1.3,Win32,60,Chrome,1536,864,,,,,,,,,,,,,,,,,1,,,,,,,,,,,,,,,,,,,,,,,,,,,581.024965,68,left,0.69307,peacock       ,3,5,2,1,3,581.060935,581.060935,583.55551,0,67,67,67,1,68,3,1,peacock       ,satellite_dish,html/resources/sequences_IDs/A/05_peacock.jpg,html/resources/sequences_IDs/A/10_satellite_dish.jpg,5,10,2,1,4,2,4,8,0,31,,,,,,,,,,,,,,,,,,,,
,,,,,31,2020-07-03_15h37.06.323,retriever_ti,2020.1.3,Win32,60,Chrome,1536,864,,,,,,,,,,,,,,,,,1,,,,,,,,,,,,,,,,,,,,,,,,,,,584.158105,69,left,1.004695,phone       ,2,9,-2,0,3,584.194065,584.194065,586.689935,0,68,68,68,1,69,2,4,phone       ,holdfast    ,html/resources/sequences_IDs/B/09_phone.jpg,html/resources/sequences_IDs/B/04_holdfast.jpg,9,4,4,2,2,1,7,3,0,31,,,,,,,,,,,,,,,,,,,,
,,,,,31,2020-07-03_15h37.06.323,retriever_ti,2020.1.3,Win32,60,Chrome,1536,864,,,,,,,,,,,,,,,,,1,,,,,,,,,,,,,,,,,,,,,,,,,,,587.30744,70,right,0.639775,camel         ,7,3,5,1,3,587.32598,587.32598,589.823545,0,69,69,69,1,70,2,7,phone       ,camel         ,html/resources/sequences_IDs/B/09_phone.jpg,html/resources/sequences_IDs/A/03_camel.jpg,9,3,4,2,1,1,7,2,0,31,,,,,,,,,,,,,,,,,,,,
,,,,,31,2020-07-03_15h37.06.323,retriever_ti,2020.1.3,Win32,60,Chrome,1536,864,,,,,,,,,,,,,,,,,1,,,,,,,,,,,,,,,,,,,,,,,,,,,590.441275,71,left,0.543415,peacock       ,3,5,-1,0,0,590.459035,590.459035,592.956595,0,70,70,70,1,71,3,4,peacock       ,holdfast    ,html/resources/sequences_IDs/A/05_peacock.jpg,html/resources/sequences_IDs/B/04_holdfast.jpg,5,4,2,1,2,1,4,3,0,31,,,,,,,,,,,,,,,,,,,,
,,,,,31,2020-07-03_15h37.06.323,retriever_ti,2020.1.3,Win32,60,Chrome,1536,864,,,,,,,,,,,,,,,,,1,,,,,,,,,,,,,,,,,,,,,,,,,,,594.057965,72,right,0.55297,dolphin     ,8,2,2,1,3,594.076375,594.076375,596.572745,0,71,71,71,1,72,6,8,sport_tshirt,dolphin     ,html/resources/sequences_IDs/B/07_sport_tshirt.jpg,html/resources/sequences_IDs/B/02_dolphin.jpg,7,2,3,2,1,1,5,1,0,31,,,,,,,,,,,,,,,,,,,,
,,,,,31,2020-07-03_15h37.06.323,retriever_ti,2020.1.3,Win32,60,Chrome,1536,864,,,,,,,,,,,,,,,,,1,,,,,,,,,,,,,,,,,,,,,,,,,,,597.17336,73,right,0.789775,satellite_dish,1,10,-3,0,3,597.20861,597.20861,599.70644,0,72,72,72,1,73,4,1,holdfast    ,satellite_dish,html/resources/sequences_IDs/B/04_holdfast.jpg,html/resources/sequences_IDs/A/10_satellite_dish.jpg,4,10,2,1,4,2,3,8,0,31,,,,,,,,,,,,,,,,,,,,
,,,,,31,2020-07-03_15h37.06.323,retriever_ti,2020.1.3,Win32,60,Chrome,1536,864,,,,,,,,,,,,,,,,,1,,,,,,,,,,,,,,,,,,,,,,,,,,,600.324235,74,left,0.625785,peacock       ,3,5,-3,0,3,600.35856,600.35856,602.85668,0,73,73,73,1,74,3,6,peacock       ,sport_tshirt,html/resources/sequences_IDs/A/05_peacock.jpg,html/resources/sequences_IDs/B/07_sport_tshirt.jpg,5,7,2,1,3,2,4,5,0,31,,,,,,,,,,,,,,,,,,,,
,,,,,31,2020-07-03_15h37.06.323,retriever_ti,2020.1.3,Win32,60,Chrome,1536,864,,,,,,,,,,,,,,,,,1,,,,,,,,,,,,,,,,,,,,,,,,,,,603.47404,75,right,0.658465,sport_tshirt,6,7,4,1,3,603.49204,603.49204,605.990615,0,74,74,74,1,75,2,6,phone       ,sport_tshirt,html/resources/sequences_IDs/B/09_phone.jpg,html/resources/sequences_IDs/B/07_sport_tshirt.jpg,9,7,4,2,3,2,7,5,0,31,,,,,,,,,,,,,,,,,,,,
,,,,,31,2020-07-03_15h37.06.323,retriever_ti,2020.1.3,Win32,60,Chrome,1536,864,,,,,,,,,,,,,,,,,1,,,,,,,,,,,,,,,,,,,,,,,,,,,606.592955,76,right,0.951985,camel         ,7,3,6,1,3,606.628565,606.628565,609.124155,0,75,75,75,1,76,1,7,satellite_dish,camel         ,html/resources/sequences_IDs/A/10_satellite_dish.jpg,html/resources/sequences_IDs/A/03_camel.jpg,10,3,4,2,1,1,8,2,0,31,,,,,,,,,,,,,,,,,,,,
,,,,,31,2020-07-03_15h37.06.323,retriever_ti,2020.1.3,Win32,60,Chrome,1536,864,,,,,,,,,,,,,,,,,1,,,,,,,,,,,,,,,,,,,,,,,,,,,609.72746,77,right,0.55473,holdfast    ,4,4,-2,0,3,609.745425,609.745425,612.24108,0,76,76,76,1,77,6,4,sport_tshirt,holdfast    ,html/resources/sequences_IDs/B/07_sport_tshirt.jpg,html/resources/sequences_IDs/B/04_holdfast.jpg,7,4,3,2,2,1,5,3,0,31,,,,,,,,,,,,,,,,,,,,
,,,,,31,2020-07-03_15h37.06.323,retriever_ti,2020.1.3,Win32,60,Chrome,1536,864,,,,,,,,,,,,,,,,,,,,,,,,,,,,,,,,,,,,,0,3.077435,,,,,,,,,,,,,,,,,,,,,,,,,,,,,,,,,,,,,,,,,0,0,0,0,1,,,,,,,,,,,,,,,
,,,,,31,2020-07-03_15h37.06.323,retriever_ti,2020.1.3,Win32,60,Chrome,1536,864,,,,,,,,,,,,,,,,,2,,,,,,,,,,,,,,,,,,,,,,,,,,,822.19408,78,right,1.07257,sport_tshirt,6,7,5,1,3,822.2667,822.2667,824.702575,0,0,0,0,1,78,1,6,satellite_dish,sport_tshirt,html/resources/sequences_IDs/A/10_satellite_dish.jpg,html/resources/sequences_IDs/B/07_sport_tshirt.jpg,10,7,4,2,3,2,8,5,0,31,,,,,,,,,,,,,,,,,,,,
,,,,,31,2020-07-03_15h37.06.323,retriever_ti,2020.1.3,Win32,60,Chrome,1536,864,,,,,,,,,,,,,,,,,2,,,,,,,,,,,,,,,,,,,,,,,,,,,825.320325,79,right,0.906105,camel         ,7,3,1,1,1,825.338705,825.338705,827.8358,0,1,1,1,1,79,6,7,sport_tshirt,camel         ,html/resources/sequences_IDs/B/07_sport_tshirt.jpg,html/resources/sequences_IDs/A/03_camel.jpg,7,3,3,2,1,1,5,2,0,31,,,,,,,,,,,,,,,,,,,,
,,,,,31,2020-07-03_15h37.06.323,retriever_ti,2020.1.3,Win32,60,Chrome,1536,864,,,,,,,,,,,,,,,,,2,,,,,,,,,,,,,,,,,,,,,,,,,,,828.938245,80,right,1.162615,peacock       ,3,5,-4,0,3,828.957665,828.957665,831.45273,0,2,2,2,1,80,7,3,camel         ,peacock       ,html/resources/sequences_IDs/A/03_camel.jpg,html/resources/sequences_IDs/A/05_peacock.jpg,3,5,1,1,2,1,2,4,0,31,,,,,,,,,,,,,,,,,,,,
,,,,,31,2020-07-03_15h37.06.323,retriever_ti,2020.1.3,Win32,60,Chrome,1536,864,,,,,,,,,,,,,,,,,2,,,,,,,,,,,,,,,,,,,,,,,,,,,832.071105,81,left,1.00023,peacock       ,3,5,1,1,1,832.105515,832.105515,834.60289,0,3,3,3,1,81,3,2,peacock       ,phone       ,html/resources/sequences_IDs/A/05_peacock.jpg,html/resources/sequences_IDs/B/09_phone.jpg,5,9,2,1,4,2,4,7,0,31,,,,,,,,,,,,,,,,,,,,
,,,,,31,2020-07-03_15h37.06.323,retriever_ti,2020.1.3,Win32,60,Chrome,1536,864,,,,,,,,,,,,,,,,,2,,,,,,,,,,,,,,,,,,,,,,,,,,,835.704505,82,right,0.68769,peacock       ,3,5,-2,0,3,835.72265,835.72265,838.219685,0,4,4,4,1,82,5,3,hat           ,peacock       ,html/resources/sequences_IDs/A/08_hat.jpg,html/resources/sequences_IDs/A/05_peacock.jpg,8,5,3,2,2,1,6,4,0,31,,,,,,,,,,,,,,,,,,,,
,,,,,31,2020-07-03_15h37.06.323,retriever_ti,2020.1.3,Win32,60,Chrome,1536,864,,,,,,,,,,,,,,,,,2,,,,,,,,,,,,,,,,,,,,,,,,,,,838.83779,83,right,0.69343,peacock       ,3,5,-3,0,3,838.85627,838.85627,841.35262,0,5,5,5,1,83,6,3,sport_tshirt,peacock       ,html/resources/sequences_IDs/B/07_sport_tshirt.jpg,html/resources/sequences_IDs/A/05_peacock.jpg,7,5,3,2,2,1,5,4,0,31,,,,,,,,,,,,,,,,,,,,
,,,,,31,2020-07-03_15h37.06.323,retriever_ti,2020.1.3,Win32,60,Chrome,1536,864,,,,,,,,,,,,,,,,,2,,,,,,,,,,,,,,,,,,,,,,,,,,,841.95508,84,right,1.089045,dolphin     ,8,2,1,1,1,841.989595,841.989595,844.48616,0,6,6,6,1,84,7,8,camel         ,dolphin     ,html/resources/sequences_IDs/A/03_camel.jpg,html/resources/sequences_IDs/B/02_dolphin.jpg,3,2,1,1,1,1,2,1,0,31,,,,,,,,,,,,,,,,,,,,
,,,,,31,2020-07-03_15h37.06.323,retriever_ti,2020.1.3,Win32,60,Chrome,1536,864,,,,,,,,,,,,,,,,,2,,,,,,,,,,,,,,,,,,,,,,,,,,,845.587085,85,left,1.212145,phone       ,2,9,-4,0,3,845.60502,845.60502,848.10302,0,7,7,7,1,85,2,6,phone       ,sport_tshirt,html/resources/sequences_IDs/B/09_phone.jpg,html/resources/sequences_IDs/B/07_sport_tshirt.jpg,9,7,4,2,3,2,7,5,0,31,,,,,,,,,,,,,,,,,,,,
,,,,,31,2020-07-03_15h37.06.323,retriever_ti,2020.1.3,Win32,60,Chrome,1536,864,,,,,,,,,,,,,,,,,2,,,,,,,,,,,,,,,,,,,,,,,,,,,848.704685,86,right,1.01444,dolphin     ,8,2,3,1,3,848.740365,848.740365,851.237615,0,8,8,8,1,86,5,8,hat           ,dolphin     ,html/resources/sequences_IDs/A/08_hat.jpg,html/resources/sequences_IDs/B/02_dolphin.jpg,8,2,3,2,1,1,6,1,0,31,,,,,,,,,,,,,,,,,,,,
,,,,,31,2020-07-03_15h37.06.323,retriever_ti,2020.1.3,Win32,60,Chrome,1536,864,,,,,,,,,,,,,,,,,2,,,,,,,,,,,,,,,,,,,,,,,,,,,851.85687,87,right,1.28084,peacock       ,3,5,2,1,3,851.89245,851.89245,854.386705,0,9,9,9,1,87,1,3,satellite_dish,peacock       ,html/resources/sequences_IDs/A/10_satellite_dish.jpg,html/resources/sequences_IDs/A/05_peacock.jpg,10,5,4,2,2,1,8,4,0,31,,,,,,,,,,,,,,,,,,,,
,,,,,31,2020-07-03_15h37.06.323,retriever_ti,2020.1.3,Win32,60,Chrome,1536,864,,,,,,,,,,,,,,,,,2,,,,,,,,,,,,,,,,,,,,,,,,,,,854.988305,88,left,1.030525,holdfast    ,4,4,-1,0,0,855.007305,855.007305,857.503465,0,10,10,10,1,88,4,5,holdfast    ,hat           ,html/resources/sequences_IDs/B/04_holdfast.jpg,html/resources/sequences_IDs/A/08_hat.jpg,4,8,2,1,3,2,3,6,0,31,,,,,,,,,,,,,,,,,,,,
,,,,,31,2020-07-03_15h37.06.323,retriever_ti,2020.1.3,Win32,60,Chrome,1536,864,,,,,,,,,,,,,,,,,2,,,,,,,,,,,,,,,,,,,,,,,,,,,858.604755,89,left,1.13752,camel         ,7,3,6,1,3,858.639135,858.639135,861.137615,0,11,11,11,1,89,7,1,camel         ,satellite_dish,html/resources/sequences_IDs/A/03_camel.jpg,html/resources/sequences_IDs/A/10_satellite_dish.jpg,3,10,1,1,4,2,2,8,0,31,,,,,,,,,,,,,,,,,,,,
,,,,,31,2020-07-03_15h37.06.323,retriever_ti,2020.1.3,Win32,60,Chrome,1536,864,,,,,,,,,,,,,,,,,2,,,,,,,,,,,,,,,,,,,,,,,,,,,861.74121,90,left,1.2424,satellite_dish,1,10,-4,0,3,861.759855,861.759855,864.25404,0,12,12,12,1,90,1,5,satellite_dish,hat           ,html/resources/sequences_IDs/A/10_satellite_dish.jpg,html/resources/sequences_IDs/A/08_hat.jpg,10,8,4,2,3,2,8,6,0,31,,,,,,,,,,,,,,,,,,,,
,,,,,31,2020-07-03_15h37.06.323,retriever_ti,2020.1.3,Win32,60,Chrome,1536,864,,,,,,,,,,,,,,,,,2,,,,,,,,,,,,,,,,,,,,,,,,,,,864.855495,91,left,0.952965,camel         ,7,3,3,1,3,864.89085,864.89085,867.38791,0,13,13,13,1,91,7,4,camel         ,holdfast    ,html/resources/sequences_IDs/A/03_camel.jpg,html/resources/sequences_IDs/B/04_holdfast.jpg,3,4,1,1,2,1,2,3,0,31,,,,,,,,,,,,,,,,,,,,
,,,,,31,2020-07-03_15h37.06.323,retriever_ti,2020.1.3,Win32,60,Chrome,1536,864,,,,,,,,,,,,,,,,,2,,,,,,,,,,,,,,,,,,,,,,,,,,,867.991185,92,left,1.1656,hat           ,5,8,1,1,1,868.009395,868.009395,870.504205,0,14,14,14,1,92,5,4,hat           ,holdfast    ,html/resources/sequences_IDs/A/08_hat.jpg,html/resources/sequences_IDs/B/04_holdfast.jpg,8,4,3,2,2,1,6,3,0,31,,,,,,,,,,,,,,,,,,,,
,,,,,31,2020-07-03_15h37.06.323,retriever_ti,2020.1.3,Win32,60,Chrome,1536,864,,,,,,,,,,,,,,,,,2,,,,,,,,,,,,,,,,,,,,,,,,,,,871.607045,93,right,1.387975,dolphin     ,8,2,5,1,3,871.64199,871.64199,874.13831,0,15,15,15,1,93,3,8,peacock       ,dolphin     ,html/resources/sequences_IDs/A/05_peacock.jpg,html/resources/sequences_IDs/B/02_dolphin.jpg,5,2,2,1,1,1,4,1,0,31,,,,,,,,,,,,,,,,,,,,
,,,,,31,2020-07-03_15h37.06.323,retriever_ti,2020.1.3,Win32,60,Chrome,1536,864,,,,,,,,,,,,,,,,,2,,,,,,,,,,,,,,,,,,,,,,,,,,,874.742735,94,right,1.124765,camel         ,7,3,3,1,3,874.759005,874.759005,877.257675,0,16,16,16,1,94,4,7,holdfast    ,camel         ,html/resources/sequences_IDs/B/04_holdfast.jpg,html/resources/sequences_IDs/A/03_camel.jpg,4,3,2,1,1,1,3,2,0,31,,,,,,,,,,,,,,,,,,,,
,,,,,31,2020-07-03_15h37.06.323,retriever_ti,2020.1.3,Win32,60,Chrome,1536,864,,,,,,,,,,,,,,,,,2,,,,,,,,,,,,,,,,,,,,,,,,,,,877.87449,95,left,1.11157,dolphin     ,8,2,2,1,3,877.891565,877.891565,880.38801,0,17,17,17,1,95,8,6,dolphin     ,sport_tshirt,html/resources/sequences_IDs/B/02_dolphin.jpg,html/resources/sequences_IDs/B/07_sport_tshirt.jpg,2,7,1,1,3,2,1,5,0,31,,,,,,,,,,,,,,,,,,,,
,,,,,31,2020-07-03_15h37.06.323,retriever_ti,2020.1.3,Win32,60,Chrome,1536,864,,,,,,,,,,,,,,,,,2,,,,,,,,,,,,,,,,,,,,,,,,,,,880.98941,96,right,0.84555,camel         ,7,3,6,1,3,881.025955,881.025955,883.52211,0,18,18,18,1,96,1,7,satellite_dish,camel         ,html/resources/sequences_IDs/A/10_satellite_dish.jpg,html/resources/sequences_IDs/A/03_camel.jpg,10,3,4,2,1,1,8,2,0,31,,,,,,,,,,,,,,,,,,,,
,,,,,31,2020-07-03_15h37.06.323,retriever_ti,2020.1.3,Win32,60,Chrome,1536,864,,,,,,,,,,,,,,,,,2,,,,,,,,,,,,,,,,,,,,,,,,,,,884.125295,97,right,0.817605,camel         ,7,3,1,1,1,884.16015,884.16015,886.655785,0,19,19,19,1,97,6,7,sport_tshirt,camel         ,html/resources/sequences_IDs/B/07_sport_tshirt.jpg,html/resources/sequences_IDs/A/03_camel.jpg,7,3,3,2,1,1,5,2,0,31,,,,,,,,,,,,,,,,,,,,
,,,,,31,2020-07-03_15h37.06.323,retriever_ti,2020.1.3,Win32,60,Chrome,1536,864,,,,,,,,,,,,,,,,,2,,,,,,,,,,,,,,,,,,,,,,,,,,,887.757365,98,left,0.905305,dolphin     ,8,2,4,1,3,887.79201,887.79201,890.288425,0,20,20,20,1,98,8,4,dolphin     ,holdfast    ,html/resources/sequences_IDs/B/02_dolphin.jpg,html/resources/sequences_IDs/B/04_holdfast.jpg,2,4,1,1,2,1,1,3,0,31,,,,,,,,,,,,,,,,,,,,
,,,,,31,2020-07-03_15h37.06.323,retriever_ti,2020.1.3,Win32,60,Chrome,1536,864,,,,,,,,,,,,,,,,,2,,,,,,,,,,,,,,,,,,,,,,,,,,,890.8902,99,left,0.98148,hat           ,5,8,-1,0,0,890.92588,890.92588,893.421985,0,21,21,21,1,99,5,6,hat           ,sport_tshirt,html/resources/sequences_IDs/A/08_hat.jpg,html/resources/sequences_IDs/B/07_sport_tshirt.jpg,8,7,3,2,3,2,6,5,0,31,,,,,,,,,,,,,,,,,,,,
,,,,,31,2020-07-03_15h37.06.323,retriever_ti,2020.1.3,Win32,60,Chrome,1536,864,,,,,,,,,,,,,,,,,2,,,,,,,,,,,,,,,,,,,,,,,,,,,894.524715,100,left,0.850115,peacock       ,3,5,-1,0,0,894.559225,894.559225,897.05616,0,22,22,22,1,100,3,4,peacock       ,holdfast    ,html/resources/sequences_IDs/A/05_peacock.jpg,html/resources/sequences_IDs/B/04_holdfast.jpg,5,4,2,1,2,1,4,3,0,31,,,,,,,,,,,,,,,,,,,,
,,,,,31,2020-07-03_15h37.06.323,retriever_ti,2020.1.3,Win32,60,Chrome,1536,864,,,,,,,,,,,,,,,,,2,,,,,,,,,,,,,,,,,,,,,,,,,,,898.157955,101,right,1.155825,peacock       ,3,5,1,1,0,898.19256,898.19256,900.69006,0,23,23,23,1,101,2,3,phone       ,peacock       ,html/resources/sequences_IDs/B/09_phone.jpg,html/resources/sequences_IDs/A/05_peacock.jpg,9,5,4,2,2,1,7,4,1,31,,,,,,,,,,,,,,,,,,,,
,,,,,31,2020-07-03_15h37.06.323,retriever_ti,2020.1.3,Win32,60,Chrome,1536,864,,,,,,,,,,,,,,,,,2,,,,,,,,,,,,,,,,,,,,,,,,,,,901.791595,102,left,1.10064,satellite_dish,1,10,-1,0,0,901.82604,901.82604,904.3231,0,24,24,24,1,102,1,2,satellite_dish,phone       ,html/resources/sequences_IDs/A/10_satellite_dish.jpg,html/resources/sequences_IDs/B/09_phone.jpg,10,9,4,2,4,2,8,7,0,31,,,,,,,,,,,,,,,,,,,,
,,,,,31,2020-07-03_15h37.06.323,retriever_ti,2020.1.3,Win32,60,Chrome,1536,864,,,,,,,,,,,,,,,,,2,,,,,,,,,,,,,,,,,,,,,,,,,,,905.426645,103,left,0.65862,dolphin     ,8,2,1,1,1,905.46215,905.46215,907.95669,0,25,25,25,1,103,8,7,dolphin     ,camel         ,html/resources/sequences_IDs/B/02_dolphin.jpg,html/resources/sequences_IDs/A/03_camel.jpg,2,3,1,1,1,1,1,2,0,31,,,,,,,,,,,,,,,,,,,,
,,,,,31,2020-07-03_15h37.06.323,retriever_ti,2020.1.3,Win32,60,Chrome,1536,864,,,,,,,,,,,,,,,,,2,,,,,,,,,,,,,,,,,,,,,,,,,,,909.058765,104,right,1.250685,peacock       ,3,5,1,1,1,909.095375,909.095375,911.590245,0,26,26,26,1,104,2,3,phone       ,peacock       ,html/resources/sequences_IDs/B/09_phone.jpg,html/resources/sequences_IDs/A/05_peacock.jpg,9,5,4,2,2,1,7,4,0,31,,,,,,,,,,,,,,,,,,,,
,,,,,31,2020-07-03_15h37.06.323,retriever_ti,2020.1.3,Win32,60,Chrome,1536,864,,,,,,,,,,,,,,,,,2,,,,,,,,,,,,,,,,,,,,,,,,,,,912.69234,105,right,1.615025,holdfast    ,4,4,2,1,3,912.710665,912.710665,915.20655,0,27,27,27,1,105,2,4,phone       ,holdfast    ,html/resources/sequences_IDs/B/09_phone.jpg,html/resources/sequences_IDs/B/04_holdfast.jpg,9,4,4,2,2,1,7,3,0,31,,,,,,,,,,,,,,,,,,,,
,,,,,31,2020-07-03_15h37.06.323,retriever_ti,2020.1.3,Win32,60,Chrome,1536,864,,,,,,,,,,,,,,,,,2,,,,,,,,,,,,,,,,,,,,,,,,,,,915.82577,106,right,0.905215,peacock       ,3,5,-1,0,0,915.843925,915.843925,918.34028,0,28,28,28,1,106,4,3,holdfast    ,peacock       ,html/resources/sequences_IDs/B/04_holdfast.jpg,html/resources/sequences_IDs/A/05_peacock.jpg,4,5,2,1,2,1,3,4,0,31,,,,,,,,,,,,,,,,,,,,
,,,,,31,2020-07-03_15h37.06.323,retriever_ti,2020.1.3,Win32,60,Chrome,1536,864,,,,,,,,,,,,,,,,,2,,,,,,,,,,,,,,,,,,,,,,,,,,,919.441145,107,right,1.424395,phone       ,2,9,1,1,0,919.459015,919.459015,921.95749,0,29,29,29,1,107,1,2,satellite_dish,phone       ,html/resources/sequences_IDs/A/10_satellite_dish.jpg,html/resources/sequences_IDs/B/09_phone.jpg,10,9,4,2,4,2,8,7,1,31,,,,,,,,,,,,,,,,,,,,
,,,,,31,2020-07-03_15h37.06.323,retriever_ti,2020.1.3,Win32,60,Chrome,1536,864,,,,,,,,,,,,,,,,,2,,,,,,,,,,,,,,,,,,,,,,,,,,,923.060025,108,left,1.15296,peacock       ,3,5,1,1,1,923.09615,923.09615,925.59102,0,30,30,30,1,108,3,2,peacock       ,phone       ,html/resources/sequences_IDs/A/05_peacock.jpg,html/resources/sequences_IDs/B/09_phone.jpg,5,9,2,1,4,2,4,7,0,31,,,,,,,,,,,,,,,,,,,,
,,,,,31,2020-07-03_15h37.06.323,retriever_ti,2020.1.3,Win32,60,Chrome,1536,864,,,,,,,,,,,,,,,,,2,,,,,,,,,,,,,,,,,,,,,,,,,,,926.692975,109,left,0.70436,camel         ,7,3,1,1,1,926.72788,926.72788,929.224005,0,31,31,31,1,109,7,6,camel         ,sport_tshirt,html/resources/sequences_IDs/A/03_camel.jpg,html/resources/sequences_IDs/B/07_sport_tshirt.jpg,3,7,1,1,3,2,2,5,0,31,,,,,,,,,,,,,,,,,,,,
,,,,,31,2020-07-03_15h37.06.323,retriever_ti,2020.1.3,Win32,60,Chrome,1536,864,,,,,,,,,,,,,,,,,2,,,,,,,,,,,,,,,,,,,,,,,,,,,930.327275,110,right,1.394825,satellite_dish,1,10,-2,0,3,930.36289,930.36289,932.858085,0,32,32,32,1,110,3,1,peacock       ,satellite_dish,html/resources/sequences_IDs/A/05_peacock.jpg,html/resources/sequences_IDs/A/10_satellite_dish.jpg,5,10,2,1,4,2,4,8,0,31,,,,,,,,,,,,,,,,,,,,
,,,,,31,2020-07-03_15h37.06.323,retriever_ti,2020.1.3,Win32,60,Chrome,1536,864,,,,,,,,,,,,,,,,,2,,,,,,,,,,,,,,,,,,,,,,,,,,,933.47629,111,left,0.811725,phone       ,2,9,1,1,1,933.511065,933.511065,936.00769,0,33,33,33,1,111,2,1,phone       ,satellite_dish,html/resources/sequences_IDs/B/09_phone.jpg,html/resources/sequences_IDs/A/10_satellite_dish.jpg,9,10,4,2,4,2,7,8,0,31,,,,,,,,,,,,,,,,,,,,
,,,,,31,2020-07-03_15h37.06.323,retriever_ti,2020.1.3,Win32,60,Chrome,1536,864,,,,,,,,,,,,,,,,,2,,,,,,,,,,,,,,,,,,,,,,,,,,,937.10923,112,left,0.923335,phone       ,2,9,1,1,1,937.1282,937.1282,939.62453,0,34,34,34,1,112,2,1,phone       ,satellite_dish,html/resources/sequences_IDs/B/09_phone.jpg,html/resources/sequences_IDs/A/10_satellite_dish.jpg,9,10,4,2,4,2,7,8,0,31,,,,,,,,,,,,,,,,,,,,
,,,,,31,2020-07-03_15h37.06.323,retriever_ti,2020.1.3,Win32,60,Chrome,1536,864,,,,,,,,,,,,,,,,,2,,,,,,,,,,,,,,,,,,,,,,,,,,,940.728345,113,right,1.58082,dolphin     ,8,2,4,1,3,940.763235,940.763235,943.258665,0,35,35,35,1,113,4,8,holdfast    ,dolphin     ,html/resources/sequences_IDs/B/04_holdfast.jpg,html/resources/sequences_IDs/B/02_dolphin.jpg,4,2,2,1,1,1,3,1,0,31,,,,,,,,,,,,,,,,,,,,
,,,,,31,2020-07-03_15h37.06.323,retriever_ti,2020.1.3,Win32,60,Chrome,1536,864,,,,,,,,,,,,,,,,,2,,,,,,,,,,,,,,,,,,,,,,,,,,,943.87714,114,right,0.995935,peacock       ,3,5,1,1,1,943.89491,943.89491,946.39215,0,36,36,36,1,114,2,3,phone       ,peacock       ,html/resources/sequences_IDs/B/09_phone.jpg,html/resources/sequences_IDs/A/05_peacock.jpg,9,5,4,2,2,1,7,4,0,31,,,,,,,,,,,,,,,,,,,,
,,,,,31,2020-07-03_15h37.06.323,retriever_ti,2020.1.3,Win32,60,Chrome,1536,864,,,,,,,,,,,,,,,,,2,,,,,,,,,,,,,,,,,,,,,,,,,,,947.493975,115,left,0.939175,dolphin     ,8,2,3,1,3,947.528275,947.528275,950.02524,0,37,37,37,1,115,8,5,dolphin     ,hat           ,html/resources/sequences_IDs/B/02_dolphin.jpg,html/resources/sequences_IDs/A/08_hat.jpg,2,8,1,1,3,2,1,6,0,31,,,,,,,,,,,,,,,,,,,,
,,,,,31,2020-07-03_15h37.06.323,retriever_ti,2020.1.3,Win32,60,Chrome,1536,864,,,,,,,,,,,,,,,,,2,,,,,,,,,,,,,,,,,,,,,,,,,,,950.62652,116,right,0.72805,peacock       ,3,5,-1,0,0,950.663095,950.663095,953.15916,0,38,38,38,1,116,4,3,holdfast    ,peacock       ,html/resources/sequences_IDs/B/04_holdfast.jpg,html/resources/sequences_IDs/A/05_peacock.jpg,4,5,2,1,2,1,3,4,0,31,,,,,,,,,,,,,,,,,,,,
,,,,,31,2020-07-03_15h37.06.323,retriever_ti,2020.1.3,Win32,60,Chrome,1536,864,,,,,,,,,,,,,,,,,2,,,,,,,,,,,,,,,,,,,,,,,,,,,954.26262,117,left,1.124925,peacock       ,3,5,-2,0,3,954.28108,954.28108,956.77835,0,39,39,39,1,117,3,5,peacock       ,hat           ,html/resources/sequences_IDs/A/05_peacock.jpg,html/resources/sequences_IDs/A/08_hat.jpg,5,8,2,1,3,2,4,6,0,31,,,,,,,,,,,,,,,,,,,,
,,,,,31,2020-07-03_15h37.06.323,retriever_ti,2020.1.3,Win32,60,Chrome,1536,864,,,,,,,,,,,,,,,,,2,,,,,,,,,,,,,,,,,,,,,,,,,,,957.394255,118,left,0.86122,dolphin     ,8,2,5,1,3,957.41293,957.41293,959.909195,0,40,40,40,1,118,8,3,dolphin     ,peacock       ,html/resources/sequences_IDs/B/02_dolphin.jpg,html/resources/sequences_IDs/A/05_peacock.jpg,2,5,1,1,2,1,1,4,0,31,,,,,,,,,,,,,,,,,,,,
,,,,,31,2020-07-03_15h37.06.323,retriever_ti,2020.1.3,Win32,60,Chrome,1536,864,,,,,,,,,,,,,,,,,2,,,,,,,,,,,,,,,,,,,,,,,,,,,960.52604,119,left,0.762985,hat           ,5,8,-1,0,0,960.54452,960.54452,963.043005,0,41,41,41,1,119,5,6,hat           ,sport_tshirt,html/resources/sequences_IDs/A/08_hat.jpg,html/resources/sequences_IDs/B/07_sport_tshirt.jpg,8,7,3,2,3,2,6,5,0,31,,,,,,,,,,,,,,,,,,,,
,,,,,31,2020-07-03_15h37.06.323,retriever_ti,2020.1.3,Win32,60,Chrome,1536,864,,,,,,,,,,,,,,,,,2,,,,,,,,,,,,,,,,,,,,,,,,,,,964.14613,120,right,0.700255,camel         ,7,3,1,1,0,964.18161,964.18161,966.675965,0,42,42,42,1,120,6,7,sport_tshirt,camel         ,html/resources/sequences_IDs/B/07_sport_tshirt.jpg,html/resources/sequences_IDs/A/03_camel.jpg,7,3,3,2,1,1,5,2,1,31,,,,,,,,,,,,,,,,,,,,
,,,,,31,2020-07-03_15h37.06.323,retriever_ti,2020.1.3,Win32,60,Chrome,1536,864,,,,,,,,,,,,,,,,,2,,,,,,,,,,,,,,,,,,,,,,,,,,,967.778445,121,right,1.371125,phone       ,2,9,1,1,1,967.796505,967.796505,970.29291,0,43,43,43,1,121,1,2,satellite_dish,phone       ,html/resources/sequences_IDs/A/10_satellite_dish.jpg,html/resources/sequences_IDs/B/09_phone.jpg,10,9,4,2,4,2,8,7,0,31,,,,,,,,,,,,,,,,,,,,
,,,,,31,2020-07-03_15h37.06.323,retriever_ti,2020.1.3,Win32,60,Chrome,1536,864,,,,,,,,,,,,,,,,,2,,,,,,,,,,,,,,,,,,,,,,,,,,,971.39404,122,right,1.160065,holdfast    ,4,4,-1,0,0,971.428305,971.428305,973.926415,0,44,44,44,1,122,5,4,hat           ,holdfast    ,html/resources/sequences_IDs/A/08_hat.jpg,html/resources/sequences_IDs/B/04_holdfast.jpg,8,4,3,2,2,1,6,3,0,31,,,,,,,,,,,,,,,,,,,,
,,,,,31,2020-07-03_15h37.06.323,retriever_ti,2020.1.3,Win32,60,Chrome,1536,864,,,,,,,,,,,,,,,,,2,,,,,,,,,,,,,,,,,,,,,,,,,,,975.02926,123,right,1.57426,phone       ,2,9,-4,0,3,975.04964,975.04964,977.54306,0,45,45,45,1,123,6,2,sport_tshirt,phone       ,html/resources/sequences_IDs/B/07_sport_tshirt.jpg,html/resources/sequences_IDs/B/09_phone.jpg,7,9,3,2,4,2,5,7,0,31,,,,,,,,,,,,,,,,,,,,
,,,,,31,2020-07-03_15h37.06.323,retriever_ti,2020.1.3,Win32,60,Chrome,1536,864,,,,,,,,,,,,,,,,,2,,,,,,,,,,,,,,,,,,,,,,,,,,,978.145715,124,right,0.92723,camel         ,7,3,5,1,3,978.163755,978.163755,980.66006,0,46,46,46,1,124,2,7,phone       ,camel         ,html/resources/sequences_IDs/B/09_phone.jpg,html/resources/sequences_IDs/A/03_camel.jpg,9,3,4,2,1,1,7,2,0,31,,,,,,,,,,,,,,,,,,,,
,,,,,31,2020-07-03_15h37.06.323,retriever_ti,2020.1.3,Win32,60,Chrome,1536,864,,,,,,,,,,,,,,,,,2,,,,,,,,,,,,,,,,,,,,,,,,,,,981.26135,125,right,1.25488,dolphin     ,8,2,7,1,3,981.297955,981.297955,983.79409,0,47,47,47,1,125,1,8,satellite_dish,dolphin     ,html/resources/sequences_IDs/A/10_satellite_dish.jpg,html/resources/sequences_IDs/B/02_dolphin.jpg,10,2,4,2,1,1,8,1,0,31,,,,,,,,,,,,,,,,,,,,
,,,,,31,2020-07-03_15h37.06.323,retriever_ti,2020.1.3,Win32,60,Chrome,1536,864,,,,,,,,,,,,,,,,,2,,,,,,,,,,,,,,,,,,,,,,,,,,,984.41259,126,right,0.76349,dolphin     ,8,2,2,1,3,984.447865,984.447865,986.94435,0,48,48,48,1,126,6,8,sport_tshirt,dolphin     ,html/resources/sequences_IDs/B/07_sport_tshirt.jpg,html/resources/sequences_IDs/B/02_dolphin.jpg,7,2,3,2,1,1,5,1,0,31,,,,,,,,,,,,,,,,,,,,
,,,,,31,2020-07-03_15h37.06.323,retriever_ti,2020.1.3,Win32,60,Chrome,1536,864,,,,,,,,,,,,,,,,,2,,,,,,,,,,,,,,,,,,,,,,,,,,,987.56234,127,right,1.54252,holdfast    ,4,4,3,1,3,987.580665,987.580665,990.077215,0,49,49,49,1,127,1,4,satellite_dish,holdfast    ,html/resources/sequences_IDs/A/10_satellite_dish.jpg,html/resources/sequences_IDs/B/04_holdfast.jpg,10,4,4,2,2,1,8,3,0,31,,,,,,,,,,,,,,,,,,,,
,,,,,31,2020-07-03_15h37.06.323,retriever_ti,2020.1.3,Win32,60,Chrome,1536,864,,,,,,,,,,,,,,,,,2,,,,,,,,,,,,,,,,,,,,,,,,,,,990.679035,128,right,1.507415,hat           ,5,8,-2,0,3,990.69873,990.69873,993.19466,0,50,50,50,1,128,7,5,camel         ,hat           ,html/resources/sequences_IDs/A/03_camel.jpg,html/resources/sequences_IDs/A/08_hat.jpg,3,8,1,1,3,2,2,6,0,31,,,,,,,,,,,,,,,,,,,,
,,,,,31,2020-07-03_15h37.06.323,retriever_ti,2020.1.3,Win32,60,Chrome,1536,864,,,,,,,,,,,,,,,,,2,,,,,,,,,,,,,,,,,,,,,,,,,,,993.797705,129,right,1.22377,holdfast    ,4,4,-1,0,1,993.833915,993.833915,996.32815,0,51,51,51,1,129,5,4,hat           ,holdfast    ,html/resources/sequences_IDs/A/08_hat.jpg,html/resources/sequences_IDs/B/04_holdfast.jpg,8,4,3,2,2,1,6,3,1,31,,,,,,,,,,,,,,,,,,,,
,,,,,31,2020-07-03_15h37.06.323,retriever_ti,2020.1.3,Win32,60,Chrome,1536,864,,,,,,,,,,,,,,,,,2,,,,,,,,,,,,,,,,,,,,,,,,,,,997.42958,130,left,1.12618,peacock       ,3,5,-3,0,3,997.448415,997.448415,999.944985,0,52,52,52,1,130,3,6,peacock       ,sport_tshirt,html/resources/sequences_IDs/A/05_peacock.jpg,html/resources/sequences_IDs/B/07_sport_tshirt.jpg,5,7,2,1,3,2,4,5,0,31,,,,,,,,,,,,,,,,,,,,
,,,,,31,2020-07-03_15h37.06.323,retriever_ti,2020.1.3,Win32,60,Chrome,1536,864,,,,,,,,,,,,,,,,,2,,,,,,,,,,,,,,,,,,,,,,,,,,,1000.56363,131,left,0.944955,dolphin     ,8,2,1,1,1,1000.582385,1000.582385,1003.07795,0,53,53,53,1,131,8,7,dolphin     ,camel         ,html/resources/sequences_IDs/B/02_dolphin.jpg,html/resources/sequences_IDs/A/03_camel.jpg,2,3,1,1,1,1,1,2,0,31,,,,,,,,,,,,,,,,,,,,
,,,,,31,2020-07-03_15h37.06.323,retriever_ti,2020.1.3,Win32,60,Chrome,1536,864,,,,,,,,,,,,,,,,,2,,,,,,,,,,,,,,,,,,,,,,,,,,,1004.1809,132,right,1.112115,phone       ,2,9,-3,0,3,1004.19898,1004.19898,1006.695355,0,54,54,54,1,132,5,2,hat           ,phone       ,html/resources/sequences_IDs/A/08_hat.jpg,html/resources/sequences_IDs/B/09_phone.jpg,8,9,3,2,4,2,6,7,0,31,,,,,,,,,,,,,,,,,,,,
,,,,,31,2020-07-03_15h37.06.323,retriever_ti,2020.1.3,Win32,60,Chrome,1536,864,,,,,,,,,,,,,,,,,2,,,,,,,,,,,,,,,,,,,,,,,,,,,1007.29763,133,left,1.106915,holdfast    ,4,4,-2,0,3,1007.335615,1007.335615,1009.82789,0,55,55,55,1,133,4,6,holdfast    ,sport_tshirt,html/resources/sequences_IDs/B/04_holdfast.jpg,html/resources/sequences_IDs/B/07_sport_tshirt.jpg,4,7,2,1,3,2,3,5,0,31,,,,,,,,,,,,,,,,,,,,
,,,,,31,2020-07-03_15h37.06.323,retriever_ti,2020.1.3,Win32,60,Chrome,1536,864,,,,,,,,,,,,,,,,,2,,,,,,,,,,,,,,,,,,,,,,,,,,,1010.42944,134,left,0.927145,camel         ,7,3,-1,0,0,1010.464185,1010.464185,1012.96254,0,56,56,56,1,134,7,8,camel         ,dolphin     ,html/resources/sequences_IDs/A/03_camel.jpg,html/resources/sequences_IDs/B/02_dolphin.jpg,3,2,1,1,1,1,2,1,0,31,,,,,,,,,,,,,,,,,,,,
,,,,,31,2020-07-03_15h37.06.323,retriever_ti,2020.1.3,Win32,60,Chrome,1536,864,,,,,,,,,,,,,,,,,2,,,,,,,,,,,,,,,,,,,,,,,,,,,1014.065485,135,left,1.759015,holdfast    ,4,4,3,1,3,1014.08387,1014.08387,1016.57928,0,57,57,57,1,135,4,1,holdfast    ,satellite_dish,html/resources/sequences_IDs/B/04_holdfast.jpg,html/resources/sequences_IDs/A/10_satellite_dish.jpg,4,10,2,1,4,2,3,8,0,31,,,,,,,,,,,,,,,,,,,,
,,,,,31,2020-07-03_15h37.06.323,retriever_ti,2020.1.3,Win32,60,Chrome,1536,864,,,,,,,,,,,,,,,,,2,,,,,,,,,,,,,,,,,,,,,,,,,,,1017.18123,136,right,1.406445,hat           ,5,8,-1,0,0,1017.20071,1017.20071,1019.695485,0,58,58,58,1,136,6,5,sport_tshirt,hat           ,html/resources/sequences_IDs/B/07_sport_tshirt.jpg,html/resources/sequences_IDs/A/08_hat.jpg,7,8,3,2,3,2,5,6,0,31,,,,,,,,,,,,,,,,,,,,
,,,,,31,2020-07-03_15h37.06.323,retriever_ti,2020.1.3,Win32,60,Chrome,1536,864,,,,,,,,,,,,,,,,,2,,,,,,,,,,,,,,,,,,,,,,,,,,,1020.798345,137,left,1.592945,phone       ,2,9,-3,0,3,1020.833305,1020.833305,1023.329055,0,59,59,59,1,137,2,5,phone       ,hat           ,html/resources/sequences_IDs/B/09_phone.jpg,html/resources/sequences_IDs/A/08_hat.jpg,9,8,4,2,3,2,7,6,0,31,,,,,,,,,,,,,,,,,,,,
,,,,,31,2020-07-03_15h37.06.323,retriever_ti,2020.1.3,Win32,60,Chrome,1536,864,,,,,,,,,,,,,,,,,2,,,,,,,,,,,,,,,,,,,,,,,,,,,1023.931855,138,left,1.24797,hat           ,5,8,-1,0,1,1023.949755,1023.949755,1026.44655,0,60,60,60,1,138,5,6,hat           ,sport_tshirt,html/resources/sequences_IDs/A/08_hat.jpg,html/resources/sequences_IDs/B/07_sport_tshirt.jpg,8,7,3,2,3,2,6,5,1,31,,,,,,,,,,,,,,,,,,,,
,,,,,31,2020-07-03_15h37.06.323,retriever_ti,2020.1.3,Win32,60,Chrome,1536,864,,,,,,,,,,,,,,,,,2,,,,,,,,,,,,,,,,,,,,,,,,,,,1027.548835,139,right,1.14821,hat           ,5,8,-1,0,0,1027.567925,1027.567925,1030.063375,0,61,61,61,1,139,6,5,sport_tshirt,hat           ,html/resources/sequences_IDs/B/07_sport_tshirt.jpg,html/resources/sequences_IDs/A/08_hat.jpg,7,8,3,2,3,2,5,6,0,31,,,,,,,,,,,,,,,,,,,,
,,,,,31,2020-07-03_15h37.06.323,retriever_ti,2020.1.3,Win32,60,Chrome,1536,864,,,,,,,,,,,,,,,,,2,,,,,,,,,,,,,,,,,,,,,,,,,,,1031.16671,140,left,0.85812,camel         ,7,3,5,1,3,1031.201565,1031.201565,1033.696235,0,62,62,62,1,140,7,2,camel         ,phone       ,html/resources/sequences_IDs/A/03_camel.jpg,html/resources/sequences_IDs/B/09_phone.jpg,3,9,1,1,4,2,2,7,0,31,,,,,,,,,,,,,,,,,,,,
,,,,,31,2020-07-03_15h37.06.323,retriever_ti,2020.1.3,Win32,60,Chrome,1536,864,,,,,,,,,,,,,,,,,2,,,,,,,,,,,,,,,,,,,,,,,,,,,1034.298755,141,right,1.65138,satellite_dish,1,10,-5,0,3,1034.316945,1034.316945,1036.813085,0,63,63,63,1,141,6,1,sport_tshirt,satellite_dish,html/resources/sequences_IDs/B/07_sport_tshirt.jpg,html/resources/sequences_IDs/A/10_satellite_dish.jpg,7,10,3,2,4,2,5,8,0,31,,,,,,,,,,,,,,,,,,,,
,,,,,31,2020-07-03_15h37.06.323,retriever_ti,2020.1.3,Win32,60,Chrome,1536,864,,,,,,,,,,,,,,,,,2,,,,,,,,,,,,,,,,,,,,,,,,,,,1037.416345,142,right,0.946725,camel         ,7,3,2,1,3,1037.435155,1037.435155,1039.92993,0,64,64,64,1,142,5,7,hat           ,camel         ,html/resources/sequences_IDs/A/08_hat.jpg,html/resources/sequences_IDs/A/03_camel.jpg,8,3,3,2,1,1,6,2,0,31,,,,,,,,,,,,,,,,,,,,
,,,,,31,2020-07-03_15h37.06.323,retriever_ti,2020.1.3,Win32,60,Chrome,1536,864,,,,,,,,,,,,,,,,,2,,,,,,,,,,,,,,,,,,,,,,,,,,,1040.53224,143,right,1.36632,holdfast    ,4,4,-2,0,3,1040.550185,1040.550185,1043.047545,0,65,65,65,1,143,6,4,sport_tshirt,holdfast    ,html/resources/sequences_IDs/B/07_sport_tshirt.jpg,html/resources/sequences_IDs/B/04_holdfast.jpg,7,4,3,2,2,1,5,3,0,31,,,,,,,,,,,,,,,,,,,,
,,,,,31,2020-07-03_15h37.06.323,retriever_ti,2020.1.3,Win32,60,Chrome,1536,864,,,,,,,,,,,,,,,,,2,,,,,,,,,,,,,,,,,,,,,,,,,,,1043.66527,144,right,1.602435,dolphin     ,8,2,1,1,0,1043.6865,1043.6865,1046.180255,0,66,66,66,1,144,7,8,camel         ,dolphin     ,html/resources/sequences_IDs/A/03_camel.jpg,html/resources/sequences_IDs/B/02_dolphin.jpg,3,2,1,1,1,1,2,1,1,31,,,,,,,,,,,,,,,,,,,,
,,,,,31,2020-07-03_15h37.06.323,retriever_ti,2020.1.3,Win32,60,Chrome,1536,864,,,,,,,,,,,,,,,,,2,,,,,,,,,,,,,,,,,,,,,,,,,,,1047.28285,145,right,1.105385,camel         ,7,3,4,1,3,1047.31748,1047.31748,1049.86348,0,67,67,67,1,145,3,7,peacock       ,camel         ,html/resources/sequences_IDs/A/05_peacock.jpg,html/resources/sequences_IDs/A/03_camel.jpg,5,3,2,1,1,1,4,2,0,31,,,,,,,,,,,,,,,,,,,,
,,,,,31,2020-07-03_15h37.06.323,retriever_ti,2020.1.3,Win32,60,Chrome,1536,864,,,,,,,,,,,,,,,,,2,,,,,,,,,,,,,,,,,,,,,,,,,,,1050.466355,146,left,0.549155,camel         ,7,3,1,1,1,1050.48479,1050.48479,1052.981205,0,68,68,68,1,146,7,6,camel         ,sport_tshirt,html/resources/sequences_IDs/A/03_camel.jpg,html/resources/sequences_IDs/B/07_sport_tshirt.jpg,3,7,1,1,3,2,2,5,0,31,,,,,,,,,,,,,,,,,,,,
,,,,,31,2020-07-03_15h37.06.323,retriever_ti,2020.1.3,Win32,60,Chrome,1536,864,,,,,,,,,,,,,,,,,2,,,,,,,,,,,,,,,,,,,,,,,,,,,1054.084185,147,right,0.86601,holdfast    ,4,4,1,1,0,1054.1029,1054.1029,1056.59805,0,69,69,69,1,147,3,4,peacock       ,holdfast    ,html/resources/sequences_IDs/A/05_peacock.jpg,html/resources/sequences_IDs/B/04_holdfast.jpg,5,4,2,1,2,1,4,3,1,31,,,,,,,,,,,,,,,,,,,,
,,,,,31,2020-07-03_15h37.06.323,retriever_ti,2020.1.3,Win32,60,Chrome,1536,864,,,,,,,,,,,,,,,,,2,,,,,,,,,,,,,,,,,,,,,,,,,,,1057.700075,148,left,0.762705,peacock       ,3,5,-1,0,0,1057.71934,1057.71934,1060.21439,0,70,70,70,1,148,3,4,peacock       ,holdfast    ,html/resources/sequences_IDs/A/05_peacock.jpg,html/resources/sequences_IDs/B/04_holdfast.jpg,5,4,2,1,2,1,4,3,0,31,,,,,,,,,,,,,,,,,,,,
,,,,,31,2020-07-03_15h37.06.323,retriever_ti,2020.1.3,Win32,60,Chrome,1536,864,,,,,,,,,,,,,,,,,2,,,,,,,,,,,,,,,,,,,,,,,,,,,1061.316895,149,left,0.841185,dolphin     ,8,2,7,1,3,1061.335015,1061.335015,1063.83114,0,71,71,71,1,149,8,1,dolphin     ,satellite_dish,html/resources/sequences_IDs/B/02_dolphin.jpg,html/resources/sequences_IDs/A/10_satellite_dish.jpg,2,10,1,1,4,2,1,8,0,31,,,,,,,,,,,,,,,,,,,,
,,,,,31,2020-07-03_15h37.06.323,retriever_ti,2020.1.3,Win32,60,Chrome,1536,864,,,,,,,,,,,,,,,,,2,,,,,,,,,,,,,,,,,,,,,,,,,,,1064.434795,150,left,1.2175,holdfast    ,4,4,-1,0,0,1064.468785,1064.468785,1066.96475,0,72,72,72,1,150,4,5,holdfast    ,hat           ,html/resources/sequences_IDs/B/04_holdfast.jpg,html/resources/sequences_IDs/A/08_hat.jpg,4,8,2,1,3,2,3,6,0,31,,,,,,,,,,,,,,,,,,,,
,,,,,31,2020-07-03_15h37.06.323,retriever_ti,2020.1.3,Win32,60,Chrome,1536,864,,,,,,,,,,,,,,,,,2,,,,,,,,,,,,,,,,,,,,,,,,,,,1068.068115,151,right,1.291335,dolphin     ,8,2,6,1,3,1068.103655,1068.103655,1070.598775,0,73,73,73,1,151,2,8,phone       ,dolphin     ,html/resources/sequences_IDs/B/09_phone.jpg,html/resources/sequences_IDs/B/02_dolphin.jpg,9,2,4,2,1,1,7,1,0,31,,,,,,,,,,,,,,,,,,,,
,,,,,31,2020-07-03_15h37.06.323,retriever_ti,2020.1.3,Win32,60,Chrome,1536,864,,,,,,,,,,,,,,,,,2,,,,,,,,,,,,,,,,,,,,,,,,,,,1071.200765,152,left,0.956865,holdfast    ,4,4,2,1,3,1071.23824,1071.23824,1073.73174,0,74,74,74,1,152,4,2,holdfast    ,phone       ,html/resources/sequences_IDs/B/04_holdfast.jpg,html/resources/sequences_IDs/B/09_phone.jpg,4,9,2,1,4,2,3,7,0,31,,,,,,,,,,,,,,,,,,,,
,,,,,31,2020-07-03_15h37.06.323,retriever_ti,2020.1.3,Win32,60,Chrome,1536,864,,,,,,,,,,,,,,,,,2,,,,,,,,,,,,,,,,,,,,,,,,,,,1074.33419,153,right,0.99447,satellite_dish,1,10,-4,0,3,1074.37083,1074.37083,1076.86597,0,75,75,75,1,153,5,1,hat           ,satellite_dish,html/resources/sequences_IDs/A/08_hat.jpg,html/resources/sequences_IDs/A/10_satellite_dish.jpg,8,10,3,2,4,2,6,8,0,31,,,,,,,,,,,,,,,,,,,,
,,,,,31,2020-07-03_15h37.06.323,retriever_ti,2020.1.3,Win32,60,Chrome,1536,864,,,,,,,,,,,,,,,,,2,,,,,,,,,,,,,,,,,,,,,,,,,,,1077.48328,154,right,1.0857,phone       ,2,9,-6,0,3,1077.518985,1077.518985,1080.01535,0,76,76,76,1,154,8,2,dolphin     ,phone       ,html/resources/sequences_IDs/B/02_dolphin.jpg,html/resources/sequences_IDs/B/09_phone.jpg,2,9,1,1,4,2,1,7,0,31,,,,,,,,,,,,,,,,,,,,
,,,,,31,2020-07-03_15h37.06.323,retriever_ti,2020.1.3,Win32,60,Chrome,1536,864,,,,,,,,,,,,,,,,,,,,,,,,,,,,,,,,,,,,,0,3.128495,,,,,,,,,,,,,,,,,,,,,,,,,,,,,,,,,,,,,,,,,1,0,1,0,1,,,,,,,,,,,,,,,
,,,,,31,2020-07-03_15h37.06.323,retriever_ti,2020.1.3,Win32,60,Chrome,1536,864,,,,,,,,,,,,,,,,,3,,,,,,,,,,,,,,,,,,,,,,,,,,,1155.64854,155,left,0.725935,hat           ,5,8,-1,0,0,1155.671925,1155.671925,1158.17052,0,0,0,0,1,155,5,6,hat           ,sport_tshirt,html/resources/sequences_IDs/A/08_hat.jpg,html/resources/sequences_IDs/B/07_sport_tshirt.jpg,8,7,3,2,3,2,6,5,0,31,,,,,,,,,,,,,,,,,,,,
,,,,,31,2020-07-03_15h37.06.323,retriever_ti,2020.1.3,Win32,60,Chrome,1536,864,,,,,,,,,,,,,,,,,3,,,,,,,,,,,,,,,,,,,,,,,,,,,1159.27378,156,left,0.54818,camel         ,7,3,-1,0,0,1159.309215,1159.309215,1161.803485,0,1,1,1,1,156,7,8,camel         ,dolphin     ,html/resources/sequences_IDs/A/03_camel.jpg,html/resources/sequences_IDs/B/02_dolphin.jpg,3,2,1,1,1,1,2,1,0,31,,,,,,,,,,,,,,,,,,,,
,,,,,31,2020-07-03_15h37.06.323,retriever_ti,2020.1.3,Win32,60,Chrome,1536,864,,,,,,,,,,,,,,,,,3,,,,,,,,,,,,,,,,,,,,,,,,,,,1162.905655,157,right,1.787855,hat           ,5,8,-1,0,0,1162.94085,1162.94085,1165.43717,0,2,2,2,1,157,6,5,sport_tshirt,hat           ,html/resources/sequences_IDs/B/07_sport_tshirt.jpg,html/resources/sequences_IDs/A/08_hat.jpg,7,8,3,2,3,2,5,6,0,31,,,,,,,,,,,,,,,,,,,,
,,,,,31,2020-07-03_15h37.06.323,retriever_ti,2020.1.3,Win32,60,Chrome,1536,864,,,,,,,,,,,,,,,,,3,,,,,,,,,,,,,,,,,,,,,,,,,,,1166.53921,158,left,0.98775,dolphin     ,8,2,5,1,3,1166.5576,1166.5576,1169.054095,0,3,3,3,1,158,8,3,dolphin     ,peacock       ,html/resources/sequences_IDs/B/02_dolphin.jpg,html/resources/sequences_IDs/A/05_peacock.jpg,2,5,1,1,2,1,1,4,0,31,,,,,,,,,,,,,,,,,,,,
,,,,,31,2020-07-03_15h37.06.323,retriever_ti,2020.1.3,Win32,60,Chrome,1536,864,,,,,,,,,,,,,,,,,3,,,,,,,,,,,,,,,,,,,,,,,,,,,1169.65645,159,right,0.898645,peacock       ,3,5,2,1,3,1169.692135,1169.692135,1172.187515,0,4,4,4,1,159,1,3,satellite_dish,peacock       ,html/resources/sequences_IDs/A/10_satellite_dish.jpg,html/resources/sequences_IDs/A/05_peacock.jpg,10,5,4,2,2,1,8,4,0,31,,,,,,,,,,,,,,,,,,,,
,,,,,31,2020-07-03_15h37.06.323,retriever_ti,2020.1.3,Win32,60,Chrome,1536,864,,,,,,,,,,,,,,,,,3,,,,,,,,,,,,,,,,,,,,,,,,,,,1172.790785,160,left,0.86242,holdfast    ,4,4,-2,0,3,1172.80925,1172.80925,1175.30386,0,5,5,5,1,160,4,6,holdfast    ,sport_tshirt,html/resources/sequences_IDs/B/04_holdfast.jpg,html/resources/sequences_IDs/B/07_sport_tshirt.jpg,4,7,2,1,3,2,3,5,0,31,,,,,,,,,,,,,,,,,,,,
,,,,,31,2020-07-03_15h37.06.323,retriever_ti,2020.1.3,Win32,60,Chrome,1536,864,,,,,,,,,,,,,,,,,3,,,,,,,,,,,,,,,,,,,,,,,,,,,1175.905605,161,left,1.002535,dolphin     ,8,2,4,1,3,1175.9253,1175.9253,1178.42102,0,6,6,6,1,161,8,4,dolphin     ,holdfast    ,html/resources/sequences_IDs/B/02_dolphin.jpg,html/resources/sequences_IDs/B/04_holdfast.jpg,2,4,1,1,2,1,1,3,0,31,,,,,,,,,,,,,,,,,,,,
,,,,,31,2020-07-03_15h37.06.323,retriever_ti,2020.1.3,Win32,60,Chrome,1536,864,,,,,,,,,,,,,,,,,3,,,,,,,,,,,,,,,,,,,,,,,,,,,1179.02402,162,right,0.81073,camel         ,7,3,1,1,1,1179.042985,1179.042985,1181.538075,0,7,7,7,1,162,6,7,sport_tshirt,camel         ,html/resources/sequences_IDs/B/07_sport_tshirt.jpg,html/resources/sequences_IDs/A/03_camel.jpg,7,3,3,2,1,1,5,2,0,31,,,,,,,,,,,,,,,,,,,,
,,,,,31,2020-07-03_15h37.06.323,retriever_ti,2020.1.3,Win32,60,Chrome,1536,864,,,,,,,,,,,,,,,,,3,,,,,,,,,,,,,,,,,,,,,,,,,,,1182.63992,163,right,0.87049,dolphin     ,8,2,7,1,3,1182.67447,1182.67447,1185.17223,0,8,8,8,1,163,1,8,satellite_dish,dolphin     ,html/resources/sequences_IDs/A/10_satellite_dish.jpg,html/resources/sequences_IDs/B/02_dolphin.jpg,10,2,4,2,1,1,8,1,0,31,,,,,,,,,,,,,,,,,,,,
,,,,,31,2020-07-03_15h37.06.323,retriever_ti,2020.1.3,Win32,60,Chrome,1536,864,,,,,,,,,,,,,,,,,3,,,,,,,,,,,,,,,,,,,,,,,,,,,1185.7897,164,left,1.25578,camel         ,7,3,1,1,1,1185.808745,1185.808745,1188.304495,0,9,9,9,1,164,7,6,camel         ,sport_tshirt,html/resources/sequences_IDs/A/03_camel.jpg,html/resources/sequences_IDs/B/07_sport_tshirt.jpg,3,7,1,1,3,2,2,5,0,31,,,,,,,,,,,,,,,,,,,,
,,,,,31,2020-07-03_15h37.06.323,retriever_ti,2020.1.3,Win32,60,Chrome,1536,864,,,,,,,,,,,,,,,,,3,,,,,,,,,,,,,,,,,,,,,,,,,,,1189.405995,165,left,1.24128,camel         ,7,3,3,1,3,1189.44045,1189.44045,1191.938075,0,10,10,10,1,165,7,4,camel         ,holdfast    ,html/resources/sequences_IDs/A/03_camel.jpg,html/resources/sequences_IDs/B/04_holdfast.jpg,3,4,1,1,2,1,2,3,0,31,,,,,,,,,,,,,,,,,,,,
,,,,,31,2020-07-03_15h37.06.323,retriever_ti,2020.1.3,Win32,60,Chrome,1536,864,,,,,,,,,,,,,,,,,3,,,,,,,,,,,,,,,,,,,,,,,,,,,1192.555815,166,left,0.7208,peacock       ,3,5,-2,0,3,1192.573565,1192.573565,1195.071595,0,11,11,11,1,166,3,5,peacock       ,hat           ,html/resources/sequences_IDs/A/05_peacock.jpg,html/resources/sequences_IDs/A/08_hat.jpg,5,8,2,1,3,2,4,6,0,31,,,,,,,,,,,,,,,,,,,,
,,,,,31,2020-07-03_15h37.06.323,retriever_ti,2020.1.3,Win32,60,Chrome,1536,864,,,,,,,,,,,,,,,,,3,,,,,,,,,,,,,,,,,,,,,,,,,,,1195.688635,167,left,1.593645,phone       ,2,9,-3,0,3,1195.70713,1195.70713,1198.20514,0,12,12,12,1,167,2,5,phone       ,hat           ,html/resources/sequences_IDs/B/09_phone.jpg,html/resources/sequences_IDs/A/08_hat.jpg,9,8,4,2,3,2,7,6,0,31,,,,,,,,,,,,,,,,,,,,
,,,,,31,2020-07-03_15h37.06.323,retriever_ti,2020.1.3,Win32,60,Chrome,1536,864,,,,,,,,,,,,,,,,,3,,,,,,,,,,,,,,,,,,,,,,,,,,,1198.82445,168,right,1.544125,phone       ,2,9,-3,0,3,1198.85915,1198.85915,1201.3552,0,13,13,13,1,168,5,2,hat           ,phone       ,html/resources/sequences_IDs/A/08_hat.jpg,html/resources/sequences_IDs/B/09_phone.jpg,8,9,3,2,4,2,6,7,0,31,,,,,,,,,,,,,,,,,,,,
,,,,,31,2020-07-03_15h37.06.323,retriever_ti,2020.1.3,Win32,60,Chrome,1536,864,,,,,,,,,,,,,,,,,3,,,,,,,,,,,,,,,,,,,,,,,,,,,1201.956615,169,left,1.16756,peacock       ,3,5,1,1,0,1201.97628,1201.97628,1204.47261,0,14,14,14,1,169,3,2,peacock       ,phone       ,html/resources/sequences_IDs/A/05_peacock.jpg,html/resources/sequences_IDs/B/09_phone.jpg,5,9,2,1,4,2,4,7,1,31,,,,,,,,,,,,,,,,,,,,
,,,,,31,2020-07-03_15h37.06.323,retriever_ti,2020.1.3,Win32,60,Chrome,1536,864,,,,,,,,,,,,,,,,,3,,,,,,,,,,,,,,,,,,,,,,,,,,,1205.57452,170,right,0.5351,phone       ,2,9,-1,0,0,1205.609495,1205.609495,1208.10554,0,15,15,15,1,170,3,2,peacock       ,phone       ,html/resources/sequences_IDs/A/05_peacock.jpg,html/resources/sequences_IDs/B/09_phone.jpg,5,9,2,1,4,2,4,7,0,31,,,,,,,,,,,,,,,,,,,,
,,,,,31,2020-07-03_15h37.06.323,retriever_ti,2020.1.3,Win32,60,Chrome,1536,864,,,,,,,,,,,,,,,,,3,,,,,,,,,,,,,,,,,,,,,,,,,,,1209.208425,171,right,1.1177,phone       ,2,9,-1,0,0,1209.24368,1209.24368,1211.73971,0,16,16,16,1,171,3,2,peacock       ,phone       ,html/resources/sequences_IDs/A/05_peacock.jpg,html/resources/sequences_IDs/B/09_phone.jpg,5,9,2,1,4,2,4,7,0,31,,,,,,,,,,,,,,,,,,,,
,,,,,31,2020-07-03_15h37.06.323,retriever_ti,2020.1.3,Win32,60,Chrome,1536,864,,,,,,,,,,,,,,,,,3,,,,,,,,,,,,,,,,,,,,,,,,,,,1212.84301,172,left,1.02916,peacock       ,3,5,-3,0,3,1212.86148,1212.86148,1215.356515,0,17,17,17,1,172,3,6,peacock       ,sport_tshirt,html/resources/sequences_IDs/A/05_peacock.jpg,html/resources/sequences_IDs/B/07_sport_tshirt.jpg,5,7,2,1,3,2,4,5,0,31,,,,,,,,,,,,,,,,,,,,
,,,,,31,2020-07-03_15h37.06.323,retriever_ti,2020.1.3,Win32,60,Chrome,1536,864,,,,,,,,,,,,,,,,,3,,,,,,,,,,,,,,,,,,,,,,,,,,,1215.97447,173,left,0.691355,peacock       ,3,5,2,1,3,1216.009565,1216.009565,1218.50596,0,18,18,18,1,173,3,1,peacock       ,satellite_dish,html/resources/sequences_IDs/A/05_peacock.jpg,html/resources/sequences_IDs/A/10_satellite_dish.jpg,5,10,2,1,4,2,4,8,0,31,,,,,,,,,,,,,,,,,,,,
,,,,,31,2020-07-03_15h37.06.323,retriever_ti,2020.1.3,Win32,60,Chrome,1536,864,,,,,,,,,,,,,,,,,3,,,,,,,,,,,,,,,,,,,,,,,,,,,1219.125435,174,left,0.78215,camel         ,7,3,4,1,3,1219.15995,1219.15995,1221.65683,0,19,19,19,1,174,7,3,camel         ,peacock       ,html/resources/sequences_IDs/A/03_camel.jpg,html/resources/sequences_IDs/A/05_peacock.jpg,3,5,1,1,2,1,2,4,0,31,,,,,,,,,,,,,,,,,,,,
,,,,,31,2020-07-03_15h37.06.323,retriever_ti,2020.1.3,Win32,60,Chrome,1536,864,,,,,,,,,,,,,,,,,3,,,,,,,,,,,,,,,,,,,,,,,,,,,1222.25991,175,right,0.994625,camel         ,7,3,2,1,3,1222.29523,1222.29523,1224.789865,0,20,20,20,1,175,5,7,hat           ,camel         ,html/resources/sequences_IDs/A/08_hat.jpg,html/resources/sequences_IDs/A/03_camel.jpg,8,3,3,2,1,1,6,2,0,31,,,,,,,,,,,,,,,,,,,,
,,,,,31,2020-07-03_15h37.06.323,retriever_ti,2020.1.3,Win32,60,Chrome,1536,864,,,,,,,,,,,,,,,,,3,,,,,,,,,,,,,,,,,,,,,,,,,,,1225.392655,176,right,1.96591,camel         ,7,3,4,1,3,1225.41309,1225.41309,1227.90682,0,21,21,21,1,176,3,7,peacock       ,camel         ,html/resources/sequences_IDs/A/05_peacock.jpg,html/resources/sequences_IDs/A/03_camel.jpg,5,3,2,1,1,1,4,2,0,31,,,,,,,,,,,,,,,,,,,,
,,,,,31,2020-07-03_15h37.06.323,retriever_ti,2020.1.3,Win32,60,Chrome,1536,864,,,,,,,,,,,,,,,,,3,,,,,,,,,,,,,,,,,,,,,,,,,,,1228.5087,177,left,0.68224,satellite_dish,1,10,-3,0,3,1228.544105,1228.544105,1231.040755,0,22,22,22,1,177,1,4,satellite_dish,holdfast    ,html/resources/sequences_IDs/A/10_satellite_dish.jpg,html/resources/sequences_IDs/B/04_holdfast.jpg,10,4,4,2,2,1,8,3,0,31,,,,,,,,,,,,,,,,,,,,
,,,,,31,2020-07-03_15h37.06.323,retriever_ti,2020.1.3,Win32,60,Chrome,1536,864,,,,,,,,,,,,,,,,,3,,,,,,,,,,,,,,,,,,,,,,,,,,,1231.65869,178,right,0.652585,hat           ,5,8,1,1,1,1231.67775,1231.67775,1234.17423,0,23,23,23,1,178,4,5,holdfast    ,hat           ,html/resources/sequences_IDs/B/04_holdfast.jpg,html/resources/sequences_IDs/A/08_hat.jpg,4,8,2,1,3,2,3,6,0,31,,,,,,,,,,,,,,,,,,,,
,,,,,31,2020-07-03_15h37.06.323,retriever_ti,2020.1.3,Win32,60,Chrome,1536,864,,,,,,,,,,,,,,,,,3,,,,,,,,,,,,,,,,,,,,,,,,,,,1235.27594,179,left,0.95347,camel         ,7,3,2,1,3,1235.3113,1235.3113,1237.807695,0,24,24,24,1,179,7,5,camel         ,hat           ,html/resources/sequences_IDs/A/03_camel.jpg,html/resources/sequences_IDs/A/08_hat.jpg,3,8,1,1,3,2,2,6,0,31,,,,,,,,,,,,,,,,,,,,
,,,,,31,2020-07-03_15h37.06.323,retriever_ti,2020.1.3,Win32,60,Chrome,1536,864,,,,,,,,,,,,,,,,,3,,,,,,,,,,,,,,,,,,,,,,,,,,,1238.427085,180,left,0.93933,dolphin     ,8,2,6,1,3,1238.44445,1238.44445,1240.941355,0,25,25,25,1,180,8,2,dolphin     ,phone       ,html/resources/sequences_IDs/B/02_dolphin.jpg,html/resources/sequences_IDs/B/09_phone.jpg,2,9,1,1,4,2,1,7,0,31,,,,,,,,,,,,,,,,,,,,
,,,,,31,2020-07-03_15h37.06.323,retriever_ti,2020.1.3,Win32,60,Chrome,1536,864,,,,,,,,,,,,,,,,,3,,,,,,,,,,,,,,,,,,,,,,,,,,,1241.559215,181,right,0.63436,holdfast    ,4,4,-2,0,3,1241.59488,1241.59488,1244.09166,0,26,26,26,1,181,6,4,sport_tshirt,holdfast    ,html/resources/sequences_IDs/B/07_sport_tshirt.jpg,html/resources/sequences_IDs/B/04_holdfast.jpg,7,4,3,2,2,1,5,3,0,31,,,,,,,,,,,,,,,,,,,,
,,,,,31,2020-07-03_15h37.06.323,retriever_ti,2020.1.3,Win32,60,Chrome,1536,864,,,,,,,,,,,,,,,,,3,,,,,,,,,,,,,,,,,,,,,,,,,,,1244.711765,182,right,0.712395,camel         ,7,3,6,1,3,1244.729825,1244.729825,1247.224905,0,27,27,27,1,182,1,7,satellite_dish,camel         ,html/resources/sequences_IDs/A/10_satellite_dish.jpg,html/resources/sequences_IDs/A/03_camel.jpg,10,3,4,2,1,1,8,2,0,31,,,,,,,,,,,,,,,,,,,,
,,,,,31,2020-07-03_15h37.06.323,retriever_ti,2020.1.3,Win32,60,Chrome,1536,864,,,,,,,,,,,,,,,,,3,,,,,,,,,,,,,,,,,,,,,,,,,,,1247.82739,183,left,0.54271,phone       ,2,9,1,1,1,1247.864085,1247.864085,1250.35844,0,28,28,28,1,183,2,1,phone       ,satellite_dish,html/resources/sequences_IDs/B/09_phone.jpg,html/resources/sequences_IDs/A/10_satellite_dish.jpg,9,10,4,2,4,2,7,8,0,31,,,,,,,,,,,,,,,,,,,,
,,,,,31,2020-07-03_15h37.06.323,retriever_ti,2020.1.3,Win32,60,Chrome,1536,864,,,,,,,,,,,,,,,,,3,,,,,,,,,,,,,,,,,,,,,,,,,,,1251.460285,184,right,1.01841,dolphin     ,8,2,3,1,3,1251.47903,1251.47903,1253.97471,0,29,29,29,1,184,5,8,hat           ,dolphin     ,html/resources/sequences_IDs/A/08_hat.jpg,html/resources/sequences_IDs/B/02_dolphin.jpg,8,2,3,2,1,1,6,1,0,31,,,,,,,,,,,,,,,,,,,,
,,,,,31,2020-07-03_15h37.06.323,retriever_ti,2020.1.3,Win32,60,Chrome,1536,864,,,,,,,,,,,,,,,,,3,,,,,,,,,,,,,,,,,,,,,,,,,,,1254.59267,185,right,1.355585,holdfast    ,4,4,2,1,3,1254.610075,1254.610075,1257.108775,0,30,30,30,1,185,2,4,phone       ,holdfast    ,html/resources/sequences_IDs/B/09_phone.jpg,html/resources/sequences_IDs/B/04_holdfast.jpg,9,4,4,2,2,1,7,3,0,31,,,,,,,,,,,,,,,,,,,,
,,,,,31,2020-07-03_15h37.06.323,retriever_ti,2020.1.3,Win32,60,Chrome,1536,864,,,,,,,,,,,,,,,,,3,,,,,,,,,,,,,,,,,,,,,,,,,,,1257.71111,186,left,0.77622,camel         ,7,3,1,1,0,1257.733075,1257.733075,1260.22559,0,31,31,31,1,186,7,6,camel         ,sport_tshirt,html/resources/sequences_IDs/A/03_camel.jpg,html/resources/sequences_IDs/B/07_sport_tshirt.jpg,3,7,1,1,3,2,2,5,1,31,,,,,,,,,,,,,,,,,,,,
,,,,,31,2020-07-03_15h37.06.323,retriever_ti,2020.1.3,Win32,60,Chrome,1536,864,,,,,,,,,,,,,,,,,3,,,,,,,,,,,,,,,,,,,,,,,,,,,1261.32956,187,right,2.100505,peacock       ,3,5,-1,0,1,1261.347185,1261.347185,1263.842435,0,32,32,32,1,187,4,3,holdfast    ,peacock       ,html/resources/sequences_IDs/B/04_holdfast.jpg,html/resources/sequences_IDs/A/05_peacock.jpg,4,5,2,1,2,1,3,4,1,31,,,,,,,,,,,,,,,,,,,,
,,,,,31,2020-07-03_15h37.06.323,retriever_ti,2020.1.3,Win32,60,Chrome,1536,864,,,,,,,,,,,,,,,,,3,,,,,,,,,,,,,,,,,,,,,,,,,,,1264.947855,188,right,0.90901,dolphin     ,8,2,6,1,3,1264.994655,1264.994655,1267.492125,0,33,33,33,1,188,2,8,phone       ,dolphin     ,html/resources/sequences_IDs/B/09_phone.jpg,html/resources/sequences_IDs/B/02_dolphin.jpg,9,2,4,2,1,1,7,1,0,31,,,,,,,,,,,,,,,,,,,,
,,,,,31,2020-07-03_15h37.06.323,retriever_ti,2020.1.3,Win32,60,Chrome,1536,864,,,,,,,,,,,,,,,,,3,,,,,,,,,,,,,,,,,,,,,,,,,,,1268.095145,189,right,1.85172,hat           ,5,8,4,1,3,1268.11488,1268.11488,1270.608865,0,34,34,34,1,189,1,5,satellite_dish,hat           ,html/resources/sequences_IDs/A/10_satellite_dish.jpg,html/resources/sequences_IDs/A/08_hat.jpg,10,8,4,2,3,2,8,6,0,31,,,,,,,,,,,,,,,,,,,,
,,,,,31,2020-07-03_15h37.06.323,retriever_ti,2020.1.3,Win32,60,Chrome,1536,864,,,,,,,,,,,,,,,,,3,,,,,,,,,,,,,,,,,,,,,,,,,,,1271.226715,190,left,1.172205,peacock       ,3,5,-1,0,0,1271.260845,1271.260845,1273.758975,0,35,35,35,1,190,3,4,peacock       ,holdfast    ,html/resources/sequences_IDs/A/05_peacock.jpg,html/resources/sequences_IDs/B/04_holdfast.jpg,5,4,2,1,2,1,4,3,0,31,,,,,,,,,,,,,,,,,,,,
,,,,,31,2020-07-03_15h37.06.323,retriever_ti,2020.1.3,Win32,60,Chrome,1536,864,,,,,,,,,,,,,,,,,3,,,,,,,,,,,,,,,,,,,,,,,,,,,1274.86058,191,right,0.893885,dolphin     ,8,2,4,1,3,1274.894955,1274.894955,1277.39263,0,36,36,36,1,191,4,8,holdfast    ,dolphin     ,html/resources/sequences_IDs/B/04_holdfast.jpg,html/resources/sequences_IDs/B/02_dolphin.jpg,4,2,2,1,1,1,3,1,0,31,,,,,,,,,,,,,,,,,,,,
,,,,,31,2020-07-03_15h37.06.323,retriever_ti,2020.1.3,Win32,60,Chrome,1536,864,,,,,,,,,,,,,,,,,3,,,,,,,,,,,,,,,,,,,,,,,,,,,1277.995475,192,right,0.969165,hat           ,5,8,1,1,0,1278.0146,1278.0146,1280.509405,0,37,37,37,1,192,4,5,holdfast    ,hat           ,html/resources/sequences_IDs/B/04_holdfast.jpg,html/resources/sequences_IDs/A/08_hat.jpg,4,8,2,1,3,2,3,6,1,31,,,,,,,,,,,,,,,,,,,,
,,,,,31,2020-07-03_15h37.06.323,retriever_ti,2020.1.3,Win32,60,Chrome,1536,864,,,,,,,,,,,,,,,,,3,,,,,,,,,,,,,,,,,,,,,,,,,,,1281.61064,193,right,2.127335,peacock       ,3,5,-3,0,3,1281.64526,1281.64526,1284.14593,0,38,38,38,1,193,6,3,sport_tshirt,peacock       ,html/resources/sequences_IDs/B/07_sport_tshirt.jpg,html/resources/sequences_IDs/A/05_peacock.jpg,7,5,3,2,2,1,5,4,0,31,,,,,,,,,,,,,,,,,,,,
,,,,,31,2020-07-03_15h37.06.323,retriever_ti,2020.1.3,Win32,60,Chrome,1536,864,,,,,,,,,,,,,,,,,3,,,,,,,,,,,,,,,,,,,,,,,,,,,1284.763895,194,right,1.204285,camel         ,7,3,3,1,3,1284.79865,1284.79865,1287.293695,0,39,39,39,1,194,4,7,holdfast    ,camel         ,html/resources/sequences_IDs/B/04_holdfast.jpg,html/resources/sequences_IDs/A/03_camel.jpg,4,3,2,1,1,1,3,2,0,31,,,,,,,,,,,,,,,,,,,,
,,,,,31,2020-07-03_15h37.06.323,retriever_ti,2020.1.3,Win32,60,Chrome,1536,864,,,,,,,,,,,,,,,,,3,,,,,,,,,,,,,,,,,,,,,,,,,,,1287.89599,195,left,0.86033,dolphin     ,8,2,1,1,1,1287.933785,1287.933785,1290.427215,0,40,40,40,1,195,8,7,dolphin     ,camel         ,html/resources/sequences_IDs/B/02_dolphin.jpg,html/resources/sequences_IDs/A/03_camel.jpg,2,3,1,1,1,1,1,2,0,31,,,,,,,,,,,,,,,,,,,,
,,,,,31,2020-07-03_15h37.06.323,retriever_ti,2020.1.3,Win32,60,Chrome,1536,864,,,,,,,,,,,,,,,,,3,,,,,,,,,,,,,,,,,,,,,,,,,,,1291.52821,196,right,1.048685,phone       ,2,9,1,1,1,1291.56334,1291.56334,1294.06019,0,41,41,41,1,196,1,2,satellite_dish,phone       ,html/resources/sequences_IDs/A/10_satellite_dish.jpg,html/resources/sequences_IDs/B/09_phone.jpg,10,9,4,2,4,2,8,7,0,31,,,,,,,,,,,,,,,,,,,,
,,,,,31,2020-07-03_15h37.06.323,retriever_ti,2020.1.3,Win32,60,Chrome,1536,864,,,,,,,,,,,,,,,,,3,,,,,,,,,,,,,,,,,,,,,,,,,,,1295.16172,197,left,1.28331,hat           ,5,8,-1,0,0,1295.17908,1295.17908,1297.677605,0,42,42,42,1,197,5,6,hat           ,sport_tshirt,html/resources/sequences_IDs/A/08_hat.jpg,html/resources/sequences_IDs/B/07_sport_tshirt.jpg,8,7,3,2,3,2,6,5,0,31,,,,,,,,,,,,,,,,,,,,
,,,,,31,2020-07-03_15h37.06.323,retriever_ti,2020.1.3,Win32,60,Chrome,1536,864,,,,,,,,,,,,,,,,,3,,,,,,,,,,,,,,,,,,,,,,,,,,,1298.780675,198,right,1.33834,phone       ,2,9,-4,0,3,1298.799005,1298.799005,1301.2939,0,43,43,43,1,198,6,2,sport_tshirt,phone       ,html/resources/sequences_IDs/B/07_sport_tshirt.jpg,html/resources/sequences_IDs/B/09_phone.jpg,7,9,3,2,4,2,5,7,0,31,,,,,,,,,,,,,,,,,,,,
,,,,,31,2020-07-03_15h37.06.323,retriever_ti,2020.1.3,Win32,60,Chrome,1536,864,,,,,,,,,,,,,,,,,3,,,,,,,,,,,,,,,,,,,,,,,,,,,1301.895775,199,right,1.32007,holdfast    ,4,4,-1,0,0,1301.93147,1301.93147,1304.427365,0,44,44,44,1,199,5,4,hat           ,holdfast    ,html/resources/sequences_IDs/A/08_hat.jpg,html/resources/sequences_IDs/B/04_holdfast.jpg,8,4,3,2,2,1,6,3,0,31,,,,,,,,,,,,,,,,,,,,
,,,,,31,2020-07-03_15h37.06.323,retriever_ti,2020.1.3,Win32,60,Chrome,1536,864,,,,,,,,,,,,,,,,,3,,,,,,,,,,,,,,,,,,,,,,,,,,,1305.52981,200,left,1.05062,holdfast    ,4,4,3,1,3,1305.54825,1305.54825,1308.04422,0,45,45,45,1,200,4,1,holdfast    ,satellite_dish,html/resources/sequences_IDs/B/04_holdfast.jpg,html/resources/sequences_IDs/A/10_satellite_dish.jpg,4,10,2,1,4,2,3,8,0,31,,,,,,,,,,,,,,,,,,,,
,,,,,31,2020-07-03_15h37.06.323,retriever_ti,2020.1.3,Win32,60,Chrome,1536,864,,,,,,,,,,,,,,,,,3,,,,,,,,,,,,,,,,,,,,,,,,,,,1308.64801,201,right,0.525995,hat           ,5,8,-1,0,0,1308.66626,1308.66626,1311.161325,0,46,46,46,1,201,6,5,sport_tshirt,hat           ,html/resources/sequences_IDs/B/07_sport_tshirt.jpg,html/resources/sequences_IDs/A/08_hat.jpg,7,8,3,2,3,2,5,6,0,31,,,,,,,,,,,,,,,,,,,,
,,,,,31,2020-07-03_15h37.06.323,retriever_ti,2020.1.3,Win32,60,Chrome,1536,864,,,,,,,,,,,,,,,,,3,,,,,,,,,,,,,,,,,,,,,,,,,,,1312.264385,202,right,1.280955,peacock       ,3,5,-1,0,0,1312.298365,1312.298365,1314.794465,0,47,47,47,1,202,4,3,holdfast    ,peacock       ,html/resources/sequences_IDs/B/04_holdfast.jpg,html/resources/sequences_IDs/A/05_peacock.jpg,4,5,2,1,2,1,3,4,0,31,,,,,,,,,,,,,,,,,,,,
,,,,,31,2020-07-03_15h37.06.323,retriever_ti,2020.1.3,Win32,60,Chrome,1536,864,,,,,,,,,,,,,,,,,3,,,,,,,,,,,,,,,,,,,,,,,,,,,1315.897125,203,left,0.662545,hat           ,5,8,2,1,3,1315.934005,1315.934005,1318.42873,0,48,48,48,1,203,5,3,hat           ,peacock       ,html/resources/sequences_IDs/A/08_hat.jpg,html/resources/sequences_IDs/A/05_peacock.jpg,8,5,3,2,2,1,6,4,0,31,,,,,,,,,,,,,,,,,,,,
,,,,,31,2020-07-03_15h37.06.323,retriever_ti,2020.1.3,Win32,60,Chrome,1536,864,,,,,,,,,,,,,,,,,3,,,,,,,,,,,,,,,,,,,,,,,,,,,1319.031815,204,right,1.240765,holdfast    ,4,4,1,1,1,1319.050645,1319.050645,1321.544935,0,49,49,49,1,204,3,4,peacock       ,holdfast    ,html/resources/sequences_IDs/A/05_peacock.jpg,html/resources/sequences_IDs/B/04_holdfast.jpg,5,4,2,1,2,1,4,3,0,31,,,,,,,,,,,,,,,,,,,,
,,,,,31,2020-07-03_15h37.06.323,retriever_ti,2020.1.3,Win32,60,Chrome,1536,864,,,,,,,,,,,,,,,,,3,,,,,,,,,,,,,,,,,,,,,,,,,,,1322.64748,205,right,0.72644,phone       ,2,9,-5,0,3,1322.665545,1322.665545,1325.161815,0,50,50,50,1,205,7,2,camel         ,phone       ,html/resources/sequences_IDs/A/03_camel.jpg,html/resources/sequences_IDs/B/09_phone.jpg,3,9,1,1,4,2,2,7,0,31,,,,,,,,,,,,,,,,,,,,
,,,,,31,2020-07-03_15h37.06.323,retriever_ti,2020.1.3,Win32,60,Chrome,1536,864,,,,,,,,,,,,,,,,,3,,,,,,,,,,,,,,,,,,,,,,,,,,,1325.77904,206,left,0.835675,phone       ,2,9,1,1,1,1325.81412,1325.81412,1328.3126,0,51,51,51,1,206,2,1,phone       ,satellite_dish,html/resources/sequences_IDs/B/09_phone.jpg,html/resources/sequences_IDs/A/10_satellite_dish.jpg,9,10,4,2,4,2,7,8,0,31,,,,,,,,,,,,,,,,,,,,
,,,,,31,2020-07-03_15h37.06.323,retriever_ti,2020.1.3,Win32,60,Chrome,1536,864,,,,,,,,,,,,,,,,,3,,,,,,,,,,,,,,,,,,,,,,,,,,,1329.41386,207,left,0.91346,dolphin     ,8,2,1,1,0,1329.433575,1329.433575,1331.928865,0,52,52,52,1,207,8,7,dolphin     ,camel         ,html/resources/sequences_IDs/B/02_dolphin.jpg,html/resources/sequences_IDs/A/03_camel.jpg,2,3,1,1,1,1,1,2,1,31,,,,,,,,,,,,,,,,,,,,
,,,,,31,2020-07-03_15h37.06.323,retriever_ti,2020.1.3,Win32,60,Chrome,1536,864,,,,,,,,,,,,,,,,,3,,,,,,,,,,,,,,,,,,,,,,,,,,,1333.031375,208,right,0.012805,phone       ,2,9,-2,0,3,1333.049475,1333.049475,1335.54574,0,53,53,53,1,208,4,2,holdfast    ,phone       ,html/resources/sequences_IDs/B/04_holdfast.jpg,html/resources/sequences_IDs/B/09_phone.jpg,4,9,2,1,4,2,3,7,0,31,,,,,,,,,,,,,,,,,,,,
,,,,,31,2020-07-03_15h37.06.323,retriever_ti,2020.1.3,Win32,60,Chrome,1536,864,,,,,,,,,,,,,,,,,3,,,,,,,,,,,,,,,,,,,,,,,,,,,1336.14749,209,left,0.831205,phone       ,2,9,1,1,0,1336.1829,1336.1829,1338.679215,0,54,54,54,1,209,2,1,phone       ,satellite_dish,html/resources/sequences_IDs/B/09_phone.jpg,html/resources/sequences_IDs/A/10_satellite_dish.jpg,9,10,4,2,4,2,7,8,1,31,,,,,,,,,,,,,,,,,,,,
,,,,,31,2020-07-03_15h37.06.323,retriever_ti,2020.1.3,Win32,60,Chrome,1536,864,,,,,,,,,,,,,,,,,3,,,,,,,,,,,,,,,,,,,,,,,,,,,1339.78175,210,right,0.00415,sport_tshirt,6,7,-1,0,0,1339.817555,1339.817555,1342.31332,0,55,55,55,1,210,7,6,camel         ,sport_tshirt,html/resources/sequences_IDs/A/03_camel.jpg,html/resources/sequences_IDs/B/07_sport_tshirt.jpg,3,7,1,1,3,2,2,5,0,31,,,,,,,,,,,,,,,,,,,,
,,,,,31,2020-07-03_15h37.06.323,retriever_ti,2020.1.3,Win32,60,Chrome,1536,864,,,,,,,,,,,,,,,,,3,,,,,,,,,,,,,,,,,,,,,,,,,,,1343.41637,211,left,0.02811,sport_tshirt,6,7,-2,0,3,1343.451915,1343.451915,1345.94681,0,56,56,56,1,211,6,8,sport_tshirt,dolphin     ,html/resources/sequences_IDs/B/07_sport_tshirt.jpg,html/resources/sequences_IDs/B/02_dolphin.jpg,7,2,3,2,1,1,5,1,0,31,,,,,,,,,,,,,,,,,,,,
,,,,,31,2020-07-03_15h37.06.323,retriever_ti,2020.1.3,Win32,60,Chrome,1536,864,,,,,,,,,,,,,,,,,3,,,,,,,,,,,,,,,,,,,,,,,,,,,1346.56524,212,right,1.245465,satellite_dish,1,10,-5,0,3,1346.600485,1346.600485,1349.096395,0,57,57,57,1,212,6,1,sport_tshirt,satellite_dish,html/resources/sequences_IDs/B/07_sport_tshirt.jpg,html/resources/sequences_IDs/A/10_satellite_dish.jpg,7,10,3,2,4,2,5,8,0,31,,,,,,,,,,,,,,,,,,,,
,,,,,31,2020-07-03_15h37.06.323,retriever_ti,2020.1.3,Win32,60,Chrome,1536,864,,,,,,,,,,,,,,,,,3,,,,,,,,,,,,,,,,,,,,,,,,,,,1349.71401,213,left,0.595815,camel         ,7,3,6,1,3,1349.73367,1349.73367,1352.230425,0,58,58,58,1,213,7,1,camel         ,satellite_dish,html/resources/sequences_IDs/A/03_camel.jpg,html/resources/sequences_IDs/A/10_satellite_dish.jpg,3,10,1,1,4,2,2,8,0,31,,,,,,,,,,,,,,,,,,,,
,,,,,31,2020-07-03_15h37.06.323,retriever_ti,2020.1.3,Win32,60,Chrome,1536,864,,,,,,,,,,,,,,,,,3,,,,,,,,,,,,,,,,,,,,,,,,,,,1352.849,214,right,1.51696,camel         ,7,3,1,1,1,1352.883435,1352.883435,1355.380745,0,59,59,59,1,214,6,7,sport_tshirt,camel         ,html/resources/sequences_IDs/B/07_sport_tshirt.jpg,html/resources/sequences_IDs/A/03_camel.jpg,7,3,3,2,1,1,5,2,0,31,,,,,,,,,,,,,,,,,,,,
,,,,,31,2020-07-03_15h37.06.323,retriever_ti,2020.1.3,Win32,60,Chrome,1536,864,,,,,,,,,,,,,,,,,3,,,,,,,,,,,,,,,,,,,,,,,,,,,1356.483235,215,right,1.31297,hat           ,5,8,-1,0,1,1356.51896,1356.51896,1359.014305,0,60,60,60,1,215,6,5,sport_tshirt,hat           ,html/resources/sequences_IDs/B/07_sport_tshirt.jpg,html/resources/sequences_IDs/A/08_hat.jpg,7,8,3,2,3,2,5,6,1,31,,,,,,,,,,,,,,,,,,,,
,,,,,31,2020-07-03_15h37.06.323,retriever_ti,2020.1.3,Win32,60,Chrome,1536,864,,,,,,,,,,,,,,,,,3,,,,,,,,,,,,,,,,,,,,,,,,,,,1360.116235,216,right,1.198425,phone       ,2,9,1,1,1,1360.13642,1360.13642,1362.630945,0,61,61,61,1,216,1,2,satellite_dish,phone       ,html/resources/sequences_IDs/A/10_satellite_dish.jpg,html/resources/sequences_IDs/B/09_phone.jpg,10,9,4,2,4,2,8,7,0,31,,,,,,,,,,,,,,,,,,,,
,,,,,31,2020-07-03_15h37.06.323,retriever_ti,2020.1.3,Win32,60,Chrome,1536,864,,,,,,,,,,,,,,,,,3,,,,,,,,,,,,,,,,,,,,,,,,,,,1363.732915,217,right,0.95851,dolphin     ,8,2,1,1,1,1363.75162,1363.75162,1366.247385,0,62,62,62,1,217,7,8,camel         ,dolphin     ,html/resources/sequences_IDs/A/03_camel.jpg,html/resources/sequences_IDs/B/02_dolphin.jpg,3,2,1,1,1,1,2,1,0,31,,,,,,,,,,,,,,,,,,,,
,,,,,31,2020-07-03_15h37.06.323,retriever_ti,2020.1.3,Win32,60,Chrome,1536,864,,,,,,,,,,,,,,,,,3,,,,,,,,,,,,,,,,,,,,,,,,,,,1367.350305,218,left,1.9306,satellite_dish,1,10,-5,0,3,1367.38524,1367.38524,1369.88085,0,63,63,63,1,218,1,6,satellite_dish,sport_tshirt,html/resources/sequences_IDs/A/10_satellite_dish.jpg,html/resources/sequences_IDs/B/07_sport_tshirt.jpg,10,7,4,2,3,2,8,5,0,31,,,,,,,,,,,,,,,,,,,,
,,,,,31,2020-07-03_15h37.06.323,retriever_ti,2020.1.3,Win32,60,Chrome,1536,864,,,,,,,,,,,,,,,,,3,,,,,,,,,,,,,,,,,,,,,,,,,,,1370.48282,219,right,0.949285,peacock       ,3,5,1,1,1,1370.51631,1370.51631,1373.01499,0,64,64,64,1,219,2,3,phone       ,peacock       ,html/resources/sequences_IDs/B/09_phone.jpg,html/resources/sequences_IDs/A/05_peacock.jpg,9,5,4,2,2,1,7,4,0,31,,,,,,,,,,,,,,,,,,,,
,,,,,31,2020-07-03_15h37.06.323,retriever_ti,2020.1.3,Win32,60,Chrome,1536,864,,,,,,,,,,,,,,,,,3,,,,,,,,,,,,,,,,,,,,,,,,,,,1374.118385,220,left,0.51011,holdfast    ,4,4,-1,0,0,1374.137225,1374.137225,1376.631825,0,65,65,65,1,220,4,5,holdfast    ,hat           ,html/resources/sequences_IDs/B/04_holdfast.jpg,html/resources/sequences_IDs/A/08_hat.jpg,4,8,2,1,3,2,3,6,0,31,,,,,,,,,,,,,,,,,,,,
,,,,,31,2020-07-03_15h37.06.323,retriever_ti,2020.1.3,Win32,60,Chrome,1536,864,,,,,,,,,,,,,,,,,3,,,,,,,,,,,,,,,,,,,,,,,,,,,1377.73511,221,left,2.192525,holdfast    ,4,4,1,1,1,1377.77057,1377.77057,1380.298205,0,66,66,66,1,221,4,3,holdfast    ,peacock       ,html/resources/sequences_IDs/B/04_holdfast.jpg,html/resources/sequences_IDs/A/05_peacock.jpg,4,5,2,1,2,1,3,4,0,31,,,,,,,,,,,,,,,,,,,,
,,,,,31,2020-07-03_15h37.06.323,retriever_ti,2020.1.3,Win32,60,Chrome,1536,864,,,,,,,,,,,,,,,,,3,,,,,,,,,,,,,,,,,,,,,,,,,,,1381.40246,222,right,0.75346,peacock       ,3,5,1,1,1,1381.42023,1381.42023,1383.91558,0,67,67,67,1,222,2,3,phone       ,peacock       ,html/resources/sequences_IDs/B/09_phone.jpg,html/resources/sequences_IDs/A/05_peacock.jpg,9,5,4,2,2,1,7,4,0,31,,,,,,,,,,,,,,,,,,,,
