instructionsLoop.thisRepN,instructionsLoop.thisTrialN,instructionsLoop.thisN,instructionsLoop.thisIndex,instructionsLoop.ran,participant,date,expName,psychopyVersion,OS,frameRate,browser,xResolution,yResolution,fix_onset,tprac,practiceKey.keys,practiceKey.rt,pracitem_chosen_name,acc_practice,P1_onsetPrac,P2_onsetPrac,onsetFeedbPrac,practiceTrials.thisRepN,practiceTrials.thisTrialN,practiceTrials.thisN,practiceTrials.thisIndex,practiceTrials.ran,P1,P2,Block,LocItem1,LocItem2,NameItem1,NameItem2,key_respAC_prac.keys,key_respAC_prac.corr,key_respAC_prac.rt,AC_acc,Attentions.thisRepN,Attentions.thisTrialN,Attentions.thisN,Attentions.thisIndex,Attentions.ran,Stim,Loc1,Loc2,Loc3,Loc4,CorrAns,keyDisturbed.keys,keyDisturbed.rt,repPractice.thisRepN,repPractice.thisTrialN,repPractice.thisN,repPractice.thisIndex,repPractice.ran,fixcross_onsetMain,trialNumber,key_resp.keys,key_resp.rt,item_chosen_name,item_chosen_value,item_chosen_ID,diff_chosen_minus_reject,acc_real,acc_feedback,P1_onset,P2_onset,feedb_onset,trials.thisRepN,trials.thisTrialN,trials.thisN,trials.thisIndex,trials.ran,Trial,ValueP1,ValueP2,P1name,P2name,P1Loc,P2Loc,P1id,P2id,Micro_categoryP1,Macro_categoryP1,Micro_categoryP2,Macro_categoryP2,ID_sequenceP1,ID_sequenceP2,InverseFb,pNumber,repBlocks.thisRepN,repBlocks.thisTrialN,repBlocks.thisN,repBlocks.thisIndex,repBlocks.ran,key_respAC.keys,key_respAC.corr,key_respAC.rt,trials_AC.thisRepN,trials_AC.thisTrialN,trials_AC.thisN,trials_AC.thisIndex,trials_AC.ran,Bonus,BonusLoop.thisRepN,BonusLoop.thisTrialN,BonusLoop.thisN,BonusLoop.thisIndex,BonusLoop.ran,comments
0,0,0,0,1,32,2020-07-03_15h41.30.916,retriever_ti,2020.1.3,Win32,60,Chrome,1152,864,,,,,,,,,,,,,,,,,,,,,,,,,,,,,,,,,,,,,,,,,,,,,,,,,,,,,,,,,,,,,,,,,,,,,,,,,,,,,,,,,,,,,,,,,,,,,,,,,,
1,0,1,0,1,32,2020-07-03_15h41.30.916,retriever_ti,2020.1.3,Win32,60,Chrome,1152,864,,,,,,,,,,,,,,,,,,,,,,,,,,,,,,,,,,,,,,,,,,,,,,,,,,,,,,,,,,,,,,,,,,,,,,,,,,,,,,,,,,,,,,,,,,,,,,,,,,
2,0,2,0,1,32,2020-07-03_15h41.30.916,retriever_ti,2020.1.3,Win32,60,Chrome,1152,864,,,,,,,,,,,,,,,,,,,,,,,,,,,,,,,,,,,,,,,,,,,,,,,,,,,,,,,,,,,,,,,,,,,,,,,,,,,,,,,,,,,,,,,,,,,,,,,,,,
3,0,3,0,1,32,2020-07-03_15h41.30.916,retriever_ti,2020.1.3,Win32,60,Chrome,1152,864,,,,,,,,,,,,,,,,,,,,,,,,,,,,,,,,,,,,,,,,,,,,,,,,,,,,,,,,,,,,,,,,,,,,,,,,,,,,,,,,,,,,,,,,,,,,,,,,,,
4,0,4,0,1,32,2020-07-03_15h41.30.916,retriever_ti,2020.1.3,Win32,60,Chrome,1152,864,,,,,,,,,,,,,,,,,,,,,,,,,,,,,,,,,,,,,,,,,,,,,,,,,,,,,,,,,,,,,,,,,,,,,,,,,,,,,,,,,,,,,,,,,,,,,,,,,,
5,0,5,0,1,32,2020-07-03_15h41.30.916,retriever_ti,2020.1.3,Win32,60,Chrome,1152,864,,,,,,,,,,,,,,,,,,,,,,,,,,,,,,,,,,,,,,,,,,,,,,,,,,,,,,,,,,,,,,,,,,,,,,,,,,,,,,,,,,,,,,,,,,,,,,,,,,
6,0,6,0,1,32,2020-07-03_15h41.30.916,retriever_ti,2020.1.3,Win32,60,Chrome,1152,864,,,,,,,,,,,,,,,,,,,,,,,,,,,,,,,,,,,,,,,,,,,,,,,,,,,,,,,,,,,,,,,,,,,,,,,,,,,,,,,,,,,,,,,,,,,,,,,,,,
7,0,7,0,1,32,2020-07-03_15h41.30.916,retriever_ti,2020.1.3,Win32,60,Chrome,1152,864,,,,,,,,,,,,,,,,,,,,,,,,,,,,,,,,,,,,,,,,,,,,,,,,,,,,,,,,,,,,,,,,,,,,,,,,,,,,,,,,,,,,,,,,,,,,,,,,,,
8,0,8,0,1,32,2020-07-03_15h41.30.916,retriever_ti,2020.1.3,Win32,60,Chrome,1152,864,,,,,,,,,,,,,,,,,,,,,,,,,,,,,,,,,,,,,,,,,,,,,,,,,,,,,,,,,,,,,,,,,,,,,,,,,,,,,,,,,,,,,,,,,,,,,,,,,,
9,0,9,0,1,32,2020-07-03_15h41.30.916,retriever_ti,2020.1.3,Win32,60,Chrome,1152,864,,,,,,,,,,,,,,,,,,,,,,,,,,,,,,,,,,,,,,,,,,,,,,,,,,,,,,,,,,,,,,,,,,,,,,,,,,,,,,,,,,,,,,,,,,,,,,,,,,
10,0,10,0,1,32,2020-07-03_15h41.30.916,retriever_ti,2020.1.3,Win32,60,Chrome,1152,864,,,,,,,,,,,,,,,,,,,,,,,,,,,,,,,,,,,,,,,,,,,,,,,,,,,,,,,,,,,,,,,,,,,,,,,,,,,,,,,,,,,,,,,,,,,,,,,,,,
11,0,11,0,1,32,2020-07-03_15h41.30.916,retriever_ti,2020.1.3,Win32,60,Chrome,1152,864,,,,,,,,,,,,,,,,,,,,,,,,,,,,,,,,,,,,,,,,,,,,,,,,,,,,,,,,,,,,,,,,,,,,,,,,,,,,,,,,,,,,,,,,,,,,,,,,,,
12,0,12,0,1,32,2020-07-03_15h41.30.916,retriever_ti,2020.1.3,Win32,60,Chrome,1152,864,,,,,,,,,,,,,,,,,,,,,,,,,,,,,,,,,,,,,,,,,,,,,,,,,,,,,,,,,,,,,,,,,,,,,,,,,,,,,,,,,,,,,,,,,,,,,,,,,,
13,0,13,0,1,32,2020-07-03_15h41.30.916,retriever_ti,2020.1.3,Win32,60,Chrome,1152,864,,,,,,,,,,,,,,,,,,,,,,,,,,,,,,,,,,,,,,,,,,,,,,,,,,,,,,,,,,,,,,,,,,,,,,,,,,,,,,,,,,,,,,,,,,,,,,,,,,
14,0,14,0,1,32,2020-07-03_15h41.30.916,retriever_ti,2020.1.3,Win32,60,Chrome,1152,864,,,,,,,,,,,,,,,,,,,,,,,,,,,,,,,,,,,,,,,,,,,,,,,,,,,,,,,,,,,,,,,,,,,,,,,,,,,,,,,,,,,,,,,,,,,,,,,,,,
15,0,15,0,1,32,2020-07-03_15h41.30.916,retriever_ti,2020.1.3,Win32,60,Chrome,1152,864,,,,,,,,,,,,,,,,,,,,,,,,,,,,,,,,,,,,,,,,,,,,,,,,,,,,,,,,,,,,,,,,,,,,,,,,,,,,,,,,,,,,,,,,,,,,,,,,,,
,,,,,32,2020-07-03_15h41.30.916,retriever_ti,2020.1.3,Win32,60,Chrome,1152,864,173.809485,1,left,0.921135,beetle,0,173.849785,173.849785,176.348415,0,0,0,0,1,2,5,1,html/resources/stimuli_practice_decision/04_beetle.jpg,html/resources/stimuli_practice_decision/02_canary.jpg,beetle,canary,,,,,,,,,,,,,,,,,,,,,,,,,,,,,,,,,,,,,,,,,,,,,,,,,,,,,,,,,,,,,,,,,,,,,,,,,,,,,
,,,,,32,2020-07-03_15h41.30.916,retriever_ti,2020.1.3,Win32,60,Chrome,1152,864,176.88968,2,left,1.58489,rabbit,1,176.915735,176.915735,179.41705,0,1,1,1,1,4,3,1,html/resources/stimuli_practice_decision/01_rabbit.jpg,html/resources/stimuli_practice_decision/07_sock.jpg,rabbit,sock,,,,,,,,,,,,,,,,,,,,,,,,,,,,,,,,,,,,,,,,,,,,,,,,,,,,,,,,,,,,,,,,,,,,,,,,,,,,,
,,,,,32,2020-07-03_15h41.30.916,retriever_ti,2020.1.3,Win32,60,Chrome,1152,864,180.418055,3,left,0.879505,pullover,1,180.434835,180.434835,182.935845,0,2,2,2,1,6,2,1,html/resources/stimuli_practice_decision/06_pullover.jpg,html/resources/stimuli_practice_decision/04_beetle.jpg,pullover,beetle,,,,,,,,,,,,,,,,,,,,,,,,,,,,,,,,,,,,,,,,,,,,,,,,,,,,,,,,,,,,,,,,,,,,,,,,,,,,,
,,,,,32,2020-07-03_15h41.30.916,retriever_ti,2020.1.3,Win32,60,Chrome,1152,864,183.436905,4,right,1.24636,handmixer,0,183.453765,183.453765,185.95458,0,3,3,3,1,7,1,1,html/resources/stimuli_practice_decision/05_glasses.jpg,html/resources/stimuli_practice_decision/08_handmixer.jpg,glasses,handmixer,,,,,,,,,,,,,,,,,,,,,,,,,,,,,,,,,,,,,,,,,,,,,,,,,,,,,,,,,,,,,,,,,,,,,,,,,,,,,
,,,,,32,2020-07-03_15h41.30.916,retriever_ti,2020.1.3,Win32,60,Chrome,1152,864,186.45525,5,right,1.033995,pullover,0,186.472785,186.472785,188.973455,0,4,4,4,1,7,6,1,html/resources/stimuli_practice_decision/05_glasses.jpg,html/resources/stimuli_practice_decision/06_pullover.jpg,glasses,pullover,,,,,,,,,,,,,,,,,,,,,,,,,,,,,,,,,,,,,,,,,,,,,,,,,,,,,,,,,,,,,,,,,,,,,,,,,,,,,
,,,,,32,2020-07-03_15h41.30.916,retriever_ti,2020.1.3,Win32,60,Chrome,1152,864,189.97493,6,right,1.25449,glasses,1,189.99198,189.99198,192.492725,0,5,5,5,1,4,7,1,html/resources/stimuli_practice_decision/01_rabbit.jpg,html/resources/stimuli_practice_decision/05_glasses.jpg,rabbit,glasses,,,,,,,,,,,,,,,,,,,,,,,,,,,,,,,,,,,,,,,,,,,,,,,,,,,,,,,,,,,,,,,,,,,,,,,,,,,,,
,,,,,32,2020-07-03_15h41.30.916,retriever_ti,2020.1.3,Win32,60,Chrome,1152,864,192.99323,7,left,0.89803,handmixer,0,193.027395,193.027395,195.52805,0,6,6,6,1,1,2,1,html/resources/stimuli_practice_decision/08_handmixer.jpg,html/resources/stimuli_practice_decision/04_beetle.jpg,handmixer,beetle,,,,,,,,,,,,,,,,,,,,,,,,,,,,,,,,,,,,,,,,,,,,,,,,,,,,,,,,,,,,,,,,,,,,,,,,,,,,,
,,,,,32,2020-07-03_15h41.30.916,retriever_ti,2020.1.3,Win32,60,Chrome,1152,864,196.529515,8,right,1.674055,sock,0,196.546515,196.546515,199.047285,0,7,7,7,1,4,3,1,html/resources/stimuli_practice_decision/01_rabbit.jpg,html/resources/stimuli_practice_decision/07_sock.jpg,rabbit,sock,,,,,,,,,,,,,,,,,,,,,,,,,,,,,,,,,,,,,,,,,,,,,,,,,,,,,,,,,,,,,,,,,,,,,,,,,,,,,
,,,,,32,2020-07-03_15h41.30.916,retriever_ti,2020.1.3,Win32,60,Chrome,1152,864,,,,,,,,,,,,,,,,,,,,,,down,1,3.378215,1,0,0,0,1,1,html/resources/sequences_IDs/star.png,square ↑,circle →,star ↓,← triangle,down,,,,,,,,,,,,,,,,,,,,,,,,,,,,,,,,,,,,,,,,,,,,,,,,,,,,,,,,,,,,,,
,,,,,32,2020-07-03_15h41.30.916,retriever_ti,2020.1.3,Win32,60,Chrome,1152,864,,,,,,,,,,,,,,,,,,,,,,up,1,6.16142,1,0,1,1,0,1,html/resources/sequences_IDs/circle.png,circle ↑,square →,triangle ↓,← star ,up,,,,,,,,,,,,,,,,,,,,,,,,,,,,,,,,,,,,,,,,,,,,,,,,,,,,,,,,,,,,,,
,,,,,32,2020-07-03_15h41.30.916,retriever_ti,2020.1.3,Win32,60,Chrome,1152,864,,,,,,,,,,,,,,,,,,,,,,left,1,1.558135,1,0,2,2,2,1,html/resources/sequences_IDs/square1.png,star ↑,triangle →,circle ↓,← square,left,,,,,,,,,,,,,,,,,,,,,,,,,,,,,,,,,,,,,,,,,,,,,,,,,,,,,,,,,,,,,,
,,,,,32,2020-07-03_15h41.30.916,retriever_ti,2020.1.3,Win32,60,Chrome,1152,864,,,,,,,,,,,,,,,,,,,,,,down,1,1.73437,1,0,3,3,3,1,html/resources/sequences_IDs/triangle.png,star ↑,square →,triangle ↓,← circle,down,,,,,,,,,,,,,,,,,,,,,,,,,,,,,,,,,,,,,,,,,,,,,,,,,,,,,,,,,,,,,,
,,,,,32,2020-07-03_15h41.30.916,retriever_ti,2020.1.3,Win32,60,Chrome,1152,864,,,,,,,,,,,,,,,,,,,,,,,,,,,,,,,,,,,,,0,11.279695,0,0,0,0,1,,,,,,,,,,,,,,,,,,,,,,,,,,,,,,,,,,,,,,,,,,,,,,,,,,,,,,,
,,,,,32,2020-07-03_15h41.30.916,retriever_ti,2020.1.3,Win32,60,Chrome,1152,864,228.351545,9,left,1.115855,pullover,0,228.371315,228.371315,230.869915,0,0,0,0,1,6,7,1,html/resources/stimuli_practice_decision/06_pullover.jpg,html/resources/stimuli_practice_decision/05_glasses.jpg,pullover,glasses,,,,,,,,,,,,,,,,,,,,,,,,,,,,,,,,,,,,,,,,,,,,,,,,,,,,,,,,,,,,,,,,,,,,,,,,,,,,,
,,,,,32,2020-07-03_15h41.30.916,retriever_ti,2020.1.3,Win32,60,Chrome,1152,864,231.87101,10,left,1.604095,pullover,1,231.90467,231.90467,234.40546,0,1,1,1,1,6,2,1,html/resources/stimuli_practice_decision/06_pullover.jpg,html/resources/stimuli_practice_decision/04_beetle.jpg,pullover,beetle,,,,,,,,,,,,,,,,,,,,,,,,,,,,,,,,,,,,,,,,,,,,,,,,,,,,,,,,,,,,,,,,,,,,,,,,,,,,,
,,,,,32,2020-07-03_15h41.30.916,retriever_ti,2020.1.3,Win32,60,Chrome,1152,864,234.906685,11,right,1.46758,pullover,1,234.940185,234.940185,237.44129,0,2,2,2,1,5,6,1,html/resources/stimuli_practice_decision/02_canary.jpg,html/resources/stimuli_practice_decision/06_pullover.jpg,canary,pullover,,,,,,,,,,,,,,,,,,,,,,,,,,,,,,,,,,,,,,,,,,,,,,,,,,,,,,,,,,,,,,,,,,,,,,,,,,,,,
,,,,,32,2020-07-03_15h41.30.916,retriever_ti,2020.1.3,Win32,60,Chrome,1152,864,238.44188,12,right,1.18734,glasses,0,238.476095,238.476095,240.977195,0,3,3,3,1,8,7,1,html/resources/stimuli_practice_decision/03_squirrel.jpg,html/resources/stimuli_practice_decision/05_glasses.jpg,squirrel,glasses,,,,,,,,,,,,,,,,,,,,,,,,,,,,,,,,,,,,,,,,,,,,,,,,,,,,,,,,,,,,,,,,,,,,,,,,,,,,,
,,,,,32,2020-07-03_15h41.30.916,retriever_ti,2020.1.3,Win32,60,Chrome,1152,864,241.978595,13,right,1.609075,sock,0,242.01201,242.01201,244.512815,0,4,4,4,1,5,3,1,html/resources/stimuli_practice_decision/02_canary.jpg,html/resources/stimuli_practice_decision/07_sock.jpg,canary,sock,,,,,,,,,,,,,,,,,,,,,,,,,,,,,,,,,,,,,,,,,,,,,,,,,,,,,,,,,,,,,,,,,,,,,,,,,,,,,
,,,,,32,2020-07-03_15h41.30.916,retriever_ti,2020.1.3,Win32,60,Chrome,1152,864,245.01335,14,right,1.44507,squirrel,1,245.04731,245.04731,247.548195,0,5,5,5,1,7,8,1,html/resources/stimuli_practice_decision/05_glasses.jpg,html/resources/stimuli_practice_decision/03_squirrel.jpg,glasses,squirrel,,,,,,,,,,,,,,,,,,,,,,,,,,,,,,,,,,,,,,,,,,,,,,,,,,,,,,,,,,,,,,,,,,,,,,,,,,,,,
,,,,,32,2020-07-03_15h41.30.916,retriever_ti,2020.1.3,Win32,60,Chrome,1152,864,248.54951,15,right,1.485885,rabbit,0,248.58325,248.58325,251.08401,0,6,6,6,1,5,4,1,html/resources/stimuli_practice_decision/02_canary.jpg,html/resources/stimuli_practice_decision/01_rabbit.jpg,canary,rabbit,,,,,,,,,,,,,,,,,,,,,,,,,,,,,,,,,,,,,,,,,,,,,,,,,,,,,,,,,,,,,,,,,,,,,,,,,,,,,
,,,,,32,2020-07-03_15h41.30.916,retriever_ti,2020.1.3,Win32,60,Chrome,1152,864,252.085,16,left,0.95805,canary,1,252.11883,252.11883,254.620945,0,7,7,7,1,5,3,1,html/resources/stimuli_practice_decision/02_canary.jpg,html/resources/stimuli_practice_decision/07_sock.jpg,canary,sock,,,,,,,,,,,,,,,,,,,,,,,,,,,,,,,,,,,,,,,,,,,,,,,,,,,,,,,,,,,,,,,,,,,,,,,,,,,,,
,,,,,32,2020-07-03_15h41.30.916,retriever_ti,2020.1.3,Win32,60,Chrome,1152,864,,,,,,,,,,,,,,,,,,,,,,up,1,1.65662,1,0,0,0,0,1,html/resources/sequences_IDs/circle.png,circle ↑,square →,triangle ↓,← star ,up,,,,,,,,,,,,,,,,,,,,,,,,,,,,,,,,,,,,,,,,,,,,,,,,,,,,,,,,,,,,,,
,,,,,32,2020-07-03_15h41.30.916,retriever_ti,2020.1.3,Win32,60,Chrome,1152,864,,,,,,,,,,,,,,,,,,,,,,left,1,1.67498,1,0,1,1,2,1,html/resources/sequences_IDs/square1.png,star ↑,triangle →,circle ↓,← square,left,,,,,,,,,,,,,,,,,,,,,,,,,,,,,,,,,,,,,,,,,,,,,,,,,,,,,,,,,,,,,,
,,,,,32,2020-07-03_15h41.30.916,retriever_ti,2020.1.3,Win32,60,Chrome,1152,864,,,,,,,,,,,,,,,,,,,,,,down,1,1.8116,1,0,2,2,1,1,html/resources/sequences_IDs/star.png,square ↑,circle →,star ↓,← triangle,down,,,,,,,,,,,,,,,,,,,,,,,,,,,,,,,,,,,,,,,,,,,,,,,,,,,,,,,,,,,,,,
,,,,,32,2020-07-03_15h41.30.916,retriever_ti,2020.1.3,Win32,60,Chrome,1152,864,,,,,,,,,,,,,,,,,,,,,,down,1,1.502685,1,0,3,3,3,1,html/resources/sequences_IDs/triangle.png,star ↑,square →,triangle ↓,← circle,down,,,,,,,,,,,,,,,,,,,,,,,,,,,,,,,,,,,,,,,,,,,,,,,,,,,,,,,,,,,,,,
,,,,,32,2020-07-03_15h41.30.916,retriever_ti,2020.1.3,Win32,60,Chrome,1152,864,,,,,,,,,,,,,,,,,,,,,,,,,,,,,,,,,,,,,0,3.43459,1,0,1,0,1,,,,,,,,,,,,,,,,,,,,,,,,,,,,,,,,,,,,,,,,,,,,,,,,,,,,,,,
,,,,,32,2020-07-03_15h41.30.916,retriever_ti,2020.1.3,Win32,60,Chrome,1152,864,,,,,,,,,,,,,,,,,1,,,,,,,,,,,,,,,,,,,,,,,,,,,272.9024,1,left,0.933455,calculator    ,1,9,-2,0,3,272.93416,272.93416,275.435405,0,0,0,0,1,1,1,3,calculator    ,clownfish     ,html/resources/sequences_IDs/A/09_calculator.jpg,html/resources/sequences_IDs/A/04_clownfish.jpg,9,4,4,2,2,1,7,3,0,32,,,,,,,,,,,,,,,,,,,,
,,,,,32,2020-07-03_15h41.30.916,retriever_ti,2020.1.3,Win32,60,Chrome,1152,864,,,,,,,,,,,,,,,,,1,,,,,,,,,,,,,,,,,,,,,,,,,,,276.053445,2,left,1.263895,dress         ,5,7,-2,0,3,276.06901,276.06901,278.5699,0,1,1,1,1,2,5,7,dress         ,hat           ,html/resources/sequences_IDs/A/07_dress.jpg,html/resources/sequences_IDs/A/08_hat.jpg,7,8,3,2,3,2,5,6,0,32,,,,,,,,,,,,,,,,,,,,
,,,,,32,2020-07-03_15h41.30.916,retriever_ti,2020.1.3,Win32,60,Chrome,1152,864,,,,,,,,,,,,,,,,,1,,,,,,,,,,,,,,,,,,,,,,,,,,,279.171985,3,right,1.06875,hat           ,7,8,-1,0,0,279.18833,279.18833,281.68916,0,2,2,2,1,3,8,7,redfox      ,hat           ,html/resources/sequences_IDs/B/01_redfox.jpg,html/resources/sequences_IDs/A/08_hat.jpg,1,8,1,1,3,2,1,6,0,32,,,,,,,,,,,,,,,,,,,,
,,,,,32,2020-07-03_15h41.30.916,retriever_ti,2020.1.3,Win32,60,Chrome,1152,864,,,,,,,,,,,,,,,,,1,,,,,,,,,,,,,,,,,,,,,,,,,,,282.79033,4,left,1.021445,parrot      ,4,5,-3,0,3,282.80769,282.80769,285.30811,0,3,3,3,1,4,4,7,parrot      ,hat           ,html/resources/sequences_IDs/B/05_parrot.jpg,html/resources/sequences_IDs/A/08_hat.jpg,5,8,2,1,3,2,4,6,0,32,,,,,,,,,,,,,,,,,,,,
,,,,,32,2020-07-03_15h41.30.916,retriever_ti,2020.1.3,Win32,60,Chrome,1152,864,,,,,,,,,,,,,,,,,1,,,,,,,,,,,,,,,,,,,,,,,,,,,285.90892,5,left,0.961075,giraffe     ,6,3,-2,0,3,285.942715,285.942715,288.44386,0,4,4,4,1,5,6,8,giraffe     ,redfox      ,html/resources/sequences_IDs/B/03_giraffe.jpg,html/resources/sequences_IDs/B/01_redfox.jpg,3,1,1,1,1,1,2,1,0,32,,,,,,,,,,,,,,,,,,,,
,,,,,32,2020-07-03_15h41.30.916,retriever_ti,2020.1.3,Win32,60,Chrome,1152,864,,,,,,,,,,,,,,,,,1,,,,,,,,,,,,,,,,,,,,,,,,,,,289.044845,6,left,1.009355,radio       ,2,10,1,1,1,289.061555,289.061555,291.56241,0,5,5,5,1,6,2,1,radio       ,calculator    ,html/resources/sequences_IDs/B/10_radio.jpg,html/resources/sequences_IDs/A/09_calculator.jpg,10,9,4,2,4,2,8,7,0,32,,,,,,,,,,,,,,,,,,,,
,,,,,32,2020-07-03_15h41.30.916,retriever_ti,2020.1.3,Win32,60,Chrome,1152,864,,,,,,,,,,,,,,,,,1,,,,,,,,,,,,,,,,,,,,,,,,,,,292.66372,7,left,0.649765,radio       ,2,10,-1,0,0,292.68084,292.68084,295.181995,0,6,6,6,1,7,2,3,radio       ,clownfish     ,html/resources/sequences_IDs/B/10_radio.jpg,html/resources/sequences_IDs/A/04_clownfish.jpg,10,4,4,2,2,1,8,3,0,32,,,,,,,,,,,,,,,,,,,,
,,,,,32,2020-07-03_15h41.30.916,retriever_ti,2020.1.3,Win32,60,Chrome,1152,864,,,,,,,,,,,,,,,,,1,,,,,,,,,,,,,,,,,,,,,,,,,,,296.283405,8,right,1.418335,radio       ,2,10,1,1,0,296.316725,296.316725,298.81787,0,7,7,7,1,8,1,2,calculator    ,radio       ,html/resources/sequences_IDs/A/09_calculator.jpg,html/resources/sequences_IDs/B/10_radio.jpg,9,10,4,2,4,2,7,8,1,32,,,,,,,,,,,,,,,,,,,,
,,,,,32,2020-07-03_15h41.30.916,retriever_ti,2020.1.3,Win32,60,Chrome,1152,864,,,,,,,,,,,,,,,,,1,,,,,,,,,,,,,,,,,,,,,,,,,,,299.91866,9,right,0.875635,dress         ,5,7,-1,0,1,299.95268,299.95268,302.4536,0,8,8,8,1,9,6,5,giraffe     ,dress         ,html/resources/sequences_IDs/B/03_giraffe.jpg,html/resources/sequences_IDs/A/07_dress.jpg,3,7,1,1,3,2,2,5,1,32,,,,,,,,,,,,,,,,,,,,
,,,,,32,2020-07-03_15h41.30.916,retriever_ti,2020.1.3,Win32,60,Chrome,1152,864,,,,,,,,,,,,,,,,,1,,,,,,,,,,,,,,,,,,,,,,,,,,,303.55523,10,left,0.951355,giraffe     ,6,3,2,1,3,303.571625,303.571625,306.07285,0,9,9,9,1,10,6,4,giraffe     ,parrot      ,html/resources/sequences_IDs/B/03_giraffe.jpg,html/resources/sequences_IDs/B/05_parrot.jpg,3,5,1,1,2,1,2,4,0,32,,,,,,,,,,,,,,,,,,,,
,,,,,32,2020-07-03_15h41.30.916,retriever_ti,2020.1.3,Win32,60,Chrome,1152,864,,,,,,,,,,,,,,,,,1,,,,,,,,,,,,,,,,,,,,,,,,,,,306.67351,11,left,1.19196,giraffe     ,6,3,3,1,3,306.707435,306.707435,309.208235,0,10,10,10,1,11,6,3,giraffe     ,clownfish     ,html/resources/sequences_IDs/B/03_giraffe.jpg,html/resources/sequences_IDs/A/04_clownfish.jpg,3,4,1,1,2,1,2,3,0,32,,,,,,,,,,,,,,,,,,,,
,,,,,32,2020-07-03_15h41.30.916,retriever_ti,2020.1.3,Win32,60,Chrome,1152,864,,,,,,,,,,,,,,,,,1,,,,,,,,,,,,,,,,,,,,,,,,,,,309.80964,12,right,0.69665,giraffe     ,6,3,2,1,3,309.84285,309.84285,312.34381,0,11,11,11,1,12,4,6,parrot      ,giraffe     ,html/resources/sequences_IDs/B/05_parrot.jpg,html/resources/sequences_IDs/B/03_giraffe.jpg,5,3,2,1,1,1,4,2,0,32,,,,,,,,,,,,,,,,,,,,
,,,,,32,2020-07-03_15h41.30.916,retriever_ti,2020.1.3,Win32,60,Chrome,1152,864,,,,,,,,,,,,,,,,,1,,,,,,,,,,,,,,,,,,,,,,,,,,,312.944845,13,left,0.95222,radio       ,2,10,-2,0,3,312.961825,312.961825,315.46257,0,12,12,12,1,13,2,4,radio       ,parrot      ,html/resources/sequences_IDs/B/10_radio.jpg,html/resources/sequences_IDs/B/05_parrot.jpg,10,5,4,2,2,1,8,4,0,32,,,,,,,,,,,,,,,,,,,,
,,,,,32,2020-07-03_15h41.30.916,retriever_ti,2020.1.3,Win32,60,Chrome,1152,864,,,,,,,,,,,,,,,,,1,,,,,,,,,,,,,,,,,,,,,,,,,,,316.063815,14,right,0.56549,calculator    ,1,9,-7,0,3,316.080655,316.080655,318.58184,0,13,13,13,1,14,8,1,redfox      ,calculator    ,html/resources/sequences_IDs/B/01_redfox.jpg,html/resources/sequences_IDs/A/09_calculator.jpg,1,9,1,1,4,2,1,7,0,32,,,,,,,,,,,,,,,,,,,,
,,,,,32,2020-07-03_15h41.30.916,retriever_ti,2020.1.3,Win32,60,Chrome,1152,864,,,,,,,,,,,,,,,,,1,,,,,,,,,,,,,,,,,,,,,,,,,,,319.182275,15,right,0.67833,radio       ,2,10,1,1,1,319.216665,319.216665,321.717085,0,14,14,14,1,15,1,2,calculator    ,radio       ,html/resources/sequences_IDs/A/09_calculator.jpg,html/resources/sequences_IDs/B/10_radio.jpg,9,10,4,2,4,2,7,8,0,32,,,,,,,,,,,,,,,,,,,,
,,,,,32,2020-07-03_15h41.30.916,retriever_ti,2020.1.3,Win32,60,Chrome,1152,864,,,,,,,,,,,,,,,,,1,,,,,,,,,,,,,,,,,,,,,,,,,,,322.818695,16,right,0.62894,dress         ,5,7,-1,0,0,322.851955,322.851955,325.35308,0,15,15,15,1,16,6,5,giraffe     ,dress         ,html/resources/sequences_IDs/B/03_giraffe.jpg,html/resources/sequences_IDs/A/07_dress.jpg,3,7,1,1,3,2,2,5,0,32,,,,,,,,,,,,,,,,,,,,
,,,,,32,2020-07-03_15h41.30.916,retriever_ti,2020.1.3,Win32,60,Chrome,1152,864,,,,,,,,,,,,,,,,,1,,,,,,,,,,,,,,,,,,,,,,,,,,,326.454045,17,right,0.80016,radio       ,2,10,-1,0,0,326.47147,326.47147,328.972405,0,16,16,16,1,17,3,2,clownfish     ,radio       ,html/resources/sequences_IDs/A/04_clownfish.jpg,html/resources/sequences_IDs/B/10_radio.jpg,4,10,2,1,4,2,3,8,0,32,,,,,,,,,,,,,,,,,,,,
,,,,,32,2020-07-03_15h41.30.916,retriever_ti,2020.1.3,Win32,60,Chrome,1152,864,,,,,,,,,,,,,,,,,1,,,,,,,,,,,,,,,,,,,,,,,,,,,330.074045,18,left,0.640525,clownfish     ,3,4,1,1,0,330.09061,330.09061,332.591835,0,17,17,17,1,18,3,2,clownfish     ,radio       ,html/resources/sequences_IDs/A/04_clownfish.jpg,html/resources/sequences_IDs/B/10_radio.jpg,4,10,2,1,4,2,3,8,1,32,,,,,,,,,,,,,,,,,,,,
,,,,,32,2020-07-03_15h41.30.916,retriever_ti,2020.1.3,Win32,60,Chrome,1152,864,,,,,,,,,,,,,,,,,1,,,,,,,,,,,,,,,,,,,,,,,,,,,333.692785,19,left,0.54503,radio       ,2,10,-4,0,3,333.727005,333.727005,336.22732,0,18,18,18,1,19,2,6,radio       ,giraffe     ,html/resources/sequences_IDs/B/10_radio.jpg,html/resources/sequences_IDs/B/03_giraffe.jpg,10,3,4,2,1,1,8,2,0,32,,,,,,,,,,,,,,,,,,,,
,,,,,32,2020-07-03_15h41.30.916,retriever_ti,2020.1.3,Win32,60,Chrome,1152,864,,,,,,,,,,,,,,,,,1,,,,,,,,,,,,,,,,,,,,,,,,,,,336.82873,20,right,0.61748,giraffe     ,6,3,-1,0,0,336.86228,336.86228,339.36281,0,19,19,19,1,20,7,6,hat           ,giraffe     ,html/resources/sequences_IDs/A/08_hat.jpg,html/resources/sequences_IDs/B/03_giraffe.jpg,8,3,3,2,1,1,6,2,0,32,,,,,,,,,,,,,,,,,,,,
,,,,,32,2020-07-03_15h41.30.916,retriever_ti,2020.1.3,Win32,60,Chrome,1152,864,,,,,,,,,,,,,,,,,1,,,,,,,,,,,,,,,,,,,,,,,,,,,340.463935,21,left,0.844085,redfox      ,8,1,4,1,3,340.48116,340.48116,342.981985,0,20,20,20,1,21,8,4,redfox      ,parrot      ,html/resources/sequences_IDs/B/01_redfox.jpg,html/resources/sequences_IDs/B/05_parrot.jpg,1,5,1,1,2,1,1,4,0,32,,,,,,,,,,,,,,,,,,,,
,,,,,32,2020-07-03_15h41.30.916,retriever_ti,2020.1.3,Win32,60,Chrome,1152,864,,,,,,,,,,,,,,,,,1,,,,,,,,,,,,,,,,,,,,,,,,,,,343.58335,22,left,1.29286,giraffe     ,6,3,-1,0,1,343.600045,343.600045,346.101025,0,21,21,21,1,22,6,7,giraffe     ,hat           ,html/resources/sequences_IDs/B/03_giraffe.jpg,html/resources/sequences_IDs/A/08_hat.jpg,3,8,1,1,3,2,2,6,1,32,,,,,,,,,,,,,,,,,,,,
,,,,,32,2020-07-03_15h41.30.916,retriever_ti,2020.1.3,Win32,60,Chrome,1152,864,,,,,,,,,,,,,,,,,1,,,,,,,,,,,,,,,,,,,,,,,,,,,347.20219,23,left,1.779045,dress         ,5,7,3,1,3,347.21955,347.21955,349.72023,0,22,22,22,1,23,5,2,dress         ,radio       ,html/resources/sequences_IDs/A/07_dress.jpg,html/resources/sequences_IDs/B/10_radio.jpg,7,10,3,2,4,2,5,8,0,32,,,,,,,,,,,,,,,,,,,,
,,,,,32,2020-07-03_15h41.30.916,retriever_ti,2020.1.3,Win32,60,Chrome,1152,864,,,,,,,,,,,,,,,,,1,,,,,,,,,,,,,,,,,,,,,,,,,,,350.321305,24,right,0.704695,giraffe     ,6,3,3,1,3,350.33852,350.33852,352.83894,0,23,23,23,1,24,3,6,clownfish     ,giraffe     ,html/resources/sequences_IDs/A/04_clownfish.jpg,html/resources/sequences_IDs/B/03_giraffe.jpg,4,3,2,1,1,1,3,2,0,32,,,,,,,,,,,,,,,,,,,,
,,,,,32,2020-07-03_15h41.30.916,retriever_ti,2020.1.3,Win32,60,Chrome,1152,864,,,,,,,,,,,,,,,,,1,,,,,,,,,,,,,,,,,,,,,,,,,,,353.43983,25,right,0.598215,calculator    ,1,9,-6,0,3,353.456865,353.456865,355.957785,0,24,24,24,1,25,7,1,hat           ,calculator    ,html/resources/sequences_IDs/A/08_hat.jpg,html/resources/sequences_IDs/A/09_calculator.jpg,8,9,3,2,4,2,6,7,0,32,,,,,,,,,,,,,,,,,,,,
,,,,,32,2020-07-03_15h41.30.916,retriever_ti,2020.1.3,Win32,60,Chrome,1152,864,,,,,,,,,,,,,,,,,1,,,,,,,,,,,,,,,,,,,,,,,,,,,356.55942,26,right,0.615865,radio       ,2,10,-2,0,3,356.59278,356.59278,359.09358,0,25,25,25,1,26,4,2,parrot      ,radio       ,html/resources/sequences_IDs/B/05_parrot.jpg,html/resources/sequences_IDs/B/10_radio.jpg,5,10,2,1,4,2,4,8,0,32,,,,,,,,,,,,,,,,,,,,
,,,,,32,2020-07-03_15h41.30.916,retriever_ti,2020.1.3,Win32,60,Chrome,1152,864,,,,,,,,,,,,,,,,,1,,,,,,,,,,,,,,,,,,,,,,,,,,,359.694455,27,left,0.83443,calculator    ,1,9,-4,0,3,359.728595,359.728595,362.22898,0,26,26,26,1,27,1,5,calculator    ,dress         ,html/resources/sequences_IDs/A/09_calculator.jpg,html/resources/sequences_IDs/A/07_dress.jpg,9,7,4,2,3,2,7,5,0,32,,,,,,,,,,,,,,,,,,,,
,,,,,32,2020-07-03_15h41.30.916,retriever_ti,2020.1.3,Win32,60,Chrome,1152,864,,,,,,,,,,,,,,,,,1,,,,,,,,,,,,,,,,,,,,,,,,,,,362.830145,28,left,0.99611,hat           ,7,8,4,1,3,362.84721,362.84721,365.347975,0,27,27,27,1,28,7,3,hat           ,clownfish     ,html/resources/sequences_IDs/A/08_hat.jpg,html/resources/sequences_IDs/A/04_clownfish.jpg,8,4,3,2,2,1,6,3,0,32,,,,,,,,,,,,,,,,,,,,
,,,,,32,2020-07-03_15h41.30.916,retriever_ti,2020.1.3,Win32,60,Chrome,1152,864,,,,,,,,,,,,,,,,,1,,,,,,,,,,,,,,,,,,,,,,,,,,,365.94861,29,right,0.56069,redfox      ,8,1,7,1,3,365.98252,365.98252,368.483535,0,28,28,28,1,29,1,8,calculator    ,redfox      ,html/resources/sequences_IDs/A/09_calculator.jpg,html/resources/sequences_IDs/B/01_redfox.jpg,9,1,4,2,1,1,7,1,0,32,,,,,,,,,,,,,,,,,,,,
,,,,,32,2020-07-03_15h41.30.916,retriever_ti,2020.1.3,Win32,60,Chrome,1152,864,,,,,,,,,,,,,,,,,1,,,,,,,,,,,,,,,,,,,,,,,,,,,369.084505,30,left,0.545485,calculator    ,1,9,-5,0,3,369.101335,369.101335,371.602215,0,29,29,29,1,30,1,6,calculator    ,giraffe     ,html/resources/sequences_IDs/A/09_calculator.jpg,html/resources/sequences_IDs/B/03_giraffe.jpg,9,3,4,2,1,1,7,2,0,32,,,,,,,,,,,,,,,,,,,,
,,,,,32,2020-07-03_15h41.30.916,retriever_ti,2020.1.3,Win32,60,Chrome,1152,864,,,,,,,,,,,,,,,,,1,,,,,,,,,,,,,,,,,,,,,,,,,,,372.203115,31,right,0.45293,redfox      ,8,1,4,1,3,372.22034,372.22034,374.72106,0,30,30,30,1,31,4,8,parrot      ,redfox      ,html/resources/sequences_IDs/B/05_parrot.jpg,html/resources/sequences_IDs/B/01_redfox.jpg,5,1,2,1,1,1,4,1,0,32,,,,,,,,,,,,,,,,,,,,
,,,,,32,2020-07-03_15h41.30.916,retriever_ti,2020.1.3,Win32,60,Chrome,1152,864,,,,,,,,,,,,,,,,,1,,,,,,,,,,,,,,,,,,,,,,,,,,,375.3223,32,right,0.666675,radio       ,2,10,-1,0,0,375.35575,375.35575,377.856835,0,31,31,31,1,32,3,2,clownfish     ,radio       ,html/resources/sequences_IDs/A/04_clownfish.jpg,html/resources/sequences_IDs/B/10_radio.jpg,4,10,2,1,4,2,3,8,0,32,,,,,,,,,,,,,,,,,,,,
,,,,,32,2020-07-03_15h41.30.916,retriever_ti,2020.1.3,Win32,60,Chrome,1152,864,,,,,,,,,,,,,,,,,1,,,,,,,,,,,,,,,,,,,,,,,,,,,378.958165,33,left,0.2677,dress         ,5,7,-1,0,0,378.97498,378.97498,381.475975,0,32,32,32,1,33,5,6,dress         ,giraffe     ,html/resources/sequences_IDs/A/07_dress.jpg,html/resources/sequences_IDs/B/03_giraffe.jpg,7,3,3,2,1,1,5,2,0,32,,,,,,,,,,,,,,,,,,,,
,,,,,32,2020-07-03_15h41.30.916,retriever_ti,2020.1.3,Win32,60,Chrome,1152,864,,,,,,,,,,,,,,,,,1,,,,,,,,,,,,,,,,,,,,,,,,,,,382.57764,34,right,0.42727,hat           ,7,8,-1,0,0,382.59431,382.59431,385.095095,0,33,33,33,1,34,8,7,redfox      ,hat           ,html/resources/sequences_IDs/B/01_redfox.jpg,html/resources/sequences_IDs/A/08_hat.jpg,1,8,1,1,3,2,1,6,0,32,,,,,,,,,,,,,,,,,,,,
,,,,,32,2020-07-03_15h41.30.916,retriever_ti,2020.1.3,Win32,60,Chrome,1152,864,,,,,,,,,,,,,,,,,1,,,,,,,,,,,,,,,,,,,,,,,,,,,386.19633,35,left,1.124325,radio       ,2,10,-6,0,3,386.230175,386.230175,388.73103,0,34,34,34,1,35,2,8,radio       ,redfox      ,html/resources/sequences_IDs/B/10_radio.jpg,html/resources/sequences_IDs/B/01_redfox.jpg,10,1,4,2,1,1,8,1,0,32,,,,,,,,,,,,,,,,,,,,
,,,,,32,2020-07-03_15h41.30.916,retriever_ti,2020.1.3,Win32,60,Chrome,1152,864,,,,,,,,,,,,,,,,,1,,,,,,,,,,,,,,,,,,,,,,,,,,,389.332335,36,right,0.456605,calculator    ,1,9,-4,0,3,389.34909,389.34909,391.849895,0,35,35,35,1,36,5,1,dress         ,calculator    ,html/resources/sequences_IDs/A/07_dress.jpg,html/resources/sequences_IDs/A/09_calculator.jpg,7,9,3,2,4,2,5,7,0,32,,,,,,,,,,,,,,,,,,,,
,,,,,32,2020-07-03_15h41.30.916,retriever_ti,2020.1.3,Win32,60,Chrome,1152,864,,,,,,,,,,,,,,,,,1,,,,,,,,,,,,,,,,,,,,,,,,,,,392.450675,37,right,0.63071,dress         ,5,7,2,1,3,392.484685,392.484685,394.985535,0,36,36,36,1,37,3,5,clownfish     ,dress         ,html/resources/sequences_IDs/A/04_clownfish.jpg,html/resources/sequences_IDs/A/07_dress.jpg,4,7,2,1,3,2,3,5,0,32,,,,,,,,,,,,,,,,,,,,
,,,,,32,2020-07-03_15h41.30.916,retriever_ti,2020.1.3,Win32,60,Chrome,1152,864,,,,,,,,,,,,,,,,,1,,,,,,,,,,,,,,,,,,,,,,,,,,,395.586545,38,left,0.716985,clownfish     ,3,4,-1,0,0,395.62038,395.62038,398.121375,0,37,37,37,1,38,3,4,clownfish     ,parrot      ,html/resources/sequences_IDs/A/04_clownfish.jpg,html/resources/sequences_IDs/B/05_parrot.jpg,4,5,2,1,2,1,3,4,0,32,,,,,,,,,,,,,,,,,,,,
,,,,,32,2020-07-03_15h41.30.916,retriever_ti,2020.1.3,Win32,60,Chrome,1152,864,,,,,,,,,,,,,,,,,1,,,,,,,,,,,,,,,,,,,,,,,,,,,399.222245,39,right,0.87035,radio       ,2,10,-5,0,3,399.23946,399.23946,401.740205,0,38,38,38,1,39,7,2,hat           ,radio       ,html/resources/sequences_IDs/A/08_hat.jpg,html/resources/sequences_IDs/B/10_radio.jpg,8,10,3,2,4,2,6,8,0,32,,,,,,,,,,,,,,,,,,,,
,,,,,32,2020-07-03_15h41.30.916,retriever_ti,2020.1.3,Win32,60,Chrome,1152,864,,,,,,,,,,,,,,,,,1,,,,,,,,,,,,,,,,,,,,,,,,,,,402.34132,40,left,0.40855,parrot      ,4,5,-1,0,0,402.37515,402.37515,404.875865,0,39,39,39,1,40,4,5,parrot      ,dress         ,html/resources/sequences_IDs/B/05_parrot.jpg,html/resources/sequences_IDs/A/07_dress.jpg,5,7,2,1,3,2,4,5,0,32,,,,,,,,,,,,,,,,,,,,
,,,,,32,2020-07-03_15h41.30.916,retriever_ti,2020.1.3,Win32,60,Chrome,1152,864,,,,,,,,,,,,,,,,,1,,,,,,,,,,,,,,,,,,,,,,,,,,,405.977055,41,left,0.8556,hat           ,7,8,1,1,1,406.01074,406.01074,408.511895,0,40,40,40,1,41,7,6,hat           ,giraffe     ,html/resources/sequences_IDs/A/08_hat.jpg,html/resources/sequences_IDs/B/03_giraffe.jpg,8,3,3,2,1,1,6,2,0,32,,,,,,,,,,,,,,,,,,,,
,,,,,32,2020-07-03_15h41.30.916,retriever_ti,2020.1.3,Win32,60,Chrome,1152,864,,,,,,,,,,,,,,,,,1,,,,,,,,,,,,,,,,,,,,,,,,,,,409.613045,42,left,0.986185,radio       ,2,10,-5,0,3,409.629955,409.629955,412.13096,0,41,41,41,1,42,2,7,radio       ,hat           ,html/resources/sequences_IDs/B/10_radio.jpg,html/resources/sequences_IDs/A/08_hat.jpg,10,8,4,2,3,2,8,6,0,32,,,,,,,,,,,,,,,,,,,,
,,,,,32,2020-07-03_15h41.30.916,retriever_ti,2020.1.3,Win32,60,Chrome,1152,864,,,,,,,,,,,,,,,,,1,,,,,,,,,,,,,,,,,,,,,,,,,,,412.73163,43,right,0.71712,parrot      ,4,5,1,1,1,412.76574,412.76574,415.266455,0,42,42,42,1,43,3,4,clownfish     ,parrot      ,html/resources/sequences_IDs/A/04_clownfish.jpg,html/resources/sequences_IDs/B/05_parrot.jpg,4,5,2,1,2,1,3,4,0,32,,,,,,,,,,,,,,,,,,,,
,,,,,32,2020-07-03_15h41.30.916,retriever_ti,2020.1.3,Win32,60,Chrome,1152,864,,,,,,,,,,,,,,,,,1,,,,,,,,,,,,,,,,,,,,,,,,,,,416.36798,44,left,0.484855,parrot      ,4,5,1,1,1,416.4014,416.4014,418.902615,0,43,43,43,1,44,4,3,parrot      ,clownfish     ,html/resources/sequences_IDs/B/05_parrot.jpg,html/resources/sequences_IDs/A/04_clownfish.jpg,5,4,2,1,2,1,4,3,0,32,,,,,,,,,,,,,,,,,,,,
,,,,,32,2020-07-03_15h41.30.916,retriever_ti,2020.1.3,Win32,60,Chrome,1152,864,,,,,,,,,,,,,,,,,1,,,,,,,,,,,,,,,,,,,,,,,,,,,420.003405,45,right,0.44526,calculator    ,1,9,-5,0,3,420.02052,420.02052,422.52163,0,44,44,44,1,45,6,1,giraffe     ,calculator    ,html/resources/sequences_IDs/B/03_giraffe.jpg,html/resources/sequences_IDs/A/09_calculator.jpg,3,9,1,1,4,2,2,7,0,32,,,,,,,,,,,,,,,,,,,,
,,,,,32,2020-07-03_15h41.30.916,retriever_ti,2020.1.3,Win32,60,Chrome,1152,864,,,,,,,,,,,,,,,,,1,,,,,,,,,,,,,,,,,,,,,,,,,,,423.12273,46,right,0.68953,dress         ,5,7,-2,0,3,423.156435,423.156435,425.657175,0,45,45,45,1,46,7,5,hat           ,dress         ,html/resources/sequences_IDs/A/08_hat.jpg,html/resources/sequences_IDs/A/07_dress.jpg,8,7,3,2,3,2,6,5,0,32,,,,,,,,,,,,,,,,,,,,
,,,,,32,2020-07-03_15h41.30.916,retriever_ti,2020.1.3,Win32,60,Chrome,1152,864,,,,,,,,,,,,,,,,,1,,,,,,,,,,,,,,,,,,,,,,,,,,,426.257975,47,left,0.597555,radio       ,2,10,-1,0,0,426.291715,426.291715,428.792935,0,46,46,46,1,47,2,3,radio       ,clownfish     ,html/resources/sequences_IDs/B/10_radio.jpg,html/resources/sequences_IDs/A/04_clownfish.jpg,10,4,4,2,2,1,8,3,0,32,,,,,,,,,,,,,,,,,,,,
,,,,,32,2020-07-03_15h41.30.916,retriever_ti,2020.1.3,Win32,60,Chrome,1152,864,,,,,,,,,,,,,,,,,1,,,,,,,,,,,,,,,,,,,,,,,,,,,429.89436,48,right,0.9878,dress         ,5,7,1,1,0,429.927605,429.927605,432.428635,0,47,47,47,1,48,4,5,parrot      ,dress         ,html/resources/sequences_IDs/B/05_parrot.jpg,html/resources/sequences_IDs/A/07_dress.jpg,5,7,2,1,3,2,4,5,1,32,,,,,,,,,,,,,,,,,,,,
,,,,,32,2020-07-03_15h41.30.916,retriever_ti,2020.1.3,Win32,60,Chrome,1152,864,,,,,,,,,,,,,,,,,1,,,,,,,,,,,,,,,,,,,,,,,,,,,433.529645,49,right,1.04757,hat           ,7,8,6,1,3,433.563915,433.563915,436.06445,0,48,48,48,1,49,1,7,calculator    ,hat           ,html/resources/sequences_IDs/A/09_calculator.jpg,html/resources/sequences_IDs/A/08_hat.jpg,9,8,4,2,3,2,7,6,0,32,,,,,,,,,,,,,,,,,,,,
,,,,,32,2020-07-03_15h41.30.916,retriever_ti,2020.1.3,Win32,60,Chrome,1152,864,,,,,,,,,,,,,,,,,1,,,,,,,,,,,,,,,,,,,,,,,,,,,436.66551,50,left,0.56455,parrot      ,4,5,-1,0,0,436.69911,436.69911,439.200025,0,49,49,49,1,50,4,5,parrot      ,dress         ,html/resources/sequences_IDs/B/05_parrot.jpg,html/resources/sequences_IDs/A/07_dress.jpg,5,7,2,1,3,2,4,5,0,32,,,,,,,,,,,,,,,,,,,,
,,,,,32,2020-07-03_15h41.30.916,retriever_ti,2020.1.3,Win32,60,Chrome,1152,864,,,,,,,,,,,,,,,,,1,,,,,,,,,,,,,,,,,,,,,,,,,,,440.30099,51,left,0.67801,dress         ,5,7,2,1,3,440.33502,440.33502,442.83594,0,50,50,50,1,51,5,3,dress         ,clownfish     ,html/resources/sequences_IDs/A/07_dress.jpg,html/resources/sequences_IDs/A/04_clownfish.jpg,7,4,3,2,2,1,5,3,0,32,,,,,,,,,,,,,,,,,,,,
,,,,,32,2020-07-03_15h41.30.916,retriever_ti,2020.1.3,Win32,60,Chrome,1152,864,,,,,,,,,,,,,,,,,1,,,,,,,,,,,,,,,,,,,,,,,,,,,443.43709,52,left,0.47418,dress         ,5,7,-3,0,3,443.470375,443.470375,445.97148,0,51,51,51,1,52,5,8,dress         ,redfox      ,html/resources/sequences_IDs/A/07_dress.jpg,html/resources/sequences_IDs/B/01_redfox.jpg,7,1,3,2,1,1,5,1,0,32,,,,,,,,,,,,,,,,,,,,
,,,,,32,2020-07-03_15h41.30.916,retriever_ti,2020.1.3,Win32,60,Chrome,1152,864,,,,,,,,,,,,,,,,,1,,,,,,,,,,,,,,,,,,,,,,,,,,,446.57248,53,right,0.576205,parrot      ,4,5,3,1,3,446.606,446.606,449.107025,0,52,52,52,1,53,1,4,calculator    ,parrot      ,html/resources/sequences_IDs/A/09_calculator.jpg,html/resources/sequences_IDs/B/05_parrot.jpg,9,5,4,2,2,1,7,4,0,32,,,,,,,,,,,,,,,,,,,,
,,,,,32,2020-07-03_15h41.30.916,retriever_ti,2020.1.3,Win32,60,Chrome,1152,864,,,,,,,,,,,,,,,,,1,,,,,,,,,,,,,,,,,,,,,,,,,,,449.70821,54,left,0.499855,redfox      ,8,1,5,1,3,449.741745,449.741745,452.24249,0,53,53,53,1,54,8,3,redfox      ,clownfish     ,html/resources/sequences_IDs/B/01_redfox.jpg,html/resources/sequences_IDs/A/04_clownfish.jpg,1,4,1,1,2,1,1,3,0,32,,,,,,,,,,,,,,,,,,,,
,,,,,32,2020-07-03_15h41.30.916,retriever_ti,2020.1.3,Win32,60,Chrome,1152,864,,,,,,,,,,,,,,,,,1,,,,,,,,,,,,,,,,,,,,,,,,,,,452.843215,55,right,0.543045,dress         ,5,7,-1,0,0,452.860515,452.860515,455.361405,0,54,54,54,1,55,6,5,giraffe     ,dress         ,html/resources/sequences_IDs/B/03_giraffe.jpg,html/resources/sequences_IDs/A/07_dress.jpg,3,7,1,1,3,2,2,5,0,32,,,,,,,,,,,,,,,,,,,,
,,,,,32,2020-07-03_15h41.30.916,retriever_ti,2020.1.3,Win32,60,Chrome,1152,864,,,,,,,,,,,,,,,,,1,,,,,,,,,,,,,,,,,,,,,,,,,,,456.462935,56,left,0.31256,hat           ,7,8,-1,0,0,456.479645,456.479645,458.980915,0,55,55,55,1,56,7,8,hat           ,redfox      ,html/resources/sequences_IDs/A/08_hat.jpg,html/resources/sequences_IDs/B/01_redfox.jpg,8,1,3,2,1,1,6,1,0,32,,,,,,,,,,,,,,,,,,,,
,,,,,32,2020-07-03_15h41.30.916,retriever_ti,2020.1.3,Win32,60,Chrome,1152,864,,,,,,,,,,,,,,,,,1,,,,,,,,,,,,,,,,,,,,,,,,,,,460.081785,57,left,0.547855,giraffe     ,6,3,-1,0,0,460.099255,460.099255,462.599945,0,56,56,56,1,57,6,7,giraffe     ,hat           ,html/resources/sequences_IDs/B/03_giraffe.jpg,html/resources/sequences_IDs/A/08_hat.jpg,3,8,1,1,3,2,2,6,0,32,,,,,,,,,,,,,,,,,,,,
,,,,,32,2020-07-03_15h41.30.916,retriever_ti,2020.1.3,Win32,60,Chrome,1152,864,,,,,,,,,,,,,,,,,1,,,,,,,,,,,,,,,,,,,,,,,,,,,463.701345,58,right,0.68473,radio       ,2,10,1,1,1,463.718185,463.718185,466.2192,0,57,57,57,1,58,1,2,calculator    ,radio       ,html/resources/sequences_IDs/A/09_calculator.jpg,html/resources/sequences_IDs/B/10_radio.jpg,9,10,4,2,4,2,7,8,0,32,,,,,,,,,,,,,,,,,,,,
,,,,,32,2020-07-03_15h41.30.916,retriever_ti,2020.1.3,Win32,60,Chrome,1152,864,,,,,,,,,,,,,,,,,1,,,,,,,,,,,,,,,,,,,,,,,,,,,467.32037,59,right,0.53911,redfox      ,8,1,5,1,3,467.3543,467.3543,469.85496,0,58,58,58,1,59,3,8,clownfish     ,redfox      ,html/resources/sequences_IDs/A/04_clownfish.jpg,html/resources/sequences_IDs/B/01_redfox.jpg,4,1,2,1,1,1,3,1,0,32,,,,,,,,,,,,,,,,,,,,
,,,,,32,2020-07-03_15h41.30.916,retriever_ti,2020.1.3,Win32,60,Chrome,1152,864,,,,,,,,,,,,,,,,,1,,,,,,,,,,,,,,,,,,,,,,,,,,,470.456185,60,left,0.41221,radio       ,2,10,-3,0,3,470.47287,470.47287,472.97374,0,59,59,59,1,60,2,5,radio       ,dress         ,html/resources/sequences_IDs/B/10_radio.jpg,html/resources/sequences_IDs/A/07_dress.jpg,10,7,4,2,3,2,8,5,0,32,,,,,,,,,,,,,,,,,,,,
,,,,,32,2020-07-03_15h41.30.916,retriever_ti,2020.1.3,Win32,60,Chrome,1152,864,,,,,,,,,,,,,,,,,1,,,,,,,,,,,,,,,,,,,,,,,,,,,473.574885,61,right,0.41444,radio       ,2,10,-4,0,3,473.59196,473.59196,476.092595,0,60,60,60,1,61,6,2,giraffe     ,radio       ,html/resources/sequences_IDs/B/03_giraffe.jpg,html/resources/sequences_IDs/B/10_radio.jpg,3,10,1,1,4,2,2,8,0,32,,,,,,,,,,,,,,,,,,,,
,,,,,32,2020-07-03_15h41.30.916,retriever_ti,2020.1.3,Win32,60,Chrome,1152,864,,,,,,,,,,,,,,,,,1,,,,,,,,,,,,,,,,,,,,,,,,,,,476.69429,62,right,0.616955,calculator    ,1,9,-3,0,3,476.727575,476.727575,479.22823,0,61,61,61,1,62,4,1,parrot      ,calculator    ,html/resources/sequences_IDs/B/05_parrot.jpg,html/resources/sequences_IDs/A/09_calculator.jpg,5,9,2,1,4,2,4,7,0,32,,,,,,,,,,,,,,,,,,,,
,,,,,32,2020-07-03_15h41.30.916,retriever_ti,2020.1.3,Win32,60,Chrome,1152,864,,,,,,,,,,,,,,,,,1,,,,,,,,,,,,,,,,,,,,,,,,,,,479.828945,63,right,0.47092,redfox      ,8,1,1,1,1,479.846495,479.846495,482.34709,0,62,62,62,1,63,7,8,hat           ,redfox      ,html/resources/sequences_IDs/A/08_hat.jpg,html/resources/sequences_IDs/B/01_redfox.jpg,8,1,3,2,1,1,6,1,0,32,,,,,,,,,,,,,,,,,,,,
,,,,,32,2020-07-03_15h41.30.916,retriever_ti,2020.1.3,Win32,60,Chrome,1152,864,,,,,,,,,,,,,,,,,1,,,,,,,,,,,,,,,,,,,,,,,,,,,483.448875,64,right,0.36169,parrot      ,4,5,-3,0,3,483.465605,483.465605,485.966395,0,63,63,63,1,64,7,4,hat           ,parrot      ,html/resources/sequences_IDs/A/08_hat.jpg,html/resources/sequences_IDs/B/05_parrot.jpg,8,5,3,2,2,1,6,4,0,32,,,,,,,,,,,,,,,,,,,,
,,,,,32,2020-07-03_15h41.30.916,retriever_ti,2020.1.3,Win32,60,Chrome,1152,864,,,,,,,,,,,,,,,,,1,,,,,,,,,,,,,,,,,,,,,,,,,,,486.567225,65,right,0.47363,parrot      ,4,5,-1,0,0,486.601205,486.601205,489.101915,0,64,64,64,1,65,5,4,dress         ,parrot      ,html/resources/sequences_IDs/A/07_dress.jpg,html/resources/sequences_IDs/B/05_parrot.jpg,7,5,3,2,2,1,5,4,0,32,,,,,,,,,,,,,,,,,,,,
,,,,,32,2020-07-03_15h41.30.916,retriever_ti,2020.1.3,Win32,60,Chrome,1152,864,,,,,,,,,,,,,,,,,1,,,,,,,,,,,,,,,,,,,,,,,,,,,490.203415,66,right,1.11078,parrot      ,4,5,1,1,0,490.237015,490.237015,492.737685,0,65,65,65,1,66,3,4,clownfish     ,parrot      ,html/resources/sequences_IDs/A/04_clownfish.jpg,html/resources/sequences_IDs/B/05_parrot.jpg,4,5,2,1,2,1,3,4,1,32,,,,,,,,,,,,,,,,,,,,
,,,,,32,2020-07-03_15h41.30.916,retriever_ti,2020.1.3,Win32,60,Chrome,1152,864,,,,,,,,,,,,,,,,,1,,,,,,,,,,,,,,,,,,,,,,,,,,,493.83923,67,left,0.601405,radio       ,2,10,1,1,1,493.856075,493.856075,496.35718,0,66,66,66,1,67,2,1,radio       ,calculator    ,html/resources/sequences_IDs/B/10_radio.jpg,html/resources/sequences_IDs/A/09_calculator.jpg,10,9,4,2,4,2,8,7,0,32,,,,,,,,,,,,,,,,,,,,
,,,,,32,2020-07-03_15h41.30.916,retriever_ti,2020.1.3,Win32,60,Chrome,1152,864,,,,,,,,,,,,,,,,,1,,,,,,,,,,,,,,,,,,,,,,,,,,,497.458905,68,right,0.5255,parrot      ,4,5,-1,0,0,497.475365,497.475365,499.97646,0,67,67,67,1,68,5,4,dress         ,parrot      ,html/resources/sequences_IDs/A/07_dress.jpg,html/resources/sequences_IDs/B/05_parrot.jpg,7,5,3,2,2,1,5,4,0,32,,,,,,,,,,,,,,,,,,,,
,,,,,32,2020-07-03_15h41.30.916,retriever_ti,2020.1.3,Win32,60,Chrome,1152,864,,,,,,,,,,,,,,,,,1,,,,,,,,,,,,,,,,,,,,,,,,,,,501.07725,69,right,0.484435,calculator    ,1,9,-2,0,3,501.11146,501.11146,503.612115,0,68,68,68,1,69,3,1,clownfish     ,calculator    ,html/resources/sequences_IDs/A/04_clownfish.jpg,html/resources/sequences_IDs/A/09_calculator.jpg,4,9,2,1,4,2,3,7,0,32,,,,,,,,,,,,,,,,,,,,
,,,,,32,2020-07-03_15h41.30.916,retriever_ti,2020.1.3,Win32,60,Chrome,1152,864,,,,,,,,,,,,,,,,,1,,,,,,,,,,,,,,,,,,,,,,,,,,,504.21333,70,left,0.54613,clownfish     ,3,4,-4,0,3,504.230115,504.230115,506.731005,0,69,69,69,1,70,3,7,clownfish     ,hat           ,html/resources/sequences_IDs/A/04_clownfish.jpg,html/resources/sequences_IDs/A/08_hat.jpg,4,8,2,1,3,2,3,6,0,32,,,,,,,,,,,,,,,,,,,,
,,,,,32,2020-07-03_15h41.30.916,retriever_ti,2020.1.3,Win32,60,Chrome,1152,864,,,,,,,,,,,,,,,,,1,,,,,,,,,,,,,,,,,,,,,,,,,,,507.331805,71,left,0.960435,redfox      ,8,1,6,1,3,507.365775,507.365775,509.86641,0,70,70,70,1,71,8,2,redfox      ,radio       ,html/resources/sequences_IDs/B/01_redfox.jpg,html/resources/sequences_IDs/B/10_radio.jpg,1,10,1,1,4,2,1,8,0,32,,,,,,,,,,,,,,,,,,,,
,,,,,32,2020-07-03_15h41.30.916,retriever_ti,2020.1.3,Win32,60,Chrome,1152,864,,,,,,,,,,,,,,,,,1,,,,,,,,,,,,,,,,,,,,,,,,,,,510.467935,72,left,0.91595,parrot      ,4,5,1,1,1,510.501165,510.501165,513.001955,0,71,71,71,1,72,4,3,parrot      ,clownfish     ,html/resources/sequences_IDs/B/05_parrot.jpg,html/resources/sequences_IDs/A/04_clownfish.jpg,5,4,2,1,2,1,4,3,0,32,,,,,,,,,,,,,,,,,,,,
,,,,,32,2020-07-03_15h41.30.916,retriever_ti,2020.1.3,Win32,60,Chrome,1152,864,,,,,,,,,,,,,,,,,1,,,,,,,,,,,,,,,,,,,,,,,,,,,514.103425,73,left,0.45515,redfox      ,8,1,3,1,3,514.120425,514.120425,516.621335,0,72,72,72,1,73,8,5,redfox      ,dress         ,html/resources/sequences_IDs/B/01_redfox.jpg,html/resources/sequences_IDs/A/07_dress.jpg,1,7,1,1,3,2,1,5,0,32,,,,,,,,,,,,,,,,,,,,
,,,,,32,2020-07-03_15h41.30.916,retriever_ti,2020.1.3,Win32,60,Chrome,1152,864,,,,,,,,,,,,,,,,,1,,,,,,,,,,,,,,,,,,,,,,,,,,,517.22248,74,left,1.27762,giraffe     ,6,3,-1,0,0,517.239355,517.239355,519.74028,0,73,73,73,1,74,6,7,giraffe     ,hat           ,html/resources/sequences_IDs/B/03_giraffe.jpg,html/resources/sequences_IDs/A/08_hat.jpg,3,8,1,1,3,2,2,6,0,32,,,,,,,,,,,,,,,,,,,,
,,,,,32,2020-07-03_15h41.30.916,retriever_ti,2020.1.3,Win32,60,Chrome,1152,864,,,,,,,,,,,,,,,,,1,,,,,,,,,,,,,,,,,,,,,,,,,,,520.841435,75,right,0.25069,giraffe     ,6,3,-2,0,3,520.87563,520.87563,523.37622,0,74,74,74,1,75,8,6,redfox      ,giraffe     ,html/resources/sequences_IDs/B/01_redfox.jpg,html/resources/sequences_IDs/B/03_giraffe.jpg,1,3,1,1,1,1,1,2,0,32,,,,,,,,,,,,,,,,,,,,
,,,,,32,2020-07-03_15h41.30.916,retriever_ti,2020.1.3,Win32,60,Chrome,1152,864,,,,,,,,,,,,,,,,,1,,,,,,,,,,,,,,,,,,,,,,,,,,,523.97738,76,right,0.28826,giraffe     ,6,3,1,1,1,524.010605,524.010605,526.51156,0,75,75,75,1,76,5,6,dress         ,giraffe     ,html/resources/sequences_IDs/A/07_dress.jpg,html/resources/sequences_IDs/B/03_giraffe.jpg,7,3,3,2,1,1,5,2,0,32,,,,,,,,,,,,,,,,,,,,
,,,,,32,2020-07-03_15h41.30.916,retriever_ti,2020.1.3,Win32,60,Chrome,1152,864,,,,,,,,,,,,,,,,,1,,,,,,,,,,,,,,,,,,,,,,,,,,,527.61272,77,right,0.27801,hat           ,7,8,-1,0,1,527.62991,527.62991,530.13089,0,76,76,76,1,77,8,7,redfox      ,hat           ,html/resources/sequences_IDs/B/01_redfox.jpg,html/resources/sequences_IDs/A/08_hat.jpg,1,8,1,1,3,2,1,6,1,32,,,,,,,,,,,,,,,,,,,,
,,,,,32,2020-07-03_15h41.30.916,retriever_ti,2020.1.3,Win32,60,Chrome,1152,864,,,,,,,,,,,,,,,,,,,,,,,,,,,,,,,,,,,,,0,7.165445,,,,,,,,,,,,,,,,,,,,,,,,,,,,,,,,,,,,,,,,,0,0,0,0,1,,,,,,,,,,,,,,,
,,,,,32,2020-07-03_15h41.30.916,retriever_ti,2020.1.3,Win32,60,Chrome,1152,864,,,,,,,,,,,,,,,,,2,,,,,,,,,,,,,,,,,,,,,,,,,,,562.615465,78,NaN,NaN,No_response,NaN,NaN,NaN,2,2,562.621795,562.621795,565.12214,0,0,0,0,1,78,3,8,clownfish     ,redfox      ,html/resources/sequences_IDs/A/04_clownfish.jpg,html/resources/sequences_IDs/B/01_redfox.jpg,4,1,2,1,1,1,3,1,0,32,,,,,,,,,,,,,,,,,,,,
,,,,,32,2020-07-03_15h41.30.916,retriever_ti,2020.1.3,Win32,60,Chrome,1152,864,,,,,,,,,,,,,,,,,2,,,,,,,,,,,,,,,,,,,,,,,,,,,566.22355,79,right,0.729475,giraffe     ,6,3,3,1,3,566.25739,566.25739,568.75809,0,1,1,1,1,79,3,6,clownfish     ,giraffe     ,html/resources/sequences_IDs/A/04_clownfish.jpg,html/resources/sequences_IDs/B/03_giraffe.jpg,4,3,2,1,1,1,3,2,0,32,,,,,,,,,,,,,,,,,,,,
,,,,,32,2020-07-03_15h41.30.916,retriever_ti,2020.1.3,Win32,60,Chrome,1152,864,,,,,,,,,,,,,,,,,2,,,,,,,,,,,,,,,,,,,,,,,,,,,569.3596,80,left,0.67887,radio       ,2,10,-1,0,0,569.37639,569.37639,571.877055,0,2,2,2,1,80,2,3,radio       ,clownfish     ,html/resources/sequences_IDs/B/10_radio.jpg,html/resources/sequences_IDs/A/04_clownfish.jpg,10,4,4,2,2,1,8,3,0,32,,,,,,,,,,,,,,,,,,,,
,,,,,32,2020-07-03_15h41.30.916,retriever_ti,2020.1.3,Win32,60,Chrome,1152,864,,,,,,,,,,,,,,,,,2,,,,,,,,,,,,,,,,,,,,,,,,,,,572.978025,81,left,0.631515,redfox      ,8,1,1,1,1,572.99524,572.99524,575.496115,0,3,3,3,1,81,8,7,redfox      ,hat           ,html/resources/sequences_IDs/B/01_redfox.jpg,html/resources/sequences_IDs/A/08_hat.jpg,1,8,1,1,3,2,1,6,0,32,,,,,,,,,,,,,,,,,,,,
,,,,,32,2020-07-03_15h41.30.916,retriever_ti,2020.1.3,Win32,60,Chrome,1152,864,,,,,,,,,,,,,,,,,2,,,,,,,,,,,,,,,,,,,,,,,,,,,576.597725,82,left,0.702355,dress         ,5,7,1,1,1,576.614685,576.614685,579.115305,0,4,4,4,1,82,5,4,dress         ,parrot      ,html/resources/sequences_IDs/A/07_dress.jpg,html/resources/sequences_IDs/B/05_parrot.jpg,7,5,3,2,2,1,5,4,0,32,,,,,,,,,,,,,,,,,,,,
,,,,,32,2020-07-03_15h41.30.916,retriever_ti,2020.1.3,Win32,60,Chrome,1152,864,,,,,,,,,,,,,,,,,2,,,,,,,,,,,,,,,,,,,,,,,,,,,580.216675,83,right,0.883905,radio       ,2,10,1,1,1,580.23378,580.23378,582.734535,0,5,5,5,1,83,1,2,calculator    ,radio       ,html/resources/sequences_IDs/A/09_calculator.jpg,html/resources/sequences_IDs/B/10_radio.jpg,9,10,4,2,4,2,7,8,0,32,,,,,,,,,,,,,,,,,,,,
,,,,,32,2020-07-03_15h41.30.916,retriever_ti,2020.1.3,Win32,60,Chrome,1152,864,,,,,,,,,,,,,,,,,2,,,,,,,,,,,,,,,,,,,,,,,,,,,583.83606,84,left,0.85059,dress         ,5,7,1,1,0,583.852765,583.852765,586.353995,0,6,6,6,1,84,5,4,dress         ,parrot      ,html/resources/sequences_IDs/A/07_dress.jpg,html/resources/sequences_IDs/B/05_parrot.jpg,7,5,3,2,2,1,5,4,1,32,,,,,,,,,,,,,,,,,,,,
,,,,,32,2020-07-03_15h41.30.916,retriever_ti,2020.1.3,Win32,60,Chrome,1152,864,,,,,,,,,,,,,,,,,2,,,,,,,,,,,,,,,,,,,,,,,,,,,587.455025,85,right,1.077705,clownfish     ,3,4,-3,0,3,587.47212,587.47212,589.97337,0,7,7,7,1,85,6,3,giraffe     ,clownfish     ,html/resources/sequences_IDs/B/03_giraffe.jpg,html/resources/sequences_IDs/A/04_clownfish.jpg,3,4,1,1,2,1,2,3,0,32,,,,,,,,,,,,,,,,,,,,
,,,,,32,2020-07-03_15h41.30.916,retriever_ti,2020.1.3,Win32,60,Chrome,1152,864,,,,,,,,,,,,,,,,,2,,,,,,,,,,,,,,,,,,,,,,,,,,,590.574575,86,left,0.668025,redfox      ,8,1,1,1,1,590.6079,590.6079,593.10862,0,8,8,8,1,86,8,7,redfox      ,hat           ,html/resources/sequences_IDs/B/01_redfox.jpg,html/resources/sequences_IDs/A/08_hat.jpg,1,8,1,1,3,2,1,6,0,32,,,,,,,,,,,,,,,,,,,,
,,,,,32,2020-07-03_15h41.30.916,retriever_ti,2020.1.3,Win32,60,Chrome,1152,864,,,,,,,,,,,,,,,,,2,,,,,,,,,,,,,,,,,,,,,,,,,,,594.209765,87,right,0.86096,parrot      ,4,5,-2,0,3,594.226915,594.226915,596.727905,0,9,9,9,1,87,6,4,giraffe     ,parrot      ,html/resources/sequences_IDs/B/03_giraffe.jpg,html/resources/sequences_IDs/B/05_parrot.jpg,3,5,1,1,2,1,2,4,0,32,,,,,,,,,,,,,,,,,,,,
,,,,,32,2020-07-03_15h41.30.916,retriever_ti,2020.1.3,Win32,60,Chrome,1152,864,,,,,,,,,,,,,,,,,2,,,,,,,,,,,,,,,,,,,,,,,,,,,597.328905,88,left,0.314075,dress         ,5,7,-3,0,3,597.36286,597.36286,599.86332,0,10,10,10,1,88,5,8,dress         ,redfox      ,html/resources/sequences_IDs/A/07_dress.jpg,html/resources/sequences_IDs/B/01_redfox.jpg,7,1,3,2,1,1,5,1,0,32,,,,,,,,,,,,,,,,,,,,
,,,,,32,2020-07-03_15h41.30.916,retriever_ti,2020.1.3,Win32,60,Chrome,1152,864,,,,,,,,,,,,,,,,,2,,,,,,,,,,,,,,,,,,,,,,,,,,,600.46412,89,left,0.493125,parrot      ,4,5,1,1,0,600.498065,600.498065,602.99924,0,11,11,11,1,89,4,3,parrot      ,clownfish     ,html/resources/sequences_IDs/B/05_parrot.jpg,html/resources/sequences_IDs/A/04_clownfish.jpg,5,4,2,1,2,1,4,3,1,32,,,,,,,,,,,,,,,,,,,,
,,,,,32,2020-07-03_15h41.30.916,retriever_ti,2020.1.3,Win32,60,Chrome,1152,864,,,,,,,,,,,,,,,,,2,,,,,,,,,,,,,,,,,,,,,,,,,,,604.10066,90,left,0.574005,hat           ,7,8,5,1,3,604.13422,604.13422,606.635095,0,12,12,12,1,90,7,2,hat           ,radio       ,html/resources/sequences_IDs/A/08_hat.jpg,html/resources/sequences_IDs/B/10_radio.jpg,8,10,3,2,4,2,6,8,0,32,,,,,,,,,,,,,,,,,,,,
,,,,,32,2020-07-03_15h41.30.916,retriever_ti,2020.1.3,Win32,60,Chrome,1152,864,,,,,,,,,,,,,,,,,2,,,,,,,,,,,,,,,,,,,,,,,,,,,607.23576,91,right,0.353655,radio       ,2,10,-2,0,3,607.253055,607.253055,609.75395,0,13,13,13,1,91,4,2,parrot      ,radio       ,html/resources/sequences_IDs/B/05_parrot.jpg,html/resources/sequences_IDs/B/10_radio.jpg,5,10,2,1,4,2,4,8,0,32,,,,,,,,,,,,,,,,,,,,
,,,,,32,2020-07-03_15h41.30.916,retriever_ti,2020.1.3,Win32,60,Chrome,1152,864,,,,,,,,,,,,,,,,,2,,,,,,,,,,,,,,,,,,,,,,,,,,,610.354855,92,left,0.48682,calculator    ,1,9,-5,0,3,610.371465,610.371465,612.872875,0,14,14,14,1,92,1,6,calculator    ,giraffe     ,html/resources/sequences_IDs/A/09_calculator.jpg,html/resources/sequences_IDs/B/03_giraffe.jpg,9,3,4,2,1,1,7,2,0,32,,,,,,,,,,,,,,,,,,,,
,,,,,32,2020-07-03_15h41.30.916,retriever_ti,2020.1.3,Win32,60,Chrome,1152,864,,,,,,,,,,,,,,,,,2,,,,,,,,,,,,,,,,,,,,,,,,,,,613.47358,93,right,0.548445,parrot      ,4,5,-3,0,3,613.490505,613.490505,615.99159,0,15,15,15,1,93,7,4,hat           ,parrot      ,html/resources/sequences_IDs/A/08_hat.jpg,html/resources/sequences_IDs/B/05_parrot.jpg,8,5,3,2,2,1,6,4,0,32,,,,,,,,,,,,,,,,,,,,
,,,,,32,2020-07-03_15h41.30.916,retriever_ti,2020.1.3,Win32,60,Chrome,1152,864,,,,,,,,,,,,,,,,,2,,,,,,,,,,,,,,,,,,,,,,,,,,,616.59324,94,left,0.308,redfox      ,8,1,2,1,3,616.60946,616.60946,619.11067,0,16,16,16,1,94,8,6,redfox      ,giraffe     ,html/resources/sequences_IDs/B/01_redfox.jpg,html/resources/sequences_IDs/B/03_giraffe.jpg,1,3,1,1,1,1,1,2,0,32,,,,,,,,,,,,,,,,,,,,
,,,,,32,2020-07-03_15h41.30.916,retriever_ti,2020.1.3,Win32,60,Chrome,1152,864,,,,,,,,,,,,,,,,,2,,,,,,,,,,,,,,,,,,,,,,,,,,,619.72796,95,right,0.30565,dress         ,5,7,2,1,3,619.744795,619.744795,622.245995,0,17,17,17,1,95,3,5,clownfish     ,dress         ,html/resources/sequences_IDs/A/04_clownfish.jpg,html/resources/sequences_IDs/A/07_dress.jpg,4,7,2,1,3,2,3,5,0,32,,,,,,,,,,,,,,,,,,,,
,,,,,32,2020-07-03_15h41.30.916,retriever_ti,2020.1.3,Win32,60,Chrome,1152,864,,,,,,,,,,,,,,,,,2,,,,,,,,,,,,,,,,,,,,,,,,,,,622.84701,96,left,0.58445,dress         ,5,7,-1,0,0,622.86358,622.86358,625.364595,0,18,18,18,1,96,5,6,dress         ,giraffe     ,html/resources/sequences_IDs/A/07_dress.jpg,html/resources/sequences_IDs/B/03_giraffe.jpg,7,3,3,2,1,1,5,2,0,32,,,,,,,,,,,,,,,,,,,,
,,,,,32,2020-07-03_15h41.30.916,retriever_ti,2020.1.3,Win32,60,Chrome,1152,864,,,,,,,,,,,,,,,,,2,,,,,,,,,,,,,,,,,,,,,,,,,,,626.465755,97,right,0.437415,radio       ,2,10,-6,0,3,626.500055,626.500055,629.000525,0,19,19,19,1,97,8,2,redfox      ,radio       ,html/resources/sequences_IDs/B/01_redfox.jpg,html/resources/sequences_IDs/B/10_radio.jpg,1,10,1,1,4,2,1,8,0,32,,,,,,,,,,,,,,,,,,,,
,,,,,32,2020-07-03_15h41.30.916,retriever_ti,2020.1.3,Win32,60,Chrome,1152,864,,,,,,,,,,,,,,,,,2,,,,,,,,,,,,,,,,,,,,,,,,,,,629.601655,98,right,0.459895,dress         ,5,7,-3,0,3,629.61869,629.61869,632.119475,0,20,20,20,1,98,8,5,redfox      ,dress         ,html/resources/sequences_IDs/B/01_redfox.jpg,html/resources/sequences_IDs/A/07_dress.jpg,1,7,1,1,3,2,1,5,0,32,,,,,,,,,,,,,,,,,,,,
,,,,,32,2020-07-03_15h41.30.916,retriever_ti,2020.1.3,Win32,60,Chrome,1152,864,,,,,,,,,,,,,,,,,2,,,,,,,,,,,,,,,,,,,,,,,,,,,632.720415,99,left,0.750265,calculator    ,1,9,-7,0,3,632.75445,632.75445,635.25534,0,21,21,21,1,99,1,8,calculator    ,redfox      ,html/resources/sequences_IDs/A/09_calculator.jpg,html/resources/sequences_IDs/B/01_redfox.jpg,9,1,4,2,1,1,7,1,0,32,,,,,,,,,,,,,,,,,,,,
,,,,,32,2020-07-03_15h41.30.916,retriever_ti,2020.1.3,Win32,60,Chrome,1152,864,,,,,,,,,,,,,,,,,2,,,,,,,,,,,,,,,,,,,,,,,,,,,635.85635,100,right,0.36023,hat           ,7,8,1,1,1,635.87283,635.87283,638.37381,0,22,22,22,1,100,6,7,giraffe     ,hat           ,html/resources/sequences_IDs/B/03_giraffe.jpg,html/resources/sequences_IDs/A/08_hat.jpg,3,8,1,1,3,2,2,6,0,32,,,,,,,,,,,,,,,,,,,,
,,,,,32,2020-07-03_15h41.30.916,retriever_ti,2020.1.3,Win32,60,Chrome,1152,864,,,,,,,,,,,,,,,,,2,,,,,,,,,,,,,,,,,,,,,,,,,,,639.474875,101,right,0.398745,redfox      ,8,1,2,1,3,639.509085,639.509085,642.009775,0,23,23,23,1,101,6,8,giraffe     ,redfox      ,html/resources/sequences_IDs/B/03_giraffe.jpg,html/resources/sequences_IDs/B/01_redfox.jpg,3,1,1,1,1,1,2,1,0,32,,,,,,,,,,,,,,,,,,,,
,,,,,32,2020-07-03_15h41.30.916,retriever_ti,2020.1.3,Win32,60,Chrome,1152,864,,,,,,,,,,,,,,,,,2,,,,,,,,,,,,,,,,,,,,,,,,,,,642.61118,102,left,0.58524,clownfish     ,3,4,2,1,3,642.64428,642.64428,645.14541,0,24,24,24,1,102,3,1,clownfish     ,calculator    ,html/resources/sequences_IDs/A/04_clownfish.jpg,html/resources/sequences_IDs/A/09_calculator.jpg,4,9,2,1,4,2,3,7,0,32,,,,,,,,,,,,,,,,,,,,
,,,,,32,2020-07-03_15h41.30.916,retriever_ti,2020.1.3,Win32,60,Chrome,1152,864,,,,,,,,,,,,,,,,,2,,,,,,,,,,,,,,,,,,,,,,,,,,,645.746055,103,right,0.68557,radio       ,2,10,-1,0,0,645.77987,645.77987,648.28076,0,25,25,25,1,103,3,2,clownfish     ,radio       ,html/resources/sequences_IDs/A/04_clownfish.jpg,html/resources/sequences_IDs/B/10_radio.jpg,4,10,2,1,4,2,3,8,0,32,,,,,,,,,,,,,,,,,,,,
,,,,,32,2020-07-03_15h41.30.916,retriever_ti,2020.1.3,Win32,60,Chrome,1152,864,,,,,,,,,,,,,,,,,2,,,,,,,,,,,,,,,,,,,,,,,,,,,649.38238,104,right,0.63163,radio       ,2,10,-4,0,3,649.415945,649.415945,651.916815,0,26,26,26,1,104,6,2,giraffe     ,radio       ,html/resources/sequences_IDs/B/03_giraffe.jpg,html/resources/sequences_IDs/B/10_radio.jpg,3,10,1,1,4,2,2,8,0,32,,,,,,,,,,,,,,,,,,,,
,,,,,32,2020-07-03_15h41.30.916,retriever_ti,2020.1.3,Win32,60,Chrome,1152,864,,,,,,,,,,,,,,,,,2,,,,,,,,,,,,,,,,,,,,,,,,,,,652.51772,105,left,0.36317,parrot      ,4,5,-3,0,3,652.534585,652.534585,655.03584,0,27,27,27,1,105,4,7,parrot      ,hat           ,html/resources/sequences_IDs/B/05_parrot.jpg,html/resources/sequences_IDs/A/08_hat.jpg,5,8,2,1,3,2,4,6,0,32,,,,,,,,,,,,,,,,,,,,
,,,,,32,2020-07-03_15h41.30.916,retriever_ti,2020.1.3,Win32,60,Chrome,1152,864,,,,,,,,,,,,,,,,,2,,,,,,,,,,,,,,,,,,,,,,,,,,,655.63681,106,right,0.579985,giraffe     ,6,3,-1,0,0,655.653735,655.653735,658.154775,0,28,28,28,1,106,7,6,hat           ,giraffe     ,html/resources/sequences_IDs/A/08_hat.jpg,html/resources/sequences_IDs/B/03_giraffe.jpg,8,3,3,2,1,1,6,2,0,32,,,,,,,,,,,,,,,,,,,,
,,,,,32,2020-07-03_15h41.30.916,retriever_ti,2020.1.3,Win32,60,Chrome,1152,864,,,,,,,,,,,,,,,,,2,,,,,,,,,,,,,,,,,,,,,,,,,,,659.255865,107,right,0.853545,calculator    ,1,9,-6,0,3,659.273025,659.273025,661.7736,0,29,29,29,1,107,7,1,hat           ,calculator    ,html/resources/sequences_IDs/A/08_hat.jpg,html/resources/sequences_IDs/A/09_calculator.jpg,8,9,3,2,4,2,6,7,0,32,,,,,,,,,,,,,,,,,,,,
,,,,,32,2020-07-03_15h41.30.916,retriever_ti,2020.1.3,Win32,60,Chrome,1152,864,,,,,,,,,,,,,,,,,2,,,,,,,,,,,,,,,,,,,,,,,,,,,662.374905,108,left,0.529445,parrot      ,4,5,1,1,1,662.40862,662.40862,664.90955,0,30,30,30,1,108,4,3,parrot      ,clownfish     ,html/resources/sequences_IDs/B/05_parrot.jpg,html/resources/sequences_IDs/A/04_clownfish.jpg,5,4,2,1,2,1,4,3,0,32,,,,,,,,,,,,,,,,,,,,
,,,,,32,2020-07-03_15h41.30.916,retriever_ti,2020.1.3,Win32,60,Chrome,1152,864,,,,,,,,,,,,,,,,,2,,,,,,,,,,,,,,,,,,,,,,,,,,,666.010625,109,right,0.462755,dress         ,5,7,1,1,1,666.04442,666.04442,668.54512,0,31,31,31,1,109,4,5,parrot      ,dress         ,html/resources/sequences_IDs/B/05_parrot.jpg,html/resources/sequences_IDs/A/07_dress.jpg,5,7,2,1,3,2,4,5,0,32,,,,,,,,,,,,,,,,,,,,
,,,,,32,2020-07-03_15h41.30.916,retriever_ti,2020.1.3,Win32,60,Chrome,1152,864,,,,,,,,,,,,,,,,,2,,,,,,,,,,,,,,,,,,,,,,,,,,,669.64693,110,right,0.7624,hat           ,7,8,1,1,1,669.66368,669.66368,672.164425,0,32,32,32,1,110,6,7,giraffe     ,hat           ,html/resources/sequences_IDs/B/03_giraffe.jpg,html/resources/sequences_IDs/A/08_hat.jpg,3,8,1,1,3,2,2,6,0,32,,,,,,,,,,,,,,,,,,,,
,,,,,32,2020-07-03_15h41.30.916,retriever_ti,2020.1.3,Win32,60,Chrome,1152,864,,,,,,,,,,,,,,,,,2,,,,,,,,,,,,,,,,,,,,,,,,,,,673.2657,111,right,0.65991,dress         ,5,7,1,1,1,673.28257,673.28257,675.78392,0,33,33,33,1,111,4,5,parrot      ,dress         ,html/resources/sequences_IDs/B/05_parrot.jpg,html/resources/sequences_IDs/A/07_dress.jpg,5,7,2,1,3,2,4,5,0,32,,,,,,,,,,,,,,,,,,,,
,,,,,32,2020-07-03_15h41.30.916,retriever_ti,2020.1.3,Win32,60,Chrome,1152,864,,,,,,,,,,,,,,,,,2,,,,,,,,,,,,,,,,,,,,,,,,,,,676.885145,112,left,0.514315,dress         ,5,7,2,1,3,676.90173,676.90173,679.40276,0,34,34,34,1,112,5,3,dress         ,clownfish     ,html/resources/sequences_IDs/A/07_dress.jpg,html/resources/sequences_IDs/A/04_clownfish.jpg,7,4,3,2,2,1,5,3,0,32,,,,,,,,,,,,,,,,,,,,
,,,,,32,2020-07-03_15h41.30.916,retriever_ti,2020.1.3,Win32,60,Chrome,1152,864,,,,,,,,,,,,,,,,,2,,,,,,,,,,,,,,,,,,,,,,,,,,,680.003645,113,right,0.43282,calculator    ,1,9,-1,0,0,680.037695,680.037695,682.538365,0,35,35,35,1,113,2,1,radio       ,calculator    ,html/resources/sequences_IDs/B/10_radio.jpg,html/resources/sequences_IDs/A/09_calculator.jpg,10,9,4,2,4,2,8,7,0,32,,,,,,,,,,,,,,,,,,,,
,,,,,32,2020-07-03_15h41.30.916,retriever_ti,2020.1.3,Win32,60,Chrome,1152,864,,,,,,,,,,,,,,,,,2,,,,,,,,,,,,,,,,,,,,,,,,,,,683.639725,114,right,0.550435,giraffe     ,6,3,-1,0,1,683.67358,683.67358,686.17439,0,36,36,36,1,114,7,6,hat           ,giraffe     ,html/resources/sequences_IDs/A/08_hat.jpg,html/resources/sequences_IDs/B/03_giraffe.jpg,8,3,3,2,1,1,6,2,1,32,,,,,,,,,,,,,,,,,,,,
,,,,,32,2020-07-03_15h41.30.916,retriever_ti,2020.1.3,Win32,60,Chrome,1152,864,,,,,,,,,,,,,,,,,2,,,,,,,,,,,,,,,,,,,,,,,,,,,687.27535,115,left,0.45825,radio       ,2,10,-1,0,0,687.29285,687.29285,689.79366,0,37,37,37,1,115,2,3,radio       ,clownfish     ,html/resources/sequences_IDs/B/10_radio.jpg,html/resources/sequences_IDs/A/04_clownfish.jpg,10,4,4,2,2,1,8,3,0,32,,,,,,,,,,,,,,,,,,,,
,,,,,32,2020-07-03_15h41.30.916,retriever_ti,2020.1.3,Win32,60,Chrome,1152,864,,,,,,,,,,,,,,,,,2,,,,,,,,,,,,,,,,,,,,,,,,,,,690.89525,116,right,0.48907,calculator    ,1,9,-1,0,0,690.911715,690.911715,693.412715,0,38,38,38,1,116,2,1,radio       ,calculator    ,html/resources/sequences_IDs/B/10_radio.jpg,html/resources/sequences_IDs/A/09_calculator.jpg,10,9,4,2,4,2,8,7,0,32,,,,,,,,,,,,,,,,,,,,
,,,,,32,2020-07-03_15h41.30.916,retriever_ti,2020.1.3,Win32,60,Chrome,1152,864,,,,,,,,,,,,,,,,,2,,,,,,,,,,,,,,,,,,,,,,,,,,,694.51385,117,right,0.90847,parrot      ,4,5,1,1,1,694.53101,694.53101,697.03185,0,39,39,39,1,117,3,4,clownfish     ,parrot      ,html/resources/sequences_IDs/A/04_clownfish.jpg,html/resources/sequences_IDs/B/05_parrot.jpg,4,5,2,1,2,1,3,4,0,32,,,,,,,,,,,,,,,,,,,,
,,,,,32,2020-07-03_15h41.30.916,retriever_ti,2020.1.3,Win32,60,Chrome,1152,864,,,,,,,,,,,,,,,,,2,,,,,,,,,,,,,,,,,,,,,,,,,,,698.13342,118,right,0.324195,dress         ,5,7,3,1,3,698.167205,698.167205,700.667885,0,40,40,40,1,118,2,5,radio       ,dress         ,html/resources/sequences_IDs/B/10_radio.jpg,html/resources/sequences_IDs/A/07_dress.jpg,10,7,4,2,3,2,8,5,0,32,,,,,,,,,,,,,,,,,,,,
,,,,,32,2020-07-03_15h41.30.916,retriever_ti,2020.1.3,Win32,60,Chrome,1152,864,,,,,,,,,,,,,,,,,2,,,,,,,,,,,,,,,,,,,,,,,,,,,701.26876,119,right,0.51753,calculator    ,1,9,-3,0,3,701.30231,701.30231,703.80344,0,41,41,41,1,119,4,1,parrot      ,calculator    ,html/resources/sequences_IDs/B/05_parrot.jpg,html/resources/sequences_IDs/A/09_calculator.jpg,5,9,2,1,4,2,4,7,0,32,,,,,,,,,,,,,,,,,,,,
,,,,,32,2020-07-03_15h41.30.916,retriever_ti,2020.1.3,Win32,60,Chrome,1152,864,,,,,,,,,,,,,,,,,2,,,,,,,,,,,,,,,,,,,,,,,,,,,704.404555,120,NaN,NaN,No_response,NaN,NaN,NaN,2,2,704.4214,704.4214,706.92228,0,42,42,42,1,120,5,7,dress         ,hat           ,html/resources/sequences_IDs/A/07_dress.jpg,html/resources/sequences_IDs/A/08_hat.jpg,7,8,3,2,3,2,5,6,0,32,,,,,,,,,,,,,,,,,,,,
,,,,,32,2020-07-03_15h41.30.916,retriever_ti,2020.1.3,Win32,60,Chrome,1152,864,,,,,,,,,,,,,,,,,2,,,,,,,,,,,,,,,,,,,,,,,,,,,708.02329,121,right,0.49934,giraffe     ,6,3,-1,0,0,708.040725,708.040725,710.54154,0,43,43,43,1,121,7,6,hat           ,giraffe     ,html/resources/sequences_IDs/A/08_hat.jpg,html/resources/sequences_IDs/B/03_giraffe.jpg,8,3,3,2,1,1,6,2,0,32,,,,,,,,,,,,,,,,,,,,
,,,,,32,2020-07-03_15h41.30.916,retriever_ti,2020.1.3,Win32,60,Chrome,1152,864,,,,,,,,,,,,,,,,,2,,,,,,,,,,,,,,,,,,,,,,,,,,,711.64286,122,right,0.51406,radio       ,2,10,1,1,1,711.676385,711.676385,714.17762,0,44,44,44,1,122,1,2,calculator    ,radio       ,html/resources/sequences_IDs/A/09_calculator.jpg,html/resources/sequences_IDs/B/10_radio.jpg,9,10,4,2,4,2,7,8,0,32,,,,,,,,,,,,,,,,,,,,
,,,,,32,2020-07-03_15h41.30.916,retriever_ti,2020.1.3,Win32,60,Chrome,1152,864,,,,,,,,,,,,,,,,,2,,,,,,,,,,,,,,,,,,,,,,,,,,,715.2786,123,right,0.724635,dress         ,5,7,4,1,3,715.29597,715.29597,717.79678,0,45,45,45,1,123,1,5,calculator    ,dress         ,html/resources/sequences_IDs/A/09_calculator.jpg,html/resources/sequences_IDs/A/07_dress.jpg,9,7,4,2,3,2,7,5,0,32,,,,,,,,,,,,,,,,,,,,
,,,,,32,2020-07-03_15h41.30.916,retriever_ti,2020.1.3,Win32,60,Chrome,1152,864,,,,,,,,,,,,,,,,,2,,,,,,,,,,,,,,,,,,,,,,,,,,,718.39771,124,right,0.730685,redfox      ,8,1,1,1,0,718.43116,718.43116,720.932045,0,46,46,46,1,124,7,8,hat           ,redfox      ,html/resources/sequences_IDs/A/08_hat.jpg,html/resources/sequences_IDs/B/01_redfox.jpg,8,1,3,2,1,1,6,1,1,32,,,,,,,,,,,,,,,,,,,,
,,,,,32,2020-07-03_15h41.30.916,retriever_ti,2020.1.3,Win32,60,Chrome,1152,864,,,,,,,,,,,,,,,,,2,,,,,,,,,,,,,,,,,,,,,,,,,,,722.035385,125,left,0.801595,hat           ,7,8,-1,0,0,722.06699,722.06699,724.568035,0,47,47,47,1,125,7,8,hat           ,redfox      ,html/resources/sequences_IDs/A/08_hat.jpg,html/resources/sequences_IDs/B/01_redfox.jpg,8,1,3,2,1,1,6,1,0,32,,,,,,,,,,,,,,,,,,,,
,,,,,32,2020-07-03_15h41.30.916,retriever_ti,2020.1.3,Win32,60,Chrome,1152,864,,,,,,,,,,,,,,,,,2,,,,,,,,,,,,,,,,,,,,,,,,,,,725.6696,126,right,0.566185,calculator    ,1,9,-4,0,3,725.70303,725.70303,728.203945,0,48,48,48,1,126,5,1,dress         ,calculator    ,html/resources/sequences_IDs/A/07_dress.jpg,html/resources/sequences_IDs/A/09_calculator.jpg,7,9,3,2,4,2,5,7,0,32,,,,,,,,,,,,,,,,,,,,
,,,,,32,2020-07-03_15h41.30.916,retriever_ti,2020.1.3,Win32,60,Chrome,1152,864,,,,,,,,,,,,,,,,,2,,,,,,,,,,,,,,,,,,,,,,,,,,,728.804715,127,right,0.511815,calculator    ,1,9,-5,0,3,728.83843,728.83843,731.339475,0,49,49,49,1,127,6,1,giraffe     ,calculator    ,html/resources/sequences_IDs/B/03_giraffe.jpg,html/resources/sequences_IDs/A/09_calculator.jpg,3,9,1,1,4,2,2,7,0,32,,,,,,,,,,,,,,,,,,,,
,,,,,32,2020-07-03_15h41.30.916,retriever_ti,2020.1.3,Win32,60,Chrome,1152,864,,,,,,,,,,,,,,,,,2,,,,,,,,,,,,,,,,,,,,,,,,,,,731.940695,128,right,0.395035,radio       ,2,10,-3,0,3,731.974095,731.974095,734.475025,0,50,50,50,1,128,5,2,dress         ,radio       ,html/resources/sequences_IDs/A/07_dress.jpg,html/resources/sequences_IDs/B/10_radio.jpg,7,10,3,2,4,2,5,8,0,32,,,,,,,,,,,,,,,,,,,,
,,,,,32,2020-07-03_15h41.30.916,retriever_ti,2020.1.3,Win32,60,Chrome,1152,864,,,,,,,,,,,,,,,,,2,,,,,,,,,,,,,,,,,,,,,,,,,,,735.075935,129,right,0.531225,parrot      ,4,5,-1,0,0,735.109775,735.109775,737.611015,0,51,51,51,1,129,5,4,dress         ,parrot      ,html/resources/sequences_IDs/A/07_dress.jpg,html/resources/sequences_IDs/B/05_parrot.jpg,7,5,3,2,2,1,5,4,0,32,,,,,,,,,,,,,,,,,,,,
,,,,,32,2020-07-03_15h41.30.916,retriever_ti,2020.1.3,Win32,60,Chrome,1152,864,,,,,,,,,,,,,,,,,2,,,,,,,,,,,,,,,,,,,,,,,,,,,738.712615,130,right,1.42164,dress         ,5,7,-2,0,3,738.728945,738.728945,741.22985,0,52,52,52,1,130,7,5,hat           ,dress         ,html/resources/sequences_IDs/A/08_hat.jpg,html/resources/sequences_IDs/A/07_dress.jpg,8,7,3,2,3,2,6,5,0,32,,,,,,,,,,,,,,,,,,,,
,,,,,32,2020-07-03_15h41.30.916,retriever_ti,2020.1.3,Win32,60,Chrome,1152,864,,,,,,,,,,,,,,,,,2,,,,,,,,,,,,,,,,,,,,,,,,,,,741.8306,131,right,1.416715,clownfish     ,3,4,-5,0,3,741.86455,741.86455,744.365925,0,53,53,53,1,131,8,3,redfox      ,clownfish     ,html/resources/sequences_IDs/B/01_redfox.jpg,html/resources/sequences_IDs/A/04_clownfish.jpg,1,4,1,1,2,1,1,3,0,32,,,,,,,,,,,,,,,,,,,,
,,,,,32,2020-07-03_15h41.30.916,retriever_ti,2020.1.3,Win32,60,Chrome,1152,864,,,,,,,,,,,,,,,,,2,,,,,,,,,,,,,,,,,,,,,,,,,,,744.98313,132,right,0.844395,redfox      ,8,1,4,1,3,745.01663,745.01663,747.517795,0,54,54,54,1,132,4,8,parrot      ,redfox      ,html/resources/sequences_IDs/B/05_parrot.jpg,html/resources/sequences_IDs/B/01_redfox.jpg,5,1,2,1,1,1,4,1,0,32,,,,,,,,,,,,,,,,,,,,
,,,,,32,2020-07-03_15h41.30.916,retriever_ti,2020.1.3,Win32,60,Chrome,1152,864,,,,,,,,,,,,,,,,,2,,,,,,,,,,,,,,,,,,,,,,,,,,,748.118315,133,right,0.88732,dress         ,5,7,-1,0,0,748.152275,748.152275,750.65317,0,55,55,55,1,133,6,5,giraffe     ,dress         ,html/resources/sequences_IDs/B/03_giraffe.jpg,html/resources/sequences_IDs/A/07_dress.jpg,3,7,1,1,3,2,2,5,0,32,,,,,,,,,,,,,,,,,,,,
,,,,,32,2020-07-03_15h41.30.916,retriever_ti,2020.1.3,Win32,60,Chrome,1152,864,,,,,,,,,,,,,,,,,2,,,,,,,,,,,,,,,,,,,,,,,,,,,751.754495,134,right,0.61706,hat           ,7,8,4,1,3,751.7716,751.7716,754.272375,0,56,56,56,1,134,3,7,clownfish     ,hat           ,html/resources/sequences_IDs/A/04_clownfish.jpg,html/resources/sequences_IDs/A/08_hat.jpg,4,8,2,1,3,2,3,6,0,32,,,,,,,,,,,,,,,,,,,,
,,,,,32,2020-07-03_15h41.30.916,retriever_ti,2020.1.3,Win32,60,Chrome,1152,864,,,,,,,,,,,,,,,,,2,,,,,,,,,,,,,,,,,,,,,,,,,,,754.873175,135,NaN,NaN,No_response,NaN,NaN,NaN,2,2,754.89064,754.89064,757.39122,0,57,57,57,1,135,1,4,calculator    ,parrot      ,html/resources/sequences_IDs/A/09_calculator.jpg,html/resources/sequences_IDs/B/05_parrot.jpg,9,5,4,2,2,1,7,4,0,32,,,,,,,,,,,,,,,,,,,,
,,,,,32,2020-07-03_15h41.30.916,retriever_ti,2020.1.3,Win32,60,Chrome,1152,864,,,,,,,,,,,,,,,,,2,,,,,,,,,,,,,,,,,,,,,,,,,,,758.492735,136,right,0.49322,calculator    ,1,9,-7,0,3,758.52622,758.52622,761.027435,0,58,58,58,1,136,8,1,redfox      ,calculator    ,html/resources/sequences_IDs/B/01_redfox.jpg,html/resources/sequences_IDs/A/09_calculator.jpg,1,9,1,1,4,2,1,7,0,32,,,,,,,,,,,,,,,,,,,,
,,,,,32,2020-07-03_15h41.30.916,retriever_ti,2020.1.3,Win32,60,Chrome,1152,864,,,,,,,,,,,,,,,,,2,,,,,,,,,,,,,,,,,,,,,,,,,,,761.62787,137,left,0.646495,radio       ,2,10,-1,0,1,761.645275,761.645275,764.146285,0,59,59,59,1,137,2,3,radio       ,clownfish     ,html/resources/sequences_IDs/B/10_radio.jpg,html/resources/sequences_IDs/A/04_clownfish.jpg,10,4,4,2,2,1,8,3,1,32,,,,,,,,,,,,,,,,,,,,
,,,,,32,2020-07-03_15h41.30.916,retriever_ti,2020.1.3,Win32,60,Chrome,1152,864,,,,,,,,,,,,,,,,,2,,,,,,,,,,,,,,,,,,,,,,,,,,,765.247465,138,left,0.737885,dress         ,5,7,-1,0,1,765.26438,765.26438,767.765125,0,60,60,60,1,138,5,6,dress         ,giraffe     ,html/resources/sequences_IDs/A/07_dress.jpg,html/resources/sequences_IDs/B/03_giraffe.jpg,7,3,3,2,1,1,5,2,1,32,,,,,,,,,,,,,,,,,,,,
,,,,,32,2020-07-03_15h41.30.916,retriever_ti,2020.1.3,Win32,60,Chrome,1152,864,,,,,,,,,,,,,,,,,2,,,,,,,,,,,,,,,,,,,,,,,,,,,768.866215,139,right,0.40882,giraffe     ,6,3,1,1,1,768.900175,768.900175,771.401385,0,61,61,61,1,139,5,6,dress         ,giraffe     ,html/resources/sequences_IDs/A/07_dress.jpg,html/resources/sequences_IDs/B/03_giraffe.jpg,7,3,3,2,1,1,5,2,0,32,,,,,,,,,,,,,,,,,,,,
,,,,,32,2020-07-03_15h41.30.916,retriever_ti,2020.1.3,Win32,60,Chrome,1152,864,,,,,,,,,,,,,,,,,2,,,,,,,,,,,,,,,,,,,,,,,,,,,772.502805,140,left,0.624625,radio       ,2,10,-6,0,3,772.536535,772.536535,775.037025,0,62,62,62,1,140,2,8,radio       ,redfox      ,html/resources/sequences_IDs/B/10_radio.jpg,html/resources/sequences_IDs/B/01_redfox.jpg,10,1,4,2,1,1,8,1,0,32,,,,,,,,,,,,,,,,,,,,
,,,,,32,2020-07-03_15h41.30.916,retriever_ti,2020.1.3,Win32,60,Chrome,1152,864,,,,,,,,,,,,,,,,,2,,,,,,,,,,,,,,,,,,,,,,,,,,,775.637745,141,left,0.797195,radio       ,2,10,1,1,0,775.655005,775.655005,778.15574,0,63,63,63,1,141,2,1,radio       ,calculator    ,html/resources/sequences_IDs/B/10_radio.jpg,html/resources/sequences_IDs/A/09_calculator.jpg,10,9,4,2,4,2,8,7,1,32,,,,,,,,,,,,,,,,,,,,
,,,,,32,2020-07-03_15h41.30.916,retriever_ti,2020.1.3,Win32,60,Chrome,1152,864,,,,,,,,,,,,,,,,,2,,,,,,,,,,,,,,,,,,,,,,,,,,,779.25733,142,right,0.338805,clownfish     ,3,4,-1,0,0,779.29078,779.29078,781.791955,0,64,64,64,1,142,4,3,parrot      ,clownfish     ,html/resources/sequences_IDs/B/05_parrot.jpg,html/resources/sequences_IDs/A/04_clownfish.jpg,5,4,2,1,2,1,4,3,0,32,,,,,,,,,,,,,,,,,,,,
,,,,,32,2020-07-03_15h41.30.916,retriever_ti,2020.1.3,Win32,60,Chrome,1152,864,,,,,,,,,,,,,,,,,2,,,,,,,,,,,,,,,,,,,,,,,,,,,782.893165,143,right,0.471035,radio       ,2,10,-1,0,0,782.91023,782.91023,785.41099,0,65,65,65,1,143,3,2,clownfish     ,radio       ,html/resources/sequences_IDs/A/04_clownfish.jpg,html/resources/sequences_IDs/B/10_radio.jpg,4,10,2,1,4,2,3,8,0,32,,,,,,,,,,,,,,,,,,,,
,,,,,32,2020-07-03_15h41.30.916,retriever_ti,2020.1.3,Win32,60,Chrome,1152,864,,,,,,,,,,,,,,,,,2,,,,,,,,,,,,,,,,,,,,,,,,,,,786.512435,144,left,0.58054,hat           ,7,8,4,1,3,786.529545,786.529545,789.03039,0,66,66,66,1,144,7,3,hat           ,clownfish     ,html/resources/sequences_IDs/A/08_hat.jpg,html/resources/sequences_IDs/A/04_clownfish.jpg,8,4,3,2,2,1,6,3,0,32,,,,,,,,,,,,,,,,,,,,
,,,,,32,2020-07-03_15h41.30.916,retriever_ti,2020.1.3,Win32,60,Chrome,1152,864,,,,,,,,,,,,,,,,,2,,,,,,,,,,,,,,,,,,,,,,,,,,,789.631365,145,right,0.43249,dress         ,5,7,-1,0,0,789.6485,789.6485,792.149135,0,67,67,67,1,145,6,5,giraffe     ,dress         ,html/resources/sequences_IDs/B/03_giraffe.jpg,html/resources/sequences_IDs/A/07_dress.jpg,3,7,1,1,3,2,2,5,0,32,,,,,,,,,,,,,,,,,,,,
,,,,,32,2020-07-03_15h41.30.916,retriever_ti,2020.1.3,Win32,60,Chrome,1152,864,,,,,,,,,,,,,,,,,2,,,,,,,,,,,,,,,,,,,,,,,,,,,793.250745,146,right,0.595945,giraffe     ,6,3,4,1,3,793.284065,793.284065,795.784945,0,68,68,68,1,146,2,6,radio       ,giraffe     ,html/resources/sequences_IDs/B/10_radio.jpg,html/resources/sequences_IDs/B/03_giraffe.jpg,10,3,4,2,1,1,8,2,0,32,,,,,,,,,,,,,,,,,,,,
,,,,,32,2020-07-03_15h41.30.916,retriever_ti,2020.1.3,Win32,60,Chrome,1152,864,,,,,,,,,,,,,,,,,2,,,,,,,,,,,,,,,,,,,,,,,,,,,796.38593,147,left,0.72273,radio       ,2,10,-2,0,3,796.419635,796.419635,798.92064,0,69,69,69,1,147,2,4,radio       ,parrot      ,html/resources/sequences_IDs/B/10_radio.jpg,html/resources/sequences_IDs/B/05_parrot.jpg,10,5,4,2,2,1,8,4,0,32,,,,,,,,,,,,,,,,,,,,
,,,,,32,2020-07-03_15h41.30.916,retriever_ti,2020.1.3,Win32,60,Chrome,1152,864,,,,,,,,,,,,,,,,,2,,,,,,,,,,,,,,,,,,,,,,,,,,,799.52176,148,left,0.76358,radio       ,2,10,-5,0,3,799.555755,799.555755,802.0563,0,70,70,70,1,148,2,7,radio       ,hat           ,html/resources/sequences_IDs/B/10_radio.jpg,html/resources/sequences_IDs/A/08_hat.jpg,10,8,4,2,3,2,8,6,0,32,,,,,,,,,,,,,,,,,,,,
,,,,,32,2020-07-03_15h41.30.916,retriever_ti,2020.1.3,Win32,60,Chrome,1152,864,,,,,,,,,,,,,,,,,2,,,,,,,,,,,,,,,,,,,,,,,,,,,802.656925,149,left,0.80587,redfox      ,8,1,4,1,3,802.67427,802.67427,805.17503,0,71,71,71,1,149,8,4,redfox      ,parrot      ,html/resources/sequences_IDs/B/01_redfox.jpg,html/resources/sequences_IDs/B/05_parrot.jpg,1,5,1,1,2,1,1,4,0,32,,,,,,,,,,,,,,,,,,,,
,,,,,32,2020-07-03_15h41.30.916,retriever_ti,2020.1.3,Win32,60,Chrome,1152,864,,,,,,,,,,,,,,,,,2,,,,,,,,,,,,,,,,,,,,,,,,,,,805.77617,150,right,0.899205,clownfish     ,3,4,2,1,3,805.7929,805.7929,808.29385,0,72,72,72,1,150,1,3,calculator    ,clownfish     ,html/resources/sequences_IDs/A/09_calculator.jpg,html/resources/sequences_IDs/A/04_clownfish.jpg,9,4,4,2,2,1,7,3,0,32,,,,,,,,,,,,,,,,,,,,
,,,,,32,2020-07-03_15h41.30.916,retriever_ti,2020.1.3,Win32,60,Chrome,1152,864,,,,,,,,,,,,,,,,,2,,,,,,,,,,,,,,,,,,,,,,,,,,,808.89467,151,left,0.32881,calculator    ,1,9,-6,0,3,808.91196,808.91196,811.41271,0,73,73,73,1,151,1,7,calculator    ,hat           ,html/resources/sequences_IDs/A/09_calculator.jpg,html/resources/sequences_IDs/A/08_hat.jpg,9,8,4,2,3,2,7,6,0,32,,,,,,,,,,,,,,,,,,,,
,,,,,32,2020-07-03_15h41.30.916,retriever_ti,2020.1.3,Win32,60,Chrome,1152,864,,,,,,,,,,,,,,,,,2,,,,,,,,,,,,,,,,,,,,,,,,,,,812.01371,152,right,0.381745,redfox      ,8,1,1,1,1,812.03094,812.03094,814.531775,0,74,74,74,1,152,7,8,hat           ,redfox      ,html/resources/sequences_IDs/A/08_hat.jpg,html/resources/sequences_IDs/B/01_redfox.jpg,8,1,3,2,1,1,6,1,0,32,,,,,,,,,,,,,,,,,,,,
,,,,,32,2020-07-03_15h41.30.916,retriever_ti,2020.1.3,Win32,60,Chrome,1152,864,,,,,,,,,,,,,,,,,2,,,,,,,,,,,,,,,,,,,,,,,,,,,815.632795,153,right,0.713995,giraffe     ,6,3,2,1,3,815.66655,815.66655,818.167465,0,75,75,75,1,153,4,6,parrot      ,giraffe     ,html/resources/sequences_IDs/B/05_parrot.jpg,html/resources/sequences_IDs/B/03_giraffe.jpg,5,3,2,1,1,1,4,2,0,32,,,,,,,,,,,,,,,,,,,,
,,,,,32,2020-07-03_15h41.30.916,retriever_ti,2020.1.3,Win32,60,Chrome,1152,864,,,,,,,,,,,,,,,,,2,,,,,,,,,,,,,,,,,,,,,,,,,,,818.768475,154,left,0.598175,clownfish     ,3,4,-1,0,0,818.801985,818.801985,821.302885,0,76,76,76,1,154,3,4,clownfish     ,parrot      ,html/resources/sequences_IDs/A/04_clownfish.jpg,html/resources/sequences_IDs/B/05_parrot.jpg,4,5,2,1,2,1,3,4,0,32,,,,,,,,,,,,,,,,,,,,
,,,,,32,2020-07-03_15h41.30.916,retriever_ti,2020.1.3,Win32,60,Chrome,1152,864,,,,,,,,,,,,,,,,,,,,,,,,,,,,,,,,,,,,,0,5.12474,,,,,,,,,,,,,,,,,,,,,,,,,,,,,,,,,,,,,,,,,1,0,1,0,1,,,,,,,,,,,,,,,
,,,,,32,2020-07-03_15h41.30.916,retriever_ti,2020.1.3,Win32,60,Chrome,1152,864,,,,,,,,,,,,,,,,,3,,,,,,,,,,,,,,,,,,,,,,,,,,,830.538355,155,left,0.872495,redfox      ,8,1,1,1,1,830.544145,830.544145,833.044795,0,0,0,0,1,155,8,7,redfox      ,hat           ,html/resources/sequences_IDs/B/01_redfox.jpg,html/resources/sequences_IDs/A/08_hat.jpg,1,8,1,1,3,2,1,6,0,32,,,,,,,,,,,,,,,,,,,,
,,,,,32,2020-07-03_15h41.30.916,retriever_ti,2020.1.3,Win32,60,Chrome,1152,864,,,,,,,,,,,,,,,,,3,,,,,,,,,,,,,,,,,,,,,,,,,,,834.14617,156,right,0.610395,redfox      ,8,1,1,1,1,834.16284,834.16284,836.66386,0,1,1,1,1,156,7,8,hat           ,redfox      ,html/resources/sequences_IDs/A/08_hat.jpg,html/resources/sequences_IDs/B/01_redfox.jpg,8,1,3,2,1,1,6,1,0,32,,,,,,,,,,,,,,,,,,,,
,,,,,32,2020-07-03_15h41.30.916,retriever_ti,2020.1.3,Win32,60,Chrome,1152,864,,,,,,,,,,,,,,,,,3,,,,,,,,,,,,,,,,,,,,,,,,,,,837.76494,157,left,0.588315,dress         ,5,7,3,1,3,837.78236,837.78236,840.283175,0,2,2,2,1,157,5,2,dress         ,radio       ,html/resources/sequences_IDs/A/07_dress.jpg,html/resources/sequences_IDs/B/10_radio.jpg,7,10,3,2,4,2,5,8,0,32,,,,,,,,,,,,,,,,,,,,
,,,,,32,2020-07-03_15h41.30.916,retriever_ti,2020.1.3,Win32,60,Chrome,1152,864,,,,,,,,,,,,,,,,,3,,,,,,,,,,,,,,,,,,,,,,,,,,,840.88413,158,right,0.414435,radio       ,2,10,-4,0,3,840.917685,840.917685,843.418585,0,3,3,3,1,158,6,2,giraffe     ,radio       ,html/resources/sequences_IDs/B/03_giraffe.jpg,html/resources/sequences_IDs/B/10_radio.jpg,3,10,1,1,4,2,2,8,0,32,,,,,,,,,,,,,,,,,,,,
,,,,,32,2020-07-03_15h41.30.916,retriever_ti,2020.1.3,Win32,60,Chrome,1152,864,,,,,,,,,,,,,,,,,3,,,,,,,,,,,,,,,,,,,,,,,,,,,844.019515,159,left,0.57756,giraffe     ,6,3,-1,0,1,844.03654,844.03654,846.537465,0,4,4,4,1,159,6,7,giraffe     ,hat           ,html/resources/sequences_IDs/B/03_giraffe.jpg,html/resources/sequences_IDs/A/08_hat.jpg,3,8,1,1,3,2,2,6,1,32,,,,,,,,,,,,,,,,,,,,
,,,,,32,2020-07-03_15h41.30.916,retriever_ti,2020.1.3,Win32,60,Chrome,1152,864,,,,,,,,,,,,,,,,,3,,,,,,,,,,,,,,,,,,,,,,,,,,,847.6388,160,right,0.745255,redfox      ,8,1,5,1,3,847.655765,847.655765,850.15657,0,5,5,5,1,160,3,8,clownfish     ,redfox      ,html/resources/sequences_IDs/A/04_clownfish.jpg,html/resources/sequences_IDs/B/01_redfox.jpg,4,1,2,1,1,1,3,1,0,32,,,,,,,,,,,,,,,,,,,,
,,,,,32,2020-07-03_15h41.30.916,retriever_ti,2020.1.3,Win32,60,Chrome,1152,864,,,,,,,,,,,,,,,,,3,,,,,,,,,,,,,,,,,,,,,,,,,,,850.75779,161,left,0.825545,redfox      ,8,1,3,1,3,850.774425,850.774425,853.275695,0,6,6,6,1,161,8,5,redfox      ,dress         ,html/resources/sequences_IDs/B/01_redfox.jpg,html/resources/sequences_IDs/A/07_dress.jpg,1,7,1,1,3,2,1,5,0,32,,,,,,,,,,,,,,,,,,,,
,,,,,32,2020-07-03_15h41.30.916,retriever_ti,2020.1.3,Win32,60,Chrome,1152,864,,,,,,,,,,,,,,,,,3,,,,,,,,,,,,,,,,,,,,,,,,,,,853.876675,162,right,0.89863,giraffe     ,6,3,5,1,3,853.89352,853.89352,856.394275,0,7,7,7,1,162,1,6,calculator    ,giraffe     ,html/resources/sequences_IDs/A/09_calculator.jpg,html/resources/sequences_IDs/B/03_giraffe.jpg,9,3,4,2,1,1,7,2,0,32,,,,,,,,,,,,,,,,,,,,
,,,,,32,2020-07-03_15h41.30.916,retriever_ti,2020.1.3,Win32,60,Chrome,1152,864,,,,,,,,,,,,,,,,,3,,,,,,,,,,,,,,,,,,,,,,,,,,,856.995155,163,left,0.952875,calculator    ,1,9,-2,0,3,857.02903,857.02903,859.52988,0,8,8,8,1,163,1,3,calculator    ,clownfish     ,html/resources/sequences_IDs/A/09_calculator.jpg,html/resources/sequences_IDs/A/04_clownfish.jpg,9,4,4,2,2,1,7,3,0,32,,,,,,,,,,,,,,,,,,,,
,,,,,32,2020-07-03_15h41.30.916,retriever_ti,2020.1.3,Win32,60,Chrome,1152,864,,,,,,,,,,,,,,,,,3,,,,,,,,,,,,,,,,,,,,,,,,,,,860.13107,164,left,0.89731,giraffe     ,6,3,2,1,3,860.16476,860.16476,862.665845,0,9,9,9,1,164,6,4,giraffe     ,parrot      ,html/resources/sequences_IDs/B/03_giraffe.jpg,html/resources/sequences_IDs/B/05_parrot.jpg,3,5,1,1,2,1,2,4,0,32,,,,,,,,,,,,,,,,,,,,
,,,,,32,2020-07-03_15h41.30.916,retriever_ti,2020.1.3,Win32,60,Chrome,1152,864,,,,,,,,,,,,,,,,,3,,,,,,,,,,,,,,,,,,,,,,,,,,,863.266345,165,left,0.897755,dress         ,5,7,1,1,1,863.283425,863.283425,865.78433,0,10,10,10,1,165,5,4,dress         ,parrot      ,html/resources/sequences_IDs/A/07_dress.jpg,html/resources/sequences_IDs/B/05_parrot.jpg,7,5,3,2,2,1,5,4,0,32,,,,,,,,,,,,,,,,,,,,
,,,,,32,2020-07-03_15h41.30.916,retriever_ti,2020.1.3,Win32,60,Chrome,1152,864,,,,,,,,,,,,,,,,,3,,,,,,,,,,,,,,,,,,,,,,,,,,,866.88582,166,left,0.749455,redfox      ,8,1,7,1,3,866.90268,866.90268,869.403845,0,11,11,11,1,166,8,1,redfox      ,calculator    ,html/resources/sequences_IDs/B/01_redfox.jpg,html/resources/sequences_IDs/A/09_calculator.jpg,1,9,1,1,4,2,1,7,0,32,,,,,,,,,,,,,,,,,,,,
,,,,,32,2020-07-03_15h41.30.916,retriever_ti,2020.1.3,Win32,60,Chrome,1152,864,,,,,,,,,,,,,,,,,3,,,,,,,,,,,,,,,,,,,,,,,,,,,870.00436,167,right,0.91039,dress         ,5,7,-1,0,1,870.02139,870.02139,872.522615,0,12,12,12,1,167,6,5,giraffe     ,dress         ,html/resources/sequences_IDs/B/03_giraffe.jpg,html/resources/sequences_IDs/A/07_dress.jpg,3,7,1,1,3,2,2,5,1,32,,,,,,,,,,,,,,,,,,,,
,,,,,32,2020-07-03_15h41.30.916,retriever_ti,2020.1.3,Win32,60,Chrome,1152,864,,,,,,,,,,,,,,,,,3,,,,,,,,,,,,,,,,,,,,,,,,,,,873.624155,168,left,0.66122,parrot      ,4,5,-3,0,3,873.64067,873.64067,876.141625,0,13,13,13,1,168,4,7,parrot      ,hat           ,html/resources/sequences_IDs/B/05_parrot.jpg,html/resources/sequences_IDs/A/08_hat.jpg,5,8,2,1,3,2,4,6,0,32,,,,,,,,,,,,,,,,,,,,
,,,,,32,2020-07-03_15h41.30.916,retriever_ti,2020.1.3,Win32,60,Chrome,1152,864,,,,,,,,,,,,,,,,,3,,,,,,,,,,,,,,,,,,,,,,,,,,,876.74233,169,right,0.441285,dress         ,5,7,1,1,0,876.75956,876.75956,879.26044,0,14,14,14,1,169,4,5,parrot      ,dress         ,html/resources/sequences_IDs/B/05_parrot.jpg,html/resources/sequences_IDs/A/07_dress.jpg,5,7,2,1,3,2,4,5,1,32,,,,,,,,,,,,,,,,,,,,
,,,,,32,2020-07-03_15h41.30.916,retriever_ti,2020.1.3,Win32,60,Chrome,1152,864,,,,,,,,,,,,,,,,,3,,,,,,,,,,,,,,,,,,,,,,,,,,,880.362165,170,left,0.9269,dress         ,5,7,1,1,1,880.395695,880.395695,882.89669,0,15,15,15,1,170,5,4,dress         ,parrot      ,html/resources/sequences_IDs/A/07_dress.jpg,html/resources/sequences_IDs/B/05_parrot.jpg,7,5,3,2,2,1,5,4,0,32,,,,,,,,,,,,,,,,,,,,
,,,,,32,2020-07-03_15h41.30.916,retriever_ti,2020.1.3,Win32,60,Chrome,1152,864,,,,,,,,,,,,,,,,,3,,,,,,,,,,,,,,,,,,,,,,,,,,,883.99753,171,left,1.23005,redfox      ,8,1,1,1,0,884.031615,884.031615,886.53258,0,16,16,16,1,171,8,7,redfox      ,hat           ,html/resources/sequences_IDs/B/01_redfox.jpg,html/resources/sequences_IDs/A/08_hat.jpg,1,8,1,1,3,2,1,6,1,32,,,,,,,,,,,,,,,,,,,,
,,,,,32,2020-07-03_15h41.30.916,retriever_ti,2020.1.3,Win32,60,Chrome,1152,864,,,,,,,,,,,,,,,,,3,,,,,,,,,,,,,,,,,,,,,,,,,,,887.634085,172,right,0.655865,radio       ,2,10,-1,0,1,887.650465,887.650465,890.15149,0,17,17,17,1,172,3,2,clownfish     ,radio       ,html/resources/sequences_IDs/A/04_clownfish.jpg,html/resources/sequences_IDs/B/10_radio.jpg,4,10,2,1,4,2,3,8,1,32,,,,,,,,,,,,,,,,,,,,
,,,,,32,2020-07-03_15h41.30.916,retriever_ti,2020.1.3,Win32,60,Chrome,1152,864,,,,,,,,,,,,,,,,,3,,,,,,,,,,,,,,,,,,,,,,,,,,,891.252605,173,left,1.16,dress         ,5,7,4,1,3,891.269775,891.269775,893.77097,0,18,18,18,1,173,5,1,dress         ,calculator    ,html/resources/sequences_IDs/A/07_dress.jpg,html/resources/sequences_IDs/A/09_calculator.jpg,7,9,3,2,4,2,5,7,0,32,,,,,,,,,,,,,,,,,,,,
,,,,,32,2020-07-03_15h41.30.916,retriever_ti,2020.1.3,Win32,60,Chrome,1152,864,,,,,,,,,,,,,,,,,3,,,,,,,,,,,,,,,,,,,,,,,,,,,894.37194,174,right,1.224295,hat           ,7,8,4,1,3,894.40557,894.40557,896.90624,0,19,19,19,1,174,3,7,clownfish     ,hat           ,html/resources/sequences_IDs/A/04_clownfish.jpg,html/resources/sequences_IDs/A/08_hat.jpg,4,8,2,1,3,2,3,6,0,32,,,,,,,,,,,,,,,,,,,,
,,,,,32,2020-07-03_15h41.30.916,retriever_ti,2020.1.3,Win32,60,Chrome,1152,864,,,,,,,,,,,,,,,,,3,,,,,,,,,,,,,,,,,,,,,,,,,,,897.50708,175,right,0.84333,parrot      ,4,5,1,1,1,897.54094,897.54094,900.04174,0,20,20,20,1,175,3,4,clownfish     ,parrot      ,html/resources/sequences_IDs/A/04_clownfish.jpg,html/resources/sequences_IDs/B/05_parrot.jpg,4,5,2,1,2,1,3,4,0,32,,,,,,,,,,,,,,,,,,,,
,,,,,32,2020-07-03_15h41.30.916,retriever_ti,2020.1.3,Win32,60,Chrome,1152,864,,,,,,,,,,,,,,,,,3,,,,,,,,,,,,,,,,,,,,,,,,,,,901.143435,176,right,0.414695,redfox      ,8,1,3,1,3,901.176785,901.176785,903.711245,0,21,21,21,1,176,5,8,dress         ,redfox      ,html/resources/sequences_IDs/A/07_dress.jpg,html/resources/sequences_IDs/B/01_redfox.jpg,7,1,3,2,1,1,5,1,0,32,,,,,,,,,,,,,,,,,,,,
,,,,,32,2020-07-03_15h41.30.916,retriever_ti,2020.1.3,Win32,60,Chrome,1152,864,,,,,,,,,,,,,,,,,3,,,,,,,,,,,,,,,,,,,,,,,,,,,904.31237,177,left,0.62668,dress         ,5,7,-1,0,0,904.346015,904.346015,906.846725,0,22,22,22,1,177,5,6,dress         ,giraffe     ,html/resources/sequences_IDs/A/07_dress.jpg,html/resources/sequences_IDs/B/03_giraffe.jpg,7,3,3,2,1,1,5,2,0,32,,,,,,,,,,,,,,,,,,,,
,,,,,32,2020-07-03_15h41.30.916,retriever_ti,2020.1.3,Win32,60,Chrome,1152,864,,,,,,,,,,,,,,,,,3,,,,,,,,,,,,,,,,,,,,,,,,,,,907.94819,178,left,0.489365,parrot      ,4,5,-4,0,3,907.981825,907.981825,910.482635,0,23,23,23,1,178,4,8,parrot      ,redfox      ,html/resources/sequences_IDs/B/05_parrot.jpg,html/resources/sequences_IDs/B/01_redfox.jpg,5,1,2,1,1,1,4,1,0,32,,,,,,,,,,,,,,,,,,,,
,,,,,32,2020-07-03_15h41.30.916,retriever_ti,2020.1.3,Win32,60,Chrome,1152,864,,,,,,,,,,,,,,,,,3,,,,,,,,,,,,,,,,,,,,,,,,,,,911.083465,179,right,1.05219,calculator    ,1,9,-2,0,3,911.11719,911.11719,913.6181,0,24,24,24,1,179,3,1,clownfish     ,calculator    ,html/resources/sequences_IDs/A/04_clownfish.jpg,html/resources/sequences_IDs/A/09_calculator.jpg,4,9,2,1,4,2,3,7,0,32,,,,,,,,,,,,,,,,,,,,
,,,,,32,2020-07-03_15h41.30.916,retriever_ti,2020.1.3,Win32,60,Chrome,1152,864,,,,,,,,,,,,,,,,,3,,,,,,,,,,,,,,,,,,,,,,,,,,,914.219205,180,left,1.3327,giraffe     ,6,3,-1,0,0,914.25272,914.25272,916.753645,0,25,25,25,1,180,6,7,giraffe     ,hat           ,html/resources/sequences_IDs/B/03_giraffe.jpg,html/resources/sequences_IDs/A/08_hat.jpg,3,8,1,1,3,2,2,6,0,32,,,,,,,,,,,,,,,,,,,,
,,,,,32,2020-07-03_15h41.30.916,retriever_ti,2020.1.3,Win32,60,Chrome,1152,864,,,,,,,,,,,,,,,,,3,,,,,,,,,,,,,,,,,,,,,,,,,,,917.8547,181,right,0.727485,hat           ,7,8,6,1,3,917.88861,917.88861,920.389715,0,26,26,26,1,181,1,7,calculator    ,hat           ,html/resources/sequences_IDs/A/09_calculator.jpg,html/resources/sequences_IDs/A/08_hat.jpg,9,8,4,2,3,2,7,6,0,32,,,,,,,,,,,,,,,,,,,,
,,,,,32,2020-07-03_15h41.30.916,retriever_ti,2020.1.3,Win32,60,Chrome,1152,864,,,,,,,,,,,,,,,,,3,,,,,,,,,,,,,,,,,,,,,,,,,,,920.990985,182,right,0.683845,radio       ,2,10,-1,0,0,921.007855,921.007855,923.50845,0,27,27,27,1,182,3,2,clownfish     ,radio       ,html/resources/sequences_IDs/A/04_clownfish.jpg,html/resources/sequences_IDs/B/10_radio.jpg,4,10,2,1,4,2,3,8,0,32,,,,,,,,,,,,,,,,,,,,
,,,,,32,2020-07-03_15h41.30.916,retriever_ti,2020.1.3,Win32,60,Chrome,1152,864,,,,,,,,,,,,,,,,,3,,,,,,,,,,,,,,,,,,,,,,,,,,,924.60972,183,right,0.94777,giraffe     ,6,3,-1,0,0,924.643505,924.643505,927.144395,0,28,28,28,1,183,7,6,hat           ,giraffe     ,html/resources/sequences_IDs/A/08_hat.jpg,html/resources/sequences_IDs/B/03_giraffe.jpg,8,3,3,2,1,1,6,2,0,32,,,,,,,,,,,,,,,,,,,,
,,,,,32,2020-07-03_15h41.30.916,retriever_ti,2020.1.3,Win32,60,Chrome,1152,864,,,,,,,,,,,,,,,,,3,,,,,,,,,,,,,,,,,,,,,,,,,,,928.2459,184,right,0.54328,dress         ,5,7,-1,0,0,928.26294,928.26294,930.76352,0,29,29,29,1,184,6,5,giraffe     ,dress         ,html/resources/sequences_IDs/B/03_giraffe.jpg,html/resources/sequences_IDs/A/07_dress.jpg,3,7,1,1,3,2,2,5,0,32,,,,,,,,,,,,,,,,,,,,
,,,,,32,2020-07-03_15h41.30.916,retriever_ti,2020.1.3,Win32,60,Chrome,1152,864,,,,,,,,,,,,,,,,,3,,,,,,,,,,,,,,,,,,,,,,,,,,,931.864665,185,left,0.79412,hat           ,7,8,4,1,3,931.88172,931.88172,934.382815,0,30,30,30,1,185,7,3,hat           ,clownfish     ,html/resources/sequences_IDs/A/08_hat.jpg,html/resources/sequences_IDs/A/04_clownfish.jpg,8,4,3,2,2,1,6,3,0,32,,,,,,,,,,,,,,,,,,,,
,,,,,32,2020-07-03_15h41.30.916,retriever_ti,2020.1.3,Win32,60,Chrome,1152,864,,,,,,,,,,,,,,,,,3,,,,,,,,,,,,,,,,,,,,,,,,,,,934.98388,186,left,1.24843,calculator    ,1,9,-4,0,3,935.01764,935.01764,937.518585,0,31,31,31,1,186,1,5,calculator    ,dress         ,html/resources/sequences_IDs/A/09_calculator.jpg,html/resources/sequences_IDs/A/07_dress.jpg,9,7,4,2,3,2,7,5,0,32,,,,,,,,,,,,,,,,,,,,
,,,,,32,2020-07-03_15h41.30.916,retriever_ti,2020.1.3,Win32,60,Chrome,1152,864,,,,,,,,,,,,,,,,,3,,,,,,,,,,,,,,,,,,,,,,,,,,,938.1358,187,right,0.701375,radio       ,2,10,1,1,0,938.15277,938.15277,940.65413,0,32,32,32,1,187,1,2,calculator    ,radio       ,html/resources/sequences_IDs/A/09_calculator.jpg,html/resources/sequences_IDs/B/10_radio.jpg,9,10,4,2,4,2,7,8,1,32,,,,,,,,,,,,,,,,,,,,
,,,,,32,2020-07-03_15h41.30.916,retriever_ti,2020.1.3,Win32,60,Chrome,1152,864,,,,,,,,,,,,,,,,,3,,,,,,,,,,,,,,,,,,,,,,,,,,,941.75536,188,right,0.743,giraffe     ,6,3,4,1,3,941.772105,941.772105,944.2732,0,33,33,33,1,188,2,6,radio       ,giraffe     ,html/resources/sequences_IDs/B/10_radio.jpg,html/resources/sequences_IDs/B/03_giraffe.jpg,10,3,4,2,1,1,8,2,0,32,,,,,,,,,,,,,,,,,,,,
,,,,,32,2020-07-03_15h41.30.916,retriever_ti,2020.1.3,Win32,60,Chrome,1152,864,,,,,,,,,,,,,,,,,3,,,,,,,,,,,,,,,,,,,,,,,,,,,944.87389,189,right,0.68482,clownfish     ,3,4,-1,0,0,944.90766,944.90766,947.408965,0,34,34,34,1,189,4,3,parrot      ,clownfish     ,html/resources/sequences_IDs/B/05_parrot.jpg,html/resources/sequences_IDs/A/04_clownfish.jpg,5,4,2,1,2,1,4,3,0,32,,,,,,,,,,,,,,,,,,,,
,,,,,32,2020-07-03_15h41.30.916,retriever_ti,2020.1.3,Win32,60,Chrome,1152,864,,,,,,,,,,,,,,,,,3,,,,,,,,,,,,,,,,,,,,,,,,,,,948.51025,190,left,0.946775,redfox      ,8,1,4,1,3,948.52683,948.52683,951.028035,0,35,35,35,1,190,8,4,redfox      ,parrot      ,html/resources/sequences_IDs/B/01_redfox.jpg,html/resources/sequences_IDs/B/05_parrot.jpg,1,5,1,1,2,1,1,4,0,32,,,,,,,,,,,,,,,,,,,,
,,,,,32,2020-07-03_15h41.30.916,retriever_ti,2020.1.3,Win32,60,Chrome,1152,864,,,,,,,,,,,,,,,,,3,,,,,,,,,,,,,,,,,,,,,,,,,,,951.62862,191,right,0.47889,radio       ,2,10,1,1,1,951.662655,951.662655,954.16367,0,36,36,36,1,191,1,2,calculator    ,radio       ,html/resources/sequences_IDs/A/09_calculator.jpg,html/resources/sequences_IDs/B/10_radio.jpg,9,10,4,2,4,2,7,8,0,32,,,,,,,,,,,,,,,,,,,,
,,,,,32,2020-07-03_15h41.30.916,retriever_ti,2020.1.3,Win32,60,Chrome,1152,864,,,,,,,,,,,,,,,,,3,,,,,,,,,,,,,,,,,,,,,,,,,,,955.26488,192,right,0.4917,dress         ,5,7,-1,0,0,955.2818,955.2818,957.78261,0,37,37,37,1,192,6,5,giraffe     ,dress         ,html/resources/sequences_IDs/B/03_giraffe.jpg,html/resources/sequences_IDs/A/07_dress.jpg,3,7,1,1,3,2,2,5,0,32,,,,,,,,,,,,,,,,,,,,
,,,,,32,2020-07-03_15h41.30.916,retriever_ti,2020.1.3,Win32,60,Chrome,1152,864,,,,,,,,,,,,,,,,,3,,,,,,,,,,,,,,,,,,,,,,,,,,,958.883685,193,left,0.86441,redfox      ,8,1,5,1,3,958.90113,958.90113,961.402075,0,38,38,38,1,193,8,3,redfox      ,clownfish     ,html/resources/sequences_IDs/B/01_redfox.jpg,html/resources/sequences_IDs/A/04_clownfish.jpg,1,4,1,1,2,1,1,3,0,32,,,,,,,,,,,,,,,,,,,,
,,,,,32,2020-07-03_15h41.30.916,retriever_ti,2020.1.3,Win32,60,Chrome,1152,864,,,,,,,,,,,,,,,,,3,,,,,,,,,,,,,,,,,,,,,,,,,,,962.00308,194,left,0.49703,giraffe     ,6,3,3,1,3,962.036475,962.036475,964.537355,0,39,39,39,1,194,6,3,giraffe     ,clownfish     ,html/resources/sequences_IDs/B/03_giraffe.jpg,html/resources/sequences_IDs/A/04_clownfish.jpg,3,4,1,1,2,1,2,3,0,32,,,,,,,,,,,,,,,,,,,,
,,,,,32,2020-07-03_15h41.30.916,retriever_ti,2020.1.3,Win32,60,Chrome,1152,864,,,,,,,,,,,,,,,,,3,,,,,,,,,,,,,,,,,,,,,,,,,,,965.13846,195,left,0.670805,radio       ,2,10,1,1,1,965.172105,965.172105,967.67296,0,40,40,40,1,195,2,1,radio       ,calculator    ,html/resources/sequences_IDs/B/10_radio.jpg,html/resources/sequences_IDs/A/09_calculator.jpg,10,9,4,2,4,2,8,7,0,32,,,,,,,,,,,,,,,,,,,,
,,,,,32,2020-07-03_15h41.30.916,retriever_ti,2020.1.3,Win32,60,Chrome,1152,864,,,,,,,,,,,,,,,,,3,,,,,,,,,,,,,,,,,,,,,,,,,,,968.77442,196,left,0.965215,redfox      ,8,1,1,1,1,968.807975,968.807975,971.30867,0,41,41,41,1,196,8,7,redfox      ,hat           ,html/resources/sequences_IDs/B/01_redfox.jpg,html/resources/sequences_IDs/A/08_hat.jpg,1,8,1,1,3,2,1,6,0,32,,,,,,,,,,,,,,,,,,,,
,,,,,32,2020-07-03_15h41.30.916,retriever_ti,2020.1.3,Win32,60,Chrome,1152,864,,,,,,,,,,,,,,,,,3,,,,,,,,,,,,,,,,,,,,,,,,,,,972.40998,197,right,0.53803,radio       ,2,10,-5,0,3,972.42737,972.42737,974.928005,0,42,42,42,1,197,7,2,hat           ,radio       ,html/resources/sequences_IDs/A/08_hat.jpg,html/resources/sequences_IDs/B/10_radio.jpg,8,10,3,2,4,2,6,8,0,32,,,,,,,,,,,,,,,,,,,,
,,,,,32,2020-07-03_15h41.30.916,retriever_ti,2020.1.3,Win32,60,Chrome,1152,864,,,,,,,,,,,,,,,,,3,,,,,,,,,,,,,,,,,,,,,,,,,,,975.529175,198,right,0.45984,radio       ,2,10,-2,0,3,975.562915,975.562915,978.063805,0,43,43,43,1,198,4,2,parrot      ,radio       ,html/resources/sequences_IDs/B/05_parrot.jpg,html/resources/sequences_IDs/B/10_radio.jpg,5,10,2,1,4,2,4,8,0,32,,,,,,,,,,,,,,,,,,,,
,,,,,32,2020-07-03_15h41.30.916,retriever_ti,2020.1.3,Win32,60,Chrome,1152,864,,,,,,,,,,,,,,,,,3,,,,,,,,,,,,,,,,,,,,,,,,,,,978.664425,199,right,0.49237,dress         ,5,7,3,1,3,978.681395,978.681395,981.182525,0,44,44,44,1,199,2,5,radio       ,dress         ,html/resources/sequences_IDs/B/10_radio.jpg,html/resources/sequences_IDs/A/07_dress.jpg,10,7,4,2,3,2,8,5,0,32,,,,,,,,,,,,,,,,,,,,
,,,,,32,2020-07-03_15h41.30.916,retriever_ti,2020.1.3,Win32,60,Chrome,1152,864,,,,,,,,,,,,,,,,,3,,,,,,,,,,,,,,,,,,,,,,,,,,,981.783785,200,NaN,NaN,No_response,NaN,NaN,NaN,2,2,981.81719,981.81719,984.31818,0,45,45,45,1,200,1,4,calculator    ,parrot      ,html/resources/sequences_IDs/A/09_calculator.jpg,html/resources/sequences_IDs/B/05_parrot.jpg,9,5,4,2,2,1,7,4,0,32,,,,,,,,,,,,,,,,,,,,
,,,,,32,2020-07-03_15h41.30.916,retriever_ti,2020.1.3,Win32,60,Chrome,1152,864,,,,,,,,,,,,,,,,,3,,,,,,,,,,,,,,,,,,,,,,,,,,,985.41917,201,left,0.773345,giraffe     ,6,3,-1,0,0,985.452845,985.452845,987.95398,0,46,46,46,1,201,6,7,giraffe     ,hat           ,html/resources/sequences_IDs/B/03_giraffe.jpg,html/resources/sequences_IDs/A/08_hat.jpg,3,8,1,1,3,2,2,6,0,32,,,,,,,,,,,,,,,,,,,,
,,,,,32,2020-07-03_15h41.30.916,retriever_ti,2020.1.3,Win32,60,Chrome,1152,864,,,,,,,,,,,,,,,,,3,,,,,,,,,,,,,,,,,,,,,,,,,,,989.0554,202,right,0.798305,hat           ,7,8,2,1,3,989.088895,989.088895,991.5901,0,47,47,47,1,202,5,7,dress         ,hat           ,html/resources/sequences_IDs/A/07_dress.jpg,html/resources/sequences_IDs/A/08_hat.jpg,7,8,3,2,3,2,5,6,0,32,,,,,,,,,,,,,,,,,,,,
,,,,,32,2020-07-03_15h41.30.916,retriever_ti,2020.1.3,Win32,60,Chrome,1152,864,,,,,,,,,,,,,,,,,3,,,,,,,,,,,,,,,,,,,,,,,,,,,992.190665,203,right,0.641565,redfox      ,8,1,1,1,1,992.20775,992.20775,994.70868,0,48,48,48,1,203,7,8,hat           ,redfox      ,html/resources/sequences_IDs/A/08_hat.jpg,html/resources/sequences_IDs/B/01_redfox.jpg,8,1,3,2,1,1,6,1,0,32,,,,,,,,,,,,,,,,,,,,
,,,,,32,2020-07-03_15h41.30.916,retriever_ti,2020.1.3,Win32,60,Chrome,1152,864,,,,,,,,,,,,,,,,,3,,,,,,,,,,,,,,,,,,,,,,,,,,,995.810145,204,right,0.431125,calculator    ,1,9,-6,0,3,995.84376,995.84376,998.34464,0,49,49,49,1,204,7,1,hat           ,calculator    ,html/resources/sequences_IDs/A/08_hat.jpg,html/resources/sequences_IDs/A/09_calculator.jpg,8,9,3,2,4,2,6,7,0,32,,,,,,,,,,,,,,,,,,,,
,,,,,32,2020-07-03_15h41.30.916,retriever_ti,2020.1.3,Win32,60,Chrome,1152,864,,,,,,,,,,,,,,,,,3,,,,,,,,,,,,,,,,,,,,,,,,,,,998.94525,205,right,0.506715,dress         ,5,7,-2,0,3,998.96282,998.96282,1001.4634,0,50,50,50,1,205,7,5,hat           ,dress         ,html/resources/sequences_IDs/A/08_hat.jpg,html/resources/sequences_IDs/A/07_dress.jpg,8,7,3,2,3,2,6,5,0,32,,,,,,,,,,,,,,,,,,,,
,,,,,32,2020-07-03_15h41.30.916,retriever_ti,2020.1.3,Win32,60,Chrome,1152,864,,,,,,,,,,,,,,,,,3,,,,,,,,,,,,,,,,,,,,,,,,,,,1002.06465,206,right,0.34244,giraffe     ,6,3,3,1,3,1002.081295,1002.081295,1004.5824,0,51,51,51,1,206,3,6,clownfish     ,giraffe     ,html/resources/sequences_IDs/A/04_clownfish.jpg,html/resources/sequences_IDs/B/03_giraffe.jpg,4,3,2,1,1,1,3,2,0,32,,,,,,,,,,,,,,,,,,,,
,,,,,32,2020-07-03_15h41.30.916,retriever_ti,2020.1.3,Win32,60,Chrome,1152,864,,,,,,,,,,,,,,,,,3,,,,,,,,,,,,,,,,,,,,,,,,,,,1005.18315,207,right,0.382825,parrot      ,4,5,1,1,0,1005.21723,1005.21723,1007.71782,0,52,52,52,1,207,3,4,clownfish     ,parrot      ,html/resources/sequences_IDs/A/04_clownfish.jpg,html/resources/sequences_IDs/B/05_parrot.jpg,4,5,2,1,2,1,3,4,1,32,,,,,,,,,,,,,,,,,,,,
,,,,,32,2020-07-03_15h41.30.916,retriever_ti,2020.1.3,Win32,60,Chrome,1152,864,,,,,,,,,,,,,,,,,3,,,,,,,,,,,,,,,,,,,,,,,,,,,1008.819245,208,left,0.77763,giraffe     ,6,3,-2,0,3,1008.83603,1008.83603,1011.33714,0,53,53,53,1,208,6,8,giraffe     ,redfox      ,html/resources/sequences_IDs/B/03_giraffe.jpg,html/resources/sequences_IDs/B/01_redfox.jpg,3,1,1,1,1,1,2,1,0,32,,,,,,,,,,,,,,,,,,,,
,,,,,32,2020-07-03_15h41.30.916,retriever_ti,2020.1.3,Win32,60,Chrome,1152,864,,,,,,,,,,,,,,,,,3,,,,,,,,,,,,,,,,,,,,,,,,,,,1011.93781,209,right,1.161425,clownfish     ,3,4,1,1,1,1011.97159,1011.97159,1014.472545,0,54,54,54,1,209,2,3,radio       ,clownfish     ,html/resources/sequences_IDs/B/10_radio.jpg,html/resources/sequences_IDs/A/04_clownfish.jpg,10,4,4,2,2,1,8,3,0,32,,,,,,,,,,,,,,,,,,,,
,,,,,32,2020-07-03_15h41.30.916,retriever_ti,2020.1.3,Win32,60,Chrome,1152,864,,,,,,,,,,,,,,,,,3,,,,,,,,,,,,,,,,,,,,,,,,,,,1015.574335,210,left,0.825985,parrot      ,4,5,-1,0,0,1015.607785,1015.607785,1018.108585,0,55,55,55,1,210,4,5,parrot      ,dress         ,html/resources/sequences_IDs/B/05_parrot.jpg,html/resources/sequences_IDs/A/07_dress.jpg,5,7,2,1,3,2,4,5,0,32,,,,,,,,,,,,,,,,,,,,
,,,,,32,2020-07-03_15h41.30.916,retriever_ti,2020.1.3,Win32,60,Chrome,1152,864,,,,,,,,,,,,,,,,,3,,,,,,,,,,,,,,,,,,,,,,,,,,,1019.20966,211,right,0.508705,parrot      ,4,5,1,1,1,1019.243585,1019.243585,1021.74461,0,56,56,56,1,211,3,4,clownfish     ,parrot      ,html/resources/sequences_IDs/A/04_clownfish.jpg,html/resources/sequences_IDs/B/05_parrot.jpg,4,5,2,1,2,1,3,4,0,32,,,,,,,,,,,,,,,,,,,,
,,,,,32,2020-07-03_15h41.30.916,retriever_ti,2020.1.3,Win32,60,Chrome,1152,864,,,,,,,,,,,,,,,,,3,,,,,,,,,,,,,,,,,,,,,,,,,,,1022.84607,212,right,0.509625,radio       ,2,10,-6,0,3,1022.86287,1022.86287,1025.363655,0,57,57,57,1,212,8,2,redfox      ,radio       ,html/resources/sequences_IDs/B/01_redfox.jpg,html/resources/sequences_IDs/B/10_radio.jpg,1,10,1,1,4,2,1,8,0,32,,,,,,,,,,,,,,,,,,,,
,,,,,32,2020-07-03_15h41.30.916,retriever_ti,2020.1.3,Win32,60,Chrome,1152,864,,,,,,,,,,,,,,,,,3,,,,,,,,,,,,,,,,,,,,,,,,,,,1025.96438,213,right,0.425285,radio       ,2,10,1,1,1,1025.9982,1025.9982,1028.49933,0,58,58,58,1,213,1,2,calculator    ,radio       ,html/resources/sequences_IDs/A/09_calculator.jpg,html/resources/sequences_IDs/B/10_radio.jpg,9,10,4,2,4,2,7,8,0,32,,,,,,,,,,,,,,,,,,,,
,,,,,32,2020-07-03_15h41.30.916,retriever_ti,2020.1.3,Win32,60,Chrome,1152,864,,,,,,,,,,,,,,,,,3,,,,,,,,,,,,,,,,,,,,,,,,,,,1029.600685,214,right,0.12996,redfox      ,8,1,7,1,3,1029.63416,1029.63416,1032.13531,0,59,59,59,1,214,1,8,calculator    ,redfox      ,html/resources/sequences_IDs/A/09_calculator.jpg,html/resources/sequences_IDs/B/01_redfox.jpg,9,1,4,2,1,1,7,1,0,32,,,,,,,,,,,,,,,,,,,,
,,,,,32,2020-07-03_15h41.30.916,retriever_ti,2020.1.3,Win32,60,Chrome,1152,864,,,,,,,,,,,,,,,,,3,,,,,,,,,,,,,,,,,,,,,,,,,,,1032.75248,215,left,0.918405,parrot      ,4,5,3,1,3,1032.769845,1032.769845,1035.27065,0,60,60,60,1,215,4,1,parrot      ,calculator    ,html/resources/sequences_IDs/B/05_parrot.jpg,html/resources/sequences_IDs/A/09_calculator.jpg,5,9,2,1,4,2,4,7,0,32,,,,,,,,,,,,,,,,,,,,
,,,,,32,2020-07-03_15h41.30.916,retriever_ti,2020.1.3,Win32,60,Chrome,1152,864,,,,,,,,,,,,,,,,,3,,,,,,,,,,,,,,,,,,,,,,,,,,,1035.872005,216,right,0.813635,clownfish     ,3,4,-1,0,0,1035.8885,1035.8885,1038.38971,0,61,61,61,1,216,4,3,parrot      ,clownfish     ,html/resources/sequences_IDs/B/05_parrot.jpg,html/resources/sequences_IDs/A/04_clownfish.jpg,5,4,2,1,2,1,4,3,0,32,,,,,,,,,,,,,,,,,,,,
,,,,,32,2020-07-03_15h41.30.916,retriever_ti,2020.1.3,Win32,60,Chrome,1152,864,,,,,,,,,,,,,,,,,3,,,,,,,,,,,,,,,,,,,,,,,,,,,1039.490585,217,right,0.84011,dress         ,5,7,1,1,1,1039.524685,1039.524685,1042.025555,0,62,62,62,1,217,4,5,parrot      ,dress         ,html/resources/sequences_IDs/B/05_parrot.jpg,html/resources/sequences_IDs/A/07_dress.jpg,5,7,2,1,3,2,4,5,0,32,,,,,,,,,,,,,,,,,,,,
,,,,,32,2020-07-03_15h41.30.916,retriever_ti,2020.1.3,Win32,60,Chrome,1152,864,,,,,,,,,,,,,,,,,3,,,,,,,,,,,,,,,,,,,,,,,,,,,1043.127225,218,right,1.57073,giraffe     ,6,3,-2,0,3,1043.1447,1043.1447,1045.644755,0,63,63,63,1,218,8,6,redfox      ,giraffe     ,html/resources/sequences_IDs/B/01_redfox.jpg,html/resources/sequences_IDs/B/03_giraffe.jpg,1,3,1,1,1,1,1,2,0,32,,,,,,,,,,,,,,,,,,,,
,,,,,32,2020-07-03_15h41.30.916,retriever_ti,2020.1.3,Win32,60,Chrome,1152,864,,,,,,,,,,,,,,,,,3,,,,,,,,,,,,,,,,,,,,,,,,,,,1046.24531,219,right,1.35104,calculator    ,1,9,-5,0,3,1046.26287,1046.26287,1048.763635,0,64,64,64,1,219,6,1,giraffe     ,calculator    ,html/resources/sequences_IDs/B/03_giraffe.jpg,html/resources/sequences_IDs/A/09_calculator.jpg,3,9,1,1,4,2,2,7,0,32,,,,,,,,,,,,,,,,,,,,
,,,,,32,2020-07-03_15h41.30.916,retriever_ti,2020.1.3,Win32,60,Chrome,1152,864,,,,,,,,,,,,,,,,,3,,,,,,,,,,,,,,,,,,,,,,,,,,,1049.364785,220,left,0.7945,radio       ,2,10,-2,0,3,1049.381345,1049.381345,1051.882295,0,65,65,65,1,220,2,4,radio       ,parrot      ,html/resources/sequences_IDs/B/10_radio.jpg,html/resources/sequences_IDs/B/05_parrot.jpg,10,5,4,2,2,1,8,4,0,32,,,,,,,,,,,,,,,,,,,,
,,,,,32,2020-07-03_15h41.30.916,retriever_ti,2020.1.3,Win32,60,Chrome,1152,864,,,,,,,,,,,,,,,,,3,,,,,,,,,,,,,,,,,,,,,,,,,,,1052.483135,221,left,1.080095,radio       ,2,10,1,1,1,1052.516825,1052.516825,1055.017925,0,66,66,66,1,221,2,1,radio       ,calculator    ,html/resources/sequences_IDs/B/10_radio.jpg,html/resources/sequences_IDs/A/09_calculator.jpg,10,9,4,2,4,2,8,7,0,32,,,,,,,,,,,,,,,,,,,,
,,,,,32,2020-07-03_15h41.30.916,retriever_ti,2020.1.3,Win32,60,Chrome,1152,864,,,,,,,,,,,,,,,,,3,,,,,,,,,,,,,,,,,,,,,,,,,,,1056.119355,222,right,0.599555,giraffe     ,6,3,1,1,1,1056.15295,1056.15295,1058.653795,0,67,67,67,1,222,5,6,dress         ,giraffe     ,html/resources/sequences_IDs/A/07_dress.jpg,html/resources/sequences_IDs/B/03_giraffe.jpg,7,3,3,2,1,1,5,2,0,32,,,,,,,,,,,,,,,,,,,,
,,,,,32,2020-07-03_15h41.30.916,retriever_ti,2020.1.3,Win32,60,Chrome,1152,864,,,,,,,,,,,,,,,,,3,,,,,,,,,,,,,,,,,,,,,,,,,,,1059.754745,223,right,0.61108,parrot      ,4,5,-3,0,3,1059.7721,1059.7721,1062.273075,0,68,68,68,1,223,7,4,hat           ,parrot      ,html/resources/sequences_IDs/A/08_hat.jpg,html/resources/sequences_IDs/B/05_parrot.jpg,8,5,3,2,2,1,6,4,0,32,,,,,,,,,,,,,,,,,,,,
