instructionsLoop.thisRepN,instructionsLoop.thisTrialN,instructionsLoop.thisN,instructionsLoop.thisIndex,instructionsLoop.ran,participant,date,expName,psychopyVersion,OS,frameRate,browser,xResolution,yResolution,fix_onset,tprac,practiceKey.keys,practiceKey.rt,pracitem_chosen_name,acc_practice,P1_onsetPrac,P2_onsetPrac,onsetFeedbPrac,practiceTrials.thisRepN,practiceTrials.thisTrialN,practiceTrials.thisN,practiceTrials.thisIndex,practiceTrials.ran,P1,P2,Block,LocItem1,LocItem2,NameItem1,NameItem2,key_respAC_prac.keys,key_respAC_prac.corr,key_respAC_prac.rt,AC_acc,Attentions.thisRepN,Attentions.thisTrialN,Attentions.thisN,Attentions.thisIndex,Attentions.ran,Stim,Loc1,Loc2,Loc3,Loc4,CorrAns,keyDisturbed.keys,keyDisturbed.rt,repPractice.thisRepN,repPractice.thisTrialN,repPractice.thisN,repPractice.thisIndex,repPractice.ran,fixcross_onsetMain,trialNumber,key_resp.keys,key_resp.rt,item_chosen_name,item_chosen_value,item_chosen_ID,diff_chosen_minus_reject,acc_real,acc_feedback,P1_onset,P2_onset,feedb_onset,trials.thisRepN,trials.thisTrialN,trials.thisN,trials.thisIndex,trials.ran,Trial,ValueP1,ValueP2,P1name,P2name,P1Loc,P2Loc,P1id,P2id,Micro_categoryP1,Macro_categoryP1,Micro_categoryP2,Macro_categoryP2,ID_sequenceP1,ID_sequenceP2,InverseFb,pNumber,repBlocks.thisRepN,repBlocks.thisTrialN,repBlocks.thisN,repBlocks.thisIndex,repBlocks.ran,key_respAC.keys,key_respAC.corr,key_respAC.rt,trials_AC.thisRepN,trials_AC.thisTrialN,trials_AC.thisN,trials_AC.thisIndex,trials_AC.ran,Bonus,BonusLoop.thisRepN,BonusLoop.thisTrialN,BonusLoop.thisN,BonusLoop.thisIndex,BonusLoop.ran,comments
0,0,0,0,1,34,2020-07-03_20h19.41.131,retriever_ti,2020.1.3,Win32,60,Chrome,1366,768,,,,,,,,,,,,,,,,,,,,,,,,,,,,,,,,,,,,,,,,,,,,,,,,,,,,,,,,,,,,,,,,,,,,,,,,,,,,,,,,,,,,,,,,,,,,,,,,,,
1,0,1,0,1,34,2020-07-03_20h19.41.131,retriever_ti,2020.1.3,Win32,60,Chrome,1366,768,,,,,,,,,,,,,,,,,,,,,,,,,,,,,,,,,,,,,,,,,,,,,,,,,,,,,,,,,,,,,,,,,,,,,,,,,,,,,,,,,,,,,,,,,,,,,,,,,,
2,0,2,0,1,34,2020-07-03_20h19.41.131,retriever_ti,2020.1.3,Win32,60,Chrome,1366,768,,,,,,,,,,,,,,,,,,,,,,,,,,,,,,,,,,,,,,,,,,,,,,,,,,,,,,,,,,,,,,,,,,,,,,,,,,,,,,,,,,,,,,,,,,,,,,,,,,
3,0,3,0,1,34,2020-07-03_20h19.41.131,retriever_ti,2020.1.3,Win32,60,Chrome,1366,768,,,,,,,,,,,,,,,,,,,,,,,,,,,,,,,,,,,,,,,,,,,,,,,,,,,,,,,,,,,,,,,,,,,,,,,,,,,,,,,,,,,,,,,,,,,,,,,,,,
4,0,4,0,1,34,2020-07-03_20h19.41.131,retriever_ti,2020.1.3,Win32,60,Chrome,1366,768,,,,,,,,,,,,,,,,,,,,,,,,,,,,,,,,,,,,,,,,,,,,,,,,,,,,,,,,,,,,,,,,,,,,,,,,,,,,,,,,,,,,,,,,,,,,,,,,,,
5,0,5,0,1,34,2020-07-03_20h19.41.131,retriever_ti,2020.1.3,Win32,60,Chrome,1366,768,,,,,,,,,,,,,,,,,,,,,,,,,,,,,,,,,,,,,,,,,,,,,,,,,,,,,,,,,,,,,,,,,,,,,,,,,,,,,,,,,,,,,,,,,,,,,,,,,,
6,0,6,0,1,34,2020-07-03_20h19.41.131,retriever_ti,2020.1.3,Win32,60,Chrome,1366,768,,,,,,,,,,,,,,,,,,,,,,,,,,,,,,,,,,,,,,,,,,,,,,,,,,,,,,,,,,,,,,,,,,,,,,,,,,,,,,,,,,,,,,,,,,,,,,,,,,
7,0,7,0,1,34,2020-07-03_20h19.41.131,retriever_ti,2020.1.3,Win32,60,Chrome,1366,768,,,,,,,,,,,,,,,,,,,,,,,,,,,,,,,,,,,,,,,,,,,,,,,,,,,,,,,,,,,,,,,,,,,,,,,,,,,,,,,,,,,,,,,,,,,,,,,,,,
8,0,8,0,1,34,2020-07-03_20h19.41.131,retriever_ti,2020.1.3,Win32,60,Chrome,1366,768,,,,,,,,,,,,,,,,,,,,,,,,,,,,,,,,,,,,,,,,,,,,,,,,,,,,,,,,,,,,,,,,,,,,,,,,,,,,,,,,,,,,,,,,,,,,,,,,,,
9,0,9,0,1,34,2020-07-03_20h19.41.131,retriever_ti,2020.1.3,Win32,60,Chrome,1366,768,,,,,,,,,,,,,,,,,,,,,,,,,,,,,,,,,,,,,,,,,,,,,,,,,,,,,,,,,,,,,,,,,,,,,,,,,,,,,,,,,,,,,,,,,,,,,,,,,,
10,0,10,0,1,34,2020-07-03_20h19.41.131,retriever_ti,2020.1.3,Win32,60,Chrome,1366,768,,,,,,,,,,,,,,,,,,,,,,,,,,,,,,,,,,,,,,,,,,,,,,,,,,,,,,,,,,,,,,,,,,,,,,,,,,,,,,,,,,,,,,,,,,,,,,,,,,
11,0,11,0,1,34,2020-07-03_20h19.41.131,retriever_ti,2020.1.3,Win32,60,Chrome,1366,768,,,,,,,,,,,,,,,,,,,,,,,,,,,,,,,,,,,,,,,,,,,,,,,,,,,,,,,,,,,,,,,,,,,,,,,,,,,,,,,,,,,,,,,,,,,,,,,,,,
12,0,12,0,1,34,2020-07-03_20h19.41.131,retriever_ti,2020.1.3,Win32,60,Chrome,1366,768,,,,,,,,,,,,,,,,,,,,,,,,,,,,,,,,,,,,,,,,,,,,,,,,,,,,,,,,,,,,,,,,,,,,,,,,,,,,,,,,,,,,,,,,,,,,,,,,,,
13,0,13,0,1,34,2020-07-03_20h19.41.131,retriever_ti,2020.1.3,Win32,60,Chrome,1366,768,,,,,,,,,,,,,,,,,,,,,,,,,,,,,,,,,,,,,,,,,,,,,,,,,,,,,,,,,,,,,,,,,,,,,,,,,,,,,,,,,,,,,,,,,,,,,,,,,,
14,0,14,0,1,34,2020-07-03_20h19.41.131,retriever_ti,2020.1.3,Win32,60,Chrome,1366,768,,,,,,,,,,,,,,,,,,,,,,,,,,,,,,,,,,,,,,,,,,,,,,,,,,,,,,,,,,,,,,,,,,,,,,,,,,,,,,,,,,,,,,,,,,,,,,,,,,
15,0,15,0,1,34,2020-07-03_20h19.41.131,retriever_ti,2020.1.3,Win32,60,Chrome,1366,768,,,,,,,,,,,,,,,,,,,,,,,,,,,,,,,,,,,,,,,,,,,,,,,,,,,,,,,,,,,,,,,,,,,,,,,,,,,,,,,,,,,,,,,,,,,,,,,,,,
16,0,16,0,1,34,2020-07-03_20h19.41.131,retriever_ti,2020.1.3,Win32,60,Chrome,1366,768,,,,,,,,,,,,,,,,,,,,,,,,,,,,,,,,,,,,,,,,,,,,,,,,,,,,,,,,,,,,,,,,,,,,,,,,,,,,,,,,,,,,,,,,,,,,,,,,,,
,,,,,34,2020-07-03_20h19.41.131,retriever_ti,2020.1.3,Win32,60,Chrome,1366,768,379.811135,1,NaN,NaN,No_response,2,379.8443,379.8443,382.33498,0,0,0,0,1,2,5,1,html/resources/stimuli_practice_decision/04_beetle.jpg,html/resources/stimuli_practice_decision/02_canary.jpg,beetle,canary,,,,,,,,,,,,,,,,,,,,,,,,,,,,,,,,,,,,,,,,,,,,,,,,,,,,,,,,,,,,,,,,,,,,,,,,,,,,,
,,,,,34,2020-07-03_20h19.41.131,retriever_ti,2020.1.3,Win32,60,Chrome,1366,768,383.09706,2,NaN,NaN,No_response,2,383.118405,383.118405,385.608795,0,1,1,1,1,4,3,1,html/resources/stimuli_practice_decision/01_rabbit.jpg,html/resources/stimuli_practice_decision/07_sock.jpg,rabbit,sock,,,,,,,,,,,,,,,,,,,,,,,,,,,,,,,,,,,,,,,,,,,,,,,,,,,,,,,,,,,,,,,,,,,,,,,,,,,,,
,,,,,34,2020-07-03_20h19.41.131,retriever_ti,2020.1.3,Win32,60,Chrome,1366,768,386.11146,3,right,2.25653,beetle,0,386.130355,386.130355,388.616005,0,2,2,2,1,6,2,1,html/resources/stimuli_practice_decision/06_pullover.jpg,html/resources/stimuli_practice_decision/04_beetle.jpg,pullover,beetle,,,,,,,,,,,,,,,,,,,,,,,,,,,,,,,,,,,,,,,,,,,,,,,,,,,,,,,,,,,,,,,,,,,,,,,,,,,,,
,,,,,34,2020-07-03_20h19.41.131,retriever_ti,2020.1.3,Win32,60,Chrome,1366,768,389.11865,4,left,1.620155,glasses,1,389.137775,389.137775,391.623575,0,3,3,3,1,7,1,1,html/resources/stimuli_practice_decision/05_glasses.jpg,html/resources/stimuli_practice_decision/08_handmixer.jpg,glasses,handmixer,,,,,,,,,,,,,,,,,,,,,,,,,,,,,,,,,,,,,,,,,,,,,,,,,,,,,,,,,,,,,,,,,,,,,,,,,,,,,
,,,,,34,2020-07-03_20h19.41.131,retriever_ti,2020.1.3,Win32,60,Chrome,1366,768,392.127235,5,left,0.81292,glasses,1,392.16094,392.16094,394.648835,0,4,4,4,1,7,6,1,html/resources/stimuli_practice_decision/05_glasses.jpg,html/resources/stimuli_practice_decision/06_pullover.jpg,glasses,pullover,,,,,,,,,,,,,,,,,,,,,,,,,,,,,,,,,,,,,,,,,,,,,,,,,,,,,,,,,,,,,,,,,,,,,,,,,,,,,
,,,,,34,2020-07-03_20h19.41.131,retriever_ti,2020.1.3,Win32,60,Chrome,1366,768,395.65289,6,right,1.996345,glasses,1,395.687205,395.687205,398.17453,0,5,5,5,1,4,7,1,html/resources/stimuli_practice_decision/01_rabbit.jpg,html/resources/stimuli_practice_decision/05_glasses.jpg,rabbit,glasses,,,,,,,,,,,,,,,,,,,,,,,,,,,,,,,,,,,,,,,,,,,,,,,,,,,,,,,,,,,,,,,,,,,,,,,,,,,,,
,,,,,34,2020-07-03_20h19.41.131,retriever_ti,2020.1.3,Win32,60,Chrome,1366,768,398.67798,7,left,1.854385,handmixer,0,398.712605,398.712605,401.200035,0,6,6,6,1,1,2,1,html/resources/stimuli_practice_decision/08_handmixer.jpg,html/resources/stimuli_practice_decision/04_beetle.jpg,handmixer,beetle,,,,,,,,,,,,,,,,,,,,,,,,,,,,,,,,,,,,,,,,,,,,,,,,,,,,,,,,,,,,,,,,,,,,,,,,,,,,,
,,,,,34,2020-07-03_20h19.41.131,retriever_ti,2020.1.3,Win32,60,Chrome,1366,768,402.2038,8,left,1.925165,rabbit,1,402.238855,402.238855,404.725005,0,7,7,7,1,4,3,1,html/resources/stimuli_practice_decision/01_rabbit.jpg,html/resources/stimuli_practice_decision/07_sock.jpg,rabbit,sock,,,,,,,,,,,,,,,,,,,,,,,,,,,,,,,,,,,,,,,,,,,,,,,,,,,,,,,,,,,,,,,,,,,,,,,,,,,,,
,,,,,34,2020-07-03_20h19.41.131,retriever_ti,2020.1.3,Win32,60,Chrome,1366,768,,,,,,,,,,,,,,,,,,,,,,left,1,4.593475,1,0,0,0,2,1,html/resources/sequences_IDs/square1.png,star ↑,triangle →,circle ↓,← square,left,,,,,,,,,,,,,,,,,,,,,,,,,,,,,,,,,,,,,,,,,,,,,,,,,,,,,,,,,,,,,,
,,,,,34,2020-07-03_20h19.41.131,retriever_ti,2020.1.3,Win32,60,Chrome,1366,768,,,,,,,,,,,,,,,,,,,,,,down,1,5.733835,1,0,1,1,3,1,html/resources/sequences_IDs/triangle.png,star ↑,square →,triangle ↓,← circle,down,,,,,,,,,,,,,,,,,,,,,,,,,,,,,,,,,,,,,,,,,,,,,,,,,,,,,,,,,,,,,,
,,,,,34,2020-07-03_20h19.41.131,retriever_ti,2020.1.3,Win32,60,Chrome,1366,768,,,,,,,,,,,,,,,,,,,,,,down,1,3.014775,1,0,2,2,1,1,html/resources/sequences_IDs/star.png,square ↑,circle →,star ↓,← triangle,down,,,,,,,,,,,,,,,,,,,,,,,,,,,,,,,,,,,,,,,,,,,,,,,,,,,,,,,,,,,,,,
,,,,,34,2020-07-03_20h19.41.131,retriever_ti,2020.1.3,Win32,60,Chrome,1366,768,,,,,,,,,,,,,,,,,,,,,,up,1,1.83606,1,0,3,3,0,1,html/resources/sequences_IDs/circle.png,circle ↑,square →,triangle ↓,← star ,up,,,,,,,,,,,,,,,,,,,,,,,,,,,,,,,,,,,,,,,,,,,,,,,,,,,,,,,,,,,,,,
,,,,,34,2020-07-03_20h19.41.131,retriever_ti,2020.1.3,Win32,60,Chrome,1366,768,,,,,,,,,,,,,,,,,,,,,,,,,,,,,,,,,,,,,1,23.19811,0,0,0,0,1,,,,,,,,,,,,,,,,,,,,,,,,,,,,,,,,,,,,,,,,,,,,,,,,,,,,,,,
,,,,,34,2020-07-03_20h19.41.131,retriever_ti,2020.1.3,Win32,60,Chrome,1366,768,448.741325,9,right,1.23299,glasses,1,448.776305,448.776305,451.265475,0,0,0,0,1,6,7,1,html/resources/stimuli_practice_decision/06_pullover.jpg,html/resources/stimuli_practice_decision/05_glasses.jpg,pullover,glasses,,,,,,,,,,,,,,,,,,,,,,,,,,,,,,,,,,,,,,,,,,,,,,,,,,,,,,,,,,,,,,,,,,,,,,,,,,,,,
,,,,,34,2020-07-03_20h19.41.131,retriever_ti,2020.1.3,Win32,60,Chrome,1366,768,452.268845,10,right,1.05299,beetle,0,452.305595,452.305595,454.79154,0,1,1,1,1,6,2,1,html/resources/stimuli_practice_decision/06_pullover.jpg,html/resources/stimuli_practice_decision/04_beetle.jpg,pullover,beetle,,,,,,,,,,,,,,,,,,,,,,,,,,,,,,,,,,,,,,,,,,,,,,,,,,,,,,,,,,,,,,,,,,,,,,,,,,,,,
,,,,,34,2020-07-03_20h19.41.131,retriever_ti,2020.1.3,Win32,60,Chrome,1366,768,455.295525,11,right,1.484445,pullover,1,455.329045,455.329045,457.816445,0,2,2,2,1,5,6,1,html/resources/stimuli_practice_decision/02_canary.jpg,html/resources/stimuli_practice_decision/06_pullover.jpg,canary,pullover,,,,,,,,,,,,,,,,,,,,,,,,,,,,,,,,,,,,,,,,,,,,,,,,,,,,,,,,,,,,,,,,,,,,,,,,,,,,,
,,,,,34,2020-07-03_20h19.41.131,retriever_ti,2020.1.3,Win32,60,Chrome,1366,768,458.81938,12,right,0.92638,glasses,0,458.838685,458.838685,461.326535,0,3,3,3,1,8,7,1,html/resources/stimuli_practice_decision/03_squirrel.jpg,html/resources/stimuli_practice_decision/05_glasses.jpg,squirrel,glasses,,,,,,,,,,,,,,,,,,,,,,,,,,,,,,,,,,,,,,,,,,,,,,,,,,,,,,,,,,,,,,,,,,,,,,,,,,,,,
,,,,,34,2020-07-03_20h19.41.131,retriever_ti,2020.1.3,Win32,60,Chrome,1366,768,462.32996,13,left,1.147535,canary,1,462.364395,462.364395,464.851675,0,4,4,4,1,5,3,1,html/resources/stimuli_practice_decision/02_canary.jpg,html/resources/stimuli_practice_decision/07_sock.jpg,canary,sock,,,,,,,,,,,,,,,,,,,,,,,,,,,,,,,,,,,,,,,,,,,,,,,,,,,,,,,,,,,,,,,,,,,,,,,,,,,,,
,,,,,34,2020-07-03_20h19.41.131,retriever_ti,2020.1.3,Win32,60,Chrome,1366,768,465.35342,14,left,1.22394,glasses,0,465.372215,465.372215,467.85899,0,5,5,5,1,7,8,1,html/resources/stimuli_practice_decision/05_glasses.jpg,html/resources/stimuli_practice_decision/03_squirrel.jpg,glasses,squirrel,,,,,,,,,,,,,,,,,,,,,,,,,,,,,,,,,,,,,,,,,,,,,,,,,,,,,,,,,,,,,,,,,,,,,,,,,,,,,
,,,,,34,2020-07-03_20h19.41.131,retriever_ti,2020.1.3,Win32,60,Chrome,1366,768,468.863935,15,right,1.50211,rabbit,0,468.89797,468.89797,471.385545,0,6,6,6,1,5,4,1,html/resources/stimuli_practice_decision/02_canary.jpg,html/resources/stimuli_practice_decision/01_rabbit.jpg,canary,rabbit,,,,,,,,,,,,,,,,,,,,,,,,,,,,,,,,,,,,,,,,,,,,,,,,,,,,,,,,,,,,,,,,,,,,,,,,,,,,,
,,,,,34,2020-07-03_20h19.41.131,retriever_ti,2020.1.3,Win32,60,Chrome,1366,768,472.388565,16,left,1.168905,canary,1,472.40815,472.40815,474.89446,0,7,7,7,1,5,3,1,html/resources/stimuli_practice_decision/02_canary.jpg,html/resources/stimuli_practice_decision/07_sock.jpg,canary,sock,,,,,,,,,,,,,,,,,,,,,,,,,,,,,,,,,,,,,,,,,,,,,,,,,,,,,,,,,,,,,,,,,,,,,,,,,,,,,
,,,,,34,2020-07-03_20h19.41.131,retriever_ti,2020.1.3,Win32,60,Chrome,1366,768,,,,,,,,,,,,,,,,,,,,,,up,1,4.911435,1,0,0,0,0,1,html/resources/sequences_IDs/circle.png,circle ↑,square →,triangle ↓,← star ,up,,,,,,,,,,,,,,,,,,,,,,,,,,,,,,,,,,,,,,,,,,,,,,,,,,,,,,,,,,,,,,
,,,,,34,2020-07-03_20h19.41.131,retriever_ti,2020.1.3,Win32,60,Chrome,1366,768,,,,,,,,,,,,,,,,,,,,,,down,1,2.140125,1,0,1,1,1,1,html/resources/sequences_IDs/star.png,square ↑,circle →,star ↓,← triangle,down,,,,,,,,,,,,,,,,,,,,,,,,,,,,,,,,,,,,,,,,,,,,,,,,,,,,,,,,,,,,,,
,,,,,34,2020-07-03_20h19.41.131,retriever_ti,2020.1.3,Win32,60,Chrome,1366,768,,,,,,,,,,,,,,,,,,,,,,down,1,1.455155,1,0,2,2,3,1,html/resources/sequences_IDs/triangle.png,star ↑,square →,triangle ↓,← circle,down,,,,,,,,,,,,,,,,,,,,,,,,,,,,,,,,,,,,,,,,,,,,,,,,,,,,,,,,,,,,,,
,,,,,34,2020-07-03_20h19.41.131,retriever_ti,2020.1.3,Win32,60,Chrome,1366,768,,,,,,,,,,,,,,,,,,,,,,left,1,3.15703,1,0,3,3,2,1,html/resources/sequences_IDs/square1.png,star ↑,triangle →,circle ↓,← square,left,,,,,,,,,,,,,,,,,,,,,,,,,,,,,,,,,,,,,,,,,,,,,,,,,,,,,,,,,,,,,,
,,,,,34,2020-07-03_20h19.41.131,retriever_ti,2020.1.3,Win32,60,Chrome,1366,768,,,,,,,,,,,,,,,,,,,,,,,,,,,,,,,,,,,,,1,8.78474,1,0,1,0,1,,,,,,,,,,,,,,,,,,,,,,,,,,,,,,,,,,,,,,,,,,,,,,,,,,,,,,,
,,,,,34,2020-07-03_20h19.41.131,retriever_ti,2020.1.3,Win32,60,Chrome,1366,768,,,,,,,,,,,,,,,,,1,,,,,,,,,,,,,,,,,,,,,,,,,,,510.48348,1,left,1.7829,giraffe     ,4,3,-1,0,0,510.50754,510.50754,512.998025,0,0,0,0,1,1,4,5,giraffe     ,calculator    ,html/resources/sequences_IDs/B/03_giraffe.jpg,html/resources/sequences_IDs/A/09_calculator.jpg,3,9,1,1,4,2,3,8,0,34,,,,,,,,,,,,,,,,,,,,
,,,,,34,2020-07-03_20h19.41.131,retriever_ti,2020.1.3,Win32,60,Chrome,1366,768,,,,,,,,,,,,,,,,,1,,,,,,,,,,,,,,,,,,,,,,,,,,,514.10136,2,left,1.510715,parrot      ,6,5,-1,0,0,514.12015,514.12015,516.605595,0,1,1,1,1,2,6,7,parrot      ,wolf          ,html/resources/sequences_IDs/B/05_parrot.jpg,html/resources/sequences_IDs/A/01_wolf.jpg,5,1,2,1,1,1,4,1,0,34,,,,,,,,,,,,,,,,,,,,
,,,,,34,2020-07-03_20h19.41.131,retriever_ti,2020.1.3,Win32,60,Chrome,1366,768,,,,,,,,,,,,,,,,,1,,,,,,,,,,,,,,,,,,,,,,,,,,,517.71023,3,right,1.297775,giraffe     ,4,3,3,1,3,517.72772,517.72772,520.214585,0,2,2,2,1,3,1,4,dress         ,giraffe     ,html/resources/sequences_IDs/A/07_dress.jpg,html/resources/sequences_IDs/B/03_giraffe.jpg,7,3,3,2,1,1,6,3,0,34,,,,,,,,,,,,,,,,,,,,
,,,,,34,2020-07-03_20h19.41.131,retriever_ti,2020.1.3,Win32,60,Chrome,1366,768,,,,,,,,,,,,,,,,,1,,,,,,,,,,,,,,,,,,,,,,,,,,,520.818295,4,left,1.556575,calculator    ,5,9,-3,0,3,520.85172,520.85172,523.33978,0,3,3,3,1,4,5,8,calculator    ,gloves      ,html/resources/sequences_IDs/A/09_calculator.jpg,html/resources/sequences_IDs/B/06_gloves.jpg,9,6,4,2,3,2,8,5,0,34,,,,,,,,,,,,,,,,,,,,
,,,,,34,2020-07-03_20h19.41.131,retriever_ti,2020.1.3,Win32,60,Chrome,1366,768,,,,,,,,,,,,,,,,,1,,,,,,,,,,,,,,,,,,,,,,,,,,,523.94378,5,right,1.144215,parrot      ,6,5,1,1,1,523.96021,523.96021,526.44816,0,4,4,4,1,5,5,6,calculator    ,parrot      ,html/resources/sequences_IDs/A/09_calculator.jpg,html/resources/sequences_IDs/B/05_parrot.jpg,9,5,4,2,2,1,8,4,0,34,,,,,,,,,,,,,,,,,,,,
,,,,,34,2020-07-03_20h19.41.131,retriever_ti,2020.1.3,Win32,60,Chrome,1366,768,,,,,,,,,,,,,,,,,1,,,,,,,,,,,,,,,,,,,,,,,,,,,527.551905,6,NaN,NaN,No_response,NaN,NaN,NaN,2,2,527.569865,527.569865,530.05827,0,5,5,5,1,6,3,7,seaturtle     ,wolf          ,html/resources/sequences_IDs/A/02_seaturtle.jpg,html/resources/sequences_IDs/A/01_wolf.jpg,2,1,2,1,1,1,2,1,0,34,,,,,,,,,,,,,,,,,,,,
,,,,,34,2020-07-03_20h19.41.131,retriever_ti,2020.1.3,Win32,60,Chrome,1366,768,,,,,,,,,,,,,,,,,1,,,,,,,,,,,,,,,,,,,,,,,,,,,531.16281,7,right,1.913215,wolf          ,7,1,1,1,0,531.18016,531.18016,533.667145,0,6,6,6,1,7,6,7,parrot      ,wolf          ,html/resources/sequences_IDs/B/05_parrot.jpg,html/resources/sequences_IDs/A/01_wolf.jpg,5,1,2,1,1,1,4,1,1,34,,,,,,,,,,,,,,,,,,,,
,,,,,34,2020-07-03_20h19.41.131,retriever_ti,2020.1.3,Win32,60,Chrome,1366,768,,,,,,,,,,,,,,,,,1,,,,,,,,,,,,,,,,,,,,,,,,,,,534.771135,8,right,1.120685,giraffe     ,4,3,-1,0,0,534.806875,534.806875,537.29324,0,7,7,7,1,8,5,4,calculator    ,giraffe     ,html/resources/sequences_IDs/A/09_calculator.jpg,html/resources/sequences_IDs/B/03_giraffe.jpg,9,3,4,2,1,1,8,3,0,34,,,,,,,,,,,,,,,,,,,,
,,,,,34,2020-07-03_20h19.41.131,retriever_ti,2020.1.3,Win32,60,Chrome,1366,768,,,,,,,,,,,,,,,,,1,,,,,,,,,,,,,,,,,,,,,,,,,,,538.38341,9,left,1.61354,gloves      ,8,6,6,1,3,538.40073,538.40073,540.88662,0,8,8,8,1,9,8,2,gloves      ,slipper     ,html/resources/sequences_IDs/B/06_gloves.jpg,html/resources/sequences_IDs/B/08_slipper.jpg,6,8,3,2,3,2,5,7,0,34,,,,,,,,,,,,,,,,,,,,
,,,,,34,2020-07-03_20h19.41.131,retriever_ti,2020.1.3,Win32,60,Chrome,1366,768,,,,,,,,,,,,,,,,,1,,,,,,,,,,,,,,,,,,,,,,,,,,,541.48934,10,left,1.16065,seaturtle     ,3,2,1,1,1,541.506715,541.506715,543.994385,0,9,9,9,1,10,3,2,seaturtle     ,slipper     ,html/resources/sequences_IDs/A/02_seaturtle.jpg,html/resources/sequences_IDs/B/08_slipper.jpg,2,8,2,1,3,2,2,7,0,34,,,,,,,,,,,,,,,,,,,,
,,,,,34,2020-07-03_20h19.41.131,retriever_ti,2020.1.3,Win32,60,Chrome,1366,768,,,,,,,,,,,,,,,,,1,,,,,,,,,,,,,,,,,,,,,,,,,,,545.09925,11,right,0.969675,parrot      ,6,5,-2,0,3,545.117085,545.117085,547.604535,0,10,10,10,1,11,8,6,gloves      ,parrot      ,html/resources/sequences_IDs/B/06_gloves.jpg,html/resources/sequences_IDs/B/05_parrot.jpg,6,5,3,2,2,1,5,4,0,34,,,,,,,,,,,,,,,,,,,,
,,,,,34,2020-07-03_20h19.41.131,retriever_ti,2020.1.3,Win32,60,Chrome,1366,768,,,,,,,,,,,,,,,,,1,,,,,,,,,,,,,,,,,,,,,,,,,,,548.20635,12,right,1.477685,giraffe     ,4,3,-1,0,1,548.24202,548.24202,550.76076,0,11,11,11,1,12,5,4,calculator    ,giraffe     ,html/resources/sequences_IDs/A/09_calculator.jpg,html/resources/sequences_IDs/B/03_giraffe.jpg,9,3,4,2,1,1,8,3,1,34,,,,,,,,,,,,,,,,,,,,
,,,,,34,2020-07-03_20h19.41.131,retriever_ti,2020.1.3,Win32,60,Chrome,1366,768,,,,,,,,,,,,,,,,,1,,,,,,,,,,,,,,,,,,,,,,,,,,,551.85067,13,right,1.687815,wolf          ,7,1,3,1,3,551.88416,551.88416,554.37215,0,12,12,12,1,13,4,7,giraffe     ,wolf          ,html/resources/sequences_IDs/B/03_giraffe.jpg,html/resources/sequences_IDs/A/01_wolf.jpg,3,1,1,1,1,1,3,1,0,34,,,,,,,,,,,,,,,,,,,,
,,,,,34,2020-07-03_20h19.41.131,retriever_ti,2020.1.3,Win32,60,Chrome,1366,768,,,,,,,,,,,,,,,,,1,,,,,,,,,,,,,,,,,,,,,,,,,,,554.97451,14,left,1.489535,gloves      ,8,6,7,1,3,554.99311,554.99311,557.480375,0,13,13,13,1,14,8,1,gloves      ,dress         ,html/resources/sequences_IDs/B/06_gloves.jpg,html/resources/sequences_IDs/A/07_dress.jpg,6,7,3,2,3,2,5,6,0,34,,,,,,,,,,,,,,,,,,,,
,,,,,34,2020-07-03_20h19.41.131,retriever_ti,2020.1.3,Win32,60,Chrome,1366,768,,,,,,,,,,,,,,,,,1,,,,,,,,,,,,,,,,,,,,,,,,,,,558.08401,15,right,1.219635,seaturtle     ,3,2,-5,0,3,558.118175,558.118175,560.60558,0,14,14,14,1,15,8,3,gloves      ,seaturtle     ,html/resources/sequences_IDs/B/06_gloves.jpg,html/resources/sequences_IDs/A/02_seaturtle.jpg,6,2,3,2,2,1,5,2,0,34,,,,,,,,,,,,,,,,,,,,
,,,,,34,2020-07-03_20h19.41.131,retriever_ti,2020.1.3,Win32,60,Chrome,1366,768,,,,,,,,,,,,,,,,,1,,,,,,,,,,,,,,,,,,,,,,,,,,,561.20828,16,left,1.58348,dress         ,1,7,-1,0,0,561.225675,561.225675,563.71355,0,15,15,15,1,16,1,2,dress         ,slipper     ,html/resources/sequences_IDs/A/07_dress.jpg,html/resources/sequences_IDs/B/08_slipper.jpg,7,8,3,2,3,2,6,7,0,34,,,,,,,,,,,,,,,,,,,,
,,,,,34,2020-07-03_20h19.41.131,retriever_ti,2020.1.3,Win32,60,Chrome,1366,768,,,,,,,,,,,,,,,,,1,,,,,,,,,,,,,,,,,,,,,,,,,,,564.818495,17,right,1.192865,wolf          ,7,1,-1,0,0,564.836175,564.836175,567.32259,0,16,16,16,1,17,8,7,gloves      ,wolf          ,html/resources/sequences_IDs/B/06_gloves.jpg,html/resources/sequences_IDs/A/01_wolf.jpg,6,1,3,2,1,1,5,1,0,34,,,,,,,,,,,,,,,,,,,,
,,,,,34,2020-07-03_20h19.41.131,retriever_ti,2020.1.3,Win32,60,Chrome,1366,768,,,,,,,,,,,,,,,,,1,,,,,,,,,,,,,,,,,,,,,,,,,,,568.42665,18,NaN,NaN,No_response,NaN,NaN,NaN,2,2,568.46236,568.46236,570.949995,0,17,17,17,1,18,7,4,wolf          ,giraffe     ,html/resources/sequences_IDs/A/01_wolf.jpg,html/resources/sequences_IDs/B/03_giraffe.jpg,1,3,1,1,1,1,1,3,0,34,,,,,,,,,,,,,,,,,,,,
,,,,,34,2020-07-03_20h19.41.131,retriever_ti,2020.1.3,Win32,60,Chrome,1366,768,,,,,,,,,,,,,,,,,1,,,,,,,,,,,,,,,,,,,,,,,,,,,572.054455,19,left,1.26779,giraffe     ,4,3,1,1,1,572.071675,572.071675,574.55854,0,18,18,18,1,19,4,3,giraffe     ,seaturtle     ,html/resources/sequences_IDs/B/03_giraffe.jpg,html/resources/sequences_IDs/A/02_seaturtle.jpg,3,2,1,1,2,1,3,2,0,34,,,,,,,,,,,,,,,,,,,,
,,,,,34,2020-07-03_20h19.41.131,retriever_ti,2020.1.3,Win32,60,Chrome,1366,768,,,,,,,,,,,,,,,,,1,,,,,,,,,,,,,,,,,,,,,,,,,,,575.66296,20,left,1.340915,calculator    ,5,9,-1,0,1,575.69748,575.69748,578.186305,0,19,19,19,1,20,5,6,calculator    ,parrot      ,html/resources/sequences_IDs/A/09_calculator.jpg,html/resources/sequences_IDs/B/05_parrot.jpg,9,5,4,2,2,1,8,4,1,34,,,,,,,,,,,,,,,,,,,,
,,,,,34,2020-07-03_20h19.41.131,retriever_ti,2020.1.3,Win32,60,Chrome,1366,768,,,,,,,,,,,,,,,,,1,,,,,,,,,,,,,,,,,,,,,,,,,,,579.28815,21,left,1.550755,dress         ,1,7,-2,0,3,579.324025,579.324025,581.812415,0,20,20,20,1,21,1,3,dress         ,seaturtle     ,html/resources/sequences_IDs/A/07_dress.jpg,html/resources/sequences_IDs/A/02_seaturtle.jpg,7,2,3,2,2,1,6,2,0,34,,,,,,,,,,,,,,,,,,,,
,,,,,34,2020-07-03_20h19.41.131,retriever_ti,2020.1.3,Win32,60,Chrome,1366,768,,,,,,,,,,,,,,,,,1,,,,,,,,,,,,,,,,,,,,,,,,,,,582.41421,22,left,1.29961,slipper     ,2,8,-2,0,3,582.44895,582.44895,584.936485,0,21,21,21,1,22,2,4,slipper     ,giraffe     ,html/resources/sequences_IDs/B/08_slipper.jpg,html/resources/sequences_IDs/B/03_giraffe.jpg,8,3,3,2,1,1,7,3,0,34,,,,,,,,,,,,,,,,,,,,
,,,,,34,2020-07-03_20h19.41.131,retriever_ti,2020.1.3,Win32,60,Chrome,1366,768,,,,,,,,,,,,,,,,,1,,,,,,,,,,,,,,,,,,,,,,,,,,,585.54127,23,left,1.122865,parrot      ,6,5,4,1,3,585.573285,585.573285,588.0617,0,22,22,22,1,23,6,2,parrot      ,slipper     ,html/resources/sequences_IDs/B/05_parrot.jpg,html/resources/sequences_IDs/B/08_slipper.jpg,5,8,2,1,3,2,4,7,0,34,,,,,,,,,,,,,,,,,,,,
,,,,,34,2020-07-03_20h19.41.131,retriever_ti,2020.1.3,Win32,60,Chrome,1366,768,,,,,,,,,,,,,,,,,1,,,,,,,,,,,,,,,,,,,,,,,,,,,588.66312,24,left,0.99435,gloves      ,8,6,4,1,3,588.69847,588.69847,591.18554,0,23,23,23,1,24,8,4,gloves      ,giraffe     ,html/resources/sequences_IDs/B/06_gloves.jpg,html/resources/sequences_IDs/B/03_giraffe.jpg,6,3,3,2,1,1,5,3,0,34,,,,,,,,,,,,,,,,,,,,
,,,,,34,2020-07-03_20h19.41.131,retriever_ti,2020.1.3,Win32,60,Chrome,1366,768,,,,,,,,,,,,,,,,,1,,,,,,,,,,,,,,,,,,,,,,,,,,,591.788585,25,left,1.114685,gloves      ,8,6,1,1,1,591.80656,591.80656,594.295005,0,24,24,24,1,25,8,7,gloves      ,wolf          ,html/resources/sequences_IDs/B/06_gloves.jpg,html/resources/sequences_IDs/A/01_wolf.jpg,6,1,3,2,1,1,5,1,0,34,,,,,,,,,,,,,,,,,,,,
,,,,,34,2020-07-03_20h19.41.131,retriever_ti,2020.1.3,Win32,60,Chrome,1366,768,,,,,,,,,,,,,,,,,1,,,,,,,,,,,,,,,,,,,,,,,,,,,595.39949,26,right,1.46018,calculator    ,5,9,2,1,3,595.41715,595.41715,597.903705,0,25,25,25,1,26,3,5,seaturtle     ,calculator    ,html/resources/sequences_IDs/A/02_seaturtle.jpg,html/resources/sequences_IDs/A/09_calculator.jpg,2,9,2,1,4,2,2,8,0,34,,,,,,,,,,,,,,,,,,,,
,,,,,34,2020-07-03_20h19.41.131,retriever_ti,2020.1.3,Win32,60,Chrome,1366,768,,,,,,,,,,,,,,,,,1,,,,,,,,,,,,,,,,,,,,,,,,,,,598.5072,27,right,1.28268,calculator    ,5,9,-1,0,0,598.524425,598.524425,601.012105,0,26,26,26,1,27,6,5,parrot      ,calculator    ,html/resources/sequences_IDs/B/05_parrot.jpg,html/resources/sequences_IDs/A/09_calculator.jpg,5,9,2,1,4,2,4,8,0,34,,,,,,,,,,,,,,,,,,,,
,,,,,34,2020-07-03_20h19.41.131,retriever_ti,2020.1.3,Win32,60,Chrome,1366,768,,,,,,,,,,,,,,,,,1,,,,,,,,,,,,,,,,,,,,,,,,,,,602.115595,28,left,1.38899,giraffe     ,4,3,2,1,3,602.152355,602.152355,604.638605,0,27,27,27,1,28,4,2,giraffe     ,slipper     ,html/resources/sequences_IDs/B/03_giraffe.jpg,html/resources/sequences_IDs/B/08_slipper.jpg,3,8,1,1,3,2,3,7,0,34,,,,,,,,,,,,,,,,,,,,
,,,,,34,2020-07-03_20h19.41.131,retriever_ti,2020.1.3,Win32,60,Chrome,1366,768,,,,,,,,,,,,,,,,,1,,,,,,,,,,,,,,,,,,,,,,,,,,,605.242965,29,left,1.049635,calculator    ,5,9,4,1,3,605.25994,605.25994,607.746425,0,28,28,28,1,29,5,1,calculator    ,dress         ,html/resources/sequences_IDs/A/09_calculator.jpg,html/resources/sequences_IDs/A/07_dress.jpg,9,7,4,2,3,2,8,6,0,34,,,,,,,,,,,,,,,,,,,,
,,,,,34,2020-07-03_20h19.41.131,retriever_ti,2020.1.3,Win32,60,Chrome,1366,768,,,,,,,,,,,,,,,,,1,,,,,,,,,,,,,,,,,,,,,,,,,,,608.349015,30,right,1.39219,slipper     ,2,8,1,1,1,608.385205,608.385205,610.87147,0,29,29,29,1,30,1,2,dress         ,slipper     ,html/resources/sequences_IDs/A/07_dress.jpg,html/resources/sequences_IDs/B/08_slipper.jpg,7,8,3,2,3,2,6,7,0,34,,,,,,,,,,,,,,,,,,,,
,,,,,34,2020-07-03_20h19.41.131,retriever_ti,2020.1.3,Win32,60,Chrome,1366,768,,,,,,,,,,,,,,,,,1,,,,,,,,,,,,,,,,,,,,,,,,,,,611.977325,31,right,1.536305,calculator    ,5,9,-3,0,3,611.99499,611.99499,614.481935,0,30,30,30,1,31,8,5,gloves      ,calculator    ,html/resources/sequences_IDs/B/06_gloves.jpg,html/resources/sequences_IDs/A/09_calculator.jpg,6,9,3,2,4,2,5,8,0,34,,,,,,,,,,,,,,,,,,,,
,,,,,34,2020-07-03_20h19.41.131,retriever_ti,2020.1.3,Win32,60,Chrome,1366,768,,,,,,,,,,,,,,,,,1,,,,,,,,,,,,,,,,,,,,,,,,,,,615.08424,32,left,1.052645,slipper     ,2,8,-5,0,3,615.1188,615.1188,617.60773,0,31,31,31,1,32,2,7,slipper     ,wolf          ,html/resources/sequences_IDs/B/08_slipper.jpg,html/resources/sequences_IDs/A/01_wolf.jpg,8,1,3,2,1,1,7,1,0,34,,,,,,,,,,,,,,,,,,,,
,,,,,34,2020-07-03_20h19.41.131,retriever_ti,2020.1.3,Win32,60,Chrome,1366,768,,,,,,,,,,,,,,,,,1,,,,,,,,,,,,,,,,,,,,,,,,,,,618.22654,33,left,1.06113,calculator    ,5,9,3,1,3,618.24439,618.24439,620.731535,0,32,32,32,1,33,5,2,calculator    ,slipper     ,html/resources/sequences_IDs/A/09_calculator.jpg,html/resources/sequences_IDs/B/08_slipper.jpg,9,8,4,2,3,2,8,7,0,34,,,,,,,,,,,,,,,,,,,,
,,,,,34,2020-07-03_20h19.41.131,retriever_ti,2020.1.3,Win32,60,Chrome,1366,768,,,,,,,,,,,,,,,,,1,,,,,,,,,,,,,,,,,,,,,,,,,,,621.334465,34,right,0.676505,parrot      ,6,5,5,1,3,621.35176,621.35176,623.839285,0,33,33,33,1,34,1,6,dress         ,parrot      ,html/resources/sequences_IDs/A/07_dress.jpg,html/resources/sequences_IDs/B/05_parrot.jpg,7,5,3,2,2,1,6,4,0,34,,,,,,,,,,,,,,,,,,,,
,,,,,34,2020-07-03_20h19.41.131,retriever_ti,2020.1.3,Win32,60,Chrome,1366,768,,,,,,,,,,,,,,,,,1,,,,,,,,,,,,,,,,,,,,,,,,,,,624.443535,35,left,1.98871,calculator    ,5,9,-2,0,3,624.47869,624.47869,626.965135,0,34,34,34,1,35,5,7,calculator    ,wolf          ,html/resources/sequences_IDs/A/09_calculator.jpg,html/resources/sequences_IDs/A/01_wolf.jpg,9,1,4,2,1,1,8,1,0,34,,,,,,,,,,,,,,,,,,,,
,,,,,34,2020-07-03_20h19.41.131,retriever_ti,2020.1.3,Win32,60,Chrome,1366,768,,,,,,,,,,,,,,,,,1,,,,,,,,,,,,,,,,,,,,,,,,,,,627.568175,36,left,1.51033,parrot      ,6,5,-2,0,3,627.58567,627.58567,630.07271,0,35,35,35,1,36,6,8,parrot      ,gloves      ,html/resources/sequences_IDs/B/05_parrot.jpg,html/resources/sequences_IDs/B/06_gloves.jpg,5,6,2,1,3,2,4,5,0,34,,,,,,,,,,,,,,,,,,,,
,,,,,34,2020-07-03_20h19.41.131,retriever_ti,2020.1.3,Win32,60,Chrome,1366,768,,,,,,,,,,,,,,,,,1,,,,,,,,,,,,,,,,,,,,,,,,,,,630.676665,37,right,1.0478,gloves      ,8,6,6,1,3,630.69295,630.69295,633.182015,0,36,36,36,1,37,2,8,slipper     ,gloves      ,html/resources/sequences_IDs/B/08_slipper.jpg,html/resources/sequences_IDs/B/06_gloves.jpg,8,6,3,2,3,2,7,5,0,34,,,,,,,,,,,,,,,,,,,,
,,,,,34,2020-07-03_20h19.41.131,retriever_ti,2020.1.3,Win32,60,Chrome,1366,768,,,,,,,,,,,,,,,,,1,,,,,,,,,,,,,,,,,,,,,,,,,,,633.78312,38,right,0.97929,gloves      ,8,6,4,1,3,633.80135,633.80135,636.28933,0,37,37,37,1,38,4,8,giraffe     ,gloves      ,html/resources/sequences_IDs/B/03_giraffe.jpg,html/resources/sequences_IDs/B/06_gloves.jpg,3,6,1,1,3,2,3,5,0,34,,,,,,,,,,,,,,,,,,,,
,,,,,34,2020-07-03_20h19.41.131,retriever_ti,2020.1.3,Win32,60,Chrome,1366,768,,,,,,,,,,,,,,,,,1,,,,,,,,,,,,,,,,,,,,,,,,,,,636.892455,39,left,1.06926,slipper     ,2,8,1,1,1,636.910065,636.910065,639.397395,0,38,38,38,1,39,2,1,slipper     ,dress         ,html/resources/sequences_IDs/B/08_slipper.jpg,html/resources/sequences_IDs/A/07_dress.jpg,8,7,3,2,3,2,7,6,0,34,,,,,,,,,,,,,,,,,,,,
,,,,,34,2020-07-03_20h19.41.131,retriever_ti,2020.1.3,Win32,60,Chrome,1366,768,,,,,,,,,,,,,,,,,1,,,,,,,,,,,,,,,,,,,,,,,,,,,640.501165,40,left,1.09919,gloves      ,8,6,1,1,0,640.53674,640.53674,643.024625,0,39,39,39,1,40,8,7,gloves      ,wolf          ,html/resources/sequences_IDs/B/06_gloves.jpg,html/resources/sequences_IDs/A/01_wolf.jpg,6,1,3,2,1,1,5,1,1,34,,,,,,,,,,,,,,,,,,,,
,,,,,34,2020-07-03_20h19.41.131,retriever_ti,2020.1.3,Win32,60,Chrome,1366,768,,,,,,,,,,,,,,,,,1,,,,,,,,,,,,,,,,,,,,,,,,,,,644.12841,41,right,1.109165,calculator    ,5,9,4,1,3,644.14595,644.14595,646.71657,0,40,40,40,1,41,1,5,dress         ,calculator    ,html/resources/sequences_IDs/A/07_dress.jpg,html/resources/sequences_IDs/A/09_calculator.jpg,7,9,3,2,4,2,6,8,0,34,,,,,,,,,,,,,,,,,,,,
,,,,,34,2020-07-03_20h19.41.131,retriever_ti,2020.1.3,Win32,60,Chrome,1366,768,,,,,,,,,,,,,,,,,1,,,,,,,,,,,,,,,,,,,,,,,,,,,647.31935,42,left,0.974125,seaturtle     ,3,2,-5,0,3,647.354275,647.354275,649.84305,0,41,41,41,1,42,3,8,seaturtle     ,gloves      ,html/resources/sequences_IDs/A/02_seaturtle.jpg,html/resources/sequences_IDs/B/06_gloves.jpg,2,6,2,1,3,2,2,5,0,34,,,,,,,,,,,,,,,,,,,,
,,,,,34,2020-07-03_20h19.41.131,retriever_ti,2020.1.3,Win32,60,Chrome,1366,768,,,,,,,,,,,,,,,,,1,,,,,,,,,,,,,,,,,,,,,,,,,,,650.445745,43,left,0.977735,wolf          ,7,1,-1,0,0,650.47923,650.47923,652.96638,0,42,42,42,1,43,7,8,wolf          ,gloves      ,html/resources/sequences_IDs/A/01_wolf.jpg,html/resources/sequences_IDs/B/06_gloves.jpg,1,6,1,1,3,2,1,5,0,34,,,,,,,,,,,,,,,,,,,,
,,,,,34,2020-07-03_20h19.41.131,retriever_ti,2020.1.3,Win32,60,Chrome,1366,768,,,,,,,,,,,,,,,,,1,,,,,,,,,,,,,,,,,,,,,,,,,,,654.071565,44,right,1.234955,seaturtle     ,3,2,-1,0,1,654.08938,654.08938,656.57699,0,43,43,43,1,44,4,3,giraffe     ,seaturtle     ,html/resources/sequences_IDs/B/03_giraffe.jpg,html/resources/sequences_IDs/A/02_seaturtle.jpg,3,2,1,1,2,1,3,2,1,34,,,,,,,,,,,,,,,,,,,,
,,,,,34,2020-07-03_20h19.41.131,retriever_ti,2020.1.3,Win32,60,Chrome,1366,768,,,,,,,,,,,,,,,,,1,,,,,,,,,,,,,,,,,,,,,,,,,,,657.681505,45,right,0.850005,parrot      ,6,5,4,1,3,657.716275,657.716275,660.20323,0,44,44,44,1,45,2,6,slipper     ,parrot      ,html/resources/sequences_IDs/B/08_slipper.jpg,html/resources/sequences_IDs/B/05_parrot.jpg,8,5,3,2,2,1,7,4,0,34,,,,,,,,,,,,,,,,,,,,
,,,,,34,2020-07-03_20h19.41.131,retriever_ti,2020.1.3,Win32,60,Chrome,1366,768,,,,,,,,,,,,,,,,,1,,,,,,,,,,,,,,,,,,,,,,,,,,,660.80564,46,right,0.787905,parrot      ,6,5,-1,0,0,660.823415,660.823415,663.310985,0,45,45,45,1,46,7,6,wolf          ,parrot      ,html/resources/sequences_IDs/A/01_wolf.jpg,html/resources/sequences_IDs/B/05_parrot.jpg,1,5,1,1,2,1,1,4,0,34,,,,,,,,,,,,,,,,,,,,
,,,,,34,2020-07-03_20h19.41.131,retriever_ti,2020.1.3,Win32,60,Chrome,1366,768,,,,,,,,,,,,,,,,,1,,,,,,,,,,,,,,,,,,,,,,,,,,,664.41564,47,left,0.86975,parrot      ,6,5,1,1,1,664.45065,664.45065,666.93756,0,46,46,46,1,47,6,5,parrot      ,calculator    ,html/resources/sequences_IDs/B/05_parrot.jpg,html/resources/sequences_IDs/A/09_calculator.jpg,5,9,2,1,4,2,4,8,0,34,,,,,,,,,,,,,,,,,,,,
,,,,,34,2020-07-03_20h19.41.131,retriever_ti,2020.1.3,Win32,60,Chrome,1366,768,,,,,,,,,,,,,,,,,1,,,,,,,,,,,,,,,,,,,,,,,,,,,668.04121,48,left,1.04311,wolf          ,7,1,4,1,3,668.059865,668.059865,670.546935,0,47,47,47,1,48,7,3,wolf          ,seaturtle     ,html/resources/sequences_IDs/A/01_wolf.jpg,html/resources/sequences_IDs/A/02_seaturtle.jpg,1,2,1,1,2,1,1,2,0,34,,,,,,,,,,,,,,,,,,,,
,,,,,34,2020-07-03_20h19.41.131,retriever_ti,2020.1.3,Win32,60,Chrome,1366,768,,,,,,,,,,,,,,,,,1,,,,,,,,,,,,,,,,,,,,,,,,,,,671.150465,49,right,0.93026,giraffe     ,4,3,-1,0,0,671.16797,671.16797,673.655405,0,48,48,48,1,49,5,4,calculator    ,giraffe     ,html/resources/sequences_IDs/A/09_calculator.jpg,html/resources/sequences_IDs/B/03_giraffe.jpg,9,3,4,2,1,1,8,3,0,34,,,,,,,,,,,,,,,,,,,,
,,,,,34,2020-07-03_20h19.41.131,retriever_ti,2020.1.3,Win32,60,Chrome,1366,768,,,,,,,,,,,,,,,,,1,,,,,,,,,,,,,,,,,,,,,,,,,,,674.758865,50,left,0.681745,slipper     ,2,8,-1,0,0,674.79506,674.79506,677.281635,0,49,49,49,1,50,2,3,slipper     ,seaturtle     ,html/resources/sequences_IDs/B/08_slipper.jpg,html/resources/sequences_IDs/A/02_seaturtle.jpg,8,2,3,2,2,1,7,2,0,34,,,,,,,,,,,,,,,,,,,,
,,,,,34,2020-07-03_20h19.41.131,retriever_ti,2020.1.3,Win32,60,Chrome,1366,768,,,,,,,,,,,,,,,,,1,,,,,,,,,,,,,,,,,,,,,,,,,,,678.386265,51,right,0.31108,dress         ,1,7,-5,0,3,678.404945,678.404945,680.891295,0,50,50,50,1,51,6,1,parrot      ,dress         ,html/resources/sequences_IDs/B/05_parrot.jpg,html/resources/sequences_IDs/A/07_dress.jpg,5,7,2,1,3,2,4,6,0,34,,,,,,,,,,,,,,,,,,,,
,,,,,34,2020-07-03_20h19.41.131,retriever_ti,2020.1.3,Win32,60,Chrome,1366,768,,,,,,,,,,,,,,,,,1,,,,,,,,,,,,,,,,,,,,,,,,,,,681.493085,52,right,1.241935,seaturtle     ,3,2,1,1,1,681.512055,681.512055,683.999265,0,51,51,51,1,52,2,3,slipper     ,seaturtle     ,html/resources/sequences_IDs/B/08_slipper.jpg,html/resources/sequences_IDs/A/02_seaturtle.jpg,8,2,3,2,2,1,7,2,0,34,,,,,,,,,,,,,,,,,,,,
,,,,,34,2020-07-03_20h19.41.131,retriever_ti,2020.1.3,Win32,60,Chrome,1366,768,,,,,,,,,,,,,,,,,1,,,,,,,,,,,,,,,,,,,,,,,,,,,685.104305,53,left,1.13229,wolf          ,7,1,1,1,1,685.13752,685.13752,687.62538,0,52,52,52,1,53,7,6,wolf          ,parrot      ,html/resources/sequences_IDs/A/01_wolf.jpg,html/resources/sequences_IDs/B/05_parrot.jpg,1,5,1,1,2,1,1,4,0,34,,,,,,,,,,,,,,,,,,,,
,,,,,34,2020-07-03_20h19.41.131,retriever_ti,2020.1.3,Win32,60,Chrome,1366,768,,,,,,,,,,,,,,,,,1,,,,,,,,,,,,,,,,,,,,,,,,,,,688.73053,54,left,0.911045,giraffe     ,4,3,-2,0,3,688.7478,688.7478,691.234795,0,53,53,53,1,54,4,6,giraffe     ,parrot      ,html/resources/sequences_IDs/B/03_giraffe.jpg,html/resources/sequences_IDs/B/05_parrot.jpg,3,5,1,1,2,1,3,4,0,34,,,,,,,,,,,,,,,,,,,,
,,,,,34,2020-07-03_20h19.41.131,retriever_ti,2020.1.3,Win32,60,Chrome,1366,768,,,,,,,,,,,,,,,,,1,,,,,,,,,,,,,,,,,,,,,,,,,,,691.838985,55,left,1.278495,giraffe     ,4,3,-1,0,0,691.856345,691.856345,694.34323,0,54,54,54,1,55,4,5,giraffe     ,calculator    ,html/resources/sequences_IDs/B/03_giraffe.jpg,html/resources/sequences_IDs/A/09_calculator.jpg,3,9,1,1,4,2,3,8,0,34,,,,,,,,,,,,,,,,,,,,
,,,,,34,2020-07-03_20h19.41.131,retriever_ti,2020.1.3,Win32,60,Chrome,1366,768,,,,,,,,,,,,,,,,,1,,,,,,,,,,,,,,,,,,,,,,,,,,,695.448765,56,right,0.87143,gloves      ,8,6,1,1,1,695.466055,695.466055,697.952355,0,55,55,55,1,56,7,8,wolf          ,gloves      ,html/resources/sequences_IDs/A/01_wolf.jpg,html/resources/sequences_IDs/B/06_gloves.jpg,1,6,1,1,3,2,1,5,0,34,,,,,,,,,,,,,,,,,,,,
,,,,,34,2020-07-03_20h19.41.131,retriever_ti,2020.1.3,Win32,60,Chrome,1366,768,,,,,,,,,,,,,,,,,1,,,,,,,,,,,,,,,,,,,,,,,,,,,699.057915,57,left,1.13308,giraffe     ,4,3,1,1,1,699.093285,699.093285,701.579725,0,56,56,56,1,57,4,3,giraffe     ,seaturtle     ,html/resources/sequences_IDs/B/03_giraffe.jpg,html/resources/sequences_IDs/A/02_seaturtle.jpg,3,2,1,1,2,1,3,2,0,34,,,,,,,,,,,,,,,,,,,,
,,,,,34,2020-07-03_20h19.41.131,retriever_ti,2020.1.3,Win32,60,Chrome,1366,768,,,,,,,,,,,,,,,,,1,,,,,,,,,,,,,,,,,,,,,,,,,,,702.68294,58,right,1.011945,calculator    ,5,9,3,1,3,702.71782,702.71782,705.205485,0,57,57,57,1,58,2,5,slipper     ,calculator    ,html/resources/sequences_IDs/B/08_slipper.jpg,html/resources/sequences_IDs/A/09_calculator.jpg,8,9,3,2,4,2,7,8,0,34,,,,,,,,,,,,,,,,,,,,
,,,,,34,2020-07-03_20h19.41.131,retriever_ti,2020.1.3,Win32,60,Chrome,1366,768,,,,,,,,,,,,,,,,,1,,,,,,,,,,,,,,,,,,,,,,,,,,,705.80958,59,right,0.993935,gloves      ,8,6,7,1,3,705.827575,705.827575,708.31379,0,58,58,58,1,59,1,8,dress         ,gloves      ,html/resources/sequences_IDs/A/07_dress.jpg,html/resources/sequences_IDs/B/06_gloves.jpg,7,6,3,2,3,2,6,5,0,34,,,,,,,,,,,,,,,,,,,,
,,,,,34,2020-07-03_20h19.41.131,retriever_ti,2020.1.3,Win32,60,Chrome,1366,768,,,,,,,,,,,,,,,,,1,,,,,,,,,,,,,,,,,,,,,,,,,,,708.91637,60,right,1.26442,parrot      ,6,5,3,1,3,708.950715,708.950715,711.438315,0,59,59,59,1,60,3,6,seaturtle     ,parrot      ,html/resources/sequences_IDs/A/02_seaturtle.jpg,html/resources/sequences_IDs/B/05_parrot.jpg,2,5,2,1,2,1,2,4,0,34,,,,,,,,,,,,,,,,,,,,
,,,,,34,2020-07-03_20h19.41.131,retriever_ti,2020.1.3,Win32,60,Chrome,1366,768,,,,,,,,,,,,,,,,,1,,,,,,,,,,,,,,,,,,,,,,,,,,,712.042575,61,left,1.196075,slipper     ,2,8,-1,0,1,712.05907,712.05907,714.546505,0,60,60,60,1,61,2,3,slipper     ,seaturtle     ,html/resources/sequences_IDs/B/08_slipper.jpg,html/resources/sequences_IDs/A/02_seaturtle.jpg,8,2,3,2,2,1,7,2,1,34,,,,,,,,,,,,,,,,,,,,
,,,,,34,2020-07-03_20h19.41.131,retriever_ti,2020.1.3,Win32,60,Chrome,1366,768,,,,,,,,,,,,,,,,,1,,,,,,,,,,,,,,,,,,,,,,,,,,,715.650715,62,left,1.16099,dress         ,1,7,-6,0,3,715.668795,715.668795,718.156245,0,61,61,61,1,62,1,7,dress         ,wolf          ,html/resources/sequences_IDs/A/07_dress.jpg,html/resources/sequences_IDs/A/01_wolf.jpg,7,1,3,2,1,1,6,1,0,34,,,,,,,,,,,,,,,,,,,,
,,,,,34,2020-07-03_20h19.41.131,retriever_ti,2020.1.3,Win32,60,Chrome,1366,768,,,,,,,,,,,,,,,,,1,,,,,,,,,,,,,,,,,,,,,,,,,,,718.76164,63,left,1.31195,calculator    ,5,9,2,1,3,718.795095,718.795095,721.281665,0,62,62,62,1,63,5,3,calculator    ,seaturtle     ,html/resources/sequences_IDs/A/09_calculator.jpg,html/resources/sequences_IDs/A/02_seaturtle.jpg,9,2,4,2,2,1,8,2,0,34,,,,,,,,,,,,,,,,,,,,
,,,,,34,2020-07-03_20h19.41.131,retriever_ti,2020.1.3,Win32,60,Chrome,1366,768,,,,,,,,,,,,,,,,,1,,,,,,,,,,,,,,,,,,,,,,,,,,,721.884325,64,left,2.27749,seaturtle     ,3,2,-1,0,0,721.91878,721.91878,724.406015,0,63,63,63,1,64,3,4,seaturtle     ,giraffe     ,html/resources/sequences_IDs/A/02_seaturtle.jpg,html/resources/sequences_IDs/B/03_giraffe.jpg,2,3,2,1,1,1,2,3,0,34,,,,,,,,,,,,,,,,,,,,
,,,,,34,2020-07-03_20h19.41.131,retriever_ti,2020.1.3,Win32,60,Chrome,1366,768,,,,,,,,,,,,,,,,,1,,,,,,,,,,,,,,,,,,,,,,,,,,,725.51086,65,right,0.663705,calculator    ,5,9,-2,0,3,725.528765,725.528765,728.015635,0,64,64,64,1,65,7,5,wolf          ,calculator    ,html/resources/sequences_IDs/A/01_wolf.jpg,html/resources/sequences_IDs/A/09_calculator.jpg,1,9,1,1,4,2,1,8,0,34,,,,,,,,,,,,,,,,,,,,
,,,,,34,2020-07-03_20h19.41.131,retriever_ti,2020.1.3,Win32,60,Chrome,1366,768,,,,,,,,,,,,,,,,,1,,,,,,,,,,,,,,,,,,,,,,,,,,,728.618135,66,left,0.939495,parrot      ,6,5,3,1,3,728.63756,728.63756,731.12453,0,65,65,65,1,66,6,3,parrot      ,seaturtle     ,html/resources/sequences_IDs/B/05_parrot.jpg,html/resources/sequences_IDs/A/02_seaturtle.jpg,5,2,2,1,2,1,4,2,0,34,,,,,,,,,,,,,,,,,,,,
,,,,,34,2020-07-03_20h19.41.131,retriever_ti,2020.1.3,Win32,60,Chrome,1366,768,,,,,,,,,,,,,,,,,1,,,,,,,,,,,,,,,,,,,,,,,,,,,731.72772,67,right,0.590525,dress         ,1,7,-2,0,3,731.76297,731.76297,734.25035,0,66,66,66,1,67,3,1,seaturtle     ,dress         ,html/resources/sequences_IDs/A/02_seaturtle.jpg,html/resources/sequences_IDs/A/07_dress.jpg,2,7,2,1,3,2,2,6,0,34,,,,,,,,,,,,,,,,,,,,
,,,,,34,2020-07-03_20h19.41.131,retriever_ti,2020.1.3,Win32,60,Chrome,1366,768,,,,,,,,,,,,,,,,,1,,,,,,,,,,,,,,,,,,,,,,,,,,,734.85195,68,left,0.982035,seaturtle     ,3,2,-1,0,0,734.886785,734.886785,737.374485,0,67,67,67,1,68,3,4,seaturtle     ,giraffe     ,html/resources/sequences_IDs/A/02_seaturtle.jpg,html/resources/sequences_IDs/B/03_giraffe.jpg,2,3,2,1,1,1,2,3,0,34,,,,,,,,,,,,,,,,,,,,
,,,,,34,2020-07-03_20h19.41.131,retriever_ti,2020.1.3,Win32,60,Chrome,1366,768,,,,,,,,,,,,,,,,,1,,,,,,,,,,,,,,,,,,,,,,,,,,,738.479285,69,right,0.96025,slipper     ,2,8,-1,0,0,738.49563,738.49563,740.98336,0,68,68,68,1,69,3,2,seaturtle     ,slipper     ,html/resources/sequences_IDs/A/02_seaturtle.jpg,html/resources/sequences_IDs/B/08_slipper.jpg,2,8,2,1,3,2,2,7,0,34,,,,,,,,,,,,,,,,,,,,
,,,,,34,2020-07-03_20h19.41.131,retriever_ti,2020.1.3,Win32,60,Chrome,1366,768,,,,,,,,,,,,,,,,,1,,,,,,,,,,,,,,,,,,,,,,,,,,,742.08718,70,left,1.22828,giraffe     ,4,3,3,1,3,742.12188,742.12188,744.609705,0,69,69,69,1,70,4,1,giraffe     ,dress         ,html/resources/sequences_IDs/B/03_giraffe.jpg,html/resources/sequences_IDs/A/07_dress.jpg,3,7,1,1,3,2,3,6,0,34,,,,,,,,,,,,,,,,,,,,
,,,,,34,2020-07-03_20h19.41.131,retriever_ti,2020.1.3,Win32,60,Chrome,1366,768,,,,,,,,,,,,,,,,,1,,,,,,,,,,,,,,,,,,,,,,,,,,,745.21307,71,left,1.607485,slipper     ,2,8,1,1,0,745.247515,745.247515,747.735445,0,70,70,70,1,71,2,1,slipper     ,dress         ,html/resources/sequences_IDs/B/08_slipper.jpg,html/resources/sequences_IDs/A/07_dress.jpg,8,7,3,2,3,2,7,6,1,34,,,,,,,,,,,,,,,,,,,,
,,,,,34,2020-07-03_20h19.41.131,retriever_ti,2020.1.3,Win32,60,Chrome,1366,768,,,,,,,,,,,,,,,,,1,,,,,,,,,,,,,,,,,,,,,,,,,,,748.8387,72,right,0.931505,dress         ,1,7,-6,0,3,748.85742,748.85742,751.34401,0,71,71,71,1,72,7,1,wolf          ,dress         ,html/resources/sequences_IDs/A/01_wolf.jpg,html/resources/sequences_IDs/A/07_dress.jpg,1,7,1,1,3,2,1,6,0,34,,,,,,,,,,,,,,,,,,,,
,,,,,34,2020-07-03_20h19.41.131,retriever_ti,2020.1.3,Win32,60,Chrome,1366,768,,,,,,,,,,,,,,,,,1,,,,,,,,,,,,,,,,,,,,,,,,,,,751.94752,73,left,0.90764,wolf          ,7,1,5,1,3,751.964715,751.964715,754.45295,0,72,72,72,1,73,7,2,wolf          ,slipper     ,html/resources/sequences_IDs/A/01_wolf.jpg,html/resources/sequences_IDs/B/08_slipper.jpg,1,8,1,1,3,2,1,7,0,34,,,,,,,,,,,,,,,,,,,,
,,,,,34,2020-07-03_20h19.41.131,retriever_ti,2020.1.3,Win32,60,Chrome,1366,768,,,,,,,,,,,,,,,,,1,,,,,,,,,,,,,,,,,,,,,,,,,,,755.05533,74,left,0.774335,parrot      ,6,5,2,1,3,755.08955,755.08955,757.57799,0,73,73,73,1,74,6,4,parrot      ,giraffe     ,html/resources/sequences_IDs/B/05_parrot.jpg,html/resources/sequences_IDs/B/03_giraffe.jpg,5,3,2,1,1,1,4,3,0,34,,,,,,,,,,,,,,,,,,,,
,,,,,34,2020-07-03_20h19.41.131,retriever_ti,2020.1.3,Win32,60,Chrome,1366,768,,,,,,,,,,,,,,,,,1,,,,,,,,,,,,,,,,,,,,,,,,,,,758.18254,75,right,1.079065,parrot      ,6,5,1,1,1,758.19911,758.19911,760.686485,0,74,74,74,1,75,5,6,calculator    ,parrot      ,html/resources/sequences_IDs/A/09_calculator.jpg,html/resources/sequences_IDs/B/05_parrot.jpg,9,5,4,2,2,1,8,4,0,34,,,,,,,,,,,,,,,,,,,,
,,,,,34,2020-07-03_20h19.41.131,retriever_ti,2020.1.3,Win32,60,Chrome,1366,768,,,,,,,,,,,,,,,,,1,,,,,,,,,,,,,,,,,,,,,,,,,,,761.789715,76,right,0.844565,wolf          ,7,1,1,1,1,761.80815,761.80815,764.29541,0,75,75,75,1,76,6,7,parrot      ,wolf          ,html/resources/sequences_IDs/B/05_parrot.jpg,html/resources/sequences_IDs/A/01_wolf.jpg,5,1,2,1,1,1,4,1,0,34,,,,,,,,,,,,,,,,,,,,
,,,,,34,2020-07-03_20h19.41.131,retriever_ti,2020.1.3,Win32,60,Chrome,1366,768,,,,,,,,,,,,,,,,,1,,,,,,,,,,,,,,,,,,,,,,,,,,,765.40033,77,right,0.563395,dress         ,1,7,-1,0,0,765.417435,765.417435,767.90499,0,76,76,76,1,77,2,1,slipper     ,dress         ,html/resources/sequences_IDs/B/08_slipper.jpg,html/resources/sequences_IDs/A/07_dress.jpg,8,7,3,2,3,2,7,6,0,34,,,,,,,,,,,,,,,,,,,,
,,,,,34,2020-07-03_20h19.41.131,retriever_ti,2020.1.3,Win32,60,Chrome,1366,768,,,,,,,,,,,,,,,,,,,,,,,,,,,,,,,,,,,,,1,2.712995,,,,,,,,,,,,,,,,,,,,,,,,,,,,,,,,,,,,,,,,,0,0,0,0,1,,,,,,,,,,,,,,,
,,,,,34,2020-07-03_20h19.41.131,retriever_ti,2020.1.3,Win32,60,Chrome,1366,768,,,,,,,,,,,,,,,,,2,,,,,,,,,,,,,,,,,,,,,,,,,,,861.061435,78,right,1.184015,calculator    ,5,9,2,1,3,861.08527,861.08527,863.57549,0,0,0,0,1,78,3,5,seaturtle     ,calculator    ,html/resources/sequences_IDs/A/02_seaturtle.jpg,html/resources/sequences_IDs/A/09_calculator.jpg,2,9,2,1,4,2,2,8,0,34,,,,,,,,,,,,,,,,,,,,
,,,,,34,2020-07-03_20h19.41.131,retriever_ti,2020.1.3,Win32,60,Chrome,1366,768,,,,,,,,,,,,,,,,,2,,,,,,,,,,,,,,,,,,,,,,,,,,,864.17812,79,right,1.479775,giraffe     ,4,3,1,1,1,864.20012,864.20012,866.684005,0,1,1,1,1,79,3,4,seaturtle     ,giraffe     ,html/resources/sequences_IDs/A/02_seaturtle.jpg,html/resources/sequences_IDs/B/03_giraffe.jpg,2,3,2,1,1,1,2,3,0,34,,,,,,,,,,,,,,,,,,,,
,,,,,34,2020-07-03_20h19.41.131,retriever_ti,2020.1.3,Win32,60,Chrome,1366,768,,,,,,,,,,,,,,,,,2,,,,,,,,,,,,,,,,,,,,,,,,,,,867.788695,80,left,1.139055,calculator    ,5,9,3,1,3,867.80582,867.80582,870.293525,0,2,2,2,1,80,5,2,calculator    ,slipper     ,html/resources/sequences_IDs/A/09_calculator.jpg,html/resources/sequences_IDs/B/08_slipper.jpg,9,8,4,2,3,2,8,7,0,34,,,,,,,,,,,,,,,,,,,,
,,,,,34,2020-07-03_20h19.41.131,retriever_ti,2020.1.3,Win32,60,Chrome,1366,768,,,,,,,,,,,,,,,,,2,,,,,,,,,,,,,,,,,,,,,,,,,,,870.8953,81,right,1.028235,dress         ,1,7,-1,0,0,870.913845,870.913845,873.401665,0,3,3,3,1,81,2,1,slipper     ,dress         ,html/resources/sequences_IDs/B/08_slipper.jpg,html/resources/sequences_IDs/A/07_dress.jpg,8,7,3,2,3,2,7,6,0,34,,,,,,,,,,,,,,,,,,,,
,,,,,34,2020-07-03_20h19.41.131,retriever_ti,2020.1.3,Win32,60,Chrome,1366,768,,,,,,,,,,,,,,,,,2,,,,,,,,,,,,,,,,,,,,,,,,,,,874.50655,82,left,0.773185,parrot      ,6,5,-1,0,1,874.53954,874.53954,877.027525,0,4,4,4,1,82,6,7,parrot      ,wolf          ,html/resources/sequences_IDs/B/05_parrot.jpg,html/resources/sequences_IDs/A/01_wolf.jpg,5,1,2,1,1,1,4,1,1,34,,,,,,,,,,,,,,,,,,,,
,,,,,34,2020-07-03_20h19.41.131,retriever_ti,2020.1.3,Win32,60,Chrome,1366,768,,,,,,,,,,,,,,,,,2,,,,,,,,,,,,,,,,,,,,,,,,,,,878.131545,83,right,1.284905,wolf          ,7,1,5,1,3,878.16742,878.16742,880.65384,0,5,5,5,1,83,2,7,slipper     ,wolf          ,html/resources/sequences_IDs/B/08_slipper.jpg,html/resources/sequences_IDs/A/01_wolf.jpg,8,1,3,2,1,1,7,1,0,34,,,,,,,,,,,,,,,,,,,,
,,,,,34,2020-07-03_20h19.41.131,retriever_ti,2020.1.3,Win32,60,Chrome,1366,768,,,,,,,,,,,,,,,,,2,,,,,,,,,,,,,,,,,,,,,,,,,,,881.25757,84,left,0.82673,parrot      ,6,5,1,1,1,881.275675,881.275675,883.76207,0,6,6,6,1,84,6,5,parrot      ,calculator    ,html/resources/sequences_IDs/B/05_parrot.jpg,html/resources/sequences_IDs/A/09_calculator.jpg,5,9,2,1,4,2,4,8,0,34,,,,,,,,,,,,,,,,,,,,
,,,,,34,2020-07-03_20h19.41.131,retriever_ti,2020.1.3,Win32,60,Chrome,1366,768,,,,,,,,,,,,,,,,,2,,,,,,,,,,,,,,,,,,,,,,,,,,,884.865835,85,left,2.003275,slipper     ,2,8,-3,0,3,884.884065,884.884065,887.371715,0,7,7,7,1,85,2,5,slipper     ,calculator    ,html/resources/sequences_IDs/B/08_slipper.jpg,html/resources/sequences_IDs/A/09_calculator.jpg,8,9,3,2,4,2,7,8,0,34,,,,,,,,,,,,,,,,,,,,
,,,,,34,2020-07-03_20h19.41.131,retriever_ti,2020.1.3,Win32,60,Chrome,1366,768,,,,,,,,,,,,,,,,,2,,,,,,,,,,,,,,,,,,,,,,,,,,,887.97557,86,left,1.453395,parrot      ,6,5,-2,0,3,887.994035,887.994035,890.480535,0,8,8,8,1,86,6,8,parrot      ,gloves      ,html/resources/sequences_IDs/B/05_parrot.jpg,html/resources/sequences_IDs/B/06_gloves.jpg,5,6,2,1,3,2,4,5,0,34,,,,,,,,,,,,,,,,,,,,
,,,,,34,2020-07-03_20h19.41.131,retriever_ti,2020.1.3,Win32,60,Chrome,1366,768,,,,,,,,,,,,,,,,,2,,,,,,,,,,,,,,,,,,,,,,,,,,,891.083045,87,right,1.150275,seaturtle     ,3,2,-2,0,3,891.11776,891.11776,893.60518,0,9,9,9,1,87,5,3,calculator    ,seaturtle     ,html/resources/sequences_IDs/A/09_calculator.jpg,html/resources/sequences_IDs/A/02_seaturtle.jpg,9,2,4,2,2,1,8,2,0,34,,,,,,,,,,,,,,,,,,,,
,,,,,34,2020-07-03_20h19.41.131,retriever_ti,2020.1.3,Win32,60,Chrome,1366,768,,,,,,,,,,,,,,,,,2,,,,,,,,,,,,,,,,,,,,,,,,,,,894.20956,88,right,1.14577,giraffe     ,4,3,-1,0,0,894.225925,894.225925,896.71347,0,10,10,10,1,88,5,4,calculator    ,giraffe     ,html/resources/sequences_IDs/A/09_calculator.jpg,html/resources/sequences_IDs/B/03_giraffe.jpg,9,3,4,2,1,1,8,3,0,34,,,,,,,,,,,,,,,,,,,,
,,,,,34,2020-07-03_20h19.41.131,retriever_ti,2020.1.3,Win32,60,Chrome,1366,768,,,,,,,,,,,,,,,,,2,,,,,,,,,,,,,,,,,,,,,,,,,,,897.81717,89,right,2.103895,calculator    ,5,9,-3,0,3,897.83473,897.83473,900.322555,0,11,11,11,1,89,8,5,gloves      ,calculator    ,html/resources/sequences_IDs/B/06_gloves.jpg,html/resources/sequences_IDs/A/09_calculator.jpg,6,9,3,2,4,2,5,8,0,34,,,,,,,,,,,,,,,,,,,,
,,,,,34,2020-07-03_20h19.41.131,retriever_ti,2020.1.3,Win32,60,Chrome,1366,768,,,,,,,,,,,,,,,,,2,,,,,,,,,,,,,,,,,,,,,,,,,,,900.926775,90,right,1.033465,giraffe     ,4,3,3,1,3,900.961575,900.961575,903.448225,0,12,12,12,1,90,1,4,dress         ,giraffe     ,html/resources/sequences_IDs/A/07_dress.jpg,html/resources/sequences_IDs/B/03_giraffe.jpg,7,3,3,2,1,1,6,3,0,34,,,,,,,,,,,,,,,,,,,,
,,,,,34,2020-07-03_20h19.41.131,retriever_ti,2020.1.3,Win32,60,Chrome,1366,768,,,,,,,,,,,,,,,,,2,,,,,,,,,,,,,,,,,,,,,,,,,,,904.049855,91,left,1.04079,dress         ,1,7,-7,0,3,904.06875,904.06875,906.556645,0,13,13,13,1,91,1,8,dress         ,gloves      ,html/resources/sequences_IDs/A/07_dress.jpg,html/resources/sequences_IDs/B/06_gloves.jpg,7,6,3,2,3,2,6,5,0,34,,,,,,,,,,,,,,,,,,,,
,,,,,34,2020-07-03_20h19.41.131,retriever_ti,2020.1.3,Win32,60,Chrome,1366,768,,,,,,,,,,,,,,,,,2,,,,,,,,,,,,,,,,,,,,,,,,,,,907.159185,92,left,1.282155,giraffe     ,4,3,-4,0,3,907.19317,907.19317,909.680665,0,14,14,14,1,92,4,8,giraffe     ,gloves      ,html/resources/sequences_IDs/B/03_giraffe.jpg,html/resources/sequences_IDs/B/06_gloves.jpg,3,6,1,1,3,2,3,5,0,34,,,,,,,,,,,,,,,,,,,,
,,,,,34,2020-07-03_20h19.41.131,retriever_ti,2020.1.3,Win32,60,Chrome,1366,768,,,,,,,,,,,,,,,,,2,,,,,,,,,,,,,,,,,,,,,,,,,,,910.28521,93,right,1.519,slipper     ,2,8,-6,0,3,910.31939,910.31939,912.80724,0,15,15,15,1,93,8,2,gloves      ,slipper     ,html/resources/sequences_IDs/B/06_gloves.jpg,html/resources/sequences_IDs/B/08_slipper.jpg,6,8,3,2,3,2,5,7,0,34,,,,,,,,,,,,,,,,,,,,
,,,,,34,2020-07-03_20h19.41.131,retriever_ti,2020.1.3,Win32,60,Chrome,1366,768,,,,,,,,,,,,,,,,,2,,,,,,,,,,,,,,,,,,,,,,,,,,,913.425815,94,right,1.165215,parrot      ,6,5,-1,0,0,913.442985,913.442985,915.93078,0,16,16,16,1,94,7,6,wolf          ,parrot      ,html/resources/sequences_IDs/A/01_wolf.jpg,html/resources/sequences_IDs/B/05_parrot.jpg,1,5,1,1,2,1,1,4,0,34,,,,,,,,,,,,,,,,,,,,
,,,,,34,2020-07-03_20h19.41.131,retriever_ti,2020.1.3,Win32,60,Chrome,1366,768,,,,,,,,,,,,,,,,,2,,,,,,,,,,,,,,,,,,,,,,,,,,,917.034735,95,right,0.884735,wolf          ,7,1,2,1,3,917.070975,917.070975,919.558485,0,17,17,17,1,95,5,7,calculator    ,wolf          ,html/resources/sequences_IDs/A/09_calculator.jpg,html/resources/sequences_IDs/A/01_wolf.jpg,9,1,4,2,1,1,8,1,0,34,,,,,,,,,,,,,,,,,,,,
,,,,,34,2020-07-03_20h19.41.131,retriever_ti,2020.1.3,Win32,60,Chrome,1366,768,,,,,,,,,,,,,,,,,2,,,,,,,,,,,,,,,,,,,,,,,,,,,920.15982,96,left,1.367595,giraffe     ,4,3,2,1,3,920.17711,920.17711,922.66546,0,18,18,18,1,96,4,2,giraffe     ,slipper     ,html/resources/sequences_IDs/B/03_giraffe.jpg,html/resources/sequences_IDs/B/08_slipper.jpg,3,8,1,1,3,2,3,7,0,34,,,,,,,,,,,,,,,,,,,,
,,,,,34,2020-07-03_20h19.41.131,retriever_ti,2020.1.3,Win32,60,Chrome,1366,768,,,,,,,,,,,,,,,,,2,,,,,,,,,,,,,,,,,,,,,,,,,,,923.268725,97,left,1.129185,seaturtle     ,3,2,2,1,3,923.303035,923.303035,925.790685,0,19,19,19,1,97,3,1,seaturtle     ,dress         ,html/resources/sequences_IDs/A/02_seaturtle.jpg,html/resources/sequences_IDs/A/07_dress.jpg,2,7,2,1,3,2,2,6,0,34,,,,,,,,,,,,,,,,,,,,
,,,,,34,2020-07-03_20h19.41.131,retriever_ti,2020.1.3,Win32,60,Chrome,1366,768,,,,,,,,,,,,,,,,,2,,,,,,,,,,,,,,,,,,,,,,,,,,,926.39349,98,right,0.87598,giraffe     ,4,3,1,1,1,926.4117,926.4117,928.89882,0,20,20,20,1,98,3,4,seaturtle     ,giraffe     ,html/resources/sequences_IDs/A/02_seaturtle.jpg,html/resources/sequences_IDs/B/03_giraffe.jpg,2,3,2,1,1,1,2,3,0,34,,,,,,,,,,,,,,,,,,,,
,,,,,34,2020-07-03_20h19.41.131,retriever_ti,2020.1.3,Win32,60,Chrome,1366,768,,,,,,,,,,,,,,,,,2,,,,,,,,,,,,,,,,,,,,,,,,,,,930.00232,99,right,0.67853,parrot      ,6,5,-2,0,3,930.052225,930.052225,932.541175,0,21,21,21,1,99,8,6,gloves      ,parrot      ,html/resources/sequences_IDs/B/06_gloves.jpg,html/resources/sequences_IDs/B/05_parrot.jpg,6,5,3,2,2,1,5,4,0,34,,,,,,,,,,,,,,,,,,,,
,,,,,34,2020-07-03_20h19.41.131,retriever_ti,2020.1.3,Win32,60,Chrome,1366,768,,,,,,,,,,,,,,,,,2,,,,,,,,,,,,,,,,,,,,,,,,,,,933.14525,100,left,0.765305,dress         ,1,7,-1,0,0,933.18032,933.18032,935.66653,0,22,22,22,1,100,1,2,dress         ,slipper     ,html/resources/sequences_IDs/A/07_dress.jpg,html/resources/sequences_IDs/B/08_slipper.jpg,7,8,3,2,3,2,6,7,0,34,,,,,,,,,,,,,,,,,,,,
,,,,,34,2020-07-03_20h19.41.131,retriever_ti,2020.1.3,Win32,60,Chrome,1366,768,,,,,,,,,,,,,,,,,2,,,,,,,,,,,,,,,,,,,,,,,,,,,936.769805,101,right,0.82359,gloves      ,8,6,6,1,3,936.80546,936.80546,939.29288,0,23,23,23,1,101,2,8,slipper     ,gloves      ,html/resources/sequences_IDs/B/08_slipper.jpg,html/resources/sequences_IDs/B/06_gloves.jpg,8,6,3,2,3,2,7,5,0,34,,,,,,,,,,,,,,,,,,,,
,,,,,34,2020-07-03_20h19.41.131,retriever_ti,2020.1.3,Win32,60,Chrome,1366,768,,,,,,,,,,,,,,,,,2,,,,,,,,,,,,,,,,,,,,,,,,,,,939.896765,102,right,1.43289,seaturtle     ,3,2,-1,0,1,939.930085,939.930085,942.41793,0,24,24,24,1,102,4,3,giraffe     ,seaturtle     ,html/resources/sequences_IDs/B/03_giraffe.jpg,html/resources/sequences_IDs/A/02_seaturtle.jpg,3,2,1,1,2,1,3,2,1,34,,,,,,,,,,,,,,,,,,,,
,,,,,34,2020-07-03_20h19.41.131,retriever_ti,2020.1.3,Win32,60,Chrome,1366,768,,,,,,,,,,,,,,,,,2,,,,,,,,,,,,,,,,,,,,,,,,,,,943.52156,103,right,0.58994,seaturtle     ,3,2,-5,0,3,943.53986,943.53986,946.027005,0,25,25,25,1,103,8,3,gloves      ,seaturtle     ,html/resources/sequences_IDs/B/06_gloves.jpg,html/resources/sequences_IDs/A/02_seaturtle.jpg,6,2,3,2,2,1,5,2,0,34,,,,,,,,,,,,,,,,,,,,
,,,,,34,2020-07-03_20h19.41.131,retriever_ti,2020.1.3,Win32,60,Chrome,1366,768,,,,,,,,,,,,,,,,,2,,,,,,,,,,,,,,,,,,,,,,,,,,,946.63131,104,right,0.70971,parrot      ,6,5,1,1,1,946.64758,946.64758,949.135515,0,26,26,26,1,104,5,6,calculator    ,parrot      ,html/resources/sequences_IDs/A/09_calculator.jpg,html/resources/sequences_IDs/B/05_parrot.jpg,9,5,4,2,2,1,8,4,0,34,,,,,,,,,,,,,,,,,,,,
,,,,,34,2020-07-03_20h19.41.131,retriever_ti,2020.1.3,Win32,60,Chrome,1366,768,,,,,,,,,,,,,,,,,2,,,,,,,,,,,,,,,,,,,,,,,,,,,950.23942,105,left,0.76348,calculator    ,5,9,-3,0,3,950.27429,950.27429,952.76238,0,27,27,27,1,105,5,8,calculator    ,gloves      ,html/resources/sequences_IDs/A/09_calculator.jpg,html/resources/sequences_IDs/B/06_gloves.jpg,9,6,4,2,3,2,8,5,0,34,,,,,,,,,,,,,,,,,,,,
,,,,,34,2020-07-03_20h19.41.131,retriever_ti,2020.1.3,Win32,60,Chrome,1366,768,,,,,,,,,,,,,,,,,2,,,,,,,,,,,,,,,,,,,,,,,,,,,953.365975,106,left,0.87478,wolf          ,7,1,-1,0,0,953.40038,953.40038,955.886965,0,28,28,28,1,106,7,8,wolf          ,gloves      ,html/resources/sequences_IDs/A/01_wolf.jpg,html/resources/sequences_IDs/B/06_gloves.jpg,1,6,1,1,3,2,1,5,0,34,,,,,,,,,,,,,,,,,,,,
,,,,,34,2020-07-03_20h19.41.131,retriever_ti,2020.1.3,Win32,60,Chrome,1366,768,,,,,,,,,,,,,,,,,2,,,,,,,,,,,,,,,,,,,,,,,,,,,956.9913,107,right,0.693055,seaturtle     ,3,2,-4,0,3,957.009195,957.009195,959.496215,0,29,29,29,1,107,7,3,wolf          ,seaturtle     ,html/resources/sequences_IDs/A/01_wolf.jpg,html/resources/sequences_IDs/A/02_seaturtle.jpg,1,2,1,1,2,1,1,2,0,34,,,,,,,,,,,,,,,,,,,,
,,,,,34,2020-07-03_20h19.41.131,retriever_ti,2020.1.3,Win32,60,Chrome,1366,768,,,,,,,,,,,,,,,,,2,,,,,,,,,,,,,,,,,,,,,,,,,,,960.099435,108,right,1.32377,wolf          ,7,1,-1,0,0,960.11645,960.11645,962.605125,0,30,30,30,1,108,8,7,gloves      ,wolf          ,html/resources/sequences_IDs/B/06_gloves.jpg,html/resources/sequences_IDs/A/01_wolf.jpg,6,1,3,2,1,1,5,1,0,34,,,,,,,,,,,,,,,,,,,,
,,,,,34,2020-07-03_20h19.41.131,retriever_ti,2020.1.3,Win32,60,Chrome,1366,768,,,,,,,,,,,,,,,,,2,,,,,,,,,,,,,,,,,,,,,,,,,,,963.70808,109,right,0.895365,parrot      ,6,5,5,1,3,963.728115,963.728115,966.21446,0,31,31,31,1,109,1,6,dress         ,parrot      ,html/resources/sequences_IDs/A/07_dress.jpg,html/resources/sequences_IDs/B/05_parrot.jpg,7,5,3,2,2,1,6,4,0,34,,,,,,,,,,,,,,,,,,,,
,,,,,34,2020-07-03_20h19.41.131,retriever_ti,2020.1.3,Win32,60,Chrome,1366,768,,,,,,,,,,,,,,,,,2,,,,,,,,,,,,,,,,,,,,,,,,,,,966.817325,110,right,0.75107,parrot      ,6,5,1,1,0,966.834605,966.834605,969.32271,0,32,32,32,1,110,5,6,calculator    ,parrot      ,html/resources/sequences_IDs/A/09_calculator.jpg,html/resources/sequences_IDs/B/05_parrot.jpg,9,5,4,2,2,1,8,4,1,34,,,,,,,,,,,,,,,,,,,,
,,,,,34,2020-07-03_20h19.41.131,retriever_ti,2020.1.3,Win32,60,Chrome,1366,768,,,,,,,,,,,,,,,,,2,,,,,,,,,,,,,,,,,,,,,,,,,,,970.426195,111,right,0.993805,seaturtle     ,3,2,2,1,3,970.46147,970.46147,972.94881,0,33,33,33,1,111,1,3,dress         ,seaturtle     ,html/resources/sequences_IDs/A/07_dress.jpg,html/resources/sequences_IDs/A/02_seaturtle.jpg,7,2,3,2,2,1,6,2,0,34,,,,,,,,,,,,,,,,,,,,
,,,,,34,2020-07-03_20h19.41.131,retriever_ti,2020.1.3,Win32,60,Chrome,1366,768,,,,,,,,,,,,,,,,,2,,,,,,,,,,,,,,,,,,,,,,,,,,,973.55285,112,right,0.94798,wolf          ,7,1,1,1,1,973.587465,973.587465,976.07398,0,34,34,34,1,112,6,7,parrot      ,wolf          ,html/resources/sequences_IDs/B/05_parrot.jpg,html/resources/sequences_IDs/A/01_wolf.jpg,5,1,2,1,1,1,4,1,0,34,,,,,,,,,,,,,,,,,,,,
,,,,,34,2020-07-03_20h19.41.131,retriever_ti,2020.1.3,Win32,60,Chrome,1366,768,,,,,,,,,,,,,,,,,2,,,,,,,,,,,,,,,,,,,,,,,,,,,977.17725,113,right,0.885935,dress         ,1,7,-5,0,3,977.196175,977.196175,979.683845,0,35,35,35,1,113,6,1,parrot      ,dress         ,html/resources/sequences_IDs/B/05_parrot.jpg,html/resources/sequences_IDs/A/07_dress.jpg,5,7,2,1,3,2,4,6,0,34,,,,,,,,,,,,,,,,,,,,
,,,,,34,2020-07-03_20h19.41.131,retriever_ti,2020.1.3,Win32,60,Chrome,1366,768,,,,,,,,,,,,,,,,,2,,,,,,,,,,,,,,,,,,,,,,,,,,,980.28634,114,right,1.0485,giraffe     ,4,3,-2,0,3,980.320625,980.320625,982.80822,0,36,36,36,1,114,6,4,parrot      ,giraffe     ,html/resources/sequences_IDs/B/05_parrot.jpg,html/resources/sequences_IDs/B/03_giraffe.jpg,5,3,2,1,1,1,4,3,0,34,,,,,,,,,,,,,,,,,,,,
,,,,,34,2020-07-03_20h19.41.131,retriever_ti,2020.1.3,Win32,60,Chrome,1366,768,,,,,,,,,,,,,,,,,2,,,,,,,,,,,,,,,,,,,,,,,,,,,983.411195,115,left,1.03824,wolf          ,7,1,5,1,3,983.4288,983.4288,985.91653,0,37,37,37,1,115,7,2,wolf          ,slipper     ,html/resources/sequences_IDs/A/01_wolf.jpg,html/resources/sequences_IDs/B/08_slipper.jpg,1,8,1,1,3,2,1,7,0,34,,,,,,,,,,,,,,,,,,,,
,,,,,34,2020-07-03_20h19.41.131,retriever_ti,2020.1.3,Win32,60,Chrome,1366,768,,,,,,,,,,,,,,,,,2,,,,,,,,,,,,,,,,,,,,,,,,,,,986.51965,116,left,1.416135,wolf          ,7,1,2,1,3,986.553515,986.553515,989.041135,0,38,38,38,1,116,7,5,wolf          ,calculator    ,html/resources/sequences_IDs/A/01_wolf.jpg,html/resources/sequences_IDs/A/09_calculator.jpg,1,9,1,1,4,2,1,8,0,34,,,,,,,,,,,,,,,,,,,,
,,,,,34,2020-07-03_20h19.41.131,retriever_ti,2020.1.3,Win32,60,Chrome,1366,768,,,,,,,,,,,,,,,,,2,,,,,,,,,,,,,,,,,,,,,,,,,,,989.644145,117,NaN,NaN,No_response,NaN,NaN,NaN,2,2,989.68294,989.68294,992.18325,0,39,39,39,1,117,2,6,slipper     ,parrot      ,html/resources/sequences_IDs/B/08_slipper.jpg,html/resources/sequences_IDs/B/05_parrot.jpg,8,5,3,2,2,1,7,4,0,34,,,,,,,,,,,,,,,,,,,,
,,,,,34,2020-07-03_20h19.41.131,retriever_ti,2020.1.3,Win32,60,Chrome,1366,768,,,,,,,,,,,,,,,,,2,,,,,,,,,,,,,,,,,,,,,,,,,,,993.28756,118,right,2.112185,seaturtle     ,3,2,1,1,1,993.322165,993.322165,995.809425,0,40,40,40,1,118,2,3,slipper     ,seaturtle     ,html/resources/sequences_IDs/B/08_slipper.jpg,html/resources/sequences_IDs/A/02_seaturtle.jpg,8,2,3,2,2,1,7,2,0,34,,,,,,,,,,,,,,,,,,,,
,,,,,34,2020-07-03_20h19.41.131,retriever_ti,2020.1.3,Win32,60,Chrome,1366,768,,,,,,,,,,,,,,,,,2,,,,,,,,,,,,,,,,,,,,,,,,,,,996.9146,119,left,1.04315,parrot      ,6,5,1,1,1,996.947925,996.947925,999.435435,0,41,41,41,1,119,6,5,parrot      ,calculator    ,html/resources/sequences_IDs/B/05_parrot.jpg,html/resources/sequences_IDs/A/09_calculator.jpg,5,9,2,1,4,2,4,8,0,34,,,,,,,,,,,,,,,,,,,,
,,,,,34,2020-07-03_20h19.41.131,retriever_ti,2020.1.3,Win32,60,Chrome,1366,768,,,,,,,,,,,,,,,,,2,,,,,,,,,,,,,,,,,,,,,,,,,,,1000.54023,120,right,0.48649,giraffe     ,4,3,-1,0,0,1000.574485,1000.574485,1003.06171,0,42,42,42,1,120,5,4,calculator    ,giraffe     ,html/resources/sequences_IDs/A/09_calculator.jpg,html/resources/sequences_IDs/B/03_giraffe.jpg,9,3,4,2,1,1,8,3,0,34,,,,,,,,,,,,,,,,,,,,
,,,,,34,2020-07-03_20h19.41.131,retriever_ti,2020.1.3,Win32,60,Chrome,1366,768,,,,,,,,,,,,,,,,,2,,,,,,,,,,,,,,,,,,,,,,,,,,,1004.16564,121,right,0.464885,slipper     ,2,8,-1,0,0,1004.183925,1004.183925,1006.67186,0,43,43,43,1,121,3,2,seaturtle     ,slipper     ,html/resources/sequences_IDs/A/02_seaturtle.jpg,html/resources/sequences_IDs/B/08_slipper.jpg,2,8,2,1,3,2,2,7,0,34,,,,,,,,,,,,,,,,,,,,
,,,,,34,2020-07-03_20h19.41.131,retriever_ti,2020.1.3,Win32,60,Chrome,1366,768,,,,,,,,,,,,,,,,,2,,,,,,,,,,,,,,,,,,,,,,,,,,,1007.776615,122,left,0.54395,wolf          ,7,1,6,1,3,1007.79295,1007.79295,1010.28142,0,44,44,44,1,122,7,1,wolf          ,dress         ,html/resources/sequences_IDs/A/01_wolf.jpg,html/resources/sequences_IDs/A/07_dress.jpg,1,7,1,1,3,2,1,6,0,34,,,,,,,,,,,,,,,,,,,,
,,,,,34,2020-07-03_20h19.41.131,retriever_ti,2020.1.3,Win32,60,Chrome,1366,768,,,,,,,,,,,,,,,,,2,,,,,,,,,,,,,,,,,,,,,,,,,,,1010.88331,123,left,0.924405,slipper     ,2,8,-2,0,3,1010.90019,1010.90019,1013.388915,0,45,45,45,1,123,2,4,slipper     ,giraffe     ,html/resources/sequences_IDs/B/08_slipper.jpg,html/resources/sequences_IDs/B/03_giraffe.jpg,8,3,3,2,1,1,7,3,0,34,,,,,,,,,,,,,,,,,,,,
,,,,,34,2020-07-03_20h19.41.131,retriever_ti,2020.1.3,Win32,60,Chrome,1366,768,,,,,,,,,,,,,,,,,2,,,,,,,,,,,,,,,,,,,,,,,,,,,1013.99291,124,right,0.438655,dress         ,1,7,-1,0,0,1014.02675,1014.02675,1016.51603,0,46,46,46,1,124,2,1,slipper     ,dress         ,html/resources/sequences_IDs/B/08_slipper.jpg,html/resources/sequences_IDs/A/07_dress.jpg,8,7,3,2,3,2,7,6,0,34,,,,,,,,,,,,,,,,,,,,
,,,,,34,2020-07-03_20h19.41.131,retriever_ti,2020.1.3,Win32,60,Chrome,1366,768,,,,,,,,,,,,,,,,,2,,,,,,,,,,,,,,,,,,,,,,,,,,,1017.617865,125,left,0.84373,calculator    ,5,9,1,1,0,1017.637265,1017.637265,1020.12447,0,47,47,47,1,125,5,4,calculator    ,giraffe     ,html/resources/sequences_IDs/A/09_calculator.jpg,html/resources/sequences_IDs/B/03_giraffe.jpg,9,3,4,2,1,1,8,3,1,34,,,,,,,,,,,,,,,,,,,,
,,,,,34,2020-07-03_20h19.41.131,retriever_ti,2020.1.3,Win32,60,Chrome,1366,768,,,,,,,,,,,,,,,,,2,,,,,,,,,,,,,,,,,,,,,,,,,,,1021.229305,126,right,0.556365,dress         ,1,7,-7,0,3,1021.245585,1021.245585,1023.733285,0,48,48,48,1,126,8,1,gloves      ,dress         ,html/resources/sequences_IDs/B/06_gloves.jpg,html/resources/sequences_IDs/A/07_dress.jpg,6,7,3,2,3,2,5,6,0,34,,,,,,,,,,,,,,,,,,,,
,,,,,34,2020-07-03_20h19.41.131,retriever_ti,2020.1.3,Win32,60,Chrome,1366,768,,,,,,,,,,,,,,,,,2,,,,,,,,,,,,,,,,,,,,,,,,,,,1024.337125,127,left,0.73908,slipper     ,2,8,1,1,0,1024.370735,1024.370735,1026.858455,0,49,49,49,1,127,2,1,slipper     ,dress         ,html/resources/sequences_IDs/B/08_slipper.jpg,html/resources/sequences_IDs/A/07_dress.jpg,8,7,3,2,3,2,7,6,1,34,,,,,,,,,,,,,,,,,,,,
,,,,,34,2020-07-03_20h19.41.131,retriever_ti,2020.1.3,Win32,60,Chrome,1366,768,,,,,,,,,,,,,,,,,2,,,,,,,,,,,,,,,,,,,,,,,,,,,1027.96333,128,right,0.26899,slipper     ,2,8,-4,0,3,1027.98049,1027.98049,1030.467975,0,50,50,50,1,128,6,2,parrot      ,slipper     ,html/resources/sequences_IDs/B/05_parrot.jpg,html/resources/sequences_IDs/B/08_slipper.jpg,5,8,2,1,3,2,4,7,0,34,,,,,,,,,,,,,,,,,,,,
,,,,,34,2020-07-03_20h19.41.131,retriever_ti,2020.1.3,Win32,60,Chrome,1366,768,,,,,,,,,,,,,,,,,2,,,,,,,,,,,,,,,,,,,,,,,,,,,1031.07071,129,left,0.409385,wolf          ,7,1,3,1,3,1031.088825,1031.088825,1033.576725,0,51,51,51,1,129,7,4,wolf          ,giraffe     ,html/resources/sequences_IDs/A/01_wolf.jpg,html/resources/sequences_IDs/B/03_giraffe.jpg,1,3,1,1,1,1,1,3,0,34,,,,,,,,,,,,,,,,,,,,
,,,,,34,2020-07-03_20h19.41.131,retriever_ti,2020.1.3,Win32,60,Chrome,1366,768,,,,,,,,,,,,,,,,,2,,,,,,,,,,,,,,,,,,,,,,,,,,,1034.19633,130,right,0.35577,parrot      ,6,5,3,1,3,1034.229015,1034.229015,1036.71783,0,52,52,52,1,130,3,6,seaturtle     ,parrot      ,html/resources/sequences_IDs/A/02_seaturtle.jpg,html/resources/sequences_IDs/B/05_parrot.jpg,2,5,2,1,2,1,2,4,0,34,,,,,,,,,,,,,,,,,,,,
,,,,,34,2020-07-03_20h19.41.131,retriever_ti,2020.1.3,Win32,60,Chrome,1366,768,,,,,,,,,,,,,,,,,2,,,,,,,,,,,,,,,,,,,,,,,,,,,1037.32003,131,left,0.214185,gloves      ,8,6,4,1,3,1037.33971,1037.33971,1039.827605,0,53,53,53,1,131,8,4,gloves      ,giraffe     ,html/resources/sequences_IDs/B/06_gloves.jpg,html/resources/sequences_IDs/B/03_giraffe.jpg,6,3,3,2,1,1,5,3,0,34,,,,,,,,,,,,,,,,,,,,
,,,,,34,2020-07-03_20h19.41.131,retriever_ti,2020.1.3,Win32,60,Chrome,1366,768,,,,,,,,,,,,,,,,,2,,,,,,,,,,,,,,,,,,,,,,,,,,,1040.44662,132,right,0.138145,wolf          ,7,1,1,1,1,1040.4638,1040.4638,1042.951265,0,54,54,54,1,132,6,7,parrot      ,wolf          ,html/resources/sequences_IDs/B/05_parrot.jpg,html/resources/sequences_IDs/A/01_wolf.jpg,5,1,2,1,1,1,4,1,0,34,,,,,,,,,,,,,,,,,,,,
,,,,,34,2020-07-03_20h19.41.131,retriever_ti,2020.1.3,Win32,60,Chrome,1366,768,,,,,,,,,,,,,,,,,2,,,,,,,,,,,,,,,,,,,,,,,,,,,1044.05452,133,left,0.275695,dress         ,1,7,-6,0,3,1044.090525,1044.090525,1046.57736,0,55,55,55,1,133,1,7,dress         ,wolf          ,html/resources/sequences_IDs/A/07_dress.jpg,html/resources/sequences_IDs/A/01_wolf.jpg,7,1,3,2,1,1,6,1,0,34,,,,,,,,,,,,,,,,,,,,
,,,,,34,2020-07-03_20h19.41.131,retriever_ti,2020.1.3,Win32,60,Chrome,1366,768,,,,,,,,,,,,,,,,,2,,,,,,,,,,,,,,,,,,,,,,,,,,,1047.18125,134,right,0.15664,wolf          ,7,1,4,1,3,1047.197955,1047.197955,1049.68542,0,56,56,56,1,134,3,7,seaturtle     ,wolf          ,html/resources/sequences_IDs/A/02_seaturtle.jpg,html/resources/sequences_IDs/A/01_wolf.jpg,2,1,2,1,1,1,2,1,0,34,,,,,,,,,,,,,,,,,,,,
,,,,,34,2020-07-03_20h19.41.131,retriever_ti,2020.1.3,Win32,60,Chrome,1366,768,,,,,,,,,,,,,,,,,2,,,,,,,,,,,,,,,,,,,,,,,,,,,1050.28824,135,left,0.344595,giraffe     ,4,3,-1,0,0,1050.306645,1050.306645,1052.79345,0,57,57,57,1,135,4,5,giraffe     ,calculator    ,html/resources/sequences_IDs/B/03_giraffe.jpg,html/resources/sequences_IDs/A/09_calculator.jpg,3,9,1,1,4,2,3,8,0,34,,,,,,,,,,,,,,,,,,,,
,,,,,34,2020-07-03_20h19.41.131,retriever_ti,2020.1.3,Win32,60,Chrome,1366,768,,,,,,,,,,,,,,,,,2,,,,,,,,,,,,,,,,,,,,,,,,,,,1053.898875,136,right,0.54847,wolf          ,7,1,-1,0,0,1053.916995,1053.916995,1056.40307,0,58,58,58,1,136,8,7,gloves      ,wolf          ,html/resources/sequences_IDs/B/06_gloves.jpg,html/resources/sequences_IDs/A/01_wolf.jpg,6,1,3,2,1,1,5,1,0,34,,,,,,,,,,,,,,,,,,,,
,,,,,34,2020-07-03_20h19.41.131,retriever_ti,2020.1.3,Win32,60,Chrome,1366,768,,,,,,,,,,,,,,,,,2,,,,,,,,,,,,,,,,,,,,,,,,,,,1057.5073,137,left,0.698925,seaturtle     ,3,2,-5,0,3,1057.526425,1057.526425,1060.013745,0,59,59,59,1,137,3,8,seaturtle     ,gloves      ,html/resources/sequences_IDs/A/02_seaturtle.jpg,html/resources/sequences_IDs/B/06_gloves.jpg,2,6,2,1,3,2,2,5,0,34,,,,,,,,,,,,,,,,,,,,
,,,,,34,2020-07-03_20h19.41.131,retriever_ti,2020.1.3,Win32,60,Chrome,1366,768,,,,,,,,,,,,,,,,,2,,,,,,,,,,,,,,,,,,,,,,,,,,,1060.616965,138,left,1.065675,dress         ,1,7,-4,0,3,1060.650525,1060.650525,1063.138405,0,60,60,60,1,138,1,5,dress         ,calculator    ,html/resources/sequences_IDs/A/07_dress.jpg,html/resources/sequences_IDs/A/09_calculator.jpg,7,9,3,2,4,2,6,8,0,34,,,,,,,,,,,,,,,,,,,,
,,,,,34,2020-07-03_20h19.41.131,retriever_ti,2020.1.3,Win32,60,Chrome,1366,768,,,,,,,,,,,,,,,,,2,,,,,,,,,,,,,,,,,,,,,,,,,,,1063.740835,139,right,1.03579,seaturtle     ,3,2,-1,0,0,1063.776555,1063.776555,1066.263195,0,61,61,61,1,139,4,3,giraffe     ,seaturtle     ,html/resources/sequences_IDs/B/03_giraffe.jpg,html/resources/sequences_IDs/A/02_seaturtle.jpg,3,2,1,1,2,1,3,2,0,34,,,,,,,,,,,,,,,,,,,,
,,,,,34,2020-07-03_20h19.41.131,retriever_ti,2020.1.3,Win32,60,Chrome,1366,768,,,,,,,,,,,,,,,,,2,,,,,,,,,,,,,,,,,,,,,,,,,,,1067.368175,140,left,0.88251,giraffe     ,4,3,-3,0,3,1067.40173,1067.40173,1069.88899,0,62,62,62,1,140,4,7,giraffe     ,wolf          ,html/resources/sequences_IDs/B/03_giraffe.jpg,html/resources/sequences_IDs/A/01_wolf.jpg,3,1,1,1,1,1,3,1,0,34,,,,,,,,,,,,,,,,,,,,
,,,,,34,2020-07-03_20h19.41.131,retriever_ti,2020.1.3,Win32,60,Chrome,1366,768,,,,,,,,,,,,,,,,,2,,,,,,,,,,,,,,,,,,,,,,,,,,,1070.49165,141,right,0.714265,seaturtle     ,3,2,-1,0,0,1070.52684,1070.52684,1073.014565,0,63,63,63,1,141,4,3,giraffe     ,seaturtle     ,html/resources/sequences_IDs/B/03_giraffe.jpg,html/resources/sequences_IDs/A/02_seaturtle.jpg,3,2,1,1,2,1,3,2,0,34,,,,,,,,,,,,,,,,,,,,
,,,,,34,2020-07-03_20h19.41.131,retriever_ti,2020.1.3,Win32,60,Chrome,1366,768,,,,,,,,,,,,,,,,,2,,,,,,,,,,,,,,,,,,,,,,,,,,,1074.11889,142,left,0.57367,seaturtle     ,3,2,1,1,1,1074.137495,1074.137495,1076.623195,0,64,64,64,1,142,3,2,seaturtle     ,slipper     ,html/resources/sequences_IDs/A/02_seaturtle.jpg,html/resources/sequences_IDs/B/08_slipper.jpg,2,8,2,1,3,2,2,7,0,34,,,,,,,,,,,,,,,,,,,,
,,,,,34,2020-07-03_20h19.41.131,retriever_ti,2020.1.3,Win32,60,Chrome,1366,768,,,,,,,,,,,,,,,,,2,,,,,,,,,,,,,,,,,,,,,,,,,,,1077.728275,143,right,1.15835,wolf          ,7,1,-1,0,1,1077.76261,1077.76261,1080.24983,0,65,65,65,1,143,8,7,gloves      ,wolf          ,html/resources/sequences_IDs/B/06_gloves.jpg,html/resources/sequences_IDs/A/01_wolf.jpg,6,1,3,2,1,1,5,1,1,34,,,,,,,,,,,,,,,,,,,,
,,,,,34,2020-07-03_20h19.41.131,retriever_ti,2020.1.3,Win32,60,Chrome,1366,768,,,,,,,,,,,,,,,,,2,,,,,,,,,,,,,,,,,,,,,,,,,,,1081.354625,144,left,0.48271,slipper     ,2,8,-1,0,0,1081.389555,1081.389555,1083.876065,0,66,66,66,1,144,2,3,slipper     ,seaturtle     ,html/resources/sequences_IDs/B/08_slipper.jpg,html/resources/sequences_IDs/A/02_seaturtle.jpg,8,2,3,2,2,1,7,2,0,34,,,,,,,,,,,,,,,,,,,,
,,,,,34,2020-07-03_20h19.41.131,retriever_ti,2020.1.3,Win32,60,Chrome,1366,768,,,,,,,,,,,,,,,,,2,,,,,,,,,,,,,,,,,,,,,,,,,,,1084.979995,145,right,0.254735,calculator    ,5,9,1,1,1,1084.997735,1084.997735,1087.485335,0,67,67,67,1,145,4,5,giraffe     ,calculator    ,html/resources/sequences_IDs/B/03_giraffe.jpg,html/resources/sequences_IDs/A/09_calculator.jpg,3,9,1,1,4,2,3,8,0,34,,,,,,,,,,,,,,,,,,,,
,,,,,34,2020-07-03_20h19.41.131,retriever_ti,2020.1.3,Win32,60,Chrome,1366,768,,,,,,,,,,,,,,,,,2,,,,,,,,,,,,,,,,,,,,,,,,,,,1088.59054,146,left,0.412355,wolf          ,7,1,1,1,1,1088.60804,1088.60804,1091.095285,0,68,68,68,1,146,7,6,wolf          ,parrot      ,html/resources/sequences_IDs/A/01_wolf.jpg,html/resources/sequences_IDs/B/05_parrot.jpg,1,5,1,1,2,1,1,4,0,34,,,,,,,,,,,,,,,,,,,,
,,,,,34,2020-07-03_20h19.41.131,retriever_ti,2020.1.3,Win32,60,Chrome,1366,768,,,,,,,,,,,,,,,,,2,,,,,,,,,,,,,,,,,,,,,,,,,,,1092.20017,147,right,0.375065,gloves      ,8,6,1,1,1,1092.234535,1092.234535,1094.721585,0,69,69,69,1,147,7,8,wolf          ,gloves      ,html/resources/sequences_IDs/A/01_wolf.jpg,html/resources/sequences_IDs/B/06_gloves.jpg,1,6,1,1,3,2,1,5,0,34,,,,,,,,,,,,,,,,,,,,
,,,,,34,2020-07-03_20h19.41.131,retriever_ti,2020.1.3,Win32,60,Chrome,1366,768,,,,,,,,,,,,,,,,,2,,,,,,,,,,,,,,,,,,,,,,,,,,,1095.826305,148,left,1.05036,slipper     ,2,8,-1,0,1,1095.86068,1095.86068,1098.34794,0,70,70,70,1,148,2,3,slipper     ,seaturtle     ,html/resources/sequences_IDs/B/08_slipper.jpg,html/resources/sequences_IDs/A/02_seaturtle.jpg,8,2,3,2,2,1,7,2,1,34,,,,,,,,,,,,,,,,,,,,
,,,,,34,2020-07-03_20h19.41.131,retriever_ti,2020.1.3,Win32,60,Chrome,1366,768,,,,,,,,,,,,,,,,,2,,,,,,,,,,,,,,,,,,,,,,,,,,,1099.45183,149,right,0.90715,parrot      ,6,5,1,1,1,1099.470145,1099.470145,1101.957765,0,71,71,71,1,149,5,6,calculator    ,parrot      ,html/resources/sequences_IDs/A/09_calculator.jpg,html/resources/sequences_IDs/B/05_parrot.jpg,9,5,4,2,2,1,8,4,0,34,,,,,,,,,,,,,,,,,,,,
,,,,,34,2020-07-03_20h19.41.131,retriever_ti,2020.1.3,Win32,60,Chrome,1366,768,,,,,,,,,,,,,,,,,2,,,,,,,,,,,,,,,,,,,,,,,,,,,1103.062455,150,left,1.22059,giraffe     ,4,3,-2,0,3,1103.09623,1103.09623,1105.583875,0,72,72,72,1,150,4,6,giraffe     ,parrot      ,html/resources/sequences_IDs/B/03_giraffe.jpg,html/resources/sequences_IDs/B/05_parrot.jpg,3,5,1,1,2,1,3,4,0,34,,,,,,,,,,,,,,,,,,,,
,,,,,34,2020-07-03_20h19.41.131,retriever_ti,2020.1.3,Win32,60,Chrome,1366,768,,,,,,,,,,,,,,,,,2,,,,,,,,,,,,,,,,,,,,,,,,,,,1106.18735,151,left,1.30134,dress         ,1,7,-1,0,0,1106.2208,1106.2208,1108.70856,0,73,73,73,1,151,1,2,dress         ,slipper     ,html/resources/sequences_IDs/A/07_dress.jpg,html/resources/sequences_IDs/B/08_slipper.jpg,7,8,3,2,3,2,6,7,0,34,,,,,,,,,,,,,,,,,,,,
,,,,,34,2020-07-03_20h19.41.131,retriever_ti,2020.1.3,Win32,60,Chrome,1366,768,,,,,,,,,,,,,,,,,2,,,,,,,,,,,,,,,,,,,,,,,,,,,1109.814315,152,right,0.93177,dress         ,1,7,-3,0,3,1109.848335,1109.848335,1112.335,0,74,74,74,1,152,4,1,giraffe     ,dress         ,html/resources/sequences_IDs/B/03_giraffe.jpg,html/resources/sequences_IDs/A/07_dress.jpg,3,7,1,1,3,2,3,6,0,34,,,,,,,,,,,,,,,,,,,,
,,,,,34,2020-07-03_20h19.41.131,retriever_ti,2020.1.3,Win32,60,Chrome,1366,768,,,,,,,,,,,,,,,,,2,,,,,,,,,,,,,,,,,,,,,,,,,,,1112.937215,153,left,1.68455,parrot      ,6,5,3,1,3,1112.97355,1112.97355,1115.45975,0,75,75,75,1,153,6,3,parrot      ,seaturtle     ,html/resources/sequences_IDs/B/05_parrot.jpg,html/resources/sequences_IDs/A/02_seaturtle.jpg,5,2,2,1,2,1,4,2,0,34,,,,,,,,,,,,,,,,,,,,
,,,,,34,2020-07-03_20h19.41.131,retriever_ti,2020.1.3,Win32,60,Chrome,1366,768,,,,,,,,,,,,,,,,,2,,,,,,,,,,,,,,,,,,,,,,,,,,,1116.06389,154,left,1.041285,calculator    ,5,9,4,1,3,1116.097985,1116.097985,1118.58554,0,76,76,76,1,154,5,1,calculator    ,dress         ,html/resources/sequences_IDs/A/09_calculator.jpg,html/resources/sequences_IDs/A/07_dress.jpg,9,7,4,2,3,2,8,6,0,34,,,,,,,,,,,,,,,,,,,,
,,,,,34,2020-07-03_20h19.41.131,retriever_ti,2020.1.3,Win32,60,Chrome,1366,768,,,,,,,,,,,,,,,,,,,,,,,,,,,,,,,,,,,,,1,2.36094,,,,,,,,,,,,,,,,,,,,,,,,,,,,,,,,,,,,,,,,,1,0,1,0,1,,,,,,,,,,,,,,,
,,,,,34,2020-07-03_20h19.41.131,retriever_ti,2020.1.3,Win32,60,Chrome,1366,768,,,,,,,,,,,,,,,,,3,,,,,,,,,,,,,,,,,,,,,,,,,,,1159.264465,155,left,1.71781,seaturtle     ,3,2,-3,0,3,1159.2775,1159.2775,1161.7669,0,0,0,0,1,155,3,6,seaturtle     ,parrot      ,html/resources/sequences_IDs/A/02_seaturtle.jpg,html/resources/sequences_IDs/B/05_parrot.jpg,2,5,2,1,2,1,2,4,0,34,,,,,,,,,,,,,,,,,,,,
,,,,,34,2020-07-03_20h19.41.131,retriever_ti,2020.1.3,Win32,60,Chrome,1366,768,,,,,,,,,,,,,,,,,3,,,,,,,,,,,,,,,,,,,,,,,,,,,1162.36927,156,left,1.30125,parrot      ,6,5,4,1,3,1162.38683,1162.38683,1164.874425,0,1,1,1,1,156,6,2,parrot      ,slipper     ,html/resources/sequences_IDs/B/05_parrot.jpg,html/resources/sequences_IDs/B/08_slipper.jpg,5,8,2,1,3,2,4,7,0,34,,,,,,,,,,,,,,,,,,,,
,,,,,34,2020-07-03_20h19.41.131,retriever_ti,2020.1.3,Win32,60,Chrome,1366,768,,,,,,,,,,,,,,,,,3,,,,,,,,,,,,,,,,,,,,,,,,,,,1165.47945,157,right,1.06706,seaturtle     ,3,2,1,1,1,1165.494865,1165.494865,1167.982085,0,2,2,2,1,157,2,3,slipper     ,seaturtle     ,html/resources/sequences_IDs/B/08_slipper.jpg,html/resources/sequences_IDs/A/02_seaturtle.jpg,8,2,3,2,2,1,7,2,0,34,,,,,,,,,,,,,,,,,,,,
,,,,,34,2020-07-03_20h19.41.131,retriever_ti,2020.1.3,Win32,60,Chrome,1366,768,,,,,,,,,,,,,,,,,3,,,,,,,,,,,,,,,,,,,,,,,,,,,1169.087035,158,left,0.91941,seaturtle     ,3,2,-5,0,3,1169.105375,1169.105375,1171.59243,0,3,3,3,1,158,3,8,seaturtle     ,gloves      ,html/resources/sequences_IDs/A/02_seaturtle.jpg,html/resources/sequences_IDs/B/06_gloves.jpg,2,6,2,1,3,2,2,5,0,34,,,,,,,,,,,,,,,,,,,,
,,,,,34,2020-07-03_20h19.41.131,retriever_ti,2020.1.3,Win32,60,Chrome,1366,768,,,,,,,,,,,,,,,,,3,,,,,,,,,,,,,,,,,,,,,,,,,,,1172.1968,159,left,1.02286,seaturtle     ,3,2,-1,0,0,1172.214415,1172.214415,1174.701355,0,4,4,4,1,159,3,4,seaturtle     ,giraffe     ,html/resources/sequences_IDs/A/02_seaturtle.jpg,html/resources/sequences_IDs/B/03_giraffe.jpg,2,3,2,1,1,1,2,3,0,34,,,,,,,,,,,,,,,,,,,,
,,,,,34,2020-07-03_20h19.41.131,retriever_ti,2020.1.3,Win32,60,Chrome,1366,768,,,,,,,,,,,,,,,,,3,,,,,,,,,,,,,,,,,,,,,,,,,,,1175.80506,160,left,1.04716,giraffe     ,4,3,1,1,1,1175.839965,1175.839965,1178.32724,0,5,5,5,1,160,4,3,giraffe     ,seaturtle     ,html/resources/sequences_IDs/B/03_giraffe.jpg,html/resources/sequences_IDs/A/02_seaturtle.jpg,3,2,1,1,2,1,3,2,0,34,,,,,,,,,,,,,,,,,,,,
,,,,,34,2020-07-03_20h19.41.131,retriever_ti,2020.1.3,Win32,60,Chrome,1366,768,,,,,,,,,,,,,,,,,3,,,,,,,,,,,,,,,,,,,,,,,,,,,1179.43206,161,right,0.68126,giraffe     ,4,3,-1,0,1,1179.44974,1179.44974,1181.936535,0,6,6,6,1,161,5,4,calculator    ,giraffe     ,html/resources/sequences_IDs/A/09_calculator.jpg,html/resources/sequences_IDs/B/03_giraffe.jpg,9,3,4,2,1,1,8,3,1,34,,,,,,,,,,,,,,,,,,,,
,,,,,34,2020-07-03_20h19.41.131,retriever_ti,2020.1.3,Win32,60,Chrome,1366,768,,,,,,,,,,,,,,,,,3,,,,,,,,,,,,,,,,,,,,,,,,,,,1183.039955,162,right,1.4538,parrot      ,6,5,-1,0,0,1183.07592,1183.07592,1185.562945,0,7,7,7,1,162,7,6,wolf          ,parrot      ,html/resources/sequences_IDs/A/01_wolf.jpg,html/resources/sequences_IDs/B/05_parrot.jpg,1,5,1,1,2,1,1,4,0,34,,,,,,,,,,,,,,,,,,,,
,,,,,34,2020-07-03_20h19.41.131,retriever_ti,2020.1.3,Win32,60,Chrome,1366,768,,,,,,,,,,,,,,,,,3,,,,,,,,,,,,,,,,,,,,,,,,,,,1186.66696,163,right,1.23829,gloves      ,8,6,6,1,3,1186.70126,1186.70126,1189.188615,0,8,8,8,1,163,2,8,slipper     ,gloves      ,html/resources/sequences_IDs/B/08_slipper.jpg,html/resources/sequences_IDs/B/06_gloves.jpg,8,6,3,2,3,2,7,5,0,34,,,,,,,,,,,,,,,,,,,,
,,,,,34,2020-07-03_20h19.41.131,retriever_ti,2020.1.3,Win32,60,Chrome,1366,768,,,,,,,,,,,,,,,,,3,,,,,,,,,,,,,,,,,,,,,,,,,,,1189.79206,164,right,1.04777,wolf          ,7,1,3,1,3,1189.826265,1189.826265,1192.31382,0,9,9,9,1,164,4,7,giraffe     ,wolf          ,html/resources/sequences_IDs/B/03_giraffe.jpg,html/resources/sequences_IDs/A/01_wolf.jpg,3,1,1,1,1,1,3,1,0,34,,,,,,,,,,,,,,,,,,,,
,,,,,34,2020-07-03_20h19.41.131,retriever_ti,2020.1.3,Win32,60,Chrome,1366,768,,,,,,,,,,,,,,,,,3,,,,,,,,,,,,,,,,,,,,,,,,,,,1192.91703,165,left,1.32718,giraffe     ,4,3,1,1,1,1192.935685,1192.935685,1195.42258,0,10,10,10,1,165,4,3,giraffe     ,seaturtle     ,html/resources/sequences_IDs/B/03_giraffe.jpg,html/resources/sequences_IDs/A/02_seaturtle.jpg,3,2,1,1,2,1,3,2,0,34,,,,,,,,,,,,,,,,,,,,
,,,,,34,2020-07-03_20h19.41.131,retriever_ti,2020.1.3,Win32,60,Chrome,1366,768,,,,,,,,,,,,,,,,,3,,,,,,,,,,,,,,,,,,,,,,,,,,,1196.525825,166,left,0.849305,dress         ,1,7,-7,0,3,1196.560955,1196.560955,1199.048295,0,11,11,11,1,166,1,8,dress         ,gloves      ,html/resources/sequences_IDs/A/07_dress.jpg,html/resources/sequences_IDs/B/06_gloves.jpg,7,6,3,2,3,2,6,5,0,34,,,,,,,,,,,,,,,,,,,,
,,,,,34,2020-07-03_20h19.41.131,retriever_ti,2020.1.3,Win32,60,Chrome,1366,768,,,,,,,,,,,,,,,,,3,,,,,,,,,,,,,,,,,,,,,,,,,,,1199.653065,167,left,1.101535,wolf          ,7,1,6,1,3,1199.66941,1199.66941,1202.15668,0,12,12,12,1,167,7,1,wolf          ,dress         ,html/resources/sequences_IDs/A/01_wolf.jpg,html/resources/sequences_IDs/A/07_dress.jpg,1,7,1,1,3,2,1,6,0,34,,,,,,,,,,,,,,,,,,,,
,,,,,34,2020-07-03_20h19.41.131,retriever_ti,2020.1.3,Win32,60,Chrome,1366,768,,,,,,,,,,,,,,,,,3,,,,,,,,,,,,,,,,,,,,,,,,,,,1202.759545,168,right,0.609955,parrot      ,6,5,1,1,1,1202.794525,1202.794525,1205.282095,0,13,13,13,1,168,5,6,calculator    ,parrot      ,html/resources/sequences_IDs/A/09_calculator.jpg,html/resources/sequences_IDs/B/05_parrot.jpg,9,5,4,2,2,1,8,4,0,34,,,,,,,,,,,,,,,,,,,,
,,,,,34,2020-07-03_20h19.41.131,retriever_ti,2020.1.3,Win32,60,Chrome,1366,768,,,,,,,,,,,,,,,,,3,,,,,,,,,,,,,,,,,,,,,,,,,,,1206.38687,169,right,0.789805,dress         ,1,7,-3,0,3,1206.403145,1206.403145,1208.890795,0,14,14,14,1,169,4,1,giraffe     ,dress         ,html/resources/sequences_IDs/B/03_giraffe.jpg,html/resources/sequences_IDs/A/07_dress.jpg,3,7,1,1,3,2,3,6,0,34,,,,,,,,,,,,,,,,,,,,
,,,,,34,2020-07-03_20h19.41.131,retriever_ti,2020.1.3,Win32,60,Chrome,1366,768,,,,,,,,,,,,,,,,,3,,,,,,,,,,,,,,,,,,,,,,,,,,,1209.493745,170,right,0.922975,wolf          ,7,1,-1,0,0,1209.51219,1209.51219,1211.99961,0,15,15,15,1,170,8,7,gloves      ,wolf          ,html/resources/sequences_IDs/B/06_gloves.jpg,html/resources/sequences_IDs/A/01_wolf.jpg,6,1,3,2,1,1,5,1,0,34,,,,,,,,,,,,,,,,,,,,
,,,,,34,2020-07-03_20h19.41.131,retriever_ti,2020.1.3,Win32,60,Chrome,1366,768,,,,,,,,,,,,,,,,,3,,,,,,,,,,,,,,,,,,,,,,,,,,,1213.104205,171,left,1.26664,calculator    ,5,9,2,1,3,1213.12213,1213.12213,1215.60873,0,16,16,16,1,171,5,3,calculator    ,seaturtle     ,html/resources/sequences_IDs/A/09_calculator.jpg,html/resources/sequences_IDs/A/02_seaturtle.jpg,9,2,4,2,2,1,8,2,0,34,,,,,,,,,,,,,,,,,,,,
,,,,,34,2020-07-03_20h19.41.131,retriever_ti,2020.1.3,Win32,60,Chrome,1366,768,,,,,,,,,,,,,,,,,3,,,,,,,,,,,,,,,,,,,,,,,,,,,1216.21191,172,left,0.85917,seaturtle     ,3,2,-4,0,3,1216.230255,1216.230255,1218.717625,0,17,17,17,1,172,3,7,seaturtle     ,wolf          ,html/resources/sequences_IDs/A/02_seaturtle.jpg,html/resources/sequences_IDs/A/01_wolf.jpg,2,1,2,1,1,1,2,1,0,34,,,,,,,,,,,,,,,,,,,,
,,,,,34,2020-07-03_20h19.41.131,retriever_ti,2020.1.3,Win32,60,Chrome,1366,768,,,,,,,,,,,,,,,,,3,,,,,,,,,,,,,,,,,,,,,,,,,,,1219.32028,173,right,0.73555,dress         ,1,7,-1,0,1,1219.35416,1219.35416,1221.842705,0,18,18,18,1,173,2,1,slipper     ,dress         ,html/resources/sequences_IDs/B/08_slipper.jpg,html/resources/sequences_IDs/A/07_dress.jpg,8,7,3,2,3,2,7,6,1,34,,,,,,,,,,,,,,,,,,,,
,,,,,34,2020-07-03_20h19.41.131,retriever_ti,2020.1.3,Win32,60,Chrome,1366,768,,,,,,,,,,,,,,,,,3,,,,,,,,,,,,,,,,,,,,,,,,,,,1222.946005,174,left,0.37312,seaturtle     ,3,2,-2,0,3,1222.964455,1222.964455,1225.45192,0,19,19,19,1,174,3,5,seaturtle     ,calculator    ,html/resources/sequences_IDs/A/02_seaturtle.jpg,html/resources/sequences_IDs/A/09_calculator.jpg,2,9,2,1,4,2,2,8,0,34,,,,,,,,,,,,,,,,,,,,
,,,,,34,2020-07-03_20h19.41.131,retriever_ti,2020.1.3,Win32,60,Chrome,1366,768,,,,,,,,,,,,,,,,,3,,,,,,,,,,,,,,,,,,,,,,,,,,,1226.054755,175,right,0.548985,dress         ,1,7,-5,0,3,1226.071855,1226.071855,1228.55957,0,20,20,20,1,175,6,1,parrot      ,dress         ,html/resources/sequences_IDs/B/05_parrot.jpg,html/resources/sequences_IDs/A/07_dress.jpg,5,7,2,1,3,2,4,6,0,34,,,,,,,,,,,,,,,,,,,,
,,,,,34,2020-07-03_20h19.41.131,retriever_ti,2020.1.3,Win32,60,Chrome,1366,768,,,,,,,,,,,,,,,,,3,,,,,,,,,,,,,,,,,,,,,,,,,,,1229.16222,176,left,0.526,slipper     ,2,8,-4,0,3,1229.18055,1229.18055,1231.668525,0,21,21,21,1,176,2,6,slipper     ,parrot      ,html/resources/sequences_IDs/B/08_slipper.jpg,html/resources/sequences_IDs/B/05_parrot.jpg,8,5,3,2,2,1,7,4,0,34,,,,,,,,,,,,,,,,,,,,
,,,,,34,2020-07-03_20h19.41.131,retriever_ti,2020.1.3,Win32,60,Chrome,1366,768,,,,,,,,,,,,,,,,,3,,,,,,,,,,,,,,,,,,,,,,,,,,,1232.272355,177,right,0.571855,giraffe     ,4,3,-2,0,3,1232.306485,1232.306485,1234.79279,0,22,22,22,1,177,6,4,parrot      ,giraffe     ,html/resources/sequences_IDs/B/05_parrot.jpg,html/resources/sequences_IDs/B/03_giraffe.jpg,5,3,2,1,1,1,4,3,0,34,,,,,,,,,,,,,,,,,,,,
,,,,,34,2020-07-03_20h19.41.131,retriever_ti,2020.1.3,Win32,60,Chrome,1366,768,,,,,,,,,,,,,,,,,3,,,,,,,,,,,,,,,,,,,,,,,,,,,1235.39514,178,left,0.90868,calculator    ,5,9,-1,0,1,1235.414095,1235.414095,1237.90135,0,23,23,23,1,178,5,6,calculator    ,parrot      ,html/resources/sequences_IDs/A/09_calculator.jpg,html/resources/sequences_IDs/B/05_parrot.jpg,9,5,4,2,2,1,8,4,1,34,,,,,,,,,,,,,,,,,,,,
,,,,,34,2020-07-03_20h19.41.131,retriever_ti,2020.1.3,Win32,60,Chrome,1366,768,,,,,,,,,,,,,,,,,3,,,,,,,,,,,,,,,,,,,,,,,,,,,1239.00646,179,left,1.148275,wolf          ,7,1,5,1,3,1239.040615,1239.040615,1241.527935,0,24,24,24,1,179,7,2,wolf          ,slipper     ,html/resources/sequences_IDs/A/01_wolf.jpg,html/resources/sequences_IDs/B/08_slipper.jpg,1,8,1,1,3,2,1,7,0,34,,,,,,,,,,,,,,,,,,,,
,,,,,34,2020-07-03_20h19.41.131,retriever_ti,2020.1.3,Win32,60,Chrome,1366,768,,,,,,,,,,,,,,,,,3,,,,,,,,,,,,,,,,,,,,,,,,,,,1242.13135,180,right,1.13918,wolf          ,7,1,6,1,3,1242.16564,1242.16564,1244.653125,0,25,25,25,1,180,1,7,dress         ,wolf          ,html/resources/sequences_IDs/A/07_dress.jpg,html/resources/sequences_IDs/A/01_wolf.jpg,7,1,3,2,1,1,6,1,0,34,,,,,,,,,,,,,,,,,,,,
,,,,,34,2020-07-03_20h19.41.131,retriever_ti,2020.1.3,Win32,60,Chrome,1366,768,,,,,,,,,,,,,,,,,3,,,,,,,,,,,,,,,,,,,,,,,,,,,1245.25634,181,right,1.826205,parrot      ,6,5,-1,0,0,1245.28999,1245.28999,1247.777395,0,26,26,26,1,181,7,6,wolf          ,parrot      ,html/resources/sequences_IDs/A/01_wolf.jpg,html/resources/sequences_IDs/B/05_parrot.jpg,1,5,1,1,2,1,1,4,0,34,,,,,,,,,,,,,,,,,,,,
,,,,,34,2020-07-03_20h19.41.131,retriever_ti,2020.1.3,Win32,60,Chrome,1366,768,,,,,,,,,,,,,,,,,3,,,,,,,,,,,,,,,,,,,,,,,,,,,1248.866065,182,left,1.15589,parrot      ,6,5,-1,0,0,1248.88418,1248.88418,1251.37206,0,27,27,27,1,182,6,7,parrot      ,wolf          ,html/resources/sequences_IDs/B/05_parrot.jpg,html/resources/sequences_IDs/A/01_wolf.jpg,5,1,2,1,1,1,4,1,0,34,,,,,,,,,,,,,,,,,,,,
,,,,,34,2020-07-03_20h19.41.131,retriever_ti,2020.1.3,Win32,60,Chrome,1366,768,,,,,,,,,,,,,,,,,3,,,,,,,,,,,,,,,,,,,,,,,,,,,1252.47688,183,right,1.00338,dress         ,1,7,-2,0,3,1252.510915,1252.510915,1254.996595,0,28,28,28,1,183,3,1,seaturtle     ,dress         ,html/resources/sequences_IDs/A/02_seaturtle.jpg,html/resources/sequences_IDs/A/07_dress.jpg,2,7,2,1,3,2,2,6,0,34,,,,,,,,,,,,,,,,,,,,
,,,,,34,2020-07-03_20h19.41.131,retriever_ti,2020.1.3,Win32,60,Chrome,1366,768,,,,,,,,,,,,,,,,,3,,,,,,,,,,,,,,,,,,,,,,,,,,,1255.60066,184,left,1.8362,slipper     ,2,8,-5,0,3,1255.63555,1255.63555,1258.12356,0,29,29,29,1,184,2,7,slipper     ,wolf          ,html/resources/sequences_IDs/B/08_slipper.jpg,html/resources/sequences_IDs/A/01_wolf.jpg,8,1,3,2,1,1,7,1,0,34,,,,,,,,,,,,,,,,,,,,
,,,,,34,2020-07-03_20h19.41.131,retriever_ti,2020.1.3,Win32,60,Chrome,1366,768,,,,,,,,,,,,,,,,,3,,,,,,,,,,,,,,,,,,,,,,,,,,,1258.74356,185,right,1.346185,calculator    ,5,9,-1,0,0,1258.777635,1258.777635,1261.29718,0,30,30,30,1,185,6,5,parrot      ,calculator    ,html/resources/sequences_IDs/B/05_parrot.jpg,html/resources/sequences_IDs/A/09_calculator.jpg,5,9,2,1,4,2,4,8,0,34,,,,,,,,,,,,,,,,,,,,
,,,,,34,2020-07-03_20h19.41.131,retriever_ti,2020.1.3,Win32,60,Chrome,1366,768,,,,,,,,,,,,,,,,,3,,,,,,,,,,,,,,,,,,,,,,,,,,,1262.400795,186,left,1.16856,gloves      ,8,6,4,1,3,1262.42188,1262.42188,1264.909995,0,31,31,31,1,186,8,4,gloves      ,giraffe     ,html/resources/sequences_IDs/B/06_gloves.jpg,html/resources/sequences_IDs/B/03_giraffe.jpg,6,3,3,2,1,1,5,3,0,34,,,,,,,,,,,,,,,,,,,,
,,,,,34,2020-07-03_20h19.41.131,retriever_ti,2020.1.3,Win32,60,Chrome,1366,768,,,,,,,,,,,,,,,,,3,,,,,,,,,,,,,,,,,,,,,,,,,,,1265.528345,187,right,0.58147,seaturtle     ,3,2,-1,0,1,1265.56063,1265.56063,1268.048845,0,32,32,32,1,187,4,3,giraffe     ,seaturtle     ,html/resources/sequences_IDs/B/03_giraffe.jpg,html/resources/sequences_IDs/A/02_seaturtle.jpg,3,2,1,1,2,1,3,2,1,34,,,,,,,,,,,,,,,,,,,,
,,,,,34,2020-07-03_20h19.41.131,retriever_ti,2020.1.3,Win32,60,Chrome,1366,768,,,,,,,,,,,,,,,,,3,,,,,,,,,,,,,,,,,,,,,,,,,,,1269.15188,188,left,1.745885,wolf          ,7,1,-1,0,0,1269.17184,1269.17184,1271.65967,0,33,33,33,1,188,7,8,wolf          ,gloves      ,html/resources/sequences_IDs/A/01_wolf.jpg,html/resources/sequences_IDs/B/06_gloves.jpg,1,6,1,1,3,2,1,5,0,34,,,,,,,,,,,,,,,,,,,,
,,,,,34,2020-07-03_20h19.41.131,retriever_ti,2020.1.3,Win32,60,Chrome,1366,768,,,,,,,,,,,,,,,,,3,,,,,,,,,,,,,,,,,,,,,,,,,,,1272.76402,189,left,1.44564,slipper     ,2,8,1,1,1,1272.781555,1272.781555,1275.26916,0,34,34,34,1,189,2,1,slipper     ,dress         ,html/resources/sequences_IDs/B/08_slipper.jpg,html/resources/sequences_IDs/A/07_dress.jpg,8,7,3,2,3,2,7,6,0,34,,,,,,,,,,,,,,,,,,,,
,,,,,34,2020-07-03_20h19.41.131,retriever_ti,2020.1.3,Win32,60,Chrome,1366,768,,,,,,,,,,,,,,,,,3,,,,,,,,,,,,,,,,,,,,,,,,,,,1276.370985,190,right,0.544785,wolf          ,7,1,1,1,1,1276.391135,1276.391135,1278.87905,0,35,35,35,1,190,6,7,parrot      ,wolf          ,html/resources/sequences_IDs/B/05_parrot.jpg,html/resources/sequences_IDs/A/01_wolf.jpg,5,1,2,1,1,1,4,1,0,34,,,,,,,,,,,,,,,,,,,,
,,,,,34,2020-07-03_20h19.41.131,retriever_ti,2020.1.3,Win32,60,Chrome,1366,768,,,,,,,,,,,,,,,,,3,,,,,,,,,,,,,,,,,,,,,,,,,,,1279.98238,191,left,0.965725,seaturtle     ,3,2,-1,0,0,1280.000115,1280.000115,1282.48626,0,36,36,36,1,191,3,4,seaturtle     ,giraffe     ,html/resources/sequences_IDs/A/02_seaturtle.jpg,html/resources/sequences_IDs/B/03_giraffe.jpg,2,3,2,1,1,1,2,3,0,34,,,,,,,,,,,,,,,,,,,,
,,,,,34,2020-07-03_20h19.41.131,retriever_ti,2020.1.3,Win32,60,Chrome,1366,768,,,,,,,,,,,,,,,,,3,,,,,,,,,,,,,,,,,,,,,,,,,,,1283.59058,192,left,1.10272,wolf          ,7,1,-1,0,0,1283.60914,1283.60914,1286.09794,0,37,37,37,1,192,7,8,wolf          ,gloves      ,html/resources/sequences_IDs/A/01_wolf.jpg,html/resources/sequences_IDs/B/06_gloves.jpg,1,6,1,1,3,2,1,5,0,34,,,,,,,,,,,,,,,,,,,,
,,,,,34,2020-07-03_20h19.41.131,retriever_ti,2020.1.3,Win32,60,Chrome,1366,768,,,,,,,,,,,,,,,,,3,,,,,,,,,,,,,,,,,,,,,,,,,,,1287.20236,193,left,1.051275,giraffe     ,4,3,2,1,3,1287.21994,1287.21994,1289.70754,0,38,38,38,1,193,4,2,giraffe     ,slipper     ,html/resources/sequences_IDs/B/03_giraffe.jpg,html/resources/sequences_IDs/B/08_slipper.jpg,3,8,1,1,3,2,3,7,0,34,,,,,,,,,,,,,,,,,,,,
,,,,,34,2020-07-03_20h19.41.131,retriever_ti,2020.1.3,Win32,60,Chrome,1366,768,,,,,,,,,,,,,,,,,3,,,,,,,,,,,,,,,,,,,,,,,,,,,1290.309755,194,right,1.201115,calculator    ,5,9,-3,0,3,1290.3278,1290.3278,1292.82012,0,39,39,39,1,194,8,5,gloves      ,calculator    ,html/resources/sequences_IDs/B/06_gloves.jpg,html/resources/sequences_IDs/A/09_calculator.jpg,6,9,3,2,4,2,5,8,0,34,,,,,,,,,,,,,,,,,,,,
,,,,,34,2020-07-03_20h19.41.131,retriever_ti,2020.1.3,Win32,60,Chrome,1366,768,,,,,,,,,,,,,,,,,3,,,,,,,,,,,,,,,,,,,,,,,,,,,1293.41894,195,right,1.138895,giraffe     ,4,3,2,1,3,1293.451705,1293.451705,1295.94074,0,40,40,40,1,195,2,4,slipper     ,giraffe     ,html/resources/sequences_IDs/B/08_slipper.jpg,html/resources/sequences_IDs/B/03_giraffe.jpg,8,3,3,2,1,1,7,3,0,34,,,,,,,,,,,,,,,,,,,,
,,,,,34,2020-07-03_20h19.41.131,retriever_ti,2020.1.3,Win32,60,Chrome,1366,768,,,,,,,,,,,,,,,,,3,,,,,,,,,,,,,,,,,,,,,,,,,,,1296.542875,196,right,0.95513,parrot      ,6,5,2,1,3,1296.561065,1296.561065,1299.04896,0,41,41,41,1,196,4,6,giraffe     ,parrot      ,html/resources/sequences_IDs/B/03_giraffe.jpg,html/resources/sequences_IDs/B/05_parrot.jpg,3,5,1,1,2,1,3,4,0,34,,,,,,,,,,,,,,,,,,,,
,,,,,34,2020-07-03_20h19.41.131,retriever_ti,2020.1.3,Win32,60,Chrome,1366,768,,,,,,,,,,,,,,,,,3,,,,,,,,,,,,,,,,,,,,,,,,,,,1299.65173,197,left,1.596295,seaturtle     ,3,2,1,1,1,1299.68635,1299.68635,1302.173865,0,42,42,42,1,197,3,2,seaturtle     ,slipper     ,html/resources/sequences_IDs/A/02_seaturtle.jpg,html/resources/sequences_IDs/B/08_slipper.jpg,2,8,2,1,3,2,2,7,0,34,,,,,,,,,,,,,,,,,,,,
,,,,,34,2020-07-03_20h19.41.131,retriever_ti,2020.1.3,Win32,60,Chrome,1366,768,,,,,,,,,,,,,,,,,3,,,,,,,,,,,,,,,,,,,,,,,,,,,1303.275955,198,right,0.962105,seaturtle     ,3,2,-5,0,3,1303.295705,1303.295705,1305.78352,0,43,43,43,1,198,8,3,gloves      ,seaturtle     ,html/resources/sequences_IDs/B/06_gloves.jpg,html/resources/sequences_IDs/A/02_seaturtle.jpg,6,2,3,2,2,1,5,2,0,34,,,,,,,,,,,,,,,,,,,,
,,,,,34,2020-07-03_20h19.41.131,retriever_ti,2020.1.3,Win32,60,Chrome,1366,768,,,,,,,,,,,,,,,,,3,,,,,,,,,,,,,,,,,,,,,,,,,,,1306.402495,199,left,1.485135,seaturtle     ,3,2,1,1,1,1306.420895,1306.420895,1308.90663,0,44,44,44,1,199,3,2,seaturtle     ,slipper     ,html/resources/sequences_IDs/A/02_seaturtle.jpg,html/resources/sequences_IDs/B/08_slipper.jpg,2,8,2,1,3,2,2,7,0,34,,,,,,,,,,,,,,,,,,,,
,,,,,34,2020-07-03_20h19.41.131,retriever_ti,2020.1.3,Win32,60,Chrome,1366,768,,,,,,,,,,,,,,,,,3,,,,,,,,,,,,,,,,,,,,,,,,,,,1310.0104,200,left,1.5392,dress         ,1,7,-4,0,3,1310.04634,1310.04634,1312.534785,0,45,45,45,1,200,1,5,dress         ,calculator    ,html/resources/sequences_IDs/A/07_dress.jpg,html/resources/sequences_IDs/A/09_calculator.jpg,7,9,3,2,4,2,6,8,0,34,,,,,,,,,,,,,,,,,,,,
,,,,,34,2020-07-03_20h19.41.131,retriever_ti,2020.1.3,Win32,60,Chrome,1366,768,,,,,,,,,,,,,,,,,3,,,,,,,,,,,,,,,,,,,,,,,,,,,1313.153155,201,left,1.71277,dress         ,1,7,-1,0,0,1313.172115,1313.172115,1315.659655,0,46,46,46,1,201,1,2,dress         ,slipper     ,html/resources/sequences_IDs/A/07_dress.jpg,html/resources/sequences_IDs/B/08_slipper.jpg,7,8,3,2,3,2,6,7,0,34,,,,,,,,,,,,,,,,,,,,
,,,,,34,2020-07-03_20h19.41.131,retriever_ti,2020.1.3,Win32,60,Chrome,1366,768,,,,,,,,,,,,,,,,,3,,,,,,,,,,,,,,,,,,,,,,,,,,,1316.763535,202,right,1.8456,giraffe     ,4,3,-3,0,3,1316.797665,1316.797665,1319.284625,0,47,47,47,1,202,7,4,wolf          ,giraffe     ,html/resources/sequences_IDs/A/01_wolf.jpg,html/resources/sequences_IDs/B/03_giraffe.jpg,1,3,1,1,1,1,1,3,0,34,,,,,,,,,,,,,,,,,,,,
,,,,,34,2020-07-03_20h19.41.131,retriever_ti,2020.1.3,Win32,60,Chrome,1366,768,,,,,,,,,,,,,,,,,3,,,,,,,,,,,,,,,,,,,,,,,,,,,1319.88957,203,left,1.892025,wolf          ,7,1,2,1,3,1319.90614,1319.90614,1322.392615,0,48,48,48,1,203,7,5,wolf          ,calculator    ,html/resources/sequences_IDs/A/01_wolf.jpg,html/resources/sequences_IDs/A/09_calculator.jpg,1,9,1,1,4,2,1,8,0,34,,,,,,,,,,,,,,,,,,,,
,,,,,34,2020-07-03_20h19.41.131,retriever_ti,2020.1.3,Win32,60,Chrome,1366,768,,,,,,,,,,,,,,,,,3,,,,,,,,,,,,,,,,,,,,,,,,,,,1322.996255,204,right,1.566445,giraffe     ,4,3,3,1,3,1323.031165,1323.031165,1325.517135,0,49,49,49,1,204,1,4,dress         ,giraffe     ,html/resources/sequences_IDs/A/07_dress.jpg,html/resources/sequences_IDs/B/03_giraffe.jpg,7,3,3,2,1,1,6,3,0,34,,,,,,,,,,,,,,,,,,,,
,,,,,34,2020-07-03_20h19.41.131,retriever_ti,2020.1.3,Win32,60,Chrome,1366,768,,,,,,,,,,,,,,,,,3,,,,,,,,,,,,,,,,,,,,,,,,,,,1326.12085,205,left,1.15181,giraffe     ,4,3,-1,0,0,1326.156395,1326.156395,1328.64417,0,50,50,50,1,205,4,5,giraffe     ,calculator    ,html/resources/sequences_IDs/B/03_giraffe.jpg,html/resources/sequences_IDs/A/09_calculator.jpg,3,9,1,1,4,2,3,8,0,34,,,,,,,,,,,,,,,,,,,,
,,,,,34,2020-07-03_20h19.41.131,retriever_ti,2020.1.3,Win32,60,Chrome,1366,768,,,,,,,,,,,,,,,,,3,,,,,,,,,,,,,,,,,,,,,,,,,,,1329.7468,206,right,1.7737,wolf          ,7,1,-1,0,1,1329.76562,1329.76562,1332.25372,0,51,51,51,1,206,8,7,gloves      ,wolf          ,html/resources/sequences_IDs/B/06_gloves.jpg,html/resources/sequences_IDs/A/01_wolf.jpg,6,1,3,2,1,1,5,1,1,34,,,,,,,,,,,,,,,,,,,,
,,,,,34,2020-07-03_20h19.41.131,retriever_ti,2020.1.3,Win32,60,Chrome,1366,768,,,,,,,,,,,,,,,,,3,,,,,,,,,,,,,,,,,,,,,,,,,,,1333.35828,207,right,0.598415,giraffe     ,4,3,-1,0,0,1333.37542,1333.37542,1335.86277,0,52,52,52,1,207,5,4,calculator    ,giraffe     ,html/resources/sequences_IDs/A/09_calculator.jpg,html/resources/sequences_IDs/B/03_giraffe.jpg,9,3,4,2,1,1,8,3,0,34,,,,,,,,,,,,,,,,,,,,
,,,,,34,2020-07-03_20h19.41.131,retriever_ti,2020.1.3,Win32,60,Chrome,1366,768,,,,,,,,,,,,,,,,,3,,,,,,,,,,,,,,,,,,,,,,,,,,,1336.966695,208,left,1.136755,calculator    ,5,9,4,1,3,1336.98509,1336.98509,1339.47273,0,53,53,53,1,208,5,1,calculator    ,dress         ,html/resources/sequences_IDs/A/09_calculator.jpg,html/resources/sequences_IDs/A/07_dress.jpg,9,7,4,2,3,2,8,6,0,34,,,,,,,,,,,,,,,,,,,,
,,,,,34,2020-07-03_20h19.41.131,retriever_ti,2020.1.3,Win32,60,Chrome,1366,768,,,,,,,,,,,,,,,,,3,,,,,,,,,,,,,,,,,,,,,,,,,,,1340.076165,209,right,0.463915,slipper     ,2,8,1,1,1,1340.093225,1340.093225,1342.580975,0,54,54,54,1,209,1,2,dress         ,slipper     ,html/resources/sequences_IDs/A/07_dress.jpg,html/resources/sequences_IDs/B/08_slipper.jpg,7,8,3,2,3,2,6,7,0,34,,,,,,,,,,,,,,,,,,,,
,,,,,34,2020-07-03_20h19.41.131,retriever_ti,2020.1.3,Win32,60,Chrome,1366,768,,,,,,,,,,,,,,,,,3,,,,,,,,,,,,,,,,,,,,,,,,,,,1343.68465,210,left,0.34213,dress         ,1,7,-2,0,3,1343.71959,1343.71959,1346.20628,0,55,55,55,1,210,1,3,dress         ,seaturtle     ,html/resources/sequences_IDs/A/07_dress.jpg,html/resources/sequences_IDs/A/02_seaturtle.jpg,7,2,3,2,2,1,6,2,0,34,,,,,,,,,,,,,,,,,,,,
,,,,,34,2020-07-03_20h19.41.131,retriever_ti,2020.1.3,Win32,60,Chrome,1366,768,,,,,,,,,,,,,,,,,3,,,,,,,,,,,,,,,,,,,,,,,,,,,1346.809535,211,right,0.40778,calculator    ,5,9,3,1,3,1346.827765,1346.827765,1349.31564,0,56,56,56,1,211,2,5,slipper     ,calculator    ,html/resources/sequences_IDs/B/08_slipper.jpg,html/resources/sequences_IDs/A/09_calculator.jpg,8,9,3,2,4,2,7,8,0,34,,,,,,,,,,,,,,,,,,,,
,,,,,34,2020-07-03_20h19.41.131,retriever_ti,2020.1.3,Win32,60,Chrome,1366,768,,,,,,,,,,,,,,,,,3,,,,,,,,,,,,,,,,,,,,,,,,,,,1349.91692,212,left,0.18696,parrot      ,6,5,-1,0,1,1349.952335,1349.952335,1352.440505,0,57,57,57,1,212,6,7,parrot      ,wolf          ,html/resources/sequences_IDs/B/05_parrot.jpg,html/resources/sequences_IDs/A/01_wolf.jpg,5,1,2,1,1,1,4,1,1,34,,,,,,,,,,,,,,,,,,,,
,,,,,34,2020-07-03_20h19.41.131,retriever_ti,2020.1.3,Win32,60,Chrome,1366,768,,,,,,,,,,,,,,,,,3,,,,,,,,,,,,,,,,,,,,,,,,,,,1353.543695,213,right,0.28382,parrot      ,6,5,1,1,1,1353.56231,1353.56231,1356.052485,0,58,58,58,1,213,5,6,calculator    ,parrot      ,html/resources/sequences_IDs/A/09_calculator.jpg,html/resources/sequences_IDs/B/05_parrot.jpg,9,5,4,2,2,1,8,4,0,34,,,,,,,,,,,,,,,,,,,,
,,,,,34,2020-07-03_20h19.41.131,retriever_ti,2020.1.3,Win32,60,Chrome,1366,768,,,,,,,,,,,,,,,,,3,,,,,,,,,,,,,,,,,,,,,,,,,,,1357.152025,214,left,0.16524,parrot      ,6,5,3,1,3,1357.18842,1357.18842,1359.676485,0,59,59,59,1,214,6,3,parrot      ,seaturtle     ,html/resources/sequences_IDs/B/05_parrot.jpg,html/resources/sequences_IDs/A/02_seaturtle.jpg,5,2,2,1,2,1,4,2,0,34,,,,,,,,,,,,,,,,,,,,
,,,,,34,2020-07-03_20h19.41.131,retriever_ti,2020.1.3,Win32,60,Chrome,1366,768,,,,,,,,,,,,,,,,,3,,,,,,,,,,,,,,,,,,,,,,,,,,,1360.27976,215,right,0.66109,slipper     ,2,8,-3,0,3,1360.29683,1360.29683,1362.78447,0,60,60,60,1,215,5,2,calculator    ,slipper     ,html/resources/sequences_IDs/A/09_calculator.jpg,html/resources/sequences_IDs/B/08_slipper.jpg,9,8,4,2,3,2,8,7,0,34,,,,,,,,,,,,,,,,,,,,
,,,,,34,2020-07-03_20h19.41.131,retriever_ti,2020.1.3,Win32,60,Chrome,1366,768,,,,,,,,,,,,,,,,,3,,,,,,,,,,,,,,,,,,,,,,,,,,,1363.386735,216,left,0.348455,calculator    ,5,9,-2,0,3,1363.40507,1363.40507,1365.906385,0,61,61,61,1,216,5,7,calculator    ,wolf          ,html/resources/sequences_IDs/A/09_calculator.jpg,html/resources/sequences_IDs/A/01_wolf.jpg,9,1,4,2,1,1,8,1,0,34,,,,,,,,,,,,,,,,,,,,
,,,,,34,2020-07-03_20h19.41.131,retriever_ti,2020.1.3,Win32,60,Chrome,1366,768,,,,,,,,,,,,,,,,,3,,,,,,,,,,,,,,,,,,,,,,,,,,,1366.513035,217,right,0.30176,dress         ,1,7,-7,0,3,1366.529985,1366.529985,1369.015975,0,62,62,62,1,217,8,1,gloves      ,dress         ,html/resources/sequences_IDs/B/06_gloves.jpg,html/resources/sequences_IDs/A/07_dress.jpg,6,7,3,2,3,2,5,6,0,34,,,,,,,,,,,,,,,,,,,,
,,,,,34,2020-07-03_20h19.41.131,retriever_ti,2020.1.3,Win32,60,Chrome,1366,768,,,,,,,,,,,,,,,,,3,,,,,,,,,,,,,,,,,,,,,,,,,,,1369.618385,218,left,0.4513,giraffe     ,4,3,-4,0,3,1369.636935,1369.636935,1372.126155,0,63,63,63,1,218,4,8,giraffe     ,gloves      ,html/resources/sequences_IDs/B/03_giraffe.jpg,html/resources/sequences_IDs/B/06_gloves.jpg,3,6,1,1,3,2,3,5,0,34,,,,,,,,,,,,,,,,,,,,
,,,,,34,2020-07-03_20h19.41.131,retriever_ti,2020.1.3,Win32,60,Chrome,1366,768,,,,,,,,,,,,,,,,,3,,,,,,,,,,,,,,,,,,,,,,,,,,,1372.728485,219,right,0.202905,slipper     ,2,8,-6,0,3,1372.763345,1372.763345,1375.250915,0,64,64,64,1,219,8,2,gloves      ,slipper     ,html/resources/sequences_IDs/B/06_gloves.jpg,html/resources/sequences_IDs/B/08_slipper.jpg,6,8,3,2,3,2,5,7,0,34,,,,,,,,,,,,,,,,,,,,
,,,,,34,2020-07-03_20h19.41.131,retriever_ti,2020.1.3,Win32,60,Chrome,1366,768,,,,,,,,,,,,,,,,,3,,,,,,,,,,,,,,,,,,,,,,,,,,,1375.86911,220,left,0.259315,wolf          ,7,1,4,1,3,1375.904875,1375.904875,1378.392365,0,65,65,65,1,220,7,3,wolf          ,seaturtle     ,html/resources/sequences_IDs/A/01_wolf.jpg,html/resources/sequences_IDs/A/02_seaturtle.jpg,1,2,1,1,2,1,1,2,0,34,,,,,,,,,,,,,,,,,,,,
,,,,,34,2020-07-03_20h19.41.131,retriever_ti,2020.1.3,Win32,60,Chrome,1366,768,,,,,,,,,,,,,,,,,3,,,,,,,,,,,,,,,,,,,,,,,,,,,1378.99814,221,right,0.431785,gloves      ,8,6,3,1,3,1379.03027,1379.03027,1381.518615,0,66,66,66,1,221,5,8,calculator    ,gloves      ,html/resources/sequences_IDs/A/09_calculator.jpg,html/resources/sequences_IDs/B/06_gloves.jpg,9,6,4,2,3,2,8,5,0,34,,,,,,,,,,,,,,,,,,,,
,,,,,34,2020-07-03_20h19.41.131,retriever_ti,2020.1.3,Win32,60,Chrome,1366,768,,,,,,,,,,,,,,,,,3,,,,,,,,,,,,,,,,,,,,,,,,,,,1382.13535,222,left,0.515405,parrot      ,6,5,1,1,1,1382.153355,1382.153355,1384.642695,0,67,67,67,1,222,6,5,parrot      ,calculator    ,html/resources/sequences_IDs/B/05_parrot.jpg,html/resources/sequences_IDs/A/09_calculator.jpg,5,9,2,1,4,2,4,8,0,34,,,,,,,,,,,,,,,,,,,,
