instructionsLoop.thisRepN,instructionsLoop.thisTrialN,instructionsLoop.thisN,instructionsLoop.thisIndex,instructionsLoop.ran,participant,date,expName,psychopyVersion,OS,frameRate,browser,xResolution,yResolution,fix_onset,tprac,practiceKey.keys,practiceKey.rt,pracitem_chosen_name,acc_practice,P1_onsetPrac,P2_onsetPrac,onsetFeedbPrac,practiceTrials.thisRepN,practiceTrials.thisTrialN,practiceTrials.thisN,practiceTrials.thisIndex,practiceTrials.ran,P1,P2,Block,LocItem1,LocItem2,NameItem1,NameItem2,key_respAC_prac.keys,key_respAC_prac.corr,key_respAC_prac.rt,AC_acc,Attentions.thisRepN,Attentions.thisTrialN,Attentions.thisN,Attentions.thisIndex,Attentions.ran,Stim,Loc1,Loc2,Loc3,Loc4,CorrAns,keyDisturbed.keys,keyDisturbed.rt,repPractice.thisRepN,repPractice.thisTrialN,repPractice.thisN,repPractice.thisIndex,repPractice.ran,fixcross_onsetMain,trialNumber,key_resp.keys,key_resp.rt,item_chosen_name,item_chosen_value,item_chosen_ID,diff_chosen_minus_reject,acc_real,acc_feedback,P1_onset,P2_onset,feedb_onset,trials.thisRepN,trials.thisTrialN,trials.thisN,trials.thisIndex,trials.ran,Trial,ValueP1,ValueP2,P1name,P2name,P1Loc,P2Loc,P1id,P2id,Micro_categoryP1,Macro_categoryP1,Micro_categoryP2,Macro_categoryP2,ID_sequenceP1,ID_sequenceP2,InverseFb,pNumber,repBlocks.thisRepN,repBlocks.thisTrialN,repBlocks.thisN,repBlocks.thisIndex,repBlocks.ran,key_respAC.keys,key_respAC.corr,key_respAC.rt,trials_AC.thisRepN,trials_AC.thisTrialN,trials_AC.thisN,trials_AC.thisIndex,trials_AC.ran,Bonus,BonusLoop.thisRepN,BonusLoop.thisTrialN,BonusLoop.thisN,BonusLoop.thisIndex,BonusLoop.ran,comments
0,0,0,0,1,36,2020-07-03_16h57.45.275,retriever_ti,2020.1.3,Win32,60,Chrome,1366,768,,,,,,,,,,,,,,,,,,,,,,,,,,,,,,,,,,,,,,,,,,,,,,,,,,,,,,,,,,,,,,,,,,,,,,,,,,,,,,,,,,,,,,,,,,,,,,,,,,
1,0,1,0,1,36,2020-07-03_16h57.45.275,retriever_ti,2020.1.3,Win32,60,Chrome,1366,768,,,,,,,,,,,,,,,,,,,,,,,,,,,,,,,,,,,,,,,,,,,,,,,,,,,,,,,,,,,,,,,,,,,,,,,,,,,,,,,,,,,,,,,,,,,,,,,,,,
2,0,2,0,1,36,2020-07-03_16h57.45.275,retriever_ti,2020.1.3,Win32,60,Chrome,1366,768,,,,,,,,,,,,,,,,,,,,,,,,,,,,,,,,,,,,,,,,,,,,,,,,,,,,,,,,,,,,,,,,,,,,,,,,,,,,,,,,,,,,,,,,,,,,,,,,,,
3,0,3,0,1,36,2020-07-03_16h57.45.275,retriever_ti,2020.1.3,Win32,60,Chrome,1366,768,,,,,,,,,,,,,,,,,,,,,,,,,,,,,,,,,,,,,,,,,,,,,,,,,,,,,,,,,,,,,,,,,,,,,,,,,,,,,,,,,,,,,,,,,,,,,,,,,,
4,0,4,0,1,36,2020-07-03_16h57.45.275,retriever_ti,2020.1.3,Win32,60,Chrome,1366,768,,,,,,,,,,,,,,,,,,,,,,,,,,,,,,,,,,,,,,,,,,,,,,,,,,,,,,,,,,,,,,,,,,,,,,,,,,,,,,,,,,,,,,,,,,,,,,,,,,
5,0,5,0,1,36,2020-07-03_16h57.45.275,retriever_ti,2020.1.3,Win32,60,Chrome,1366,768,,,,,,,,,,,,,,,,,,,,,,,,,,,,,,,,,,,,,,,,,,,,,,,,,,,,,,,,,,,,,,,,,,,,,,,,,,,,,,,,,,,,,,,,,,,,,,,,,,
6,0,6,0,1,36,2020-07-03_16h57.45.275,retriever_ti,2020.1.3,Win32,60,Chrome,1366,768,,,,,,,,,,,,,,,,,,,,,,,,,,,,,,,,,,,,,,,,,,,,,,,,,,,,,,,,,,,,,,,,,,,,,,,,,,,,,,,,,,,,,,,,,,,,,,,,,,
7,0,7,0,1,36,2020-07-03_16h57.45.275,retriever_ti,2020.1.3,Win32,60,Chrome,1366,768,,,,,,,,,,,,,,,,,,,,,,,,,,,,,,,,,,,,,,,,,,,,,,,,,,,,,,,,,,,,,,,,,,,,,,,,,,,,,,,,,,,,,,,,,,,,,,,,,,
8,0,8,0,1,36,2020-07-03_16h57.45.275,retriever_ti,2020.1.3,Win32,60,Chrome,1366,768,,,,,,,,,,,,,,,,,,,,,,,,,,,,,,,,,,,,,,,,,,,,,,,,,,,,,,,,,,,,,,,,,,,,,,,,,,,,,,,,,,,,,,,,,,,,,,,,,,
9,0,9,0,1,36,2020-07-03_16h57.45.275,retriever_ti,2020.1.3,Win32,60,Chrome,1366,768,,,,,,,,,,,,,,,,,,,,,,,,,,,,,,,,,,,,,,,,,,,,,,,,,,,,,,,,,,,,,,,,,,,,,,,,,,,,,,,,,,,,,,,,,,,,,,,,,,
10,0,10,0,1,36,2020-07-03_16h57.45.275,retriever_ti,2020.1.3,Win32,60,Chrome,1366,768,,,,,,,,,,,,,,,,,,,,,,,,,,,,,,,,,,,,,,,,,,,,,,,,,,,,,,,,,,,,,,,,,,,,,,,,,,,,,,,,,,,,,,,,,,,,,,,,,,
11,0,11,0,1,36,2020-07-03_16h57.45.275,retriever_ti,2020.1.3,Win32,60,Chrome,1366,768,,,,,,,,,,,,,,,,,,,,,,,,,,,,,,,,,,,,,,,,,,,,,,,,,,,,,,,,,,,,,,,,,,,,,,,,,,,,,,,,,,,,,,,,,,,,,,,,,,
12,0,12,0,1,36,2020-07-03_16h57.45.275,retriever_ti,2020.1.3,Win32,60,Chrome,1366,768,,,,,,,,,,,,,,,,,,,,,,,,,,,,,,,,,,,,,,,,,,,,,,,,,,,,,,,,,,,,,,,,,,,,,,,,,,,,,,,,,,,,,,,,,,,,,,,,,,
13,0,13,0,1,36,2020-07-03_16h57.45.275,retriever_ti,2020.1.3,Win32,60,Chrome,1366,768,,,,,,,,,,,,,,,,,,,,,,,,,,,,,,,,,,,,,,,,,,,,,,,,,,,,,,,,,,,,,,,,,,,,,,,,,,,,,,,,,,,,,,,,,,,,,,,,,,
14,0,14,0,1,36,2020-07-03_16h57.45.275,retriever_ti,2020.1.3,Win32,60,Chrome,1366,768,,,,,,,,,,,,,,,,,,,,,,,,,,,,,,,,,,,,,,,,,,,,,,,,,,,,,,,,,,,,,,,,,,,,,,,,,,,,,,,,,,,,,,,,,,,,,,,,,,
,,,,,36,2020-07-03_16h57.45.275,retriever_ti,2020.1.3,Win32,60,Chrome,1366,768,455.9956,1,NaN,NaN,No_response,2,456.032505,456.032505,458.52929,0,0,0,0,1,2,5,1,html/resources/stimuli_practice_decision/04_beetle.jpg,html/resources/stimuli_practice_decision/02_canary.jpg,beetle,canary,,,,,,,,,,,,,,,,,,,,,,,,,,,,,,,,,,,,,,,,,,,,,,,,,,,,,,,,,,,,,,,,,,,,,,,,,,,,,
,,,,,36,2020-07-03_16h57.45.275,retriever_ti,2020.1.3,Win32,60,Chrome,1366,768,459.097205,2,right,0.7834,sock,0,459.13195,459.13195,461.63646,0,1,1,1,1,4,3,1,html/resources/stimuli_practice_decision/01_rabbit.jpg,html/resources/stimuli_practice_decision/07_sock.jpg,rabbit,sock,,,,,,,,,,,,,,,,,,,,,,,,,,,,,,,,,,,,,,,,,,,,,,,,,,,,,,,,,,,,,,,,,,,,,,,,,,,,,
,,,,,36,2020-07-03_16h57.45.275,retriever_ti,2020.1.3,Win32,60,Chrome,1366,768,462.641375,3,right,1.102455,beetle,0,462.658025,462.658025,465.478635,0,2,2,2,1,6,2,1,html/resources/stimuli_practice_decision/06_pullover.jpg,html/resources/stimuli_practice_decision/04_beetle.jpg,pullover,beetle,,,,,,,,,,,,,,,,,,,,,,,,,,,,,,,,,,,,,,,,,,,,,,,,,,,,,,,,,,,,,,,,,,,,,,,,,,,,,
,,,,,36,2020-07-03_16h57.45.275,retriever_ti,2020.1.3,Win32,60,Chrome,1366,768,465.980665,4,right,1.12348,handmixer,0,466.015015,466.015015,468.503935,0,3,3,3,1,7,1,1,html/resources/stimuli_practice_decision/05_glasses.jpg,html/resources/stimuli_practice_decision/08_handmixer.jpg,glasses,handmixer,,,,,,,,,,,,,,,,,,,,,,,,,,,,,,,,,,,,,,,,,,,,,,,,,,,,,,,,,,,,,,,,,,,,,,,,,,,,,
,,,,,36,2020-07-03_16h57.45.275,retriever_ti,2020.1.3,Win32,60,Chrome,1366,768,469.021765,5,right,1.22752,pullover,0,469.05596,469.05596,471.542775,0,4,4,4,1,7,6,1,html/resources/stimuli_practice_decision/05_glasses.jpg,html/resources/stimuli_practice_decision/06_pullover.jpg,glasses,pullover,,,,,,,,,,,,,,,,,,,,,,,,,,,,,,,,,,,,,,,,,,,,,,,,,,,,,,,,,,,,,,,,,,,,,,,,,,,,,
,,,,,36,2020-07-03_16h57.45.275,retriever_ti,2020.1.3,Win32,60,Chrome,1366,768,472.546325,6,right,1.14838,glasses,1,472.581,472.581,475.0681,0,5,5,5,1,4,7,1,html/resources/stimuli_practice_decision/01_rabbit.jpg,html/resources/stimuli_practice_decision/05_glasses.jpg,rabbit,glasses,,,,,,,,,,,,,,,,,,,,,,,,,,,,,,,,,,,,,,,,,,,,,,,,,,,,,,,,,,,,,,,,,,,,,,,,,,,,,
,,,,,36,2020-07-03_16h57.45.275,retriever_ti,2020.1.3,Win32,60,Chrome,1366,768,475.57004,7,left,1.504825,handmixer,0,475.604825,475.604825,478.092015,0,6,6,6,1,1,2,1,html/resources/stimuli_practice_decision/08_handmixer.jpg,html/resources/stimuli_practice_decision/04_beetle.jpg,handmixer,beetle,,,,,,,,,,,,,,,,,,,,,,,,,,,,,,,,,,,,,,,,,,,,,,,,,,,,,,,,,,,,,,,,,,,,,,,,,,,,,
,,,,,36,2020-07-03_16h57.45.275,retriever_ti,2020.1.3,Win32,60,Chrome,1366,768,479.0953,8,left,1.364465,rabbit,1,479.113165,479.113165,481.60055,0,7,7,7,1,4,3,1,html/resources/stimuli_practice_decision/01_rabbit.jpg,html/resources/stimuli_practice_decision/07_sock.jpg,rabbit,sock,,,,,,,,,,,,,,,,,,,,,,,,,,,,,,,,,,,,,,,,,,,,,,,,,,,,,,,,,,,,,,,,,,,,,,,,,,,,,
,,,,,36,2020-07-03_16h57.45.275,retriever_ti,2020.1.3,Win32,60,Chrome,1366,768,,,,,,,,,,,,,,,,,,,,,,down,1,3.564665,1,0,0,0,3,1,html/resources/sequences_IDs/triangle.png,star ↑,square →,triangle ↓,← circle,down,,,,,,,,,,,,,,,,,,,,,,,,,,,,,,,,,,,,,,,,,,,,,,,,,,,,,,,,,,,,,,
,,,,,36,2020-07-03_16h57.45.275,retriever_ti,2020.1.3,Win32,60,Chrome,1366,768,,,,,,,,,,,,,,,,,,,,,,left,1,1.68263,1,0,1,1,2,1,html/resources/sequences_IDs/square1.png,star ↑,triangle →,circle ↓,← square,left,,,,,,,,,,,,,,,,,,,,,,,,,,,,,,,,,,,,,,,,,,,,,,,,,,,,,,,,,,,,,,
,,,,,36,2020-07-03_16h57.45.275,retriever_ti,2020.1.3,Win32,60,Chrome,1366,768,,,,,,,,,,,,,,,,,,,,,,up,1,1.312415,1,0,2,2,0,1,html/resources/sequences_IDs/circle.png,circle ↑,square →,triangle ↓,← star ,up,,,,,,,,,,,,,,,,,,,,,,,,,,,,,,,,,,,,,,,,,,,,,,,,,,,,,,,,,,,,,,
,,,,,36,2020-07-03_16h57.45.275,retriever_ti,2020.1.3,Win32,60,Chrome,1366,768,,,,,,,,,,,,,,,,,,,,,,down,1,1.38438,1,0,3,3,1,1,html/resources/sequences_IDs/star.png,square ↑,circle →,star ↓,← triangle,down,,,,,,,,,,,,,,,,,,,,,,,,,,,,,,,,,,,,,,,,,,,,,,,,,,,,,,,,,,,,,,
,,,,,36,2020-07-03_16h57.45.275,retriever_ti,2020.1.3,Win32,60,Chrome,1366,768,,,,,,,,,,,,,,,,,,,,,,,,,,,,,,,,,,,,,0,9.848395,0,0,0,0,1,,,,,,,,,,,,,,,,,,,,,,,,,,,,,,,,,,,,,,,,,,,,,,,,,,,,,,,
,,,,,36,2020-07-03_16h57.45.275,retriever_ti,2020.1.3,Win32,60,Chrome,1366,768,506.086605,9,right,1.041155,glasses,1,506.094375,506.094375,508.582095,0,0,0,0,1,6,7,1,html/resources/stimuli_practice_decision/06_pullover.jpg,html/resources/stimuli_practice_decision/05_glasses.jpg,pullover,glasses,,,,,,,,,,,,,,,,,,,,,,,,,,,,,,,,,,,,,,,,,,,,,,,,,,,,,,,,,,,,,,,,,,,,,,,,,,,,,
,,,,,36,2020-07-03_16h57.45.275,retriever_ti,2020.1.3,Win32,60,Chrome,1366,768,509.585865,10,right,1.01995,beetle,0,509.60349,509.60349,512.089835,0,1,1,1,1,6,2,1,html/resources/stimuli_practice_decision/06_pullover.jpg,html/resources/stimuli_practice_decision/04_beetle.jpg,pullover,beetle,,,,,,,,,,,,,,,,,,,,,,,,,,,,,,,,,,,,,,,,,,,,,,,,,,,,,,,,,,,,,,,,,,,,,,,,,,,,,
,,,,,36,2020-07-03_16h57.45.275,retriever_ti,2020.1.3,Win32,60,Chrome,1366,768,512.59277,11,right,1.23379,pullover,1,512.61172,512.61172,515.09764,0,2,2,2,1,5,6,1,html/resources/stimuli_practice_decision/02_canary.jpg,html/resources/stimuli_practice_decision/06_pullover.jpg,canary,pullover,,,,,,,,,,,,,,,,,,,,,,,,,,,,,,,,,,,,,,,,,,,,,,,,,,,,,,,,,,,,,,,,,,,,,,,,,,,,,
,,,,,36,2020-07-03_16h57.45.275,retriever_ti,2020.1.3,Win32,60,Chrome,1366,768,516.1014,12,right,1.276885,glasses,0,516.11886,516.11886,518.60532,0,3,3,3,1,8,7,1,html/resources/stimuli_practice_decision/03_squirrel.jpg,html/resources/stimuli_practice_decision/05_glasses.jpg,squirrel,glasses,,,,,,,,,,,,,,,,,,,,,,,,,,,,,,,,,,,,,,,,,,,,,,,,,,,,,,,,,,,,,,,,,,,,,,,,,,,,,
,,,,,36,2020-07-03_16h57.45.275,retriever_ti,2020.1.3,Win32,60,Chrome,1366,768,519.60983,13,right,1.38365,sock,0,519.627185,519.627185,522.114655,0,4,4,4,1,5,3,1,html/resources/stimuli_practice_decision/02_canary.jpg,html/resources/stimuli_practice_decision/07_sock.jpg,canary,sock,,,,,,,,,,,,,,,,,,,,,,,,,,,,,,,,,,,,,,,,,,,,,,,,,,,,,,,,,,,,,,,,,,,,,,,,,,,,,
,,,,,36,2020-07-03_16h57.45.275,retriever_ti,2020.1.3,Win32,60,Chrome,1366,768,522.62106,14,left,0.91984,glasses,0,522.635445,522.635445,525.12149,0,5,5,5,1,7,8,1,html/resources/stimuli_practice_decision/05_glasses.jpg,html/resources/stimuli_practice_decision/03_squirrel.jpg,glasses,squirrel,,,,,,,,,,,,,,,,,,,,,,,,,,,,,,,,,,,,,,,,,,,,,,,,,,,,,,,,,,,,,,,,,,,,,,,,,,,,,
,,,,,36,2020-07-03_16h57.45.275,retriever_ti,2020.1.3,Win32,60,Chrome,1366,768,526.125425,15,left,1.07251,canary,1,526.14299,526.14299,528.630305,0,6,6,6,1,5,4,1,html/resources/stimuli_practice_decision/02_canary.jpg,html/resources/stimuli_practice_decision/01_rabbit.jpg,canary,rabbit,,,,,,,,,,,,,,,,,,,,,,,,,,,,,,,,,,,,,,,,,,,,,,,,,,,,,,,,,,,,,,,,,,,,,,,,,,,,,
,,,,,36,2020-07-03_16h57.45.275,retriever_ti,2020.1.3,Win32,60,Chrome,1366,768,529.63335,16,left,1.019185,canary,1,529.651095,529.651095,532.1385,0,7,7,7,1,5,3,1,html/resources/stimuli_practice_decision/02_canary.jpg,html/resources/stimuli_practice_decision/07_sock.jpg,canary,sock,,,,,,,,,,,,,,,,,,,,,,,,,,,,,,,,,,,,,,,,,,,,,,,,,,,,,,,,,,,,,,,,,,,,,,,,,,,,,
,,,,,36,2020-07-03_16h57.45.275,retriever_ti,2020.1.3,Win32,60,Chrome,1366,768,,,,,,,,,,,,,,,,,,,,,,down,1,1.84692,1,0,0,0,3,1,html/resources/sequences_IDs/triangle.png,star ↑,square →,triangle ↓,← circle,down,,,,,,,,,,,,,,,,,,,,,,,,,,,,,,,,,,,,,,,,,,,,,,,,,,,,,,,,,,,,,,
,,,,,36,2020-07-03_16h57.45.275,retriever_ti,2020.1.3,Win32,60,Chrome,1366,768,,,,,,,,,,,,,,,,,,,,,,up,1,1.327645,1,0,1,1,0,1,html/resources/sequences_IDs/circle.png,circle ↑,square →,triangle ↓,← star ,up,,,,,,,,,,,,,,,,,,,,,,,,,,,,,,,,,,,,,,,,,,,,,,,,,,,,,,,,,,,,,,
,,,,,36,2020-07-03_16h57.45.275,retriever_ti,2020.1.3,Win32,60,Chrome,1366,768,,,,,,,,,,,,,,,,,,,,,,down,1,1.51823,1,0,2,2,1,1,html/resources/sequences_IDs/star.png,square ↑,circle →,star ↓,← triangle,down,,,,,,,,,,,,,,,,,,,,,,,,,,,,,,,,,,,,,,,,,,,,,,,,,,,,,,,,,,,,,,
,,,,,36,2020-07-03_16h57.45.275,retriever_ti,2020.1.3,Win32,60,Chrome,1366,768,,,,,,,,,,,,,,,,,,,,,,left,1,2.053715,1,0,3,3,2,1,html/resources/sequences_IDs/square1.png,star ↑,triangle →,circle ↓,← square,left,,,,,,,,,,,,,,,,,,,,,,,,,,,,,,,,,,,,,,,,,,,,,,,,,,,,,,,,,,,,,,
,,,,,36,2020-07-03_16h57.45.275,retriever_ti,2020.1.3,Win32,60,Chrome,1366,768,,,,,,,,,,,,,,,,,,,,,,,,,,,,,,,,,,,,,0,2.612845,1,0,1,0,1,,,,,,,,,,,,,,,,,,,,,,,,,,,,,,,,,,,,,,,,,,,,,,,,,,,,,,,
,,,,,36,2020-07-03_16h57.45.275,retriever_ti,2020.1.3,Win32,60,Chrome,1366,768,,,,,,,,,,,,,,,,,1,,,,,,,,,,,,,,,,,,,,,,,,,,,552.20748,1,left,0.83237,wolf          ,3,1,-5,0,3,552.22459,552.22459,554.710425,0,0,0,0,1,1,3,8,wolf          ,phone       ,html/resources/sequences_IDs/A/01_wolf.jpg,html/resources/sequences_IDs/B/09_phone.jpg,1,9,1,1,4,2,1,7,0,36,,,,,,,,,,,,,,,,,,,,
,,,,,36,2020-07-03_16h57.45.275,retriever_ti,2020.1.3,Win32,60,Chrome,1366,768,,,,,,,,,,,,,,,,,1,,,,,,,,,,,,,,,,,,,,,,,,,,,555.31404,2,right,1.06318,peacock       ,1,5,-1,0,0,555.329195,555.329195,557.8168,0,1,1,1,1,2,2,1,gloves      ,peacock       ,html/resources/sequences_IDs/B/06_gloves.jpg,html/resources/sequences_IDs/A/05_peacock.jpg,6,5,3,2,2,1,5,4,0,36,,,,,,,,,,,,,,,,,,,,
,,,,,36,2020-07-03_16h57.45.275,retriever_ti,2020.1.3,Win32,60,Chrome,1366,768,,,,,,,,,,,,,,,,,1,,,,,,,,,,,,,,,,,,,,,,,,,,,558.920455,3,left,1.329715,radio       ,4,10,-1,0,0,558.938125,558.938125,561.42523,0,2,2,2,1,3,4,5,radio       ,camel         ,html/resources/sequences_IDs/B/10_radio.jpg,html/resources/sequences_IDs/A/03_camel.jpg,10,3,4,2,1,1,8,3,0,36,,,,,,,,,,,,,,,,,,,,
,,,,,36,2020-07-03_16h57.45.275,retriever_ti,2020.1.3,Win32,60,Chrome,1366,768,,,,,,,,,,,,,,,,,1,,,,,,,,,,,,,,,,,,,,,,,,,,,562.52903,4,left,1.05789,camel         ,5,3,-2,0,3,562.546915,562.546915,565.033455,0,3,3,3,1,4,5,7,camel         ,seaturtle     ,html/resources/sequences_IDs/A/03_camel.jpg,html/resources/sequences_IDs/A/02_seaturtle.jpg,3,2,1,1,2,1,3,2,0,36,,,,,,,,,,,,,,,,,,,,
,,,,,36,2020-07-03_16h57.45.275,retriever_ti,2020.1.3,Win32,60,Chrome,1366,768,,,,,,,,,,,,,,,,,1,,,,,,,,,,,,,,,,,,,,,,,,,,,565.636655,5,right,1.331645,camel         ,5,3,-3,0,3,565.670665,565.670665,568.1582,0,4,4,4,1,5,8,5,phone       ,camel         ,html/resources/sequences_IDs/B/09_phone.jpg,html/resources/sequences_IDs/A/03_camel.jpg,9,3,4,2,1,1,7,3,0,36,,,,,,,,,,,,,,,,,,,,
,,,,,36,2020-07-03_16h57.45.275,retriever_ti,2020.1.3,Win32,60,Chrome,1366,768,,,,,,,,,,,,,,,,,1,,,,,,,,,,,,,,,,,,,,,,,,,,,568.76116,6,left,1.325285,seaturtle     ,7,2,5,1,3,568.79495,568.79495,571.28255,0,5,5,5,1,6,7,2,seaturtle     ,gloves      ,html/resources/sequences_IDs/A/02_seaturtle.jpg,html/resources/sequences_IDs/B/06_gloves.jpg,2,6,2,1,3,2,2,5,0,36,,,,,,,,,,,,,,,,,,,,
,,,,,36,2020-07-03_16h57.45.275,retriever_ti,2020.1.3,Win32,60,Chrome,1366,768,,,,,,,,,,,,,,,,,1,,,,,,,,,,,,,,,,,,,,,,,,,,,571.884135,7,right,1.071725,wolf          ,3,1,-2,0,3,571.902385,571.902385,574.39022,0,6,6,6,1,7,5,3,camel         ,wolf          ,html/resources/sequences_IDs/A/03_camel.jpg,html/resources/sequences_IDs/A/01_wolf.jpg,3,1,1,1,1,1,3,1,0,36,,,,,,,,,,,,,,,,,,,,
,,,,,36,2020-07-03_16h57.45.275,retriever_ti,2020.1.3,Win32,60,Chrome,1366,768,,,,,,,,,,,,,,,,,1,,,,,,,,,,,,,,,,,,,,,,,,,,,574.9923,8,right,1.014315,camel         ,5,3,2,1,3,575.0268,575.0268,577.51403,0,7,7,7,1,8,3,5,wolf          ,camel         ,html/resources/sequences_IDs/A/01_wolf.jpg,html/resources/sequences_IDs/A/03_camel.jpg,1,3,1,1,1,1,1,3,0,36,,,,,,,,,,,,,,,,,,,,
,,,,,36,2020-07-03_16h57.45.275,retriever_ti,2020.1.3,Win32,60,Chrome,1366,768,,,,,,,,,,,,,,,,,1,,,,,,,,,,,,,,,,,,,,,,,,,,,578.115605,9,left,1.08557,seaturtle     ,7,2,-1,0,1,578.134255,578.134255,580.62047,0,8,8,8,1,9,7,8,seaturtle     ,phone       ,html/resources/sequences_IDs/A/02_seaturtle.jpg,html/resources/sequences_IDs/B/09_phone.jpg,2,9,2,1,4,2,2,7,1,36,,,,,,,,,,,,,,,,,,,,
,,,,,36,2020-07-03_16h57.45.275,retriever_ti,2020.1.3,Win32,60,Chrome,1366,768,,,,,,,,,,,,,,,,,1,,,,,,,,,,,,,,,,,,,,,,,,,,,581.72556,10,left,0.949105,camel         ,5,3,-1,0,1,581.75938,581.75938,584.246495,0,9,9,9,1,10,5,6,camel         ,slipper     ,html/resources/sequences_IDs/A/03_camel.jpg,html/resources/sequences_IDs/B/08_slipper.jpg,3,8,1,1,3,2,3,6,1,36,,,,,,,,,,,,,,,,,,,,
,,,,,36,2020-07-03_16h57.45.275,retriever_ti,2020.1.3,Win32,60,Chrome,1366,768,,,,,,,,,,,,,,,,,1,,,,,,,,,,,,,,,,,,,,,,,,,,,585.350465,11,left,1.15668,gloves      ,2,6,-1,0,0,585.367975,585.367975,587.8556,0,10,10,10,1,11,2,3,gloves      ,wolf          ,html/resources/sequences_IDs/B/06_gloves.jpg,html/resources/sequences_IDs/A/01_wolf.jpg,6,1,3,2,1,1,5,1,0,36,,,,,,,,,,,,,,,,,,,,
,,,,,36,2020-07-03_16h57.45.275,retriever_ti,2020.1.3,Win32,60,Chrome,1366,768,,,,,,,,,,,,,,,,,1,,,,,,,,,,,,,,,,,,,,,,,,,,,588.9593,12,left,1.082775,phone       ,8,9,1,1,1,588.976835,588.976835,591.464,0,11,11,11,1,12,8,7,phone       ,seaturtle     ,html/resources/sequences_IDs/B/09_phone.jpg,html/resources/sequences_IDs/A/02_seaturtle.jpg,9,2,4,2,2,1,7,2,0,36,,,,,,,,,,,,,,,,,,,,
,,,,,36,2020-07-03_16h57.45.275,retriever_ti,2020.1.3,Win32,60,Chrome,1366,768,,,,,,,,,,,,,,,,,1,,,,,,,,,,,,,,,,,,,,,,,,,,,592.567135,13,left,1.45065,camel         ,5,3,3,1,3,592.60258,592.60258,595.0892,0,12,12,12,1,13,5,2,camel         ,gloves      ,html/resources/sequences_IDs/A/03_camel.jpg,html/resources/sequences_IDs/B/06_gloves.jpg,3,6,1,1,3,2,3,5,0,36,,,,,,,,,,,,,,,,,,,,
,,,,,36,2020-07-03_16h57.45.275,retriever_ti,2020.1.3,Win32,60,Chrome,1366,768,,,,,,,,,,,,,,,,,1,,,,,,,,,,,,,,,,,,,,,,,,,,,595.692725,14,right,1.11338,radio       ,4,10,-1,0,0,595.72658,595.72658,598.2125,0,13,13,13,1,14,5,4,camel         ,radio       ,html/resources/sequences_IDs/A/03_camel.jpg,html/resources/sequences_IDs/B/10_radio.jpg,3,10,1,1,4,2,3,8,0,36,,,,,,,,,,,,,,,,,,,,
,,,,,36,2020-07-03_16h57.45.275,retriever_ti,2020.1.3,Win32,60,Chrome,1366,768,,,,,,,,,,,,,,,,,1,,,,,,,,,,,,,,,,,,,,,,,,,,,599.317245,15,right,1.1288,camel         ,5,3,-1,0,0,599.33445,599.33445,601.822005,0,14,14,14,1,15,6,5,slipper     ,camel         ,html/resources/sequences_IDs/B/08_slipper.jpg,html/resources/sequences_IDs/A/03_camel.jpg,8,3,3,2,1,1,6,3,0,36,,,,,,,,,,,,,,,,,,,,
,,,,,36,2020-07-03_16h57.45.275,retriever_ti,2020.1.3,Win32,60,Chrome,1366,768,,,,,,,,,,,,,,,,,1,,,,,,,,,,,,,,,,,,,,,,,,,,,602.92622,16,right,1.728905,peacock       ,1,5,-7,0,3,602.959885,602.959885,605.447595,0,15,15,15,1,16,8,1,phone       ,peacock       ,html/resources/sequences_IDs/B/09_phone.jpg,html/resources/sequences_IDs/A/05_peacock.jpg,9,5,4,2,2,1,7,4,0,36,,,,,,,,,,,,,,,,,,,,
,,,,,36,2020-07-03_16h57.45.275,retriever_ti,2020.1.3,Win32,60,Chrome,1366,768,,,,,,,,,,,,,,,,,1,,,,,,,,,,,,,,,,,,,,,,,,,,,606.04983,17,left,0.845435,wolf          ,3,1,1,1,1,606.084325,606.084325,608.571845,0,16,16,16,1,17,3,2,wolf          ,gloves      ,html/resources/sequences_IDs/A/01_wolf.jpg,html/resources/sequences_IDs/B/06_gloves.jpg,1,6,1,1,3,2,1,5,0,36,,,,,,,,,,,,,,,,,,,,
,,,,,36,2020-07-03_16h57.45.275,retriever_ti,2020.1.3,Win32,60,Chrome,1366,768,,,,,,,,,,,,,,,,,1,,,,,,,,,,,,,,,,,,,,,,,,,,,609.67575,18,right,1.465525,slipper     ,6,8,1,1,1,609.709695,609.709695,612.19708,0,17,17,17,1,18,5,6,camel         ,slipper     ,html/resources/sequences_IDs/A/03_camel.jpg,html/resources/sequences_IDs/B/08_slipper.jpg,3,8,1,1,3,2,3,6,0,36,,,,,,,,,,,,,,,,,,,,
,,,,,36,2020-07-03_16h57.45.275,retriever_ti,2020.1.3,Win32,60,Chrome,1366,768,,,,,,,,,,,,,,,,,1,,,,,,,,,,,,,,,,,,,,,,,,,,,613.307255,19,right,0.998475,phone       ,8,9,1,1,1,613.318505,613.318505,615.80505,0,18,18,18,1,19,7,8,seaturtle     ,phone       ,html/resources/sequences_IDs/A/02_seaturtle.jpg,html/resources/sequences_IDs/B/09_phone.jpg,2,9,2,1,4,2,2,7,0,36,,,,,,,,,,,,,,,,,,,,
,,,,,36,2020-07-03_16h57.45.275,retriever_ti,2020.1.3,Win32,60,Chrome,1366,768,,,,,,,,,,,,,,,,,1,,,,,,,,,,,,,,,,,,,,,,,,,,,616.90965,20,right,1.05363,radio       ,4,10,1,1,1,616.943545,616.943545,619.43097,0,19,19,19,1,20,3,4,wolf          ,radio       ,html/resources/sequences_IDs/A/01_wolf.jpg,html/resources/sequences_IDs/B/10_radio.jpg,1,10,1,1,4,2,1,8,0,36,,,,,,,,,,,,,,,,,,,,
,,,,,36,2020-07-03_16h57.45.275,retriever_ti,2020.1.3,Win32,60,Chrome,1366,768,,,,,,,,,,,,,,,,,1,,,,,,,,,,,,,,,,,,,,,,,,,,,620.534385,21,right,1.31588,seaturtle     ,7,2,5,1,3,620.55242,620.55242,623.04004,0,20,20,20,1,21,2,7,gloves      ,seaturtle     ,html/resources/sequences_IDs/B/06_gloves.jpg,html/resources/sequences_IDs/A/02_seaturtle.jpg,6,2,3,2,2,1,5,2,0,36,,,,,,,,,,,,,,,,,,,,
,,,,,36,2020-07-03_16h57.45.275,retriever_ti,2020.1.3,Win32,60,Chrome,1366,768,,,,,,,,,,,,,,,,,1,,,,,,,,,,,,,,,,,,,,,,,,,,,623.64251,22,left,1.375915,phone       ,8,9,6,1,3,623.676905,623.676905,626.16426,0,21,21,21,1,22,8,2,phone       ,gloves      ,html/resources/sequences_IDs/B/09_phone.jpg,html/resources/sequences_IDs/B/06_gloves.jpg,9,6,4,2,3,2,7,5,0,36,,,,,,,,,,,,,,,,,,,,
,,,,,36,2020-07-03_16h57.45.275,retriever_ti,2020.1.3,Win32,60,Chrome,1366,768,,,,,,,,,,,,,,,,,1,,,,,,,,,,,,,,,,,,,,,,,,,,,626.782035,23,right,1.35984,radio       ,4,10,3,1,3,626.80059,626.80059,629.288335,0,22,22,22,1,23,1,4,peacock       ,radio       ,html/resources/sequences_IDs/A/05_peacock.jpg,html/resources/sequences_IDs/B/10_radio.jpg,5,10,2,1,4,2,4,8,0,36,,,,,,,,,,,,,,,,,,,,
,,,,,36,2020-07-03_16h57.45.275,retriever_ti,2020.1.3,Win32,60,Chrome,1366,768,,,,,,,,,,,,,,,,,1,,,,,,,,,,,,,,,,,,,,,,,,,,,629.89037,24,right,1.316215,peacock       ,1,5,-4,0,3,629.908125,629.908125,632.394475,0,23,23,23,1,24,5,1,camel         ,peacock       ,html/resources/sequences_IDs/A/03_camel.jpg,html/resources/sequences_IDs/A/05_peacock.jpg,3,5,1,1,2,1,3,4,0,36,,,,,,,,,,,,,,,,,,,,
,,,,,36,2020-07-03_16h57.45.275,retriever_ti,2020.1.3,Win32,60,Chrome,1366,768,,,,,,,,,,,,,,,,,1,,,,,,,,,,,,,,,,,,,,,,,,,,,632.998185,25,left,1.293115,camel         ,5,3,1,1,0,633.015385,633.015385,635.50254,0,24,24,24,1,25,5,4,camel         ,radio       ,html/resources/sequences_IDs/A/03_camel.jpg,html/resources/sequences_IDs/B/10_radio.jpg,3,10,1,1,4,2,3,8,1,36,,,,,,,,,,,,,,,,,,,,
,,,,,36,2020-07-03_16h57.45.275,retriever_ti,2020.1.3,Win32,60,Chrome,1366,768,,,,,,,,,,,,,,,,,1,,,,,,,,,,,,,,,,,,,,,,,,,,,636.606375,26,right,1.25931,slipper     ,6,8,-1,0,1,636.62441,636.62441,639.111235,0,25,25,25,1,26,7,6,seaturtle     ,slipper     ,html/resources/sequences_IDs/A/02_seaturtle.jpg,html/resources/sequences_IDs/B/08_slipper.jpg,2,8,2,1,3,2,2,6,1,36,,,,,,,,,,,,,,,,,,,,
,,,,,36,2020-07-03_16h57.45.275,retriever_ti,2020.1.3,Win32,60,Chrome,1366,768,,,,,,,,,,,,,,,,,1,,,,,,,,,,,,,,,,,,,,,,,,,,,640.215415,27,right,0.85101,slipper     ,6,8,1,1,1,640.23286,640.23286,642.720425,0,26,26,26,1,27,5,6,camel         ,slipper     ,html/resources/sequences_IDs/A/03_camel.jpg,html/resources/sequences_IDs/B/08_slipper.jpg,3,8,1,1,3,2,3,6,0,36,,,,,,,,,,,,,,,,,,,,
,,,,,36,2020-07-03_16h57.45.275,retriever_ti,2020.1.3,Win32,60,Chrome,1366,768,,,,,,,,,,,,,,,,,1,,,,,,,,,,,,,,,,,,,,,,,,,,,643.82408,28,left,1.297995,seaturtle     ,7,2,1,1,1,643.841425,643.841425,646.328545,0,27,27,27,1,28,7,6,seaturtle     ,slipper     ,html/resources/sequences_IDs/A/02_seaturtle.jpg,html/resources/sequences_IDs/B/08_slipper.jpg,2,8,2,1,3,2,2,6,0,36,,,,,,,,,,,,,,,,,,,,
,,,,,36,2020-07-03_16h57.45.275,retriever_ti,2020.1.3,Win32,60,Chrome,1366,768,,,,,,,,,,,,,,,,,1,,,,,,,,,,,,,,,,,,,,,,,,,,,647.43287,29,right,1.41026,slipper     ,6,8,3,1,3,647.46708,647.46708,649.95502,0,28,28,28,1,29,3,6,wolf          ,slipper     ,html/resources/sequences_IDs/A/01_wolf.jpg,html/resources/sequences_IDs/B/08_slipper.jpg,1,8,1,1,3,2,1,6,0,36,,,,,,,,,,,,,,,,,,,,
,,,,,36,2020-07-03_16h57.45.275,retriever_ti,2020.1.3,Win32,60,Chrome,1366,768,,,,,,,,,,,,,,,,,1,,,,,,,,,,,,,,,,,,,,,,,,,,,650.556665,30,right,1.386965,slipper     ,6,8,5,1,3,650.574385,650.574385,653.061885,0,29,29,29,1,30,1,6,peacock       ,slipper     ,html/resources/sequences_IDs/A/05_peacock.jpg,html/resources/sequences_IDs/B/08_slipper.jpg,5,8,2,1,3,2,4,6,0,36,,,,,,,,,,,,,,,,,,,,
,,,,,36,2020-07-03_16h57.45.275,retriever_ti,2020.1.3,Win32,60,Chrome,1366,768,,,,,,,,,,,,,,,,,1,,,,,,,,,,,,,,,,,,,,,,,,,,,653.66464,31,right,1.12795,radio       ,4,10,-4,0,3,653.69826,653.69826,656.18587,0,30,30,30,1,31,8,4,phone       ,radio       ,html/resources/sequences_IDs/B/09_phone.jpg,html/resources/sequences_IDs/B/10_radio.jpg,9,10,4,2,4,2,7,8,0,36,,,,,,,,,,,,,,,,,,,,
,,,,,36,2020-07-03_16h57.45.275,retriever_ti,2020.1.3,Win32,60,Chrome,1366,768,,,,,,,,,,,,,,,,,1,,,,,,,,,,,,,,,,,,,,,,,,,,,656.78802,32,right,1.328175,radio       ,4,10,1,1,1,656.805675,656.805675,659.29551,0,31,31,31,1,32,3,4,wolf          ,radio       ,html/resources/sequences_IDs/A/01_wolf.jpg,html/resources/sequences_IDs/B/10_radio.jpg,1,10,1,1,4,2,1,8,0,36,,,,,,,,,,,,,,,,,,,,
,,,,,36,2020-07-03_16h57.45.275,retriever_ti,2020.1.3,Win32,60,Chrome,1366,768,,,,,,,,,,,,,,,,,1,,,,,,,,,,,,,,,,,,,,,,,,,,,660.39748,33,right,1.38666,camel         ,5,3,-2,0,3,660.414625,660.414625,662.90224,0,32,32,32,1,33,7,5,seaturtle     ,camel         ,html/resources/sequences_IDs/A/02_seaturtle.jpg,html/resources/sequences_IDs/A/03_camel.jpg,2,3,2,1,1,1,2,3,0,36,,,,,,,,,,,,,,,,,,,,
,,,,,36,2020-07-03_16h57.45.275,retriever_ti,2020.1.3,Win32,60,Chrome,1366,768,,,,,,,,,,,,,,,,,1,,,,,,,,,,,,,,,,,,,,,,,,,,,663.504985,34,right,1.68391,phone       ,8,9,3,1,3,663.5391,663.5391,666.025775,0,33,33,33,1,34,5,8,camel         ,phone       ,html/resources/sequences_IDs/A/03_camel.jpg,html/resources/sequences_IDs/B/09_phone.jpg,3,9,1,1,4,2,3,7,0,36,,,,,,,,,,,,,,,,,,,,
,,,,,36,2020-07-03_16h57.45.275,retriever_ti,2020.1.3,Win32,60,Chrome,1366,768,,,,,,,,,,,,,,,,,1,,,,,,,,,,,,,,,,,,,,,,,,,,,666.62872,35,left,1.28344,radio       ,4,10,2,1,3,666.64632,666.64632,669.183865,0,34,34,34,1,35,4,2,radio       ,gloves      ,html/resources/sequences_IDs/B/10_radio.jpg,html/resources/sequences_IDs/B/06_gloves.jpg,10,6,4,2,3,2,8,5,0,36,,,,,,,,,,,,,,,,,,,,
,,,,,36,2020-07-03_16h57.45.275,retriever_ti,2020.1.3,Win32,60,Chrome,1366,768,,,,,,,,,,,,,,,,,1,,,,,,,,,,,,,,,,,,,,,,,,,,,669.78657,36,right,2.095195,camel         ,5,3,3,1,3,669.820915,669.820915,672.30831,0,35,35,35,1,36,2,5,gloves      ,camel         ,html/resources/sequences_IDs/B/06_gloves.jpg,html/resources/sequences_IDs/A/03_camel.jpg,6,3,3,2,1,1,5,3,0,36,,,,,,,,,,,,,,,,,,,,
,,,,,36,2020-07-03_16h57.45.275,retriever_ti,2020.1.3,Win32,60,Chrome,1366,768,,,,,,,,,,,,,,,,,1,,,,,,,,,,,,,,,,,,,,,,,,,,,672.90974,37,left,1.079525,radio       ,4,10,-3,0,3,672.927725,672.927725,675.415405,0,36,36,36,1,37,4,7,radio       ,seaturtle     ,html/resources/sequences_IDs/B/10_radio.jpg,html/resources/sequences_IDs/A/02_seaturtle.jpg,10,2,4,2,2,1,8,2,0,36,,,,,,,,,,,,,,,,,,,,
,,,,,36,2020-07-03_16h57.45.275,retriever_ti,2020.1.3,Win32,60,Chrome,1366,768,,,,,,,,,,,,,,,,,1,,,,,,,,,,,,,,,,,,,,,,,,,,,676.01812,38,left,0.884485,slipper     ,6,8,5,1,3,676.03528,676.03528,678.52268,0,37,37,37,1,38,6,1,slipper     ,peacock       ,html/resources/sequences_IDs/B/08_slipper.jpg,html/resources/sequences_IDs/A/05_peacock.jpg,8,5,3,2,2,1,6,4,0,36,,,,,,,,,,,,,,,,,,,,
,,,,,36,2020-07-03_16h57.45.275,retriever_ti,2020.1.3,Win32,60,Chrome,1366,768,,,,,,,,,,,,,,,,,1,,,,,,,,,,,,,,,,,,,,,,,,,,,679.125115,39,right,0.922005,radio       ,4,10,2,1,3,679.14272,679.14272,681.63024,0,38,38,38,1,39,2,4,gloves      ,radio       ,html/resources/sequences_IDs/B/06_gloves.jpg,html/resources/sequences_IDs/B/10_radio.jpg,6,10,3,2,4,2,5,8,0,36,,,,,,,,,,,,,,,,,,,,
,,,,,36,2020-07-03_16h57.45.275,retriever_ti,2020.1.3,Win32,60,Chrome,1366,768,,,,,,,,,,,,,,,,,1,,,,,,,,,,,,,,,,,,,,,,,,,,,682.232435,40,right,0.94107,gloves      ,2,6,1,1,1,682.26701,682.26701,684.754575,0,39,39,39,1,40,1,2,peacock       ,gloves      ,html/resources/sequences_IDs/A/05_peacock.jpg,html/resources/sequences_IDs/B/06_gloves.jpg,5,6,2,1,3,2,4,5,0,36,,,,,,,,,,,,,,,,,,,,
,,,,,36,2020-07-03_16h57.45.275,retriever_ti,2020.1.3,Win32,60,Chrome,1366,768,,,,,,,,,,,,,,,,,1,,,,,,,,,,,,,,,,,,,,,,,,,,,685.858575,41,left,1.73907,slipper     ,6,8,-1,0,0,685.875255,685.875255,688.362945,0,40,40,40,1,41,6,7,slipper     ,seaturtle     ,html/resources/sequences_IDs/B/08_slipper.jpg,html/resources/sequences_IDs/A/02_seaturtle.jpg,8,2,3,2,2,1,6,2,0,36,,,,,,,,,,,,,,,,,,,,
,,,,,36,2020-07-03_16h57.45.275,retriever_ti,2020.1.3,Win32,60,Chrome,1366,768,,,,,,,,,,,,,,,,,1,,,,,,,,,,,,,,,,,,,,,,,,,,,689.4673,42,left,0.92406,gloves      ,2,6,-1,0,0,689.48422,689.48422,691.97109,0,41,41,41,1,42,2,3,gloves      ,wolf          ,html/resources/sequences_IDs/B/06_gloves.jpg,html/resources/sequences_IDs/A/01_wolf.jpg,6,1,3,2,1,1,5,1,0,36,,,,,,,,,,,,,,,,,,,,
,,,,,36,2020-07-03_16h57.45.275,retriever_ti,2020.1.3,Win32,60,Chrome,1366,768,,,,,,,,,,,,,,,,,1,,,,,,,,,,,,,,,,,,,,,,,,,,,693.075245,43,right,0.78119,phone       ,8,9,6,1,3,693.109945,693.109945,695.5972,0,42,42,42,1,43,2,8,gloves      ,phone       ,html/resources/sequences_IDs/B/06_gloves.jpg,html/resources/sequences_IDs/B/09_phone.jpg,6,9,3,2,4,2,5,7,0,36,,,,,,,,,,,,,,,,,,,,
,,,,,36,2020-07-03_16h57.45.275,retriever_ti,2020.1.3,Win32,60,Chrome,1366,768,,,,,,,,,,,,,,,,,1,,,,,,,,,,,,,,,,,,,,,,,,,,,696.19934,44,right,1.214165,gloves      ,2,6,-1,0,0,696.23396,696.23396,698.721335,0,43,43,43,1,44,3,2,wolf          ,gloves      ,html/resources/sequences_IDs/A/01_wolf.jpg,html/resources/sequences_IDs/B/06_gloves.jpg,1,6,1,1,3,2,1,5,0,36,,,,,,,,,,,,,,,,,,,,
,,,,,36,2020-07-03_16h57.45.275,retriever_ti,2020.1.3,Win32,60,Chrome,1366,768,,,,,,,,,,,,,,,,,1,,,,,,,,,,,,,,,,,,,,,,,,,,,699.82519,45,left,0.85258,phone       ,8,9,1,1,1,699.842635,699.842635,702.330595,0,44,44,44,1,45,8,7,phone       ,seaturtle     ,html/resources/sequences_IDs/B/09_phone.jpg,html/resources/sequences_IDs/A/02_seaturtle.jpg,9,2,4,2,2,1,7,2,0,36,,,,,,,,,,,,,,,,,,,,
,,,,,36,2020-07-03_16h57.45.275,retriever_ti,2020.1.3,Win32,60,Chrome,1366,768,,,,,,,,,,,,,,,,,1,,,,,,,,,,,,,,,,,,,,,,,,,,,703.43366,46,right,0.9623,camel         ,5,3,4,1,3,703.467855,703.467855,705.95531,0,45,45,45,1,46,1,5,peacock       ,camel         ,html/resources/sequences_IDs/A/05_peacock.jpg,html/resources/sequences_IDs/A/03_camel.jpg,5,3,2,1,1,1,4,3,0,36,,,,,,,,,,,,,,,,,,,,
,,,,,36,2020-07-03_16h57.45.275,retriever_ti,2020.1.3,Win32,60,Chrome,1366,768,,,,,,,,,,,,,,,,,1,,,,,,,,,,,,,,,,,,,,,,,,,,,706.55758,47,left,1.096105,gloves      ,2,6,1,1,1,706.575335,706.575335,709.06249,0,46,46,46,1,47,2,1,gloves      ,peacock       ,html/resources/sequences_IDs/B/06_gloves.jpg,html/resources/sequences_IDs/A/05_peacock.jpg,6,5,3,2,2,1,5,4,0,36,,,,,,,,,,,,,,,,,,,,
,,,,,36,2020-07-03_16h57.45.275,retriever_ti,2020.1.3,Win32,60,Chrome,1366,768,,,,,,,,,,,,,,,,,1,,,,,,,,,,,,,,,,,,,,,,,,,,,710.16652,48,right,1.12433,phone       ,8,9,7,1,3,710.18395,710.18395,712.67148,0,47,47,47,1,48,1,8,peacock       ,phone       ,html/resources/sequences_IDs/A/05_peacock.jpg,html/resources/sequences_IDs/B/09_phone.jpg,5,9,2,1,4,2,4,7,0,36,,,,,,,,,,,,,,,,,,,,
,,,,,36,2020-07-03_16h57.45.275,retriever_ti,2020.1.3,Win32,60,Chrome,1366,768,,,,,,,,,,,,,,,,,1,,,,,,,,,,,,,,,,,,,,,,,,,,,713.27341,49,left,1.309885,slipper     ,6,8,3,1,3,713.29153,713.29153,715.778235,0,48,48,48,1,49,6,3,slipper     ,wolf          ,html/resources/sequences_IDs/B/08_slipper.jpg,html/resources/sequences_IDs/A/01_wolf.jpg,8,1,3,2,1,1,6,1,0,36,,,,,,,,,,,,,,,,,,,,
,,,,,36,2020-07-03_16h57.45.275,retriever_ti,2020.1.3,Win32,60,Chrome,1366,768,,,,,,,,,,,,,,,,,1,,,,,,,,,,,,,,,,,,,,,,,,,,,716.38125,50,right,0.76859,peacock       ,1,5,-2,0,3,716.39863,716.39863,718.88647,0,49,49,49,1,50,3,1,wolf          ,peacock       ,html/resources/sequences_IDs/A/01_wolf.jpg,html/resources/sequences_IDs/A/05_peacock.jpg,1,5,1,1,2,1,1,4,0,36,,,,,,,,,,,,,,,,,,,,
,,,,,36,2020-07-03_16h57.45.275,retriever_ti,2020.1.3,Win32,60,Chrome,1366,768,,,,,,,,,,,,,,,,,1,,,,,,,,,,,,,,,,,,,,,,,,,,,719.48895,51,right,0.85134,seaturtle     ,7,2,6,1,3,719.522835,719.522835,722.009785,0,50,50,50,1,51,1,7,peacock       ,seaturtle     ,html/resources/sequences_IDs/A/05_peacock.jpg,html/resources/sequences_IDs/A/02_seaturtle.jpg,5,2,2,1,2,1,4,2,0,36,,,,,,,,,,,,,,,,,,,,
,,,,,36,2020-07-03_16h57.45.275,retriever_ti,2020.1.3,Win32,60,Chrome,1366,768,,,,,,,,,,,,,,,,,1,,,,,,,,,,,,,,,,,,,,,,,,,,,722.61547,52,left,0.95551,peacock       ,1,5,-1,0,0,722.63659,722.63659,725.134805,0,51,51,51,1,52,1,2,peacock       ,gloves      ,html/resources/sequences_IDs/A/05_peacock.jpg,html/resources/sequences_IDs/B/06_gloves.jpg,5,6,2,1,3,2,4,5,0,36,,,,,,,,,,,,,,,,,,,,
,,,,,36,2020-07-03_16h57.45.275,retriever_ti,2020.1.3,Win32,60,Chrome,1366,768,,,,,,,,,,,,,,,,,1,,,,,,,,,,,,,,,,,,,,,,,,,,,726.23849,53,right,1.45442,slipper     ,6,8,-2,0,3,726.27203,726.27203,728.759865,0,52,52,52,1,53,8,6,phone       ,slipper     ,html/resources/sequences_IDs/B/09_phone.jpg,html/resources/sequences_IDs/B/08_slipper.jpg,9,8,4,2,3,2,7,6,0,36,,,,,,,,,,,,,,,,,,,,
,,,,,36,2020-07-03_16h57.45.275,retriever_ti,2020.1.3,Win32,60,Chrome,1366,768,,,,,,,,,,,,,,,,,1,,,,,,,,,,,,,,,,,,,,,,,,,,,729.3631,54,left,1.244955,radio       ,4,10,-1,0,0,729.387025,729.387025,731.884175,0,53,53,53,1,54,4,5,radio       ,camel         ,html/resources/sequences_IDs/B/10_radio.jpg,html/resources/sequences_IDs/A/03_camel.jpg,10,3,4,2,1,1,8,3,0,36,,,,,,,,,,,,,,,,,,,,
,,,,,36,2020-07-03_16h57.45.275,retriever_ti,2020.1.3,Win32,60,Chrome,1366,768,,,,,,,,,,,,,,,,,1,,,,,,,,,,,,,,,,,,,,,,,,,,,732.988085,55,left,1.512655,slipper     ,6,8,-1,0,0,733.005005,733.005005,735.491935,0,54,54,54,1,55,6,7,slipper     ,seaturtle     ,html/resources/sequences_IDs/B/08_slipper.jpg,html/resources/sequences_IDs/A/02_seaturtle.jpg,8,2,3,2,2,1,6,2,0,36,,,,,,,,,,,,,,,,,,,,
,,,,,36,2020-07-03_16h57.45.275,retriever_ti,2020.1.3,Win32,60,Chrome,1366,768,,,,,,,,,,,,,,,,,1,,,,,,,,,,,,,,,,,,,,,,,,,,,736.59621,56,left,1.260645,wolf          ,3,1,1,1,0,736.630515,736.630515,739.117395,0,55,55,55,1,56,3,2,wolf          ,gloves      ,html/resources/sequences_IDs/A/01_wolf.jpg,html/resources/sequences_IDs/B/06_gloves.jpg,1,6,1,1,3,2,1,5,1,36,,,,,,,,,,,,,,,,,,,,
,,,,,36,2020-07-03_16h57.45.275,retriever_ti,2020.1.3,Win32,60,Chrome,1366,768,,,,,,,,,,,,,,,,,1,,,,,,,,,,,,,,,,,,,,,,,,,,,740.221185,57,left,1.200155,radio       ,4,10,-4,0,3,740.255975,740.255975,742.74342,0,56,56,56,1,57,4,8,radio       ,phone       ,html/resources/sequences_IDs/B/10_radio.jpg,html/resources/sequences_IDs/B/09_phone.jpg,10,9,4,2,4,2,8,7,0,36,,,,,,,,,,,,,,,,,,,,
,,,,,36,2020-07-03_16h57.45.275,retriever_ti,2020.1.3,Win32,60,Chrome,1366,768,,,,,,,,,,,,,,,,,1,,,,,,,,,,,,,,,,,,,,,,,,,,,743.34504,58,right,0.768675,slipper     ,6,8,4,1,3,743.36405,743.36405,745.851015,0,57,57,57,1,58,2,6,gloves      ,slipper     ,html/resources/sequences_IDs/B/06_gloves.jpg,html/resources/sequences_IDs/B/08_slipper.jpg,6,8,3,2,3,2,5,6,0,36,,,,,,,,,,,,,,,,,,,,
,,,,,36,2020-07-03_16h57.45.275,retriever_ti,2020.1.3,Win32,60,Chrome,1366,768,,,,,,,,,,,,,,,,,1,,,,,,,,,,,,,,,,,,,,,,,,,,,746.453175,59,left,0.641635,seaturtle     ,7,2,1,1,1,746.487725,746.487725,748.97531,0,58,58,58,1,59,7,6,seaturtle     ,slipper     ,html/resources/sequences_IDs/A/02_seaturtle.jpg,html/resources/sequences_IDs/B/08_slipper.jpg,2,8,2,1,3,2,2,6,0,36,,,,,,,,,,,,,,,,,,,,
,,,,,36,2020-07-03_16h57.45.275,retriever_ti,2020.1.3,Win32,60,Chrome,1366,768,,,,,,,,,,,,,,,,,1,,,,,,,,,,,,,,,,,,,,,,,,,,,750.079045,60,right,1.22533,wolf          ,3,1,-4,0,3,750.09628,750.09628,752.583965,0,59,59,59,1,60,7,3,seaturtle     ,wolf          ,html/resources/sequences_IDs/A/02_seaturtle.jpg,html/resources/sequences_IDs/A/01_wolf.jpg,2,1,2,1,1,1,2,1,0,36,,,,,,,,,,,,,,,,,,,,
,,,,,36,2020-07-03_16h57.45.275,retriever_ti,2020.1.3,Win32,60,Chrome,1366,768,,,,,,,,,,,,,,,,,1,,,,,,,,,,,,,,,,,,,,,,,,,,,753.186125,61,left,0.74336,seaturtle     ,7,2,-1,0,0,753.20353,753.20353,755.69136,0,60,60,60,1,61,7,8,seaturtle     ,phone       ,html/resources/sequences_IDs/A/02_seaturtle.jpg,html/resources/sequences_IDs/B/09_phone.jpg,2,9,2,1,4,2,2,7,0,36,,,,,,,,,,,,,,,,,,,,
,,,,,36,2020-07-03_16h57.45.275,retriever_ti,2020.1.3,Win32,60,Chrome,1366,768,,,,,,,,,,,,,,,,,1,,,,,,,,,,,,,,,,,,,,,,,,,,,756.79487,62,left,0.91634,wolf          ,3,1,-4,0,3,756.812365,756.812365,759.299645,0,61,61,61,1,62,3,7,wolf          ,seaturtle     ,html/resources/sequences_IDs/A/01_wolf.jpg,html/resources/sequences_IDs/A/02_seaturtle.jpg,1,2,1,1,2,1,1,2,0,36,,,,,,,,,,,,,,,,,,,,
,,,,,36,2020-07-03_16h57.45.275,retriever_ti,2020.1.3,Win32,60,Chrome,1366,768,,,,,,,,,,,,,,,,,1,,,,,,,,,,,,,,,,,,,,,,,,,,,759.902975,63,right,0.811395,peacock       ,1,5,-3,0,3,759.93645,759.93645,762.42316,0,62,62,62,1,63,4,1,radio       ,peacock       ,html/resources/sequences_IDs/B/10_radio.jpg,html/resources/sequences_IDs/A/05_peacock.jpg,10,5,4,2,2,1,8,4,0,36,,,,,,,,,,,,,,,,,,,,
,,,,,36,2020-07-03_16h57.45.275,retriever_ti,2020.1.3,Win32,60,Chrome,1366,768,,,,,,,,,,,,,,,,,1,,,,,,,,,,,,,,,,,,,,,,,,,,,763.026115,64,right,0.98818,radio       ,4,10,1,1,0,763.04384,763.04384,765.531255,0,63,63,63,1,64,3,4,wolf          ,radio       ,html/resources/sequences_IDs/A/01_wolf.jpg,html/resources/sequences_IDs/B/10_radio.jpg,1,10,1,1,4,2,1,8,1,36,,,,,,,,,,,,,,,,,,,,
,,,,,36,2020-07-03_16h57.45.275,retriever_ti,2020.1.3,Win32,60,Chrome,1366,768,,,,,,,,,,,,,,,,,1,,,,,,,,,,,,,,,,,,,,,,,,,,,766.63556,65,left,0.964655,camel         ,5,3,1,1,1,766.669035,766.669035,769.156695,0,64,64,64,1,65,5,4,camel         ,radio       ,html/resources/sequences_IDs/A/03_camel.jpg,html/resources/sequences_IDs/B/10_radio.jpg,3,10,1,1,4,2,3,8,0,36,,,,,,,,,,,,,,,,,,,,
,,,,,36,2020-07-03_16h57.45.275,retriever_ti,2020.1.3,Win32,60,Chrome,1366,768,,,,,,,,,,,,,,,,,1,,,,,,,,,,,,,,,,,,,,,,,,,,,770.260695,66,right,0.704885,wolf          ,3,1,-5,0,3,770.278045,770.278045,772.765825,0,65,65,65,1,66,8,3,phone       ,wolf          ,html/resources/sequences_IDs/B/09_phone.jpg,html/resources/sequences_IDs/A/01_wolf.jpg,9,1,4,2,1,1,7,1,0,36,,,,,,,,,,,,,,,,,,,,
,,,,,36,2020-07-03_16h57.45.275,retriever_ti,2020.1.3,Win32,60,Chrome,1366,768,,,,,,,,,,,,,,,,,1,,,,,,,,,,,,,,,,,,,,,,,,,,,773.36708,67,left,1.76813,slipper     ,6,8,-2,0,3,773.402535,773.402535,775.889615,0,66,66,66,1,67,6,8,slipper     ,phone       ,html/resources/sequences_IDs/B/08_slipper.jpg,html/resources/sequences_IDs/B/09_phone.jpg,8,9,3,2,4,2,6,7,0,36,,,,,,,,,,,,,,,,,,,,
,,,,,36,2020-07-03_16h57.45.275,retriever_ti,2020.1.3,Win32,60,Chrome,1366,768,,,,,,,,,,,,,,,,,1,,,,,,,,,,,,,,,,,,,,,,,,,,,776.49203,68,right,0.99419,peacock       ,1,5,-6,0,3,776.5264,776.5264,779.013815,0,67,67,67,1,68,7,1,seaturtle     ,peacock       ,html/resources/sequences_IDs/A/02_seaturtle.jpg,html/resources/sequences_IDs/A/05_peacock.jpg,2,5,2,1,2,1,2,4,0,36,,,,,,,,,,,,,,,,,,,,
,,,,,36,2020-07-03_16h57.45.275,retriever_ti,2020.1.3,Win32,60,Chrome,1366,768,,,,,,,,,,,,,,,,,1,,,,,,,,,,,,,,,,,,,,,,,,,,,779.616535,69,right,1.26328,wolf          ,3,1,2,1,3,779.63372,779.63372,782.120455,0,68,68,68,1,69,1,3,peacock       ,wolf          ,html/resources/sequences_IDs/A/05_peacock.jpg,html/resources/sequences_IDs/A/01_wolf.jpg,5,1,2,1,1,1,4,1,0,36,,,,,,,,,,,,,,,,,,,,
,,,,,36,2020-07-03_16h57.45.275,retriever_ti,2020.1.3,Win32,60,Chrome,1366,768,,,,,,,,,,,,,,,,,1,,,,,,,,,,,,,,,,,,,,,,,,,,,782.72308,70,right,1.78443,wolf          ,3,1,-1,0,0,782.7579,782.7579,785.24529,0,69,69,69,1,70,4,3,radio       ,wolf          ,html/resources/sequences_IDs/B/10_radio.jpg,html/resources/sequences_IDs/A/01_wolf.jpg,10,1,4,2,1,1,8,1,0,36,,,,,,,,,,,,,,,,,,,,
,,,,,36,2020-07-03_16h57.45.275,retriever_ti,2020.1.3,Win32,60,Chrome,1366,768,,,,,,,,,,,,,,,,,1,,,,,,,,,,,,,,,,,,,,,,,,,,,786.34909,71,left,0.9168,slipper     ,6,8,1,1,1,786.383,786.383,788.870775,0,70,70,70,1,71,6,5,slipper     ,camel         ,html/resources/sequences_IDs/B/08_slipper.jpg,html/resources/sequences_IDs/A/03_camel.jpg,8,3,3,2,1,1,6,3,0,36,,,,,,,,,,,,,,,,,,,,
,,,,,36,2020-07-03_16h57.45.275,retriever_ti,2020.1.3,Win32,60,Chrome,1366,768,,,,,,,,,,,,,,,,,1,,,,,,,,,,,,,,,,,,,,,,,,,,,789.97443,72,left,1.296595,radio       ,4,10,1,1,1,790.00867,790.00867,792.49611,0,71,71,71,1,72,4,3,radio       ,wolf          ,html/resources/sequences_IDs/B/10_radio.jpg,html/resources/sequences_IDs/A/01_wolf.jpg,10,1,4,2,1,1,8,1,0,36,,,,,,,,,,,,,,,,,,,,
,,,,,36,2020-07-03_16h57.45.275,retriever_ti,2020.1.3,Win32,60,Chrome,1366,768,,,,,,,,,,,,,,,,,1,,,,,,,,,,,,,,,,,,,,,,,,,,,793.599135,73,left,0.99757,slipper     ,6,8,4,1,3,793.633735,793.633735,796.121625,0,72,72,72,1,73,6,2,slipper     ,gloves      ,html/resources/sequences_IDs/B/08_slipper.jpg,html/resources/sequences_IDs/B/06_gloves.jpg,8,6,3,2,3,2,6,5,0,36,,,,,,,,,,,,,,,,,,,,
,,,,,36,2020-07-03_16h57.45.275,retriever_ti,2020.1.3,Win32,60,Chrome,1366,768,,,,,,,,,,,,,,,,,1,,,,,,,,,,,,,,,,,,,,,,,,,,,796.724255,74,left,1.097315,seaturtle     ,7,2,3,1,3,796.758045,796.758045,799.245745,0,73,73,73,1,74,7,4,seaturtle     ,radio       ,html/resources/sequences_IDs/A/02_seaturtle.jpg,html/resources/sequences_IDs/B/10_radio.jpg,2,10,2,1,4,2,2,8,0,36,,,,,,,,,,,,,,,,,,,,
,,,,,36,2020-07-03_16h57.45.275,retriever_ti,2020.1.3,Win32,60,Chrome,1366,768,,,,,,,,,,,,,,,,,1,,,,,,,,,,,,,,,,,,,,,,,,,,,799.84834,75,right,1.117965,slipper     ,6,8,2,1,3,799.86529,799.86529,802.353065,0,74,74,74,1,75,4,6,radio       ,slipper     ,html/resources/sequences_IDs/B/10_radio.jpg,html/resources/sequences_IDs/B/08_slipper.jpg,10,8,4,2,3,2,8,6,0,36,,,,,,,,,,,,,,,,,,,,
,,,,,36,2020-07-03_16h57.45.275,retriever_ti,2020.1.3,Win32,60,Chrome,1366,768,,,,,,,,,,,,,,,,,1,,,,,,,,,,,,,,,,,,,,,,,,,,,803.054585,76,left,0.76528,slipper     ,6,8,2,1,3,803.242245,803.242245,805.74456,0,75,75,75,1,76,6,4,slipper     ,radio       ,html/resources/sequences_IDs/B/08_slipper.jpg,html/resources/sequences_IDs/B/10_radio.jpg,8,10,3,2,4,2,6,8,0,36,,,,,,,,,,,,,,,,,,,,
,,,,,36,2020-07-03_16h57.45.275,retriever_ti,2020.1.3,Win32,60,Chrome,1366,768,,,,,,,,,,,,,,,,,1,,,,,,,,,,,,,,,,,,,,,,,,,,,806.34659,77,left,1.576835,peacock       ,1,5,-1,0,1,806.364175,806.364175,808.852105,0,76,76,76,1,77,1,2,peacock       ,gloves      ,html/resources/sequences_IDs/A/05_peacock.jpg,html/resources/sequences_IDs/B/06_gloves.jpg,5,6,2,1,3,2,4,5,1,36,,,,,,,,,,,,,,,,,,,,
,,,,,36,2020-07-03_16h57.45.275,retriever_ti,2020.1.3,Win32,60,Chrome,1366,768,,,,,,,,,,,,,,,,,,,,,,,,,,,,,,,,,,,,,0,5.06746,,,,,,,,,,,,,,,,,,,,,,,,,,,,,,,,,,,,,,,,,0,0,0,0,1,,,,,,,,,,,,,,,
,,,,,36,2020-07-03_16h57.45.275,retriever_ti,2020.1.3,Win32,60,Chrome,1366,768,,,,,,,,,,,,,,,,,2,,,,,,,,,,,,,,,,,,,,,,,,,,,830.564705,78,right,1.299475,slipper     ,6,8,4,1,3,830.57349,830.57349,833.059885,0,0,0,0,1,78,2,6,gloves      ,slipper     ,html/resources/sequences_IDs/B/06_gloves.jpg,html/resources/sequences_IDs/B/08_slipper.jpg,6,8,3,2,3,2,5,6,0,36,,,,,,,,,,,,,,,,,,,,
,,,,,36,2020-07-03_16h57.45.275,retriever_ti,2020.1.3,Win32,60,Chrome,1366,768,,,,,,,,,,,,,,,,,2,,,,,,,,,,,,,,,,,,,,,,,,,,,833.66287,79,right,1.614945,wolf          ,3,1,1,1,1,833.679905,833.679905,836.167215,0,1,1,1,1,79,2,3,gloves      ,wolf          ,html/resources/sequences_IDs/B/06_gloves.jpg,html/resources/sequences_IDs/A/01_wolf.jpg,6,1,3,2,1,1,5,1,0,36,,,,,,,,,,,,,,,,,,,,
,,,,,36,2020-07-03_16h57.45.275,retriever_ti,2020.1.3,Win32,60,Chrome,1366,768,,,,,,,,,,,,,,,,,2,,,,,,,,,,,,,,,,,,,,,,,,,,,837.271255,80,left,1.325505,wolf          ,3,1,-5,0,3,837.305695,837.305695,839.792275,0,2,2,2,1,80,3,8,wolf          ,phone       ,html/resources/sequences_IDs/A/01_wolf.jpg,html/resources/sequences_IDs/B/09_phone.jpg,1,9,1,1,4,2,1,7,0,36,,,,,,,,,,,,,,,,,,,,
,,,,,36,2020-07-03_16h57.45.275,retriever_ti,2020.1.3,Win32,60,Chrome,1366,768,,,,,,,,,,,,,,,,,2,,,,,,,,,,,,,,,,,,,,,,,,,,,840.394885,81,left,1.137325,wolf          ,3,1,1,1,1,840.42967,840.42967,842.917075,0,3,3,3,1,81,3,2,wolf          ,gloves      ,html/resources/sequences_IDs/A/01_wolf.jpg,html/resources/sequences_IDs/B/06_gloves.jpg,1,6,1,1,3,2,1,5,0,36,,,,,,,,,,,,,,,,,,,,
,,,,,36,2020-07-03_16h57.45.275,retriever_ti,2020.1.3,Win32,60,Chrome,1366,768,,,,,,,,,,,,,,,,,2,,,,,,,,,,,,,,,,,,,,,,,,,,,844.02083,82,left,1.13579,gloves      ,2,6,-2,0,3,844.05485,844.05485,846.54236,0,4,4,4,1,82,2,4,gloves      ,radio       ,html/resources/sequences_IDs/B/06_gloves.jpg,html/resources/sequences_IDs/B/10_radio.jpg,6,10,3,2,4,2,5,8,0,36,,,,,,,,,,,,,,,,,,,,
,,,,,36,2020-07-03_16h57.45.275,retriever_ti,2020.1.3,Win32,60,Chrome,1366,768,,,,,,,,,,,,,,,,,2,,,,,,,,,,,,,,,,,,,,,,,,,,,847.144615,83,left,1.21731,wolf          ,3,1,2,1,3,847.179535,847.179535,849.666495,0,5,5,5,1,83,3,1,wolf          ,peacock       ,html/resources/sequences_IDs/A/01_wolf.jpg,html/resources/sequences_IDs/A/05_peacock.jpg,1,5,1,1,2,1,1,4,0,36,,,,,,,,,,,,,,,,,,,,
,,,,,36,2020-07-03_16h57.45.275,retriever_ti,2020.1.3,Win32,60,Chrome,1366,768,,,,,,,,,,,,,,,,,2,,,,,,,,,,,,,,,,,,,,,,,,,,,850.26856,84,left,1.335445,camel         ,5,3,1,1,1,850.28657,850.28657,852.773425,0,6,6,6,1,84,5,4,camel         ,radio       ,html/resources/sequences_IDs/A/03_camel.jpg,html/resources/sequences_IDs/B/10_radio.jpg,3,10,1,1,4,2,3,8,0,36,,,,,,,,,,,,,,,,,,,,
,,,,,36,2020-07-03_16h57.45.275,retriever_ti,2020.1.3,Win32,60,Chrome,1366,768,,,,,,,,,,,,,,,,,2,,,,,,,,,,,,,,,,,,,,,,,,,,,853.87849,85,right,1.1763,camel         ,5,3,3,1,3,853.91212,853.91212,856.39933,0,7,7,7,1,85,2,5,gloves      ,camel         ,html/resources/sequences_IDs/B/06_gloves.jpg,html/resources/sequences_IDs/A/03_camel.jpg,6,3,3,2,1,1,5,3,0,36,,,,,,,,,,,,,,,,,,,,
,,,,,36,2020-07-03_16h57.45.275,retriever_ti,2020.1.3,Win32,60,Chrome,1366,768,,,,,,,,,,,,,,,,,2,,,,,,,,,,,,,,,,,,,,,,,,,,,857.00124,86,left,1.57103,slipper     ,6,8,-1,0,0,857.03587,857.03587,859.522805,0,8,8,8,1,86,6,7,slipper     ,seaturtle     ,html/resources/sequences_IDs/B/08_slipper.jpg,html/resources/sequences_IDs/A/02_seaturtle.jpg,8,2,3,2,2,1,6,2,0,36,,,,,,,,,,,,,,,,,,,,
,,,,,36,2020-07-03_16h57.45.275,retriever_ti,2020.1.3,Win32,60,Chrome,1366,768,,,,,,,,,,,,,,,,,2,,,,,,,,,,,,,,,,,,,,,,,,,,,860.62692,87,left,1.52722,wolf          ,3,1,-1,0,0,860.64474,860.64474,863.131835,0,9,9,9,1,87,3,4,wolf          ,radio       ,html/resources/sequences_IDs/A/01_wolf.jpg,html/resources/sequences_IDs/B/10_radio.jpg,1,10,1,1,4,2,1,8,0,36,,,,,,,,,,,,,,,,,,,,
,,,,,36,2020-07-03_16h57.45.275,retriever_ti,2020.1.3,Win32,60,Chrome,1366,768,,,,,,,,,,,,,,,,,2,,,,,,,,,,,,,,,,,,,,,,,,,,,864.236055,88,left,1.67556,peacock       ,1,5,-4,0,3,864.269955,864.269955,866.75686,0,10,10,10,1,88,1,5,peacock       ,camel         ,html/resources/sequences_IDs/A/05_peacock.jpg,html/resources/sequences_IDs/A/03_camel.jpg,5,3,2,1,1,1,4,3,0,36,,,,,,,,,,,,,,,,,,,,
,,,,,36,2020-07-03_16h57.45.275,retriever_ti,2020.1.3,Win32,60,Chrome,1366,768,,,,,,,,,,,,,,,,,2,,,,,,,,,,,,,,,,,,,,,,,,,,,867.36031,89,right,0.78444,radio       ,4,10,-2,0,3,867.39425,867.39425,869.88177,0,11,11,11,1,89,6,4,slipper     ,radio       ,html/resources/sequences_IDs/B/08_slipper.jpg,html/resources/sequences_IDs/B/10_radio.jpg,8,10,3,2,4,2,6,8,0,36,,,,,,,,,,,,,,,,,,,,
,,,,,36,2020-07-03_16h57.45.275,retriever_ti,2020.1.3,Win32,60,Chrome,1366,768,,,,,,,,,,,,,,,,,2,,,,,,,,,,,,,,,,,,,,,,,,,,,870.48404,90,right,0.66789,radio       ,4,10,3,1,3,870.518245,870.518245,873.005055,0,12,12,12,1,90,1,4,peacock       ,radio       ,html/resources/sequences_IDs/A/05_peacock.jpg,html/resources/sequences_IDs/B/10_radio.jpg,5,10,2,1,4,2,4,8,0,36,,,,,,,,,,,,,,,,,,,,
,,,,,36,2020-07-03_16h57.45.275,retriever_ti,2020.1.3,Win32,60,Chrome,1366,768,,,,,,,,,,,,,,,,,2,,,,,,,,,,,,,,,,,,,,,,,,,,,873.609055,91,left,1.024635,radio       ,4,10,3,1,3,873.64275,873.64275,876.12993,0,13,13,13,1,91,4,1,radio       ,peacock       ,html/resources/sequences_IDs/B/10_radio.jpg,html/resources/sequences_IDs/A/05_peacock.jpg,10,5,4,2,2,1,8,4,0,36,,,,,,,,,,,,,,,,,,,,
,,,,,36,2020-07-03_16h57.45.275,retriever_ti,2020.1.3,Win32,60,Chrome,1366,768,,,,,,,,,,,,,,,,,2,,,,,,,,,,,,,,,,,,,,,,,,,,,876.73192,92,right,1.13612,phone       ,8,9,6,1,3,876.766505,876.766505,879.2537,0,14,14,14,1,92,2,8,gloves      ,phone       ,html/resources/sequences_IDs/B/06_gloves.jpg,html/resources/sequences_IDs/B/09_phone.jpg,6,9,3,2,4,2,5,7,0,36,,,,,,,,,,,,,,,,,,,,
,,,,,36,2020-07-03_16h57.45.275,retriever_ti,2020.1.3,Win32,60,Chrome,1366,768,,,,,,,,,,,,,,,,,2,,,,,,,,,,,,,,,,,,,,,,,,,,,879.85826,93,right,1.337355,wolf          ,3,1,-2,0,3,879.891215,879.891215,882.377895,0,15,15,15,1,93,5,3,camel         ,wolf          ,html/resources/sequences_IDs/A/03_camel.jpg,html/resources/sequences_IDs/A/01_wolf.jpg,3,1,1,1,1,1,3,1,0,36,,,,,,,,,,,,,,,,,,,,
,,,,,36,2020-07-03_16h57.45.275,retriever_ti,2020.1.3,Win32,60,Chrome,1366,768,,,,,,,,,,,,,,,,,2,,,,,,,,,,,,,,,,,,,,,,,,,,,882.980525,94,right,1.431505,seaturtle     ,7,2,-1,0,0,883.01474,883.01474,885.503725,0,16,16,16,1,94,8,7,phone       ,seaturtle     ,html/resources/sequences_IDs/B/09_phone.jpg,html/resources/sequences_IDs/A/02_seaturtle.jpg,9,2,4,2,2,1,7,2,0,36,,,,,,,,,,,,,,,,,,,,
,,,,,36,2020-07-03_16h57.45.275,retriever_ti,2020.1.3,Win32,60,Chrome,1366,768,,,,,,,,,,,,,,,,,2,,,,,,,,,,,,,,,,,,,,,,,,,,,886.606355,95,right,0.75154,phone       ,8,9,1,1,0,886.64037,886.64037,889.127245,0,17,17,17,1,95,7,8,seaturtle     ,phone       ,html/resources/sequences_IDs/A/02_seaturtle.jpg,html/resources/sequences_IDs/B/09_phone.jpg,2,9,2,1,4,2,2,7,1,36,,,,,,,,,,,,,,,,,,,,
,,,,,36,2020-07-03_16h57.45.275,retriever_ti,2020.1.3,Win32,60,Chrome,1366,768,,,,,,,,,,,,,,,,,2,,,,,,,,,,,,,,,,,,,,,,,,,,,890.231195,96,left,1.70298,gloves      ,2,6,-5,0,3,890.24901,890.24901,892.73627,0,18,18,18,1,96,2,7,gloves      ,seaturtle     ,html/resources/sequences_IDs/B/06_gloves.jpg,html/resources/sequences_IDs/A/02_seaturtle.jpg,6,2,3,2,2,1,5,2,0,36,,,,,,,,,,,,,,,,,,,,
,,,,,36,2020-07-03_16h57.45.275,retriever_ti,2020.1.3,Win32,60,Chrome,1366,768,,,,,,,,,,,,,,,,,2,,,,,,,,,,,,,,,,,,,,,,,,,,,893.33942,97,right,1.434025,wolf          ,3,1,1,1,1,893.356615,893.356615,895.843715,0,19,19,19,1,97,2,3,gloves      ,wolf          ,html/resources/sequences_IDs/B/06_gloves.jpg,html/resources/sequences_IDs/A/01_wolf.jpg,6,1,3,2,1,1,5,1,0,36,,,,,,,,,,,,,,,,,,,,
,,,,,36,2020-07-03_16h57.45.275,retriever_ti,2020.1.3,Win32,60,Chrome,1366,768,,,,,,,,,,,,,,,,,2,,,,,,,,,,,,,,,,,,,,,,,,,,,896.947805,98,left,1.62548,peacock       ,1,5,-1,0,1,896.96517,896.96517,899.45205,0,20,20,20,1,98,1,2,peacock       ,gloves      ,html/resources/sequences_IDs/A/05_peacock.jpg,html/resources/sequences_IDs/B/06_gloves.jpg,5,6,2,1,3,2,4,5,1,36,,,,,,,,,,,,,,,,,,,,
,,,,,36,2020-07-03_16h57.45.275,retriever_ti,2020.1.3,Win32,60,Chrome,1366,768,,,,,,,,,,,,,,,,,2,,,,,,,,,,,,,,,,,,,,,,,,,,,900.555715,99,left,0.996055,camel         ,5,3,3,1,3,900.573905,900.573905,903.0606,0,21,21,21,1,99,5,2,camel         ,gloves      ,html/resources/sequences_IDs/A/03_camel.jpg,html/resources/sequences_IDs/B/06_gloves.jpg,3,6,1,1,3,2,3,5,0,36,,,,,,,,,,,,,,,,,,,,
,,,,,36,2020-07-03_16h57.45.275,retriever_ti,2020.1.3,Win32,60,Chrome,1366,768,,,,,,,,,,,,,,,,,2,,,,,,,,,,,,,,,,,,,,,,,,,,,903.663955,100,left,1.812455,slipper     ,6,8,1,1,1,903.697515,903.697515,906.18539,0,22,22,22,1,100,6,5,slipper     ,camel         ,html/resources/sequences_IDs/B/08_slipper.jpg,html/resources/sequences_IDs/A/03_camel.jpg,8,3,3,2,1,1,6,3,0,36,,,,,,,,,,,,,,,,,,,,
,,,,,36,2020-07-03_16h57.45.275,retriever_ti,2020.1.3,Win32,60,Chrome,1366,768,,,,,,,,,,,,,,,,,2,,,,,,,,,,,,,,,,,,,,,,,,,,,907.28929,101,left,1.620945,slipper     ,6,8,-1,0,0,907.306715,907.306715,909.793555,0,23,23,23,1,101,6,7,slipper     ,seaturtle     ,html/resources/sequences_IDs/B/08_slipper.jpg,html/resources/sequences_IDs/A/02_seaturtle.jpg,8,2,3,2,2,1,6,2,0,36,,,,,,,,,,,,,,,,,,,,
,,,,,36,2020-07-03_16h57.45.275,retriever_ti,2020.1.3,Win32,60,Chrome,1366,768,,,,,,,,,,,,,,,,,2,,,,,,,,,,,,,,,,,,,,,,,,,,,910.89696,102,right,1.135575,camel         ,5,3,2,1,3,910.915085,910.915085,913.402865,0,24,24,24,1,102,3,5,wolf          ,camel         ,html/resources/sequences_IDs/A/01_wolf.jpg,html/resources/sequences_IDs/A/03_camel.jpg,1,3,1,1,1,1,1,3,0,36,,,,,,,,,,,,,,,,,,,,
,,,,,36,2020-07-03_16h57.45.275,retriever_ti,2020.1.3,Win32,60,Chrome,1366,768,,,,,,,,,,,,,,,,,2,,,,,,,,,,,,,,,,,,,,,,,,,,,914.00474,103,left,1.32499,camel         ,5,3,-2,0,3,914.02276,914.02276,916.510445,0,25,25,25,1,103,5,7,camel         ,seaturtle     ,html/resources/sequences_IDs/A/03_camel.jpg,html/resources/sequences_IDs/A/02_seaturtle.jpg,3,2,1,1,2,1,3,2,0,36,,,,,,,,,,,,,,,,,,,,
,,,,,36,2020-07-03_16h57.45.275,retriever_ti,2020.1.3,Win32,60,Chrome,1366,768,,,,,,,,,,,,,,,,,2,,,,,,,,,,,,,,,,,,,,,,,,,,,917.112735,104,left,1.26555,radio       ,4,10,-3,0,3,917.14712,917.14712,919.633305,0,26,26,26,1,104,4,7,radio       ,seaturtle     ,html/resources/sequences_IDs/B/10_radio.jpg,html/resources/sequences_IDs/A/02_seaturtle.jpg,10,2,4,2,2,1,8,2,0,36,,,,,,,,,,,,,,,,,,,,
,,,,,36,2020-07-03_16h57.45.275,retriever_ti,2020.1.3,Win32,60,Chrome,1366,768,,,,,,,,,,,,,,,,,2,,,,,,,,,,,,,,,,,,,,,,,,,,,920.23572,105,right,1.091495,slipper     ,6,8,-1,0,0,920.270835,920.270835,922.758395,0,27,27,27,1,105,7,6,seaturtle     ,slipper     ,html/resources/sequences_IDs/A/02_seaturtle.jpg,html/resources/sequences_IDs/B/08_slipper.jpg,2,8,2,1,3,2,2,6,0,36,,,,,,,,,,,,,,,,,,,,
,,,,,36,2020-07-03_16h57.45.275,retriever_ti,2020.1.3,Win32,60,Chrome,1366,768,,,,,,,,,,,,,,,,,2,,,,,,,,,,,,,,,,,,,,,,,,,,,923.86261,106,right,1.5375,peacock       ,1,5,-1,0,0,923.87946,923.87946,926.36695,0,28,28,28,1,106,2,1,gloves      ,peacock       ,html/resources/sequences_IDs/B/06_gloves.jpg,html/resources/sequences_IDs/A/05_peacock.jpg,6,5,3,2,2,1,5,4,0,36,,,,,,,,,,,,,,,,,,,,
,,,,,36,2020-07-03_16h57.45.275,retriever_ti,2020.1.3,Win32,60,Chrome,1366,768,,,,,,,,,,,,,,,,,2,,,,,,,,,,,,,,,,,,,,,,,,,,,927.470405,107,left,1.395005,wolf          ,3,1,-3,0,3,927.506505,927.506505,929.99245,0,29,29,29,1,107,3,6,wolf          ,slipper     ,html/resources/sequences_IDs/A/01_wolf.jpg,html/resources/sequences_IDs/B/08_slipper.jpg,1,8,1,1,3,2,1,6,0,36,,,,,,,,,,,,,,,,,,,,
,,,,,36,2020-07-03_16h57.45.275,retriever_ti,2020.1.3,Win32,60,Chrome,1366,768,,,,,,,,,,,,,,,,,2,,,,,,,,,,,,,,,,,,,,,,,,,,,930.59423,108,right,0.841075,radio       ,4,10,-4,0,3,930.61466,930.61466,933.09978,0,30,30,30,1,108,8,4,phone       ,radio       ,html/resources/sequences_IDs/B/09_phone.jpg,html/resources/sequences_IDs/B/10_radio.jpg,9,10,4,2,4,2,7,8,0,36,,,,,,,,,,,,,,,,,,,,
,,,,,36,2020-07-03_16h57.45.275,retriever_ti,2020.1.3,Win32,60,Chrome,1366,768,,,,,,,,,,,,,,,,,2,,,,,,,,,,,,,,,,,,,,,,,,,,,933.70262,109,right,1.62098,wolf          ,3,1,-1,0,0,933.73642,933.73642,936.22339,0,31,31,31,1,109,4,3,radio       ,wolf          ,html/resources/sequences_IDs/B/10_radio.jpg,html/resources/sequences_IDs/A/01_wolf.jpg,10,1,4,2,1,1,8,1,0,36,,,,,,,,,,,,,,,,,,,,
,,,,,36,2020-07-03_16h57.45.275,retriever_ti,2020.1.3,Win32,60,Chrome,1366,768,,,,,,,,,,,,,,,,,2,,,,,,,,,,,,,,,,,,,,,,,,,,,937.32784,110,left,1.22242,seaturtle     ,7,2,-1,0,0,937.361675,937.361675,939.848435,0,32,32,32,1,110,7,8,seaturtle     ,phone       ,html/resources/sequences_IDs/A/02_seaturtle.jpg,html/resources/sequences_IDs/B/09_phone.jpg,2,9,2,1,4,2,2,7,0,36,,,,,,,,,,,,,,,,,,,,
,,,,,36,2020-07-03_16h57.45.275,retriever_ti,2020.1.3,Win32,60,Chrome,1366,768,,,,,,,,,,,,,,,,,2,,,,,,,,,,,,,,,,,,,,,,,,,,,940.952685,111,left,1.01094,peacock       ,1,5,-6,0,3,940.970625,940.970625,943.458295,0,33,33,33,1,111,1,7,peacock       ,seaturtle     ,html/resources/sequences_IDs/A/05_peacock.jpg,html/resources/sequences_IDs/A/02_seaturtle.jpg,5,2,2,1,2,1,4,2,0,36,,,,,,,,,,,,,,,,,,,,
,,,,,36,2020-07-03_16h57.45.275,retriever_ti,2020.1.3,Win32,60,Chrome,1366,768,,,,,,,,,,,,,,,,,2,,,,,,,,,,,,,,,,,,,,,,,,,,,944.060865,112,left,1.205835,slipper     ,6,8,4,1,3,944.078205,944.078205,946.56518,0,34,34,34,1,112,6,2,slipper     ,gloves      ,html/resources/sequences_IDs/B/08_slipper.jpg,html/resources/sequences_IDs/B/06_gloves.jpg,8,6,3,2,3,2,6,5,0,36,,,,,,,,,,,,,,,,,,,,
,,,,,36,2020-07-03_16h57.45.275,retriever_ti,2020.1.3,Win32,60,Chrome,1366,768,,,,,,,,,,,,,,,,,2,,,,,,,,,,,,,,,,,,,,,,,,,,,947.16828,113,left,1.0434,phone       ,8,9,3,1,3,947.185565,947.185565,949.673,0,35,35,35,1,113,8,5,phone       ,camel         ,html/resources/sequences_IDs/B/09_phone.jpg,html/resources/sequences_IDs/A/03_camel.jpg,9,3,4,2,1,1,7,3,0,36,,,,,,,,,,,,,,,,,,,,
,,,,,36,2020-07-03_16h57.45.275,retriever_ti,2020.1.3,Win32,60,Chrome,1366,768,,,,,,,,,,,,,,,,,2,,,,,,,,,,,,,,,,,,,,,,,,,,,950.275455,114,left,1.489255,camel         ,5,3,1,1,0,950.29382,950.29382,952.78017,0,36,36,36,1,114,5,4,camel         ,radio       ,html/resources/sequences_IDs/A/03_camel.jpg,html/resources/sequences_IDs/B/10_radio.jpg,3,10,1,1,4,2,3,8,1,36,,,,,,,,,,,,,,,,,,,,
,,,,,36,2020-07-03_16h57.45.275,retriever_ti,2020.1.3,Win32,60,Chrome,1366,768,,,,,,,,,,,,,,,,,2,,,,,,,,,,,,,,,,,,,,,,,,,,,953.884075,115,left,1.00733,seaturtle     ,7,2,1,1,1,953.901605,953.901605,956.388435,0,37,37,37,1,115,7,6,seaturtle     ,slipper     ,html/resources/sequences_IDs/A/02_seaturtle.jpg,html/resources/sequences_IDs/B/08_slipper.jpg,2,8,2,1,3,2,2,6,0,36,,,,,,,,,,,,,,,,,,,,
,,,,,36,2020-07-03_16h57.45.275,retriever_ti,2020.1.3,Win32,60,Chrome,1366,768,,,,,,,,,,,,,,,,,2,,,,,,,,,,,,,,,,,,,,,,,,,,,957.492895,116,right,1.37594,radio       ,4,10,1,1,1,957.510055,957.510055,959.99781,0,38,38,38,1,116,3,4,wolf          ,radio       ,html/resources/sequences_IDs/A/01_wolf.jpg,html/resources/sequences_IDs/B/10_radio.jpg,1,10,1,1,4,2,1,8,0,36,,,,,,,,,,,,,,,,,,,,
,,,,,36,2020-07-03_16h57.45.275,retriever_ti,2020.1.3,Win32,60,Chrome,1366,768,,,,,,,,,,,,,,,,,2,,,,,,,,,,,,,,,,,,,,,,,,,,,961.10059,117,left,1.196255,phone       ,8,9,1,1,1,961.135825,961.135825,963.62509,0,39,39,39,1,117,8,7,phone       ,seaturtle     ,html/resources/sequences_IDs/B/09_phone.jpg,html/resources/sequences_IDs/A/02_seaturtle.jpg,9,2,4,2,2,1,7,2,0,36,,,,,,,,,,,,,,,,,,,,
,,,,,36,2020-07-03_16h57.45.275,retriever_ti,2020.1.3,Win32,60,Chrome,1366,768,,,,,,,,,,,,,,,,,2,,,,,,,,,,,,,,,,,,,,,,,,,,,964.727535,118,right,0.94435,slipper     ,6,8,-1,0,1,964.76079,964.76079,967.247925,0,40,40,40,1,118,7,6,seaturtle     ,slipper     ,html/resources/sequences_IDs/A/02_seaturtle.jpg,html/resources/sequences_IDs/B/08_slipper.jpg,2,8,2,1,3,2,2,6,1,36,,,,,,,,,,,,,,,,,,,,
,,,,,36,2020-07-03_16h57.45.275,retriever_ti,2020.1.3,Win32,60,Chrome,1366,768,,,,,,,,,,,,,,,,,2,,,,,,,,,,,,,,,,,,,,,,,,,,,968.35237,119,left,1.22963,radio       ,4,10,-1,0,0,968.36978,968.36978,970.85612,0,41,41,41,1,119,4,5,radio       ,camel         ,html/resources/sequences_IDs/B/10_radio.jpg,html/resources/sequences_IDs/A/03_camel.jpg,10,3,4,2,1,1,8,3,0,36,,,,,,,,,,,,,,,,,,,,
,,,,,36,2020-07-03_16h57.45.275,retriever_ti,2020.1.3,Win32,60,Chrome,1366,768,,,,,,,,,,,,,,,,,2,,,,,,,,,,,,,,,,,,,,,,,,,,,971.96097,120,right,0.83558,radio       ,4,10,-3,0,3,971.99527,971.99527,974.48273,0,42,42,42,1,120,7,4,seaturtle     ,radio       ,html/resources/sequences_IDs/A/02_seaturtle.jpg,html/resources/sequences_IDs/B/10_radio.jpg,2,10,2,1,4,2,2,8,0,36,,,,,,,,,,,,,,,,,,,,
,,,,,36,2020-07-03_16h57.45.275,retriever_ti,2020.1.3,Win32,60,Chrome,1366,768,,,,,,,,,,,,,,,,,2,,,,,,,,,,,,,,,,,,,,,,,,,,,975.1039,121,right,1.008955,camel         ,5,3,-2,0,3,975.135795,975.135795,977.62273,0,43,43,43,1,121,7,5,seaturtle     ,camel         ,html/resources/sequences_IDs/A/02_seaturtle.jpg,html/resources/sequences_IDs/A/03_camel.jpg,2,3,2,1,1,1,2,3,0,36,,,,,,,,,,,,,,,,,,,,
,,,,,36,2020-07-03_16h57.45.275,retriever_ti,2020.1.3,Win32,60,Chrome,1366,768,,,,,,,,,,,,,,,,,2,,,,,,,,,,,,,,,,,,,,,,,,,,,978.226165,122,left,1.234625,peacock       ,1,5,-1,0,0,978.243135,978.243135,980.730715,0,44,44,44,1,122,1,2,peacock       ,gloves      ,html/resources/sequences_IDs/A/05_peacock.jpg,html/resources/sequences_IDs/B/06_gloves.jpg,5,6,2,1,3,2,4,5,0,36,,,,,,,,,,,,,,,,,,,,
,,,,,36,2020-07-03_16h57.45.275,retriever_ti,2020.1.3,Win32,60,Chrome,1366,768,,,,,,,,,,,,,,,,,2,,,,,,,,,,,,,,,,,,,,,,,,,,,981.83489,123,right,0.831165,slipper     ,6,8,-2,0,3,981.851765,981.851765,984.33945,0,45,45,45,1,123,8,6,phone       ,slipper     ,html/resources/sequences_IDs/B/09_phone.jpg,html/resources/sequences_IDs/B/08_slipper.jpg,9,8,4,2,3,2,7,6,0,36,,,,,,,,,,,,,,,,,,,,
,,,,,36,2020-07-03_16h57.45.275,retriever_ti,2020.1.3,Win32,60,Chrome,1366,768,,,,,,,,,,,,,,,,,2,,,,,,,,,,,,,,,,,,,,,,,,,,,984.95819,124,left,1.366085,wolf          ,3,1,1,1,0,984.976295,984.976295,987.4633,0,46,46,46,1,124,3,2,wolf          ,gloves      ,html/resources/sequences_IDs/A/01_wolf.jpg,html/resources/sequences_IDs/B/06_gloves.jpg,1,6,1,1,3,2,1,5,1,36,,,,,,,,,,,,,,,,,,,,
,,,,,36,2020-07-03_16h57.45.275,retriever_ti,2020.1.3,Win32,60,Chrome,1366,768,,,,,,,,,,,,,,,,,2,,,,,,,,,,,,,,,,,,,,,,,,,,,988.568095,125,left,1.18979,peacock       ,1,5,-5,0,3,988.591485,988.591485,991.089665,0,47,47,47,1,125,1,6,peacock       ,slipper     ,html/resources/sequences_IDs/A/05_peacock.jpg,html/resources/sequences_IDs/B/08_slipper.jpg,5,8,2,1,3,2,4,6,0,36,,,,,,,,,,,,,,,,,,,,
,,,,,36,2020-07-03_16h57.45.275,retriever_ti,2020.1.3,Win32,60,Chrome,1366,768,,,,,,,,,,,,,,,,,2,,,,,,,,,,,,,,,,,,,,,,,,,,,991.691635,126,left,1.021695,camel         ,5,3,-1,0,0,991.72583,991.72583,994.21214,0,48,48,48,1,126,5,6,camel         ,slipper     ,html/resources/sequences_IDs/A/03_camel.jpg,html/resources/sequences_IDs/B/08_slipper.jpg,3,8,1,1,3,2,3,6,0,36,,,,,,,,,,,,,,,,,,,,
,,,,,36,2020-07-03_16h57.45.275,retriever_ti,2020.1.3,Win32,60,Chrome,1366,768,,,,,,,,,,,,,,,,,2,,,,,,,,,,,,,,,,,,,,,,,,,,,995.316225,127,right,0.491235,slipper     ,6,8,1,1,1,995.351405,995.351405,997.837595,0,49,49,49,1,127,5,6,camel         ,slipper     ,html/resources/sequences_IDs/A/03_camel.jpg,html/resources/sequences_IDs/B/08_slipper.jpg,3,8,1,1,3,2,3,6,0,36,,,,,,,,,,,,,,,,,,,,
,,,,,36,2020-07-03_16h57.45.275,retriever_ti,2020.1.3,Win32,60,Chrome,1366,768,,,,,,,,,,,,,,,,,2,,,,,,,,,,,,,,,,,,,,,,,,,,,998.942695,128,right,1.269615,wolf          ,3,1,-4,0,3,998.976185,998.976185,1001.46278,0,50,50,50,1,128,7,3,seaturtle     ,wolf          ,html/resources/sequences_IDs/A/02_seaturtle.jpg,html/resources/sequences_IDs/A/01_wolf.jpg,2,1,2,1,1,1,2,1,0,36,,,,,,,,,,,,,,,,,,,,
,,,,,36,2020-07-03_16h57.45.275,retriever_ti,2020.1.3,Win32,60,Chrome,1366,768,,,,,,,,,,,,,,,,,2,,,,,,,,,,,,,,,,,,,,,,,,,,,1002.066735,129,right,1.293045,peacock       ,1,5,-5,0,3,1002.10061,1002.10061,1004.58822,0,51,51,51,1,129,6,1,slipper     ,peacock       ,html/resources/sequences_IDs/B/08_slipper.jpg,html/resources/sequences_IDs/A/05_peacock.jpg,8,5,3,2,2,1,6,4,0,36,,,,,,,,,,,,,,,,,,,,
,,,,,36,2020-07-03_16h57.45.275,retriever_ti,2020.1.3,Win32,60,Chrome,1366,768,,,,,,,,,,,,,,,,,2,,,,,,,,,,,,,,,,,,,,,,,,,,,1005.18944,130,left,0.91737,radio       ,4,10,-1,0,0,1005.20809,1005.20809,1007.695335,0,52,52,52,1,130,4,5,radio       ,camel         ,html/resources/sequences_IDs/B/10_radio.jpg,html/resources/sequences_IDs/A/03_camel.jpg,10,3,4,2,1,1,8,3,0,36,,,,,,,,,,,,,,,,,,,,
,,,,,36,2020-07-03_16h57.45.275,retriever_ti,2020.1.3,Win32,60,Chrome,1366,768,,,,,,,,,,,,,,,,,2,,,,,,,,,,,,,,,,,,,,,,,,,,,1008.799215,131,right,0.97514,peacock       ,1,5,-6,0,3,1008.8166,1008.8166,1011.3039,0,53,53,53,1,131,7,1,seaturtle     ,peacock       ,html/resources/sequences_IDs/A/02_seaturtle.jpg,html/resources/sequences_IDs/A/05_peacock.jpg,2,5,2,1,2,1,2,4,0,36,,,,,,,,,,,,,,,,,,,,
,,,,,36,2020-07-03_16h57.45.275,retriever_ti,2020.1.3,Win32,60,Chrome,1366,768,,,,,,,,,,,,,,,,,2,,,,,,,,,,,,,,,,,,,,,,,,,,,1011.906995,132,left,0.782665,phone       ,8,9,6,1,3,1011.923935,1011.923935,1014.411605,0,54,54,54,1,132,8,2,phone       ,gloves      ,html/resources/sequences_IDs/B/09_phone.jpg,html/resources/sequences_IDs/B/06_gloves.jpg,9,6,4,2,3,2,7,5,0,36,,,,,,,,,,,,,,,,,,,,
,,,,,36,2020-07-03_16h57.45.275,retriever_ti,2020.1.3,Win32,60,Chrome,1366,768,,,,,,,,,,,,,,,,,2,,,,,,,,,,,,,,,,,,,,,,,,,,,1015.01306,133,right,1.389205,radio       ,4,10,-1,0,0,1015.03127,1015.03127,1017.51791,0,55,55,55,1,133,5,4,camel         ,radio       ,html/resources/sequences_IDs/A/03_camel.jpg,html/resources/sequences_IDs/B/10_radio.jpg,3,10,1,1,4,2,3,8,0,36,,,,,,,,,,,,,,,,,,,,
,,,,,36,2020-07-03_16h57.45.275,retriever_ti,2020.1.3,Win32,60,Chrome,1366,768,,,,,,,,,,,,,,,,,2,,,,,,,,,,,,,,,,,,,,,,,,,,,1018.610285,134,left,1.34656,slipper     ,6,8,3,1,3,1018.64018,1018.64018,1021.127205,0,56,56,56,1,134,6,3,slipper     ,wolf          ,html/resources/sequences_IDs/B/08_slipper.jpg,html/resources/sequences_IDs/A/01_wolf.jpg,8,1,3,2,1,1,6,1,0,36,,,,,,,,,,,,,,,,,,,,
,,,,,36,2020-07-03_16h57.45.275,retriever_ti,2020.1.3,Win32,60,Chrome,1366,768,,,,,,,,,,,,,,,,,2,,,,,,,,,,,,,,,,,,,,,,,,,,,1021.730505,135,right,0.99349,phone       ,8,9,4,1,3,1021.764435,1021.764435,1024.25112,0,57,57,57,1,135,4,8,radio       ,phone       ,html/resources/sequences_IDs/B/10_radio.jpg,html/resources/sequences_IDs/B/09_phone.jpg,10,9,4,2,4,2,8,7,0,36,,,,,,,,,,,,,,,,,,,,
,,,,,36,2020-07-03_16h57.45.275,retriever_ti,2020.1.3,Win32,60,Chrome,1366,768,,,,,,,,,,,,,,,,,2,,,,,,,,,,,,,,,,,,,,,,,,,,,1024.8539,136,right,0.89261,wolf          ,3,1,-5,0,3,1024.888305,1024.888305,1027.375755,0,58,58,58,1,136,8,3,phone       ,wolf          ,html/resources/sequences_IDs/B/09_phone.jpg,html/resources/sequences_IDs/A/01_wolf.jpg,9,1,4,2,1,1,7,1,0,36,,,,,,,,,,,,,,,,,,,,
,,,,,36,2020-07-03_16h57.45.275,retriever_ti,2020.1.3,Win32,60,Chrome,1366,768,,,,,,,,,,,,,,,,,2,,,,,,,,,,,,,,,,,,,,,,,,,,,1027.978615,137,left,0.957185,peacock       ,1,5,-7,0,3,1027.995705,1027.995705,1030.482765,0,59,59,59,1,137,1,8,peacock       ,phone       ,html/resources/sequences_IDs/A/05_peacock.jpg,html/resources/sequences_IDs/B/09_phone.jpg,5,9,2,1,4,2,4,7,0,36,,,,,,,,,,,,,,,,,,,,
,,,,,36,2020-07-03_16h57.45.275,retriever_ti,2020.1.3,Win32,60,Chrome,1366,768,,,,,,,,,,,,,,,,,2,,,,,,,,,,,,,,,,,,,,,,,,,,,1031.084555,138,left,1.029075,peacock       ,1,5,-1,0,0,1031.11985,1031.11985,1033.607155,0,60,60,60,1,138,1,2,peacock       ,gloves      ,html/resources/sequences_IDs/A/05_peacock.jpg,html/resources/sequences_IDs/B/06_gloves.jpg,5,6,2,1,3,2,4,5,0,36,,,,,,,,,,,,,,,,,,,,
,,,,,36,2020-07-03_16h57.45.275,retriever_ti,2020.1.3,Win32,60,Chrome,1366,768,,,,,,,,,,,,,,,,,2,,,,,,,,,,,,,,,,,,,,,,,,,,,1034.71162,139,left,1.27424,radio       ,4,10,1,1,1,1034.728345,1034.728345,1037.215165,0,61,61,61,1,139,4,3,radio       ,wolf          ,html/resources/sequences_IDs/B/10_radio.jpg,html/resources/sequences_IDs/A/01_wolf.jpg,10,1,4,2,1,1,8,1,0,36,,,,,,,,,,,,,,,,,,,,
,,,,,36,2020-07-03_16h57.45.275,retriever_ti,2020.1.3,Win32,60,Chrome,1366,768,,,,,,,,,,,,,,,,,2,,,,,,,,,,,,,,,,,,,,,,,,,,,1038.319845,140,right,1.27341,seaturtle     ,7,2,4,1,3,1038.35397,1038.35397,1040.84124,0,62,62,62,1,140,3,7,wolf          ,seaturtle     ,html/resources/sequences_IDs/A/01_wolf.jpg,html/resources/sequences_IDs/A/02_seaturtle.jpg,1,2,1,1,2,1,1,2,0,36,,,,,,,,,,,,,,,,,,,,
,,,,,36,2020-07-03_16h57.45.275,retriever_ti,2020.1.3,Win32,60,Chrome,1366,768,,,,,,,,,,,,,,,,,2,,,,,,,,,,,,,,,,,,,,,,,,,,,1041.443955,141,left,1.318265,seaturtle     ,7,2,-1,0,0,1041.478155,1041.478155,1043.96553,0,63,63,63,1,141,7,8,seaturtle     ,phone       ,html/resources/sequences_IDs/A/02_seaturtle.jpg,html/resources/sequences_IDs/B/09_phone.jpg,2,9,2,1,4,2,2,7,0,36,,,,,,,,,,,,,,,,,,,,
,,,,,36,2020-07-03_16h57.45.275,retriever_ti,2020.1.3,Win32,60,Chrome,1366,768,,,,,,,,,,,,,,,,,2,,,,,,,,,,,,,,,,,,,,,,,,,,,1045.069775,142,NaN,NaN,No_response,NaN,NaN,NaN,2,2,1045.10319,1045.10319,1047.591385,0,64,64,64,1,142,5,8,camel         ,phone       ,html/resources/sequences_IDs/A/03_camel.jpg,html/resources/sequences_IDs/B/09_phone.jpg,3,9,1,1,4,2,3,7,0,36,,,,,,,,,,,,,,,,,,,,
,,,,,36,2020-07-03_16h57.45.275,retriever_ti,2020.1.3,Win32,60,Chrome,1366,768,,,,,,,,,,,,,,,,,2,,,,,,,,,,,,,,,,,,,,,,,,,,,1048.695015,143,left,1.20567,wolf          ,3,1,1,1,1,1048.71204,1048.71204,1051.19978,0,65,65,65,1,143,3,2,wolf          ,gloves      ,html/resources/sequences_IDs/A/01_wolf.jpg,html/resources/sequences_IDs/B/06_gloves.jpg,1,6,1,1,3,2,1,5,0,36,,,,,,,,,,,,,,,,,,,,
,,,,,36,2020-07-03_16h57.45.275,retriever_ti,2020.1.3,Win32,60,Chrome,1366,768,,,,,,,,,,,,,,,,,2,,,,,,,,,,,,,,,,,,,,,,,,,,,1052.30355,144,left,0.804505,slipper     ,6,8,-2,0,3,1052.33787,1052.33787,1054.825185,0,66,66,66,1,144,6,8,slipper     ,phone       ,html/resources/sequences_IDs/B/08_slipper.jpg,html/resources/sequences_IDs/B/09_phone.jpg,8,9,3,2,4,2,6,7,0,36,,,,,,,,,,,,,,,,,,,,
,,,,,36,2020-07-03_16h57.45.275,retriever_ti,2020.1.3,Win32,60,Chrome,1366,768,,,,,,,,,,,,,,,,,2,,,,,,,,,,,,,,,,,,,,,,,,,,,1055.42714,145,left,0.827745,seaturtle     ,7,2,5,1,3,1055.444575,1055.444575,1057.931735,0,67,67,67,1,145,7,2,seaturtle     ,gloves      ,html/resources/sequences_IDs/A/02_seaturtle.jpg,html/resources/sequences_IDs/B/06_gloves.jpg,2,6,2,1,3,2,2,5,0,36,,,,,,,,,,,,,,,,,,,,
,,,,,36,2020-07-03_16h57.45.275,retriever_ti,2020.1.3,Win32,60,Chrome,1366,768,,,,,,,,,,,,,,,,,2,,,,,,,,,,,,,,,,,,,,,,,,,,,1058.53511,146,right,1.010645,slipper     ,6,8,1,1,0,1058.568635,1058.568635,1061.05593,0,68,68,68,1,146,5,6,camel         ,slipper     ,html/resources/sequences_IDs/A/03_camel.jpg,html/resources/sequences_IDs/B/08_slipper.jpg,3,8,1,1,3,2,3,6,1,36,,,,,,,,,,,,,,,,,,,,
,,,,,36,2020-07-03_16h57.45.275,retriever_ti,2020.1.3,Win32,60,Chrome,1366,768,,,,,,,,,,,,,,,,,2,,,,,,,,,,,,,,,,,,,,,,,,,,,1062.160585,147,right,1.2182,gloves      ,2,6,-2,0,3,1062.194775,1062.194775,1064.681495,0,69,69,69,1,147,4,2,radio       ,gloves      ,html/resources/sequences_IDs/B/10_radio.jpg,html/resources/sequences_IDs/B/06_gloves.jpg,10,6,4,2,3,2,8,5,0,36,,,,,,,,,,,,,,,,,,,,
,,,,,36,2020-07-03_16h57.45.275,retriever_ti,2020.1.3,Win32,60,Chrome,1366,768,,,,,,,,,,,,,,,,,2,,,,,,,,,,,,,,,,,,,,,,,,,,,1065.28372,148,left,0.912155,wolf          ,3,1,-1,0,1,1065.31899,1065.31899,1067.806085,0,70,70,70,1,148,3,4,wolf          ,radio       ,html/resources/sequences_IDs/A/01_wolf.jpg,html/resources/sequences_IDs/B/10_radio.jpg,1,10,1,1,4,2,1,8,1,36,,,,,,,,,,,,,,,,,,,,
,,,,,36,2020-07-03_16h57.45.275,retriever_ti,2020.1.3,Win32,60,Chrome,1366,768,,,,,,,,,,,,,,,,,2,,,,,,,,,,,,,,,,,,,,,,,,,,,1068.91003,149,left,0.86897,slipper     ,6,8,1,1,1,1068.92793,1068.92793,1071.4139,0,71,71,71,1,149,6,5,slipper     ,camel         ,html/resources/sequences_IDs/B/08_slipper.jpg,html/resources/sequences_IDs/A/03_camel.jpg,8,3,3,2,1,1,6,3,0,36,,,,,,,,,,,,,,,,,,,,
,,,,,36,2020-07-03_16h57.45.275,retriever_ti,2020.1.3,Win32,60,Chrome,1366,768,,,,,,,,,,,,,,,,,2,,,,,,,,,,,,,,,,,,,,,,,,,,,1072.51847,150,right,1.01554,peacock       ,1,5,-7,0,3,1072.536115,1072.536115,1075.02359,0,72,72,72,1,150,8,1,phone       ,peacock       ,html/resources/sequences_IDs/B/09_phone.jpg,html/resources/sequences_IDs/A/05_peacock.jpg,9,5,4,2,2,1,7,4,0,36,,,,,,,,,,,,,,,,,,,,
,,,,,36,2020-07-03_16h57.45.275,retriever_ti,2020.1.3,Win32,60,Chrome,1366,768,,,,,,,,,,,,,,,,,2,,,,,,,,,,,,,,,,,,,,,,,,,,,1075.62596,151,right,0.861,peacock       ,1,5,-1,0,0,1075.660625,1075.660625,1078.147275,0,73,73,73,1,151,2,1,gloves      ,peacock       ,html/resources/sequences_IDs/B/06_gloves.jpg,html/resources/sequences_IDs/A/05_peacock.jpg,6,5,3,2,2,1,5,4,0,36,,,,,,,,,,,,,,,,,,,,
,,,,,36,2020-07-03_16h57.45.275,retriever_ti,2020.1.3,Win32,60,Chrome,1366,768,,,,,,,,,,,,,,,,,2,,,,,,,,,,,,,,,,,,,,,,,,,,,1079.251775,152,left,1.246735,camel         ,5,3,4,1,3,1079.26864,1079.26864,1081.75613,0,74,74,74,1,152,5,1,camel         ,peacock       ,html/resources/sequences_IDs/A/03_camel.jpg,html/resources/sequences_IDs/A/05_peacock.jpg,3,5,1,1,2,1,3,4,0,36,,,,,,,,,,,,,,,,,,,,
,,,,,36,2020-07-03_16h57.45.275,retriever_ti,2020.1.3,Win32,60,Chrome,1366,768,,,,,,,,,,,,,,,,,2,,,,,,,,,,,,,,,,,,,,,,,,,,,1082.35922,153,left,0.862675,radio       ,4,10,-2,0,3,1082.39283,1082.39283,1084.88024,0,75,75,75,1,153,4,6,radio       ,slipper     ,html/resources/sequences_IDs/B/10_radio.jpg,html/resources/sequences_IDs/B/08_slipper.jpg,10,8,4,2,3,2,8,6,0,36,,,,,,,,,,,,,,,,,,,,
,,,,,36,2020-07-03_16h57.45.275,retriever_ti,2020.1.3,Win32,60,Chrome,1366,768,,,,,,,,,,,,,,,,,2,,,,,,,,,,,,,,,,,,,,,,,,,,,1085.482135,154,left,0.70213,peacock       ,1,5,-2,0,3,1085.517255,1085.517255,1088.003735,0,76,76,76,1,154,1,3,peacock       ,wolf          ,html/resources/sequences_IDs/A/05_peacock.jpg,html/resources/sequences_IDs/A/01_wolf.jpg,5,1,2,1,1,1,4,1,0,36,,,,,,,,,,,,,,,,,,,,
,,,,,36,2020-07-03_16h57.45.275,retriever_ti,2020.1.3,Win32,60,Chrome,1366,768,,,,,,,,,,,,,,,,,,,,,,,,,,,,,,,,,,,,,0,3.79721,,,,,,,,,,,,,,,,,,,,,,,,,,,,,,,,,,,,,,,,,1,0,1,0,1,,,,,,,,,,,,,,,
,,,,,36,2020-07-03_16h57.45.275,retriever_ti,2020.1.3,Win32,60,Chrome,1366,768,,,,,,,,,,,,,,,,,3,,,,,,,,,,,,,,,,,,,,,,,,,,,1101.65742,155,left,1.350025,gloves      ,2,6,-5,0,3,1101.690365,1101.690365,1104.176745,0,0,0,0,1,155,2,7,gloves      ,seaturtle     ,html/resources/sequences_IDs/B/06_gloves.jpg,html/resources/sequences_IDs/A/02_seaturtle.jpg,6,2,3,2,2,1,5,2,0,36,,,,,,,,,,,,,,,,,,,,
,,,,,36,2020-07-03_16h57.45.275,retriever_ti,2020.1.3,Win32,60,Chrome,1366,768,,,,,,,,,,,,,,,,,3,,,,,,,,,,,,,,,,,,,,,,,,,,,1104.779615,156,right,0.90421,radio       ,4,10,-4,0,3,1104.79641,1104.79641,1107.28327,0,1,1,1,1,156,8,4,phone       ,radio       ,html/resources/sequences_IDs/B/09_phone.jpg,html/resources/sequences_IDs/B/10_radio.jpg,9,10,4,2,4,2,7,8,0,36,,,,,,,,,,,,,,,,,,,,
,,,,,36,2020-07-03_16h57.45.275,retriever_ti,2020.1.3,Win32,60,Chrome,1366,768,,,,,,,,,,,,,,,,,3,,,,,,,,,,,,,,,,,,,,,,,,,,,1107.886545,157,right,1.01665,gloves      ,2,6,-4,0,3,1107.903875,1107.903875,1110.39146,0,2,2,2,1,157,6,2,slipper     ,gloves      ,html/resources/sequences_IDs/B/08_slipper.jpg,html/resources/sequences_IDs/B/06_gloves.jpg,8,6,3,2,3,2,6,5,0,36,,,,,,,,,,,,,,,,,,,,
,,,,,36,2020-07-03_16h57.45.275,retriever_ti,2020.1.3,Win32,60,Chrome,1366,768,,,,,,,,,,,,,,,,,3,,,,,,,,,,,,,,,,,,,,,,,,,,,1110.99398,158,right,1.302215,phone       ,8,9,1,1,1,1111.011255,1111.011255,1113.498805,0,3,3,3,1,158,7,8,seaturtle     ,phone       ,html/resources/sequences_IDs/A/02_seaturtle.jpg,html/resources/sequences_IDs/B/09_phone.jpg,2,9,2,1,4,2,2,7,0,36,,,,,,,,,,,,,,,,,,,,
,,,,,36,2020-07-03_16h57.45.275,retriever_ti,2020.1.3,Win32,60,Chrome,1366,768,,,,,,,,,,,,,,,,,3,,,,,,,,,,,,,,,,,,,,,,,,,,,1114.60328,159,left,1.381555,camel         ,5,3,1,1,1,1114.636355,1114.636355,1117.12419,0,4,4,4,1,159,5,4,camel         ,radio       ,html/resources/sequences_IDs/A/03_camel.jpg,html/resources/sequences_IDs/B/10_radio.jpg,3,10,1,1,4,2,3,8,0,36,,,,,,,,,,,,,,,,,,,,
,,,,,36,2020-07-03_16h57.45.275,retriever_ti,2020.1.3,Win32,60,Chrome,1366,768,,,,,,,,,,,,,,,,,3,,,,,,,,,,,,,,,,,,,,,,,,,,,1118.2276,160,right,1.15712,camel         ,5,3,-2,0,3,1118.26196,1118.26196,1120.749385,0,5,5,5,1,160,7,5,seaturtle     ,camel         ,html/resources/sequences_IDs/A/02_seaturtle.jpg,html/resources/sequences_IDs/A/03_camel.jpg,2,3,2,1,1,1,2,3,0,36,,,,,,,,,,,,,,,,,,,,
,,,,,36,2020-07-03_16h57.45.275,retriever_ti,2020.1.3,Win32,60,Chrome,1366,768,,,,,,,,,,,,,,,,,3,,,,,,,,,,,,,,,,,,,,,,,,,,,1121.35214,161,left,0.93166,gloves      ,2,6,1,1,0,1121.36987,1121.36987,1123.857265,0,6,6,6,1,161,2,1,gloves      ,peacock       ,html/resources/sequences_IDs/B/06_gloves.jpg,html/resources/sequences_IDs/A/05_peacock.jpg,6,5,3,2,2,1,5,4,1,36,,,,,,,,,,,,,,,,,,,,
,,,,,36,2020-07-03_16h57.45.275,retriever_ti,2020.1.3,Win32,60,Chrome,1366,768,,,,,,,,,,,,,,,,,3,,,,,,,,,,,,,,,,,,,,,,,,,,,1124.961295,162,right,1.096965,slipper     ,6,8,-1,0,0,1124.99523,1124.99523,1127.4826,0,7,7,7,1,162,7,6,seaturtle     ,slipper     ,html/resources/sequences_IDs/A/02_seaturtle.jpg,html/resources/sequences_IDs/B/08_slipper.jpg,2,8,2,1,3,2,2,6,0,36,,,,,,,,,,,,,,,,,,,,
,,,,,36,2020-07-03_16h57.45.275,retriever_ti,2020.1.3,Win32,60,Chrome,1366,768,,,,,,,,,,,,,,,,,3,,,,,,,,,,,,,,,,,,,,,,,,,,,1128.58658,163,left,1.024985,wolf          ,3,1,-5,0,3,1128.621415,1128.621415,1131.108025,0,8,8,8,1,163,3,8,wolf          ,phone       ,html/resources/sequences_IDs/A/01_wolf.jpg,html/resources/sequences_IDs/B/09_phone.jpg,1,9,1,1,4,2,1,7,0,36,,,,,,,,,,,,,,,,,,,,
,,,,,36,2020-07-03_16h57.45.275,retriever_ti,2020.1.3,Win32,60,Chrome,1366,768,,,,,,,,,,,,,,,,,3,,,,,,,,,,,,,,,,,,,,,,,,,,,1131.710405,164,left,1.038955,peacock       ,1,5,-6,0,3,1131.728395,1131.728395,1134.214755,0,9,9,9,1,164,1,7,peacock       ,seaturtle     ,html/resources/sequences_IDs/A/05_peacock.jpg,html/resources/sequences_IDs/A/02_seaturtle.jpg,5,2,2,1,2,1,4,2,0,36,,,,,,,,,,,,,,,,,,,,
,,,,,36,2020-07-03_16h57.45.275,retriever_ti,2020.1.3,Win32,60,Chrome,1366,768,,,,,,,,,,,,,,,,,3,,,,,,,,,,,,,,,,,,,,,,,,,,,1134.817885,165,left,0.826765,slipper     ,6,8,1,1,0,1134.85156,1134.85156,1137.33902,0,10,10,10,1,165,6,5,slipper     ,camel         ,html/resources/sequences_IDs/B/08_slipper.jpg,html/resources/sequences_IDs/A/03_camel.jpg,8,3,3,2,1,1,6,3,1,36,,,,,,,,,,,,,,,,,,,,
,,,,,36,2020-07-03_16h57.45.275,retriever_ti,2020.1.3,Win32,60,Chrome,1366,768,,,,,,,,,,,,,,,,,3,,,,,,,,,,,,,,,,,,,,,,,,,,,1138.4426,166,right,1.18516,camel         ,5,3,4,1,3,1138.460765,1138.460765,1140.94827,0,11,11,11,1,166,1,5,peacock       ,camel         ,html/resources/sequences_IDs/A/05_peacock.jpg,html/resources/sequences_IDs/A/03_camel.jpg,5,3,2,1,1,1,4,3,0,36,,,,,,,,,,,,,,,,,,,,
,,,,,36,2020-07-03_16h57.45.275,retriever_ti,2020.1.3,Win32,60,Chrome,1366,768,,,,,,,,,,,,,,,,,3,,,,,,,,,,,,,,,,,,,,,,,,,,,1141.54986,167,left,0.872385,gloves      ,2,6,-3,0,3,1141.58527,1141.58527,1144.07238,0,12,12,12,1,167,2,5,gloves      ,camel         ,html/resources/sequences_IDs/B/06_gloves.jpg,html/resources/sequences_IDs/A/03_camel.jpg,6,3,3,2,1,1,5,3,0,36,,,,,,,,,,,,,,,,,,,,
,,,,,36,2020-07-03_16h57.45.275,retriever_ti,2020.1.3,Win32,60,Chrome,1366,768,,,,,,,,,,,,,,,,,3,,,,,,,,,,,,,,,,,,,,,,,,,,,1144.67672,168,left,0.754795,slipper     ,6,8,1,1,1,1144.70973,1144.70973,1147.21256,0,13,13,13,1,168,6,5,slipper     ,camel         ,html/resources/sequences_IDs/B/08_slipper.jpg,html/resources/sequences_IDs/A/03_camel.jpg,8,3,3,2,1,1,6,3,0,36,,,,,,,,,,,,,,,,,,,,
,,,,,36,2020-07-03_16h57.45.275,retriever_ti,2020.1.3,Win32,60,Chrome,1366,768,,,,,,,,,,,,,,,,,3,,,,,,,,,,,,,,,,,,,,,,,,,,,1148.316545,169,right,1.030745,peacock       ,1,5,-1,0,0,1148.350705,1148.350705,1150.83756,0,14,14,14,1,169,2,1,gloves      ,peacock       ,html/resources/sequences_IDs/B/06_gloves.jpg,html/resources/sequences_IDs/A/05_peacock.jpg,6,5,3,2,2,1,5,4,0,36,,,,,,,,,,,,,,,,,,,,
,,,,,36,2020-07-03_16h57.45.275,retriever_ti,2020.1.3,Win32,60,Chrome,1366,768,,,,,,,,,,,,,,,,,3,,,,,,,,,,,,,,,,,,,,,,,,,,,1151.94233,170,left,1.102135,radio       ,4,10,-1,0,0,1151.960175,1151.960175,1154.4472,0,15,15,15,1,170,4,5,radio       ,camel         ,html/resources/sequences_IDs/B/10_radio.jpg,html/resources/sequences_IDs/A/03_camel.jpg,10,3,4,2,1,1,8,3,0,36,,,,,,,,,,,,,,,,,,,,
,,,,,36,2020-07-03_16h57.45.275,retriever_ti,2020.1.3,Win32,60,Chrome,1366,768,,,,,,,,,,,,,,,,,3,,,,,,,,,,,,,,,,,,,,,,,,,,,1155.550495,171,right,1.036885,seaturtle     ,7,2,1,1,1,1155.585255,1155.585255,1158.07269,0,16,16,16,1,171,6,7,slipper     ,seaturtle     ,html/resources/sequences_IDs/B/08_slipper.jpg,html/resources/sequences_IDs/A/02_seaturtle.jpg,8,2,3,2,2,1,6,2,0,36,,,,,,,,,,,,,,,,,,,,
,,,,,36,2020-07-03_16h57.45.275,retriever_ti,2020.1.3,Win32,60,Chrome,1366,768,,,,,,,,,,,,,,,,,3,,,,,,,,,,,,,,,,,,,,,,,,,,,1159.176185,172,right,1.303765,wolf          ,3,1,-1,0,0,1159.21047,1159.21047,1161.697865,0,17,17,17,1,172,4,3,radio       ,wolf          ,html/resources/sequences_IDs/B/10_radio.jpg,html/resources/sequences_IDs/A/01_wolf.jpg,10,1,4,2,1,1,8,1,0,36,,,,,,,,,,,,,,,,,,,,
,,,,,36,2020-07-03_16h57.45.275,retriever_ti,2020.1.3,Win32,60,Chrome,1366,768,,,,,,,,,,,,,,,,,3,,,,,,,,,,,,,,,,,,,,,,,,,,,1162.80135,173,left,1.486045,peacock       ,1,5,-1,0,0,1162.818625,1162.818625,1165.305865,0,18,18,18,1,173,1,2,peacock       ,gloves      ,html/resources/sequences_IDs/A/05_peacock.jpg,html/resources/sequences_IDs/B/06_gloves.jpg,5,6,2,1,3,2,4,5,0,36,,,,,,,,,,,,,,,,,,,,
,,,,,36,2020-07-03_16h57.45.275,retriever_ti,2020.1.3,Win32,60,Chrome,1366,768,,,,,,,,,,,,,,,,,3,,,,,,,,,,,,,,,,,,,,,,,,,,,1166.40967,174,right,1.39329,wolf          ,3,1,1,1,0,1166.42749,1166.42749,1168.91505,0,19,19,19,1,174,2,3,gloves      ,wolf          ,html/resources/sequences_IDs/B/06_gloves.jpg,html/resources/sequences_IDs/A/01_wolf.jpg,6,1,3,2,1,1,5,1,1,36,,,,,,,,,,,,,,,,,,,,
,,,,,36,2020-07-03_16h57.45.275,retriever_ti,2020.1.3,Win32,60,Chrome,1366,768,,,,,,,,,,,,,,,,,3,,,,,,,,,,,,,,,,,,,,,,,,,,,1170.01945,175,right,1.28431,phone       ,8,9,2,1,3,1170.05311,1170.05311,1172.53987,0,20,20,20,1,175,6,8,slipper     ,phone       ,html/resources/sequences_IDs/B/08_slipper.jpg,html/resources/sequences_IDs/B/09_phone.jpg,8,9,3,2,4,2,6,7,0,36,,,,,,,,,,,,,,,,,,,,
,,,,,36,2020-07-03_16h57.45.275,retriever_ti,2020.1.3,Win32,60,Chrome,1366,768,,,,,,,,,,,,,,,,,3,,,,,,,,,,,,,,,,,,,,,,,,,,,1173.143495,176,left,1.05804,wolf          ,3,1,-4,0,3,1173.17731,1173.17731,1175.66548,0,21,21,21,1,176,3,7,wolf          ,seaturtle     ,html/resources/sequences_IDs/A/01_wolf.jpg,html/resources/sequences_IDs/A/02_seaturtle.jpg,1,2,1,1,2,1,1,2,0,36,,,,,,,,,,,,,,,,,,,,
,,,,,36,2020-07-03_16h57.45.275,retriever_ti,2020.1.3,Win32,60,Chrome,1366,768,,,,,,,,,,,,,,,,,3,,,,,,,,,,,,,,,,,,,,,,,,,,,1176.26703,177,left,0.7865,radio       ,4,10,1,1,0,1176.3017,1176.3017,1178.788295,0,22,22,22,1,177,4,3,radio       ,wolf          ,html/resources/sequences_IDs/B/10_radio.jpg,html/resources/sequences_IDs/A/01_wolf.jpg,10,1,4,2,1,1,8,1,1,36,,,,,,,,,,,,,,,,,,,,
,,,,,36,2020-07-03_16h57.45.275,retriever_ti,2020.1.3,Win32,60,Chrome,1366,768,,,,,,,,,,,,,,,,,3,,,,,,,,,,,,,,,,,,,,,,,,,,,1179.893275,178,right,1.72465,slipper     ,6,8,3,1,3,1179.927345,1179.927345,1182.530585,0,23,23,23,1,178,3,6,wolf          ,slipper     ,html/resources/sequences_IDs/A/01_wolf.jpg,html/resources/sequences_IDs/B/08_slipper.jpg,1,8,1,1,3,2,1,6,0,36,,,,,,,,,,,,,,,,,,,,
,,,,,36,2020-07-03_16h57.45.275,retriever_ti,2020.1.3,Win32,60,Chrome,1366,768,,,,,,,,,,,,,,,,,3,,,,,,,,,,,,,,,,,,,,,,,,,,,1183.134265,179,right,1.241855,radio       ,4,10,-1,0,0,1183.16774,1183.16774,1185.655345,0,24,24,24,1,179,5,4,camel         ,radio       ,html/resources/sequences_IDs/A/03_camel.jpg,html/resources/sequences_IDs/B/10_radio.jpg,3,10,1,1,4,2,3,8,0,36,,,,,,,,,,,,,,,,,,,,
,,,,,36,2020-07-03_16h57.45.275,retriever_ti,2020.1.3,Win32,60,Chrome,1366,768,,,,,,,,,,,,,,,,,3,,,,,,,,,,,,,,,,,,,,,,,,,,,1186.759315,180,left,0.98583,peacock       ,1,5,-3,0,3,1186.793235,1186.793235,1189.280835,0,25,25,25,1,180,1,4,peacock       ,radio       ,html/resources/sequences_IDs/A/05_peacock.jpg,html/resources/sequences_IDs/B/10_radio.jpg,5,10,2,1,4,2,4,8,0,36,,,,,,,,,,,,,,,,,,,,
,,,,,36,2020-07-03_16h57.45.275,retriever_ti,2020.1.3,Win32,60,Chrome,1366,768,,,,,,,,,,,,,,,,,3,,,,,,,,,,,,,,,,,,,,,,,,,,,1189.882785,181,right,0.79271,wolf          ,3,1,-5,0,3,1189.9006,1189.9006,1192.387185,0,26,26,26,1,181,8,3,phone       ,wolf          ,html/resources/sequences_IDs/B/09_phone.jpg,html/resources/sequences_IDs/A/01_wolf.jpg,9,1,4,2,1,1,7,1,0,36,,,,,,,,,,,,,,,,,,,,
,,,,,36,2020-07-03_16h57.45.275,retriever_ti,2020.1.3,Win32,60,Chrome,1366,768,,,,,,,,,,,,,,,,,3,,,,,,,,,,,,,,,,,,,,,,,,,,,1192.99063,182,right,1.1939,wolf          ,3,1,1,1,1,1193.00813,1193.00813,1195.494995,0,27,27,27,1,182,2,3,gloves      ,wolf          ,html/resources/sequences_IDs/B/06_gloves.jpg,html/resources/sequences_IDs/A/01_wolf.jpg,6,1,3,2,1,1,5,1,0,36,,,,,,,,,,,,,,,,,,,,
,,,,,36,2020-07-03_16h57.45.275,retriever_ti,2020.1.3,Win32,60,Chrome,1366,768,,,,,,,,,,,,,,,,,3,,,,,,,,,,,,,,,,,,,,,,,,,,,1196.59888,183,left,1.005475,seaturtle     ,7,2,5,1,3,1196.617325,1196.617325,1199.10315,0,28,28,28,1,183,7,2,seaturtle     ,gloves      ,html/resources/sequences_IDs/A/02_seaturtle.jpg,html/resources/sequences_IDs/B/06_gloves.jpg,2,6,2,1,3,2,2,5,0,36,,,,,,,,,,,,,,,,,,,,
,,,,,36,2020-07-03_16h57.45.275,retriever_ti,2020.1.3,Win32,60,Chrome,1366,768,,,,,,,,,,,,,,,,,3,,,,,,,,,,,,,,,,,,,,,,,,,,,1199.7092,184,right,0.96298,peacock       ,1,5,-1,0,0,1199.745815,1199.745815,1202.244075,0,29,29,29,1,184,2,1,gloves      ,peacock       ,html/resources/sequences_IDs/B/06_gloves.jpg,html/resources/sequences_IDs/A/05_peacock.jpg,6,5,3,2,2,1,5,4,0,36,,,,,,,,,,,,,,,,,,,,
,,,,,36,2020-07-03_16h57.45.275,retriever_ti,2020.1.3,Win32,60,Chrome,1366,768,,,,,,,,,,,,,,,,,3,,,,,,,,,,,,,,,,,,,,,,,,,,,1203.348985,185,right,1.250515,radio       ,4,10,1,1,1,1203.36639,1203.36639,1205.853415,0,30,30,30,1,185,3,4,wolf          ,radio       ,html/resources/sequences_IDs/A/01_wolf.jpg,html/resources/sequences_IDs/B/10_radio.jpg,1,10,1,1,4,2,1,8,0,36,,,,,,,,,,,,,,,,,,,,
,,,,,36,2020-07-03_16h57.45.275,retriever_ti,2020.1.3,Win32,60,Chrome,1366,768,,,,,,,,,,,,,,,,,3,,,,,,,,,,,,,,,,,,,,,,,,,,,1206.957435,186,right,1.45706,phone       ,8,9,1,1,1,1206.97495,1206.97495,1209.462535,0,31,31,31,1,186,7,8,seaturtle     ,phone       ,html/resources/sequences_IDs/A/02_seaturtle.jpg,html/resources/sequences_IDs/B/09_phone.jpg,2,9,2,1,4,2,2,7,0,36,,,,,,,,,,,,,,,,,,,,
,,,,,36,2020-07-03_16h57.45.275,retriever_ti,2020.1.3,Win32,60,Chrome,1366,768,,,,,,,,,,,,,,,,,3,,,,,,,,,,,,,,,,,,,,,,,,,,,1210.56567,187,left,1.10681,peacock       ,1,5,-5,0,3,1210.584045,1210.584045,1213.07089,0,32,32,32,1,187,1,6,peacock       ,slipper     ,html/resources/sequences_IDs/A/05_peacock.jpg,html/resources/sequences_IDs/B/08_slipper.jpg,5,8,2,1,3,2,4,6,0,36,,,,,,,,,,,,,,,,,,,,
,,,,,36,2020-07-03_16h57.45.275,retriever_ti,2020.1.3,Win32,60,Chrome,1366,768,,,,,,,,,,,,,,,,,3,,,,,,,,,,,,,,,,,,,,,,,,,,,1213.67341,188,right,1.179495,camel         ,5,3,2,1,3,1213.690935,1213.690935,1216.17841,0,33,33,33,1,188,3,5,wolf          ,camel         ,html/resources/sequences_IDs/A/01_wolf.jpg,html/resources/sequences_IDs/A/03_camel.jpg,1,3,1,1,1,1,1,3,0,36,,,,,,,,,,,,,,,,,,,,
,,,,,36,2020-07-03_16h57.45.275,retriever_ti,2020.1.3,Win32,60,Chrome,1366,768,,,,,,,,,,,,,,,,,3,,,,,,,,,,,,,,,,,,,,,,,,,,,1216.78055,189,left,1.354475,radio       ,4,10,1,1,1,1216.79848,1216.79848,1219.286015,0,34,34,34,1,189,4,3,radio       ,wolf          ,html/resources/sequences_IDs/B/10_radio.jpg,html/resources/sequences_IDs/A/01_wolf.jpg,10,1,4,2,1,1,8,1,0,36,,,,,,,,,,,,,,,,,,,,
,,,,,36,2020-07-03_16h57.45.275,retriever_ti,2020.1.3,Win32,60,Chrome,1366,768,,,,,,,,,,,,,,,,,3,,,,,,,,,,,,,,,,,,,,,,,,,,,1220.390005,190,left,1.524985,radio       ,4,10,2,1,3,1220.424345,1220.424345,1222.911365,0,35,35,35,1,190,4,2,radio       ,gloves      ,html/resources/sequences_IDs/B/10_radio.jpg,html/resources/sequences_IDs/B/06_gloves.jpg,10,6,4,2,3,2,8,5,0,36,,,,,,,,,,,,,,,,,,,,
,,,,,36,2020-07-03_16h57.45.275,retriever_ti,2020.1.3,Win32,60,Chrome,1366,768,,,,,,,,,,,,,,,,,3,,,,,,,,,,,,,,,,,,,,,,,,,,,1223.514105,191,right,1.042595,phone       ,8,9,4,1,3,1223.531735,1223.531735,1226.01875,0,36,36,36,1,191,4,8,radio       ,phone       ,html/resources/sequences_IDs/B/10_radio.jpg,html/resources/sequences_IDs/B/09_phone.jpg,10,9,4,2,4,2,8,7,0,36,,,,,,,,,,,,,,,,,,,,
,,,,,36,2020-07-03_16h57.45.275,retriever_ti,2020.1.3,Win32,60,Chrome,1366,768,,,,,,,,,,,,,,,,,3,,,,,,,,,,,,,,,,,,,,,,,,,,,1226.62087,192,left,1.20254,slipper     ,6,8,1,1,1,1226.63893,1226.63893,1229.126135,0,37,37,37,1,192,6,5,slipper     ,camel         ,html/resources/sequences_IDs/B/08_slipper.jpg,html/resources/sequences_IDs/A/03_camel.jpg,8,3,3,2,1,1,6,3,0,36,,,,,,,,,,,,,,,,,,,,
,,,,,36,2020-07-03_16h57.45.275,retriever_ti,2020.1.3,Win32,60,Chrome,1366,768,,,,,,,,,,,,,,,,,3,,,,,,,,,,,,,,,,,,,,,,,,,,,1230.23057,193,left,1.404615,peacock       ,1,5,-2,0,3,1230.2645,1230.2645,1232.751965,0,38,38,38,1,193,1,3,peacock       ,wolf          ,html/resources/sequences_IDs/A/05_peacock.jpg,html/resources/sequences_IDs/A/01_wolf.jpg,5,1,2,1,1,1,4,1,0,36,,,,,,,,,,,,,,,,,,,,
,,,,,36,2020-07-03_16h57.45.275,retriever_ti,2020.1.3,Win32,60,Chrome,1366,768,,,,,,,,,,,,,,,,,3,,,,,,,,,,,,,,,,,,,,,,,,,,,1233.354425,194,left,1.11616,camel         ,5,3,3,1,3,1233.37176,1233.37176,1235.8584,0,39,39,39,1,194,5,2,camel         ,gloves      ,html/resources/sequences_IDs/A/03_camel.jpg,html/resources/sequences_IDs/B/06_gloves.jpg,3,6,1,1,3,2,3,5,0,36,,,,,,,,,,,,,,,,,,,,
,,,,,36,2020-07-03_16h57.45.275,retriever_ti,2020.1.3,Win32,60,Chrome,1366,768,,,,,,,,,,,,,,,,,3,,,,,,,,,,,,,,,,,,,,,,,,,,,1236.460685,195,right,1.43045,peacock       ,1,5,-7,0,3,1236.49586,1236.49586,1238.983465,0,40,40,40,1,195,8,1,phone       ,peacock       ,html/resources/sequences_IDs/B/09_phone.jpg,html/resources/sequences_IDs/A/05_peacock.jpg,9,5,4,2,2,1,7,4,0,36,,,,,,,,,,,,,,,,,,,,
,,,,,36,2020-07-03_16h57.45.275,retriever_ti,2020.1.3,Win32,60,Chrome,1366,768,,,,,,,,,,,,,,,,,3,,,,,,,,,,,,,,,,,,,,,,,,,,,1239.585815,196,right,0.96907,seaturtle     ,7,2,-1,0,0,1239.62009,1239.62009,1242.106555,0,41,41,41,1,196,8,7,phone       ,seaturtle     ,html/resources/sequences_IDs/B/09_phone.jpg,html/resources/sequences_IDs/A/02_seaturtle.jpg,9,2,4,2,2,1,7,2,0,36,,,,,,,,,,,,,,,,,,,,
,,,,,36,2020-07-03_16h57.45.275,retriever_ti,2020.1.3,Win32,60,Chrome,1366,768,,,,,,,,,,,,,,,,,3,,,,,,,,,,,,,,,,,,,,,,,,,,,1243.211285,197,right,1.090285,radio       ,4,10,2,1,3,1243.22878,1243.22878,1245.715965,0,42,42,42,1,197,2,4,gloves      ,radio       ,html/resources/sequences_IDs/B/06_gloves.jpg,html/resources/sequences_IDs/B/10_radio.jpg,6,10,3,2,4,2,5,8,0,36,,,,,,,,,,,,,,,,,,,,
,,,,,36,2020-07-03_16h57.45.275,retriever_ti,2020.1.3,Win32,60,Chrome,1366,768,,,,,,,,,,,,,,,,,3,,,,,,,,,,,,,,,,,,,,,,,,,,,1246.31834,198,right,1.373145,gloves      ,2,6,-1,0,0,1246.33596,1246.33596,1248.85706,0,43,43,43,1,198,3,2,wolf          ,gloves      ,html/resources/sequences_IDs/A/01_wolf.jpg,html/resources/sequences_IDs/B/06_gloves.jpg,1,6,1,1,3,2,1,5,0,36,,,,,,,,,,,,,,,,,,,,
,,,,,36,2020-07-03_16h57.45.275,retriever_ti,2020.1.3,Win32,60,Chrome,1366,768,,,,,,,,,,,,,,,,,3,,,,,,,,,,,,,,,,,,,,,,,,,,,1249.960945,199,right,0.966085,slipper     ,6,8,4,1,3,1249.99468,1249.99468,1252.482675,0,44,44,44,1,199,2,6,gloves      ,slipper     ,html/resources/sequences_IDs/B/06_gloves.jpg,html/resources/sequences_IDs/B/08_slipper.jpg,6,8,3,2,3,2,5,6,0,36,,,,,,,,,,,,,,,,,,,,
,,,,,36,2020-07-03_16h57.45.275,retriever_ti,2020.1.3,Win32,60,Chrome,1366,768,,,,,,,,,,,,,,,,,3,,,,,,,,,,,,,,,,,,,,,,,,,,,1253.084585,200,left,1.13362,camel         ,5,3,2,1,3,1253.10209,1253.10209,1255.58912,0,45,45,45,1,200,5,3,camel         ,wolf          ,html/resources/sequences_IDs/A/03_camel.jpg,html/resources/sequences_IDs/A/01_wolf.jpg,3,1,1,1,1,1,3,1,0,36,,,,,,,,,,,,,,,,,,,,
,,,,,36,2020-07-03_16h57.45.275,retriever_ti,2020.1.3,Win32,60,Chrome,1366,768,,,,,,,,,,,,,,,,,3,,,,,,,,,,,,,,,,,,,,,,,,,,,1256.191365,201,left,1.388345,radio       ,4,10,-1,0,0,1256.2271,1256.2271,1258.713885,0,46,46,46,1,201,4,5,radio       ,camel         ,html/resources/sequences_IDs/B/10_radio.jpg,html/resources/sequences_IDs/A/03_camel.jpg,10,3,4,2,1,1,8,3,0,36,,,,,,,,,,,,,,,,,,,,
,,,,,36,2020-07-03_16h57.45.275,retriever_ti,2020.1.3,Win32,60,Chrome,1366,768,,,,,,,,,,,,,,,,,3,,,,,,,,,,,,,,,,,,,,,,,,,,,1259.817895,202,right,1.40897,seaturtle     ,7,2,1,1,1,1259.852295,1259.852295,1262.338965,0,47,47,47,1,202,6,7,slipper     ,seaturtle     ,html/resources/sequences_IDs/B/08_slipper.jpg,html/resources/sequences_IDs/A/02_seaturtle.jpg,8,2,3,2,2,1,6,2,0,36,,,,,,,,,,,,,,,,,,,,
,,,,,36,2020-07-03_16h57.45.275,retriever_ti,2020.1.3,Win32,60,Chrome,1366,768,,,,,,,,,,,,,,,,,3,,,,,,,,,,,,,,,,,,,,,,,,,,,1263.44328,203,left,1.26529,peacock       ,1,5,-1,0,0,1263.46043,1263.46043,1265.948115,0,48,48,48,1,203,1,2,peacock       ,gloves      ,html/resources/sequences_IDs/A/05_peacock.jpg,html/resources/sequences_IDs/B/06_gloves.jpg,5,6,2,1,3,2,4,5,0,36,,,,,,,,,,,,,,,,,,,,
,,,,,36,2020-07-03_16h57.45.275,retriever_ti,2020.1.3,Win32,60,Chrome,1366,768,,,,,,,,,,,,,,,,,3,,,,,,,,,,,,,,,,,,,,,,,,,,,1267.057865,204,right,1.458995,radio       ,4,10,-2,0,3,1267.08655,1267.08655,1269.57324,0,49,49,49,1,204,6,4,slipper     ,radio       ,html/resources/sequences_IDs/B/08_slipper.jpg,html/resources/sequences_IDs/B/10_radio.jpg,8,10,3,2,4,2,6,8,0,36,,,,,,,,,,,,,,,,,,,,
,,,,,36,2020-07-03_16h57.45.275,retriever_ti,2020.1.3,Win32,60,Chrome,1366,768,,,,,,,,,,,,,,,,,3,,,,,,,,,,,,,,,,,,,,,,,,,,,1270.175035,205,right,1.0531,slipper     ,6,8,1,1,1,1270.21039,1270.21039,1272.69762,0,50,50,50,1,205,5,6,camel         ,slipper     ,html/resources/sequences_IDs/A/03_camel.jpg,html/resources/sequences_IDs/B/08_slipper.jpg,3,8,1,1,3,2,3,6,0,36,,,,,,,,,,,,,,,,,,,,
,,,,,36,2020-07-03_16h57.45.275,retriever_ti,2020.1.3,Win32,60,Chrome,1366,768,,,,,,,,,,,,,,,,,3,,,,,,,,,,,,,,,,,,,,,,,,,,,1273.80244,206,left,1.75164,gloves      ,2,6,-1,0,0,1273.835395,1273.835395,1276.321835,0,51,51,51,1,206,2,3,gloves      ,wolf          ,html/resources/sequences_IDs/B/06_gloves.jpg,html/resources/sequences_IDs/A/01_wolf.jpg,6,1,3,2,1,1,5,1,0,36,,,,,,,,,,,,,,,,,,,,
,,,,,36,2020-07-03_16h57.45.275,retriever_ti,2020.1.3,Win32,60,Chrome,1366,768,,,,,,,,,,,,,,,,,3,,,,,,,,,,,,,,,,,,,,,,,,,,,1277.42736,207,left,1.57997,radio       ,4,10,3,1,3,1277.46097,1277.46097,1279.947845,0,52,52,52,1,207,4,1,radio       ,peacock       ,html/resources/sequences_IDs/B/10_radio.jpg,html/resources/sequences_IDs/A/05_peacock.jpg,10,5,4,2,2,1,8,4,0,36,,,,,,,,,,,,,,,,,,,,
,,,,,36,2020-07-03_16h57.45.275,retriever_ti,2020.1.3,Win32,60,Chrome,1366,768,,,,,,,,,,,,,,,,,3,,,,,,,,,,,,,,,,,,,,,,,,,,,1280.550095,208,left,1.12314,seaturtle     ,7,2,3,1,3,1280.585225,1280.585225,1283.0717,0,53,53,53,1,208,7,4,seaturtle     ,radio       ,html/resources/sequences_IDs/A/02_seaturtle.jpg,html/resources/sequences_IDs/B/10_radio.jpg,2,10,2,1,4,2,2,8,0,36,,,,,,,,,,,,,,,,,,,,
,,,,,36,2020-07-03_16h57.45.275,retriever_ti,2020.1.3,Win32,60,Chrome,1366,768,,,,,,,,,,,,,,,,,3,,,,,,,,,,,,,,,,,,,,,,,,,,,1283.675005,209,left,1.118455,phone       ,8,9,3,1,3,1283.69244,1283.69244,1286.179185,0,54,54,54,1,209,8,5,phone       ,camel         ,html/resources/sequences_IDs/B/09_phone.jpg,html/resources/sequences_IDs/A/03_camel.jpg,9,3,4,2,1,1,7,3,0,36,,,,,,,,,,,,,,,,,,,,
,,,,,36,2020-07-03_16h57.45.275,retriever_ti,2020.1.3,Win32,60,Chrome,1366,768,,,,,,,,,,,,,,,,,3,,,,,,,,,,,,,,,,,,,,,,,,,,,1286.782215,210,right,0.95725,seaturtle     ,7,2,-1,0,1,1286.800625,1286.800625,1289.287205,0,55,55,55,1,210,8,7,phone       ,seaturtle     ,html/resources/sequences_IDs/B/09_phone.jpg,html/resources/sequences_IDs/A/02_seaturtle.jpg,9,2,4,2,2,1,7,2,1,36,,,,,,,,,,,,,,,,,,,,
,,,,,36,2020-07-03_16h57.45.275,retriever_ti,2020.1.3,Win32,60,Chrome,1366,768,,,,,,,,,,,,,,,,,3,,,,,,,,,,,,,,,,,,,,,,,,,,,1290.391295,211,right,1.22356,seaturtle     ,7,2,1,1,0,1290.40845,1290.40845,1292.8958,0,56,56,56,1,211,6,7,slipper     ,seaturtle     ,html/resources/sequences_IDs/B/08_slipper.jpg,html/resources/sequences_IDs/A/02_seaturtle.jpg,8,2,3,2,2,1,6,2,1,36,,,,,,,,,,,,,,,,,,,,
,,,,,36,2020-07-03_16h57.45.275,retriever_ti,2020.1.3,Win32,60,Chrome,1366,768,,,,,,,,,,,,,,,,,3,,,,,,,,,,,,,,,,,,,,,,,,,,,1293.99971,212,left,1.22745,radio       ,4,10,-1,0,1,1294.033575,1294.033575,1296.520905,0,57,57,57,1,212,4,5,radio       ,camel         ,html/resources/sequences_IDs/B/10_radio.jpg,html/resources/sequences_IDs/A/03_camel.jpg,10,3,4,2,1,1,8,3,1,36,,,,,,,,,,,,,,,,,,,,
,,,,,36,2020-07-03_16h57.45.275,retriever_ti,2020.1.3,Win32,60,Chrome,1366,768,,,,,,,,,,,,,,,,,3,,,,,,,,,,,,,,,,,,,,,,,,,,,1297.62521,213,right,1.293815,seaturtle     ,7,2,-1,0,0,1297.65892,1297.65892,1300.146025,0,58,58,58,1,213,8,7,phone       ,seaturtle     ,html/resources/sequences_IDs/B/09_phone.jpg,html/resources/sequences_IDs/A/02_seaturtle.jpg,9,2,4,2,2,1,7,2,0,36,,,,,,,,,,,,,,,,,,,,
,,,,,36,2020-07-03_16h57.45.275,retriever_ti,2020.1.3,Win32,60,Chrome,1366,768,,,,,,,,,,,,,,,,,3,,,,,,,,,,,,,,,,,,,,,,,,,,,1301.23644,214,right,1.826215,wolf          ,3,1,-3,0,3,1301.267945,1301.267945,1303.755405,0,59,59,59,1,214,6,3,slipper     ,wolf          ,html/resources/sequences_IDs/B/08_slipper.jpg,html/resources/sequences_IDs/A/01_wolf.jpg,8,1,3,2,1,1,6,1,0,36,,,,,,,,,,,,,,,,,,,,
,,,,,36,2020-07-03_16h57.45.275,retriever_ti,2020.1.3,Win32,60,Chrome,1366,768,,,,,,,,,,,,,,,,,3,,,,,,,,,,,,,,,,,,,,,,,,,,,1304.35729,215,right,1.33097,slipper     ,6,8,1,1,1,1304.374775,1304.374775,1306.862765,0,60,60,60,1,215,5,6,camel         ,slipper     ,html/resources/sequences_IDs/A/03_camel.jpg,html/resources/sequences_IDs/B/08_slipper.jpg,3,8,1,1,3,2,3,6,0,36,,,,,,,,,,,,,,,,,,,,
,,,,,36,2020-07-03_16h57.45.275,retriever_ti,2020.1.3,Win32,60,Chrome,1366,768,,,,,,,,,,,,,,,,,3,,,,,,,,,,,,,,,,,,,,,,,,,,,1307.96703,216,left,1.48656,camel         ,5,3,-3,0,3,1308.00062,1308.00062,1310.48841,0,61,61,61,1,216,5,8,camel         ,phone       ,html/resources/sequences_IDs/A/03_camel.jpg,html/resources/sequences_IDs/B/09_phone.jpg,3,9,1,1,4,2,3,7,0,36,,,,,,,,,,,,,,,,,,,,
,,,,,36,2020-07-03_16h57.45.275,retriever_ti,2020.1.3,Win32,60,Chrome,1366,768,,,,,,,,,,,,,,,,,3,,,,,,,,,,,,,,,,,,,,,,,,,,,1311.10625,217,left,1.06249,seaturtle     ,7,2,1,1,1,1311.124515,1311.124515,1313.61329,0,62,62,62,1,217,7,6,seaturtle     ,slipper     ,html/resources/sequences_IDs/A/02_seaturtle.jpg,html/resources/sequences_IDs/B/08_slipper.jpg,2,8,2,1,3,2,2,6,0,36,,,,,,,,,,,,,,,,,,,,
,,,,,36,2020-07-03_16h57.45.275,retriever_ti,2020.1.3,Win32,60,Chrome,1366,768,,,,,,,,,,,,,,,,,3,,,,,,,,,,,,,,,,,,,,,,,,,,,1314.716175,218,left,1.962125,wolf          ,3,1,2,1,3,1314.73332,1314.73332,1317.22038,0,63,63,63,1,218,3,1,wolf          ,peacock       ,html/resources/sequences_IDs/A/01_wolf.jpg,html/resources/sequences_IDs/A/05_peacock.jpg,1,5,1,1,2,1,1,4,0,36,,,,,,,,,,,,,,,,,,,,
,,,,,36,2020-07-03_16h57.45.275,retriever_ti,2020.1.3,Win32,60,Chrome,1366,768,,,,,,,,,,,,,,,,,3,,,,,,,,,,,,,,,,,,,,,,,,,,,1317.823785,219,left,1.16251,phone       ,8,9,2,1,3,1317.85746,1317.85746,1320.34413,0,64,64,64,1,219,8,6,phone       ,slipper     ,html/resources/sequences_IDs/B/09_phone.jpg,html/resources/sequences_IDs/B/08_slipper.jpg,9,8,4,2,3,2,7,6,0,36,,,,,,,,,,,,,,,,,,,,
,,,,,36,2020-07-03_16h57.45.275,retriever_ti,2020.1.3,Win32,60,Chrome,1366,768,,,,,,,,,,,,,,,,,3,,,,,,,,,,,,,,,,,,,,,,,,,,,1320.94666,220,left,1.150775,phone       ,8,9,6,1,3,1320.98176,1320.98176,1323.46936,0,65,65,65,1,220,8,2,phone       ,gloves      ,html/resources/sequences_IDs/B/09_phone.jpg,html/resources/sequences_IDs/B/06_gloves.jpg,9,6,4,2,3,2,7,5,0,36,,,,,,,,,,,,,,,,,,,,
,,,,,36,2020-07-03_16h57.45.275,retriever_ti,2020.1.3,Win32,60,Chrome,1366,768,,,,,,,,,,,,,,,,,3,,,,,,,,,,,,,,,,,,,,,,,,,,,1324.071705,221,left,0.922725,peacock       ,1,5,-7,0,3,1324.088865,1324.088865,1326.57673,0,66,66,66,1,221,1,8,peacock       ,phone       ,html/resources/sequences_IDs/A/05_peacock.jpg,html/resources/sequences_IDs/B/09_phone.jpg,5,9,2,1,4,2,4,7,0,36,,,,,,,,,,,,,,,,,,,,
,,,,,36,2020-07-03_16h57.45.275,retriever_ti,2020.1.3,Win32,60,Chrome,1366,768,,,,,,,,,,,,,,,,,3,,,,,,,,,,,,,,,,,,,,,,,,,,,1327.179145,222,right,0.827465,peacock       ,1,5,-4,0,3,1327.197155,1327.197155,1329.684055,0,67,67,67,1,222,5,1,camel         ,peacock       ,html/resources/sequences_IDs/A/03_camel.jpg,html/resources/sequences_IDs/A/05_peacock.jpg,3,5,1,1,2,1,3,4,0,36,,,,,,,,,,,,,,,,,,,,
,,,,,36,2020-07-03_16h57.45.275,retriever_ti,2020.1.3,Win32,60,Chrome,1366,768,,,,,,,,,,,,,,,,,3,,,,,,,,,,,,,,,,,,,,,,,,,,,1330.286425,223,right,0.96497,seaturtle     ,7,2,2,1,3,1330.324735,1330.324735,1332.825175,0,68,68,68,1,223,5,7,camel         ,seaturtle     ,html/resources/sequences_IDs/A/03_camel.jpg,html/resources/sequences_IDs/A/02_seaturtle.jpg,3,2,1,1,2,1,3,2,0,36,,,,,,,,,,,,,,,,,,,,
