instructionsLoop.thisRepN,instructionsLoop.thisTrialN,instructionsLoop.thisN,instructionsLoop.thisIndex,instructionsLoop.ran,participant,date,expName,psychopyVersion,OS,frameRate,browser,xResolution,yResolution,fix_onset,tprac,practiceKey.keys,practiceKey.rt,pracitem_chosen_name,acc_practice,P1_onsetPrac,P2_onsetPrac,onsetFeedbPrac,practiceTrials.thisRepN,practiceTrials.thisTrialN,practiceTrials.thisN,practiceTrials.thisIndex,practiceTrials.ran,P1,P2,Block,LocItem1,LocItem2,NameItem1,NameItem2,key_respAC_prac.keys,key_respAC_prac.corr,key_respAC_prac.rt,AC_acc,Attentions.thisRepN,Attentions.thisTrialN,Attentions.thisN,Attentions.thisIndex,Attentions.ran,Stim,Loc1,Loc2,Loc3,Loc4,CorrAns,keyDisturbed.keys,keyDisturbed.rt,repPractice.thisRepN,repPractice.thisTrialN,repPractice.thisN,repPractice.thisIndex,repPractice.ran,fixcross_onsetMain,trialNumber,key_resp.keys,key_resp.rt,item_chosen_name,item_chosen_value,item_chosen_ID,diff_chosen_minus_reject,acc_real,acc_feedback,P1_onset,P2_onset,feedb_onset,trials.thisRepN,trials.thisTrialN,trials.thisN,trials.thisIndex,trials.ran,Trial,ValueP1,ValueP2,P1name,P2name,P1Loc,P2Loc,P1id,P2id,Micro_categoryP1,Macro_categoryP1,Micro_categoryP2,Macro_categoryP2,ID_sequenceP1,ID_sequenceP2,InverseFb,pNumber,repBlocks.thisRepN,repBlocks.thisTrialN,repBlocks.thisN,repBlocks.thisIndex,repBlocks.ran,key_respAC.keys,key_respAC.corr,key_respAC.rt,trials_AC.thisRepN,trials_AC.thisTrialN,trials_AC.thisN,trials_AC.thisIndex,trials_AC.ran,Bonus,BonusLoop.thisRepN,BonusLoop.thisTrialN,BonusLoop.thisN,BonusLoop.thisIndex,BonusLoop.ran,comments
0,0,0,0,1,37,2020-07-03_17h02.12.130,retriever_ti,2020.1.3,Win32,60,Firefox,1920,1080,,,,,,,,,,,,,,,,,,,,,,,,,,,,,,,,,,,,,,,,,,,,,,,,,,,,,,,,,,,,,,,,,,,,,,,,,,,,,,,,,,,,,,,,,,,,,,,,,,
1,0,1,0,1,37,2020-07-03_17h02.12.130,retriever_ti,2020.1.3,Win32,60,Firefox,1920,1080,,,,,,,,,,,,,,,,,,,,,,,,,,,,,,,,,,,,,,,,,,,,,,,,,,,,,,,,,,,,,,,,,,,,,,,,,,,,,,,,,,,,,,,,,,,,,,,,,,
2,0,2,0,1,37,2020-07-03_17h02.12.130,retriever_ti,2020.1.3,Win32,60,Firefox,1920,1080,,,,,,,,,,,,,,,,,,,,,,,,,,,,,,,,,,,,,,,,,,,,,,,,,,,,,,,,,,,,,,,,,,,,,,,,,,,,,,,,,,,,,,,,,,,,,,,,,,
3,0,3,0,1,37,2020-07-03_17h02.12.130,retriever_ti,2020.1.3,Win32,60,Firefox,1920,1080,,,,,,,,,,,,,,,,,,,,,,,,,,,,,,,,,,,,,,,,,,,,,,,,,,,,,,,,,,,,,,,,,,,,,,,,,,,,,,,,,,,,,,,,,,,,,,,,,,
4,0,4,0,1,37,2020-07-03_17h02.12.130,retriever_ti,2020.1.3,Win32,60,Firefox,1920,1080,,,,,,,,,,,,,,,,,,,,,,,,,,,,,,,,,,,,,,,,,,,,,,,,,,,,,,,,,,,,,,,,,,,,,,,,,,,,,,,,,,,,,,,,,,,,,,,,,,
5,0,5,0,1,37,2020-07-03_17h02.12.130,retriever_ti,2020.1.3,Win32,60,Firefox,1920,1080,,,,,,,,,,,,,,,,,,,,,,,,,,,,,,,,,,,,,,,,,,,,,,,,,,,,,,,,,,,,,,,,,,,,,,,,,,,,,,,,,,,,,,,,,,,,,,,,,,
6,0,6,0,1,37,2020-07-03_17h02.12.130,retriever_ti,2020.1.3,Win32,60,Firefox,1920,1080,,,,,,,,,,,,,,,,,,,,,,,,,,,,,,,,,,,,,,,,,,,,,,,,,,,,,,,,,,,,,,,,,,,,,,,,,,,,,,,,,,,,,,,,,,,,,,,,,,
7,0,7,0,1,37,2020-07-03_17h02.12.130,retriever_ti,2020.1.3,Win32,60,Firefox,1920,1080,,,,,,,,,,,,,,,,,,,,,,,,,,,,,,,,,,,,,,,,,,,,,,,,,,,,,,,,,,,,,,,,,,,,,,,,,,,,,,,,,,,,,,,,,,,,,,,,,,
8,0,8,0,1,37,2020-07-03_17h02.12.130,retriever_ti,2020.1.3,Win32,60,Firefox,1920,1080,,,,,,,,,,,,,,,,,,,,,,,,,,,,,,,,,,,,,,,,,,,,,,,,,,,,,,,,,,,,,,,,,,,,,,,,,,,,,,,,,,,,,,,,,,,,,,,,,,
9,0,9,0,1,37,2020-07-03_17h02.12.130,retriever_ti,2020.1.3,Win32,60,Firefox,1920,1080,,,,,,,,,,,,,,,,,,,,,,,,,,,,,,,,,,,,,,,,,,,,,,,,,,,,,,,,,,,,,,,,,,,,,,,,,,,,,,,,,,,,,,,,,,,,,,,,,,
10,0,10,0,1,37,2020-07-03_17h02.12.130,retriever_ti,2020.1.3,Win32,60,Firefox,1920,1080,,,,,,,,,,,,,,,,,,,,,,,,,,,,,,,,,,,,,,,,,,,,,,,,,,,,,,,,,,,,,,,,,,,,,,,,,,,,,,,,,,,,,,,,,,,,,,,,,,
11,0,11,0,1,37,2020-07-03_17h02.12.130,retriever_ti,2020.1.3,Win32,60,Firefox,1920,1080,,,,,,,,,,,,,,,,,,,,,,,,,,,,,,,,,,,,,,,,,,,,,,,,,,,,,,,,,,,,,,,,,,,,,,,,,,,,,,,,,,,,,,,,,,,,,,,,,,
12,0,12,0,1,37,2020-07-03_17h02.12.130,retriever_ti,2020.1.3,Win32,60,Firefox,1920,1080,,,,,,,,,,,,,,,,,,,,,,,,,,,,,,,,,,,,,,,,,,,,,,,,,,,,,,,,,,,,,,,,,,,,,,,,,,,,,,,,,,,,,,,,,,,,,,,,,,
13,0,13,0,1,37,2020-07-03_17h02.12.130,retriever_ti,2020.1.3,Win32,60,Firefox,1920,1080,,,,,,,,,,,,,,,,,,,,,,,,,,,,,,,,,,,,,,,,,,,,,,,,,,,,,,,,,,,,,,,,,,,,,,,,,,,,,,,,,,,,,,,,,,,,,,,,,,
14,0,14,0,1,37,2020-07-03_17h02.12.130,retriever_ti,2020.1.3,Win32,60,Firefox,1920,1080,,,,,,,,,,,,,,,,,,,,,,,,,,,,,,,,,,,,,,,,,,,,,,,,,,,,,,,,,,,,,,,,,,,,,,,,,,,,,,,,,,,,,,,,,,,,,,,,,,
15,0,15,0,1,37,2020-07-03_17h02.12.130,retriever_ti,2020.1.3,Win32,60,Firefox,1920,1080,,,,,,,,,,,,,,,,,,,,,,,,,,,,,,,,,,,,,,,,,,,,,,,,,,,,,,,,,,,,,,,,,,,,,,,,,,,,,,,,,,,,,,,,,,,,,,,,,,
16,0,16,0,1,37,2020-07-03_17h02.12.130,retriever_ti,2020.1.3,Win32,60,Firefox,1920,1080,,,,,,,,,,,,,,,,,,,,,,,,,,,,,,,,,,,,,,,,,,,,,,,,,,,,,,,,,,,,,,,,,,,,,,,,,,,,,,,,,,,,,,,,,,,,,,,,,,
17,0,17,0,1,37,2020-07-03_17h02.12.130,retriever_ti,2020.1.3,Win32,60,Firefox,1920,1080,,,,,,,,,,,,,,,,,,,,,,,,,,,,,,,,,,,,,,,,,,,,,,,,,,,,,,,,,,,,,,,,,,,,,,,,,,,,,,,,,,,,,,,,,,,,,,,,,,
18,0,18,0,1,37,2020-07-03_17h02.12.130,retriever_ti,2020.1.3,Win32,60,Firefox,1920,1080,,,,,,,,,,,,,,,,,,,,,,,,,,,,,,,,,,,,,,,,,,,,,,,,,,,,,,,,,,,,,,,,,,,,,,,,,,,,,,,,,,,,,,,,,,,,,,,,,,
19,0,19,0,1,37,2020-07-03_17h02.12.130,retriever_ti,2020.1.3,Win32,60,Firefox,1920,1080,,,,,,,,,,,,,,,,,,,,,,,,,,,,,,,,,,,,,,,,,,,,,,,,,,,,,,,,,,,,,,,,,,,,,,,,,,,,,,,,,,,,,,,,,,,,,,,,,,
20,0,20,0,1,37,2020-07-03_17h02.12.130,retriever_ti,2020.1.3,Win32,60,Firefox,1920,1080,,,,,,,,,,,,,,,,,,,,,,,,,,,,,,,,,,,,,,,,,,,,,,,,,,,,,,,,,,,,,,,,,,,,,,,,,,,,,,,,,,,,,,,,,,,,,,,,,,
21,0,21,0,1,37,2020-07-03_17h02.12.130,retriever_ti,2020.1.3,Win32,60,Firefox,1920,1080,,,,,,,,,,,,,,,,,,,,,,,,,,,,,,,,,,,,,,,,,,,,,,,,,,,,,,,,,,,,,,,,,,,,,,,,,,,,,,,,,,,,,,,,,,,,,,,,,,
22,0,22,0,1,37,2020-07-03_17h02.12.130,retriever_ti,2020.1.3,Win32,60,Firefox,1920,1080,,,,,,,,,,,,,,,,,,,,,,,,,,,,,,,,,,,,,,,,,,,,,,,,,,,,,,,,,,,,,,,,,,,,,,,,,,,,,,,,,,,,,,,,,,,,,,,,,,
,,,,,37,2020-07-03_17h02.12.130,retriever_ti,2020.1.3,Win32,60,Firefox,1920,1080,971.814,1,NaN,NaN,No_response,2,971.823,971.823,974.318,0,0,0,0,1,2,5,1,html/resources/stimuli_practice_decision/04_beetle.jpg,html/resources/stimuli_practice_decision/02_canary.jpg,beetle,canary,,,,,,,,,,,,,,,,,,,,,,,,,,,,,,,,,,,,,,,,,,,,,,,,,,,,,,,,,,,,,,,,,,,,,,,,,,,,,
,,,,,37,2020-07-03_17h02.12.130,retriever_ti,2020.1.3,Win32,60,Firefox,1920,1080,974.846,2,left,1.023,rabbit,1,974.869,974.869,977.368,0,1,1,1,1,4,3,1,html/resources/stimuli_practice_decision/01_rabbit.jpg,html/resources/stimuli_practice_decision/07_sock.jpg,rabbit,sock,,,,,,,,,,,,,,,,,,,,,,,,,,,,,,,,,,,,,,,,,,,,,,,,,,,,,,,,,,,,,,,,,,,,,,,,,,,,,
,,,,,37,2020-07-03_17h02.12.130,retriever_ti,2020.1.3,Win32,60,Firefox,1920,1080,978.368,3,left,1.004,pullover,1,978.402,978.402,980.902,0,2,2,2,1,6,2,1,html/resources/stimuli_practice_decision/06_pullover.jpg,html/resources/stimuli_practice_decision/04_beetle.jpg,pullover,beetle,,,,,,,,,,,,,,,,,,,,,,,,,,,,,,,,,,,,,,,,,,,,,,,,,,,,,,,,,,,,,,,,,,,,,,,,,,,,,
,,,,,37,2020-07-03_17h02.12.130,retriever_ti,2020.1.3,Win32,60,Firefox,1920,1080,981.417,4,right,1.217,handmixer,0,981.451,981.451,983.951,0,3,3,3,1,7,1,1,html/resources/stimuli_practice_decision/05_glasses.jpg,html/resources/stimuli_practice_decision/08_handmixer.jpg,glasses,handmixer,,,,,,,,,,,,,,,,,,,,,,,,,,,,,,,,,,,,,,,,,,,,,,,,,,,,,,,,,,,,,,,,,,,,,,,,,,,,,
,,,,,37,2020-07-03_17h02.12.130,retriever_ti,2020.1.3,Win32,60,Firefox,1920,1080,984.468,5,right,2.008,pullover,0,984.484,984.484,986.984,0,4,4,4,1,7,6,1,html/resources/stimuli_practice_decision/05_glasses.jpg,html/resources/stimuli_practice_decision/06_pullover.jpg,glasses,pullover,,,,,,,,,,,,,,,,,,,,,,,,,,,,,,,,,,,,,,,,,,,,,,,,,,,,,,,,,,,,,,,,,,,,,,,,,,,,,
,,,,,37,2020-07-03_17h02.12.130,retriever_ti,2020.1.3,Win32,60,Firefox,1920,1080,987.984,6,right,1.297,glasses,1,988.019,988.019,990.517,0,5,5,5,1,4,7,1,html/resources/stimuli_practice_decision/01_rabbit.jpg,html/resources/stimuli_practice_decision/05_glasses.jpg,rabbit,glasses,,,,,,,,,,,,,,,,,,,,,,,,,,,,,,,,,,,,,,,,,,,,,,,,,,,,,,,,,,,,,,,,,,,,,,,,,,,,,
,,,,,37,2020-07-03_17h02.12.130,retriever_ti,2020.1.3,Win32,60,Firefox,1920,1080,991.017,7,left,1.072,handmixer,0,991.052,991.052,993.55,0,6,6,6,1,1,2,1,html/resources/stimuli_practice_decision/08_handmixer.jpg,html/resources/stimuli_practice_decision/04_beetle.jpg,handmixer,beetle,,,,,,,,,,,,,,,,,,,,,,,,,,,,,,,,,,,,,,,,,,,,,,,,,,,,,,,,,,,,,,,,,,,,,,,,,,,,,
,,,,,37,2020-07-03_17h02.12.130,retriever_ti,2020.1.3,Win32,60,Firefox,1920,1080,994.55,8,left,1.633,rabbit,1,994.568,994.568,997.067,0,7,7,7,1,4,3,1,html/resources/stimuli_practice_decision/01_rabbit.jpg,html/resources/stimuli_practice_decision/07_sock.jpg,rabbit,sock,,,,,,,,,,,,,,,,,,,,,,,,,,,,,,,,,,,,,,,,,,,,,,,,,,,,,,,,,,,,,,,,,,,,,,,,,,,,,
,,,,,37,2020-07-03_17h02.12.130,retriever_ti,2020.1.3,Win32,60,Firefox,1920,1080,,,,,,,,,,,,,,,,,,,,,,left,1,3.668,1,0,0,0,2,1,html/resources/sequences_IDs/square1.png,star ↑,triangle →,circle ↓,← square,left,,,,,,,,,,,,,,,,,,,,,,,,,,,,,,,,,,,,,,,,,,,,,,,,,,,,,,,,,,,,,,
,,,,,37,2020-07-03_17h02.12.130,retriever_ti,2020.1.3,Win32,60,Firefox,1920,1080,,,,,,,,,,,,,,,,,,,,,,up,1,1.291,1,0,1,1,0,1,html/resources/sequences_IDs/circle.png,circle ↑,square →,triangle ↓,← star ,up,,,,,,,,,,,,,,,,,,,,,,,,,,,,,,,,,,,,,,,,,,,,,,,,,,,,,,,,,,,,,,
,,,,,37,2020-07-03_17h02.12.130,retriever_ti,2020.1.3,Win32,60,Firefox,1920,1080,,,,,,,,,,,,,,,,,,,,,,down,1,1.582,1,0,2,2,1,1,html/resources/sequences_IDs/star.png,square ↑,circle →,star ↓,← triangle,down,,,,,,,,,,,,,,,,,,,,,,,,,,,,,,,,,,,,,,,,,,,,,,,,,,,,,,,,,,,,,,
,,,,,37,2020-07-03_17h02.12.130,retriever_ti,2020.1.3,Win32,60,Firefox,1920,1080,,,,,,,,,,,,,,,,,,,,,,down,1,1.456,1,0,3,3,3,1,html/resources/sequences_IDs/triangle.png,star ↑,square →,triangle ↓,← circle,down,,,,,,,,,,,,,,,,,,,,,,,,,,,,,,,,,,,,,,,,,,,,,,,,,,,,,,,,,,,,,,
,,,,,37,2020-07-03_17h02.12.130,retriever_ti,2020.1.3,Win32,60,Firefox,1920,1080,,,,,,,,,,,,,,,,,,,,,,,,,,,,,,,,,,,,,0,20.91,0,0,0,0,1,,,,,,,,,,,,,,,,,,,,,,,,,,,,,,,,,,,,,,,,,,,,,,,,,,,,,,,
,,,,,37,2020-07-03_17h02.12.130,retriever_ti,2020.1.3,Win32,60,Firefox,1920,1080,1035.126,9,right,1.064,glasses,1,1035.149,1035.149,1037.649,0,0,0,0,1,6,7,1,html/resources/stimuli_practice_decision/06_pullover.jpg,html/resources/stimuli_practice_decision/05_glasses.jpg,pullover,glasses,,,,,,,,,,,,,,,,,,,,,,,,,,,,,,,,,,,,,,,,,,,,,,,,,,,,,,,,,,,,,,,,,,,,,,,,,,,,,
,,,,,37,2020-07-03_17h02.12.130,retriever_ti,2020.1.3,Win32,60,Firefox,1920,1080,1038.649,10,left,0.862,pullover,1,1038.683,1038.683,1041.182,0,1,1,1,1,6,2,1,html/resources/stimuli_practice_decision/06_pullover.jpg,html/resources/stimuli_practice_decision/04_beetle.jpg,pullover,beetle,,,,,,,,,,,,,,,,,,,,,,,,,,,,,,,,,,,,,,,,,,,,,,,,,,,,,,,,,,,,,,,,,,,,,,,,,,,,,
,,,,,37,2020-07-03_17h02.12.130,retriever_ti,2020.1.3,Win32,60,Firefox,1920,1080,1041.683,11,right,0.727,pullover,1,1041.699,1041.699,1044.199,0,2,2,2,1,5,6,1,html/resources/stimuli_practice_decision/02_canary.jpg,html/resources/stimuli_practice_decision/06_pullover.jpg,canary,pullover,,,,,,,,,,,,,,,,,,,,,,,,,,,,,,,,,,,,,,,,,,,,,,,,,,,,,,,,,,,,,,,,,,,,,,,,,,,,,
,,,,,37,2020-07-03_17h02.12.130,retriever_ti,2020.1.3,Win32,60,Firefox,1920,1080,1045.199,12,right,0.901,glasses,0,1045.234,1045.234,1047.732,0,3,3,3,1,8,7,1,html/resources/stimuli_practice_decision/03_squirrel.jpg,html/resources/stimuli_practice_decision/05_glasses.jpg,squirrel,glasses,,,,,,,,,,,,,,,,,,,,,,,,,,,,,,,,,,,,,,,,,,,,,,,,,,,,,,,,,,,,,,,,,,,,,,,,,,,,,
,,,,,37,2020-07-03_17h02.12.130,retriever_ti,2020.1.3,Win32,60,Firefox,1920,1080,1048.733,13,left,1.164,canary,1,1048.749,1048.749,1051.249,0,4,4,4,1,5,3,1,html/resources/stimuli_practice_decision/02_canary.jpg,html/resources/stimuli_practice_decision/07_sock.jpg,canary,sock,,,,,,,,,,,,,,,,,,,,,,,,,,,,,,,,,,,,,,,,,,,,,,,,,,,,,,,,,,,,,,,,,,,,,,,,,,,,,
,,,,,37,2020-07-03_17h02.12.130,retriever_ti,2020.1.3,Win32,60,Firefox,1920,1080,1051.766,14,right,1.329,squirrel,1,1051.799,1051.799,1054.299,0,5,5,5,1,7,8,1,html/resources/stimuli_practice_decision/05_glasses.jpg,html/resources/stimuli_practice_decision/03_squirrel.jpg,glasses,squirrel,,,,,,,,,,,,,,,,,,,,,,,,,,,,,,,,,,,,,,,,,,,,,,,,,,,,,,,,,,,,,,,,,,,,,,,,,,,,,
,,,,,37,2020-07-03_17h02.12.130,retriever_ti,2020.1.3,Win32,60,Firefox,1920,1080,1055.299,15,right,1.16,rabbit,0,1055.334,1055.334,1057.831,0,6,6,6,1,5,4,1,html/resources/stimuli_practice_decision/02_canary.jpg,html/resources/stimuli_practice_decision/01_rabbit.jpg,canary,rabbit,,,,,,,,,,,,,,,,,,,,,,,,,,,,,,,,,,,,,,,,,,,,,,,,,,,,,,,,,,,,,,,,,,,,,,,,,,,,,
,,,,,37,2020-07-03_17h02.12.130,retriever_ti,2020.1.3,Win32,60,Firefox,1920,1080,1058.832,16,left,0.685,canary,1,1058.851,1058.851,1061.349,0,7,7,7,1,5,3,1,html/resources/stimuli_practice_decision/02_canary.jpg,html/resources/stimuli_practice_decision/07_sock.jpg,canary,sock,,,,,,,,,,,,,,,,,,,,,,,,,,,,,,,,,,,,,,,,,,,,,,,,,,,,,,,,,,,,,,,,,,,,,,,,,,,,,
,,,,,37,2020-07-03_17h02.12.130,retriever_ti,2020.1.3,Win32,60,Firefox,1920,1080,,,,,,,,,,,,,,,,,,,,,,down,1,1.562,1,0,0,0,3,1,html/resources/sequences_IDs/triangle.png,star ↑,square →,triangle ↓,← circle,down,,,,,,,,,,,,,,,,,,,,,,,,,,,,,,,,,,,,,,,,,,,,,,,,,,,,,,,,,,,,,,
,,,,,37,2020-07-03_17h02.12.130,retriever_ti,2020.1.3,Win32,60,Firefox,1920,1080,,,,,,,,,,,,,,,,,,,,,,down,1,1.529,1,0,1,1,1,1,html/resources/sequences_IDs/star.png,square ↑,circle →,star ↓,← triangle,down,,,,,,,,,,,,,,,,,,,,,,,,,,,,,,,,,,,,,,,,,,,,,,,,,,,,,,,,,,,,,,
,,,,,37,2020-07-03_17h02.12.130,retriever_ti,2020.1.3,Win32,60,Firefox,1920,1080,,,,,,,,,,,,,,,,,,,,,,up,1,0.8,1,0,2,2,0,1,html/resources/sequences_IDs/circle.png,circle ↑,square →,triangle ↓,← star ,up,,,,,,,,,,,,,,,,,,,,,,,,,,,,,,,,,,,,,,,,,,,,,,,,,,,,,,,,,,,,,,
,,,,,37,2020-07-03_17h02.12.130,retriever_ti,2020.1.3,Win32,60,Firefox,1920,1080,,,,,,,,,,,,,,,,,,,,,,left,1,2.005,1,0,3,3,2,1,html/resources/sequences_IDs/square1.png,star ↑,triangle →,circle ↓,← square,left,,,,,,,,,,,,,,,,,,,,,,,,,,,,,,,,,,,,,,,,,,,,,,,,,,,,,,,,,,,,,,
,,,,,37,2020-07-03_17h02.12.130,retriever_ti,2020.1.3,Win32,60,Firefox,1920,1080,,,,,,,,,,,,,,,,,,,,,,,,,,,,,,,,,,,,,0,3.486,1,0,1,0,1,,,,,,,,,,,,,,,,,,,,,,,,,,,,,,,,,,,,,,,,,,,,,,,,,,,,,,,
,,,,,37,2020-07-03_17h02.12.130,retriever_ti,2020.1.3,Win32,60,Firefox,1920,1080,,,,,,,,,,,,,,,,,1,,,,,,,,,,,,,,,,,,,,,,,,,,,1102.855,1,left,0.775,redfox      ,6,1,2,1,3,1102.858,1102.858,1105.348,0,0,0,0,1,1,6,4,redfox      ,slipper     ,html/resources/sequences_IDs/B/01_redfox.jpg,html/resources/sequences_IDs/B/08_slipper.jpg,1,8,1,1,3,2,1,6,0,37,,,,,,,,,,,,,,,,,,,,
,,,,,37,2020-07-03_17h02.12.130,retriever_ti,2020.1.3,Win32,60,Firefox,1920,1080,,,,,,,,,,,,,,,,,1,,,,,,,,,,,,,,,,,,,,,,,,,,,1105.966,2,left,1.421,calculator    ,3,9,2,1,3,1105.998,1105.998,1108.498,0,1,1,1,1,2,3,1,calculator    ,clownfish     ,html/resources/sequences_IDs/A/09_calculator.jpg,html/resources/sequences_IDs/A/04_clownfish.jpg,9,4,4,2,2,1,7,4,0,37,,,,,,,,,,,,,,,,,,,,
,,,,,37,2020-07-03_17h02.12.130,retriever_ti,2020.1.3,Win32,60,Firefox,1920,1080,,,,,,,,,,,,,,,,,1,,,,,,,,,,,,,,,,,,,,,,,,,,,1109.115,3,left,1.027,radio       ,8,10,5,1,3,1109.133,1109.133,1111.631,0,2,2,2,1,3,8,3,radio       ,calculator    ,html/resources/sequences_IDs/B/10_radio.jpg,html/resources/sequences_IDs/A/09_calculator.jpg,10,9,4,2,4,2,8,7,0,37,,,,,,,,,,,,,,,,,,,,
,,,,,37,2020-07-03_17h02.12.130,retriever_ti,2020.1.3,Win32,60,Firefox,1920,1080,,,,,,,,,,,,,,,,,1,,,,,,,,,,,,,,,,,,,,,,,,,,,1112.248,4,right,1.168,seaturtle     ,5,2,-2,0,3,1112.266,1112.266,1114.764,0,3,3,3,1,4,7,5,scarf         ,seaturtle     ,html/resources/sequences_IDs/A/06_scarf.jpg,html/resources/sequences_IDs/A/02_seaturtle.jpg,6,2,3,2,2,1,5,2,0,37,,,,,,,,,,,,,,,,,,,,
,,,,,37,2020-07-03_17h02.12.130,retriever_ti,2020.1.3,Win32,60,Firefox,1920,1080,,,,,,,,,,,,,,,,,1,,,,,,,,,,,,,,,,,,,,,,,,,,,1115.381,5,left,0.606,giraffe     ,2,3,1,1,1,1115.414,1115.414,1117.915,0,4,4,4,1,5,2,1,giraffe     ,clownfish     ,html/resources/sequences_IDs/B/03_giraffe.jpg,html/resources/sequences_IDs/A/04_clownfish.jpg,3,4,1,1,2,1,3,4,0,37,,,,,,,,,,,,,,,,,,,,
,,,,,37,2020-07-03_17h02.12.130,retriever_ti,2020.1.3,Win32,60,Firefox,1920,1080,,,,,,,,,,,,,,,,,1,,,,,,,,,,,,,,,,,,,,,,,,,,,1119.014,6,right,1.159,radio       ,8,10,2,1,3,1119.049,1119.049,1121.547,0,5,5,5,1,6,6,8,redfox      ,radio       ,html/resources/sequences_IDs/B/01_redfox.jpg,html/resources/sequences_IDs/B/10_radio.jpg,1,10,1,1,4,2,1,8,0,37,,,,,,,,,,,,,,,,,,,,
,,,,,37,2020-07-03_17h02.12.130,retriever_ti,2020.1.3,Win32,60,Firefox,1920,1080,,,,,,,,,,,,,,,,,1,,,,,,,,,,,,,,,,,,,,,,,,,,,1122.148,7,right,0.898,giraffe     ,2,3,-6,0,3,1122.18,1122.18,1124.681,0,6,6,6,1,7,8,2,radio       ,giraffe     ,html/resources/sequences_IDs/B/10_radio.jpg,html/resources/sequences_IDs/B/03_giraffe.jpg,10,3,4,2,1,1,8,3,0,37,,,,,,,,,,,,,,,,,,,,
,,,,,37,2020-07-03_17h02.12.130,retriever_ti,2020.1.3,Win32,60,Firefox,1920,1080,,,,,,,,,,,,,,,,,1,,,,,,,,,,,,,,,,,,,,,,,,,,,1125.281,8,right,0.676,radio       ,8,10,3,1,3,1125.316,1125.316,1127.814,0,7,7,7,1,8,5,8,seaturtle     ,radio       ,html/resources/sequences_IDs/A/02_seaturtle.jpg,html/resources/sequences_IDs/B/10_radio.jpg,2,10,2,1,4,2,2,8,0,37,,,,,,,,,,,,,,,,,,,,
,,,,,37,2020-07-03_17h02.12.130,retriever_ti,2020.1.3,Win32,60,Firefox,1920,1080,,,,,,,,,,,,,,,,,1,,,,,,,,,,,,,,,,,,,,,,,,,,,1128.431,9,right,0.598,giraffe     ,2,3,1,1,1,1128.447,1128.447,1130.947,0,8,8,8,1,9,1,2,clownfish     ,giraffe     ,html/resources/sequences_IDs/A/04_clownfish.jpg,html/resources/sequences_IDs/B/03_giraffe.jpg,4,3,2,1,1,1,4,3,0,37,,,,,,,,,,,,,,,,,,,,
,,,,,37,2020-07-03_17h02.12.130,retriever_ti,2020.1.3,Win32,60,Firefox,1920,1080,,,,,,,,,,,,,,,,,1,,,,,,,,,,,,,,,,,,,,,,,,,,,1132.047,10,right,1.284,clownfish     ,1,4,-3,0,3,1132.08,1132.08,1134.58,0,9,9,9,1,10,4,1,slipper     ,clownfish     ,html/resources/sequences_IDs/B/08_slipper.jpg,html/resources/sequences_IDs/A/04_clownfish.jpg,8,4,3,2,2,1,6,4,0,37,,,,,,,,,,,,,,,,,,,,
,,,,,37,2020-07-03_17h02.12.130,retriever_ti,2020.1.3,Win32,60,Firefox,1920,1080,,,,,,,,,,,,,,,,,1,,,,,,,,,,,,,,,,,,,,,,,,,,,1135.197,11,left,0.744,giraffe     ,2,3,-6,0,3,1135.231,1135.231,1137.73,0,10,10,10,1,11,2,8,giraffe     ,radio       ,html/resources/sequences_IDs/B/03_giraffe.jpg,html/resources/sequences_IDs/B/10_radio.jpg,3,10,1,1,4,2,3,8,0,37,,,,,,,,,,,,,,,,,,,,
,,,,,37,2020-07-03_17h02.12.130,retriever_ti,2020.1.3,Win32,60,Firefox,1920,1080,,,,,,,,,,,,,,,,,1,,,,,,,,,,,,,,,,,,,,,,,,,,,1138.33,12,left,0.699,calculator    ,3,9,-1,0,1,1138.35,1138.35,1140.847,0,11,11,11,1,12,3,4,calculator    ,slipper     ,html/resources/sequences_IDs/A/09_calculator.jpg,html/resources/sequences_IDs/B/08_slipper.jpg,9,8,4,2,3,2,7,6,1,37,,,,,,,,,,,,,,,,,,,,
,,,,,37,2020-07-03_17h02.12.130,retriever_ti,2020.1.3,Win32,60,Firefox,1920,1080,,,,,,,,,,,,,,,,,1,,,,,,,,,,,,,,,,,,,,,,,,,,,1141.947,13,right,0.698,giraffe     ,2,3,1,1,1,1141.965,1141.965,1144.464,0,12,12,12,1,13,1,2,clownfish     ,giraffe     ,html/resources/sequences_IDs/A/04_clownfish.jpg,html/resources/sequences_IDs/B/03_giraffe.jpg,4,3,2,1,1,1,4,3,0,37,,,,,,,,,,,,,,,,,,,,
,,,,,37,2020-07-03_17h02.12.130,retriever_ti,2020.1.3,Win32,60,Firefox,1920,1080,,,,,,,,,,,,,,,,,1,,,,,,,,,,,,,,,,,,,,,,,,,,,1145.564,14,right,1.027,seaturtle     ,5,2,-1,0,0,1145.597,1145.597,1148.097,0,13,13,13,1,14,6,5,redfox      ,seaturtle     ,html/resources/sequences_IDs/B/01_redfox.jpg,html/resources/sequences_IDs/A/02_seaturtle.jpg,1,2,1,1,2,1,1,2,0,37,,,,,,,,,,,,,,,,,,,,
,,,,,37,2020-07-03_17h02.12.130,retriever_ti,2020.1.3,Win32,60,Firefox,1920,1080,,,,,,,,,,,,,,,,,1,,,,,,,,,,,,,,,,,,,,,,,,,,,1149.197,15,left,0.824,giraffe     ,2,3,-1,0,0,1149.214,1149.214,1151.713,0,14,14,14,1,15,2,3,giraffe     ,calculator    ,html/resources/sequences_IDs/B/03_giraffe.jpg,html/resources/sequences_IDs/A/09_calculator.jpg,3,9,1,1,4,2,3,7,0,37,,,,,,,,,,,,,,,,,,,,
,,,,,37,2020-07-03_17h02.12.130,retriever_ti,2020.1.3,Win32,60,Firefox,1920,1080,,,,,,,,,,,,,,,,,1,,,,,,,,,,,,,,,,,,,,,,,,,,,1152.813,16,right,0.751,calculator    ,3,9,1,1,1,1152.848,1152.848,1155.346,0,15,15,15,1,16,2,3,giraffe     ,calculator    ,html/resources/sequences_IDs/B/03_giraffe.jpg,html/resources/sequences_IDs/A/09_calculator.jpg,3,9,1,1,4,2,3,7,0,37,,,,,,,,,,,,,,,,,,,,
,,,,,37,2020-07-03_17h02.12.130,retriever_ti,2020.1.3,Win32,60,Firefox,1920,1080,,,,,,,,,,,,,,,,,1,,,,,,,,,,,,,,,,,,,,,,,,,,,1156.447,17,right,0.524,calculator    ,3,9,-1,0,0,1156.465,1156.465,1158.963,0,16,16,16,1,17,4,3,slipper     ,calculator    ,html/resources/sequences_IDs/B/08_slipper.jpg,html/resources/sequences_IDs/A/09_calculator.jpg,8,9,3,2,4,2,6,7,0,37,,,,,,,,,,,,,,,,,,,,
,,,,,37,2020-07-03_17h02.12.130,retriever_ti,2020.1.3,Win32,60,Firefox,1920,1080,,,,,,,,,,,,,,,,,1,,,,,,,,,,,,,,,,,,,,,,,,,,,1160.063,18,right,1.721,redfox      ,6,1,-1,0,1,1160.098,1160.098,1162.596,0,17,17,17,1,18,7,6,scarf         ,redfox      ,html/resources/sequences_IDs/A/06_scarf.jpg,html/resources/sequences_IDs/B/01_redfox.jpg,6,1,3,2,1,1,5,1,1,37,,,,,,,,,,,,,,,,,,,,
,,,,,37,2020-07-03_17h02.12.130,retriever_ti,2020.1.3,Win32,60,Firefox,1920,1080,,,,,,,,,,,,,,,,,1,,,,,,,,,,,,,,,,,,,,,,,,,,,1163.696,19,right,0.626,slipper     ,4,8,-3,0,3,1163.713,1163.713,1166.213,0,18,18,18,1,19,7,4,scarf         ,slipper     ,html/resources/sequences_IDs/A/06_scarf.jpg,html/resources/sequences_IDs/B/08_slipper.jpg,6,8,3,2,3,2,5,6,0,37,,,,,,,,,,,,,,,,,,,,
,,,,,37,2020-07-03_17h02.12.130,retriever_ti,2020.1.3,Win32,60,Firefox,1920,1080,,,,,,,,,,,,,,,,,1,,,,,,,,,,,,,,,,,,,,,,,,,,,1166.813,20,left,0.727,giraffe     ,2,3,-4,0,3,1166.848,1166.848,1169.347,0,19,19,19,1,20,2,6,giraffe     ,redfox      ,html/resources/sequences_IDs/B/03_giraffe.jpg,html/resources/sequences_IDs/B/01_redfox.jpg,3,1,1,1,1,1,3,1,0,37,,,,,,,,,,,,,,,,,,,,
,,,,,37,2020-07-03_17h02.12.130,retriever_ti,2020.1.3,Win32,60,Firefox,1920,1080,,,,,,,,,,,,,,,,,1,,,,,,,,,,,,,,,,,,,,,,,,,,,1169.963,21,left,1.527,calculator    ,3,9,-3,0,3,1169.98,1169.98,1172.479,0,20,20,20,1,21,3,6,calculator    ,redfox      ,html/resources/sequences_IDs/A/09_calculator.jpg,html/resources/sequences_IDs/B/01_redfox.jpg,9,1,4,2,1,1,7,1,0,37,,,,,,,,,,,,,,,,,,,,
,,,,,37,2020-07-03_17h02.12.130,retriever_ti,2020.1.3,Win32,60,Firefox,1920,1080,,,,,,,,,,,,,,,,,1,,,,,,,,,,,,,,,,,,,,,,,,,,,1173.08,22,left,0.754,slipper     ,4,8,-1,0,1,1173.114,1173.114,1175.612,0,21,21,21,1,22,4,5,slipper     ,seaturtle     ,html/resources/sequences_IDs/B/08_slipper.jpg,html/resources/sequences_IDs/A/02_seaturtle.jpg,8,2,3,2,2,1,6,2,1,37,,,,,,,,,,,,,,,,,,,,
,,,,,37,2020-07-03_17h02.12.130,retriever_ti,2020.1.3,Win32,60,Firefox,1920,1080,,,,,,,,,,,,,,,,,1,,,,,,,,,,,,,,,,,,,,,,,,,,,1176.713,23,left,1.095,giraffe     ,2,3,-3,0,3,1176.73,1176.73,1179.229,0,22,22,22,1,23,2,5,giraffe     ,seaturtle     ,html/resources/sequences_IDs/B/03_giraffe.jpg,html/resources/sequences_IDs/A/02_seaturtle.jpg,3,2,1,1,2,1,3,2,0,37,,,,,,,,,,,,,,,,,,,,
,,,,,37,2020-07-03_17h02.12.130,retriever_ti,2020.1.3,Win32,60,Firefox,1920,1080,,,,,,,,,,,,,,,,,1,,,,,,,,,,,,,,,,,,,,,,,,,,,1179.829,24,left,1.251,radio       ,8,10,2,1,3,1179.846,1179.846,1182.346,0,23,23,23,1,24,8,6,radio       ,redfox      ,html/resources/sequences_IDs/B/10_radio.jpg,html/resources/sequences_IDs/B/01_redfox.jpg,10,1,4,2,1,1,8,1,0,37,,,,,,,,,,,,,,,,,,,,
,,,,,37,2020-07-03_17h02.12.130,retriever_ti,2020.1.3,Win32,60,Firefox,1920,1080,,,,,,,,,,,,,,,,,1,,,,,,,,,,,,,,,,,,,,,,,,,,,1182.963,25,left,0.987,redfox      ,6,1,5,1,3,1182.979,1182.979,1185.479,0,24,24,24,1,25,6,1,redfox      ,clownfish     ,html/resources/sequences_IDs/B/01_redfox.jpg,html/resources/sequences_IDs/A/04_clownfish.jpg,1,4,1,1,2,1,1,4,0,37,,,,,,,,,,,,,,,,,,,,
,,,,,37,2020-07-03_17h02.12.130,retriever_ti,2020.1.3,Win32,60,Firefox,1920,1080,,,,,,,,,,,,,,,,,1,,,,,,,,,,,,,,,,,,,,,,,,,,,1186.08,26,left,1.268,scarf         ,7,6,6,1,3,1186.113,1186.113,1188.612,0,25,25,25,1,26,7,1,scarf         ,clownfish     ,html/resources/sequences_IDs/A/06_scarf.jpg,html/resources/sequences_IDs/A/04_clownfish.jpg,6,4,3,2,2,1,5,4,0,37,,,,,,,,,,,,,,,,,,,,
,,,,,37,2020-07-03_17h02.12.130,retriever_ti,2020.1.3,Win32,60,Firefox,1920,1080,,,,,,,,,,,,,,,,,1,,,,,,,,,,,,,,,,,,,,,,,,,,,1189.229,27,left,1.117,radio       ,8,10,1,1,1,1189.247,1189.247,1191.746,0,26,26,26,1,27,8,7,radio       ,scarf         ,html/resources/sequences_IDs/B/10_radio.jpg,html/resources/sequences_IDs/A/06_scarf.jpg,10,6,4,2,3,2,8,5,0,37,,,,,,,,,,,,,,,,,,,,
,,,,,37,2020-07-03_17h02.12.130,retriever_ti,2020.1.3,Win32,60,Firefox,1920,1080,,,,,,,,,,,,,,,,,1,,,,,,,,,,,,,,,,,,,,,,,,,,,1192.846,28,left,0.79,radio       ,8,10,7,1,3,1192.879,1192.879,1195.379,0,27,27,27,1,28,8,1,radio       ,clownfish     ,html/resources/sequences_IDs/B/10_radio.jpg,html/resources/sequences_IDs/A/04_clownfish.jpg,10,4,4,2,2,1,8,4,0,37,,,,,,,,,,,,,,,,,,,,
,,,,,37,2020-07-03_17h02.12.130,retriever_ti,2020.1.3,Win32,60,Firefox,1920,1080,,,,,,,,,,,,,,,,,1,,,,,,,,,,,,,,,,,,,,,,,,,,,1195.996,29,left,0.616,giraffe     ,2,3,-2,0,3,1196.012,1196.012,1198.512,0,28,28,28,1,29,2,4,giraffe     ,slipper     ,html/resources/sequences_IDs/B/03_giraffe.jpg,html/resources/sequences_IDs/B/08_slipper.jpg,3,8,1,1,3,2,3,6,0,37,,,,,,,,,,,,,,,,,,,,
,,,,,37,2020-07-03_17h02.12.130,retriever_ti,2020.1.3,Win32,60,Firefox,1920,1080,,,,,,,,,,,,,,,,,1,,,,,,,,,,,,,,,,,,,,,,,,,,,1199.129,30,right,0.71,calculator    ,3,9,-3,0,3,1199.164,1199.164,1201.662,0,29,29,29,1,30,6,3,redfox      ,calculator    ,html/resources/sequences_IDs/B/01_redfox.jpg,html/resources/sequences_IDs/A/09_calculator.jpg,1,9,1,1,4,2,1,7,0,37,,,,,,,,,,,,,,,,,,,,
,,,,,37,2020-07-03_17h02.12.130,retriever_ti,2020.1.3,Win32,60,Firefox,1920,1080,,,,,,,,,,,,,,,,,1,,,,,,,,,,,,,,,,,,,,,,,,,,,1202.262,31,left,0.616,seaturtle     ,5,2,4,1,3,1202.28,1202.28,1204.779,0,30,30,30,1,31,5,1,seaturtle     ,clownfish     ,html/resources/sequences_IDs/A/02_seaturtle.jpg,html/resources/sequences_IDs/A/04_clownfish.jpg,2,4,2,1,2,1,2,4,0,37,,,,,,,,,,,,,,,,,,,,
,,,,,37,2020-07-03_17h02.12.130,retriever_ti,2020.1.3,Win32,60,Firefox,1920,1080,,,,,,,,,,,,,,,,,1,,,,,,,,,,,,,,,,,,,,,,,,,,,1205.396,32,right,0.546,radio       ,8,10,1,1,1,1205.43,1205.43,1207.929,0,31,31,31,1,32,7,8,scarf         ,radio       ,html/resources/sequences_IDs/A/06_scarf.jpg,html/resources/sequences_IDs/B/10_radio.jpg,6,10,3,2,4,2,5,8,0,37,,,,,,,,,,,,,,,,,,,,
,,,,,37,2020-07-03_17h02.12.130,retriever_ti,2020.1.3,Win32,60,Firefox,1920,1080,,,,,,,,,,,,,,,,,1,,,,,,,,,,,,,,,,,,,,,,,,,,,1209.029,33,left,1.149,calculator    ,3,9,1,1,1,1209.048,1209.048,1211.546,0,32,32,32,1,33,3,2,calculator    ,giraffe     ,html/resources/sequences_IDs/A/09_calculator.jpg,html/resources/sequences_IDs/B/03_giraffe.jpg,9,3,4,2,1,1,7,3,0,37,,,,,,,,,,,,,,,,,,,,
,,,,,37,2020-07-03_17h02.12.130,retriever_ti,2020.1.3,Win32,60,Firefox,1920,1080,,,,,,,,,,,,,,,,,1,,,,,,,,,,,,,,,,,,,,,,,,,,,1212.645,34,right,1.028,calculator    ,3,9,2,1,3,1212.662,1212.662,1215.161,0,33,33,33,1,34,1,3,clownfish     ,calculator    ,html/resources/sequences_IDs/A/04_clownfish.jpg,html/resources/sequences_IDs/A/09_calculator.jpg,4,9,2,1,4,2,4,7,0,37,,,,,,,,,,,,,,,,,,,,
,,,,,37,2020-07-03_17h02.12.130,retriever_ti,2020.1.3,Win32,60,Firefox,1920,1080,,,,,,,,,,,,,,,,,1,,,,,,,,,,,,,,,,,,,,,,,,,,,1215.762,35,left,0.58,slipper     ,4,8,2,1,3,1215.795,1215.795,1218.295,0,34,34,34,1,35,4,2,slipper     ,giraffe     ,html/resources/sequences_IDs/B/08_slipper.jpg,html/resources/sequences_IDs/B/03_giraffe.jpg,8,3,3,2,1,1,6,3,0,37,,,,,,,,,,,,,,,,,,,,
,,,,,37,2020-07-03_17h02.12.130,retriever_ti,2020.1.3,Win32,60,Firefox,1920,1080,,,,,,,,,,,,,,,,,1,,,,,,,,,,,,,,,,,,,,,,,,,,,1218.912,36,left,0.603,slipper     ,4,8,-1,0,0,1218.928,1218.928,1221.428,0,35,35,35,1,36,4,5,slipper     ,seaturtle     ,html/resources/sequences_IDs/B/08_slipper.jpg,html/resources/sequences_IDs/A/02_seaturtle.jpg,8,2,3,2,2,1,6,2,0,37,,,,,,,,,,,,,,,,,,,,
,,,,,37,2020-07-03_17h02.12.130,retriever_ti,2020.1.3,Win32,60,Firefox,1920,1080,,,,,,,,,,,,,,,,,1,,,,,,,,,,,,,,,,,,,,,,,,,,,1222.529,37,left,1.928,calculator    ,3,9,1,1,0,1222.562,1222.562,1225.062,0,36,36,36,1,37,3,2,calculator    ,giraffe     ,html/resources/sequences_IDs/A/09_calculator.jpg,html/resources/sequences_IDs/B/03_giraffe.jpg,9,3,4,2,1,1,7,3,1,37,,,,,,,,,,,,,,,,,,,,
,,,,,37,2020-07-03_17h02.12.130,retriever_ti,2020.1.3,Win32,60,Firefox,1920,1080,,,,,,,,,,,,,,,,,1,,,,,,,,,,,,,,,,,,,,,,,,,,,1226.162,38,right,0.868,slipper     ,4,8,3,1,3,1226.18,1226.18,1228.678,0,37,37,37,1,38,1,4,clownfish     ,slipper     ,html/resources/sequences_IDs/A/04_clownfish.jpg,html/resources/sequences_IDs/B/08_slipper.jpg,4,8,2,1,3,2,4,6,0,37,,,,,,,,,,,,,,,,,,,,
,,,,,37,2020-07-03_17h02.12.130,retriever_ti,2020.1.3,Win32,60,Firefox,1920,1080,,,,,,,,,,,,,,,,,1,,,,,,,,,,,,,,,,,,,,,,,,,,,1229.295,39,right,1.018,seaturtle     ,5,2,-1,0,0,1229.328,1229.328,1231.828,0,38,38,38,1,39,6,5,redfox      ,seaturtle     ,html/resources/sequences_IDs/B/01_redfox.jpg,html/resources/sequences_IDs/A/02_seaturtle.jpg,1,2,1,1,2,1,1,2,0,37,,,,,,,,,,,,,,,,,,,,
,,,,,37,2020-07-03_17h02.12.130,retriever_ti,2020.1.3,Win32,60,Firefox,1920,1080,,,,,,,,,,,,,,,,,1,,,,,,,,,,,,,,,,,,,,,,,,,,,1232.929,40,right,1.321,radio       ,8,10,7,1,3,1232.945,1232.945,1235.444,0,39,39,39,1,40,1,8,clownfish     ,radio       ,html/resources/sequences_IDs/A/04_clownfish.jpg,html/resources/sequences_IDs/B/10_radio.jpg,4,10,2,1,4,2,4,8,0,37,,,,,,,,,,,,,,,,,,,,
,,,,,37,2020-07-03_17h02.12.130,retriever_ti,2020.1.3,Win32,60,Firefox,1920,1080,,,,,,,,,,,,,,,,,1,,,,,,,,,,,,,,,,,,,,,,,,,,,1236.046,41,left,0.651,clownfish     ,1,4,-6,0,3,1236.061,1236.061,1238.561,0,40,40,40,1,41,1,7,clownfish     ,scarf         ,html/resources/sequences_IDs/A/04_clownfish.jpg,html/resources/sequences_IDs/A/06_scarf.jpg,4,6,2,1,3,2,4,5,0,37,,,,,,,,,,,,,,,,,,,,
,,,,,37,2020-07-03_17h02.12.130,retriever_ti,2020.1.3,Win32,60,Firefox,1920,1080,,,,,,,,,,,,,,,,,1,,,,,,,,,,,,,,,,,,,,,,,,,,,1239.178,42,left,1.306,seaturtle     ,5,2,-1,0,0,1239.212,1239.212,1241.712,0,41,41,41,1,42,5,6,seaturtle     ,redfox      ,html/resources/sequences_IDs/A/02_seaturtle.jpg,html/resources/sequences_IDs/B/01_redfox.jpg,2,1,2,1,1,1,2,1,0,37,,,,,,,,,,,,,,,,,,,,
,,,,,37,2020-07-03_17h02.12.130,retriever_ti,2020.1.3,Win32,60,Firefox,1920,1080,,,,,,,,,,,,,,,,,1,,,,,,,,,,,,,,,,,,,,,,,,,,,1242.812,43,right,0.912,redfox      ,6,1,1,1,1,1242.846,1242.846,1245.344,0,42,42,42,1,43,5,6,seaturtle     ,redfox      ,html/resources/sequences_IDs/A/02_seaturtle.jpg,html/resources/sequences_IDs/B/01_redfox.jpg,2,1,2,1,1,1,2,1,0,37,,,,,,,,,,,,,,,,,,,,
,,,,,37,2020-07-03_17h02.12.130,retriever_ti,2020.1.3,Win32,60,Firefox,1920,1080,,,,,,,,,,,,,,,,,1,,,,,,,,,,,,,,,,,,,,,,,,,,,1246.444,44,left,1.089,calculator    ,3,9,1,1,1,1246.478,1246.478,1248.977,0,43,43,43,1,44,3,2,calculator    ,giraffe     ,html/resources/sequences_IDs/A/09_calculator.jpg,html/resources/sequences_IDs/B/03_giraffe.jpg,9,3,4,2,1,1,7,3,0,37,,,,,,,,,,,,,,,,,,,,
,,,,,37,2020-07-03_17h02.12.130,retriever_ti,2020.1.3,Win32,60,Firefox,1920,1080,,,,,,,,,,,,,,,,,1,,,,,,,,,,,,,,,,,,,,,,,,,,,1250.078,45,right,0.767,calculator    ,3,9,-4,0,3,1250.113,1250.113,1252.611,0,44,44,44,1,45,7,3,scarf         ,calculator    ,html/resources/sequences_IDs/A/06_scarf.jpg,html/resources/sequences_IDs/A/09_calculator.jpg,6,9,3,2,4,2,5,7,0,37,,,,,,,,,,,,,,,,,,,,
,,,,,37,2020-07-03_17h02.12.130,retriever_ti,2020.1.3,Win32,60,Firefox,1920,1080,,,,,,,,,,,,,,,,,1,,,,,,,,,,,,,,,,,,,,,,,,,,,1253.228,46,left,1.394,redfox      ,6,1,-1,0,0,1253.245,1253.245,1255.746,0,45,45,45,1,46,6,7,redfox      ,scarf         ,html/resources/sequences_IDs/B/01_redfox.jpg,html/resources/sequences_IDs/A/06_scarf.jpg,1,6,1,1,3,2,1,5,0,37,,,,,,,,,,,,,,,,,,,,
,,,,,37,2020-07-03_17h02.12.130,retriever_ti,2020.1.3,Win32,60,Firefox,1920,1080,,,,,,,,,,,,,,,,,1,,,,,,,,,,,,,,,,,,,,,,,,,,,1256.845,47,right,1.669,calculator    ,3,9,-2,0,3,1256.878,1256.878,1259.378,0,46,46,46,1,47,5,3,seaturtle     ,calculator    ,html/resources/sequences_IDs/A/02_seaturtle.jpg,html/resources/sequences_IDs/A/09_calculator.jpg,2,9,2,1,4,2,2,7,0,37,,,,,,,,,,,,,,,,,,,,
,,,,,37,2020-07-03_17h02.12.130,retriever_ti,2020.1.3,Win32,60,Firefox,1920,1080,,,,,,,,,,,,,,,,,1,,,,,,,,,,,,,,,,,,,,,,,,,,,1259.994,48,left,1.246,slipper     ,4,8,1,1,1,1260.029,1260.029,1262.529,0,47,47,47,1,48,4,3,slipper     ,calculator    ,html/resources/sequences_IDs/B/08_slipper.jpg,html/resources/sequences_IDs/A/09_calculator.jpg,8,9,3,2,4,2,6,7,0,37,,,,,,,,,,,,,,,,,,,,
,,,,,37,2020-07-03_17h02.12.130,retriever_ti,2020.1.3,Win32,60,Firefox,1920,1080,,,,,,,,,,,,,,,,,1,,,,,,,,,,,,,,,,,,,,,,,,,,,1263.628,49,left,2.426,scarf         ,7,6,1,1,1,1263.661,1263.661,1266.161,0,48,48,48,1,49,7,6,scarf         ,redfox      ,html/resources/sequences_IDs/A/06_scarf.jpg,html/resources/sequences_IDs/B/01_redfox.jpg,6,1,3,2,1,1,5,1,0,37,,,,,,,,,,,,,,,,,,,,
,,,,,37,2020-07-03_17h02.12.130,retriever_ti,2020.1.3,Win32,60,Firefox,1920,1080,,,,,,,,,,,,,,,,,1,,,,,,,,,,,,,,,,,,,,,,,,,,,1267.26,50,left,1.068,calculator    ,3,9,-5,0,3,1267.277,1267.277,1269.777,0,49,49,49,1,50,3,8,calculator    ,radio       ,html/resources/sequences_IDs/A/09_calculator.jpg,html/resources/sequences_IDs/B/10_radio.jpg,9,10,4,2,4,2,7,8,0,37,,,,,,,,,,,,,,,,,,,,
,,,,,37,2020-07-03_17h02.12.130,retriever_ti,2020.1.3,Win32,60,Firefox,1920,1080,,,,,,,,,,,,,,,,,1,,,,,,,,,,,,,,,,,,,,,,,,,,,1270.378,51,right,0.864,slipper     ,4,8,-1,0,0,1270.395,1270.395,1272.894,0,50,50,50,1,51,5,4,seaturtle     ,slipper     ,html/resources/sequences_IDs/A/02_seaturtle.jpg,html/resources/sequences_IDs/B/08_slipper.jpg,2,8,2,1,3,2,2,6,0,37,,,,,,,,,,,,,,,,,,,,
,,,,,37,2020-07-03_17h02.12.130,retriever_ti,2020.1.3,Win32,60,Firefox,1920,1080,,,,,,,,,,,,,,,,,1,,,,,,,,,,,,,,,,,,,,,,,,,,,1273.994,52,left,0.936,slipper     ,4,8,-4,0,3,1274.011,1274.011,1276.511,0,51,51,51,1,52,4,8,slipper     ,radio       ,html/resources/sequences_IDs/B/08_slipper.jpg,html/resources/sequences_IDs/B/10_radio.jpg,8,10,3,2,4,2,6,8,0,37,,,,,,,,,,,,,,,,,,,,
,,,,,37,2020-07-03_17h02.12.130,retriever_ti,2020.1.3,Win32,60,Firefox,1920,1080,,,,,,,,,,,,,,,,,1,,,,,,,,,,,,,,,,,,,,,,,,,,,1277.127,53,right,0.857,seaturtle     ,5,2,4,1,3,1277.162,1277.162,1279.66,0,52,52,52,1,53,1,5,clownfish     ,seaturtle     ,html/resources/sequences_IDs/A/04_clownfish.jpg,html/resources/sequences_IDs/A/02_seaturtle.jpg,4,2,2,1,2,1,4,2,0,37,,,,,,,,,,,,,,,,,,,,
,,,,,37,2020-07-03_17h02.12.130,retriever_ti,2020.1.3,Win32,60,Firefox,1920,1080,,,,,,,,,,,,,,,,,1,,,,,,,,,,,,,,,,,,,,,,,,,,,1280.277,54,left,0.634,giraffe     ,2,3,1,1,1,1280.312,1280.312,1282.811,0,53,53,53,1,54,2,1,giraffe     ,clownfish     ,html/resources/sequences_IDs/B/03_giraffe.jpg,html/resources/sequences_IDs/A/04_clownfish.jpg,3,4,1,1,2,1,3,4,0,37,,,,,,,,,,,,,,,,,,,,
,,,,,37,2020-07-03_17h02.12.130,retriever_ti,2020.1.3,Win32,60,Firefox,1920,1080,,,,,,,,,,,,,,,,,1,,,,,,,,,,,,,,,,,,,,,,,,,,,1283.911,55,right,0.826,slipper     ,4,8,-4,0,3,1283.927,1283.927,1286.427,0,54,54,54,1,55,8,4,radio       ,slipper     ,html/resources/sequences_IDs/B/10_radio.jpg,html/resources/sequences_IDs/B/08_slipper.jpg,10,8,4,2,3,2,8,6,0,37,,,,,,,,,,,,,,,,,,,,
,,,,,37,2020-07-03_17h02.12.130,retriever_ti,2020.1.3,Win32,60,Firefox,1920,1080,,,,,,,,,,,,,,,,,1,,,,,,,,,,,,,,,,,,,,,,,,,,,1287.044,56,left,0.994,seaturtle     ,5,2,-1,0,1,1287.077,1287.077,1289.577,0,55,55,55,1,56,5,6,seaturtle     ,redfox      ,html/resources/sequences_IDs/A/02_seaturtle.jpg,html/resources/sequences_IDs/B/01_redfox.jpg,2,1,2,1,1,1,2,1,1,37,,,,,,,,,,,,,,,,,,,,
,,,,,37,2020-07-03_17h02.12.130,retriever_ti,2020.1.3,Win32,60,Firefox,1920,1080,,,,,,,,,,,,,,,,,1,,,,,,,,,,,,,,,,,,,,,,,,,,,1290.678,57,left,1.127,calculator    ,3,9,-4,0,3,1290.693,1290.693,1293.194,0,56,56,56,1,57,3,7,calculator    ,scarf         ,html/resources/sequences_IDs/A/09_calculator.jpg,html/resources/sequences_IDs/A/06_scarf.jpg,9,6,4,2,3,2,7,5,0,37,,,,,,,,,,,,,,,,,,,,
,,,,,37,2020-07-03_17h02.12.130,retriever_ti,2020.1.3,Win32,60,Firefox,1920,1080,,,,,,,,,,,,,,,,,1,,,,,,,,,,,,,,,,,,,,,,,,,,,1293.793,58,right,0.986,redfox      ,6,1,5,1,3,1293.81,1293.81,1296.31,0,57,57,57,1,58,1,6,clownfish     ,redfox      ,html/resources/sequences_IDs/A/04_clownfish.jpg,html/resources/sequences_IDs/B/01_redfox.jpg,4,1,2,1,1,1,4,1,0,37,,,,,,,,,,,,,,,,,,,,
,,,,,37,2020-07-03_17h02.12.130,retriever_ti,2020.1.3,Win32,60,Firefox,1920,1080,,,,,,,,,,,,,,,,,1,,,,,,,,,,,,,,,,,,,,,,,,,,,1296.927,59,right,0.711,giraffe     ,2,3,-5,0,3,1296.96,1296.96,1299.459,0,58,58,58,1,59,7,2,scarf         ,giraffe     ,html/resources/sequences_IDs/A/06_scarf.jpg,html/resources/sequences_IDs/B/03_giraffe.jpg,6,3,3,2,1,1,5,3,0,37,,,,,,,,,,,,,,,,,,,,
,,,,,37,2020-07-03_17h02.12.130,retriever_ti,2020.1.3,Win32,60,Firefox,1920,1080,,,,,,,,,,,,,,,,,1,,,,,,,,,,,,,,,,,,,,,,,,,,,1300.077,60,right,0.495,giraffe     ,2,3,-3,0,3,1300.095,1300.095,1302.593,0,59,59,59,1,60,5,2,seaturtle     ,giraffe     ,html/resources/sequences_IDs/A/02_seaturtle.jpg,html/resources/sequences_IDs/B/03_giraffe.jpg,2,3,2,1,1,1,2,3,0,37,,,,,,,,,,,,,,,,,,,,
,,,,,37,2020-07-03_17h02.12.130,retriever_ti,2020.1.3,Win32,60,Firefox,1920,1080,,,,,,,,,,,,,,,,,1,,,,,,,,,,,,,,,,,,,,,,,,,,,1303.21,61,right,0.528,seaturtle     ,5,2,2,1,3,1303.243,1303.243,1305.743,0,60,60,60,1,61,3,5,calculator    ,seaturtle     ,html/resources/sequences_IDs/A/09_calculator.jpg,html/resources/sequences_IDs/A/02_seaturtle.jpg,9,2,4,2,2,1,7,2,0,37,,,,,,,,,,,,,,,,,,,,
,,,,,37,2020-07-03_17h02.12.130,retriever_ti,2020.1.3,Win32,60,Firefox,1920,1080,,,,,,,,,,,,,,,,,1,,,,,,,,,,,,,,,,,,,,,,,,,,,1306.36,62,right,0.526,radio       ,8,10,1,1,1,1306.393,1306.393,1308.893,0,61,61,61,1,62,7,8,scarf         ,radio       ,html/resources/sequences_IDs/A/06_scarf.jpg,html/resources/sequences_IDs/B/10_radio.jpg,6,10,3,2,4,2,5,8,0,37,,,,,,,,,,,,,,,,,,,,
,,,,,37,2020-07-03_17h02.12.130,retriever_ti,2020.1.3,Win32,60,Firefox,1920,1080,,,,,,,,,,,,,,,,,1,,,,,,,,,,,,,,,,,,,,,,,,,,,1309.993,63,right,0.627,redfox      ,6,1,-1,0,0,1310.01,1310.01,1312.51,0,62,62,62,1,63,7,6,scarf         ,redfox      ,html/resources/sequences_IDs/A/06_scarf.jpg,html/resources/sequences_IDs/B/01_redfox.jpg,6,1,3,2,1,1,5,1,0,37,,,,,,,,,,,,,,,,,,,,
,,,,,37,2020-07-03_17h02.12.130,retriever_ti,2020.1.3,Win32,60,Firefox,1920,1080,,,,,,,,,,,,,,,,,1,,,,,,,,,,,,,,,,,,,,,,,,,,,1313.61,64,left,1.044,giraffe     ,2,3,-5,0,3,1313.626,1313.626,1316.126,0,63,63,63,1,64,2,7,giraffe     ,scarf         ,html/resources/sequences_IDs/B/03_giraffe.jpg,html/resources/sequences_IDs/A/06_scarf.jpg,3,6,1,1,3,2,3,5,0,37,,,,,,,,,,,,,,,,,,,,
,,,,,37,2020-07-03_17h02.12.130,retriever_ti,2020.1.3,Win32,60,Firefox,1920,1080,,,,,,,,,,,,,,,,,1,,,,,,,,,,,,,,,,,,,,,,,,,,,1316.726,65,right,1.073,giraffe     ,2,3,-4,0,3,1316.745,1316.745,1319.242,0,64,64,64,1,65,6,2,redfox      ,giraffe     ,html/resources/sequences_IDs/B/01_redfox.jpg,html/resources/sequences_IDs/B/03_giraffe.jpg,1,3,1,1,1,1,1,3,0,37,,,,,,,,,,,,,,,,,,,,
,,,,,37,2020-07-03_17h02.12.130,retriever_ti,2020.1.3,Win32,60,Firefox,1920,1080,,,,,,,,,,,,,,,,,1,,,,,,,,,,,,,,,,,,,,,,,,,,,1319.843,66,left,0.757,seaturtle     ,5,2,1,1,1,1319.876,1319.876,1322.376,0,65,65,65,1,66,5,4,seaturtle     ,slipper     ,html/resources/sequences_IDs/A/02_seaturtle.jpg,html/resources/sequences_IDs/B/08_slipper.jpg,2,8,2,1,3,2,2,6,0,37,,,,,,,,,,,,,,,,,,,,
,,,,,37,2020-07-03_17h02.12.130,retriever_ti,2020.1.3,Win32,60,Firefox,1920,1080,,,,,,,,,,,,,,,,,1,,,,,,,,,,,,,,,,,,,,,,,,,,,1323.476,67,right,1.069,scarf         ,7,6,-1,0,1,1323.493,1323.493,1325.993,0,66,66,66,1,67,8,7,radio       ,scarf         ,html/resources/sequences_IDs/B/10_radio.jpg,html/resources/sequences_IDs/A/06_scarf.jpg,10,6,4,2,3,2,8,5,1,37,,,,,,,,,,,,,,,,,,,,
,,,,,37,2020-07-03_17h02.12.130,retriever_ti,2020.1.3,Win32,60,Firefox,1920,1080,,,,,,,,,,,,,,,,,1,,,,,,,,,,,,,,,,,,,,,,,,,,,1327.092,68,right,1.902,seaturtle     ,5,2,1,1,1,1327.126,1327.126,1329.626,0,67,67,67,1,68,4,5,slipper     ,seaturtle     ,html/resources/sequences_IDs/B/08_slipper.jpg,html/resources/sequences_IDs/A/02_seaturtle.jpg,8,2,3,2,2,1,6,2,0,37,,,,,,,,,,,,,,,,,,,,
,,,,,37,2020-07-03_17h02.12.130,retriever_ti,2020.1.3,Win32,60,Firefox,1920,1080,,,,,,,,,,,,,,,,,1,,,,,,,,,,,,,,,,,,,,,,,,,,,1330.726,69,right,0.793,slipper     ,4,8,1,1,1,1330.761,1330.761,1333.259,0,68,68,68,1,69,3,4,calculator    ,slipper     ,html/resources/sequences_IDs/A/09_calculator.jpg,html/resources/sequences_IDs/B/08_slipper.jpg,9,8,4,2,3,2,7,6,0,37,,,,,,,,,,,,,,,,,,,,
,,,,,37,2020-07-03_17h02.12.130,retriever_ti,2020.1.3,Win32,60,Firefox,1920,1080,,,,,,,,,,,,,,,,,1,,,,,,,,,,,,,,,,,,,,,,,,,,,1334.359,70,right,0.837,seaturtle     ,5,2,-3,0,3,1334.376,1334.376,1336.875,0,69,69,69,1,70,8,5,radio       ,seaturtle     ,html/resources/sequences_IDs/B/10_radio.jpg,html/resources/sequences_IDs/A/02_seaturtle.jpg,10,2,4,2,2,1,8,2,0,37,,,,,,,,,,,,,,,,,,,,
,,,,,37,2020-07-03_17h02.12.130,retriever_ti,2020.1.3,Win32,60,Firefox,1920,1080,,,,,,,,,,,,,,,,,1,,,,,,,,,,,,,,,,,,,,,,,,,,,1337.476,71,left,1.378,slipper     ,4,8,-3,0,3,1337.51,1337.51,1340.009,0,70,70,70,1,71,4,7,slipper     ,scarf         ,html/resources/sequences_IDs/B/08_slipper.jpg,html/resources/sequences_IDs/A/06_scarf.jpg,8,6,3,2,3,2,6,5,0,37,,,,,,,,,,,,,,,,,,,,
,,,,,37,2020-07-03_17h02.12.130,retriever_ti,2020.1.3,Win32,60,Firefox,1920,1080,,,,,,,,,,,,,,,,,1,,,,,,,,,,,,,,,,,,,,,,,,,,,1340.61,72,left,2.058,seaturtle     ,5,2,-2,0,3,1340.627,1340.627,1343.125,0,71,71,71,1,72,5,7,seaturtle     ,scarf         ,html/resources/sequences_IDs/A/02_seaturtle.jpg,html/resources/sequences_IDs/A/06_scarf.jpg,2,6,2,1,3,2,2,5,0,37,,,,,,,,,,,,,,,,,,,,
,,,,,37,2020-07-03_17h02.12.130,retriever_ti,2020.1.3,Win32,60,Firefox,1920,1080,,,,,,,,,,,,,,,,,1,,,,,,,,,,,,,,,,,,,,,,,,,,,1343.726,73,right,1.959,scarf         ,7,6,1,1,1,1343.758,1343.758,1346.259,0,72,72,72,1,73,6,7,redfox      ,scarf         ,html/resources/sequences_IDs/B/01_redfox.jpg,html/resources/sequences_IDs/A/06_scarf.jpg,1,6,1,1,3,2,1,5,0,37,,,,,,,,,,,,,,,,,,,,
,,,,,37,2020-07-03_17h02.12.130,retriever_ti,2020.1.3,Win32,60,Firefox,1920,1080,,,,,,,,,,,,,,,,,1,,,,,,,,,,,,,,,,,,,,,,,,,,,1347.358,74,right,1.245,slipper     ,4,8,1,1,1,1347.377,1347.377,1349.876,0,73,73,73,1,74,3,4,calculator    ,slipper     ,html/resources/sequences_IDs/A/09_calculator.jpg,html/resources/sequences_IDs/B/08_slipper.jpg,9,8,4,2,3,2,7,6,0,37,,,,,,,,,,,,,,,,,,,,
,,,,,37,2020-07-03_17h02.12.130,retriever_ti,2020.1.3,Win32,60,Firefox,1920,1080,,,,,,,,,,,,,,,,,1,,,,,,,,,,,,,,,,,,,,,,,,,,,1350.976,75,right,1.013,scarf         ,7,6,-1,0,0,1351.009,1351.009,1353.509,0,74,74,74,1,75,8,7,radio       ,scarf         ,html/resources/sequences_IDs/B/10_radio.jpg,html/resources/sequences_IDs/A/06_scarf.jpg,10,6,4,2,3,2,8,5,0,37,,,,,,,,,,,,,,,,,,,,
,,,,,37,2020-07-03_17h02.12.130,retriever_ti,2020.1.3,Win32,60,Firefox,1920,1080,,,,,,,,,,,,,,,,,1,,,,,,,,,,,,,,,,,,,,,,,,,,,1354.609,76,right,0.638,giraffe     ,2,3,1,1,0,1354.627,1354.627,1357.126,0,75,75,75,1,76,1,2,clownfish     ,giraffe     ,html/resources/sequences_IDs/A/04_clownfish.jpg,html/resources/sequences_IDs/B/03_giraffe.jpg,4,3,2,1,1,1,4,3,1,37,,,,,,,,,,,,,,,,,,,,
,,,,,37,2020-07-03_17h02.12.130,retriever_ti,2020.1.3,Win32,60,Firefox,1920,1080,,,,,,,,,,,,,,,,,1,,,,,,,,,,,,,,,,,,,,,,,,,,,1358.225,77,left,0.759,slipper     ,4,8,-2,0,3,1358.26,1358.26,1360.758,0,76,76,76,1,77,4,6,slipper     ,redfox      ,html/resources/sequences_IDs/B/08_slipper.jpg,html/resources/sequences_IDs/B/01_redfox.jpg,8,1,3,2,1,1,6,1,0,37,,,,,,,,,,,,,,,,,,,,
,,,,,37,2020-07-03_17h02.12.130,retriever_ti,2020.1.3,Win32,60,Firefox,1920,1080,,,,,,,,,,,,,,,,,,,,,,,,,,,,,,,,,,,,,0,3.079,,,,,,,,,,,,,,,,,,,,,,,,,,,,,,,,,,,,,,,,,0,0,0,0,1,,,,,,,,,,,,,,,
,,,,,37,2020-07-03_17h02.12.130,retriever_ti,2020.1.3,Win32,60,Firefox,1920,1080,,,,,,,,,,,,,,,,,2,,,,,,,,,,,,,,,,,,,,,,,,,,,1392.529,78,left,0.865,calculator    ,3,9,-3,0,3,1392.531,1392.531,1395.024,0,0,0,0,1,78,3,6,calculator    ,redfox      ,html/resources/sequences_IDs/A/09_calculator.jpg,html/resources/sequences_IDs/B/01_redfox.jpg,9,1,4,2,1,1,7,1,0,37,,,,,,,,,,,,,,,,,,,,
,,,,,37,2020-07-03_17h02.12.130,retriever_ti,2020.1.3,Win32,60,Firefox,1920,1080,,,,,,,,,,,,,,,,,2,,,,,,,,,,,,,,,,,,,,,,,,,,,1395.641,79,left,0.931,giraffe     ,2,3,-1,0,0,1395.658,1395.658,1398.157,0,1,1,1,1,79,2,3,giraffe     ,calculator    ,html/resources/sequences_IDs/B/03_giraffe.jpg,html/resources/sequences_IDs/A/09_calculator.jpg,3,9,1,1,4,2,3,7,0,37,,,,,,,,,,,,,,,,,,,,
,,,,,37,2020-07-03_17h02.12.130,retriever_ti,2020.1.3,Win32,60,Firefox,1920,1080,,,,,,,,,,,,,,,,,2,,,,,,,,,,,,,,,,,,,,,,,,,,,1399.257,80,left,0.88,slipper     ,4,8,-3,0,3,1399.293,1399.293,1401.791,0,2,2,2,1,80,4,7,slipper     ,scarf         ,html/resources/sequences_IDs/B/08_slipper.jpg,html/resources/sequences_IDs/A/06_scarf.jpg,8,6,3,2,3,2,6,5,0,37,,,,,,,,,,,,,,,,,,,,
,,,,,37,2020-07-03_17h02.12.130,retriever_ti,2020.1.3,Win32,60,Firefox,1920,1080,,,,,,,,,,,,,,,,,2,,,,,,,,,,,,,,,,,,,,,,,,,,,1402.407,81,right,1.555,scarf         ,7,6,1,1,1,1402.442,1402.442,1404.94,0,3,3,3,1,81,6,7,redfox      ,scarf         ,html/resources/sequences_IDs/B/01_redfox.jpg,html/resources/sequences_IDs/A/06_scarf.jpg,1,6,1,1,3,2,1,5,0,37,,,,,,,,,,,,,,,,,,,,
,,,,,37,2020-07-03_17h02.12.130,retriever_ti,2020.1.3,Win32,60,Firefox,1920,1080,,,,,,,,,,,,,,,,,2,,,,,,,,,,,,,,,,,,,,,,,,,,,1406.04,82,left,0.679,giraffe     ,2,3,1,1,1,1406.074,1406.074,1408.574,0,4,4,4,1,82,2,1,giraffe     ,clownfish     ,html/resources/sequences_IDs/B/03_giraffe.jpg,html/resources/sequences_IDs/A/04_clownfish.jpg,3,4,1,1,2,1,3,4,0,37,,,,,,,,,,,,,,,,,,,,
,,,,,37,2020-07-03_17h02.12.130,retriever_ti,2020.1.3,Win32,60,Firefox,1920,1080,,,,,,,,,,,,,,,,,2,,,,,,,,,,,,,,,,,,,,,,,,,,,1409.674,83,left,1.012,slipper     ,4,8,2,1,3,1409.69,1409.69,1412.19,0,5,5,5,1,83,4,2,slipper     ,giraffe     ,html/resources/sequences_IDs/B/08_slipper.jpg,html/resources/sequences_IDs/B/03_giraffe.jpg,8,3,3,2,1,1,6,3,0,37,,,,,,,,,,,,,,,,,,,,
,,,,,37,2020-07-03_17h02.12.130,retriever_ti,2020.1.3,Win32,60,Firefox,1920,1080,,,,,,,,,,,,,,,,,2,,,,,,,,,,,,,,,,,,,,,,,,,,,1412.807,84,right,1.995,scarf         ,7,6,-1,0,1,1412.842,1412.842,1415.34,0,6,6,6,1,84,8,7,radio       ,scarf         ,html/resources/sequences_IDs/B/10_radio.jpg,html/resources/sequences_IDs/A/06_scarf.jpg,10,6,4,2,3,2,8,5,1,37,,,,,,,,,,,,,,,,,,,,
,,,,,37,2020-07-03_17h02.12.130,retriever_ti,2020.1.3,Win32,60,Firefox,1920,1080,,,,,,,,,,,,,,,,,2,,,,,,,,,,,,,,,,,,,,,,,,,,,1416.44,85,left,0.702,redfox      ,6,1,2,1,3,1416.459,1416.459,1418.957,0,7,7,7,1,85,6,4,redfox      ,slipper     ,html/resources/sequences_IDs/B/01_redfox.jpg,html/resources/sequences_IDs/B/08_slipper.jpg,1,8,1,1,3,2,1,6,0,37,,,,,,,,,,,,,,,,,,,,
,,,,,37,2020-07-03_17h02.12.130,retriever_ti,2020.1.3,Win32,60,Firefox,1920,1080,,,,,,,,,,,,,,,,,2,,,,,,,,,,,,,,,,,,,,,,,,,,,1419.573,86,left,0.761,calculator    ,3,9,-5,0,3,1419.608,1419.608,1422.107,0,8,8,8,1,86,3,8,calculator    ,radio       ,html/resources/sequences_IDs/A/09_calculator.jpg,html/resources/sequences_IDs/B/10_radio.jpg,9,10,4,2,4,2,7,8,0,37,,,,,,,,,,,,,,,,,,,,
,,,,,37,2020-07-03_17h02.12.130,retriever_ti,2020.1.3,Win32,60,Firefox,1920,1080,,,,,,,,,,,,,,,,,2,,,,,,,,,,,,,,,,,,,,,,,,,,,1422.707,87,right,0.952,scarf         ,7,6,6,1,3,1422.724,1422.724,1425.223,0,9,9,9,1,87,1,7,clownfish     ,scarf         ,html/resources/sequences_IDs/A/04_clownfish.jpg,html/resources/sequences_IDs/A/06_scarf.jpg,4,6,2,1,3,2,4,5,0,37,,,,,,,,,,,,,,,,,,,,
,,,,,37,2020-07-03_17h02.12.130,retriever_ti,2020.1.3,Win32,60,Firefox,1920,1080,,,,,,,,,,,,,,,,,2,,,,,,,,,,,,,,,,,,,,,,,,,,,1425.841,88,right,1.22,clownfish     ,1,4,-2,0,3,1425.873,1425.873,1428.373,0,10,10,10,1,88,3,1,calculator    ,clownfish     ,html/resources/sequences_IDs/A/09_calculator.jpg,html/resources/sequences_IDs/A/04_clownfish.jpg,9,4,4,2,2,1,7,4,0,37,,,,,,,,,,,,,,,,,,,,
,,,,,37,2020-07-03_17h02.12.130,retriever_ti,2020.1.3,Win32,60,Firefox,1920,1080,,,,,,,,,,,,,,,,,2,,,,,,,,,,,,,,,,,,,,,,,,,,,1428.973,89,left,1.68,radio       ,8,10,1,1,1,1428.992,1428.992,1431.49,0,11,11,11,1,89,8,7,radio       ,scarf         ,html/resources/sequences_IDs/B/10_radio.jpg,html/resources/sequences_IDs/A/06_scarf.jpg,10,6,4,2,3,2,8,5,0,37,,,,,,,,,,,,,,,,,,,,
,,,,,37,2020-07-03_17h02.12.130,retriever_ti,2020.1.3,Win32,60,Firefox,1920,1080,,,,,,,,,,,,,,,,,2,,,,,,,,,,,,,,,,,,,,,,,,,,,1432.59,90,right,1.176,slipper     ,4,8,-1,0,0,1432.608,1432.608,1435.106,0,12,12,12,1,90,5,4,seaturtle     ,slipper     ,html/resources/sequences_IDs/A/02_seaturtle.jpg,html/resources/sequences_IDs/B/08_slipper.jpg,2,8,2,1,3,2,2,6,0,37,,,,,,,,,,,,,,,,,,,,
,,,,,37,2020-07-03_17h02.12.130,retriever_ti,2020.1.3,Win32,60,Firefox,1920,1080,,,,,,,,,,,,,,,,,2,,,,,,,,,,,,,,,,,,,,,,,,,,,1436.207,91,left,1.292,scarf         ,7,6,-1,0,0,1436.24,1436.24,1438.739,0,13,13,13,1,91,7,8,scarf         ,radio       ,html/resources/sequences_IDs/A/06_scarf.jpg,html/resources/sequences_IDs/B/10_radio.jpg,6,10,3,2,4,2,5,8,0,37,,,,,,,,,,,,,,,,,,,,
,,,,,37,2020-07-03_17h02.12.130,retriever_ti,2020.1.3,Win32,60,Firefox,1920,1080,,,,,,,,,,,,,,,,,2,,,,,,,,,,,,,,,,,,,,,,,,,,,1439.84,92,left,1.125,scarf         ,7,6,6,1,3,1439.875,1439.875,1442.373,0,14,14,14,1,92,7,1,scarf         ,clownfish     ,html/resources/sequences_IDs/A/06_scarf.jpg,html/resources/sequences_IDs/A/04_clownfish.jpg,6,4,3,2,2,1,5,4,0,37,,,,,,,,,,,,,,,,,,,,
,,,,,37,2020-07-03_17h02.12.130,retriever_ti,2020.1.3,Win32,60,Firefox,1920,1080,,,,,,,,,,,,,,,,,2,,,,,,,,,,,,,,,,,,,,,,,,,,,1442.973,93,right,0.792,slipper     ,4,8,-4,0,3,1442.991,1442.991,1445.49,0,15,15,15,1,93,8,4,radio       ,slipper     ,html/resources/sequences_IDs/B/10_radio.jpg,html/resources/sequences_IDs/B/08_slipper.jpg,10,8,4,2,3,2,8,6,0,37,,,,,,,,,,,,,,,,,,,,
,,,,,37,2020-07-03_17h02.12.130,retriever_ti,2020.1.3,Win32,60,Firefox,1920,1080,,,,,,,,,,,,,,,,,2,,,,,,,,,,,,,,,,,,,,,,,,,,,1446.107,94,left,0.657,giraffe     ,2,3,-2,0,3,1446.14,1446.14,1448.64,0,16,16,16,1,94,2,4,giraffe     ,slipper     ,html/resources/sequences_IDs/B/03_giraffe.jpg,html/resources/sequences_IDs/B/08_slipper.jpg,3,8,1,1,3,2,3,6,0,37,,,,,,,,,,,,,,,,,,,,
,,,,,37,2020-07-03_17h02.12.130,retriever_ti,2020.1.3,Win32,60,Firefox,1920,1080,,,,,,,,,,,,,,,,,2,,,,,,,,,,,,,,,,,,,,,,,,,,,1449.256,95,left,1.216,calculator    ,3,9,-4,0,3,1449.29,1449.29,1451.79,0,17,17,17,1,95,3,7,calculator    ,scarf         ,html/resources/sequences_IDs/A/09_calculator.jpg,html/resources/sequences_IDs/A/06_scarf.jpg,9,6,4,2,3,2,7,5,0,37,,,,,,,,,,,,,,,,,,,,
,,,,,37,2020-07-03_17h02.12.130,retriever_ti,2020.1.3,Win32,60,Firefox,1920,1080,,,,,,,,,,,,,,,,,2,,,,,,,,,,,,,,,,,,,,,,,,,,,1452.39,96,left,0.662,giraffe     ,2,3,-4,0,3,1452.423,1452.423,1454.923,0,18,18,18,1,96,2,6,giraffe     ,redfox      ,html/resources/sequences_IDs/B/03_giraffe.jpg,html/resources/sequences_IDs/B/01_redfox.jpg,3,1,1,1,1,1,3,1,0,37,,,,,,,,,,,,,,,,,,,,
,,,,,37,2020-07-03_17h02.12.130,retriever_ti,2020.1.3,Win32,60,Firefox,1920,1080,,,,,,,,,,,,,,,,,2,,,,,,,,,,,,,,,,,,,,,,,,,,,1455.523,97,left,1.344,slipper     ,4,8,1,1,1,1455.556,1455.556,1458.056,0,19,19,19,1,97,4,3,slipper     ,calculator    ,html/resources/sequences_IDs/B/08_slipper.jpg,html/resources/sequences_IDs/A/09_calculator.jpg,8,9,3,2,4,2,6,7,0,37,,,,,,,,,,,,,,,,,,,,
,,,,,37,2020-07-03_17h02.12.130,retriever_ti,2020.1.3,Win32,60,Firefox,1920,1080,,,,,,,,,,,,,,,,,2,,,,,,,,,,,,,,,,,,,,,,,,,,,1459.156,98,left,0.827,slipper     ,4,8,-2,0,3,1459.173,1459.173,1461.673,0,20,20,20,1,98,4,6,slipper     ,redfox      ,html/resources/sequences_IDs/B/08_slipper.jpg,html/resources/sequences_IDs/B/01_redfox.jpg,8,1,3,2,1,1,6,1,0,37,,,,,,,,,,,,,,,,,,,,
,,,,,37,2020-07-03_17h02.12.130,retriever_ti,2020.1.3,Win32,60,Firefox,1920,1080,,,,,,,,,,,,,,,,,2,,,,,,,,,,,,,,,,,,,,,,,,,,,1462.273,99,left,0.649,scarf         ,7,6,-1,0,0,1462.289,1462.289,1464.789,0,21,21,21,1,99,7,8,scarf         ,radio       ,html/resources/sequences_IDs/A/06_scarf.jpg,html/resources/sequences_IDs/B/10_radio.jpg,6,10,3,2,4,2,5,8,0,37,,,,,,,,,,,,,,,,,,,,
,,,,,37,2020-07-03_17h02.12.130,retriever_ti,2020.1.3,Win32,60,Firefox,1920,1080,,,,,,,,,,,,,,,,,2,,,,,,,,,,,,,,,,,,,,,,,,,,,1465.889,100,right,1.731,calculator    ,3,9,-5,0,3,1465.906,1465.906,1468.406,0,22,22,22,1,100,8,3,radio       ,calculator    ,html/resources/sequences_IDs/B/10_radio.jpg,html/resources/sequences_IDs/A/09_calculator.jpg,10,9,4,2,4,2,8,7,0,37,,,,,,,,,,,,,,,,,,,,
,,,,,37,2020-07-03_17h02.12.130,retriever_ti,2020.1.3,Win32,60,Firefox,1920,1080,,,,,,,,,,,,,,,,,2,,,,,,,,,,,,,,,,,,,,,,,,,,,1469.023,101,left,1.146,scarf         ,7,6,1,1,0,1469.039,1469.039,1471.538,0,23,23,23,1,101,7,6,scarf         ,redfox      ,html/resources/sequences_IDs/A/06_scarf.jpg,html/resources/sequences_IDs/B/01_redfox.jpg,6,1,3,2,1,1,5,1,1,37,,,,,,,,,,,,,,,,,,,,
,,,,,37,2020-07-03_17h02.12.130,retriever_ti,2020.1.3,Win32,60,Firefox,1920,1080,,,,,,,,,,,,,,,,,2,,,,,,,,,,,,,,,,,,,,,,,,,,,1472.639,102,right,1.988,clownfish     ,1,4,-7,0,3,1472.657,1472.657,1475.155,0,24,24,24,1,102,8,1,radio       ,clownfish     ,html/resources/sequences_IDs/B/10_radio.jpg,html/resources/sequences_IDs/A/04_clownfish.jpg,10,4,4,2,2,1,8,4,0,37,,,,,,,,,,,,,,,,,,,,
,,,,,37,2020-07-03_17h02.12.130,retriever_ti,2020.1.3,Win32,60,Firefox,1920,1080,,,,,,,,,,,,,,,,,2,,,,,,,,,,,,,,,,,,,,,,,,,,,1475.756,103,right,0.864,slipper     ,4,8,-3,0,3,1475.772,1475.772,1478.273,0,25,25,25,1,103,7,4,scarf         ,slipper     ,html/resources/sequences_IDs/A/06_scarf.jpg,html/resources/sequences_IDs/B/08_slipper.jpg,6,8,3,2,3,2,5,6,0,37,,,,,,,,,,,,,,,,,,,,
,,,,,37,2020-07-03_17h02.12.130,retriever_ti,2020.1.3,Win32,60,Firefox,1920,1080,,,,,,,,,,,,,,,,,2,,,,,,,,,,,,,,,,,,,,,,,,,,,1478.889,104,right,1.307,radio       ,8,10,7,1,3,1478.907,1478.907,1481.405,0,26,26,26,1,104,1,8,clownfish     ,radio       ,html/resources/sequences_IDs/A/04_clownfish.jpg,html/resources/sequences_IDs/B/10_radio.jpg,4,10,2,1,4,2,4,8,0,37,,,,,,,,,,,,,,,,,,,,
,,,,,37,2020-07-03_17h02.12.130,retriever_ti,2020.1.3,Win32,60,Firefox,1920,1080,,,,,,,,,,,,,,,,,2,,,,,,,,,,,,,,,,,,,,,,,,,,,1482.005,105,right,1.035,giraffe     ,2,3,1,1,1,1482.039,1482.039,1484.539,0,27,27,27,1,105,1,2,clownfish     ,giraffe     ,html/resources/sequences_IDs/A/04_clownfish.jpg,html/resources/sequences_IDs/B/03_giraffe.jpg,4,3,2,1,1,1,4,3,0,37,,,,,,,,,,,,,,,,,,,,
,,,,,37,2020-07-03_17h02.12.130,retriever_ti,2020.1.3,Win32,60,Firefox,1920,1080,,,,,,,,,,,,,,,,,2,,,,,,,,,,,,,,,,,,,,,,,,,,,1485.639,106,right,1.77,radio       ,8,10,2,1,3,1485.673,1485.673,1488.172,0,28,28,28,1,106,6,8,redfox      ,radio       ,html/resources/sequences_IDs/B/01_redfox.jpg,html/resources/sequences_IDs/B/10_radio.jpg,1,10,1,1,4,2,1,8,0,37,,,,,,,,,,,,,,,,,,,,
,,,,,37,2020-07-03_17h02.12.130,retriever_ti,2020.1.3,Win32,60,Firefox,1920,1080,,,,,,,,,,,,,,,,,2,,,,,,,,,,,,,,,,,,,,,,,,,,,1488.772,107,left,0.575,giraffe     ,2,3,1,1,1,1488.805,1488.805,1491.305,0,29,29,29,1,107,2,1,giraffe     ,clownfish     ,html/resources/sequences_IDs/B/03_giraffe.jpg,html/resources/sequences_IDs/A/04_clownfish.jpg,3,4,1,1,2,1,3,4,0,37,,,,,,,,,,,,,,,,,,,,
,,,,,37,2020-07-03_17h02.12.130,retriever_ti,2020.1.3,Win32,60,Firefox,1920,1080,,,,,,,,,,,,,,,,,2,,,,,,,,,,,,,,,,,,,,,,,,,,,1492.406,108,right,0.763,seaturtle     ,5,2,-2,0,3,1492.439,1492.439,1494.938,0,30,30,30,1,108,7,5,scarf         ,seaturtle     ,html/resources/sequences_IDs/A/06_scarf.jpg,html/resources/sequences_IDs/A/02_seaturtle.jpg,6,2,3,2,2,1,5,2,0,37,,,,,,,,,,,,,,,,,,,,
,,,,,37,2020-07-03_17h02.12.130,retriever_ti,2020.1.3,Win32,60,Firefox,1920,1080,,,,,,,,,,,,,,,,,2,,,,,,,,,,,,,,,,,,,,,,,,,,,1495.555,109,left,0.746,giraffe     ,2,3,-6,0,3,1495.589,1495.589,1498.088,0,31,31,31,1,109,2,8,giraffe     ,radio       ,html/resources/sequences_IDs/B/03_giraffe.jpg,html/resources/sequences_IDs/B/10_radio.jpg,3,10,1,1,4,2,3,8,0,37,,,,,,,,,,,,,,,,,,,,
,,,,,37,2020-07-03_17h02.12.130,retriever_ti,2020.1.3,Win32,60,Firefox,1920,1080,,,,,,,,,,,,,,,,,2,,,,,,,,,,,,,,,,,,,,,,,,,,,1498.688,110,right,0.985,slipper     ,4,8,3,1,3,1498.722,1498.722,1501.222,0,32,32,32,1,110,1,4,clownfish     ,slipper     ,html/resources/sequences_IDs/A/04_clownfish.jpg,html/resources/sequences_IDs/B/08_slipper.jpg,4,8,2,1,3,2,4,6,0,37,,,,,,,,,,,,,,,,,,,,
,,,,,37,2020-07-03_17h02.12.130,retriever_ti,2020.1.3,Win32,60,Firefox,1920,1080,,,,,,,,,,,,,,,,,2,,,,,,,,,,,,,,,,,,,,,,,,,,,1501.839,111,left,0.664,seaturtle     ,5,2,4,1,3,1501.858,1501.858,1504.356,0,33,33,33,1,111,5,1,seaturtle     ,clownfish     ,html/resources/sequences_IDs/A/02_seaturtle.jpg,html/resources/sequences_IDs/A/04_clownfish.jpg,2,4,2,1,2,1,2,4,0,37,,,,,,,,,,,,,,,,,,,,
,,,,,37,2020-07-03_17h02.12.130,retriever_ti,2020.1.3,Win32,60,Firefox,1920,1080,,,,,,,,,,,,,,,,,2,,,,,,,,,,,,,,,,,,,,,,,,,,,1504.955,112,left,0.992,slipper     ,4,8,-1,0,0,1504.973,1504.973,1507.471,0,34,34,34,1,112,4,5,slipper     ,seaturtle     ,html/resources/sequences_IDs/B/08_slipper.jpg,html/resources/sequences_IDs/A/02_seaturtle.jpg,8,2,3,2,2,1,6,2,0,37,,,,,,,,,,,,,,,,,,,,
,,,,,37,2020-07-03_17h02.12.130,retriever_ti,2020.1.3,Win32,60,Firefox,1920,1080,,,,,,,,,,,,,,,,,2,,,,,,,,,,,,,,,,,,,,,,,,,,,1508.572,113,right,0.82,slipper     ,4,8,1,1,0,1508.605,1508.605,1511.105,0,35,35,35,1,113,3,4,calculator    ,slipper     ,html/resources/sequences_IDs/A/09_calculator.jpg,html/resources/sequences_IDs/B/08_slipper.jpg,9,8,4,2,3,2,7,6,1,37,,,,,,,,,,,,,,,,,,,,
,,,,,37,2020-07-03_17h02.12.130,retriever_ti,2020.1.3,Win32,60,Firefox,1920,1080,,,,,,,,,,,,,,,,,2,,,,,,,,,,,,,,,,,,,,,,,,,,,1512.205,114,right,1.203,seaturtle     ,5,2,-1,0,0,1512.223,1512.223,1514.721,0,36,36,36,1,114,6,5,redfox      ,seaturtle     ,html/resources/sequences_IDs/B/01_redfox.jpg,html/resources/sequences_IDs/A/02_seaturtle.jpg,1,2,1,1,2,1,1,2,0,37,,,,,,,,,,,,,,,,,,,,
,,,,,37,2020-07-03_17h02.12.130,retriever_ti,2020.1.3,Win32,60,Firefox,1920,1080,,,,,,,,,,,,,,,,,2,,,,,,,,,,,,,,,,,,,,,,,,,,,1515.822,115,right,1.236,calculator    ,3,9,-4,0,3,1515.856,1515.856,1518.354,0,37,37,37,1,115,7,3,scarf         ,calculator    ,html/resources/sequences_IDs/A/06_scarf.jpg,html/resources/sequences_IDs/A/09_calculator.jpg,6,9,3,2,4,2,5,7,0,37,,,,,,,,,,,,,,,,,,,,
,,,,,37,2020-07-03_17h02.12.130,retriever_ti,2020.1.3,Win32,60,Firefox,1920,1080,,,,,,,,,,,,,,,,,2,,,,,,,,,,,,,,,,,,,,,,,,,,,1518.954,116,right,0.487,seaturtle     ,5,2,1,1,1,1518.988,1518.988,1521.487,0,38,38,38,1,116,4,5,slipper     ,seaturtle     ,html/resources/sequences_IDs/B/08_slipper.jpg,html/resources/sequences_IDs/A/02_seaturtle.jpg,8,2,3,2,2,1,6,2,0,37,,,,,,,,,,,,,,,,,,,,
,,,,,37,2020-07-03_17h02.12.130,retriever_ti,2020.1.3,Win32,60,Firefox,1920,1080,,,,,,,,,,,,,,,,,2,,,,,,,,,,,,,,,,,,,,,,,,,,,1522.588,117,left,0.793,giraffe     ,2,3,-5,0,3,1522.623,1522.623,1525.121,0,39,39,39,1,117,2,7,giraffe     ,scarf         ,html/resources/sequences_IDs/B/03_giraffe.jpg,html/resources/sequences_IDs/A/06_scarf.jpg,3,6,1,1,3,2,3,5,0,37,,,,,,,,,,,,,,,,,,,,
,,,,,37,2020-07-03_17h02.12.130,retriever_ti,2020.1.3,Win32,60,Firefox,1920,1080,,,,,,,,,,,,,,,,,2,,,,,,,,,,,,,,,,,,,,,,,,,,,1525.738,118,right,0.809,redfox      ,6,1,-2,0,3,1525.754,1525.754,1528.254,0,40,40,40,1,118,8,6,radio       ,redfox      ,html/resources/sequences_IDs/B/10_radio.jpg,html/resources/sequences_IDs/B/01_redfox.jpg,10,1,4,2,1,1,8,1,0,37,,,,,,,,,,,,,,,,,,,,
,,,,,37,2020-07-03_17h02.12.130,retriever_ti,2020.1.3,Win32,60,Firefox,1920,1080,,,,,,,,,,,,,,,,,2,,,,,,,,,,,,,,,,,,,,,,,,,,,1528.871,119,right,0.66,giraffe     ,2,3,1,1,1,1528.889,1528.889,1531.388,0,41,41,41,1,119,1,2,clownfish     ,giraffe     ,html/resources/sequences_IDs/A/04_clownfish.jpg,html/resources/sequences_IDs/B/03_giraffe.jpg,4,3,2,1,1,1,4,3,0,37,,,,,,,,,,,,,,,,,,,,
,,,,,37,2020-07-03_17h02.12.130,retriever_ti,2020.1.3,Win32,60,Firefox,1920,1080,,,,,,,,,,,,,,,,,2,,,,,,,,,,,,,,,,,,,,,,,,,,,1532.488,120,left,1.242,seaturtle     ,5,2,-2,0,3,1532.521,1532.521,1535.02,0,42,42,42,1,120,5,7,seaturtle     ,scarf         ,html/resources/sequences_IDs/A/02_seaturtle.jpg,html/resources/sequences_IDs/A/06_scarf.jpg,2,6,2,1,3,2,2,5,0,37,,,,,,,,,,,,,,,,,,,,
,,,,,37,2020-07-03_17h02.12.130,retriever_ti,2020.1.3,Win32,60,Firefox,1920,1080,,,,,,,,,,,,,,,,,2,,,,,,,,,,,,,,,,,,,,,,,,,,,1535.621,121,left,0.909,slipper     ,4,8,-4,0,3,1535.657,1535.657,1538.154,0,43,43,43,1,121,4,8,slipper     ,radio       ,html/resources/sequences_IDs/B/08_slipper.jpg,html/resources/sequences_IDs/B/10_radio.jpg,8,10,3,2,4,2,6,8,0,37,,,,,,,,,,,,,,,,,,,,
,,,,,37,2020-07-03_17h02.12.130,retriever_ti,2020.1.3,Win32,60,Firefox,1920,1080,,,,,,,,,,,,,,,,,2,,,,,,,,,,,,,,,,,,,,,,,,,,,1538.754,122,right,0.666,slipper     ,4,8,1,1,1,1538.771,1538.771,1541.27,0,44,44,44,1,122,3,4,calculator    ,slipper     ,html/resources/sequences_IDs/A/09_calculator.jpg,html/resources/sequences_IDs/B/08_slipper.jpg,9,8,4,2,3,2,7,6,0,37,,,,,,,,,,,,,,,,,,,,
,,,,,37,2020-07-03_17h02.12.130,retriever_ti,2020.1.3,Win32,60,Firefox,1920,1080,,,,,,,,,,,,,,,,,2,,,,,,,,,,,,,,,,,,,,,,,,,,,1542.371,123,left,0.602,calculator    ,3,9,1,1,1,1542.389,1542.389,1544.887,0,45,45,45,1,123,3,2,calculator    ,giraffe     ,html/resources/sequences_IDs/A/09_calculator.jpg,html/resources/sequences_IDs/B/03_giraffe.jpg,9,3,4,2,1,1,7,3,0,37,,,,,,,,,,,,,,,,,,,,
,,,,,37,2020-07-03_17h02.12.130,retriever_ti,2020.1.3,Win32,60,Firefox,1920,1080,,,,,,,,,,,,,,,,,2,,,,,,,,,,,,,,,,,,,,,,,,,,,1545.987,124,left,0.569,slipper     ,4,8,1,1,1,1546.004,1546.004,1548.504,0,46,46,46,1,124,4,3,slipper     ,calculator    ,html/resources/sequences_IDs/B/08_slipper.jpg,html/resources/sequences_IDs/A/09_calculator.jpg,8,9,3,2,4,2,6,7,0,37,,,,,,,,,,,,,,,,,,,,
,,,,,37,2020-07-03_17h02.12.130,retriever_ti,2020.1.3,Win32,60,Firefox,1920,1080,,,,,,,,,,,,,,,,,2,,,,,,,,,,,,,,,,,,,,,,,,,,,1549.604,125,right,0.608,giraffe     ,2,3,-3,0,3,1549.637,1549.637,1552.137,0,47,47,47,1,125,5,2,seaturtle     ,giraffe     ,html/resources/sequences_IDs/A/02_seaturtle.jpg,html/resources/sequences_IDs/B/03_giraffe.jpg,2,3,2,1,1,1,2,3,0,37,,,,,,,,,,,,,,,,,,,,
,,,,,37,2020-07-03_17h02.12.130,retriever_ti,2020.1.3,Win32,60,Firefox,1920,1080,,,,,,,,,,,,,,,,,2,,,,,,,,,,,,,,,,,,,,,,,,,,,1552.754,126,left,0.579,seaturtle     ,5,2,-1,0,0,1552.787,1552.787,1555.287,0,48,48,48,1,126,5,6,seaturtle     ,redfox      ,html/resources/sequences_IDs/A/02_seaturtle.jpg,html/resources/sequences_IDs/B/01_redfox.jpg,2,1,2,1,1,1,2,1,0,37,,,,,,,,,,,,,,,,,,,,
,,,,,37,2020-07-03_17h02.12.130,retriever_ti,2020.1.3,Win32,60,Firefox,1920,1080,,,,,,,,,,,,,,,,,2,,,,,,,,,,,,,,,,,,,,,,,,,,,1556.387,127,left,1.057,redfox      ,6,1,-1,0,0,1556.42,1556.42,1558.92,0,49,49,49,1,127,6,7,redfox      ,scarf         ,html/resources/sequences_IDs/B/01_redfox.jpg,html/resources/sequences_IDs/A/06_scarf.jpg,1,6,1,1,3,2,1,5,0,37,,,,,,,,,,,,,,,,,,,,
,,,,,37,2020-07-03_17h02.12.130,retriever_ti,2020.1.3,Win32,60,Firefox,1920,1080,,,,,,,,,,,,,,,,,2,,,,,,,,,,,,,,,,,,,,,,,,,,,1560.021,128,left,0.905,slipper     ,4,8,3,1,3,1560.039,1560.039,1562.536,0,50,50,50,1,128,4,1,slipper     ,clownfish     ,html/resources/sequences_IDs/B/08_slipper.jpg,html/resources/sequences_IDs/A/04_clownfish.jpg,8,4,3,2,2,1,6,4,0,37,,,,,,,,,,,,,,,,,,,,
,,,,,37,2020-07-03_17h02.12.130,retriever_ti,2020.1.3,Win32,60,Firefox,1920,1080,,,,,,,,,,,,,,,,,2,,,,,,,,,,,,,,,,,,,,,,,,,,,1563.137,129,right,1.669,slipper     ,4,8,1,1,1,1563.172,1563.172,1565.67,0,51,51,51,1,129,3,4,calculator    ,slipper     ,html/resources/sequences_IDs/A/09_calculator.jpg,html/resources/sequences_IDs/B/08_slipper.jpg,9,8,4,2,3,2,7,6,0,37,,,,,,,,,,,,,,,,,,,,
,,,,,37,2020-07-03_17h02.12.130,retriever_ti,2020.1.3,Win32,60,Firefox,1920,1080,,,,,,,,,,,,,,,,,2,,,,,,,,,,,,,,,,,,,,,,,,,,,1566.77,130,right,1.974,redfox      ,6,1,1,1,1,1566.804,1566.804,1569.303,0,52,52,52,1,130,5,6,seaturtle     ,redfox      ,html/resources/sequences_IDs/A/02_seaturtle.jpg,html/resources/sequences_IDs/B/01_redfox.jpg,2,1,2,1,1,1,2,1,0,37,,,,,,,,,,,,,,,,,,,,
,,,,,37,2020-07-03_17h02.12.130,retriever_ti,2020.1.3,Win32,60,Firefox,1920,1080,,,,,,,,,,,,,,,,,2,,,,,,,,,,,,,,,,,,,,,,,,,,,1570.404,131,right,0.664,giraffe     ,2,3,1,1,0,1570.42,1570.42,1572.919,0,53,53,53,1,131,1,2,clownfish     ,giraffe     ,html/resources/sequences_IDs/A/04_clownfish.jpg,html/resources/sequences_IDs/B/03_giraffe.jpg,4,3,2,1,1,1,4,3,1,37,,,,,,,,,,,,,,,,,,,,
,,,,,37,2020-07-03_17h02.12.130,retriever_ti,2020.1.3,Win32,60,Firefox,1920,1080,,,,,,,,,,,,,,,,,2,,,,,,,,,,,,,,,,,,,,,,,,,,,1574.02,132,right,1.009,giraffe     ,2,3,-5,0,3,1574.053,1574.053,1576.553,0,54,54,54,1,132,7,2,scarf         ,giraffe     ,html/resources/sequences_IDs/A/06_scarf.jpg,html/resources/sequences_IDs/B/03_giraffe.jpg,6,3,3,2,1,1,5,3,0,37,,,,,,,,,,,,,,,,,,,,
,,,,,37,2020-07-03_17h02.12.130,retriever_ti,2020.1.3,Win32,60,Firefox,1920,1080,,,,,,,,,,,,,,,,,2,,,,,,,,,,,,,,,,,,,,,,,,,,,1577.17,133,left,1.288,redfox      ,6,1,5,1,3,1577.205,1577.205,1579.703,0,55,55,55,1,133,6,1,redfox      ,clownfish     ,html/resources/sequences_IDs/B/01_redfox.jpg,html/resources/sequences_IDs/A/04_clownfish.jpg,1,4,1,1,2,1,1,4,0,37,,,,,,,,,,,,,,,,,,,,
,,,,,37,2020-07-03_17h02.12.130,retriever_ti,2020.1.3,Win32,60,Firefox,1920,1080,,,,,,,,,,,,,,,,,2,,,,,,,,,,,,,,,,,,,,,,,,,,,1580.32,134,left,1.679,seaturtle     ,5,2,2,1,3,1580.338,1580.338,1582.836,0,56,56,56,1,134,5,3,seaturtle     ,calculator    ,html/resources/sequences_IDs/A/02_seaturtle.jpg,html/resources/sequences_IDs/A/09_calculator.jpg,2,9,2,1,4,2,2,7,0,37,,,,,,,,,,,,,,,,,,,,
,,,,,37,2020-07-03_17h02.12.130,retriever_ti,2020.1.3,Win32,60,Firefox,1920,1080,,,,,,,,,,,,,,,,,2,,,,,,,,,,,,,,,,,,,,,,,,,,,1583.436,135,right,0.645,giraffe     ,2,3,-1,0,0,1583.47,1583.47,1585.969,0,57,57,57,1,135,3,2,calculator    ,giraffe     ,html/resources/sequences_IDs/A/09_calculator.jpg,html/resources/sequences_IDs/B/03_giraffe.jpg,9,3,4,2,1,1,7,3,0,37,,,,,,,,,,,,,,,,,,,,
,,,,,37,2020-07-03_17h02.12.130,retriever_ti,2020.1.3,Win32,60,Firefox,1920,1080,,,,,,,,,,,,,,,,,2,,,,,,,,,,,,,,,,,,,,,,,,,,,1587.07,136,right,0.876,giraffe     ,2,3,-6,0,3,1587.103,1587.103,1589.603,0,58,58,58,1,136,8,2,radio       ,giraffe     ,html/resources/sequences_IDs/B/10_radio.jpg,html/resources/sequences_IDs/B/03_giraffe.jpg,10,3,4,2,1,1,8,3,0,37,,,,,,,,,,,,,,,,,,,,
,,,,,37,2020-07-03_17h02.12.130,retriever_ti,2020.1.3,Win32,60,Firefox,1920,1080,,,,,,,,,,,,,,,,,2,,,,,,,,,,,,,,,,,,,,,,,,,,,1590.22,137,right,1.635,calculator    ,3,9,1,1,1,1590.238,1590.238,1592.736,0,59,59,59,1,137,2,3,giraffe     ,calculator    ,html/resources/sequences_IDs/B/03_giraffe.jpg,html/resources/sequences_IDs/A/09_calculator.jpg,3,9,1,1,4,2,3,7,0,37,,,,,,,,,,,,,,,,,,,,
,,,,,37,2020-07-03_17h02.12.130,retriever_ti,2020.1.3,Win32,60,Firefox,1920,1080,,,,,,,,,,,,,,,,,2,,,,,,,,,,,,,,,,,,,,,,,,,,,1593.836,138,left,1.16,seaturtle     ,5,2,-3,0,3,1593.854,1593.854,1596.353,0,60,60,60,1,138,5,8,seaturtle     ,radio       ,html/resources/sequences_IDs/A/02_seaturtle.jpg,html/resources/sequences_IDs/B/10_radio.jpg,2,10,2,1,4,2,2,8,0,37,,,,,,,,,,,,,,,,,,,,
,,,,,37,2020-07-03_17h02.12.130,retriever_ti,2020.1.3,Win32,60,Firefox,1920,1080,,,,,,,,,,,,,,,,,2,,,,,,,,,,,,,,,,,,,,,,,,,,,1596.969,139,left,1.716,redfox      ,6,1,3,1,3,1597.003,1597.003,1599.502,0,61,61,61,1,139,6,3,redfox      ,calculator    ,html/resources/sequences_IDs/B/01_redfox.jpg,html/resources/sequences_IDs/A/09_calculator.jpg,1,9,1,1,4,2,1,7,0,37,,,,,,,,,,,,,,,,,,,,
,,,,,37,2020-07-03_17h02.12.130,retriever_ti,2020.1.3,Win32,60,Firefox,1920,1080,,,,,,,,,,,,,,,,,2,,,,,,,,,,,,,,,,,,,,,,,,,,,1600.12,140,right,0.892,seaturtle     ,5,2,4,1,3,1600.153,1600.153,1602.652,0,62,62,62,1,140,1,5,clownfish     ,seaturtle     ,html/resources/sequences_IDs/A/04_clownfish.jpg,html/resources/sequences_IDs/A/02_seaturtle.jpg,4,2,2,1,2,1,4,2,0,37,,,,,,,,,,,,,,,,,,,,
,,,,,37,2020-07-03_17h02.12.130,retriever_ti,2020.1.3,Win32,60,Firefox,1920,1080,,,,,,,,,,,,,,,,,2,,,,,,,,,,,,,,,,,,,,,,,,,,,1603.253,141,right,0.73,redfox      ,6,1,-1,0,0,1603.286,1603.286,1605.786,0,63,63,63,1,141,7,6,scarf         ,redfox      ,html/resources/sequences_IDs/A/06_scarf.jpg,html/resources/sequences_IDs/B/01_redfox.jpg,6,1,3,2,1,1,5,1,0,37,,,,,,,,,,,,,,,,,,,,
,,,,,37,2020-07-03_17h02.12.130,retriever_ti,2020.1.3,Win32,60,Firefox,1920,1080,,,,,,,,,,,,,,,,,2,,,,,,,,,,,,,,,,,,,,,,,,,,,1606.885,142,right,0.926,slipper     ,4,8,-1,0,0,1606.919,1606.919,1609.418,0,64,64,64,1,142,5,4,seaturtle     ,slipper     ,html/resources/sequences_IDs/A/02_seaturtle.jpg,html/resources/sequences_IDs/B/08_slipper.jpg,2,8,2,1,3,2,2,6,0,37,,,,,,,,,,,,,,,,,,,,
,,,,,37,2020-07-03_17h02.12.130,retriever_ti,2020.1.3,Win32,60,Firefox,1920,1080,,,,,,,,,,,,,,,,,2,,,,,,,,,,,,,,,,,,,,,,,,,,,1610.519,143,right,0.727,redfox      ,6,1,-1,0,0,1610.536,1610.536,1613.035,0,65,65,65,1,143,7,6,scarf         ,redfox      ,html/resources/sequences_IDs/A/06_scarf.jpg,html/resources/sequences_IDs/B/01_redfox.jpg,6,1,3,2,1,1,5,1,0,37,,,,,,,,,,,,,,,,,,,,
,,,,,37,2020-07-03_17h02.12.130,retriever_ti,2020.1.3,Win32,60,Firefox,1920,1080,,,,,,,,,,,,,,,,,2,,,,,,,,,,,,,,,,,,,,,,,,,,,1614.136,144,right,0.896,redfox      ,6,1,5,1,3,1614.169,1614.169,1616.669,0,66,66,66,1,144,1,6,clownfish     ,redfox      ,html/resources/sequences_IDs/A/04_clownfish.jpg,html/resources/sequences_IDs/B/01_redfox.jpg,4,1,2,1,1,1,4,1,0,37,,,,,,,,,,,,,,,,,,,,
,,,,,37,2020-07-03_17h02.12.130,retriever_ti,2020.1.3,Win32,60,Firefox,1920,1080,,,,,,,,,,,,,,,,,2,,,,,,,,,,,,,,,,,,,,,,,,,,,1617.285,145,right,0.911,calculator    ,3,9,2,1,3,1617.32,1617.32,1619.819,0,67,67,67,1,145,1,3,clownfish     ,calculator    ,html/resources/sequences_IDs/A/04_clownfish.jpg,html/resources/sequences_IDs/A/09_calculator.jpg,4,9,2,1,4,2,4,7,0,37,,,,,,,,,,,,,,,,,,,,
,,,,,37,2020-07-03_17h02.12.130,retriever_ti,2020.1.3,Win32,60,Firefox,1920,1080,,,,,,,,,,,,,,,,,2,,,,,,,,,,,,,,,,,,,,,,,,,,,1620.419,146,right,0.745,giraffe     ,2,3,-4,0,3,1620.435,1620.435,1622.936,0,68,68,68,1,146,6,2,redfox      ,giraffe     ,html/resources/sequences_IDs/B/01_redfox.jpg,html/resources/sequences_IDs/B/03_giraffe.jpg,1,3,1,1,1,1,1,3,0,37,,,,,,,,,,,,,,,,,,,,
,,,,,37,2020-07-03_17h02.12.130,retriever_ti,2020.1.3,Win32,60,Firefox,1920,1080,,,,,,,,,,,,,,,,,2,,,,,,,,,,,,,,,,,,,,,,,,,,,1623.552,147,left,1.414,giraffe     ,2,3,-3,0,3,1623.585,1623.585,1626.086,0,69,69,69,1,147,2,5,giraffe     ,seaturtle     ,html/resources/sequences_IDs/B/03_giraffe.jpg,html/resources/sequences_IDs/A/02_seaturtle.jpg,3,2,1,1,2,1,3,2,0,37,,,,,,,,,,,,,,,,,,,,
,,,,,37,2020-07-03_17h02.12.130,retriever_ti,2020.1.3,Win32,60,Firefox,1920,1080,,,,,,,,,,,,,,,,,2,,,,,,,,,,,,,,,,,,,,,,,,,,,1626.702,148,right,0.716,seaturtle     ,5,2,-1,0,0,1626.737,1626.737,1629.235,0,70,70,70,1,148,6,5,redfox      ,seaturtle     ,html/resources/sequences_IDs/B/01_redfox.jpg,html/resources/sequences_IDs/A/02_seaturtle.jpg,1,2,1,1,2,1,1,2,0,37,,,,,,,,,,,,,,,,,,,,
,,,,,37,2020-07-03_17h02.12.130,retriever_ti,2020.1.3,Win32,60,Firefox,1920,1080,,,,,,,,,,,,,,,,,2,,,,,,,,,,,,,,,,,,,,,,,,,,,1630.336,149,right,1.719,seaturtle     ,5,2,2,1,3,1630.353,1630.353,1632.853,0,71,71,71,1,149,3,5,calculator    ,seaturtle     ,html/resources/sequences_IDs/A/09_calculator.jpg,html/resources/sequences_IDs/A/02_seaturtle.jpg,9,2,4,2,2,1,7,2,0,37,,,,,,,,,,,,,,,,,,,,
,,,,,37,2020-07-03_17h02.12.130,retriever_ti,2020.1.3,Win32,60,Firefox,1920,1080,,,,,,,,,,,,,,,,,2,,,,,,,,,,,,,,,,,,,,,,,,,,,1633.452,150,right,1.205,giraffe     ,2,3,-1,0,1,1633.468,1633.468,1635.968,0,72,72,72,1,150,3,2,calculator    ,giraffe     ,html/resources/sequences_IDs/A/09_calculator.jpg,html/resources/sequences_IDs/B/03_giraffe.jpg,9,3,4,2,1,1,7,3,1,37,,,,,,,,,,,,,,,,,,,,
,,,,,37,2020-07-03_17h02.12.130,retriever_ti,2020.1.3,Win32,60,Firefox,1920,1080,,,,,,,,,,,,,,,,,2,,,,,,,,,,,,,,,,,,,,,,,,,,,1637.069,151,left,1.177,seaturtle     ,5,2,-1,0,1,1637.085,1637.085,1639.585,0,73,73,73,1,151,5,6,seaturtle     ,redfox      ,html/resources/sequences_IDs/A/02_seaturtle.jpg,html/resources/sequences_IDs/B/01_redfox.jpg,2,1,2,1,1,1,2,1,1,37,,,,,,,,,,,,,,,,,,,,
,,,,,37,2020-07-03_17h02.12.130,retriever_ti,2020.1.3,Win32,60,Firefox,1920,1080,,,,,,,,,,,,,,,,,2,,,,,,,,,,,,,,,,,,,,,,,,,,,1640.685,152,left,1.041,slipper     ,4,8,-1,0,1,1640.701,1640.701,1643.202,0,74,74,74,1,152,4,5,slipper     ,seaturtle     ,html/resources/sequences_IDs/B/08_slipper.jpg,html/resources/sequences_IDs/A/02_seaturtle.jpg,8,2,3,2,2,1,6,2,1,37,,,,,,,,,,,,,,,,,,,,
,,,,,37,2020-07-03_17h02.12.130,retriever_ti,2020.1.3,Win32,60,Firefox,1920,1080,,,,,,,,,,,,,,,,,2,,,,,,,,,,,,,,,,,,,,,,,,,,,1644.301,153,right,1.005,seaturtle     ,5,2,-3,0,3,1644.32,1644.32,1646.818,0,75,75,75,1,153,8,5,radio       ,seaturtle     ,html/resources/sequences_IDs/B/10_radio.jpg,html/resources/sequences_IDs/A/02_seaturtle.jpg,10,2,4,2,2,1,8,2,0,37,,,,,,,,,,,,,,,,,,,,
,,,,,37,2020-07-03_17h02.12.130,retriever_ti,2020.1.3,Win32,60,Firefox,1920,1080,,,,,,,,,,,,,,,,,2,,,,,,,,,,,,,,,,,,,,,,,,,,,1647.435,154,left,1.271,radio       ,8,10,1,1,1,1647.468,1647.468,1649.968,0,76,76,76,1,154,8,7,radio       ,scarf         ,html/resources/sequences_IDs/B/10_radio.jpg,html/resources/sequences_IDs/A/06_scarf.jpg,10,6,4,2,3,2,8,5,0,37,,,,,,,,,,,,,,,,,,,,
,,,,,37,2020-07-03_17h02.12.130,retriever_ti,2020.1.3,Win32,60,Firefox,1920,1080,,,,,,,,,,,,,,,,,,,,,,,,,,,,,,,,,,,,,0,1.916,,,,,,,,,,,,,,,,,,,,,,,,,,,,,,,,,,,,,,,,,1,0,1,0,1,,,,,,,,,,,,,,,
,,,,,37,2020-07-03_17h02.12.130,retriever_ti,2020.1.3,Win32,60,Firefox,1920,1080,,,,,,,,,,,,,,,,,3,,,,,,,,,,,,,,,,,,,,,,,,,,,1680.652,155,left,1.187,calculator    ,3,9,1,1,1,1680.654,1680.654,1683.151,0,0,0,0,1,155,3,2,calculator    ,giraffe     ,html/resources/sequences_IDs/A/09_calculator.jpg,html/resources/sequences_IDs/B/03_giraffe.jpg,9,3,4,2,1,1,7,3,0,37,,,,,,,,,,,,,,,,,,,,
,,,,,37,2020-07-03_17h02.12.130,retriever_ti,2020.1.3,Win32,60,Firefox,1920,1080,,,,,,,,,,,,,,,,,3,,,,,,,,,,,,,,,,,,,,,,,,,,,1684.25,156,right,1.346,redfox      ,6,1,-2,0,3,1684.286,1684.286,1686.784,0,1,1,1,1,156,8,6,radio       ,redfox      ,html/resources/sequences_IDs/B/10_radio.jpg,html/resources/sequences_IDs/B/01_redfox.jpg,10,1,4,2,1,1,8,1,0,37,,,,,,,,,,,,,,,,,,,,
,,,,,37,2020-07-03_17h02.12.130,retriever_ti,2020.1.3,Win32,60,Firefox,1920,1080,,,,,,,,,,,,,,,,,3,,,,,,,,,,,,,,,,,,,,,,,,,,,1687.384,157,right,0.837,seaturtle     ,5,2,-3,0,3,1687.401,1687.401,1689.9,0,2,2,2,1,157,8,5,radio       ,seaturtle     ,html/resources/sequences_IDs/B/10_radio.jpg,html/resources/sequences_IDs/A/02_seaturtle.jpg,10,2,4,2,2,1,8,2,0,37,,,,,,,,,,,,,,,,,,,,
,,,,,37,2020-07-03_17h02.12.130,retriever_ti,2020.1.3,Win32,60,Firefox,1920,1080,,,,,,,,,,,,,,,,,3,,,,,,,,,,,,,,,,,,,,,,,,,,,1690.5,158,left,0.601,seaturtle     ,5,2,-3,0,3,1690.535,1690.535,1693.033,0,3,3,3,1,158,5,8,seaturtle     ,radio       ,html/resources/sequences_IDs/A/02_seaturtle.jpg,html/resources/sequences_IDs/B/10_radio.jpg,2,10,2,1,4,2,2,8,0,37,,,,,,,,,,,,,,,,,,,,
,,,,,37,2020-07-03_17h02.12.130,retriever_ti,2020.1.3,Win32,60,Firefox,1920,1080,,,,,,,,,,,,,,,,,3,,,,,,,,,,,,,,,,,,,,,,,,,,,1693.65,159,left,0.814,redfox      ,6,1,-2,0,3,1693.685,1693.685,1696.183,0,4,4,4,1,159,6,8,redfox      ,radio       ,html/resources/sequences_IDs/B/01_redfox.jpg,html/resources/sequences_IDs/B/10_radio.jpg,1,10,1,1,4,2,1,8,0,37,,,,,,,,,,,,,,,,,,,,
,,,,,37,2020-07-03_17h02.12.130,retriever_ti,2020.1.3,Win32,60,Firefox,1920,1080,,,,,,,,,,,,,,,,,3,,,,,,,,,,,,,,,,,,,,,,,,,,,1696.801,160,left,0.779,radio       ,8,10,1,1,1,1696.834,1696.834,1699.333,0,5,5,5,1,160,8,7,radio       ,scarf         ,html/resources/sequences_IDs/B/10_radio.jpg,html/resources/sequences_IDs/A/06_scarf.jpg,10,6,4,2,3,2,8,5,0,37,,,,,,,,,,,,,,,,,,,,
,,,,,37,2020-07-03_17h02.12.130,retriever_ti,2020.1.3,Win32,60,Firefox,1920,1080,,,,,,,,,,,,,,,,,3,,,,,,,,,,,,,,,,,,,,,,,,,,,1700.434,161,left,0.787,redfox      ,6,1,-1,0,0,1700.467,1700.467,1702.967,0,6,6,6,1,161,6,7,redfox      ,scarf         ,html/resources/sequences_IDs/B/01_redfox.jpg,html/resources/sequences_IDs/A/06_scarf.jpg,1,6,1,1,3,2,1,5,0,37,,,,,,,,,,,,,,,,,,,,
,,,,,37,2020-07-03_17h02.12.130,retriever_ti,2020.1.3,Win32,60,Firefox,1920,1080,,,,,,,,,,,,,,,,,3,,,,,,,,,,,,,,,,,,,,,,,,,,,1704.067,162,left,0.771,slipper     ,4,8,-4,0,3,1704.083,1704.083,1706.584,0,7,7,7,1,162,4,8,slipper     ,radio       ,html/resources/sequences_IDs/B/08_slipper.jpg,html/resources/sequences_IDs/B/10_radio.jpg,8,10,3,2,4,2,6,8,0,37,,,,,,,,,,,,,,,,,,,,
,,,,,37,2020-07-03_17h02.12.130,retriever_ti,2020.1.3,Win32,60,Firefox,1920,1080,,,,,,,,,,,,,,,,,3,,,,,,,,,,,,,,,,,,,,,,,,,,,1707.2,163,left,0.888,radio       ,8,10,5,1,3,1707.218,1707.218,1709.716,0,8,8,8,1,163,8,3,radio       ,calculator    ,html/resources/sequences_IDs/B/10_radio.jpg,html/resources/sequences_IDs/A/09_calculator.jpg,10,9,4,2,4,2,8,7,0,37,,,,,,,,,,,,,,,,,,,,
,,,,,37,2020-07-03_17h02.12.130,retriever_ti,2020.1.3,Win32,60,Firefox,1920,1080,,,,,,,,,,,,,,,,,3,,,,,,,,,,,,,,,,,,,,,,,,,,,1710.334,164,left,1.479,seaturtle     ,5,2,1,1,1,1710.35,1710.35,1712.849,0,9,9,9,1,164,5,4,seaturtle     ,slipper     ,html/resources/sequences_IDs/A/02_seaturtle.jpg,html/resources/sequences_IDs/B/08_slipper.jpg,2,8,2,1,3,2,2,6,0,37,,,,,,,,,,,,,,,,,,,,
,,,,,37,2020-07-03_17h02.12.130,retriever_ti,2020.1.3,Win32,60,Firefox,1920,1080,,,,,,,,,,,,,,,,,3,,,,,,,,,,,,,,,,,,,,,,,,,,,1713.95,165,left,1.046,slipper     ,4,8,-3,0,3,1713.985,1713.985,1716.483,0,10,10,10,1,165,4,7,slipper     ,scarf         ,html/resources/sequences_IDs/B/08_slipper.jpg,html/resources/sequences_IDs/A/06_scarf.jpg,8,6,3,2,3,2,6,5,0,37,,,,,,,,,,,,,,,,,,,,
,,,,,37,2020-07-03_17h02.12.130,retriever_ti,2020.1.3,Win32,60,Firefox,1920,1080,,,,,,,,,,,,,,,,,3,,,,,,,,,,,,,,,,,,,,,,,,,,,1717.1,166,right,1.357,slipper     ,4,8,1,1,1,1717.133,1717.133,1719.633,0,11,11,11,1,166,3,4,calculator    ,slipper     ,html/resources/sequences_IDs/A/09_calculator.jpg,html/resources/sequences_IDs/B/08_slipper.jpg,9,8,4,2,3,2,7,6,0,37,,,,,,,,,,,,,,,,,,,,
,,,,,37,2020-07-03_17h02.12.130,retriever_ti,2020.1.3,Win32,60,Firefox,1920,1080,,,,,,,,,,,,,,,,,3,,,,,,,,,,,,,,,,,,,,,,,,,,,1720.733,167,right,1.003,seaturtle     ,5,2,2,1,3,1720.75,1720.75,1723.249,0,12,12,12,1,167,3,5,calculator    ,seaturtle     ,html/resources/sequences_IDs/A/09_calculator.jpg,html/resources/sequences_IDs/A/02_seaturtle.jpg,9,2,4,2,2,1,7,2,0,37,,,,,,,,,,,,,,,,,,,,
,,,,,37,2020-07-03_17h02.12.130,retriever_ti,2020.1.3,Win32,60,Firefox,1920,1080,,,,,,,,,,,,,,,,,3,,,,,,,,,,,,,,,,,,,,,,,,,,,1723.866,168,right,1.019,radio       ,8,10,7,1,3,1723.9,1723.9,1726.4,0,13,13,13,1,168,1,8,clownfish     ,radio       ,html/resources/sequences_IDs/A/04_clownfish.jpg,html/resources/sequences_IDs/B/10_radio.jpg,4,10,2,1,4,2,4,8,0,37,,,,,,,,,,,,,,,,,,,,
,,,,,37,2020-07-03_17h02.12.130,retriever_ti,2020.1.3,Win32,60,Firefox,1920,1080,,,,,,,,,,,,,,,,,3,,,,,,,,,,,,,,,,,,,,,,,,,,,1727.016,169,left,0.546,giraffe     ,2,3,1,1,1,1727.05,1727.05,1729.55,0,14,14,14,1,169,2,1,giraffe     ,clownfish     ,html/resources/sequences_IDs/B/03_giraffe.jpg,html/resources/sequences_IDs/A/04_clownfish.jpg,3,4,1,1,2,1,3,4,0,37,,,,,,,,,,,,,,,,,,,,
,,,,,37,2020-07-03_17h02.12.130,retriever_ti,2020.1.3,Win32,60,Firefox,1920,1080,,,,,,,,,,,,,,,,,3,,,,,,,,,,,,,,,,,,,,,,,,,,,1730.649,170,right,0.854,clownfish     ,1,4,-2,0,3,1730.668,1730.668,1733.166,0,15,15,15,1,170,3,1,calculator    ,clownfish     ,html/resources/sequences_IDs/A/09_calculator.jpg,html/resources/sequences_IDs/A/04_clownfish.jpg,9,4,4,2,2,1,7,4,0,37,,,,,,,,,,,,,,,,,,,,
,,,,,37,2020-07-03_17h02.12.130,retriever_ti,2020.1.3,Win32,60,Firefox,1920,1080,,,,,,,,,,,,,,,,,3,,,,,,,,,,,,,,,,,,,,,,,,,,,1733.782,171,left,1.264,scarf         ,7,6,6,1,3,1733.801,1733.801,1736.3,0,16,16,16,1,171,7,1,scarf         ,clownfish     ,html/resources/sequences_IDs/A/06_scarf.jpg,html/resources/sequences_IDs/A/04_clownfish.jpg,6,4,3,2,2,1,5,4,0,37,,,,,,,,,,,,,,,,,,,,
,,,,,37,2020-07-03_17h02.12.130,retriever_ti,2020.1.3,Win32,60,Firefox,1920,1080,,,,,,,,,,,,,,,,,3,,,,,,,,,,,,,,,,,,,,,,,,,,,1736.916,172,right,1.219,giraffe     ,2,3,-3,0,3,1736.934,1736.934,1739.432,0,17,17,17,1,172,5,2,seaturtle     ,giraffe     ,html/resources/sequences_IDs/A/02_seaturtle.jpg,html/resources/sequences_IDs/B/03_giraffe.jpg,2,3,2,1,1,1,2,3,0,37,,,,,,,,,,,,,,,,,,,,
,,,,,37,2020-07-03_17h02.12.130,retriever_ti,2020.1.3,Win32,60,Firefox,1920,1080,,,,,,,,,,,,,,,,,3,,,,,,,,,,,,,,,,,,,,,,,,,,,1740.049,173,left,0.934,radio       ,8,10,7,1,3,1740.084,1740.084,1742.582,0,18,18,18,1,173,8,1,radio       ,clownfish     ,html/resources/sequences_IDs/B/10_radio.jpg,html/resources/sequences_IDs/A/04_clownfish.jpg,10,4,4,2,2,1,8,4,0,37,,,,,,,,,,,,,,,,,,,,
,,,,,37,2020-07-03_17h02.12.130,retriever_ti,2020.1.3,Win32,60,Firefox,1920,1080,,,,,,,,,,,,,,,,,3,,,,,,,,,,,,,,,,,,,,,,,,,,,1743.183,174,left,0.847,scarf         ,7,6,-1,0,1,1743.201,1743.201,1745.699,0,19,19,19,1,174,7,8,scarf         ,radio       ,html/resources/sequences_IDs/A/06_scarf.jpg,html/resources/sequences_IDs/B/10_radio.jpg,6,10,3,2,4,2,5,8,1,37,,,,,,,,,,,,,,,,,,,,
,,,,,37,2020-07-03_17h02.12.130,retriever_ti,2020.1.3,Win32,60,Firefox,1920,1080,,,,,,,,,,,,,,,,,3,,,,,,,,,,,,,,,,,,,,,,,,,,,1746.799,175,right,0.828,slipper     ,4,8,1,1,1,1746.816,1746.816,1749.317,0,20,20,20,1,175,3,4,calculator    ,slipper     ,html/resources/sequences_IDs/A/09_calculator.jpg,html/resources/sequences_IDs/B/08_slipper.jpg,9,8,4,2,3,2,7,6,0,37,,,,,,,,,,,,,,,,,,,,
,,,,,37,2020-07-03_17h02.12.130,retriever_ti,2020.1.3,Win32,60,Firefox,1920,1080,,,,,,,,,,,,,,,,,3,,,,,,,,,,,,,,,,,,,,,,,,,,,1750.416,176,left,1.136,giraffe     ,2,3,-4,0,3,1750.432,1750.432,1752.932,0,21,21,21,1,176,2,6,giraffe     ,redfox      ,html/resources/sequences_IDs/B/03_giraffe.jpg,html/resources/sequences_IDs/B/01_redfox.jpg,3,1,1,1,1,1,3,1,0,37,,,,,,,,,,,,,,,,,,,,
,,,,,37,2020-07-03_17h02.12.130,retriever_ti,2020.1.3,Win32,60,Firefox,1920,1080,,,,,,,,,,,,,,,,,3,,,,,,,,,,,,,,,,,,,,,,,,,,,1753.549,177,left,0.997,slipper     ,4,8,1,1,0,1753.566,1753.566,1756.066,0,22,22,22,1,177,4,3,slipper     ,calculator    ,html/resources/sequences_IDs/B/08_slipper.jpg,html/resources/sequences_IDs/A/09_calculator.jpg,8,9,3,2,4,2,6,7,1,37,,,,,,,,,,,,,,,,,,,,
,,,,,37,2020-07-03_17h02.12.130,retriever_ti,2020.1.3,Win32,60,Firefox,1920,1080,,,,,,,,,,,,,,,,,3,,,,,,,,,,,,,,,,,,,,,,,,,,,1757.166,178,right,1.191,calculator    ,3,9,1,1,1,1757.199,1757.199,1759.699,0,23,23,23,1,178,2,3,giraffe     ,calculator    ,html/resources/sequences_IDs/B/03_giraffe.jpg,html/resources/sequences_IDs/A/09_calculator.jpg,3,9,1,1,4,2,3,7,0,37,,,,,,,,,,,,,,,,,,,,
,,,,,37,2020-07-03_17h02.12.130,retriever_ti,2020.1.3,Win32,60,Firefox,1920,1080,,,,,,,,,,,,,,,,,3,,,,,,,,,,,,,,,,,,,,,,,,,,,1760.799,179,right,1.296,scarf         ,7,6,-1,0,0,1760.832,1760.832,1763.332,0,24,24,24,1,179,8,7,radio       ,scarf         ,html/resources/sequences_IDs/B/10_radio.jpg,html/resources/sequences_IDs/A/06_scarf.jpg,10,6,4,2,3,2,8,5,0,37,,,,,,,,,,,,,,,,,,,,
,,,,,37,2020-07-03_17h02.12.130,retriever_ti,2020.1.3,Win32,60,Firefox,1920,1080,,,,,,,,,,,,,,,,,3,,,,,,,,,,,,,,,,,,,,,,,,,,,1764.432,180,left,1.2,giraffe     ,2,3,1,1,0,1764.45,1764.45,1766.949,0,25,25,25,1,180,2,1,giraffe     ,clownfish     ,html/resources/sequences_IDs/B/03_giraffe.jpg,html/resources/sequences_IDs/A/04_clownfish.jpg,3,4,1,1,2,1,3,4,1,37,,,,,,,,,,,,,,,,,,,,
,,,,,37,2020-07-03_17h02.12.130,retriever_ti,2020.1.3,Win32,60,Firefox,1920,1080,,,,,,,,,,,,,,,,,3,,,,,,,,,,,,,,,,,,,,,,,,,,,1768.048,181,left,1.074,scarf         ,7,6,-1,0,0,1768.065,1768.065,1770.565,0,26,26,26,1,181,7,8,scarf         ,radio       ,html/resources/sequences_IDs/A/06_scarf.jpg,html/resources/sequences_IDs/B/10_radio.jpg,6,10,3,2,4,2,5,8,0,37,,,,,,,,,,,,,,,,,,,,
,,,,,37,2020-07-03_17h02.12.130,retriever_ti,2020.1.3,Win32,60,Firefox,1920,1080,,,,,,,,,,,,,,,,,3,,,,,,,,,,,,,,,,,,,,,,,,,,,1771.666,182,left,0.715,clownfish     ,1,4,-5,0,3,1771.698,1771.698,1774.199,0,27,27,27,1,182,1,6,clownfish     ,redfox      ,html/resources/sequences_IDs/A/04_clownfish.jpg,html/resources/sequences_IDs/B/01_redfox.jpg,4,1,2,1,1,1,4,1,0,37,,,,,,,,,,,,,,,,,,,,
,,,,,37,2020-07-03_17h02.12.130,retriever_ti,2020.1.3,Win32,60,Firefox,1920,1080,,,,,,,,,,,,,,,,,3,,,,,,,,,,,,,,,,,,,,,,,,,,,1774.815,183,left,0.572,clownfish     ,1,4,-1,0,0,1774.832,1774.832,1777.331,0,28,28,28,1,183,1,2,clownfish     ,giraffe     ,html/resources/sequences_IDs/A/04_clownfish.jpg,html/resources/sequences_IDs/B/03_giraffe.jpg,4,3,2,1,1,1,4,3,0,37,,,,,,,,,,,,,,,,,,,,
,,,,,37,2020-07-03_17h02.12.130,retriever_ti,2020.1.3,Win32,60,Firefox,1920,1080,,,,,,,,,,,,,,,,,3,,,,,,,,,,,,,,,,,,,,,,,,,,,1778.432,184,left,1.15,calculator    ,3,9,-5,0,3,1778.448,1778.448,1780.948,0,29,29,29,1,184,3,8,calculator    ,radio       ,html/resources/sequences_IDs/A/09_calculator.jpg,html/resources/sequences_IDs/B/10_radio.jpg,9,10,4,2,4,2,7,8,0,37,,,,,,,,,,,,,,,,,,,,
,,,,,37,2020-07-03_17h02.12.130,retriever_ti,2020.1.3,Win32,60,Firefox,1920,1080,,,,,,,,,,,,,,,,,3,,,,,,,,,,,,,,,,,,,,,,,,,,,1781.565,185,left,0.855,seaturtle     ,5,2,-1,0,0,1781.583,1781.583,1784.082,0,30,30,30,1,185,5,6,seaturtle     ,redfox      ,html/resources/sequences_IDs/A/02_seaturtle.jpg,html/resources/sequences_IDs/B/01_redfox.jpg,2,1,2,1,1,1,2,1,0,37,,,,,,,,,,,,,,,,,,,,
,,,,,37,2020-07-03_17h02.12.130,retriever_ti,2020.1.3,Win32,60,Firefox,1920,1080,,,,,,,,,,,,,,,,,3,,,,,,,,,,,,,,,,,,,,,,,,,,,1785.182,186,right,1.34,scarf         ,7,6,1,1,1,1785.214,1785.214,1787.714,0,31,31,31,1,186,6,7,redfox      ,scarf         ,html/resources/sequences_IDs/B/01_redfox.jpg,html/resources/sequences_IDs/A/06_scarf.jpg,1,6,1,1,3,2,1,5,0,37,,,,,,,,,,,,,,,,,,,,
,,,,,37,2020-07-03_17h02.12.130,retriever_ti,2020.1.3,Win32,60,Firefox,1920,1080,,,,,,,,,,,,,,,,,3,,,,,,,,,,,,,,,,,,,,,,,,,,,1788.815,187,left,1.134,slipper     ,4,8,-1,0,0,1788.848,1788.848,1791.348,0,32,32,32,1,187,4,5,slipper     ,seaturtle     ,html/resources/sequences_IDs/B/08_slipper.jpg,html/resources/sequences_IDs/A/02_seaturtle.jpg,8,2,3,2,2,1,6,2,0,37,,,,,,,,,,,,,,,,,,,,
,,,,,37,2020-07-03_17h02.12.130,retriever_ti,2020.1.3,Win32,60,Firefox,1920,1080,,,,,,,,,,,,,,,,,3,,,,,,,,,,,,,,,,,,,,,,,,,,,1792.448,188,left,1.155,giraffe     ,2,3,-5,0,3,1792.467,1792.467,1794.965,0,33,33,33,1,188,2,7,giraffe     ,scarf         ,html/resources/sequences_IDs/B/03_giraffe.jpg,html/resources/sequences_IDs/A/06_scarf.jpg,3,6,1,1,3,2,3,5,0,37,,,,,,,,,,,,,,,,,,,,
,,,,,37,2020-07-03_17h02.12.130,retriever_ti,2020.1.3,Win32,60,Firefox,1920,1080,,,,,,,,,,,,,,,,,3,,,,,,,,,,,,,,,,,,,,,,,,,,,1795.582,189,right,1.047,calculator    ,3,9,2,1,3,1795.615,1795.615,1798.115,0,34,34,34,1,189,1,3,clownfish     ,calculator    ,html/resources/sequences_IDs/A/04_clownfish.jpg,html/resources/sequences_IDs/A/09_calculator.jpg,4,9,2,1,4,2,4,7,0,37,,,,,,,,,,,,,,,,,,,,
,,,,,37,2020-07-03_17h02.12.130,retriever_ti,2020.1.3,Win32,60,Firefox,1920,1080,,,,,,,,,,,,,,,,,3,,,,,,,,,,,,,,,,,,,,,,,,,,,1798.731,190,right,0.924,scarf         ,7,6,4,1,3,1798.749,1798.749,1801.248,0,35,35,35,1,190,3,7,calculator    ,scarf         ,html/resources/sequences_IDs/A/09_calculator.jpg,html/resources/sequences_IDs/A/06_scarf.jpg,9,6,4,2,3,2,7,5,0,37,,,,,,,,,,,,,,,,,,,,
,,,,,37,2020-07-03_17h02.12.130,retriever_ti,2020.1.3,Win32,60,Firefox,1920,1080,,,,,,,,,,,,,,,,,3,,,,,,,,,,,,,,,,,,,,,,,,,,,1801.865,191,right,0.619,slipper     ,4,8,-4,0,3,1801.899,1801.899,1804.398,0,36,36,36,1,191,8,4,radio       ,slipper     ,html/resources/sequences_IDs/B/10_radio.jpg,html/resources/sequences_IDs/B/08_slipper.jpg,10,8,4,2,3,2,8,6,0,37,,,,,,,,,,,,,,,,,,,,
,,,,,37,2020-07-03_17h02.12.130,retriever_ti,2020.1.3,Win32,60,Firefox,1920,1080,,,,,,,,,,,,,,,,,3,,,,,,,,,,,,,,,,,,,,,,,,,,,1804.998,192,left,1.318,giraffe     ,2,3,-3,0,3,1805.031,1805.031,1807.531,0,37,37,37,1,192,2,5,giraffe     ,seaturtle     ,html/resources/sequences_IDs/B/03_giraffe.jpg,html/resources/sequences_IDs/A/02_seaturtle.jpg,3,2,1,1,2,1,3,2,0,37,,,,,,,,,,,,,,,,,,,,
,,,,,37,2020-07-03_17h02.12.130,retriever_ti,2020.1.3,Win32,60,Firefox,1920,1080,,,,,,,,,,,,,,,,,3,,,,,,,,,,,,,,,,,,,,,,,,,,,1808.148,193,left,0.978,giraffe     ,2,3,-6,0,3,1808.181,1808.181,1810.681,0,38,38,38,1,193,2,8,giraffe     ,radio       ,html/resources/sequences_IDs/B/03_giraffe.jpg,html/resources/sequences_IDs/B/10_radio.jpg,3,10,1,1,4,2,3,8,0,37,,,,,,,,,,,,,,,,,,,,
,,,,,37,2020-07-03_17h02.12.130,retriever_ti,2020.1.3,Win32,60,Firefox,1920,1080,,,,,,,,,,,,,,,,,3,,,,,,,,,,,,,,,,,,,,,,,,,,,1811.298,194,left,0.675,slipper     ,4,8,-2,0,3,1811.331,1811.331,1813.831,0,39,39,39,1,194,4,6,slipper     ,redfox      ,html/resources/sequences_IDs/B/08_slipper.jpg,html/resources/sequences_IDs/B/01_redfox.jpg,8,1,3,2,1,1,6,1,0,37,,,,,,,,,,,,,,,,,,,,
,,,,,37,2020-07-03_17h02.12.130,retriever_ti,2020.1.3,Win32,60,Firefox,1920,1080,,,,,,,,,,,,,,,,,3,,,,,,,,,,,,,,,,,,,,,,,,,,,1814.431,195,right,0.588,slipper     ,4,8,2,1,3,1814.448,1814.448,1816.947,0,40,40,40,1,195,2,4,giraffe     ,slipper     ,html/resources/sequences_IDs/B/03_giraffe.jpg,html/resources/sequences_IDs/B/08_slipper.jpg,3,8,1,1,3,2,3,6,0,37,,,,,,,,,,,,,,,,,,,,
,,,,,37,2020-07-03_17h02.12.130,retriever_ti,2020.1.3,Win32,60,Firefox,1920,1080,,,,,,,,,,,,,,,,,3,,,,,,,,,,,,,,,,,,,,,,,,,,,1817.547,196,right,0.933,scarf         ,7,6,1,1,0,1817.582,1817.582,1820.08,0,41,41,41,1,196,6,7,redfox      ,scarf         ,html/resources/sequences_IDs/B/01_redfox.jpg,html/resources/sequences_IDs/A/06_scarf.jpg,1,6,1,1,3,2,1,5,1,37,,,,,,,,,,,,,,,,,,,,
,,,,,37,2020-07-03_17h02.12.130,retriever_ti,2020.1.3,Win32,60,Firefox,1920,1080,,,,,,,,,,,,,,,,,3,,,,,,,,,,,,,,,,,,,,,,,,,,,1821.181,197,left,0.948,redfox      ,6,1,1,1,1,1821.197,1821.197,1823.697,0,42,42,42,1,197,6,5,redfox      ,seaturtle     ,html/resources/sequences_IDs/B/01_redfox.jpg,html/resources/sequences_IDs/A/02_seaturtle.jpg,1,2,1,1,2,1,1,2,0,37,,,,,,,,,,,,,,,,,,,,
,,,,,37,2020-07-03_17h02.12.130,retriever_ti,2020.1.3,Win32,60,Firefox,1920,1080,,,,,,,,,,,,,,,,,3,,,,,,,,,,,,,,,,,,,,,,,,,,,1824.797,198,left,0.571,slipper     ,4,8,2,1,3,1824.832,1824.832,1827.33,0,43,43,43,1,198,4,2,slipper     ,giraffe     ,html/resources/sequences_IDs/B/08_slipper.jpg,html/resources/sequences_IDs/B/03_giraffe.jpg,8,3,3,2,1,1,6,3,0,37,,,,,,,,,,,,,,,,,,,,
,,,,,37,2020-07-03_17h02.12.130,retriever_ti,2020.1.3,Win32,60,Firefox,1920,1080,,,,,,,,,,,,,,,,,3,,,,,,,,,,,,,,,,,,,,,,,,,,,1827.947,199,left,0.838,calculator    ,3,9,-3,0,3,1827.982,1827.982,1830.48,0,44,44,44,1,199,3,6,calculator    ,redfox      ,html/resources/sequences_IDs/A/09_calculator.jpg,html/resources/sequences_IDs/B/01_redfox.jpg,9,1,4,2,1,1,7,1,0,37,,,,,,,,,,,,,,,,,,,,
,,,,,37,2020-07-03_17h02.12.130,retriever_ti,2020.1.3,Win32,60,Firefox,1920,1080,,,,,,,,,,,,,,,,,3,,,,,,,,,,,,,,,,,,,,,,,,,,,1831.098,200,left,1.321,clownfish     ,1,4,-1,0,0,1831.115,1831.115,1833.613,0,45,45,45,1,200,1,2,clownfish     ,giraffe     ,html/resources/sequences_IDs/A/04_clownfish.jpg,html/resources/sequences_IDs/B/03_giraffe.jpg,4,3,2,1,1,1,4,3,0,37,,,,,,,,,,,,,,,,,,,,
,,,,,37,2020-07-03_17h02.12.130,retriever_ti,2020.1.3,Win32,60,Firefox,1920,1080,,,,,,,,,,,,,,,,,3,,,,,,,,,,,,,,,,,,,,,,,,,,,1834.714,201,right,0.662,scarf         ,7,6,2,1,3,1834.748,1834.748,1837.247,0,46,46,46,1,201,5,7,seaturtle     ,scarf         ,html/resources/sequences_IDs/A/02_seaturtle.jpg,html/resources/sequences_IDs/A/06_scarf.jpg,2,6,2,1,3,2,2,5,0,37,,,,,,,,,,,,,,,,,,,,
,,,,,37,2020-07-03_17h02.12.130,retriever_ti,2020.1.3,Win32,60,Firefox,1920,1080,,,,,,,,,,,,,,,,,3,,,,,,,,,,,,,,,,,,,,,,,,,,,1837.863,202,left,1.196,redfox      ,6,1,1,1,0,1837.897,1837.897,1840.397,0,47,47,47,1,202,6,5,redfox      ,seaturtle     ,html/resources/sequences_IDs/B/01_redfox.jpg,html/resources/sequences_IDs/A/02_seaturtle.jpg,1,2,1,1,2,1,1,2,1,37,,,,,,,,,,,,,,,,,,,,
,,,,,37,2020-07-03_17h02.12.130,retriever_ti,2020.1.3,Win32,60,Firefox,1920,1080,,,,,,,,,,,,,,,,,3,,,,,,,,,,,,,,,,,,,,,,,,,,,1841.497,203,right,1.235,slipper     ,4,8,-3,0,3,1841.513,1841.513,1844.014,0,48,48,48,1,203,7,4,scarf         ,slipper     ,html/resources/sequences_IDs/A/06_scarf.jpg,html/resources/sequences_IDs/B/08_slipper.jpg,6,8,3,2,3,2,5,6,0,37,,,,,,,,,,,,,,,,,,,,
,,,,,37,2020-07-03_17h02.12.130,retriever_ti,2020.1.3,Win32,60,Firefox,1920,1080,,,,,,,,,,,,,,,,,3,,,,,,,,,,,,,,,,,,,,,,,,,,,1844.63,204,right,0.571,scarf         ,7,6,6,1,3,1844.647,1844.647,1847.147,0,49,49,49,1,204,1,7,clownfish     ,scarf         ,html/resources/sequences_IDs/A/04_clownfish.jpg,html/resources/sequences_IDs/A/06_scarf.jpg,4,6,2,1,3,2,4,5,0,37,,,,,,,,,,,,,,,,,,,,
,,,,,37,2020-07-03_17h02.12.130,retriever_ti,2020.1.3,Win32,60,Firefox,1920,1080,,,,,,,,,,,,,,,,,3,,,,,,,,,,,,,,,,,,,,,,,,,,,1847.763,205,left,0.61,slipper     ,4,8,3,1,3,1847.798,1847.798,1850.296,0,50,50,50,1,205,4,1,slipper     ,clownfish     ,html/resources/sequences_IDs/B/08_slipper.jpg,html/resources/sequences_IDs/A/04_clownfish.jpg,8,4,3,2,2,1,6,4,0,37,,,,,,,,,,,,,,,,,,,,
,,,,,37,2020-07-03_17h02.12.130,retriever_ti,2020.1.3,Win32,60,Firefox,1920,1080,,,,,,,,,,,,,,,,,3,,,,,,,,,,,,,,,,,,,,,,,,,,,1850.914,206,left,0.947,redfox      ,6,1,3,1,3,1850.931,1850.931,1853.43,0,51,51,51,1,206,6,3,redfox      ,calculator    ,html/resources/sequences_IDs/B/01_redfox.jpg,html/resources/sequences_IDs/A/09_calculator.jpg,1,9,1,1,4,2,1,7,0,37,,,,,,,,,,,,,,,,,,,,
,,,,,37,2020-07-03_17h02.12.130,retriever_ti,2020.1.3,Win32,60,Firefox,1920,1080,,,,,,,,,,,,,,,,,3,,,,,,,,,,,,,,,,,,,,,,,,,,,1854.046,207,left,0.751,giraffe     ,2,3,-1,0,1,1854.081,1854.081,1856.58,0,52,52,52,1,207,2,3,giraffe     ,calculator    ,html/resources/sequences_IDs/B/03_giraffe.jpg,html/resources/sequences_IDs/A/09_calculator.jpg,3,9,1,1,4,2,3,7,1,37,,,,,,,,,,,,,,,,,,,,
,,,,,37,2020-07-03_17h02.12.130,retriever_ti,2020.1.3,Win32,60,Firefox,1920,1080,,,,,,,,,,,,,,,,,3,,,,,,,,,,,,,,,,,,,,,,,,,,,1857.68,208,right,0.654,clownfish     ,1,4,-4,0,3,1857.715,1857.715,1860.213,0,53,53,53,1,208,5,1,seaturtle     ,clownfish     ,html/resources/sequences_IDs/A/02_seaturtle.jpg,html/resources/sequences_IDs/A/04_clownfish.jpg,2,4,2,1,2,1,2,4,0,37,,,,,,,,,,,,,,,,,,,,
,,,,,37,2020-07-03_17h02.12.130,retriever_ti,2020.1.3,Win32,60,Firefox,1920,1080,,,,,,,,,,,,,,,,,3,,,,,,,,,,,,,,,,,,,,,,,,,,,1860.83,209,left,0.589,scarf         ,7,6,2,1,3,1860.846,1860.846,1863.346,0,54,54,54,1,209,7,5,scarf         ,seaturtle     ,html/resources/sequences_IDs/A/06_scarf.jpg,html/resources/sequences_IDs/A/02_seaturtle.jpg,6,2,3,2,2,1,5,2,0,37,,,,,,,,,,,,,,,,,,,,
,,,,,37,2020-07-03_17h02.12.130,retriever_ti,2020.1.3,Win32,60,Firefox,1920,1080,,,,,,,,,,,,,,,,,3,,,,,,,,,,,,,,,,,,,,,,,,,,,1863.963,210,left,1.07,slipper     ,4,8,1,1,1,1863.979,1863.979,1866.48,0,55,55,55,1,210,4,3,slipper     ,calculator    ,html/resources/sequences_IDs/B/08_slipper.jpg,html/resources/sequences_IDs/A/09_calculator.jpg,8,9,3,2,4,2,6,7,0,37,,,,,,,,,,,,,,,,,,,,
,,,,,37,2020-07-03_17h02.12.130,retriever_ti,2020.1.3,Win32,60,Firefox,1920,1080,,,,,,,,,,,,,,,,,3,,,,,,,,,,,,,,,,,,,,,,,,,,,1867.58,211,right,0.887,giraffe     ,2,3,-6,0,3,1867.614,1867.614,1870.113,0,56,56,56,1,211,8,2,radio       ,giraffe     ,html/resources/sequences_IDs/B/10_radio.jpg,html/resources/sequences_IDs/B/03_giraffe.jpg,10,3,4,2,1,1,8,3,0,37,,,,,,,,,,,,,,,,,,,,
,,,,,37,2020-07-03_17h02.12.130,retriever_ti,2020.1.3,Win32,60,Firefox,1920,1080,,,,,,,,,,,,,,,,,3,,,,,,,,,,,,,,,,,,,,,,,,,,,1870.73,212,left,0.515,seaturtle     ,5,2,1,1,0,1870.746,1870.746,1873.246,0,57,57,57,1,212,5,4,seaturtle     ,slipper     ,html/resources/sequences_IDs/A/02_seaturtle.jpg,html/resources/sequences_IDs/B/08_slipper.jpg,2,8,2,1,3,2,2,6,1,37,,,,,,,,,,,,,,,,,,,,
,,,,,37,2020-07-03_17h02.12.130,retriever_ti,2020.1.3,Win32,60,Firefox,1920,1080,,,,,,,,,,,,,,,,,3,,,,,,,,,,,,,,,,,,,,,,,,,,,1874.347,213,left,0.692,slipper     ,4,8,1,1,1,1874.363,1874.363,1876.863,0,58,58,58,1,213,4,3,slipper     ,calculator    ,html/resources/sequences_IDs/B/08_slipper.jpg,html/resources/sequences_IDs/A/09_calculator.jpg,8,9,3,2,4,2,6,7,0,37,,,,,,,,,,,,,,,,,,,,
,,,,,37,2020-07-03_17h02.12.130,retriever_ti,2020.1.3,Win32,60,Firefox,1920,1080,,,,,,,,,,,,,,,,,3,,,,,,,,,,,,,,,,,,,,,,,,,,,1877.963,214,left,0.564,scarf         ,7,6,-1,0,0,1877.996,1877.996,1880.496,0,59,59,59,1,214,7,8,scarf         ,radio       ,html/resources/sequences_IDs/A/06_scarf.jpg,html/resources/sequences_IDs/B/10_radio.jpg,6,10,3,2,4,2,5,8,0,37,,,,,,,,,,,,,,,,,,,,
,,,,,37,2020-07-03_17h02.12.130,retriever_ti,2020.1.3,Win32,60,Firefox,1920,1080,,,,,,,,,,,,,,,,,3,,,,,,,,,,,,,,,,,,,,,,,,,,,1881.596,215,right,1.195,calculator    ,3,9,-2,0,3,1881.614,1881.614,1884.112,0,60,60,60,1,215,5,3,seaturtle     ,calculator    ,html/resources/sequences_IDs/A/02_seaturtle.jpg,html/resources/sequences_IDs/A/09_calculator.jpg,2,9,2,1,4,2,2,7,0,37,,,,,,,,,,,,,,,,,,,,
,,,,,37,2020-07-03_17h02.12.130,retriever_ti,2020.1.3,Win32,60,Firefox,1920,1080,,,,,,,,,,,,,,,,,3,,,,,,,,,,,,,,,,,,,,,,,,,,,1884.713,216,right,0.701,giraffe     ,2,3,-4,0,3,1884.729,1884.729,1887.229,0,61,61,61,1,216,6,2,redfox      ,giraffe     ,html/resources/sequences_IDs/B/01_redfox.jpg,html/resources/sequences_IDs/B/03_giraffe.jpg,1,3,1,1,1,1,1,3,0,37,,,,,,,,,,,,,,,,,,,,
,,,,,37,2020-07-03_17h02.12.130,retriever_ti,2020.1.3,Win32,60,Firefox,1920,1080,,,,,,,,,,,,,,,,,3,,,,,,,,,,,,,,,,,,,,,,,,,,,1887.846,217,right,0.721,seaturtle     ,5,2,-1,0,0,1887.864,1887.864,1890.363,0,62,62,62,1,217,6,5,redfox      ,seaturtle     ,html/resources/sequences_IDs/B/01_redfox.jpg,html/resources/sequences_IDs/A/02_seaturtle.jpg,1,2,1,1,2,1,1,2,0,37,,,,,,,,,,,,,,,,,,,,
,,,,,37,2020-07-03_17h02.12.130,retriever_ti,2020.1.3,Win32,60,Firefox,1920,1080,,,,,,,,,,,,,,,,,3,,,,,,,,,,,,,,,,,,,,,,,,,,,1891.463,218,right,0.647,slipper     ,4,8,-1,0,0,1891.496,1891.496,1893.996,0,63,63,63,1,218,5,4,seaturtle     ,slipper     ,html/resources/sequences_IDs/A/02_seaturtle.jpg,html/resources/sequences_IDs/B/08_slipper.jpg,2,8,2,1,3,2,2,6,0,37,,,,,,,,,,,,,,,,,,,,
,,,,,37,2020-07-03_17h02.12.130,retriever_ti,2020.1.3,Win32,60,Firefox,1920,1080,,,,,,,,,,,,,,,,,3,,,,,,,,,,,,,,,,,,,,,,,,,,,1895.096,219,right,0.571,redfox      ,6,1,-1,0,0,1895.129,1895.129,1897.629,0,64,64,64,1,219,7,6,scarf         ,redfox      ,html/resources/sequences_IDs/A/06_scarf.jpg,html/resources/sequences_IDs/B/01_redfox.jpg,6,1,3,2,1,1,5,1,0,37,,,,,,,,,,,,,,,,,,,,
,,,,,37,2020-07-03_17h02.12.130,retriever_ti,2020.1.3,Win32,60,Firefox,1920,1080,,,,,,,,,,,,,,,,,3,,,,,,,,,,,,,,,,,,,,,,,,,,,1898.729,220,left,0.512,clownfish     ,1,4,-3,0,3,1898.747,1898.747,1901.245,0,65,65,65,1,220,1,4,clownfish     ,slipper     ,html/resources/sequences_IDs/A/04_clownfish.jpg,html/resources/sequences_IDs/B/08_slipper.jpg,4,8,2,1,3,2,4,6,0,37,,,,,,,,,,,,,,,,,,,,
,,,,,37,2020-07-03_17h02.12.130,retriever_ti,2020.1.3,Win32,60,Firefox,1920,1080,,,,,,,,,,,,,,,,,3,,,,,,,,,,,,,,,,,,,,,,,,,,,1901.846,221,right,0.757,giraffe     ,2,3,-5,0,3,1901.878,1901.878,1904.379,0,66,66,66,1,221,7,2,scarf         ,giraffe     ,html/resources/sequences_IDs/A/06_scarf.jpg,html/resources/sequences_IDs/B/03_giraffe.jpg,6,3,3,2,1,1,5,3,0,37,,,,,,,,,,,,,,,,,,,,
,,,,,37,2020-07-03_17h02.12.130,retriever_ti,2020.1.3,Win32,60,Firefox,1920,1080,,,,,,,,,,,,,,,,,3,,,,,,,,,,,,,,,,,,,,,,,,,,,1904.995,222,right,0.977,giraffe     ,2,3,-1,0,0,1905.028,1905.028,1907.528,0,67,67,67,1,222,3,2,calculator    ,giraffe     ,html/resources/sequences_IDs/A/09_calculator.jpg,html/resources/sequences_IDs/B/03_giraffe.jpg,9,3,4,2,1,1,7,3,0,37,,,,,,,,,,,,,,,,,,,,
,,,,,37,2020-07-03_17h02.12.130,retriever_ti,2020.1.3,Win32,60,Firefox,1920,1080,,,,,,,,,,,,,,,,,3,,,,,,,,,,,,,,,,,,,,,,,,,,,1908.628,223,left,0.514,giraffe     ,2,3,1,1,1,1908.662,1908.662,1911.162,0,68,68,68,1,223,2,1,giraffe     ,clownfish     ,html/resources/sequences_IDs/B/03_giraffe.jpg,html/resources/sequences_IDs/A/04_clownfish.jpg,3,4,1,1,2,1,3,4,0,37,,,,,,,,,,,,,,,,,,,,
