instructionsLoop.thisRepN,instructionsLoop.thisTrialN,instructionsLoop.thisN,instructionsLoop.thisIndex,instructionsLoop.ran,participant,date,expName,psychopyVersion,OS,frameRate,browser,xResolution,yResolution,fix_onset,tprac,practiceKey.keys,practiceKey.rt,pracitem_chosen_name,acc_practice,P1_onsetPrac,P2_onsetPrac,onsetFeedbPrac,practiceTrials.thisRepN,practiceTrials.thisTrialN,practiceTrials.thisN,practiceTrials.thisIndex,practiceTrials.ran,P1,P2,Block,LocItem1,LocItem2,NameItem1,NameItem2,key_respAC_prac.keys,key_respAC_prac.corr,key_respAC_prac.rt,AC_acc,Attentions.thisRepN,Attentions.thisTrialN,Attentions.thisN,Attentions.thisIndex,Attentions.ran,Stim,Loc1,Loc2,Loc3,Loc4,CorrAns,keyDisturbed.keys,keyDisturbed.rt,repPractice.thisRepN,repPractice.thisTrialN,repPractice.thisN,repPractice.thisIndex,repPractice.ran,fixcross_onsetMain,trialNumber,key_resp.keys,key_resp.rt,item_chosen_name,item_chosen_value,item_chosen_ID,diff_chosen_minus_reject,acc_real,acc_feedback,P1_onset,P2_onset,feedb_onset,trials.thisRepN,trials.thisTrialN,trials.thisN,trials.thisIndex,trials.ran,Trial,ValueP1,ValueP2,P1name,P2name,P1Loc,P2Loc,P1id,P2id,Micro_categoryP1,Macro_categoryP1,Micro_categoryP2,Macro_categoryP2,ID_sequenceP1,ID_sequenceP2,InverseFb,pNumber,repBlocks.thisRepN,repBlocks.thisTrialN,repBlocks.thisN,repBlocks.thisIndex,repBlocks.ran,key_respAC.keys,key_respAC.corr,key_respAC.rt,trials_AC.thisRepN,trials_AC.thisTrialN,trials_AC.thisN,trials_AC.thisIndex,trials_AC.ran,Bonus,BonusLoop.thisRepN,BonusLoop.thisTrialN,BonusLoop.thisN,BonusLoop.thisIndex,BonusLoop.ran,comments
0,0,0,0,1,38,2020-07-03_15h58.53.322,retriever_ti,2020.1.3,Win32,60,Chrome,1920,1080,,,,,,,,,,,,,,,,,,,,,,,,,,,,,,,,,,,,,,,,,,,,,,,,,,,,,,,,,,,,,,,,,,,,,,,,,,,,,,,,,,,,,,,,,,,,,,,,,,
1,0,1,0,1,38,2020-07-03_15h58.53.322,retriever_ti,2020.1.3,Win32,60,Chrome,1920,1080,,,,,,,,,,,,,,,,,,,,,,,,,,,,,,,,,,,,,,,,,,,,,,,,,,,,,,,,,,,,,,,,,,,,,,,,,,,,,,,,,,,,,,,,,,,,,,,,,,
2,0,2,0,1,38,2020-07-03_15h58.53.322,retriever_ti,2020.1.3,Win32,60,Chrome,1920,1080,,,,,,,,,,,,,,,,,,,,,,,,,,,,,,,,,,,,,,,,,,,,,,,,,,,,,,,,,,,,,,,,,,,,,,,,,,,,,,,,,,,,,,,,,,,,,,,,,,
3,0,3,0,1,38,2020-07-03_15h58.53.322,retriever_ti,2020.1.3,Win32,60,Chrome,1920,1080,,,,,,,,,,,,,,,,,,,,,,,,,,,,,,,,,,,,,,,,,,,,,,,,,,,,,,,,,,,,,,,,,,,,,,,,,,,,,,,,,,,,,,,,,,,,,,,,,,
4,0,4,0,1,38,2020-07-03_15h58.53.322,retriever_ti,2020.1.3,Win32,60,Chrome,1920,1080,,,,,,,,,,,,,,,,,,,,,,,,,,,,,,,,,,,,,,,,,,,,,,,,,,,,,,,,,,,,,,,,,,,,,,,,,,,,,,,,,,,,,,,,,,,,,,,,,,
5,0,5,0,1,38,2020-07-03_15h58.53.322,retriever_ti,2020.1.3,Win32,60,Chrome,1920,1080,,,,,,,,,,,,,,,,,,,,,,,,,,,,,,,,,,,,,,,,,,,,,,,,,,,,,,,,,,,,,,,,,,,,,,,,,,,,,,,,,,,,,,,,,,,,,,,,,,
6,0,6,0,1,38,2020-07-03_15h58.53.322,retriever_ti,2020.1.3,Win32,60,Chrome,1920,1080,,,,,,,,,,,,,,,,,,,,,,,,,,,,,,,,,,,,,,,,,,,,,,,,,,,,,,,,,,,,,,,,,,,,,,,,,,,,,,,,,,,,,,,,,,,,,,,,,,
7,0,7,0,1,38,2020-07-03_15h58.53.322,retriever_ti,2020.1.3,Win32,60,Chrome,1920,1080,,,,,,,,,,,,,,,,,,,,,,,,,,,,,,,,,,,,,,,,,,,,,,,,,,,,,,,,,,,,,,,,,,,,,,,,,,,,,,,,,,,,,,,,,,,,,,,,,,
8,0,8,0,1,38,2020-07-03_15h58.53.322,retriever_ti,2020.1.3,Win32,60,Chrome,1920,1080,,,,,,,,,,,,,,,,,,,,,,,,,,,,,,,,,,,,,,,,,,,,,,,,,,,,,,,,,,,,,,,,,,,,,,,,,,,,,,,,,,,,,,,,,,,,,,,,,,
9,0,9,0,1,38,2020-07-03_15h58.53.322,retriever_ti,2020.1.3,Win32,60,Chrome,1920,1080,,,,,,,,,,,,,,,,,,,,,,,,,,,,,,,,,,,,,,,,,,,,,,,,,,,,,,,,,,,,,,,,,,,,,,,,,,,,,,,,,,,,,,,,,,,,,,,,,,
10,0,10,0,1,38,2020-07-03_15h58.53.322,retriever_ti,2020.1.3,Win32,60,Chrome,1920,1080,,,,,,,,,,,,,,,,,,,,,,,,,,,,,,,,,,,,,,,,,,,,,,,,,,,,,,,,,,,,,,,,,,,,,,,,,,,,,,,,,,,,,,,,,,,,,,,,,,
11,0,11,0,1,38,2020-07-03_15h58.53.322,retriever_ti,2020.1.3,Win32,60,Chrome,1920,1080,,,,,,,,,,,,,,,,,,,,,,,,,,,,,,,,,,,,,,,,,,,,,,,,,,,,,,,,,,,,,,,,,,,,,,,,,,,,,,,,,,,,,,,,,,,,,,,,,,
12,0,12,0,1,38,2020-07-03_15h58.53.322,retriever_ti,2020.1.3,Win32,60,Chrome,1920,1080,,,,,,,,,,,,,,,,,,,,,,,,,,,,,,,,,,,,,,,,,,,,,,,,,,,,,,,,,,,,,,,,,,,,,,,,,,,,,,,,,,,,,,,,,,,,,,,,,,
13,0,13,0,1,38,2020-07-03_15h58.53.322,retriever_ti,2020.1.3,Win32,60,Chrome,1920,1080,,,,,,,,,,,,,,,,,,,,,,,,,,,,,,,,,,,,,,,,,,,,,,,,,,,,,,,,,,,,,,,,,,,,,,,,,,,,,,,,,,,,,,,,,,,,,,,,,,
14,0,14,0,1,38,2020-07-03_15h58.53.322,retriever_ti,2020.1.3,Win32,60,Chrome,1920,1080,,,,,,,,,,,,,,,,,,,,,,,,,,,,,,,,,,,,,,,,,,,,,,,,,,,,,,,,,,,,,,,,,,,,,,,,,,,,,,,,,,,,,,,,,,,,,,,,,,
15,0,15,0,1,38,2020-07-03_15h58.53.322,retriever_ti,2020.1.3,Win32,60,Chrome,1920,1080,,,,,,,,,,,,,,,,,,,,,,,,,,,,,,,,,,,,,,,,,,,,,,,,,,,,,,,,,,,,,,,,,,,,,,,,,,,,,,,,,,,,,,,,,,,,,,,,,,
16,0,16,0,1,38,2020-07-03_15h58.53.322,retriever_ti,2020.1.3,Win32,60,Chrome,1920,1080,,,,,,,,,,,,,,,,,,,,,,,,,,,,,,,,,,,,,,,,,,,,,,,,,,,,,,,,,,,,,,,,,,,,,,,,,,,,,,,,,,,,,,,,,,,,,,,,,,
17,0,17,0,1,38,2020-07-03_15h58.53.322,retriever_ti,2020.1.3,Win32,60,Chrome,1920,1080,,,,,,,,,,,,,,,,,,,,,,,,,,,,,,,,,,,,,,,,,,,,,,,,,,,,,,,,,,,,,,,,,,,,,,,,,,,,,,,,,,,,,,,,,,,,,,,,,,
18,0,18,0,1,38,2020-07-03_15h58.53.322,retriever_ti,2020.1.3,Win32,60,Chrome,1920,1080,,,,,,,,,,,,,,,,,,,,,,,,,,,,,,,,,,,,,,,,,,,,,,,,,,,,,,,,,,,,,,,,,,,,,,,,,,,,,,,,,,,,,,,,,,,,,,,,,,
19,0,19,0,1,38,2020-07-03_15h58.53.322,retriever_ti,2020.1.3,Win32,60,Chrome,1920,1080,,,,,,,,,,,,,,,,,,,,,,,,,,,,,,,,,,,,,,,,,,,,,,,,,,,,,,,,,,,,,,,,,,,,,,,,,,,,,,,,,,,,,,,,,,,,,,,,,,
20,0,20,0,1,38,2020-07-03_15h58.53.322,retriever_ti,2020.1.3,Win32,60,Chrome,1920,1080,,,,,,,,,,,,,,,,,,,,,,,,,,,,,,,,,,,,,,,,,,,,,,,,,,,,,,,,,,,,,,,,,,,,,,,,,,,,,,,,,,,,,,,,,,,,,,,,,,
21,0,21,0,1,38,2020-07-03_15h58.53.322,retriever_ti,2020.1.3,Win32,60,Chrome,1920,1080,,,,,,,,,,,,,,,,,,,,,,,,,,,,,,,,,,,,,,,,,,,,,,,,,,,,,,,,,,,,,,,,,,,,,,,,,,,,,,,,,,,,,,,,,,,,,,,,,,
22,0,22,0,1,38,2020-07-03_15h58.53.322,retriever_ti,2020.1.3,Win32,60,Chrome,1920,1080,,,,,,,,,,,,,,,,,,,,,,,,,,,,,,,,,,,,,,,,,,,,,,,,,,,,,,,,,,,,,,,,,,,,,,,,,,,,,,,,,,,,,,,,,,,,,,,,,,
23,0,23,0,1,38,2020-07-03_15h58.53.322,retriever_ti,2020.1.3,Win32,60,Chrome,1920,1080,,,,,,,,,,,,,,,,,,,,,,,,,,,,,,,,,,,,,,,,,,,,,,,,,,,,,,,,,,,,,,,,,,,,,,,,,,,,,,,,,,,,,,,,,,,,,,,,,,
24,0,24,0,1,38,2020-07-03_15h58.53.322,retriever_ti,2020.1.3,Win32,60,Chrome,1920,1080,,,,,,,,,,,,,,,,,,,,,,,,,,,,,,,,,,,,,,,,,,,,,,,,,,,,,,,,,,,,,,,,,,,,,,,,,,,,,,,,,,,,,,,,,,,,,,,,,,
25,0,25,0,1,38,2020-07-03_15h58.53.322,retriever_ti,2020.1.3,Win32,60,Chrome,1920,1080,,,,,,,,,,,,,,,,,,,,,,,,,,,,,,,,,,,,,,,,,,,,,,,,,,,,,,,,,,,,,,,,,,,,,,,,,,,,,,,,,,,,,,,,,,,,,,,,,,
26,0,26,0,1,38,2020-07-03_15h58.53.322,retriever_ti,2020.1.3,Win32,60,Chrome,1920,1080,,,,,,,,,,,,,,,,,,,,,,,,,,,,,,,,,,,,,,,,,,,,,,,,,,,,,,,,,,,,,,,,,,,,,,,,,,,,,,,,,,,,,,,,,,,,,,,,,,
27,0,27,0,1,38,2020-07-03_15h58.53.322,retriever_ti,2020.1.3,Win32,60,Chrome,1920,1080,,,,,,,,,,,,,,,,,,,,,,,,,,,,,,,,,,,,,,,,,,,,,,,,,,,,,,,,,,,,,,,,,,,,,,,,,,,,,,,,,,,,,,,,,,,,,,,,,,
28,0,28,0,1,38,2020-07-03_15h58.53.322,retriever_ti,2020.1.3,Win32,60,Chrome,1920,1080,,,,,,,,,,,,,,,,,,,,,,,,,,,,,,,,,,,,,,,,,,,,,,,,,,,,,,,,,,,,,,,,,,,,,,,,,,,,,,,,,,,,,,,,,,,,,,,,,,
29,0,29,0,1,38,2020-07-03_15h58.53.322,retriever_ti,2020.1.3,Win32,60,Chrome,1920,1080,,,,,,,,,,,,,,,,,,,,,,,,,,,,,,,,,,,,,,,,,,,,,,,,,,,,,,,,,,,,,,,,,,,,,,,,,,,,,,,,,,,,,,,,,,,,,,,,,,
30,0,30,0,1,38,2020-07-03_15h58.53.322,retriever_ti,2020.1.3,Win32,60,Chrome,1920,1080,,,,,,,,,,,,,,,,,,,,,,,,,,,,,,,,,,,,,,,,,,,,,,,,,,,,,,,,,,,,,,,,,,,,,,,,,,,,,,,,,,,,,,,,,,,,,,,,,,
,,,,,38,2020-07-03_15h58.53.322,retriever_ti,2020.1.3,Win32,60,Chrome,1920,1080,2143.826875,1,right,1.066985,canary,1,2143.844175,2143.844175,2146.33278,0,0,0,0,1,2,5,1,html/resources/stimuli_practice_decision/04_beetle.jpg,html/resources/stimuli_practice_decision/02_canary.jpg,beetle,canary,,,,,,,,,,,,,,,,,,,,,,,,,,,,,,,,,,,,,,,,,,,,,,,,,,,,,,,,,,,,,,,,,,,,,,,,,,,,,
,,,,,38,2020-07-03_15h58.53.322,retriever_ti,2020.1.3,Win32,60,Chrome,1920,1080,2146.9111,2,left,0.737195,rabbit,1,2146.92352,2146.92352,2149.41618,0,1,1,1,1,4,3,1,html/resources/stimuli_practice_decision/01_rabbit.jpg,html/resources/stimuli_practice_decision/07_sock.jpg,rabbit,sock,,,,,,,,,,,,,,,,,,,,,,,,,,,,,,,,,,,,,,,,,,,,,,,,,,,,,,,,,,,,,,,,,,,,,,,,,,,,,
,,,,,38,2020-07-03_15h58.53.322,retriever_ti,2020.1.3,Win32,60,Chrome,1920,1080,2150.40708,3,left,0.786155,pullover,1,2150.421165,2150.421165,2152.91375,0,2,2,2,1,6,2,1,html/resources/stimuli_practice_decision/06_pullover.jpg,html/resources/stimuli_practice_decision/04_beetle.jpg,pullover,beetle,,,,,,,,,,,,,,,,,,,,,,,,,,,,,,,,,,,,,,,,,,,,,,,,,,,,,,,,,,,,,,,,,,,,,,,,,,,,,
,,,,,38,2020-07-03_15h58.53.322,retriever_ti,2020.1.3,Win32,60,Chrome,1920,1080,2153.414295,4,right,0.72651,handmixer,0,2153.42861,2153.42861,2155.921195,0,3,3,3,1,7,1,1,html/resources/stimuli_practice_decision/05_glasses.jpg,html/resources/stimuli_practice_decision/08_handmixer.jpg,glasses,handmixer,,,,,,,,,,,,,,,,,,,,,,,,,,,,,,,,,,,,,,,,,,,,,,,,,,,,,,,,,,,,,,,,,,,,,,,,,,,,,
,,,,,38,2020-07-03_15h58.53.322,retriever_ti,2020.1.3,Win32,60,Chrome,1920,1080,2156.42188,5,right,0.693145,pullover,0,2156.429085,2156.429085,2158.92178,0,4,4,4,1,7,6,1,html/resources/stimuli_practice_decision/05_glasses.jpg,html/resources/stimuli_practice_decision/06_pullover.jpg,glasses,pullover,,,,,,,,,,,,,,,,,,,,,,,,,,,,,,,,,,,,,,,,,,,,,,,,,,,,,,,,,,,,,,,,,,,,,,,,,,,,,
,,,,,38,2020-07-03_15h58.53.322,retriever_ti,2020.1.3,Win32,60,Chrome,1920,1080,2159.915325,6,left,0.66037,rabbit,0,2159.92968,2159.92968,2162.422425,0,5,5,5,1,4,7,1,html/resources/stimuli_practice_decision/01_rabbit.jpg,html/resources/stimuli_practice_decision/05_glasses.jpg,rabbit,glasses,,,,,,,,,,,,,,,,,,,,,,,,,,,,,,,,,,,,,,,,,,,,,,,,,,,,,,,,,,,,,,,,,,,,,,,,,,,,,
,,,,,38,2020-07-03_15h58.53.322,retriever_ti,2020.1.3,Win32,60,Chrome,1920,1080,2162.930195,7,left,1.073405,handmixer,0,2162.93728,2162.93728,2165.4299,0,6,6,6,1,1,2,1,html/resources/stimuli_practice_decision/08_handmixer.jpg,html/resources/stimuli_practice_decision/04_beetle.jpg,handmixer,beetle,,,,,,,,,,,,,,,,,,,,,,,,,,,,,,,,,,,,,,,,,,,,,,,,,,,,,,,,,,,,,,,,,,,,,,,,,,,,,
,,,,,38,2020-07-03_15h58.53.322,retriever_ti,2020.1.3,Win32,60,Chrome,1920,1080,2166.42342,8,left,0.790885,rabbit,1,2166.437955,2166.437955,2168.930585,0,7,7,7,1,4,3,1,html/resources/stimuli_practice_decision/01_rabbit.jpg,html/resources/stimuli_practice_decision/07_sock.jpg,rabbit,sock,,,,,,,,,,,,,,,,,,,,,,,,,,,,,,,,,,,,,,,,,,,,,,,,,,,,,,,,,,,,,,,,,,,,,,,,,,,,,
,,,,,38,2020-07-03_15h58.53.322,retriever_ti,2020.1.3,Win32,60,Chrome,1920,1080,,,,,,,,,,,,,,,,,,,,,,down,1,2.979785,1,0,0,0,1,1,html/resources/sequences_IDs/star.png,square ↑,circle →,star ↓,← triangle,down,,,,,,,,,,,,,,,,,,,,,,,,,,,,,,,,,,,,,,,,,,,,,,,,,,,,,,,,,,,,,,
,,,,,38,2020-07-03_15h58.53.322,retriever_ti,2020.1.3,Win32,60,Chrome,1920,1080,,,,,,,,,,,,,,,,,,,,,,left,1,2.7669,1,0,1,1,2,1,html/resources/sequences_IDs/square1.png,star ↑,triangle →,circle ↓,← square,left,,,,,,,,,,,,,,,,,,,,,,,,,,,,,,,,,,,,,,,,,,,,,,,,,,,,,,,,,,,,,,
,,,,,38,2020-07-03_15h58.53.322,retriever_ti,2020.1.3,Win32,60,Chrome,1920,1080,,,,,,,,,,,,,,,,,,,,,,up,1,1.77922,1,0,2,2,0,1,html/resources/sequences_IDs/circle.png,circle ↑,square →,triangle ↓,← star ,up,,,,,,,,,,,,,,,,,,,,,,,,,,,,,,,,,,,,,,,,,,,,,,,,,,,,,,,,,,,,,,
,,,,,38,2020-07-03_15h58.53.322,retriever_ti,2020.1.3,Win32,60,Chrome,1920,1080,,,,,,,,,,,,,,,,,,,,,,down,1,1.9209,1,0,3,3,3,1,html/resources/sequences_IDs/triangle.png,star ↑,square →,triangle ↓,← circle,down,,,,,,,,,,,,,,,,,,,,,,,,,,,,,,,,,,,,,,,,,,,,,,,,,,,,,,,,,,,,,,
,,,,,38,2020-07-03_15h58.53.322,retriever_ti,2020.1.3,Win32,60,Chrome,1920,1080,,,,,,,,,,,,,,,,,,,,,,,,,,,,,,,,,,,,,0,10.84778,0,0,0,0,1,,,,,,,,,,,,,,,,,,,,,,,,,,,,,,,,,,,,,,,,,,,,,,,,,,,,,,,
,,,,,38,2020-07-03_15h58.53.322,retriever_ti,2020.1.3,Win32,60,Chrome,1920,1080,2193.92385,9,left,0.85593,pullover,0,2193.929025,2193.929025,2196.421845,0,0,0,0,1,6,7,1,html/resources/stimuli_practice_decision/06_pullover.jpg,html/resources/stimuli_practice_decision/05_glasses.jpg,pullover,glasses,,,,,,,,,,,,,,,,,,,,,,,,,,,,,,,,,,,,,,,,,,,,,,,,,,,,,,,,,,,,,,,,,,,,,,,,,,,,,
,,,,,38,2020-07-03_15h58.53.322,retriever_ti,2020.1.3,Win32,60,Chrome,1920,1080,2197.41576,10,left,0.739175,pullover,1,2197.42302,2197.42302,2199.915515,0,1,1,1,1,6,2,1,html/resources/stimuli_practice_decision/06_pullover.jpg,html/resources/stimuli_practice_decision/04_beetle.jpg,pullover,beetle,,,,,,,,,,,,,,,,,,,,,,,,,,,,,,,,,,,,,,,,,,,,,,,,,,,,,,,,,,,,,,,,,,,,,,,,,,,,,
,,,,,38,2020-07-03_15h58.53.322,retriever_ti,2020.1.3,Win32,60,Chrome,1920,1080,2200.4159,11,right,0.86132,pullover,1,2200.423315,2200.423315,2202.916255,0,2,2,2,1,5,6,1,html/resources/stimuli_practice_decision/02_canary.jpg,html/resources/stimuli_practice_decision/06_pullover.jpg,canary,pullover,,,,,,,,,,,,,,,,,,,,,,,,,,,,,,,,,,,,,,,,,,,,,,,,,,,,,,,,,,,,,,,,,,,,,,,,,,,,,
,,,,,38,2020-07-03_15h58.53.322,retriever_ti,2020.1.3,Win32,60,Chrome,1920,1080,2203.91028,12,left,0.73405,squirrel,1,2203.92399,2203.92399,2206.41675,0,3,3,3,1,8,7,1,html/resources/stimuli_practice_decision/03_squirrel.jpg,html/resources/stimuli_practice_decision/05_glasses.jpg,squirrel,glasses,,,,,,,,,,,,,,,,,,,,,,,,,,,,,,,,,,,,,,,,,,,,,,,,,,,,,,,,,,,,,,,,,,,,,,,,,,,,,
,,,,,38,2020-07-03_15h58.53.322,retriever_ti,2020.1.3,Win32,60,Chrome,1920,1080,2207.410215,13,left,0.64242,canary,1,2207.417735,2207.417735,2209.91049,0,4,4,4,1,5,3,1,html/resources/stimuli_practice_decision/02_canary.jpg,html/resources/stimuli_practice_decision/07_sock.jpg,canary,sock,,,,,,,,,,,,,,,,,,,,,,,,,,,,,,,,,,,,,,,,,,,,,,,,,,,,,,,,,,,,,,,,,,,,,,,,,,,,,
,,,,,38,2020-07-03_15h58.53.322,retriever_ti,2020.1.3,Win32,60,Chrome,1920,1080,2210.418175,14,right,0.594365,squirrel,1,2210.42529,2210.42529,2212.91796,0,5,5,5,1,7,8,1,html/resources/stimuli_practice_decision/05_glasses.jpg,html/resources/stimuli_practice_decision/03_squirrel.jpg,glasses,squirrel,,,,,,,,,,,,,,,,,,,,,,,,,,,,,,,,,,,,,,,,,,,,,,,,,,,,,,,,,,,,,,,,,,,,,,,,,,,,,
,,,,,38,2020-07-03_15h58.53.322,retriever_ti,2020.1.3,Win32,60,Chrome,1920,1080,2213.911875,15,left,0.69912,canary,1,2213.92591,2213.92591,2216.41863,0,6,6,6,1,5,4,1,html/resources/stimuli_practice_decision/02_canary.jpg,html/resources/stimuli_practice_decision/01_rabbit.jpg,canary,rabbit,,,,,,,,,,,,,,,,,,,,,,,,,,,,,,,,,,,,,,,,,,,,,,,,,,,,,,,,,,,,,,,,,,,,,,,,,,,,,
,,,,,38,2020-07-03_15h58.53.322,retriever_ti,2020.1.3,Win32,60,Chrome,1920,1080,2217.41253,16,left,0.61889,canary,1,2217.419645,2217.419645,2219.91244,0,7,7,7,1,5,3,1,html/resources/stimuli_practice_decision/02_canary.jpg,html/resources/stimuli_practice_decision/07_sock.jpg,canary,sock,,,,,,,,,,,,,,,,,,,,,,,,,,,,,,,,,,,,,,,,,,,,,,,,,,,,,,,,,,,,,,,,,,,,,,,,,,,,,
,,,,,38,2020-07-03_15h58.53.322,retriever_ti,2020.1.3,Win32,60,Chrome,1920,1080,,,,,,,,,,,,,,,,,,,,,,left,1,1.66138,1,0,0,0,2,1,html/resources/sequences_IDs/square1.png,star ↑,triangle →,circle ↓,← square,left,,,,,,,,,,,,,,,,,,,,,,,,,,,,,,,,,,,,,,,,,,,,,,,,,,,,,,,,,,,,,,
,,,,,38,2020-07-03_15h58.53.322,retriever_ti,2020.1.3,Win32,60,Chrome,1920,1080,,,,,,,,,,,,,,,,,,,,,,down,1,1.545705,1,0,1,1,3,1,html/resources/sequences_IDs/triangle.png,star ↑,square →,triangle ↓,← circle,down,,,,,,,,,,,,,,,,,,,,,,,,,,,,,,,,,,,,,,,,,,,,,,,,,,,,,,,,,,,,,,
,,,,,38,2020-07-03_15h58.53.322,retriever_ti,2020.1.3,Win32,60,Chrome,1920,1080,,,,,,,,,,,,,,,,,,,,,,up,1,1.15733,1,0,2,2,0,1,html/resources/sequences_IDs/circle.png,circle ↑,square →,triangle ↓,← star ,up,,,,,,,,,,,,,,,,,,,,,,,,,,,,,,,,,,,,,,,,,,,,,,,,,,,,,,,,,,,,,,
,,,,,38,2020-07-03_15h58.53.322,retriever_ti,2020.1.3,Win32,60,Chrome,1920,1080,,,,,,,,,,,,,,,,,,,,,,down,1,1.441845,1,0,3,3,1,1,html/resources/sequences_IDs/star.png,square ↑,circle →,star ↓,← triangle,down,,,,,,,,,,,,,,,,,,,,,,,,,,,,,,,,,,,,,,,,,,,,,,,,,,,,,,,,,,,,,,
,,,,,38,2020-07-03_15h58.53.322,retriever_ti,2020.1.3,Win32,60,Chrome,1920,1080,,,,,,,,,,,,,,,,,,,,,,,,,,,,,,,,,,,,,0,13.15061,1,0,1,0,1,,,,,,,,,,,,,,,,,,,,,,,,,,,,,,,,,,,,,,,,,,,,,,,,,,,,,,,
,,,,,38,2020-07-03_15h58.53.322,retriever_ti,2020.1.3,Win32,60,Chrome,1920,1080,,,,,,,,,,,,,,,,,1,,,,,,,,,,,,,,,,,,,,,,,,,,,2253.49767,1,right,0.8398,camel         ,1,3,-6,0,3,2253.51449,2253.51449,2256.003025,0,0,0,0,1,1,7,1,calculator    ,camel         ,html/resources/sequences_IDs/A/09_calculator.jpg,html/resources/sequences_IDs/A/03_camel.jpg,9,3,4,2,1,1,8,3,0,38,,,,,,,,,,,,,,,,,,,,
,,,,,38,2020-07-03_15h58.53.322,retriever_ti,2020.1.3,Win32,60,Chrome,1920,1080,,,,,,,,,,,,,,,,,1,,,,,,,,,,,,,,,,,,,,,,,,,,,2256.607755,2,right,0.62896,wolf          ,5,1,-3,0,3,2256.62128,2256.62128,2259.1143,0,1,1,1,1,2,8,5,sport_tshirt,wolf          ,html/resources/sequences_IDs/B/07_sport_tshirt.jpg,html/resources/sequences_IDs/A/01_wolf.jpg,7,1,3,2,1,1,6,1,0,38,,,,,,,,,,,,,,,,,,,,
,,,,,38,2020-07-03_15h58.53.322,retriever_ti,2020.1.3,Win32,60,Chrome,1920,1080,,,,,,,,,,,,,,,,,1,,,,,,,,,,,,,,,,,,,,,,,,,,,2259.719005,3,right,1.300995,calculator    ,7,9,-1,0,0,2259.726165,2259.726165,2262.218815,0,2,2,2,1,3,8,7,sport_tshirt,calculator    ,html/resources/sequences_IDs/B/07_sport_tshirt.jpg,html/resources/sequences_IDs/A/09_calculator.jpg,7,9,3,2,4,2,6,8,0,38,,,,,,,,,,,,,,,,,,,,
,,,,,38,2020-07-03_15h58.53.322,retriever_ti,2020.1.3,Win32,60,Chrome,1920,1080,,,,,,,,,,,,,,,,,1,,,,,,,,,,,,,,,,,,,,,,,,,,,2263.30963,4,left,0.614525,camel         ,1,3,-6,0,3,2263.32411,2263.32411,2265.816675,0,3,3,3,1,4,1,7,camel         ,calculator    ,html/resources/sequences_IDs/A/03_camel.jpg,html/resources/sequences_IDs/A/09_calculator.jpg,3,9,1,1,4,2,3,8,0,38,,,,,,,,,,,,,,,,,,,,
,,,,,38,2020-07-03_15h58.53.322,retriever_ti,2020.1.3,Win32,60,Chrome,1920,1080,,,,,,,,,,,,,,,,,1,,,,,,,,,,,,,,,,,,,,,,,,,,,2266.421705,5,right,0.57015,camel         ,1,3,-7,0,3,2266.428735,2266.428735,2268.921565,0,4,4,4,1,5,8,1,sport_tshirt,camel         ,html/resources/sequences_IDs/B/07_sport_tshirt.jpg,html/resources/sequences_IDs/A/03_camel.jpg,7,3,3,2,1,1,6,3,0,38,,,,,,,,,,,,,,,,,,,,
,,,,,38,2020-07-03_15h58.53.322,retriever_ti,2020.1.3,Win32,60,Chrome,1920,1080,,,,,,,,,,,,,,,,,1,,,,,,,,,,,,,,,,,,,,,,,,,,,2269.526165,6,left,1.04458,gloves      ,4,6,-4,0,3,2269.5407,2269.5407,2272.03316,0,5,5,5,1,6,4,8,gloves      ,sport_tshirt,html/resources/sequences_IDs/B/06_gloves.jpg,html/resources/sequences_IDs/B/07_sport_tshirt.jpg,6,7,3,2,3,2,5,6,0,38,,,,,,,,,,,,,,,,,,,,
,,,,,38,2020-07-03_15h58.53.322,retriever_ti,2020.1.3,Win32,60,Chrome,1920,1080,,,,,,,,,,,,,,,,,1,,,,,,,,,,,,,,,,,,,,,,,,,,,2272.638175,7,left,0.52423,camel         ,1,3,-1,0,0,2272.645135,2272.645135,2275.13788,0,6,6,6,1,7,1,2,camel         ,holdfast    ,html/resources/sequences_IDs/A/03_camel.jpg,html/resources/sequences_IDs/B/04_holdfast.jpg,3,4,1,1,2,1,3,4,0,38,,,,,,,,,,,,,,,,,,,,
,,,,,38,2020-07-03_15h58.53.322,retriever_ti,2020.1.3,Win32,60,Chrome,1920,1080,,,,,,,,,,,,,,,,,1,,,,,,,,,,,,,,,,,,,,,,,,,,,2276.22862,8,right,0.817435,holdfast    ,2,4,-1,0,0,2276.24313,2276.24313,2278.735765,0,7,7,7,1,8,3,2,hat           ,holdfast    ,html/resources/sequences_IDs/A/08_hat.jpg,html/resources/sequences_IDs/B/04_holdfast.jpg,8,4,3,2,2,1,7,4,0,38,,,,,,,,,,,,,,,,,,,,
,,,,,38,2020-07-03_15h58.53.322,retriever_ti,2020.1.3,Win32,60,Chrome,1920,1080,,,,,,,,,,,,,,,,,1,,,,,,,,,,,,,,,,,,,,,,,,,,,2279.826915,9,right,0.696385,dolphin     ,6,2,-1,0,0,2279.84099,2279.84099,2282.335475,0,8,8,8,1,9,7,6,calculator    ,dolphin     ,html/resources/sequences_IDs/A/09_calculator.jpg,html/resources/sequences_IDs/B/02_dolphin.jpg,9,2,4,2,1,1,8,2,0,38,,,,,,,,,,,,,,,,,,,,
,,,,,38,2020-07-03_15h58.53.322,retriever_ti,2020.1.3,Win32,60,Chrome,1920,1080,,,,,,,,,,,,,,,,,1,,,,,,,,,,,,,,,,,,,,,,,,,,,2283.42441,10,left,0.765785,holdfast    ,2,4,-2,0,3,2283.438955,2283.438955,2285.931555,0,9,9,9,1,10,2,4,holdfast    ,gloves      ,html/resources/sequences_IDs/B/04_holdfast.jpg,html/resources/sequences_IDs/B/06_gloves.jpg,4,6,2,1,3,2,4,5,0,38,,,,,,,,,,,,,,,,,,,,
,,,,,38,2020-07-03_15h58.53.322,retriever_ti,2020.1.3,Win32,60,Chrome,1920,1080,,,,,,,,,,,,,,,,,1,,,,,,,,,,,,,,,,,,,,,,,,,,,2286.536545,11,left,0.719825,dolphin     ,6,2,-1,0,0,2286.543675,2286.543675,2289.03636,0,10,10,10,1,11,6,7,dolphin     ,calculator    ,html/resources/sequences_IDs/B/02_dolphin.jpg,html/resources/sequences_IDs/A/09_calculator.jpg,2,9,1,1,4,2,2,8,0,38,,,,,,,,,,,,,,,,,,,,
,,,,,38,2020-07-03_15h58.53.322,retriever_ti,2020.1.3,Win32,60,Chrome,1920,1080,,,,,,,,,,,,,,,,,1,,,,,,,,,,,,,,,,,,,,,,,,,,,2290.12717,12,right,0.599705,wolf          ,5,1,2,1,3,2290.141705,2290.141705,2292.63426,0,11,11,11,1,12,3,5,hat           ,wolf          ,html/resources/sequences_IDs/A/08_hat.jpg,html/resources/sequences_IDs/A/01_wolf.jpg,8,1,3,2,1,1,7,1,0,38,,,,,,,,,,,,,,,,,,,,
,,,,,38,2020-07-03_15h58.53.322,retriever_ti,2020.1.3,Win32,60,Chrome,1920,1080,,,,,,,,,,,,,,,,,1,,,,,,,,,,,,,,,,,,,,,,,,,,,2293.23938,13,left,0.6091,wolf          ,5,1,3,1,3,2293.253375,2293.253375,2295.74588,0,12,12,12,1,13,5,2,wolf          ,holdfast    ,html/resources/sequences_IDs/A/01_wolf.jpg,html/resources/sequences_IDs/B/04_holdfast.jpg,1,4,1,1,2,1,1,4,0,38,,,,,,,,,,,,,,,,,,,,
,,,,,38,2020-07-03_15h58.53.322,retriever_ti,2020.1.3,Win32,60,Chrome,1920,1080,,,,,,,,,,,,,,,,,1,,,,,,,,,,,,,,,,,,,,,,,,,,,2296.35054,14,left,0.61563,holdfast    ,2,4,-6,0,3,2296.35804,2296.35804,2298.850685,0,13,13,13,1,14,2,8,holdfast    ,sport_tshirt,html/resources/sequences_IDs/B/04_holdfast.jpg,html/resources/sequences_IDs/B/07_sport_tshirt.jpg,4,7,2,1,3,2,4,6,0,38,,,,,,,,,,,,,,,,,,,,
,,,,,38,2020-07-03_15h58.53.322,retriever_ti,2020.1.3,Win32,60,Chrome,1920,1080,,,,,,,,,,,,,,,,,1,,,,,,,,,,,,,,,,,,,,,,,,,,,2299.45564,15,left,0.68957,sport_tshirt,8,7,5,1,3,2299.469605,2299.469605,2301.96228,0,14,14,14,1,15,8,3,sport_tshirt,hat           ,html/resources/sequences_IDs/B/07_sport_tshirt.jpg,html/resources/sequences_IDs/A/08_hat.jpg,7,8,3,2,3,2,6,7,0,38,,,,,,,,,,,,,,,,,,,,
,,,,,38,2020-07-03_15h58.53.322,retriever_ti,2020.1.3,Win32,60,Chrome,1920,1080,,,,,,,,,,,,,,,,,1,,,,,,,,,,,,,,,,,,,,,,,,,,,2302.56696,16,right,0.626925,sport_tshirt,8,7,5,1,3,2302.581545,2302.581545,2305.07405,0,15,15,15,1,16,3,8,hat           ,sport_tshirt,html/resources/sequences_IDs/A/08_hat.jpg,html/resources/sequences_IDs/B/07_sport_tshirt.jpg,8,7,3,2,3,2,7,6,0,38,,,,,,,,,,,,,,,,,,,,
,,,,,38,2020-07-03_15h58.53.322,retriever_ti,2020.1.3,Win32,60,Chrome,1920,1080,,,,,,,,,,,,,,,,,1,,,,,,,,,,,,,,,,,,,,,,,,,,,2305.6789,17,left,0.63868,wolf          ,5,1,-1,0,0,2305.693005,2305.693005,2308.1857,0,16,16,16,1,17,5,6,wolf          ,dolphin     ,html/resources/sequences_IDs/A/01_wolf.jpg,html/resources/sequences_IDs/B/02_dolphin.jpg,1,2,1,1,1,1,1,2,0,38,,,,,,,,,,,,,,,,,,,,
,,,,,38,2020-07-03_15h58.53.322,retriever_ti,2020.1.3,Win32,60,Chrome,1920,1080,,,,,,,,,,,,,,,,,1,,,,,,,,,,,,,,,,,,,,,,,,,,,2309.27651,18,left,0.9456,dolphin     ,6,2,4,1,3,2309.284075,2309.284075,2311.776795,0,17,17,17,1,18,6,2,dolphin     ,holdfast    ,html/resources/sequences_IDs/B/02_dolphin.jpg,html/resources/sequences_IDs/B/04_holdfast.jpg,2,4,1,1,2,1,2,4,0,38,,,,,,,,,,,,,,,,,,,,
,,,,,38,2020-07-03_15h58.53.322,retriever_ti,2020.1.3,Win32,60,Chrome,1920,1080,,,,,,,,,,,,,,,,,1,,,,,,,,,,,,,,,,,,,,,,,,,,,2312.381605,19,right,0.915225,camel         ,1,3,-5,0,3,2312.395695,2312.395695,2314.888395,0,18,18,18,1,19,6,1,dolphin     ,camel         ,html/resources/sequences_IDs/B/02_dolphin.jpg,html/resources/sequences_IDs/A/03_camel.jpg,2,3,1,1,1,1,2,3,0,38,,,,,,,,,,,,,,,,,,,,
,,,,,38,2020-07-03_15h58.53.322,retriever_ti,2020.1.3,Win32,60,Chrome,1920,1080,,,,,,,,,,,,,,,,,1,,,,,,,,,,,,,,,,,,,,,,,,,,,2315.492995,20,right,0.973185,gloves      ,4,6,1,1,1,2315.50037,2315.50037,2317.99322,0,19,19,19,1,20,3,4,hat           ,gloves      ,html/resources/sequences_IDs/A/08_hat.jpg,html/resources/sequences_IDs/B/06_gloves.jpg,8,6,3,2,3,2,7,5,0,38,,,,,,,,,,,,,,,,,,,,
,,,,,38,2020-07-03_15h58.53.322,retriever_ti,2020.1.3,Win32,60,Chrome,1920,1080,,,,,,,,,,,,,,,,,1,,,,,,,,,,,,,,,,,,,,,,,,,,,2319.08442,21,right,0.64164,gloves      ,4,6,3,1,3,2319.09128,2319.09128,2321.584065,0,20,20,20,1,21,1,4,camel         ,gloves      ,html/resources/sequences_IDs/A/03_camel.jpg,html/resources/sequences_IDs/B/06_gloves.jpg,3,6,1,1,3,2,3,5,0,38,,,,,,,,,,,,,,,,,,,,
,,,,,38,2020-07-03_15h58.53.322,retriever_ti,2020.1.3,Win32,60,Chrome,1920,1080,,,,,,,,,,,,,,,,,1,,,,,,,,,,,,,,,,,,,,,,,,,,,2322.188675,22,right,0.785645,dolphin     ,6,2,-1,0,0,2322.203175,2322.203175,2324.69573,0,21,21,21,1,22,7,6,calculator    ,dolphin     ,html/resources/sequences_IDs/A/09_calculator.jpg,html/resources/sequences_IDs/B/02_dolphin.jpg,9,2,4,2,1,1,8,2,0,38,,,,,,,,,,,,,,,,,,,,
,,,,,38,2020-07-03_15h58.53.322,retriever_ti,2020.1.3,Win32,60,Chrome,1920,1080,,,,,,,,,,,,,,,,,1,,,,,,,,,,,,,,,,,,,,,,,,,,,2325.787005,23,left,0.514845,camel         ,1,3,-1,0,0,2325.801045,2325.801045,2328.293735,0,22,22,22,1,23,1,2,camel         ,holdfast    ,html/resources/sequences_IDs/A/03_camel.jpg,html/resources/sequences_IDs/B/04_holdfast.jpg,3,4,1,1,2,1,3,4,0,38,,,,,,,,,,,,,,,,,,,,
,,,,,38,2020-07-03_15h58.53.322,retriever_ti,2020.1.3,Win32,60,Chrome,1920,1080,,,,,,,,,,,,,,,,,1,,,,,,,,,,,,,,,,,,,,,,,,,,,2329.38457,24,right,0.56208,gloves      ,4,6,-4,0,3,2329.398845,2329.398845,2331.891695,0,23,23,23,1,24,8,4,sport_tshirt,gloves      ,html/resources/sequences_IDs/B/07_sport_tshirt.jpg,html/resources/sequences_IDs/B/06_gloves.jpg,7,6,3,2,3,2,6,5,0,38,,,,,,,,,,,,,,,,,,,,
,,,,,38,2020-07-03_15h58.53.322,retriever_ti,2020.1.3,Win32,60,Chrome,1920,1080,,,,,,,,,,,,,,,,,1,,,,,,,,,,,,,,,,,,,,,,,,,,,2332.496775,25,left,0.599525,gloves      ,4,6,2,1,3,2332.5039,2332.5039,2334.99623,0,24,24,24,1,25,4,2,gloves      ,holdfast    ,html/resources/sequences_IDs/B/06_gloves.jpg,html/resources/sequences_IDs/B/04_holdfast.jpg,6,4,3,2,2,1,5,4,0,38,,,,,,,,,,,,,,,,,,,,
,,,,,38,2020-07-03_15h58.53.322,retriever_ti,2020.1.3,Win32,60,Chrome,1920,1080,,,,,,,,,,,,,,,,,1,,,,,,,,,,,,,,,,,,,,,,,,,,,2335.60098,26,left,0.653345,gloves      ,4,6,-3,0,3,2335.60839,2335.60839,2338.101145,0,25,25,25,1,26,4,7,gloves      ,calculator    ,html/resources/sequences_IDs/B/06_gloves.jpg,html/resources/sequences_IDs/A/09_calculator.jpg,6,9,3,2,4,2,5,8,0,38,,,,,,,,,,,,,,,,,,,,
,,,,,38,2020-07-03_15h58.53.322,retriever_ti,2020.1.3,Win32,60,Chrome,1920,1080,,,,,,,,,,,,,,,,,1,,,,,,,,,,,,,,,,,,,,,,,,,,,2338.70607,27,right,0.549435,wolf          ,5,1,1,1,1,2338.71293,2338.71293,2341.205765,0,26,26,26,1,27,4,5,gloves      ,wolf          ,html/resources/sequences_IDs/B/06_gloves.jpg,html/resources/sequences_IDs/A/01_wolf.jpg,6,1,3,2,1,1,5,1,0,38,,,,,,,,,,,,,,,,,,,,
,,,,,38,2020-07-03_15h58.53.322,retriever_ti,2020.1.3,Win32,60,Chrome,1920,1080,,,,,,,,,,,,,,,,,1,,,,,,,,,,,,,,,,,,,,,,,,,,,2342.296635,28,right,0.58529,dolphin     ,6,2,2,1,3,2342.303905,2342.303905,2344.79669,0,27,27,27,1,28,4,6,gloves      ,dolphin     ,html/resources/sequences_IDs/B/06_gloves.jpg,html/resources/sequences_IDs/B/02_dolphin.jpg,6,2,3,2,1,1,5,2,0,38,,,,,,,,,,,,,,,,,,,,
,,,,,38,2020-07-03_15h58.53.322,retriever_ti,2020.1.3,Win32,60,Chrome,1920,1080,,,,,,,,,,,,,,,,,1,,,,,,,,,,,,,,,,,,,,,,,,,,,2345.401795,29,right,0.636435,wolf          ,5,1,3,1,3,2345.40868,2345.40868,2347.90161,0,28,28,28,1,29,2,5,holdfast    ,wolf          ,html/resources/sequences_IDs/B/04_holdfast.jpg,html/resources/sequences_IDs/A/01_wolf.jpg,4,1,2,1,1,1,4,1,0,38,,,,,,,,,,,,,,,,,,,,
,,,,,38,2020-07-03_15h58.53.322,retriever_ti,2020.1.3,Win32,60,Chrome,1920,1080,,,,,,,,,,,,,,,,,1,,,,,,,,,,,,,,,,,,,,,,,,,,,2348.506055,30,left,0.7137,dolphin     ,6,2,3,1,3,2348.513555,2348.513555,2351.00638,0,29,29,29,1,30,6,3,dolphin     ,hat           ,html/resources/sequences_IDs/B/02_dolphin.jpg,html/resources/sequences_IDs/A/08_hat.jpg,2,8,1,1,3,2,2,7,0,38,,,,,,,,,,,,,,,,,,,,
,,,,,38,2020-07-03_15h58.53.322,retriever_ti,2020.1.3,Win32,60,Chrome,1920,1080,,,,,,,,,,,,,,,,,1,,,,,,,,,,,,,,,,,,,,,,,,,,,2351.611205,31,left,0.5099,holdfast    ,2,4,-1,0,0,2351.6182,2351.6182,2354.11103,0,30,30,30,1,31,2,3,holdfast    ,hat           ,html/resources/sequences_IDs/B/04_holdfast.jpg,html/resources/sequences_IDs/A/08_hat.jpg,4,8,2,1,3,2,4,7,0,38,,,,,,,,,,,,,,,,,,,,
,,,,,38,2020-07-03_15h58.53.322,retriever_ti,2020.1.3,Win32,60,Chrome,1920,1080,,,,,,,,,,,,,,,,,1,,,,,,,,,,,,,,,,,,,,,,,,,,,2355.201945,32,right,0.86147,hat           ,3,8,-1,0,0,2355.216215,2355.216215,2357.70885,0,31,31,31,1,32,4,3,gloves      ,hat           ,html/resources/sequences_IDs/B/06_gloves.jpg,html/resources/sequences_IDs/A/08_hat.jpg,6,8,3,2,3,2,5,7,0,38,,,,,,,,,,,,,,,,,,,,
,,,,,38,2020-07-03_15h58.53.322,retriever_ti,2020.1.3,Win32,60,Chrome,1920,1080,,,,,,,,,,,,,,,,,1,,,,,,,,,,,,,,,,,,,,,,,,,,,2358.800095,33,left,0.56023,hat           ,3,8,-1,0,0,2358.814265,2358.814265,2361.30675,0,32,32,32,1,33,3,4,hat           ,gloves      ,html/resources/sequences_IDs/A/08_hat.jpg,html/resources/sequences_IDs/B/06_gloves.jpg,8,6,3,2,3,2,7,5,0,38,,,,,,,,,,,,,,,,,,,,
,,,,,38,2020-07-03_15h58.53.322,retriever_ti,2020.1.3,Win32,60,Chrome,1920,1080,,,,,,,,,,,,,,,,,1,,,,,,,,,,,,,,,,,,,,,,,,,,,2362.3975,34,left,0.86467,dolphin     ,6,2,1,1,0,2362.40523,2362.40523,2364.897835,0,33,33,33,1,34,6,5,dolphin     ,wolf          ,html/resources/sequences_IDs/B/02_dolphin.jpg,html/resources/sequences_IDs/A/01_wolf.jpg,2,1,1,1,1,1,2,1,1,38,,,,,,,,,,,,,,,,,,,,
,,,,,38,2020-07-03_15h58.53.322,retriever_ti,2020.1.3,Win32,60,Chrome,1920,1080,,,,,,,,,,,,,,,,,1,,,,,,,,,,,,,,,,,,,,,,,,,,,2365.98891,35,left,0.68915,camel         ,1,3,-4,0,3,2365.995815,2365.995815,2368.488655,0,34,34,34,1,35,1,5,camel         ,wolf          ,html/resources/sequences_IDs/A/03_camel.jpg,html/resources/sequences_IDs/A/01_wolf.jpg,3,1,1,1,1,1,3,1,0,38,,,,,,,,,,,,,,,,,,,,
,,,,,38,2020-07-03_15h58.53.322,retriever_ti,2020.1.3,Win32,60,Chrome,1920,1080,,,,,,,,,,,,,,,,,1,,,,,,,,,,,,,,,,,,,,,,,,,,,2369.093315,36,left,0.63626,holdfast    ,2,4,-5,0,3,2369.1007,2369.1007,2371.5934,0,35,35,35,1,36,2,7,holdfast    ,calculator    ,html/resources/sequences_IDs/B/04_holdfast.jpg,html/resources/sequences_IDs/A/09_calculator.jpg,4,9,2,1,4,2,4,8,0,38,,,,,,,,,,,,,,,,,,,,
,,,,,38,2020-07-03_15h58.53.322,retriever_ti,2020.1.3,Win32,60,Chrome,1920,1080,,,,,,,,,,,,,,,,,1,,,,,,,,,,,,,,,,,,,,,,,,,,,2372.198405,37,right,0.56069,sport_tshirt,8,7,1,1,1,2372.205355,2372.205355,2374.698135,0,36,36,36,1,37,7,8,calculator    ,sport_tshirt,html/resources/sequences_IDs/A/09_calculator.jpg,html/resources/sequences_IDs/B/07_sport_tshirt.jpg,9,7,4,2,3,2,8,6,0,38,,,,,,,,,,,,,,,,,,,,
,,,,,38,2020-07-03_15h58.53.322,retriever_ti,2020.1.3,Win32,60,Chrome,1920,1080,,,,,,,,,,,,,,,,,1,,,,,,,,,,,,,,,,,,,,,,,,,,,2375.789295,38,left,0.620795,hat           ,3,8,1,1,1,2375.79686,2375.79686,2378.289145,0,37,37,37,1,38,3,2,hat           ,holdfast    ,html/resources/sequences_IDs/A/08_hat.jpg,html/resources/sequences_IDs/B/04_holdfast.jpg,8,4,3,2,2,1,7,4,0,38,,,,,,,,,,,,,,,,,,,,
,,,,,38,2020-07-03_15h58.53.322,retriever_ti,2020.1.3,Win32,60,Chrome,1920,1080,,,,,,,,,,,,,,,,,1,,,,,,,,,,,,,,,,,,,,,,,,,,,2379.380285,39,left,0.945495,sport_tshirt,8,7,2,1,3,2379.38734,2379.38734,2381.880085,0,38,38,38,1,39,8,6,sport_tshirt,dolphin     ,html/resources/sequences_IDs/B/07_sport_tshirt.jpg,html/resources/sequences_IDs/B/02_dolphin.jpg,7,2,3,2,1,1,6,2,0,38,,,,,,,,,,,,,,,,,,,,
,,,,,38,2020-07-03_15h58.53.322,retriever_ti,2020.1.3,Win32,60,Chrome,1920,1080,,,,,,,,,,,,,,,,,1,,,,,,,,,,,,,,,,,,,,,,,,,,,2382.48466,40,left,1.113025,hat           ,3,8,-1,0,1,2382.499025,2382.499025,2384.991735,0,39,39,39,1,40,3,4,hat           ,gloves      ,html/resources/sequences_IDs/A/08_hat.jpg,html/resources/sequences_IDs/B/06_gloves.jpg,8,6,3,2,3,2,7,5,1,38,,,,,,,,,,,,,,,,,,,,
,,,,,38,2020-07-03_15h58.53.322,retriever_ti,2020.1.3,Win32,60,Chrome,1920,1080,,,,,,,,,,,,,,,,,1,,,,,,,,,,,,,,,,,,,,,,,,,,,2386.08453,41,left,1.01151,holdfast    ,2,4,1,1,1,2386.09017,2386.09017,2388.58272,0,40,40,40,1,41,2,1,holdfast    ,camel         ,html/resources/sequences_IDs/B/04_holdfast.jpg,html/resources/sequences_IDs/A/03_camel.jpg,4,3,2,1,1,1,4,3,0,38,,,,,,,,,,,,,,,,,,,,
,,,,,38,2020-07-03_15h58.53.322,retriever_ti,2020.1.3,Win32,60,Chrome,1920,1080,,,,,,,,,,,,,,,,,1,,,,,,,,,,,,,,,,,,,,,,,,,,,2389.673525,42,right,1.06649,calculator    ,7,9,1,1,1,2389.681035,2389.681035,2392.17363,0,41,41,41,1,42,6,7,dolphin     ,calculator    ,html/resources/sequences_IDs/B/02_dolphin.jpg,html/resources/sequences_IDs/A/09_calculator.jpg,2,9,1,1,4,2,2,8,0,38,,,,,,,,,,,,,,,,,,,,
,,,,,38,2020-07-03_15h58.53.322,retriever_ti,2020.1.3,Win32,60,Chrome,1920,1080,,,,,,,,,,,,,,,,,1,,,,,,,,,,,,,,,,,,,,,,,,,,,2393.26486,43,right,0.98399,calculator    ,7,9,-1,0,0,2393.27878,2393.27878,2395.771495,0,42,42,42,1,43,8,7,sport_tshirt,calculator    ,html/resources/sequences_IDs/B/07_sport_tshirt.jpg,html/resources/sequences_IDs/A/09_calculator.jpg,7,9,3,2,4,2,6,8,0,38,,,,,,,,,,,,,,,,,,,,
,,,,,38,2020-07-03_15h58.53.322,retriever_ti,2020.1.3,Win32,60,Chrome,1920,1080,,,,,,,,,,,,,,,,,1,,,,,,,,,,,,,,,,,,,,,,,,,,,2396.86241,44,left,0.739985,holdfast    ,2,4,1,1,0,2396.869755,2396.869755,2399.362425,0,43,43,43,1,44,2,1,holdfast    ,camel         ,html/resources/sequences_IDs/B/04_holdfast.jpg,html/resources/sequences_IDs/A/03_camel.jpg,4,3,2,1,1,1,4,3,1,38,,,,,,,,,,,,,,,,,,,,
,,,,,38,2020-07-03_15h58.53.322,retriever_ti,2020.1.3,Win32,60,Chrome,1920,1080,,,,,,,,,,,,,,,,,1,,,,,,,,,,,,,,,,,,,,,,,,,,,2400.45364,45,left,0.63768,dolphin     ,6,2,1,1,1,2400.46089,2400.46089,2402.95341,0,44,44,44,1,45,6,5,dolphin     ,wolf          ,html/resources/sequences_IDs/B/02_dolphin.jpg,html/resources/sequences_IDs/A/01_wolf.jpg,2,1,1,1,1,1,2,1,0,38,,,,,,,,,,,,,,,,,,,,
,,,,,38,2020-07-03_15h58.53.322,retriever_ti,2020.1.3,Win32,60,Chrome,1920,1080,,,,,,,,,,,,,,,,,1,,,,,,,,,,,,,,,,,,,,,,,,,,,2404.04434,46,left,0.559435,gloves      ,4,6,1,1,1,2404.051755,2404.051755,2406.544315,0,45,45,45,1,46,4,3,gloves      ,hat           ,html/resources/sequences_IDs/B/06_gloves.jpg,html/resources/sequences_IDs/A/08_hat.jpg,6,8,3,2,3,2,5,7,0,38,,,,,,,,,,,,,,,,,,,,
,,,,,38,2020-07-03_15h58.53.322,retriever_ti,2020.1.3,Win32,60,Chrome,1920,1080,,,,,,,,,,,,,,,,,1,,,,,,,,,,,,,,,,,,,,,,,,,,,2407.635445,47,left,0.56586,wolf          ,5,1,4,1,3,2407.64949,2407.64949,2410.142315,0,46,46,46,1,47,5,1,wolf          ,camel         ,html/resources/sequences_IDs/A/01_wolf.jpg,html/resources/sequences_IDs/A/03_camel.jpg,1,3,1,1,1,1,1,3,0,38,,,,,,,,,,,,,,,,,,,,
,,,,,38,2020-07-03_15h58.53.322,retriever_ti,2020.1.3,Win32,60,Chrome,1920,1080,,,,,,,,,,,,,,,,,1,,,,,,,,,,,,,,,,,,,,,,,,,,,2410.746885,48,left,0.712835,hat           ,3,8,-3,0,3,2410.761275,2410.761275,2413.254045,0,47,47,47,1,48,3,6,hat           ,dolphin     ,html/resources/sequences_IDs/A/08_hat.jpg,html/resources/sequences_IDs/B/02_dolphin.jpg,8,2,3,2,1,1,7,2,0,38,,,,,,,,,,,,,,,,,,,,
,,,,,38,2020-07-03_15h58.53.322,retriever_ti,2020.1.3,Win32,60,Chrome,1920,1080,,,,,,,,,,,,,,,,,1,,,,,,,,,,,,,,,,,,,,,,,,,,,2413.85895,49,right,0.602875,hat           ,3,8,2,1,3,2413.872955,2413.872955,2416.36571,0,48,48,48,1,49,1,3,camel         ,hat           ,html/resources/sequences_IDs/A/03_camel.jpg,html/resources/sequences_IDs/A/08_hat.jpg,3,8,1,1,3,2,3,7,0,38,,,,,,,,,,,,,,,,,,,,
,,,,,38,2020-07-03_15h58.53.322,retriever_ti,2020.1.3,Win32,60,Chrome,1920,1080,,,,,,,,,,,,,,,,,1,,,,,,,,,,,,,,,,,,,,,,,,,,,2416.97019,50,right,0.802375,wolf          ,5,1,1,1,0,2416.984765,2416.984765,2419.477465,0,49,49,49,1,50,4,5,gloves      ,wolf          ,html/resources/sequences_IDs/B/06_gloves.jpg,html/resources/sequences_IDs/A/01_wolf.jpg,6,1,3,2,1,1,5,1,1,38,,,,,,,,,,,,,,,,,,,,
,,,,,38,2020-07-03_15h58.53.322,retriever_ti,2020.1.3,Win32,60,Chrome,1920,1080,,,,,,,,,,,,,,,,,1,,,,,,,,,,,,,,,,,,,,,,,,,,,2420.568455,51,right,1.04569,wolf          ,5,1,1,1,1,2420.58258,2420.58258,2423.07528,0,50,50,50,1,51,4,5,gloves      ,wolf          ,html/resources/sequences_IDs/B/06_gloves.jpg,html/resources/sequences_IDs/A/01_wolf.jpg,6,1,3,2,1,1,5,1,0,38,,,,,,,,,,,,,,,,,,,,
,,,,,38,2020-07-03_15h58.53.322,retriever_ti,2020.1.3,Win32,60,Chrome,1920,1080,,,,,,,,,,,,,,,,,1,,,,,,,,,,,,,,,,,,,,,,,,,,,2424.1662,52,left,0.865795,wolf          ,5,1,-3,0,3,2424.173535,2424.173535,2426.66776,0,51,51,51,1,52,5,8,wolf          ,sport_tshirt,html/resources/sequences_IDs/A/01_wolf.jpg,html/resources/sequences_IDs/B/07_sport_tshirt.jpg,1,7,1,1,3,2,1,6,0,38,,,,,,,,,,,,,,,,,,,,
,,,,,38,2020-07-03_15h58.53.322,retriever_ti,2020.1.3,Win32,60,Chrome,1920,1080,,,,,,,,,,,,,,,,,1,,,,,,,,,,,,,,,,,,,,,,,,,,,2427.271185,53,left,0.738755,wolf          ,5,1,1,1,1,2427.28509,2427.28509,2429.777905,0,52,52,52,1,53,5,4,wolf          ,gloves      ,html/resources/sequences_IDs/A/01_wolf.jpg,html/resources/sequences_IDs/B/06_gloves.jpg,1,6,1,1,3,2,1,5,0,38,,,,,,,,,,,,,,,,,,,,
,,,,,38,2020-07-03_15h58.53.322,retriever_ti,2020.1.3,Win32,60,Chrome,1920,1080,,,,,,,,,,,,,,,,,1,,,,,,,,,,,,,,,,,,,,,,,,,,,2430.868725,54,left,0.781395,sport_tshirt,8,7,6,1,3,2430.876065,2430.876065,2433.368815,0,53,53,53,1,54,8,2,sport_tshirt,holdfast    ,html/resources/sequences_IDs/B/07_sport_tshirt.jpg,html/resources/sequences_IDs/B/04_holdfast.jpg,7,4,3,2,2,1,6,4,0,38,,,,,,,,,,,,,,,,,,,,
,,,,,38,2020-07-03_15h58.53.322,retriever_ti,2020.1.3,Win32,60,Chrome,1920,1080,,,,,,,,,,,,,,,,,1,,,,,,,,,,,,,,,,,,,,,,,,,,,2433.97381,55,left,0.66991,holdfast    ,2,4,-1,0,0,2433.980875,2433.980875,2436.47358,0,54,54,54,1,55,2,3,holdfast    ,hat           ,html/resources/sequences_IDs/B/04_holdfast.jpg,html/resources/sequences_IDs/A/08_hat.jpg,4,8,2,1,3,2,4,7,0,38,,,,,,,,,,,,,,,,,,,,
,,,,,38,2020-07-03_15h58.53.322,retriever_ti,2020.1.3,Win32,60,Chrome,1920,1080,,,,,,,,,,,,,,,,,1,,,,,,,,,,,,,,,,,,,,,,,,,,,2437.564355,56,right,0.71119,wolf          ,5,1,-2,0,3,2437.5718,2437.5718,2440.06469,0,55,55,55,1,56,7,5,calculator    ,wolf          ,html/resources/sequences_IDs/A/09_calculator.jpg,html/resources/sequences_IDs/A/01_wolf.jpg,9,1,4,2,1,1,8,1,0,38,,,,,,,,,,,,,,,,,,,,
,,,,,38,2020-07-03_15h58.53.322,retriever_ti,2020.1.3,Win32,60,Chrome,1920,1080,,,,,,,,,,,,,,,,,1,,,,,,,,,,,,,,,,,,,,,,,,,,,2440.66957,57,left,0.86862,holdfast    ,2,4,-4,0,3,2440.68348,2440.68348,2443.17623,0,56,56,56,1,57,2,6,holdfast    ,dolphin     ,html/resources/sequences_IDs/B/04_holdfast.jpg,html/resources/sequences_IDs/B/02_dolphin.jpg,4,2,2,1,1,1,4,2,0,38,,,,,,,,,,,,,,,,,,,,
,,,,,38,2020-07-03_15h58.53.322,retriever_ti,2020.1.3,Win32,60,Chrome,1920,1080,,,,,,,,,,,,,,,,,1,,,,,,,,,,,,,,,,,,,,,,,,,,,2443.781005,58,right,0.86789,gloves      ,4,6,-3,0,3,2443.788225,2443.788225,2446.28096,0,57,57,57,1,58,7,4,calculator    ,gloves      ,html/resources/sequences_IDs/A/09_calculator.jpg,html/resources/sequences_IDs/B/06_gloves.jpg,9,6,4,2,3,2,8,5,0,38,,,,,,,,,,,,,,,,,,,,
,,,,,38,2020-07-03_15h58.53.322,retriever_ti,2020.1.3,Win32,60,Chrome,1920,1080,,,,,,,,,,,,,,,,,1,,,,,,,,,,,,,,,,,,,,,,,,,,,2446.885985,59,left,0.6534,dolphin     ,6,2,1,1,1,2446.899985,2446.899985,2449.3927,0,58,58,58,1,59,6,5,dolphin     ,wolf          ,html/resources/sequences_IDs/B/02_dolphin.jpg,html/resources/sequences_IDs/A/01_wolf.jpg,2,1,1,1,1,1,2,1,0,38,,,,,,,,,,,,,,,,,,,,
,,,,,38,2020-07-03_15h58.53.322,retriever_ti,2020.1.3,Win32,60,Chrome,1920,1080,,,,,,,,,,,,,,,,,1,,,,,,,,,,,,,,,,,,,,,,,,,,,2450.48348,60,left,0.59868,dolphin     ,6,2,2,1,3,2450.497835,2450.497835,2452.990485,0,59,59,59,1,60,6,4,dolphin     ,gloves      ,html/resources/sequences_IDs/B/02_dolphin.jpg,html/resources/sequences_IDs/B/06_gloves.jpg,2,6,1,1,3,2,2,5,0,38,,,,,,,,,,,,,,,,,,,,
,,,,,38,2020-07-03_15h58.53.322,retriever_ti,2020.1.3,Win32,60,Chrome,1920,1080,,,,,,,,,,,,,,,,,1,,,,,,,,,,,,,,,,,,,,,,,,,,,2453.595545,61,right,0.72598,sport_tshirt,8,7,7,1,3,2453.609525,2453.609525,2456.102225,0,60,60,60,1,61,1,8,camel         ,sport_tshirt,html/resources/sequences_IDs/A/03_camel.jpg,html/resources/sequences_IDs/B/07_sport_tshirt.jpg,3,7,1,1,3,2,3,6,0,38,,,,,,,,,,,,,,,,,,,,
,,,,,38,2020-07-03_15h58.53.322,retriever_ti,2020.1.3,Win32,60,Chrome,1920,1080,,,,,,,,,,,,,,,,,1,,,,,,,,,,,,,,,,,,,,,,,,,,,2456.7068,62,left,0.690015,holdfast    ,2,4,1,1,1,2456.72116,2456.72116,2459.213915,0,61,61,61,1,62,2,1,holdfast    ,camel         ,html/resources/sequences_IDs/B/04_holdfast.jpg,html/resources/sequences_IDs/A/03_camel.jpg,4,3,2,1,1,1,4,3,0,38,,,,,,,,,,,,,,,,,,,,
,,,,,38,2020-07-03_15h58.53.322,retriever_ti,2020.1.3,Win32,60,Chrome,1920,1080,,,,,,,,,,,,,,,,,1,,,,,,,,,,,,,,,,,,,,,,,,,,,2460.30503,63,right,0.804995,camel         ,1,3,-3,0,3,2460.31224,2460.31224,2462.804895,0,62,62,62,1,63,4,1,gloves      ,camel         ,html/resources/sequences_IDs/B/06_gloves.jpg,html/resources/sequences_IDs/A/03_camel.jpg,6,3,3,2,1,1,5,3,0,38,,,,,,,,,,,,,,,,,,,,
,,,,,38,2020-07-03_15h58.53.322,retriever_ti,2020.1.3,Win32,60,Chrome,1920,1080,,,,,,,,,,,,,,,,,1,,,,,,,,,,,,,,,,,,,,,,,,,,,2463.40965,64,left,0.643015,wolf          ,5,1,-2,0,3,2463.41697,2463.41697,2465.90956,0,63,63,63,1,64,5,7,wolf          ,calculator    ,html/resources/sequences_IDs/A/01_wolf.jpg,html/resources/sequences_IDs/A/09_calculator.jpg,1,9,1,1,4,2,1,8,0,38,,,,,,,,,,,,,,,,,,,,
,,,,,38,2020-07-03_15h58.53.322,retriever_ti,2020.1.3,Win32,60,Chrome,1920,1080,,,,,,,,,,,,,,,,,1,,,,,,,,,,,,,,,,,,,,,,,,,,,2466.514605,65,right,0.94885,hat           ,3,8,-4,0,3,2466.529225,2466.529225,2469.02135,0,64,64,64,1,65,7,3,calculator    ,hat           ,html/resources/sequences_IDs/A/09_calculator.jpg,html/resources/sequences_IDs/A/08_hat.jpg,9,8,4,2,3,2,8,7,0,38,,,,,,,,,,,,,,,,,,,,
,,,,,38,2020-07-03_15h58.53.322,retriever_ti,2020.1.3,Win32,60,Chrome,1920,1080,,,,,,,,,,,,,,,,,1,,,,,,,,,,,,,,,,,,,,,,,,,,,2469.626155,66,left,0.845555,hat           ,3,8,1,1,0,2469.633735,2469.633735,2472.126015,0,65,65,65,1,66,3,2,hat           ,holdfast    ,html/resources/sequences_IDs/A/08_hat.jpg,html/resources/sequences_IDs/B/04_holdfast.jpg,8,4,3,2,2,1,7,4,1,38,,,,,,,,,,,,,,,,,,,,
,,,,,38,2020-07-03_15h58.53.322,retriever_ti,2020.1.3,Win32,60,Chrome,1920,1080,,,,,,,,,,,,,,,,,1,,,,,,,,,,,,,,,,,,,,,,,,,,,2473.21752,67,right,0.492095,dolphin     ,6,2,-1,0,1,2473.224385,2473.224385,2475.717125,0,66,66,66,1,67,7,6,calculator    ,dolphin     ,html/resources/sequences_IDs/A/09_calculator.jpg,html/resources/sequences_IDs/B/02_dolphin.jpg,9,2,4,2,1,1,8,2,1,38,,,,,,,,,,,,,,,,,,,,
,,,,,38,2020-07-03_15h58.53.322,retriever_ti,2020.1.3,Win32,60,Chrome,1920,1080,,,,,,,,,,,,,,,,,1,,,,,,,,,,,,,,,,,,,,,,,,,,,2476.80792,68,right,0.507885,camel         ,1,3,-2,0,3,2476.815205,2476.815205,2479.30789,0,67,67,67,1,68,3,1,hat           ,camel         ,html/resources/sequences_IDs/A/08_hat.jpg,html/resources/sequences_IDs/A/03_camel.jpg,8,3,3,2,1,1,7,3,0,38,,,,,,,,,,,,,,,,,,,,
,,,,,38,2020-07-03_15h58.53.322,retriever_ti,2020.1.3,Win32,60,Chrome,1920,1080,,,,,,,,,,,,,,,,,1,,,,,,,,,,,,,,,,,,,,,,,,,,,2479.912945,69,right,1.486515,dolphin     ,6,2,5,1,3,2479.920085,2479.920085,2482.41274,0,68,68,68,1,69,1,6,camel         ,dolphin     ,html/resources/sequences_IDs/A/03_camel.jpg,html/resources/sequences_IDs/B/02_dolphin.jpg,3,2,1,1,1,1,3,2,0,38,,,,,,,,,,,,,,,,,,,,
,,,,,38,2020-07-03_15h58.53.322,retriever_ti,2020.1.3,Win32,60,Chrome,1920,1080,,,,,,,,,,,,,,,,,1,,,,,,,,,,,,,,,,,,,,,,,,,,,2483.01734,70,left,0.581365,dolphin     ,6,2,-2,0,3,2483.03192,2483.03192,2485.52438,0,69,69,69,1,70,6,8,dolphin     ,sport_tshirt,html/resources/sequences_IDs/B/02_dolphin.jpg,html/resources/sequences_IDs/B/07_sport_tshirt.jpg,2,7,1,1,3,2,2,6,0,38,,,,,,,,,,,,,,,,,,,,
,,,,,38,2020-07-03_15h58.53.322,retriever_ti,2020.1.3,Win32,60,Chrome,1920,1080,,,,,,,,,,,,,,,,,1,,,,,,,,,,,,,,,,,,,,,,,,,,,2486.129575,71,right,1.315675,dolphin     ,6,2,1,1,1,2486.143535,2486.143535,2488.636095,0,70,70,70,1,71,5,6,wolf          ,dolphin     ,html/resources/sequences_IDs/A/01_wolf.jpg,html/resources/sequences_IDs/B/02_dolphin.jpg,1,2,1,1,1,1,1,2,0,38,,,,,,,,,,,,,,,,,,,,
,,,,,38,2020-07-03_15h58.53.322,retriever_ti,2020.1.3,Win32,60,Chrome,1920,1080,,,,,,,,,,,,,,,,,1,,,,,,,,,,,,,,,,,,,,,,,,,,,2489.726795,72,left,1.06104,calculator    ,7,9,-1,0,1,2489.741325,2489.741325,2492.23402,0,71,71,71,1,72,7,8,calculator    ,sport_tshirt,html/resources/sequences_IDs/A/09_calculator.jpg,html/resources/sequences_IDs/B/07_sport_tshirt.jpg,9,7,4,2,3,2,8,6,1,38,,,,,,,,,,,,,,,,,,,,
,,,,,38,2020-07-03_15h58.53.322,retriever_ti,2020.1.3,Win32,60,Chrome,1920,1080,,,,,,,,,,,,,,,,,1,,,,,,,,,,,,,,,,,,,,,,,,,,,2493.325295,73,left,0.484285,calculator    ,7,9,-1,0,0,2493.339275,2493.339275,2495.83192,0,72,72,72,1,73,7,8,calculator    ,sport_tshirt,html/resources/sequences_IDs/A/09_calculator.jpg,html/resources/sequences_IDs/B/07_sport_tshirt.jpg,9,7,4,2,3,2,8,6,0,38,,,,,,,,,,,,,,,,,,,,
,,,,,38,2020-07-03_15h58.53.322,retriever_ti,2020.1.3,Win32,60,Chrome,1920,1080,,,,,,,,,,,,,,,,,1,,,,,,,,,,,,,,,,,,,,,,,,,,,2496.92424,74,right,0.65965,holdfast    ,2,4,-5,0,3,2496.930375,2496.930375,2499.42283,0,73,73,73,1,74,7,2,calculator    ,holdfast    ,html/resources/sequences_IDs/A/09_calculator.jpg,html/resources/sequences_IDs/B/04_holdfast.jpg,9,4,4,2,2,1,8,4,0,38,,,,,,,,,,,,,,,,,,,,
,,,,,38,2020-07-03_15h58.53.322,retriever_ti,2020.1.3,Win32,60,Chrome,1920,1080,,,,,,,,,,,,,,,,,1,,,,,,,,,,,,,,,,,,,,,,,,,,,2500.027965,75,left,0.481095,wolf          ,5,1,1,1,1,2500.041775,2500.041775,2502.530675,0,74,74,74,1,75,5,4,wolf          ,gloves      ,html/resources/sequences_IDs/A/01_wolf.jpg,html/resources/sequences_IDs/B/06_gloves.jpg,1,6,1,1,3,2,1,5,0,38,,,,,,,,,,,,,,,,,,,,
,,,,,38,2020-07-03_15h58.53.322,retriever_ti,2020.1.3,Win32,60,Chrome,1920,1080,,,,,,,,,,,,,,,,,1,,,,,,,,,,,,,,,,,,,,,,,,,,,2503.625505,76,right,1.06667,calculator    ,7,9,4,1,3,2503.639945,2503.639945,2506.13253,0,75,75,75,1,76,3,7,hat           ,calculator    ,html/resources/sequences_IDs/A/08_hat.jpg,html/resources/sequences_IDs/A/09_calculator.jpg,8,9,3,2,4,2,7,8,0,38,,,,,,,,,,,,,,,,,,,,
,,,,,38,2020-07-03_15h58.53.322,retriever_ti,2020.1.3,Win32,60,Chrome,1920,1080,,,,,,,,,,,,,,,,,1,,,,,,,,,,,,,,,,,,,,,,,,,,,2506.73734,77,left,0.653735,wolf          ,5,1,2,1,3,2506.744515,2506.744515,2509.23721,0,76,76,76,1,77,5,3,wolf          ,hat           ,html/resources/sequences_IDs/A/01_wolf.jpg,html/resources/sequences_IDs/A/08_hat.jpg,1,8,1,1,3,2,1,7,0,38,,,,,,,,,,,,,,,,,,,,
,,,,,38,2020-07-03_15h58.53.322,retriever_ti,2020.1.3,Win32,60,Chrome,1920,1080,,,,,,,,,,,,,,,,,,,,,,,,,,,,,,,,,,,,,0,5.244865,,,,,,,,,,,,,,,,,,,,,,,,,,,,,,,,,,,,,,,,,0,0,0,0,1,,,,,,,,,,,,,,,
,,,,,38,2020-07-03_15h58.53.322,retriever_ti,2020.1.3,Win32,60,Chrome,1920,1080,,,,,,,,,,,,,,,,,2,,,,,,,,,,,,,,,,,,,,,,,,,,,2536.173375,78,left,0.861645,dolphin     ,6,2,-1,0,0,2536.187855,2536.187855,2538.680305,0,0,0,0,1,78,6,7,dolphin     ,calculator    ,html/resources/sequences_IDs/B/02_dolphin.jpg,html/resources/sequences_IDs/A/09_calculator.jpg,2,9,1,1,4,2,2,8,0,38,,,,,,,,,,,,,,,,,,,,
,,,,,38,2020-07-03_15h58.53.322,retriever_ti,2020.1.3,Win32,60,Chrome,1920,1080,,,,,,,,,,,,,,,,,2,,,,,,,,,,,,,,,,,,,,,,,,,,,2539.77145,79,right,0.736525,holdfast    ,2,4,1,1,1,2539.778455,2539.778455,2542.271165,0,1,1,1,1,79,1,2,camel         ,holdfast    ,html/resources/sequences_IDs/A/03_camel.jpg,html/resources/sequences_IDs/B/04_holdfast.jpg,3,4,1,1,2,1,3,4,0,38,,,,,,,,,,,,,,,,,,,,
,,,,,38,2020-07-03_15h58.53.322,retriever_ti,2020.1.3,Win32,60,Chrome,1920,1080,,,,,,,,,,,,,,,,,2,,,,,,,,,,,,,,,,,,,,,,,,,,,2543.361915,80,left,0.693995,gloves      ,4,6,-3,0,3,2543.376235,2543.376235,2545.86903,0,2,2,2,1,80,4,7,gloves      ,calculator    ,html/resources/sequences_IDs/B/06_gloves.jpg,html/resources/sequences_IDs/A/09_calculator.jpg,6,9,3,2,4,2,5,8,0,38,,,,,,,,,,,,,,,,,,,,
,,,,,38,2020-07-03_15h58.53.322,retriever_ti,2020.1.3,Win32,60,Chrome,1920,1080,,,,,,,,,,,,,,,,,2,,,,,,,,,,,,,,,,,,,,,,,,,,,2546.474115,81,left,0.62918,holdfast    ,2,4,-5,0,3,2546.4882,2546.4882,2548.980755,0,3,3,3,1,81,2,7,holdfast    ,calculator    ,html/resources/sequences_IDs/B/04_holdfast.jpg,html/resources/sequences_IDs/A/09_calculator.jpg,4,9,2,1,4,2,4,8,0,38,,,,,,,,,,,,,,,,,,,,
,,,,,38,2020-07-03_15h58.53.322,retriever_ti,2020.1.3,Win32,60,Chrome,1920,1080,,,,,,,,,,,,,,,,,2,,,,,,,,,,,,,,,,,,,,,,,,,,,2549.585525,82,right,0.58523,camel         ,1,3,-4,0,3,2549.593215,2549.593215,2552.085645,0,4,4,4,1,82,5,1,wolf          ,camel         ,html/resources/sequences_IDs/A/01_wolf.jpg,html/resources/sequences_IDs/A/03_camel.jpg,1,3,1,1,1,1,1,3,0,38,,,,,,,,,,,,,,,,,,,,
,,,,,38,2020-07-03_15h58.53.322,retriever_ti,2020.1.3,Win32,60,Chrome,1920,1080,,,,,,,,,,,,,,,,,2,,,,,,,,,,,,,,,,,,,,,,,,,,,2552.69043,83,left,0.61601,hat           ,3,8,-1,0,0,2552.70458,2552.70458,2555.1973,0,5,5,5,1,83,3,4,hat           ,gloves      ,html/resources/sequences_IDs/A/08_hat.jpg,html/resources/sequences_IDs/B/06_gloves.jpg,8,6,3,2,3,2,7,5,0,38,,,,,,,,,,,,,,,,,,,,
,,,,,38,2020-07-03_15h58.53.322,retriever_ti,2020.1.3,Win32,60,Chrome,1920,1080,,,,,,,,,,,,,,,,,2,,,,,,,,,,,,,,,,,,,,,,,,,,,2556.28802,84,left,0.63265,gloves      ,4,6,1,1,1,2556.29544,2556.29544,2558.788125,0,6,6,6,1,84,4,3,gloves      ,hat           ,html/resources/sequences_IDs/B/06_gloves.jpg,html/resources/sequences_IDs/A/08_hat.jpg,6,8,3,2,3,2,5,7,0,38,,,,,,,,,,,,,,,,,,,,
,,,,,38,2020-07-03_15h58.53.322,retriever_ti,2020.1.3,Win32,60,Chrome,1920,1080,,,,,,,,,,,,,,,,,2,,,,,,,,,,,,,,,,,,,,,,,,,,,2559.87927,85,left,0.810135,holdfast    ,2,4,-6,0,3,2559.88628,2559.88628,2562.379205,0,7,7,7,1,85,2,8,holdfast    ,sport_tshirt,html/resources/sequences_IDs/B/04_holdfast.jpg,html/resources/sequences_IDs/B/07_sport_tshirt.jpg,4,7,2,1,3,2,4,6,0,38,,,,,,,,,,,,,,,,,,,,
,,,,,38,2020-07-03_15h58.53.322,retriever_ti,2020.1.3,Win32,60,Chrome,1920,1080,,,,,,,,,,,,,,,,,2,,,,,,,,,,,,,,,,,,,,,,,,,,,2562.983805,86,left,0.429055,camel         ,1,3,-6,0,3,2562.998135,2562.998135,2565.49078,0,8,8,8,1,86,1,7,camel         ,calculator    ,html/resources/sequences_IDs/A/03_camel.jpg,html/resources/sequences_IDs/A/09_calculator.jpg,3,9,1,1,4,2,3,8,0,38,,,,,,,,,,,,,,,,,,,,
,,,,,38,2020-07-03_15h58.53.322,retriever_ti,2020.1.3,Win32,60,Chrome,1920,1080,,,,,,,,,,,,,,,,,2,,,,,,,,,,,,,,,,,,,,,,,,,,,2566.09577,87,left,0.443255,dolphin     ,6,2,-1,0,1,2566.10269,2566.10269,2568.59542,0,9,9,9,1,87,6,7,dolphin     ,calculator    ,html/resources/sequences_IDs/B/02_dolphin.jpg,html/resources/sequences_IDs/A/09_calculator.jpg,2,9,1,1,4,2,2,8,1,38,,,,,,,,,,,,,,,,,,,,
,,,,,38,2020-07-03_15h58.53.322,retriever_ti,2020.1.3,Win32,60,Chrome,1920,1080,,,,,,,,,,,,,,,,,2,,,,,,,,,,,,,,,,,,,,,,,,,,,2569.68622,88,right,0.63901,holdfast    ,2,4,-1,0,0,2569.70066,2569.70066,2572.193325,0,10,10,10,1,88,3,2,hat           ,holdfast    ,html/resources/sequences_IDs/A/08_hat.jpg,html/resources/sequences_IDs/B/04_holdfast.jpg,8,4,3,2,2,1,7,4,0,38,,,,,,,,,,,,,,,,,,,,
,,,,,38,2020-07-03_15h58.53.322,retriever_ti,2020.1.3,Win32,60,Chrome,1920,1080,,,,,,,,,,,,,,,,,2,,,,,,,,,,,,,,,,,,,,,,,,,,,2573.2845,89,right,1.041755,wolf          ,5,1,-3,0,3,2573.29165,2573.29165,2575.78453,0,11,11,11,1,89,8,5,sport_tshirt,wolf          ,html/resources/sequences_IDs/B/07_sport_tshirt.jpg,html/resources/sequences_IDs/A/01_wolf.jpg,7,1,3,2,1,1,6,1,0,38,,,,,,,,,,,,,,,,,,,,
,,,,,38,2020-07-03_15h58.53.322,retriever_ti,2020.1.3,Win32,60,Chrome,1920,1080,,,,,,,,,,,,,,,,,2,,,,,,,,,,,,,,,,,,,,,,,,,,,2576.389055,90,left,1.07364,wolf          ,5,1,1,1,1,2576.403325,2576.403325,2578.89593,0,12,12,12,1,90,5,4,wolf          ,gloves      ,html/resources/sequences_IDs/A/01_wolf.jpg,html/resources/sequences_IDs/B/06_gloves.jpg,1,6,1,1,3,2,1,5,0,38,,,,,,,,,,,,,,,,,,,,
,,,,,38,2020-07-03_15h58.53.322,retriever_ti,2020.1.3,Win32,60,Chrome,1920,1080,,,,,,,,,,,,,,,,,2,,,,,,,,,,,,,,,,,,,,,,,,,,,2579.98726,91,left,0.546805,wolf          ,5,1,1,1,1,2580.001575,2580.001575,2582.494035,0,13,13,13,1,91,5,4,wolf          ,gloves      ,html/resources/sequences_IDs/A/01_wolf.jpg,html/resources/sequences_IDs/B/06_gloves.jpg,1,6,1,1,3,2,1,5,0,38,,,,,,,,,,,,,,,,,,,,
,,,,,38,2020-07-03_15h58.53.322,retriever_ti,2020.1.3,Win32,60,Chrome,1920,1080,,,,,,,,,,,,,,,,,2,,,,,,,,,,,,,,,,,,,,,,,,,,,2583.584645,92,right,1.27739,calculator    ,7,9,1,1,1,2583.598995,2583.598995,2586.091925,0,14,14,14,1,92,6,7,dolphin     ,calculator    ,html/resources/sequences_IDs/B/02_dolphin.jpg,html/resources/sequences_IDs/A/09_calculator.jpg,2,9,1,1,4,2,2,8,0,38,,,,,,,,,,,,,,,,,,,,
,,,,,38,2020-07-03_15h58.53.322,retriever_ti,2020.1.3,Win32,60,Chrome,1920,1080,,,,,,,,,,,,,,,,,2,,,,,,,,,,,,,,,,,,,,,,,,,,,2587.183055,93,left,1.13875,calculator    ,7,9,-1,0,0,2587.190085,2587.190085,2589.67874,0,15,15,15,1,93,7,8,calculator    ,sport_tshirt,html/resources/sequences_IDs/A/09_calculator.jpg,html/resources/sequences_IDs/B/07_sport_tshirt.jpg,9,7,4,2,3,2,8,6,0,38,,,,,,,,,,,,,,,,,,,,
,,,,,38,2020-07-03_15h58.53.322,retriever_ti,2020.1.3,Win32,60,Chrome,1920,1080,,,,,,,,,,,,,,,,,2,,,,,,,,,,,,,,,,,,,,,,,,,,,2590.766795,94,right,0.95695,calculator    ,7,9,2,1,3,2590.77396,2590.77396,2593.266995,0,16,16,16,1,94,5,7,wolf          ,calculator    ,html/resources/sequences_IDs/A/01_wolf.jpg,html/resources/sequences_IDs/A/09_calculator.jpg,1,9,1,1,4,2,1,8,0,38,,,,,,,,,,,,,,,,,,,,
,,,,,38,2020-07-03_15h58.53.322,retriever_ti,2020.1.3,Win32,60,Chrome,1920,1080,,,,,,,,,,,,,,,,,2,,,,,,,,,,,,,,,,,,,,,,,,,,,2593.87179,95,left,1.166195,camel         ,1,3,-7,0,3,2593.885765,2593.885765,2596.37851,0,17,17,17,1,95,1,8,camel         ,sport_tshirt,html/resources/sequences_IDs/A/03_camel.jpg,html/resources/sequences_IDs/B/07_sport_tshirt.jpg,3,7,1,1,3,2,3,6,0,38,,,,,,,,,,,,,,,,,,,,
,,,,,38,2020-07-03_15h58.53.322,retriever_ti,2020.1.3,Win32,60,Chrome,1920,1080,,,,,,,,,,,,,,,,,2,,,,,,,,,,,,,,,,,,,,,,,,,,,2596.98309,96,left,0.768325,holdfast    ,2,4,-2,0,3,2596.997435,2596.997435,2599.49188,0,18,18,18,1,96,2,4,holdfast    ,gloves      ,html/resources/sequences_IDs/B/04_holdfast.jpg,html/resources/sequences_IDs/B/06_gloves.jpg,4,6,2,1,3,2,4,5,0,38,,,,,,,,,,,,,,,,,,,,
,,,,,38,2020-07-03_15h58.53.322,retriever_ti,2020.1.3,Win32,60,Chrome,1920,1080,,,,,,,,,,,,,,,,,2,,,,,,,,,,,,,,,,,,,,,,,,,,,2600.09513,97,right,1.81331,hat           ,3,8,-5,0,3,2600.102175,2600.102175,2602.59482,0,19,19,19,1,97,8,3,sport_tshirt,hat           ,html/resources/sequences_IDs/B/07_sport_tshirt.jpg,html/resources/sequences_IDs/A/08_hat.jpg,7,8,3,2,3,2,6,7,0,38,,,,,,,,,,,,,,,,,,,,
,,,,,38,2020-07-03_15h58.53.322,retriever_ti,2020.1.3,Win32,60,Chrome,1920,1080,,,,,,,,,,,,,,,,,2,,,,,,,,,,,,,,,,,,,,,,,,,,,2603.199515,98,left,1.09685,calculator    ,7,9,3,1,3,2603.207,2603.207,2605.699675,0,20,20,20,1,98,7,4,calculator    ,gloves      ,html/resources/sequences_IDs/A/09_calculator.jpg,html/resources/sequences_IDs/B/06_gloves.jpg,9,6,4,2,3,2,8,5,0,38,,,,,,,,,,,,,,,,,,,,
,,,,,38,2020-07-03_15h58.53.322,retriever_ti,2020.1.3,Win32,60,Chrome,1920,1080,,,,,,,,,,,,,,,,,2,,,,,,,,,,,,,,,,,,,,,,,,,,,2606.30459,99,right,0.723775,dolphin     ,6,2,-2,0,3,2606.31178,2606.31178,2608.804335,0,21,21,21,1,99,8,6,sport_tshirt,dolphin     ,html/resources/sequences_IDs/B/07_sport_tshirt.jpg,html/resources/sequences_IDs/B/02_dolphin.jpg,7,2,3,2,1,1,6,2,0,38,,,,,,,,,,,,,,,,,,,,
,,,,,38,2020-07-03_15h58.53.322,retriever_ti,2020.1.3,Win32,60,Chrome,1920,1080,,,,,,,,,,,,,,,,,2,,,,,,,,,,,,,,,,,,,,,,,,,,,2609.408985,100,left,0.829325,dolphin     ,6,2,1,1,1,2609.41637,2609.41637,2611.909095,0,22,22,22,1,100,6,5,dolphin     ,wolf          ,html/resources/sequences_IDs/B/02_dolphin.jpg,html/resources/sequences_IDs/A/01_wolf.jpg,2,1,1,1,1,1,2,1,0,38,,,,,,,,,,,,,,,,,,,,
,,,,,38,2020-07-03_15h58.53.322,retriever_ti,2020.1.3,Win32,60,Chrome,1920,1080,,,,,,,,,,,,,,,,,2,,,,,,,,,,,,,,,,,,,,,,,,,,,2613.000285,101,left,0.80388,gloves      ,4,6,-4,0,3,2613.01422,2613.01422,2615.50706,0,23,23,23,1,101,4,8,gloves      ,sport_tshirt,html/resources/sequences_IDs/B/06_gloves.jpg,html/resources/sequences_IDs/B/07_sport_tshirt.jpg,6,7,3,2,3,2,5,6,0,38,,,,,,,,,,,,,,,,,,,,
,,,,,38,2020-07-03_15h58.53.322,retriever_ti,2020.1.3,Win32,60,Chrome,1920,1080,,,,,,,,,,,,,,,,,2,,,,,,,,,,,,,,,,,,,,,,,,,,,2616.11175,102,right,0.68078,camel         ,1,3,-7,0,3,2616.11903,2616.11903,2618.61176,0,24,24,24,1,102,8,1,sport_tshirt,camel         ,html/resources/sequences_IDs/B/07_sport_tshirt.jpg,html/resources/sequences_IDs/A/03_camel.jpg,7,3,3,2,1,1,6,3,0,38,,,,,,,,,,,,,,,,,,,,
,,,,,38,2020-07-03_15h58.53.322,retriever_ti,2020.1.3,Win32,60,Chrome,1920,1080,,,,,,,,,,,,,,,,,2,,,,,,,,,,,,,,,,,,,,,,,,,,,2619.21711,103,left,0.92723,wolf          ,5,1,-1,0,1,2619.23091,2619.23091,2621.723515,0,25,25,25,1,103,5,6,wolf          ,dolphin     ,html/resources/sequences_IDs/A/01_wolf.jpg,html/resources/sequences_IDs/B/02_dolphin.jpg,1,2,1,1,1,1,1,2,1,38,,,,,,,,,,,,,,,,,,,,
,,,,,38,2020-07-03_15h58.53.322,retriever_ti,2020.1.3,Win32,60,Chrome,1920,1080,,,,,,,,,,,,,,,,,2,,,,,,,,,,,,,,,,,,,,,,,,,,,2622.81431,104,right,1.07417,holdfast    ,2,4,1,1,1,2622.821595,2622.821595,2625.314345,0,26,26,26,1,104,1,2,camel         ,holdfast    ,html/resources/sequences_IDs/A/03_camel.jpg,html/resources/sequences_IDs/B/04_holdfast.jpg,3,4,1,1,2,1,3,4,0,38,,,,,,,,,,,,,,,,,,,,
,,,,,38,2020-07-03_15h58.53.322,retriever_ti,2020.1.3,Win32,60,Chrome,1920,1080,,,,,,,,,,,,,,,,,2,,,,,,,,,,,,,,,,,,,,,,,,,,,2626.40557,105,right,1.112355,wolf          ,5,1,-2,0,3,2626.419685,2626.419685,2628.912275,0,27,27,27,1,105,7,5,calculator    ,wolf          ,html/resources/sequences_IDs/A/09_calculator.jpg,html/resources/sequences_IDs/A/01_wolf.jpg,9,1,4,2,1,1,8,1,0,38,,,,,,,,,,,,,,,,,,,,
,,,,,38,2020-07-03_15h58.53.322,retriever_ti,2020.1.3,Win32,60,Chrome,1920,1080,,,,,,,,,,,,,,,,,2,,,,,,,,,,,,,,,,,,,,,,,,,,,2629.51689,106,right,0.6668,sport_tshirt,8,7,5,1,3,2629.531335,2629.531335,2632.023945,0,28,28,28,1,106,3,8,hat           ,sport_tshirt,html/resources/sequences_IDs/A/08_hat.jpg,html/resources/sequences_IDs/B/07_sport_tshirt.jpg,8,7,3,2,3,2,7,6,0,38,,,,,,,,,,,,,,,,,,,,
,,,,,38,2020-07-03_15h58.53.322,retriever_ti,2020.1.3,Win32,60,Chrome,1920,1080,,,,,,,,,,,,,,,,,2,,,,,,,,,,,,,,,,,,,,,,,,,,,2632.62896,107,left,0.568935,sport_tshirt,8,7,4,1,3,2632.635965,2632.635965,2635.12867,0,29,29,29,1,107,8,4,sport_tshirt,gloves      ,html/resources/sequences_IDs/B/07_sport_tshirt.jpg,html/resources/sequences_IDs/B/06_gloves.jpg,7,6,3,2,3,2,6,5,0,38,,,,,,,,,,,,,,,,,,,,
,,,,,38,2020-07-03_15h58.53.322,retriever_ti,2020.1.3,Win32,60,Chrome,1920,1080,,,,,,,,,,,,,,,,,2,,,,,,,,,,,,,,,,,,,,,,,,,,,2635.733395,108,right,0.94412,camel         ,1,3,-1,0,0,2635.74767,2635.74767,2638.24041,0,30,30,30,1,108,2,1,holdfast    ,camel         ,html/resources/sequences_IDs/B/04_holdfast.jpg,html/resources/sequences_IDs/A/03_camel.jpg,4,3,2,1,1,1,4,3,0,38,,,,,,,,,,,,,,,,,,,,
,,,,,38,2020-07-03_15h58.53.322,retriever_ti,2020.1.3,Win32,60,Chrome,1920,1080,,,,,,,,,,,,,,,,,2,,,,,,,,,,,,,,,,,,,,,,,,,,,2639.331665,109,left,0.99061,holdfast    ,2,4,-4,0,3,2639.338695,2639.338695,2641.83137,0,31,31,31,1,109,2,6,holdfast    ,dolphin     ,html/resources/sequences_IDs/B/04_holdfast.jpg,html/resources/sequences_IDs/B/02_dolphin.jpg,4,2,2,1,1,1,4,2,0,38,,,,,,,,,,,,,,,,,,,,
,,,,,38,2020-07-03_15h58.53.322,retriever_ti,2020.1.3,Win32,60,Chrome,1920,1080,,,,,,,,,,,,,,,,,2,,,,,,,,,,,,,,,,,,,,,,,,,,,2642.435955,110,left,1.16747,wolf          ,5,1,1,1,0,2642.450295,2642.450295,2644.943075,0,32,32,32,1,110,5,4,wolf          ,gloves      ,html/resources/sequences_IDs/A/01_wolf.jpg,html/resources/sequences_IDs/B/06_gloves.jpg,1,6,1,1,3,2,1,5,1,38,,,,,,,,,,,,,,,,,,,,
,,,,,38,2020-07-03_15h58.53.322,retriever_ti,2020.1.3,Win32,60,Chrome,1920,1080,,,,,,,,,,,,,,,,,2,,,,,,,,,,,,,,,,,,,,,,,,,,,2646.034335,111,left,1.137685,sport_tshirt,8,7,1,1,1,2646.0414,2646.0414,2648.534085,0,33,33,33,1,111,8,7,sport_tshirt,calculator    ,html/resources/sequences_IDs/B/07_sport_tshirt.jpg,html/resources/sequences_IDs/A/09_calculator.jpg,7,9,3,2,4,2,6,8,0,38,,,,,,,,,,,,,,,,,,,,
,,,,,38,2020-07-03_15h58.53.322,retriever_ti,2020.1.3,Win32,60,Chrome,1920,1080,,,,,,,,,,,,,,,,,2,,,,,,,,,,,,,,,,,,,,,,,,,,,2649.624855,112,right,1.218785,camel         ,1,3,-6,0,3,2649.63227,2649.63227,2652.125005,0,34,34,34,1,112,7,1,calculator    ,camel         ,html/resources/sequences_IDs/A/09_calculator.jpg,html/resources/sequences_IDs/A/03_camel.jpg,9,3,4,2,1,1,8,3,0,38,,,,,,,,,,,,,,,,,,,,
,,,,,38,2020-07-03_15h58.53.322,retriever_ti,2020.1.3,Win32,60,Chrome,1920,1080,,,,,,,,,,,,,,,,,2,,,,,,,,,,,,,,,,,,,,,,,,,,,2652.72998,113,left,0.63538,gloves      ,4,6,1,1,1,2652.737055,2652.737055,2655.229755,0,35,35,35,1,113,4,3,gloves      ,hat           ,html/resources/sequences_IDs/B/06_gloves.jpg,html/resources/sequences_IDs/A/08_hat.jpg,6,8,3,2,3,2,5,7,0,38,,,,,,,,,,,,,,,,,,,,
,,,,,38,2020-07-03_15h58.53.322,retriever_ti,2020.1.3,Win32,60,Chrome,1920,1080,,,,,,,,,,,,,,,,,2,,,,,,,,,,,,,,,,,,,,,,,,,,,2656.32046,114,left,1.05199,holdfast    ,2,4,-1,0,1,2656.33504,2656.33504,2658.827625,0,36,36,36,1,114,2,3,holdfast    ,hat           ,html/resources/sequences_IDs/B/04_holdfast.jpg,html/resources/sequences_IDs/A/08_hat.jpg,4,8,2,1,3,2,4,7,1,38,,,,,,,,,,,,,,,,,,,,
,,,,,38,2020-07-03_15h58.53.322,retriever_ti,2020.1.3,Win32,60,Chrome,1920,1080,,,,,,,,,,,,,,,,,2,,,,,,,,,,,,,,,,,,,,,,,,,,,2659.918955,115,right,1.203305,calculator    ,7,9,4,1,3,2659.933235,2659.933235,2662.42549,0,37,37,37,1,115,3,7,hat           ,calculator    ,html/resources/sequences_IDs/A/08_hat.jpg,html/resources/sequences_IDs/A/09_calculator.jpg,8,9,3,2,4,2,7,8,0,38,,,,,,,,,,,,,,,,,,,,
,,,,,38,2020-07-03_15h58.53.322,retriever_ti,2020.1.3,Win32,60,Chrome,1920,1080,,,,,,,,,,,,,,,,,2,,,,,,,,,,,,,,,,,,,,,,,,,,,2663.030075,116,left,1.00524,gloves      ,4,6,-2,0,3,2663.04446,2663.04446,2665.537195,0,38,38,38,1,116,4,6,gloves      ,dolphin     ,html/resources/sequences_IDs/B/06_gloves.jpg,html/resources/sequences_IDs/B/02_dolphin.jpg,6,2,3,2,1,1,5,2,0,38,,,,,,,,,,,,,,,,,,,,
,,,,,38,2020-07-03_15h58.53.322,retriever_ti,2020.1.3,Win32,60,Chrome,1920,1080,,,,,,,,,,,,,,,,,2,,,,,,,,,,,,,,,,,,,,,,,,,,,2666.14209,117,right,0.943225,holdfast    ,2,4,-5,0,3,2666.156145,2666.156145,2668.648825,0,39,39,39,1,117,7,2,calculator    ,holdfast    ,html/resources/sequences_IDs/A/09_calculator.jpg,html/resources/sequences_IDs/B/04_holdfast.jpg,9,4,4,2,2,1,8,4,0,38,,,,,,,,,,,,,,,,,,,,
,,,,,38,2020-07-03_15h58.53.322,retriever_ti,2020.1.3,Win32,60,Chrome,1920,1080,,,,,,,,,,,,,,,,,2,,,,,,,,,,,,,,,,,,,,,,,,,,,2669.253645,118,left,1.171625,dolphin     ,6,2,1,1,1,2669.26102,2669.26102,2671.75358,0,40,40,40,1,118,6,5,dolphin     ,wolf          ,html/resources/sequences_IDs/B/02_dolphin.jpg,html/resources/sequences_IDs/A/01_wolf.jpg,2,1,1,1,1,1,2,1,0,38,,,,,,,,,,,,,,,,,,,,
,,,,,38,2020-07-03_15h58.53.322,retriever_ti,2020.1.3,Win32,60,Chrome,1920,1080,,,,,,,,,,,,,,,,,2,,,,,,,,,,,,,,,,,,,,,,,,,,,2672.84475,119,right,0.82481,holdfast    ,2,4,1,1,0,2672.852,2672.852,2675.34453,0,41,41,41,1,119,1,2,camel         ,holdfast    ,html/resources/sequences_IDs/A/03_camel.jpg,html/resources/sequences_IDs/B/04_holdfast.jpg,3,4,1,1,2,1,3,4,1,38,,,,,,,,,,,,,,,,,,,,
,,,,,38,2020-07-03_15h58.53.322,retriever_ti,2020.1.3,Win32,60,Chrome,1920,1080,,,,,,,,,,,,,,,,,2,,,,,,,,,,,,,,,,,,,,,,,,,,,2676.435365,120,right,1.272555,dolphin     ,6,2,1,1,1,2676.44988,2676.44988,2678.942515,0,42,42,42,1,120,5,6,wolf          ,dolphin     ,html/resources/sequences_IDs/A/01_wolf.jpg,html/resources/sequences_IDs/B/02_dolphin.jpg,1,2,1,1,1,1,1,2,0,38,,,,,,,,,,,,,,,,,,,,
,,,,,38,2020-07-03_15h58.53.322,retriever_ti,2020.1.3,Win32,60,Chrome,1920,1080,,,,,,,,,,,,,,,,,2,,,,,,,,,,,,,,,,,,,,,,,,,,,2680.03369,121,right,0.80981,holdfast    ,2,4,-2,0,3,2680.04776,2680.04776,2682.54035,0,43,43,43,1,121,4,2,gloves      ,holdfast    ,html/resources/sequences_IDs/B/06_gloves.jpg,html/resources/sequences_IDs/B/04_holdfast.jpg,6,4,3,2,2,1,5,4,0,38,,,,,,,,,,,,,,,,,,,,
,,,,,38,2020-07-03_15h58.53.322,retriever_ti,2020.1.3,Win32,60,Chrome,1920,1080,,,,,,,,,,,,,,,,,2,,,,,,,,,,,,,,,,,,,,,,,,,,,2683.144955,122,right,1.75532,hat           ,3,8,-3,0,3,2683.152385,2683.152385,2685.645025,0,44,44,44,1,122,6,3,dolphin     ,hat           ,html/resources/sequences_IDs/B/02_dolphin.jpg,html/resources/sequences_IDs/A/08_hat.jpg,2,8,1,1,3,2,2,7,0,38,,,,,,,,,,,,,,,,,,,,
,,,,,38,2020-07-03_15h58.53.322,retriever_ti,2020.1.3,Win32,60,Chrome,1920,1080,,,,,,,,,,,,,,,,,2,,,,,,,,,,,,,,,,,,,,,,,,,,,2686.25075,123,right,1.345325,wolf          ,5,1,4,1,3,2686.257405,2686.257405,2688.7499,0,45,45,45,1,123,1,5,camel         ,wolf          ,html/resources/sequences_IDs/A/03_camel.jpg,html/resources/sequences_IDs/A/01_wolf.jpg,3,1,1,1,1,1,3,1,0,38,,,,,,,,,,,,,,,,,,,,
,,,,,38,2020-07-03_15h58.53.322,retriever_ti,2020.1.3,Win32,60,Chrome,1920,1080,,,,,,,,,,,,,,,,,2,,,,,,,,,,,,,,,,,,,,,,,,,,,2689.35461,124,left,2.40797,holdfast    ,2,4,-1,0,0,2689.36189,2689.36189,2691.854625,0,46,46,46,1,124,2,3,holdfast    ,hat           ,html/resources/sequences_IDs/B/04_holdfast.jpg,html/resources/sequences_IDs/A/08_hat.jpg,4,8,2,1,3,2,4,7,0,38,,,,,,,,,,,,,,,,,,,,
,,,,,38,2020-07-03_15h58.53.322,retriever_ti,2020.1.3,Win32,60,Chrome,1920,1080,,,,,,,,,,,,,,,,,2,,,,,,,,,,,,,,,,,,,,,,,,,,,2692.945705,125,left,0.72348,camel         ,1,3,-2,0,3,2692.952855,2692.952855,2695.4455,0,47,47,47,1,125,1,3,camel         ,hat           ,html/resources/sequences_IDs/A/03_camel.jpg,html/resources/sequences_IDs/A/08_hat.jpg,3,8,1,1,3,2,3,7,0,38,,,,,,,,,,,,,,,,,,,,
,,,,,38,2020-07-03_15h58.53.322,retriever_ti,2020.1.3,Win32,60,Chrome,1920,1080,,,,,,,,,,,,,,,,,2,,,,,,,,,,,,,,,,,,,,,,,,,,,2696.05018,126,left,0.907385,dolphin     ,6,2,4,1,3,2696.05756,2696.05756,2698.550295,0,48,48,48,1,126,6,2,dolphin     ,holdfast    ,html/resources/sequences_IDs/B/02_dolphin.jpg,html/resources/sequences_IDs/B/04_holdfast.jpg,2,4,1,1,2,1,2,4,0,38,,,,,,,,,,,,,,,,,,,,
,,,,,38,2020-07-03_15h58.53.322,retriever_ti,2020.1.3,Win32,60,Chrome,1920,1080,,,,,,,,,,,,,,,,,2,,,,,,,,,,,,,,,,,,,,,,,,,,,2699.15524,127,right,0.85791,hat           ,3,8,1,1,1,2699.16267,2699.16267,2701.65509,0,49,49,49,1,127,2,3,holdfast    ,hat           ,html/resources/sequences_IDs/B/04_holdfast.jpg,html/resources/sequences_IDs/A/08_hat.jpg,4,8,2,1,3,2,4,7,0,38,,,,,,,,,,,,,,,,,,,,
,,,,,38,2020-07-03_15h58.53.322,retriever_ti,2020.1.3,Win32,60,Chrome,1920,1080,,,,,,,,,,,,,,,,,2,,,,,,,,,,,,,,,,,,,,,,,,,,,2702.746195,128,left,0.830345,hat           ,3,8,1,1,1,2702.76015,2702.76015,2705.25304,0,50,50,50,1,128,3,2,hat           ,holdfast    ,html/resources/sequences_IDs/A/08_hat.jpg,html/resources/sequences_IDs/B/04_holdfast.jpg,8,4,3,2,2,1,7,4,0,38,,,,,,,,,,,,,,,,,,,,
,,,,,38,2020-07-03_15h58.53.322,retriever_ti,2020.1.3,Win32,60,Chrome,1920,1080,,,,,,,,,,,,,,,,,2,,,,,,,,,,,,,,,,,,,,,,,,,,,2706.344335,129,left,0.70014,gloves      ,4,6,-1,0,0,2706.358145,2706.358145,2708.85092,0,51,51,51,1,129,4,5,gloves      ,wolf          ,html/resources/sequences_IDs/B/06_gloves.jpg,html/resources/sequences_IDs/A/01_wolf.jpg,6,1,3,2,1,1,5,1,0,38,,,,,,,,,,,,,,,,,,,,
,,,,,38,2020-07-03_15h58.53.322,retriever_ti,2020.1.3,Win32,60,Chrome,1920,1080,,,,,,,,,,,,,,,,,2,,,,,,,,,,,,,,,,,,,,,,,,,,,2709.94159,130,left,0.990695,hat           ,3,8,2,1,3,2709.95611,2709.95611,2712.44871,0,52,52,52,1,130,3,1,hat           ,camel         ,html/resources/sequences_IDs/A/08_hat.jpg,html/resources/sequences_IDs/A/03_camel.jpg,8,3,3,2,1,1,7,3,0,38,,,,,,,,,,,,,,,,,,,,
,,,,,38,2020-07-03_15h58.53.322,retriever_ti,2020.1.3,Win32,60,Chrome,1920,1080,,,,,,,,,,,,,,,,,2,,,,,,,,,,,,,,,,,,,,,,,,,,,2713.0537,131,right,0.58104,dolphin     ,6,2,1,1,1,2713.060835,2713.060835,2715.55346,0,53,53,53,1,131,5,6,wolf          ,dolphin     ,html/resources/sequences_IDs/A/01_wolf.jpg,html/resources/sequences_IDs/B/02_dolphin.jpg,1,2,1,1,1,1,1,2,0,38,,,,,,,,,,,,,,,,,,,,
,,,,,38,2020-07-03_15h58.53.322,retriever_ti,2020.1.3,Win32,60,Chrome,1920,1080,,,,,,,,,,,,,,,,,2,,,,,,,,,,,,,,,,,,,,,,,,,,,2716.644195,132,right,0.604635,sport_tshirt,8,7,1,1,1,2716.651715,2716.651715,2719.14439,0,54,54,54,1,132,7,8,calculator    ,sport_tshirt,html/resources/sequences_IDs/A/09_calculator.jpg,html/resources/sequences_IDs/B/07_sport_tshirt.jpg,9,7,4,2,3,2,8,6,0,38,,,,,,,,,,,,,,,,,,,,
,,,,,38,2020-07-03_15h58.53.322,retriever_ti,2020.1.3,Win32,60,Chrome,1920,1080,,,,,,,,,,,,,,,,,2,,,,,,,,,,,,,,,,,,,,,,,,,,,2720.23551,133,left,0.8492,wolf          ,5,1,-3,0,3,2720.24965,2720.24965,2722.742315,0,55,55,55,1,133,5,8,wolf          ,sport_tshirt,html/resources/sequences_IDs/A/01_wolf.jpg,html/resources/sequences_IDs/B/07_sport_tshirt.jpg,1,7,1,1,3,2,1,6,0,38,,,,,,,,,,,,,,,,,,,,
,,,,,38,2020-07-03_15h58.53.322,retriever_ti,2020.1.3,Win32,60,Chrome,1920,1080,,,,,,,,,,,,,,,,,2,,,,,,,,,,,,,,,,,,,,,,,,,,,2723.34686,134,left,0.655785,holdfast    ,2,4,1,1,1,2723.3544,2723.3544,2725.847,0,56,56,56,1,134,2,1,holdfast    ,camel         ,html/resources/sequences_IDs/B/04_holdfast.jpg,html/resources/sequences_IDs/A/03_camel.jpg,4,3,2,1,1,1,4,3,0,38,,,,,,,,,,,,,,,,,,,,
,,,,,38,2020-07-03_15h58.53.322,retriever_ti,2020.1.3,Win32,60,Chrome,1920,1080,,,,,,,,,,,,,,,,,2,,,,,,,,,,,,,,,,,,,,,,,,,,,2726.93827,135,left,0.68733,holdfast    ,2,4,-3,0,3,2726.945225,2726.945225,2729.438175,0,57,57,57,1,135,2,5,holdfast    ,wolf          ,html/resources/sequences_IDs/B/04_holdfast.jpg,html/resources/sequences_IDs/A/01_wolf.jpg,4,1,2,1,1,1,4,1,0,38,,,,,,,,,,,,,,,,,,,,
,,,,,38,2020-07-03_15h58.53.322,retriever_ti,2020.1.3,Win32,60,Chrome,1920,1080,,,,,,,,,,,,,,,,,2,,,,,,,,,,,,,,,,,,,,,,,,,,,2730.042575,136,right,1.37591,hat           ,3,8,-2,0,3,2730.05691,2730.05691,2732.54967,0,58,58,58,1,136,5,3,wolf          ,hat           ,html/resources/sequences_IDs/A/01_wolf.jpg,html/resources/sequences_IDs/A/08_hat.jpg,1,8,1,1,3,2,1,7,0,38,,,,,,,,,,,,,,,,,,,,
,,,,,38,2020-07-03_15h58.53.322,retriever_ti,2020.1.3,Win32,60,Chrome,1920,1080,,,,,,,,,,,,,,,,,2,,,,,,,,,,,,,,,,,,,,,,,,,,,2733.154745,137,right,0.702085,dolphin     ,6,2,5,1,3,2733.16873,2733.16873,2735.66146,0,59,59,59,1,137,1,6,camel         ,dolphin     ,html/resources/sequences_IDs/A/03_camel.jpg,html/resources/sequences_IDs/B/02_dolphin.jpg,3,2,1,1,1,1,3,2,0,38,,,,,,,,,,,,,,,,,,,,
,,,,,38,2020-07-03_15h58.53.322,retriever_ti,2020.1.3,Win32,60,Chrome,1920,1080,,,,,,,,,,,,,,,,,2,,,,,,,,,,,,,,,,,,,,,,,,,,,2736.266,138,left,0.7005,sport_tshirt,8,7,6,1,3,2736.27365,2736.27365,2738.76624,0,60,60,60,1,138,8,2,sport_tshirt,holdfast    ,html/resources/sequences_IDs/B/07_sport_tshirt.jpg,html/resources/sequences_IDs/B/04_holdfast.jpg,7,4,3,2,2,1,6,4,0,38,,,,,,,,,,,,,,,,,,,,
,,,,,38,2020-07-03_15h58.53.322,retriever_ti,2020.1.3,Win32,60,Chrome,1920,1080,,,,,,,,,,,,,,,,,2,,,,,,,,,,,,,,,,,,,,,,,,,,,2739.371145,139,right,0.634435,gloves      ,4,6,3,1,3,2739.37808,2739.37808,2741.870935,0,61,61,61,1,139,1,4,camel         ,gloves      ,html/resources/sequences_IDs/A/03_camel.jpg,html/resources/sequences_IDs/B/06_gloves.jpg,3,6,1,1,3,2,3,5,0,38,,,,,,,,,,,,,,,,,,,,
,,,,,38,2020-07-03_15h58.53.322,retriever_ti,2020.1.3,Win32,60,Chrome,1920,1080,,,,,,,,,,,,,,,,,2,,,,,,,,,,,,,,,,,,,,,,,,,,,2742.475595,140,right,0.092045,dolphin     ,6,2,3,1,3,2742.48292,2742.48292,2744.975795,0,62,62,62,1,140,3,6,hat           ,dolphin     ,html/resources/sequences_IDs/A/08_hat.jpg,html/resources/sequences_IDs/B/02_dolphin.jpg,8,2,3,2,1,1,7,2,0,38,,,,,,,,,,,,,,,,,,,,
,,,,,38,2020-07-03_15h58.53.322,retriever_ti,2020.1.3,Win32,60,Chrome,1920,1080,,,,,,,,,,,,,,,,,2,,,,,,,,,,,,,,,,,,,,,,,,,,,2745.580665,141,left,0.524655,calculator    ,7,9,1,1,1,2745.5946,2745.5946,2748.087315,0,63,63,63,1,141,7,6,calculator    ,dolphin     ,html/resources/sequences_IDs/A/09_calculator.jpg,html/resources/sequences_IDs/B/02_dolphin.jpg,9,2,4,2,1,1,8,2,0,38,,,,,,,,,,,,,,,,,,,,
,,,,,38,2020-07-03_15h58.53.322,retriever_ti,2020.1.3,Win32,60,Chrome,1920,1080,,,,,,,,,,,,,,,,,2,,,,,,,,,,,,,,,,,,,,,,,,,,,2749.178145,142,left,0.64017,dolphin     ,6,2,2,1,3,2749.192575,2749.192575,2751.685145,0,64,64,64,1,142,6,4,dolphin     ,gloves      ,html/resources/sequences_IDs/B/02_dolphin.jpg,html/resources/sequences_IDs/B/06_gloves.jpg,2,6,1,1,3,2,2,5,0,38,,,,,,,,,,,,,,,,,,,,
,,,,,38,2020-07-03_15h58.53.322,retriever_ti,2020.1.3,Win32,60,Chrome,1920,1080,,,,,,,,,,,,,,,,,2,,,,,,,,,,,,,,,,,,,,,,,,,,,2752.29029,143,right,0.3857,sport_tshirt,8,7,2,1,3,2752.304525,2752.304525,2754.796935,0,65,65,65,1,143,6,8,dolphin     ,sport_tshirt,html/resources/sequences_IDs/B/02_dolphin.jpg,html/resources/sequences_IDs/B/07_sport_tshirt.jpg,2,7,1,1,3,2,2,6,0,38,,,,,,,,,,,,,,,,,,,,
,,,,,38,2020-07-03_15h58.53.322,retriever_ti,2020.1.3,Win32,60,Chrome,1920,1080,,,,,,,,,,,,,,,,,2,,,,,,,,,,,,,,,,,,,,,,,,,,,2755.4015,144,left,0.403365,dolphin     ,6,2,5,1,3,2755.408865,2755.408865,2757.90161,0,66,66,66,1,144,6,1,dolphin     ,camel         ,html/resources/sequences_IDs/B/02_dolphin.jpg,html/resources/sequences_IDs/A/03_camel.jpg,2,3,1,1,1,1,2,3,0,38,,,,,,,,,,,,,,,,,,,,
,,,,,38,2020-07-03_15h58.53.322,retriever_ti,2020.1.3,Win32,60,Chrome,1920,1080,,,,,,,,,,,,,,,,,2,,,,,,,,,,,,,,,,,,,,,,,,,,,2758.506575,145,left,0.30479,hat           ,3,8,-2,0,3,2758.520605,2758.520605,2761.0133,0,67,67,67,1,145,3,5,hat           ,wolf          ,html/resources/sequences_IDs/A/08_hat.jpg,html/resources/sequences_IDs/A/01_wolf.jpg,8,1,3,2,1,1,7,1,0,38,,,,,,,,,,,,,,,,,,,,
,,,,,38,2020-07-03_15h58.53.322,retriever_ti,2020.1.3,Win32,60,Chrome,1920,1080,,,,,,,,,,,,,,,,,2,,,,,,,,,,,,,,,,,,,,,,,,,,,2761.6181,146,right,0.402005,calculator    ,7,9,-1,0,1,2761.625495,2761.625495,2764.11835,0,68,68,68,1,146,8,7,sport_tshirt,calculator    ,html/resources/sequences_IDs/B/07_sport_tshirt.jpg,html/resources/sequences_IDs/A/09_calculator.jpg,7,9,3,2,4,2,6,8,1,38,,,,,,,,,,,,,,,,,,,,
,,,,,38,2020-07-03_15h58.53.322,retriever_ti,2020.1.3,Win32,60,Chrome,1920,1080,,,,,,,,,,,,,,,,,2,,,,,,,,,,,,,,,,,,,,,,,,,,,2765.209475,147,left,0.404635,calculator    ,7,9,4,1,3,2765.21688,2765.21688,2767.70908,0,69,69,69,1,147,7,3,calculator    ,hat           ,html/resources/sequences_IDs/A/09_calculator.jpg,html/resources/sequences_IDs/A/08_hat.jpg,9,8,4,2,3,2,8,7,0,38,,,,,,,,,,,,,,,,,,,,
,,,,,38,2020-07-03_15h58.53.322,retriever_ti,2020.1.3,Win32,60,Chrome,1920,1080,,,,,,,,,,,,,,,,,2,,,,,,,,,,,,,,,,,,,,,,,,,,,2768.31407,148,right,0.611685,camel         ,1,3,-3,0,3,2768.32844,2768.32844,2770.820735,0,70,70,70,1,148,4,1,gloves      ,camel         ,html/resources/sequences_IDs/B/06_gloves.jpg,html/resources/sequences_IDs/A/03_camel.jpg,6,3,3,2,1,1,5,3,0,38,,,,,,,,,,,,,,,,,,,,
,,,,,38,2020-07-03_15h58.53.322,retriever_ti,2020.1.3,Win32,60,Chrome,1920,1080,,,,,,,,,,,,,,,,,2,,,,,,,,,,,,,,,,,,,,,,,,,,,2771.42605,149,left,0.60468,gloves      ,4,6,1,1,0,2771.43305,2771.43305,2773.925445,0,71,71,71,1,149,4,3,gloves      ,hat           ,html/resources/sequences_IDs/B/06_gloves.jpg,html/resources/sequences_IDs/A/08_hat.jpg,6,8,3,2,3,2,5,7,1,38,,,,,,,,,,,,,,,,,,,,
,,,,,38,2020-07-03_15h58.53.322,retriever_ti,2020.1.3,Win32,60,Chrome,1920,1080,,,,,,,,,,,,,,,,,2,,,,,,,,,,,,,,,,,,,,,,,,,,,2775.01622,150,left,0.882935,calculator    ,7,9,1,1,1,2775.031135,2775.031135,2777.523425,0,72,72,72,1,150,7,6,calculator    ,dolphin     ,html/resources/sequences_IDs/A/09_calculator.jpg,html/resources/sequences_IDs/B/02_dolphin.jpg,9,2,4,2,1,1,8,2,0,38,,,,,,,,,,,,,,,,,,,,
,,,,,38,2020-07-03_15h58.53.322,retriever_ti,2020.1.3,Win32,60,Chrome,1920,1080,,,,,,,,,,,,,,,,,2,,,,,,,,,,,,,,,,,,,,,,,,,,,2778.614585,151,right,1.10755,wolf          ,5,1,1,1,1,2778.62156,2778.62156,2781.11433,0,73,73,73,1,151,4,5,gloves      ,wolf          ,html/resources/sequences_IDs/B/06_gloves.jpg,html/resources/sequences_IDs/A/01_wolf.jpg,6,1,3,2,1,1,5,1,0,38,,,,,,,,,,,,,,,,,,,,
,,,,,38,2020-07-03_15h58.53.322,retriever_ti,2020.1.3,Win32,60,Chrome,1920,1080,,,,,,,,,,,,,,,,,2,,,,,,,,,,,,,,,,,,,,,,,,,,,2782.20516,152,left,0.834235,wolf          ,5,1,3,1,3,2782.212555,2782.212555,2784.705295,0,74,74,74,1,152,5,2,wolf          ,holdfast    ,html/resources/sequences_IDs/A/01_wolf.jpg,html/resources/sequences_IDs/B/04_holdfast.jpg,1,4,1,1,2,1,1,4,0,38,,,,,,,,,,,,,,,,,,,,
,,,,,38,2020-07-03_15h58.53.322,retriever_ti,2020.1.3,Win32,60,Chrome,1920,1080,,,,,,,,,,,,,,,,,2,,,,,,,,,,,,,,,,,,,,,,,,,,,2785.31024,153,right,1.37242,gloves      ,4,6,1,1,1,2785.317355,2785.317355,2787.810145,0,75,75,75,1,153,3,4,hat           ,gloves      ,html/resources/sequences_IDs/A/08_hat.jpg,html/resources/sequences_IDs/B/06_gloves.jpg,8,6,3,2,3,2,7,5,0,38,,,,,,,,,,,,,,,,,,,,
,,,,,38,2020-07-03_15h58.53.322,retriever_ti,2020.1.3,Win32,60,Chrome,1920,1080,,,,,,,,,,,,,,,,,2,,,,,,,,,,,,,,,,,,,,,,,,,,,2788.90083,154,right,0.87731,calculator    ,7,9,-1,0,0,2788.9083,2788.9083,2791.400985,0,76,76,76,1,154,8,7,sport_tshirt,calculator    ,html/resources/sequences_IDs/B/07_sport_tshirt.jpg,html/resources/sequences_IDs/A/09_calculator.jpg,7,9,3,2,4,2,6,8,0,38,,,,,,,,,,,,,,,,,,,,
,,,,,38,2020-07-03_15h58.53.322,retriever_ti,2020.1.3,Win32,60,Chrome,1920,1080,,,,,,,,,,,,,,,,,,,,,,,,,,,,,,,,,,,,,0,8.832875,,,,,,,,,,,,,,,,,,,,,,,,,,,,,,,,,,,,,,,,,1,0,1,0,1,,,,,,,,,,,,,,,
,,,,,38,2020-07-03_15h58.53.322,retriever_ti,2020.1.3,Win32,60,Chrome,1920,1080,,,,,,,,,,,,,,,,,3,,,,,,,,,,,,,,,,,,,,,,,,,,,2809.54593,155,left,0.707135,dolphin     ,6,2,5,1,3,2809.55138,2809.55138,2812.043725,0,0,0,0,1,155,6,1,dolphin     ,camel         ,html/resources/sequences_IDs/B/02_dolphin.jpg,html/resources/sequences_IDs/A/03_camel.jpg,2,3,1,1,1,1,2,3,0,38,,,,,,,,,,,,,,,,,,,,
,,,,,38,2020-07-03_15h58.53.322,retriever_ti,2020.1.3,Win32,60,Chrome,1920,1080,,,,,,,,,,,,,,,,,3,,,,,,,,,,,,,,,,,,,,,,,,,,,2812.648315,156,left,0.74686,calculator    ,7,9,-1,0,0,2812.655665,2812.655665,2815.14844,0,1,1,1,1,156,7,8,calculator    ,sport_tshirt,html/resources/sequences_IDs/A/09_calculator.jpg,html/resources/sequences_IDs/B/07_sport_tshirt.jpg,9,7,4,2,3,2,8,6,0,38,,,,,,,,,,,,,,,,,,,,
,,,,,38,2020-07-03_15h58.53.322,retriever_ti,2020.1.3,Win32,60,Chrome,1920,1080,,,,,,,,,,,,,,,,,3,,,,,,,,,,,,,,,,,,,,,,,,,,,2816.2397,157,right,0.809435,wolf          ,5,1,1,1,0,2816.24676,2816.24676,2818.73942,0,2,2,2,1,157,4,5,gloves      ,wolf          ,html/resources/sequences_IDs/B/06_gloves.jpg,html/resources/sequences_IDs/A/01_wolf.jpg,6,1,3,2,1,1,5,1,1,38,,,,,,,,,,,,,,,,,,,,
,,,,,38,2020-07-03_15h58.53.322,retriever_ti,2020.1.3,Win32,60,Chrome,1920,1080,,,,,,,,,,,,,,,,,3,,,,,,,,,,,,,,,,,,,,,,,,,,,2819.830245,158,right,1.066985,wolf          ,5,1,-3,0,3,2819.84456,2819.84456,2822.337435,0,3,3,3,1,158,8,5,sport_tshirt,wolf          ,html/resources/sequences_IDs/B/07_sport_tshirt.jpg,html/resources/sequences_IDs/A/01_wolf.jpg,7,1,3,2,1,1,6,1,0,38,,,,,,,,,,,,,,,,,,,,
,,,,,38,2020-07-03_15h58.53.322,retriever_ti,2020.1.3,Win32,60,Chrome,1920,1080,,,,,,,,,,,,,,,,,3,,,,,,,,,,,,,,,,,,,,,,,,,,,2822.942585,159,right,0.812695,gloves      ,4,6,-1,0,0,2822.949395,2822.949395,2825.44206,0,4,4,4,1,159,5,4,wolf          ,gloves      ,html/resources/sequences_IDs/A/01_wolf.jpg,html/resources/sequences_IDs/B/06_gloves.jpg,1,6,1,1,3,2,1,5,0,38,,,,,,,,,,,,,,,,,,,,
,,,,,38,2020-07-03_15h58.53.322,retriever_ti,2020.1.3,Win32,60,Chrome,1920,1080,,,,,,,,,,,,,,,,,3,,,,,,,,,,,,,,,,,,,,,,,,,,,2826.53302,160,left,0.606735,gloves      ,4,6,-4,0,3,2826.540325,2826.540325,2829.032975,0,5,5,5,1,160,4,8,gloves      ,sport_tshirt,html/resources/sequences_IDs/B/06_gloves.jpg,html/resources/sequences_IDs/B/07_sport_tshirt.jpg,6,7,3,2,3,2,5,6,0,38,,,,,,,,,,,,,,,,,,,,
,,,,,38,2020-07-03_15h58.53.322,retriever_ti,2020.1.3,Win32,60,Chrome,1920,1080,,,,,,,,,,,,,,,,,3,,,,,,,,,,,,,,,,,,,,,,,,,,,2829.637935,161,left,1.074835,sport_tshirt,8,7,7,1,3,2829.6519,2829.6519,2832.14467,0,6,6,6,1,161,8,1,sport_tshirt,camel         ,html/resources/sequences_IDs/B/07_sport_tshirt.jpg,html/resources/sequences_IDs/A/03_camel.jpg,7,3,3,2,1,1,6,3,0,38,,,,,,,,,,,,,,,,,,,,
,,,,,38,2020-07-03_15h58.53.322,retriever_ti,2020.1.3,Win32,60,Chrome,1920,1080,,,,,,,,,,,,,,,,,3,,,,,,,,,,,,,,,,,,,,,,,,,,,2832.74944,162,left,1.10065,calculator    ,7,9,4,1,3,2832.75676,2832.75676,2835.249435,0,7,7,7,1,162,7,3,calculator    ,hat           ,html/resources/sequences_IDs/A/09_calculator.jpg,html/resources/sequences_IDs/A/08_hat.jpg,9,8,4,2,3,2,8,7,0,38,,,,,,,,,,,,,,,,,,,,
,,,,,38,2020-07-03_15h58.53.322,retriever_ti,2020.1.3,Win32,60,Chrome,1920,1080,,,,,,,,,,,,,,,,,3,,,,,,,,,,,,,,,,,,,,,,,,,,,2835.854445,163,left,1.044945,holdfast    ,2,4,-3,0,3,2835.861605,2835.861605,2838.35418,0,8,8,8,1,163,2,5,holdfast    ,wolf          ,html/resources/sequences_IDs/B/04_holdfast.jpg,html/resources/sequences_IDs/A/01_wolf.jpg,4,1,2,1,1,1,4,1,0,38,,,,,,,,,,,,,,,,,,,,
,,,,,38,2020-07-03_15h58.53.322,retriever_ti,2020.1.3,Win32,60,Chrome,1920,1080,,,,,,,,,,,,,,,,,3,,,,,,,,,,,,,,,,,,,,,,,,,,,2838.95881,164,right,0.55018,holdfast    ,2,4,-2,0,3,2838.96641,2838.96641,2841.458925,0,9,9,9,1,164,4,2,gloves      ,holdfast    ,html/resources/sequences_IDs/B/06_gloves.jpg,html/resources/sequences_IDs/B/04_holdfast.jpg,6,4,3,2,2,1,5,4,0,38,,,,,,,,,,,,,,,,,,,,
,,,,,38,2020-07-03_15h58.53.322,retriever_ti,2020.1.3,Win32,60,Chrome,1920,1080,,,,,,,,,,,,,,,,,3,,,,,,,,,,,,,,,,,,,,,,,,,,,2842.063925,165,left,0.717725,hat           ,3,8,-2,0,3,2842.07787,2842.07787,2844.570615,0,10,10,10,1,165,3,5,hat           ,wolf          ,html/resources/sequences_IDs/A/08_hat.jpg,html/resources/sequences_IDs/A/01_wolf.jpg,8,1,3,2,1,1,7,1,0,38,,,,,,,,,,,,,,,,,,,,
,,,,,38,2020-07-03_15h58.53.322,retriever_ti,2020.1.3,Win32,60,Chrome,1920,1080,,,,,,,,,,,,,,,,,3,,,,,,,,,,,,,,,,,,,,,,,,,,,2845.17529,166,left,0.75893,holdfast    ,2,4,-4,0,3,2845.182655,2845.182655,2847.67542,0,11,11,11,1,166,2,6,holdfast    ,dolphin     ,html/resources/sequences_IDs/B/04_holdfast.jpg,html/resources/sequences_IDs/B/02_dolphin.jpg,4,2,2,1,1,1,4,2,0,38,,,,,,,,,,,,,,,,,,,,
,,,,,38,2020-07-03_15h58.53.322,retriever_ti,2020.1.3,Win32,60,Chrome,1920,1080,,,,,,,,,,,,,,,,,3,,,,,,,,,,,,,,,,,,,,,,,,,,,2848.28027,167,left,0.97869,hat           ,3,8,2,1,3,2848.287615,2848.287615,2850.78016,0,12,12,12,1,167,3,1,hat           ,camel         ,html/resources/sequences_IDs/A/08_hat.jpg,html/resources/sequences_IDs/A/03_camel.jpg,8,3,3,2,1,1,7,3,0,38,,,,,,,,,,,,,,,,,,,,
,,,,,38,2020-07-03_15h58.53.322,retriever_ti,2020.1.3,Win32,60,Chrome,1920,1080,,,,,,,,,,,,,,,,,3,,,,,,,,,,,,,,,,,,,,,,,,,,,2851.384845,168,NaN,NaN,No_response,NaN,NaN,NaN,2,2,2851.39937,2851.39937,2853.892,0,13,13,13,1,168,6,8,dolphin     ,sport_tshirt,html/resources/sequences_IDs/B/02_dolphin.jpg,html/resources/sequences_IDs/B/07_sport_tshirt.jpg,2,7,1,1,3,2,2,6,0,38,,,,,,,,,,,,,,,,,,,,
,,,,,38,2020-07-03_15h58.53.322,retriever_ti,2020.1.3,Win32,60,Chrome,1920,1080,,,,,,,,,,,,,,,,,3,,,,,,,,,,,,,,,,,,,,,,,,,,,2854.983095,169,left,0.50777,hat           ,3,8,-1,0,1,2854.990025,2854.990025,2857.48273,0,14,14,14,1,169,3,4,hat           ,gloves      ,html/resources/sequences_IDs/A/08_hat.jpg,html/resources/sequences_IDs/B/06_gloves.jpg,8,6,3,2,3,2,7,5,1,38,,,,,,,,,,,,,,,,,,,,
,,,,,38,2020-07-03_15h58.53.322,retriever_ti,2020.1.3,Win32,60,Chrome,1920,1080,,,,,,,,,,,,,,,,,3,,,,,,,,,,,,,,,,,,,,,,,,,,,2858.573585,170,right,0.77653,calculator    ,7,9,3,1,3,2858.58106,2858.58106,2861.073765,0,15,15,15,1,170,4,7,gloves      ,calculator    ,html/resources/sequences_IDs/B/06_gloves.jpg,html/resources/sequences_IDs/A/09_calculator.jpg,6,9,3,2,4,2,5,8,0,38,,,,,,,,,,,,,,,,,,,,
,,,,,38,2020-07-03_15h58.53.322,retriever_ti,2020.1.3,Win32,60,Chrome,1920,1080,,,,,,,,,,,,,,,,,3,,,,,,,,,,,,,,,,,,,,,,,,,,,2861.67869,171,left,0.625455,hat           ,3,8,1,1,0,2861.685925,2861.685925,2864.1785,0,16,16,16,1,171,3,2,hat           ,holdfast    ,html/resources/sequences_IDs/A/08_hat.jpg,html/resources/sequences_IDs/B/04_holdfast.jpg,8,4,3,2,2,1,7,4,1,38,,,,,,,,,,,,,,,,,,,,
,,,,,38,2020-07-03_15h58.53.322,retriever_ti,2020.1.3,Win32,60,Chrome,1920,1080,,,,,,,,,,,,,,,,,3,,,,,,,,,,,,,,,,,,,,,,,,,,,2865.26955,172,left,0.566365,camel         ,1,3,-6,0,3,2865.276735,2865.276735,2867.76942,0,17,17,17,1,172,1,7,camel         ,calculator    ,html/resources/sequences_IDs/A/03_camel.jpg,html/resources/sequences_IDs/A/09_calculator.jpg,3,9,1,1,4,2,3,8,0,38,,,,,,,,,,,,,,,,,,,,
,,,,,38,2020-07-03_15h58.53.322,retriever_ti,2020.1.3,Win32,60,Chrome,1920,1080,,,,,,,,,,,,,,,,,3,,,,,,,,,,,,,,,,,,,,,,,,,,,2868.374495,173,right,0.6704,holdfast    ,2,4,-6,0,3,2868.388425,2868.388425,2870.881105,0,18,18,18,1,173,8,2,sport_tshirt,holdfast    ,html/resources/sequences_IDs/B/07_sport_tshirt.jpg,html/resources/sequences_IDs/B/04_holdfast.jpg,7,4,3,2,2,1,6,4,0,38,,,,,,,,,,,,,,,,,,,,
,,,,,38,2020-07-03_15h58.53.322,retriever_ti,2020.1.3,Win32,60,Chrome,1920,1080,,,,,,,,,,,,,,,,,3,,,,,,,,,,,,,,,,,,,,,,,,,,,2871.485705,174,right,0.74478,holdfast    ,2,4,-3,0,3,2871.50005,2871.50005,2873.992725,0,19,19,19,1,174,5,2,wolf          ,holdfast    ,html/resources/sequences_IDs/A/01_wolf.jpg,html/resources/sequences_IDs/B/04_holdfast.jpg,1,4,1,1,2,1,1,4,0,38,,,,,,,,,,,,,,,,,,,,
,,,,,38,2020-07-03_15h58.53.322,retriever_ti,2020.1.3,Win32,60,Chrome,1920,1080,,,,,,,,,,,,,,,,,3,,,,,,,,,,,,,,,,,,,,,,,,,,,2874.59771,175,left,0.659385,hat           ,3,8,-3,0,3,2874.611685,2874.611685,2877.104485,0,20,20,20,1,175,3,6,hat           ,dolphin     ,html/resources/sequences_IDs/A/08_hat.jpg,html/resources/sequences_IDs/B/02_dolphin.jpg,8,2,3,2,1,1,7,2,0,38,,,,,,,,,,,,,,,,,,,,
,,,,,38,2020-07-03_15h58.53.322,retriever_ti,2020.1.3,Win32,60,Chrome,1920,1080,,,,,,,,,,,,,,,,,3,,,,,,,,,,,,,,,,,,,,,,,,,,,2877.70921,176,right,0.59781,calculator    ,7,9,5,1,3,2877.723565,2877.723565,2880.21622,0,21,21,21,1,176,2,7,holdfast    ,calculator    ,html/resources/sequences_IDs/B/04_holdfast.jpg,html/resources/sequences_IDs/A/09_calculator.jpg,4,9,2,1,4,2,4,8,0,38,,,,,,,,,,,,,,,,,,,,
,,,,,38,2020-07-03_15h58.53.322,retriever_ti,2020.1.3,Win32,60,Chrome,1920,1080,,,,,,,,,,,,,,,,,3,,,,,,,,,,,,,,,,,,,,,,,,,,,2880.821165,177,right,0.70563,camel         ,1,3,-4,0,3,2880.828225,2880.828225,2883.32097,0,22,22,22,1,177,5,1,wolf          ,camel         ,html/resources/sequences_IDs/A/01_wolf.jpg,html/resources/sequences_IDs/A/03_camel.jpg,1,3,1,1,1,1,1,3,0,38,,,,,,,,,,,,,,,,,,,,
,,,,,38,2020-07-03_15h58.53.322,retriever_ti,2020.1.3,Win32,60,Chrome,1920,1080,,,,,,,,,,,,,,,,,3,,,,,,,,,,,,,,,,,,,,,,,,,,,2883.925645,178,right,0.678255,gloves      ,4,6,-1,0,0,2883.93305,2883.93305,2886.425785,0,23,23,23,1,178,5,4,wolf          ,gloves      ,html/resources/sequences_IDs/A/01_wolf.jpg,html/resources/sequences_IDs/B/06_gloves.jpg,1,6,1,1,3,2,1,5,0,38,,,,,,,,,,,,,,,,,,,,
,,,,,38,2020-07-03_15h58.53.322,retriever_ti,2020.1.3,Win32,60,Chrome,1920,1080,,,,,,,,,,,,,,,,,3,,,,,,,,,,,,,,,,,,,,,,,,,,,2887.516925,179,left,0.333,hat           ,3,8,-1,0,0,2887.531025,2887.531025,2890.0236,0,24,24,24,1,179,3,4,hat           ,gloves      ,html/resources/sequences_IDs/A/08_hat.jpg,html/resources/sequences_IDs/B/06_gloves.jpg,8,6,3,2,3,2,7,5,0,38,,,,,,,,,,,,,,,,,,,,
,,,,,38,2020-07-03_15h58.53.322,retriever_ti,2020.1.3,Win32,60,Chrome,1920,1080,,,,,,,,,,,,,,,,,3,,,,,,,,,,,,,,,,,,,,,,,,,,,2891.114315,180,right,0.48049,wolf          ,5,1,-1,0,0,2891.121945,2891.121945,2893.61445,0,25,25,25,1,180,6,5,dolphin     ,wolf          ,html/resources/sequences_IDs/B/02_dolphin.jpg,html/resources/sequences_IDs/A/01_wolf.jpg,2,1,1,1,1,1,2,1,0,38,,,,,,,,,,,,,,,,,,,,
,,,,,38,2020-07-03_15h58.53.322,retriever_ti,2020.1.3,Win32,60,Chrome,1920,1080,,,,,,,,,,,,,,,,,3,,,,,,,,,,,,,,,,,,,,,,,,,,,2894.70601,181,left,0.35893,hat           ,3,8,1,1,1,2894.712655,2894.712655,2897.20568,0,26,26,26,1,181,3,2,hat           ,holdfast    ,html/resources/sequences_IDs/A/08_hat.jpg,html/resources/sequences_IDs/B/04_holdfast.jpg,8,4,3,2,2,1,7,4,0,38,,,,,,,,,,,,,,,,,,,,
,,,,,38,2020-07-03_15h58.53.322,retriever_ti,2020.1.3,Win32,60,Chrome,1920,1080,,,,,,,,,,,,,,,,,3,,,,,,,,,,,,,,,,,,,,,,,,,,,2898.29623,182,left,1.3083,sport_tshirt,8,7,1,1,1,2898.310775,2898.310775,2900.80344,0,27,27,27,1,182,8,7,sport_tshirt,calculator    ,html/resources/sequences_IDs/B/07_sport_tshirt.jpg,html/resources/sequences_IDs/A/09_calculator.jpg,7,9,3,2,4,2,6,8,0,38,,,,,,,,,,,,,,,,,,,,
,,,,,38,2020-07-03_15h58.53.322,retriever_ti,2020.1.3,Win32,60,Chrome,1920,1080,,,,,,,,,,,,,,,,,3,,,,,,,,,,,,,,,,,,,,,,,,,,,2901.894665,183,left,1.04493,dolphin     ,6,2,-1,0,0,2901.90877,2901.90877,2904.40121,0,28,28,28,1,183,6,7,dolphin     ,calculator    ,html/resources/sequences_IDs/B/02_dolphin.jpg,html/resources/sequences_IDs/A/09_calculator.jpg,2,9,1,1,4,2,2,8,0,38,,,,,,,,,,,,,,,,,,,,
,,,,,38,2020-07-03_15h58.53.322,retriever_ti,2020.1.3,Win32,60,Chrome,1920,1080,,,,,,,,,,,,,,,,,3,,,,,,,,,,,,,,,,,,,,,,,,,,,2905.4921,184,right,1.443215,wolf          ,5,1,1,1,1,2905.50652,2905.50652,2907.99914,0,29,29,29,1,184,4,5,gloves      ,wolf          ,html/resources/sequences_IDs/B/06_gloves.jpg,html/resources/sequences_IDs/A/01_wolf.jpg,6,1,3,2,1,1,5,1,0,38,,,,,,,,,,,,,,,,,,,,
,,,,,38,2020-07-03_15h58.53.322,retriever_ti,2020.1.3,Win32,60,Chrome,1920,1080,,,,,,,,,,,,,,,,,3,,,,,,,,,,,,,,,,,,,,,,,,,,,2909.09038,185,left,0.78407,holdfast    ,2,4,1,1,1,2909.097365,2909.097365,2911.59015,0,30,30,30,1,185,2,1,holdfast    ,camel         ,html/resources/sequences_IDs/B/04_holdfast.jpg,html/resources/sequences_IDs/A/03_camel.jpg,4,3,2,1,1,1,4,3,0,38,,,,,,,,,,,,,,,,,,,,
,,,,,38,2020-07-03_15h58.53.322,retriever_ti,2020.1.3,Win32,60,Chrome,1920,1080,,,,,,,,,,,,,,,,,3,,,,,,,,,,,,,,,,,,,,,,,,,,,2912.681115,186,left,0.607105,holdfast    ,2,4,-1,0,0,2912.695345,2912.695345,2915.187995,0,31,31,31,1,186,2,3,holdfast    ,hat           ,html/resources/sequences_IDs/B/04_holdfast.jpg,html/resources/sequences_IDs/A/08_hat.jpg,4,8,2,1,3,2,4,7,0,38,,,,,,,,,,,,,,,,,,,,
,,,,,38,2020-07-03_15h58.53.322,retriever_ti,2020.1.3,Win32,60,Chrome,1920,1080,,,,,,,,,,,,,,,,,3,,,,,,,,,,,,,,,,,,,,,,,,,,,2916.279075,187,right,0.519025,hat           ,3,8,-5,0,3,2916.286155,2916.286155,2918.77521,0,32,32,32,1,187,8,3,sport_tshirt,hat           ,html/resources/sequences_IDs/B/07_sport_tshirt.jpg,html/resources/sequences_IDs/A/08_hat.jpg,7,8,3,2,3,2,6,7,0,38,,,,,,,,,,,,,,,,,,,,
,,,,,38,2020-07-03_15h58.53.322,retriever_ti,2020.1.3,Win32,60,Chrome,1920,1080,,,,,,,,,,,,,,,,,3,,,,,,,,,,,,,,,,,,,,,,,,,,,2919.376595,188,left,0.56668,holdfast    ,2,4,-6,0,3,2919.391115,2919.391115,2921.88383,0,33,33,33,1,188,2,8,holdfast    ,sport_tshirt,html/resources/sequences_IDs/B/04_holdfast.jpg,html/resources/sequences_IDs/B/07_sport_tshirt.jpg,4,7,2,1,3,2,4,6,0,38,,,,,,,,,,,,,,,,,,,,
,,,,,38,2020-07-03_15h58.53.322,retriever_ti,2020.1.3,Win32,60,Chrome,1920,1080,,,,,,,,,,,,,,,,,3,,,,,,,,,,,,,,,,,,,,,,,,,,,2922.488745,189,right,0.577045,calculator    ,7,9,1,1,1,2922.49589,2922.49589,2924.988475,0,34,34,34,1,189,6,7,dolphin     ,calculator    ,html/resources/sequences_IDs/B/02_dolphin.jpg,html/resources/sequences_IDs/A/09_calculator.jpg,2,9,1,1,4,2,2,8,0,38,,,,,,,,,,,,,,,,,,,,
,,,,,38,2020-07-03_15h58.53.322,retriever_ti,2020.1.3,Win32,60,Chrome,1920,1080,,,,,,,,,,,,,,,,,3,,,,,,,,,,,,,,,,,,,,,,,,,,,2926.079455,190,left,0.670395,gloves      ,4,6,3,1,3,2926.093605,2926.093605,2928.58641,0,35,35,35,1,190,4,1,gloves      ,camel         ,html/resources/sequences_IDs/B/06_gloves.jpg,html/resources/sequences_IDs/A/03_camel.jpg,6,3,3,2,1,1,5,3,0,38,,,,,,,,,,,,,,,,,,,,
,,,,,38,2020-07-03_15h58.53.322,retriever_ti,2020.1.3,Win32,60,Chrome,1920,1080,,,,,,,,,,,,,,,,,3,,,,,,,,,,,,,,,,,,,,,,,,,,,2929.191345,191,right,0.60865,hat           ,3,8,-1,0,0,2929.198365,2929.198365,2931.69109,0,36,36,36,1,191,4,3,gloves      ,hat           ,html/resources/sequences_IDs/B/06_gloves.jpg,html/resources/sequences_IDs/A/08_hat.jpg,6,8,3,2,3,2,5,7,0,38,,,,,,,,,,,,,,,,,,,,
,,,,,38,2020-07-03_15h58.53.322,retriever_ti,2020.1.3,Win32,60,Chrome,1920,1080,,,,,,,,,,,,,,,,,3,,,,,,,,,,,,,,,,,,,,,,,,,,,2932.78203,192,right,0.68822,calculator    ,7,9,-1,0,0,2932.796305,2932.796305,2935.289035,0,37,37,37,1,192,8,7,sport_tshirt,calculator    ,html/resources/sequences_IDs/B/07_sport_tshirt.jpg,html/resources/sequences_IDs/A/09_calculator.jpg,7,9,3,2,4,2,6,8,0,38,,,,,,,,,,,,,,,,,,,,
,,,,,38,2020-07-03_15h58.53.322,retriever_ti,2020.1.3,Win32,60,Chrome,1920,1080,,,,,,,,,,,,,,,,,3,,,,,,,,,,,,,,,,,,,,,,,,,,,2936.380295,193,right,0.523585,sport_tshirt,8,7,3,1,3,2936.387355,2936.387355,2938.87989,0,38,38,38,1,193,5,8,wolf          ,sport_tshirt,html/resources/sequences_IDs/A/01_wolf.jpg,html/resources/sequences_IDs/B/07_sport_tshirt.jpg,1,7,1,1,3,2,1,6,0,38,,,,,,,,,,,,,,,,,,,,
,,,,,38,2020-07-03_15h58.53.322,retriever_ti,2020.1.3,Win32,60,Chrome,1920,1080,,,,,,,,,,,,,,,,,3,,,,,,,,,,,,,,,,,,,,,,,,,,,2939.484555,194,right,0.711315,dolphin     ,6,2,-1,0,1,2939.499065,2939.499065,2941.991555,0,39,39,39,1,194,7,6,calculator    ,dolphin     ,html/resources/sequences_IDs/A/09_calculator.jpg,html/resources/sequences_IDs/B/02_dolphin.jpg,9,2,4,2,1,1,8,2,1,38,,,,,,,,,,,,,,,,,,,,
,,,,,38,2020-07-03_15h58.53.322,retriever_ti,2020.1.3,Win32,60,Chrome,1920,1080,,,,,,,,,,,,,,,,,3,,,,,,,,,,,,,,,,,,,,,,,,,,,2943.08429,195,right,0.64711,camel         ,1,3,-1,0,1,2943.097285,2943.097285,2945.589475,0,40,40,40,1,195,2,1,holdfast    ,camel         ,html/resources/sequences_IDs/B/04_holdfast.jpg,html/resources/sequences_IDs/A/03_camel.jpg,4,3,2,1,1,1,4,3,1,38,,,,,,,,,,,,,,,,,,,,
,,,,,38,2020-07-03_15h58.53.322,retriever_ti,2020.1.3,Win32,60,Chrome,1920,1080,,,,,,,,,,,,,,,,,3,,,,,,,,,,,,,,,,,,,,,,,,,,,2946.6805,196,left,0.61886,hat           ,3,8,-1,0,0,2946.687795,2946.687795,2949.180435,0,41,41,41,1,196,3,4,hat           ,gloves      ,html/resources/sequences_IDs/A/08_hat.jpg,html/resources/sequences_IDs/B/06_gloves.jpg,8,6,3,2,3,2,7,5,0,38,,,,,,,,,,,,,,,,,,,,
,,,,,38,2020-07-03_15h58.53.322,retriever_ti,2020.1.3,Win32,60,Chrome,1920,1080,,,,,,,,,,,,,,,,,3,,,,,,,,,,,,,,,,,,,,,,,,,,,2950.27163,197,right,0.506975,holdfast    ,2,4,-5,0,3,2950.28592,2950.28592,2952.77838,0,42,42,42,1,197,7,2,calculator    ,holdfast    ,html/resources/sequences_IDs/A/09_calculator.jpg,html/resources/sequences_IDs/B/04_holdfast.jpg,9,4,4,2,2,1,8,4,0,38,,,,,,,,,,,,,,,,,,,,
,,,,,38,2020-07-03_15h58.53.322,retriever_ti,2020.1.3,Win32,60,Chrome,1920,1080,,,,,,,,,,,,,,,,,3,,,,,,,,,,,,,,,,,,,,,,,,,,,2953.3829,198,right,0.4541,holdfast    ,2,4,1,1,1,2953.39741,2953.39741,2955.890095,0,43,43,43,1,198,1,2,camel         ,holdfast    ,html/resources/sequences_IDs/A/03_camel.jpg,html/resources/sequences_IDs/B/04_holdfast.jpg,3,4,1,1,2,1,3,4,0,38,,,,,,,,,,,,,,,,,,,,
,,,,,38,2020-07-03_15h58.53.322,retriever_ti,2020.1.3,Win32,60,Chrome,1920,1080,,,,,,,,,,,,,,,,,3,,,,,,,,,,,,,,,,,,,,,,,,,,,2956.981255,199,left,0.63568,calculator    ,7,9,3,1,3,2956.988565,2956.988565,2959.481065,0,44,44,44,1,199,7,4,calculator    ,gloves      ,html/resources/sequences_IDs/A/09_calculator.jpg,html/resources/sequences_IDs/B/06_gloves.jpg,9,6,4,2,3,2,8,5,0,38,,,,,,,,,,,,,,,,,,,,
,,,,,38,2020-07-03_15h58.53.322,retriever_ti,2020.1.3,Win32,60,Chrome,1920,1080,,,,,,,,,,,,,,,,,3,,,,,,,,,,,,,,,,,,,,,,,,,,,2960.086175,200,right,0.573225,dolphin     ,6,2,5,1,3,2960.09314,2960.09314,2962.58569,0,45,45,45,1,200,1,6,camel         ,dolphin     ,html/resources/sequences_IDs/A/03_camel.jpg,html/resources/sequences_IDs/B/02_dolphin.jpg,3,2,1,1,1,1,3,2,0,38,,,,,,,,,,,,,,,,,,,,
,,,,,38,2020-07-03_15h58.53.322,retriever_ti,2020.1.3,Win32,60,Chrome,1920,1080,,,,,,,,,,,,,,,,,3,,,,,,,,,,,,,,,,,,,,,,,,,,,2963.190645,201,right,0.4817,dolphin     ,6,2,-2,0,3,2963.1977,2963.1977,2965.690515,0,46,46,46,1,201,8,6,sport_tshirt,dolphin     ,html/resources/sequences_IDs/B/07_sport_tshirt.jpg,html/resources/sequences_IDs/B/02_dolphin.jpg,7,2,3,2,1,1,6,2,0,38,,,,,,,,,,,,,,,,,,,,
,,,,,38,2020-07-03_15h58.53.322,retriever_ti,2020.1.3,Win32,60,Chrome,1920,1080,,,,,,,,,,,,,,,,,3,,,,,,,,,,,,,,,,,,,,,,,,,,,2966.29513,202,left,0.60993,calculator    ,7,9,2,1,3,2966.302595,2966.302595,2968.79519,0,47,47,47,1,202,7,5,calculator    ,wolf          ,html/resources/sequences_IDs/A/09_calculator.jpg,html/resources/sequences_IDs/A/01_wolf.jpg,9,1,4,2,1,1,8,1,0,38,,,,,,,,,,,,,,,,,,,,
,,,,,38,2020-07-03_15h58.53.322,retriever_ti,2020.1.3,Win32,60,Chrome,1920,1080,,,,,,,,,,,,,,,,,3,,,,,,,,,,,,,,,,,,,,,,,,,,,2969.40025,203,right,0.68331,hat           ,3,8,-3,0,3,2969.41409,2969.41409,2971.907,0,48,48,48,1,203,6,3,dolphin     ,hat           ,html/resources/sequences_IDs/B/02_dolphin.jpg,html/resources/sequences_IDs/A/08_hat.jpg,2,8,1,1,3,2,2,7,0,38,,,,,,,,,,,,,,,,,,,,
,,,,,38,2020-07-03_15h58.53.322,retriever_ti,2020.1.3,Win32,60,Chrome,1920,1080,,,,,,,,,,,,,,,,,3,,,,,,,,,,,,,,,,,,,,,,,,,,,2972.51155,204,left,0.632455,calculator    ,7,9,1,1,1,2972.52595,2972.52595,2975.018605,0,49,49,49,1,204,7,6,calculator    ,dolphin     ,html/resources/sequences_IDs/A/09_calculator.jpg,html/resources/sequences_IDs/B/02_dolphin.jpg,9,2,4,2,1,1,8,2,0,38,,,,,,,,,,,,,,,,,,,,
,,,,,38,2020-07-03_15h58.53.322,retriever_ti,2020.1.3,Win32,60,Chrome,1920,1080,,,,,,,,,,,,,,,,,3,,,,,,,,,,,,,,,,,,,,,,,,,,,2976.109725,205,left,0.615465,dolphin     ,6,2,2,1,3,2976.123885,2976.123885,2978.616685,0,50,50,50,1,205,6,4,dolphin     ,gloves      ,html/resources/sequences_IDs/B/02_dolphin.jpg,html/resources/sequences_IDs/B/06_gloves.jpg,2,6,1,1,3,2,2,5,0,38,,,,,,,,,,,,,,,,,,,,
,,,,,38,2020-07-03_15h58.53.322,retriever_ti,2020.1.3,Win32,60,Chrome,1920,1080,,,,,,,,,,,,,,,,,3,,,,,,,,,,,,,,,,,,,,,,,,,,,2979.221095,206,right,0.374535,holdfast    ,2,4,-4,0,3,2979.22849,2979.22849,2981.72127,0,51,51,51,1,206,6,2,dolphin     ,holdfast    ,html/resources/sequences_IDs/B/02_dolphin.jpg,html/resources/sequences_IDs/B/04_holdfast.jpg,2,4,1,1,2,1,2,4,0,38,,,,,,,,,,,,,,,,,,,,
,,,,,38,2020-07-03_15h58.53.322,retriever_ti,2020.1.3,Win32,60,Chrome,1920,1080,,,,,,,,,,,,,,,,,3,,,,,,,,,,,,,,,,,,,,,,,,,,,2982.326245,207,right,0.783715,holdfast    ,2,4,-1,0,0,2982.340305,2982.340305,2984.833025,0,52,52,52,1,207,3,2,hat           ,holdfast    ,html/resources/sequences_IDs/A/08_hat.jpg,html/resources/sequences_IDs/B/04_holdfast.jpg,8,4,3,2,2,1,7,4,0,38,,,,,,,,,,,,,,,,,,,,
,,,,,38,2020-07-03_15h58.53.322,retriever_ti,2020.1.3,Win32,60,Chrome,1920,1080,,,,,,,,,,,,,,,,,3,,,,,,,,,,,,,,,,,,,,,,,,,,,2985.923785,208,left,0.57068,wolf          ,5,1,-2,0,3,2985.931205,2985.931205,2988.423815,0,53,53,53,1,208,5,7,wolf          ,calculator    ,html/resources/sequences_IDs/A/01_wolf.jpg,html/resources/sequences_IDs/A/09_calculator.jpg,1,9,1,1,4,2,1,8,0,38,,,,,,,,,,,,,,,,,,,,
,,,,,38,2020-07-03_15h58.53.322,retriever_ti,2020.1.3,Win32,60,Chrome,1920,1080,,,,,,,,,,,,,,,,,3,,,,,,,,,,,,,,,,,,,,,,,,,,,2989.02891,209,left,0.773255,wolf          ,5,1,-1,0,0,2989.042885,2989.042885,2991.535555,0,54,54,54,1,209,5,6,wolf          ,dolphin     ,html/resources/sequences_IDs/A/01_wolf.jpg,html/resources/sequences_IDs/B/02_dolphin.jpg,1,2,1,1,1,1,1,2,0,38,,,,,,,,,,,,,,,,,,,,
,,,,,38,2020-07-03_15h58.53.322,retriever_ti,2020.1.3,Win32,60,Chrome,1920,1080,,,,,,,,,,,,,,,,,3,,,,,,,,,,,,,,,,,,,,,,,,,,,2992.62633,210,left,0.68147,calculator    ,7,9,-1,0,0,2992.640795,2992.640795,2995.133635,0,55,55,55,1,210,7,8,calculator    ,sport_tshirt,html/resources/sequences_IDs/A/09_calculator.jpg,html/resources/sequences_IDs/B/07_sport_tshirt.jpg,9,7,4,2,3,2,8,6,0,38,,,,,,,,,,,,,,,,,,,,
,,,,,38,2020-07-03_15h58.53.322,retriever_ti,2020.1.3,Win32,60,Chrome,1920,1080,,,,,,,,,,,,,,,,,3,,,,,,,,,,,,,,,,,,,,,,,,,,,2996.224795,211,right,0.72496,sport_tshirt,8,7,5,1,3,2996.23872,2996.23872,2998.731405,0,56,56,56,1,211,3,8,hat           ,sport_tshirt,html/resources/sequences_IDs/A/08_hat.jpg,html/resources/sequences_IDs/B/07_sport_tshirt.jpg,8,7,3,2,3,2,7,6,0,38,,,,,,,,,,,,,,,,,,,,
,,,,,38,2020-07-03_15h58.53.322,retriever_ti,2020.1.3,Win32,60,Chrome,1920,1080,,,,,,,,,,,,,,,,,3,,,,,,,,,,,,,,,,,,,,,,,,,,,2999.335935,212,left,0.6887,dolphin     ,6,2,1,1,0,2999.343605,2999.343605,3001.836115,0,57,57,57,1,212,6,5,dolphin     ,wolf          ,html/resources/sequences_IDs/B/02_dolphin.jpg,html/resources/sequences_IDs/A/01_wolf.jpg,2,1,1,1,1,1,2,1,1,38,,,,,,,,,,,,,,,,,,,,
,,,,,38,2020-07-03_15h58.53.322,retriever_ti,2020.1.3,Win32,60,Chrome,1920,1080,,,,,,,,,,,,,,,,,3,,,,,,,,,,,,,,,,,,,,,,,,,,,3002.927435,213,right,0.99647,camel         ,1,3,-6,0,3,3002.941775,3002.941775,3005.43407,0,58,58,58,1,213,7,1,calculator    ,camel         ,html/resources/sequences_IDs/A/09_calculator.jpg,html/resources/sequences_IDs/A/03_camel.jpg,9,3,4,2,1,1,8,3,0,38,,,,,,,,,,,,,,,,,,,,
