instructionsLoop.thisRepN,instructionsLoop.thisTrialN,instructionsLoop.thisN,instructionsLoop.thisIndex,instructionsLoop.ran,participant,date,expName,psychopyVersion,OS,frameRate,browser,xResolution,yResolution,fix_onset,tprac,practiceKey.keys,practiceKey.rt,pracitem_chosen_name,acc_practice,P1_onsetPrac,P2_onsetPrac,onsetFeedbPrac,practiceTrials.thisRepN,practiceTrials.thisTrialN,practiceTrials.thisN,practiceTrials.thisIndex,practiceTrials.ran,P1,P2,Block,LocItem1,LocItem2,NameItem1,NameItem2,key_respAC_prac.keys,key_respAC_prac.corr,key_respAC_prac.rt,AC_acc,Attentions.thisRepN,Attentions.thisTrialN,Attentions.thisN,Attentions.thisIndex,Attentions.ran,Stim,Loc1,Loc2,Loc3,Loc4,CorrAns,keyDisturbed.keys,keyDisturbed.rt,repPractice.thisRepN,repPractice.thisTrialN,repPractice.thisN,repPractice.thisIndex,repPractice.ran,fixcross_onsetMain,trialNumber,key_resp.keys,key_resp.rt,item_chosen_name,item_chosen_value,item_chosen_ID,diff_chosen_minus_reject,acc_real,acc_feedback,P1_onset,P2_onset,feedb_onset,trials.thisRepN,trials.thisTrialN,trials.thisN,trials.thisIndex,trials.ran,Trial,ValueP1,ValueP2,P1name,P2name,P1Loc,P2Loc,P1id,P2id,Micro_categoryP1,Macro_categoryP1,Micro_categoryP2,Macro_categoryP2,ID_sequenceP1,ID_sequenceP2,InverseFb,pNumber,repBlocks.thisRepN,repBlocks.thisTrialN,repBlocks.thisN,repBlocks.thisIndex,repBlocks.ran,key_respAC.keys,key_respAC.corr,key_respAC.rt,trials_AC.thisRepN,trials_AC.thisTrialN,trials_AC.thisN,trials_AC.thisIndex,trials_AC.ran,Bonus,BonusLoop.thisRepN,BonusLoop.thisTrialN,BonusLoop.thisN,BonusLoop.thisIndex,BonusLoop.ran,comments
0,0,0,0,1,39,2020-07-03_17h15.16.858,retriever_ti,2020.1.3,Win32,60,Chrome,1366,768,,,,,,,,,,,,,,,,,,,,,,,,,,,,,,,,,,,,,,,,,,,,,,,,,,,,,,,,,,,,,,,,,,,,,,,,,,,,,,,,,,,,,,,,,,,,,,,,,,
1,0,1,0,1,39,2020-07-03_17h15.16.858,retriever_ti,2020.1.3,Win32,60,Chrome,1366,768,,,,,,,,,,,,,,,,,,,,,,,,,,,,,,,,,,,,,,,,,,,,,,,,,,,,,,,,,,,,,,,,,,,,,,,,,,,,,,,,,,,,,,,,,,,,,,,,,,
2,0,2,0,1,39,2020-07-03_17h15.16.858,retriever_ti,2020.1.3,Win32,60,Chrome,1366,768,,,,,,,,,,,,,,,,,,,,,,,,,,,,,,,,,,,,,,,,,,,,,,,,,,,,,,,,,,,,,,,,,,,,,,,,,,,,,,,,,,,,,,,,,,,,,,,,,,
3,0,3,0,1,39,2020-07-03_17h15.16.858,retriever_ti,2020.1.3,Win32,60,Chrome,1366,768,,,,,,,,,,,,,,,,,,,,,,,,,,,,,,,,,,,,,,,,,,,,,,,,,,,,,,,,,,,,,,,,,,,,,,,,,,,,,,,,,,,,,,,,,,,,,,,,,,
4,0,4,0,1,39,2020-07-03_17h15.16.858,retriever_ti,2020.1.3,Win32,60,Chrome,1366,768,,,,,,,,,,,,,,,,,,,,,,,,,,,,,,,,,,,,,,,,,,,,,,,,,,,,,,,,,,,,,,,,,,,,,,,,,,,,,,,,,,,,,,,,,,,,,,,,,,
5,0,5,0,1,39,2020-07-03_17h15.16.858,retriever_ti,2020.1.3,Win32,60,Chrome,1366,768,,,,,,,,,,,,,,,,,,,,,,,,,,,,,,,,,,,,,,,,,,,,,,,,,,,,,,,,,,,,,,,,,,,,,,,,,,,,,,,,,,,,,,,,,,,,,,,,,,
6,0,6,0,1,39,2020-07-03_17h15.16.858,retriever_ti,2020.1.3,Win32,60,Chrome,1366,768,,,,,,,,,,,,,,,,,,,,,,,,,,,,,,,,,,,,,,,,,,,,,,,,,,,,,,,,,,,,,,,,,,,,,,,,,,,,,,,,,,,,,,,,,,,,,,,,,,
7,0,7,0,1,39,2020-07-03_17h15.16.858,retriever_ti,2020.1.3,Win32,60,Chrome,1366,768,,,,,,,,,,,,,,,,,,,,,,,,,,,,,,,,,,,,,,,,,,,,,,,,,,,,,,,,,,,,,,,,,,,,,,,,,,,,,,,,,,,,,,,,,,,,,,,,,,
8,0,8,0,1,39,2020-07-03_17h15.16.858,retriever_ti,2020.1.3,Win32,60,Chrome,1366,768,,,,,,,,,,,,,,,,,,,,,,,,,,,,,,,,,,,,,,,,,,,,,,,,,,,,,,,,,,,,,,,,,,,,,,,,,,,,,,,,,,,,,,,,,,,,,,,,,,
9,0,9,0,1,39,2020-07-03_17h15.16.858,retriever_ti,2020.1.3,Win32,60,Chrome,1366,768,,,,,,,,,,,,,,,,,,,,,,,,,,,,,,,,,,,,,,,,,,,,,,,,,,,,,,,,,,,,,,,,,,,,,,,,,,,,,,,,,,,,,,,,,,,,,,,,,,
10,0,10,0,1,39,2020-07-03_17h15.16.858,retriever_ti,2020.1.3,Win32,60,Chrome,1366,768,,,,,,,,,,,,,,,,,,,,,,,,,,,,,,,,,,,,,,,,,,,,,,,,,,,,,,,,,,,,,,,,,,,,,,,,,,,,,,,,,,,,,,,,,,,,,,,,,,
11,0,11,0,1,39,2020-07-03_17h15.16.858,retriever_ti,2020.1.3,Win32,60,Chrome,1366,768,,,,,,,,,,,,,,,,,,,,,,,,,,,,,,,,,,,,,,,,,,,,,,,,,,,,,,,,,,,,,,,,,,,,,,,,,,,,,,,,,,,,,,,,,,,,,,,,,,
12,0,12,0,1,39,2020-07-03_17h15.16.858,retriever_ti,2020.1.3,Win32,60,Chrome,1366,768,,,,,,,,,,,,,,,,,,,,,,,,,,,,,,,,,,,,,,,,,,,,,,,,,,,,,,,,,,,,,,,,,,,,,,,,,,,,,,,,,,,,,,,,,,,,,,,,,,
13,0,13,0,1,39,2020-07-03_17h15.16.858,retriever_ti,2020.1.3,Win32,60,Chrome,1366,768,,,,,,,,,,,,,,,,,,,,,,,,,,,,,,,,,,,,,,,,,,,,,,,,,,,,,,,,,,,,,,,,,,,,,,,,,,,,,,,,,,,,,,,,,,,,,,,,,,
14,0,14,0,1,39,2020-07-03_17h15.16.858,retriever_ti,2020.1.3,Win32,60,Chrome,1366,768,,,,,,,,,,,,,,,,,,,,,,,,,,,,,,,,,,,,,,,,,,,,,,,,,,,,,,,,,,,,,,,,,,,,,,,,,,,,,,,,,,,,,,,,,,,,,,,,,,
15,0,15,0,1,39,2020-07-03_17h15.16.858,retriever_ti,2020.1.3,Win32,60,Chrome,1366,768,,,,,,,,,,,,,,,,,,,,,,,,,,,,,,,,,,,,,,,,,,,,,,,,,,,,,,,,,,,,,,,,,,,,,,,,,,,,,,,,,,,,,,,,,,,,,,,,,,
16,0,16,0,1,39,2020-07-03_17h15.16.858,retriever_ti,2020.1.3,Win32,60,Chrome,1366,768,,,,,,,,,,,,,,,,,,,,,,,,,,,,,,,,,,,,,,,,,,,,,,,,,,,,,,,,,,,,,,,,,,,,,,,,,,,,,,,,,,,,,,,,,,,,,,,,,,
17,0,17,0,1,39,2020-07-03_17h15.16.858,retriever_ti,2020.1.3,Win32,60,Chrome,1366,768,,,,,,,,,,,,,,,,,,,,,,,,,,,,,,,,,,,,,,,,,,,,,,,,,,,,,,,,,,,,,,,,,,,,,,,,,,,,,,,,,,,,,,,,,,,,,,,,,,
18,0,18,0,1,39,2020-07-03_17h15.16.858,retriever_ti,2020.1.3,Win32,60,Chrome,1366,768,,,,,,,,,,,,,,,,,,,,,,,,,,,,,,,,,,,,,,,,,,,,,,,,,,,,,,,,,,,,,,,,,,,,,,,,,,,,,,,,,,,,,,,,,,,,,,,,,,
19,0,19,0,1,39,2020-07-03_17h15.16.858,retriever_ti,2020.1.3,Win32,60,Chrome,1366,768,,,,,,,,,,,,,,,,,,,,,,,,,,,,,,,,,,,,,,,,,,,,,,,,,,,,,,,,,,,,,,,,,,,,,,,,,,,,,,,,,,,,,,,,,,,,,,,,,,
20,0,20,0,1,39,2020-07-03_17h15.16.858,retriever_ti,2020.1.3,Win32,60,Chrome,1366,768,,,,,,,,,,,,,,,,,,,,,,,,,,,,,,,,,,,,,,,,,,,,,,,,,,,,,,,,,,,,,,,,,,,,,,,,,,,,,,,,,,,,,,,,,,,,,,,,,,
21,0,21,0,1,39,2020-07-03_17h15.16.858,retriever_ti,2020.1.3,Win32,60,Chrome,1366,768,,,,,,,,,,,,,,,,,,,,,,,,,,,,,,,,,,,,,,,,,,,,,,,,,,,,,,,,,,,,,,,,,,,,,,,,,,,,,,,,,,,,,,,,,,,,,,,,,,
22,0,22,0,1,39,2020-07-03_17h15.16.858,retriever_ti,2020.1.3,Win32,60,Chrome,1366,768,,,,,,,,,,,,,,,,,,,,,,,,,,,,,,,,,,,,,,,,,,,,,,,,,,,,,,,,,,,,,,,,,,,,,,,,,,,,,,,,,,,,,,,,,,,,,,,,,,
23,0,23,0,1,39,2020-07-03_17h15.16.858,retriever_ti,2020.1.3,Win32,60,Chrome,1366,768,,,,,,,,,,,,,,,,,,,,,,,,,,,,,,,,,,,,,,,,,,,,,,,,,,,,,,,,,,,,,,,,,,,,,,,,,,,,,,,,,,,,,,,,,,,,,,,,,,
24,0,24,0,1,39,2020-07-03_17h15.16.858,retriever_ti,2020.1.3,Win32,60,Chrome,1366,768,,,,,,,,,,,,,,,,,,,,,,,,,,,,,,,,,,,,,,,,,,,,,,,,,,,,,,,,,,,,,,,,,,,,,,,,,,,,,,,,,,,,,,,,,,,,,,,,,,
25,0,25,0,1,39,2020-07-03_17h15.16.858,retriever_ti,2020.1.3,Win32,60,Chrome,1366,768,,,,,,,,,,,,,,,,,,,,,,,,,,,,,,,,,,,,,,,,,,,,,,,,,,,,,,,,,,,,,,,,,,,,,,,,,,,,,,,,,,,,,,,,,,,,,,,,,,
26,0,26,0,1,39,2020-07-03_17h15.16.858,retriever_ti,2020.1.3,Win32,60,Chrome,1366,768,,,,,,,,,,,,,,,,,,,,,,,,,,,,,,,,,,,,,,,,,,,,,,,,,,,,,,,,,,,,,,,,,,,,,,,,,,,,,,,,,,,,,,,,,,,,,,,,,,
,,,,,39,2020-07-03_17h15.16.858,retriever_ti,2020.1.3,Win32,60,Chrome,1366,768,344.42644,1,right,1.03698,canary,1,344.46047,344.46047,347.02452,0,0,0,0,1,2,5,1,html/resources/stimuli_practice_decision/04_beetle.jpg,html/resources/stimuli_practice_decision/02_canary.jpg,beetle,canary,,,,,,,,,,,,,,,,,,,,,,,,,,,,,,,,,,,,,,,,,,,,,,,,,,,,,,,,,,,,,,,,,,,,,,,,,,,,,
,,,,,39,2020-07-03_17h15.16.858,retriever_ti,2020.1.3,Win32,60,Chrome,1366,768,347.63387,2,left,0.994095,rabbit,1,347.658635,347.658635,350.15663,0,1,1,1,1,4,3,1,html/resources/stimuli_practice_decision/01_rabbit.jpg,html/resources/stimuli_practice_decision/07_sock.jpg,rabbit,sock,,,,,,,,,,,,,,,,,,,,,,,,,,,,,,,,,,,,,,,,,,,,,,,,,,,,,,,,,,,,,,,,,,,,,,,,,,,,,
,,,,,39,2020-07-03_17h15.16.858,retriever_ti,2020.1.3,Win32,60,Chrome,1366,768,351.15925,3,left,1.14521,pullover,1,351.176365,351.176365,353.67308,0,2,2,2,1,6,2,1,html/resources/stimuli_practice_decision/06_pullover.jpg,html/resources/stimuli_practice_decision/04_beetle.jpg,pullover,beetle,,,,,,,,,,,,,,,,,,,,,,,,,,,,,,,,,,,,,,,,,,,,,,,,,,,,,,,,,,,,,,,,,,,,,,,,,,,,,
,,,,,39,2020-07-03_17h15.16.858,retriever_ti,2020.1.3,Win32,60,Chrome,1366,768,354.190935,4,right,1.090215,handmixer,0,354.226705,354.226705,356.722375,0,3,3,3,1,7,1,1,html/resources/stimuli_practice_decision/05_glasses.jpg,html/resources/stimuli_practice_decision/08_handmixer.jpg,glasses,handmixer,,,,,,,,,,,,,,,,,,,,,,,,,,,,,,,,,,,,,,,,,,,,,,,,,,,,,,,,,,,,,,,,,,,,,,,,,,,,,
,,,,,39,2020-07-03_17h15.16.858,retriever_ti,2020.1.3,Win32,60,Chrome,1366,768,357.242325,5,right,1.397675,pullover,0,357.27614,357.27614,359.77155,0,4,4,4,1,7,6,1,html/resources/stimuli_practice_decision/05_glasses.jpg,html/resources/stimuli_practice_decision/06_pullover.jpg,glasses,pullover,,,,,,,,,,,,,,,,,,,,,,,,,,,,,,,,,,,,,,,,,,,,,,,,,,,,,,,,,,,,,,,,,,,,,,,,,,,,,
,,,,,39,2020-07-03_17h15.16.858,retriever_ti,2020.1.3,Win32,60,Chrome,1366,768,360.772455,6,left,1.452885,rabbit,0,360.789465,360.789465,363.28723,0,5,5,5,1,4,7,1,html/resources/stimuli_practice_decision/01_rabbit.jpg,html/resources/stimuli_practice_decision/05_glasses.jpg,rabbit,glasses,,,,,,,,,,,,,,,,,,,,,,,,,,,,,,,,,,,,,,,,,,,,,,,,,,,,,,,,,,,,,,,,,,,,,,,,,,,,,
,,,,,39,2020-07-03_17h15.16.858,retriever_ti,2020.1.3,Win32,60,Chrome,1366,768,363.80442,7,left,1.083925,handmixer,0,363.82256,363.82256,366.32022,0,6,6,6,1,1,2,1,html/resources/stimuli_practice_decision/08_handmixer.jpg,html/resources/stimuli_practice_decision/04_beetle.jpg,handmixer,beetle,,,,,,,,,,,,,,,,,,,,,,,,,,,,,,,,,,,,,,,,,,,,,,,,,,,,,,,,,,,,,,,,,,,,,,,,,,,,,
,,,,,39,2020-07-03_17h15.16.858,retriever_ti,2020.1.3,Win32,60,Chrome,1366,768,367.320645,8,left,1.237095,rabbit,1,367.33737,367.33737,369.83753,0,7,7,7,1,4,3,1,html/resources/stimuli_practice_decision/01_rabbit.jpg,html/resources/stimuli_practice_decision/07_sock.jpg,rabbit,sock,,,,,,,,,,,,,,,,,,,,,,,,,,,,,,,,,,,,,,,,,,,,,,,,,,,,,,,,,,,,,,,,,,,,,,,,,,,,,
,,,,,39,2020-07-03_17h15.16.858,retriever_ti,2020.1.3,Win32,60,Chrome,1366,768,,,,,,,,,,,,,,,,,,,,,,down,1,2.424555,1,0,0,0,1,1,html/resources/sequences_IDs/star.png,square ↑,circle →,star ↓,← triangle,down,,,,,,,,,,,,,,,,,,,,,,,,,,,,,,,,,,,,,,,,,,,,,,,,,,,,,,,,,,,,,,
,,,,,39,2020-07-03_17h15.16.858,retriever_ti,2020.1.3,Win32,60,Chrome,1366,768,,,,,,,,,,,,,,,,,,,,,,left,1,2.543385,1,0,1,1,2,1,html/resources/sequences_IDs/square1.png,star ↑,triangle →,circle ↓,← square,left,,,,,,,,,,,,,,,,,,,,,,,,,,,,,,,,,,,,,,,,,,,,,,,,,,,,,,,,,,,,,,
,,,,,39,2020-07-03_17h15.16.858,retriever_ti,2020.1.3,Win32,60,Chrome,1366,768,,,,,,,,,,,,,,,,,,,,,,up,1,1.308215,1,0,2,2,0,1,html/resources/sequences_IDs/circle.png,circle ↑,square →,triangle ↓,← star ,up,,,,,,,,,,,,,,,,,,,,,,,,,,,,,,,,,,,,,,,,,,,,,,,,,,,,,,,,,,,,,,
,,,,,39,2020-07-03_17h15.16.858,retriever_ti,2020.1.3,Win32,60,Chrome,1366,768,,,,,,,,,,,,,,,,,,,,,,down,1,2.142905,1,0,3,3,3,1,html/resources/sequences_IDs/triangle.png,star ↑,square →,triangle ↓,← circle,down,,,,,,,,,,,,,,,,,,,,,,,,,,,,,,,,,,,,,,,,,,,,,,,,,,,,,,,,,,,,,,
,,,,,39,2020-07-03_17h15.16.858,retriever_ti,2020.1.3,Win32,60,Chrome,1366,768,,,,,,,,,,,,,,,,,,,,,,,,,,,,,,,,,,,,,0,20.9468,0,0,0,0,1,,,,,,,,,,,,,,,,,,,,,,,,,,,,,,,,,,,,,,,,,,,,,,,,,,,,,,,
,,,,,39,2020-07-03_17h15.16.858,retriever_ti,2020.1.3,Win32,60,Chrome,1366,768,408.005625,9,right,0.90518,glasses,1,408.01885,408.01885,410.516855,0,0,0,0,1,6,7,1,html/resources/stimuli_practice_decision/06_pullover.jpg,html/resources/stimuli_practice_decision/05_glasses.jpg,pullover,glasses,,,,,,,,,,,,,,,,,,,,,,,,,,,,,,,,,,,,,,,,,,,,,,,,,,,,,,,,,,,,,,,,,,,,,,,,,,,,,
,,,,,39,2020-07-03_17h15.16.858,retriever_ti,2020.1.3,Win32,60,Chrome,1366,768,411.518275,10,left,1.26528,pullover,1,411.55371,411.55371,414.049635,0,1,1,1,1,6,2,1,html/resources/stimuli_practice_decision/06_pullover.jpg,html/resources/stimuli_practice_decision/04_beetle.jpg,pullover,beetle,,,,,,,,,,,,,,,,,,,,,,,,,,,,,,,,,,,,,,,,,,,,,,,,,,,,,,,,,,,,,,,,,,,,,,,,,,,,,
,,,,,39,2020-07-03_17h15.16.858,retriever_ti,2020.1.3,Win32,60,Chrome,1366,768,414.56891,11,left,1.25893,canary,0,414.603365,414.603365,417.099415,0,2,2,2,1,5,6,1,html/resources/stimuli_practice_decision/02_canary.jpg,html/resources/stimuli_practice_decision/06_pullover.jpg,canary,pullover,,,,,,,,,,,,,,,,,,,,,,,,,,,,,,,,,,,,,,,,,,,,,,,,,,,,,,,,,,,,,,,,,,,,,,,,,,,,,
,,,,,39,2020-07-03_17h15.16.858,retriever_ti,2020.1.3,Win32,60,Chrome,1366,768,418.101785,12,right,1.416525,glasses,0,418.13593,418.13593,420.630915,0,3,3,3,1,8,7,1,html/resources/stimuli_practice_decision/03_squirrel.jpg,html/resources/stimuli_practice_decision/05_glasses.jpg,squirrel,glasses,,,,,,,,,,,,,,,,,,,,,,,,,,,,,,,,,,,,,,,,,,,,,,,,,,,,,,,,,,,,,,,,,,,,,,,,,,,,,
,,,,,39,2020-07-03_17h15.16.858,retriever_ti,2020.1.3,Win32,60,Chrome,1366,768,421.631615,13,left,1.05414,canary,1,421.66631,421.66631,424.16392,0,4,4,4,1,5,3,1,html/resources/stimuli_practice_decision/02_canary.jpg,html/resources/stimuli_practice_decision/07_sock.jpg,canary,sock,,,,,,,,,,,,,,,,,,,,,,,,,,,,,,,,,,,,,,,,,,,,,,,,,,,,,,,,,,,,,,,,,,,,,,,,,,,,,
,,,,,39,2020-07-03_17h15.16.858,retriever_ti,2020.1.3,Win32,60,Chrome,1366,768,424.66694,14,right,0.887255,squirrel,1,424.70049,424.70049,427.19776,0,5,5,5,1,7,8,1,html/resources/stimuli_practice_decision/05_glasses.jpg,html/resources/stimuli_practice_decision/03_squirrel.jpg,glasses,squirrel,,,,,,,,,,,,,,,,,,,,,,,,,,,,,,,,,,,,,,,,,,,,,,,,,,,,,,,,,,,,,,,,,,,,,,,,,,,,,
,,,,,39,2020-07-03_17h15.16.858,retriever_ti,2020.1.3,Win32,60,Chrome,1366,768,428.200325,15,right,1.346135,rabbit,0,428.21811,428.21811,430.71318,0,6,6,6,1,5,4,1,html/resources/stimuli_practice_decision/02_canary.jpg,html/resources/stimuli_practice_decision/01_rabbit.jpg,canary,rabbit,,,,,,,,,,,,,,,,,,,,,,,,,,,,,,,,,,,,,,,,,,,,,,,,,,,,,,,,,,,,,,,,,,,,,,,,,,,,,
,,,,,39,2020-07-03_17h15.16.858,retriever_ti,2020.1.3,Win32,60,Chrome,1366,768,431.714795,16,left,0.901325,canary,1,431.73433,431.73433,434.230195,0,7,7,7,1,5,3,1,html/resources/stimuli_practice_decision/02_canary.jpg,html/resources/stimuli_practice_decision/07_sock.jpg,canary,sock,,,,,,,,,,,,,,,,,,,,,,,,,,,,,,,,,,,,,,,,,,,,,,,,,,,,,,,,,,,,,,,,,,,,,,,,,,,,,
,,,,,39,2020-07-03_17h15.16.858,retriever_ti,2020.1.3,Win32,60,Chrome,1366,768,,,,,,,,,,,,,,,,,,,,,,up,1,1.90241,1,0,0,0,0,1,html/resources/sequences_IDs/circle.png,circle ↑,square →,triangle ↓,← star ,up,,,,,,,,,,,,,,,,,,,,,,,,,,,,,,,,,,,,,,,,,,,,,,,,,,,,,,,,,,,,,,
,,,,,39,2020-07-03_17h15.16.858,retriever_ti,2020.1.3,Win32,60,Chrome,1366,768,,,,,,,,,,,,,,,,,,,,,,down,1,1.704355,1,0,1,1,3,1,html/resources/sequences_IDs/triangle.png,star ↑,square →,triangle ↓,← circle,down,,,,,,,,,,,,,,,,,,,,,,,,,,,,,,,,,,,,,,,,,,,,,,,,,,,,,,,,,,,,,,
,,,,,39,2020-07-03_17h15.16.858,retriever_ti,2020.1.3,Win32,60,Chrome,1366,768,,,,,,,,,,,,,,,,,,,,,,left,1,1.714305,1,0,2,2,2,1,html/resources/sequences_IDs/square1.png,star ↑,triangle →,circle ↓,← square,left,,,,,,,,,,,,,,,,,,,,,,,,,,,,,,,,,,,,,,,,,,,,,,,,,,,,,,,,,,,,,,
,,,,,39,2020-07-03_17h15.16.858,retriever_ti,2020.1.3,Win32,60,Chrome,1366,768,,,,,,,,,,,,,,,,,,,,,,down,1,1.58016,1,0,3,3,1,1,html/resources/sequences_IDs/star.png,square ↑,circle →,star ↓,← triangle,down,,,,,,,,,,,,,,,,,,,,,,,,,,,,,,,,,,,,,,,,,,,,,,,,,,,,,,,,,,,,,,
,,,,,39,2020-07-03_17h15.16.858,retriever_ti,2020.1.3,Win32,60,Chrome,1366,768,,,,,,,,,,,,,,,,,,,,,,,,,,,,,,,,,,,,,0,9.15837,1,0,1,0,1,,,,,,,,,,,,,,,,,,,,,,,,,,,,,,,,,,,,,,,,,,,,,,,,,,,,,,,
,,,,,39,2020-07-03_17h15.16.858,retriever_ti,2020.1.3,Win32,60,Chrome,1366,768,,,,,,,,,,,,,,,,,1,,,,,,,,,,,,,,,,,,,,,,,,,,,472.49123,1,left,1.672915,seaturtle     ,1,2,-6,0,3,472.509915,472.509915,475.011255,0,0,0,0,1,1,1,7,seaturtle     ,clownfish     ,html/resources/sequences_IDs/A/02_seaturtle.jpg,html/resources/sequences_IDs/A/04_clownfish.jpg,2,4,2,1,2,1,2,3,0,39,,,,,,,,,,,,,,,,,,,,
,,,,,39,2020-07-03_17h15.16.858,retriever_ti,2020.1.3,Win32,60,Chrome,1366,768,,,,,,,,,,,,,,,,,1,,,,,,,,,,,,,,,,,,,,,,,,,,,475.630315,2,left,1.118445,seaturtle     ,1,2,-3,0,3,475.663305,475.663305,478.15886,0,1,1,1,1,2,1,4,seaturtle     ,phone       ,html/resources/sequences_IDs/A/02_seaturtle.jpg,html/resources/sequences_IDs/B/09_phone.jpg,2,9,2,1,4,2,2,7,0,39,,,,,,,,,,,,,,,,,,,,
,,,,,39,2020-07-03_17h15.16.858,retriever_ti,2020.1.3,Win32,60,Chrome,1366,768,,,,,,,,,,,,,,,,,1,,,,,,,,,,,,,,,,,,,,,,,,,,,478.77905,3,left,1.358595,radio       ,6,10,1,1,0,478.7962,478.7962,481.291405,0,2,2,2,1,3,6,5,radio       ,scarf         ,html/resources/sequences_IDs/B/10_radio.jpg,html/resources/sequences_IDs/A/06_scarf.jpg,10,6,4,2,3,2,8,5,1,39,,,,,,,,,,,,,,,,,,,,
,,,,,39,2020-07-03_17h15.16.858,retriever_ti,2020.1.3,Win32,60,Chrome,1366,768,,,,,,,,,,,,,,,,,1,,,,,,,,,,,,,,,,,,,,,,,,,,,482.392325,4,left,1.000905,parrot      ,8,5,1,1,1,482.42599,482.42599,484.924705,0,3,3,3,1,4,8,7,parrot      ,clownfish     ,html/resources/sequences_IDs/B/05_parrot.jpg,html/resources/sequences_IDs/A/04_clownfish.jpg,5,4,2,1,2,1,4,3,0,39,,,,,,,,,,,,,,,,,,,,
,,,,,39,2020-07-03_17h15.16.858,retriever_ti,2020.1.3,Win32,60,Chrome,1366,768,,,,,,,,,,,,,,,,,1,,,,,,,,,,,,,,,,,,,,,,,,,,,486.0265,5,left,0.734075,parrot      ,8,5,1,1,0,486.06185,486.06185,488.55733,0,4,4,4,1,5,8,7,parrot      ,clownfish     ,html/resources/sequences_IDs/B/05_parrot.jpg,html/resources/sequences_IDs/A/04_clownfish.jpg,5,4,2,1,2,1,4,3,1,39,,,,,,,,,,,,,,,,,,,,
,,,,,39,2020-07-03_17h15.16.858,retriever_ti,2020.1.3,Win32,60,Chrome,1366,768,,,,,,,,,,,,,,,,,1,,,,,,,,,,,,,,,,,,,,,,,,,,,489.660445,6,right,1.36656,parrot      ,8,5,1,1,1,489.69437,489.69437,492.190135,0,5,5,5,1,6,7,8,clownfish     ,parrot      ,html/resources/sequences_IDs/A/04_clownfish.jpg,html/resources/sequences_IDs/B/05_parrot.jpg,4,5,2,1,2,1,3,4,0,39,,,,,,,,,,,,,,,,,,,,
,,,,,39,2020-07-03_17h15.16.858,retriever_ti,2020.1.3,Win32,60,Chrome,1366,768,,,,,,,,,,,,,,,,,1,,,,,,,,,,,,,,,,,,,,,,,,,,,493.293845,7,right,1.05761,parrot      ,8,5,4,1,3,493.31038,493.31038,495.806145,0,6,6,6,1,7,4,8,phone       ,parrot      ,html/resources/sequences_IDs/B/09_phone.jpg,html/resources/sequences_IDs/B/05_parrot.jpg,9,5,4,2,2,1,7,4,0,39,,,,,,,,,,,,,,,,,,,,
,,,,,39,2020-07-03_17h15.16.858,retriever_ti,2020.1.3,Win32,60,Chrome,1366,768,,,,,,,,,,,,,,,,,1,,,,,,,,,,,,,,,,,,,,,,,,,,,496.4102,8,right,0.991425,parrot      ,8,5,2,1,3,496.427905,496.427905,498.923235,0,7,7,7,1,8,6,8,radio       ,parrot      ,html/resources/sequences_IDs/B/10_radio.jpg,html/resources/sequences_IDs/B/05_parrot.jpg,10,5,4,2,2,1,8,4,0,39,,,,,,,,,,,,,,,,,,,,
,,,,,39,2020-07-03_17h15.16.858,retriever_ti,2020.1.3,Win32,60,Chrome,1366,768,,,,,,,,,,,,,,,,,1,,,,,,,,,,,,,,,,,,,,,,,,,,,499.540215,9,NaN,NaN,No_response,NaN,NaN,NaN,2,2,499.57628,499.57628,502.072315,0,8,8,8,1,9,6,5,radio       ,scarf         ,html/resources/sequences_IDs/B/10_radio.jpg,html/resources/sequences_IDs/A/06_scarf.jpg,10,6,4,2,3,2,8,5,0,39,,,,,,,,,,,,,,,,,,,,
,,,,,39,2020-07-03_17h15.16.858,retriever_ti,2020.1.3,Win32,60,Chrome,1366,768,,,,,,,,,,,,,,,,,1,,,,,,,,,,,,,,,,,,,,,,,,,,,503.17669,10,right,2.012565,dress         ,3,7,-3,0,3,503.193435,503.193435,505.68883,0,9,9,9,1,10,6,3,radio       ,dress         ,html/resources/sequences_IDs/B/10_radio.jpg,html/resources/sequences_IDs/A/07_dress.jpg,10,7,4,2,3,2,8,6,0,39,,,,,,,,,,,,,,,,,,,,
,,,,,39,2020-07-03_17h15.16.858,retriever_ti,2020.1.3,Win32,60,Chrome,1366,768,,,,,,,,,,,,,,,,,1,,,,,,,,,,,,,,,,,,,,,,,,,,,506.30713,11,left,1.260825,clownfish     ,7,4,1,1,1,506.326265,506.326265,508.82168,0,10,10,10,1,11,7,6,clownfish     ,radio       ,html/resources/sequences_IDs/A/04_clownfish.jpg,html/resources/sequences_IDs/B/10_radio.jpg,4,10,2,1,4,2,3,8,0,39,,,,,,,,,,,,,,,,,,,,
,,,,,39,2020-07-03_17h15.16.858,retriever_ti,2020.1.3,Win32,60,Chrome,1366,768,,,,,,,,,,,,,,,,,1,,,,,,,,,,,,,,,,,,,,,,,,,,,509.925455,12,right,0.79571,seaturtle     ,1,2,-3,0,3,509.942425,509.942425,512.43733,0,11,11,11,1,12,4,1,phone       ,seaturtle     ,html/resources/sequences_IDs/B/09_phone.jpg,html/resources/sequences_IDs/A/02_seaturtle.jpg,9,2,4,2,2,1,7,2,0,39,,,,,,,,,,,,,,,,,,,,
,,,,,39,2020-07-03_17h15.16.858,retriever_ti,2020.1.3,Win32,60,Chrome,1366,768,,,,,,,,,,,,,,,,,1,,,,,,,,,,,,,,,,,,,,,,,,,,,513.055065,13,right,0.7873,redfox      ,2,1,-4,0,3,513.088355,513.088355,515.587005,0,12,12,12,1,13,6,2,radio       ,redfox      ,html/resources/sequences_IDs/B/10_radio.jpg,html/resources/sequences_IDs/B/01_redfox.jpg,10,1,4,2,1,1,8,1,0,39,,,,,,,,,,,,,,,,,,,,
,,,,,39,2020-07-03_17h15.16.858,retriever_ti,2020.1.3,Win32,60,Chrome,1366,768,,,,,,,,,,,,,,,,,1,,,,,,,,,,,,,,,,,,,,,,,,,,,516.188935,14,left,0.905955,redfox      ,2,1,-4,0,3,516.207875,516.207875,518.70435,0,13,13,13,1,14,2,6,redfox      ,radio       ,html/resources/sequences_IDs/B/01_redfox.jpg,html/resources/sequences_IDs/B/10_radio.jpg,1,10,1,1,4,2,1,8,0,39,,,,,,,,,,,,,,,,,,,,
,,,,,39,2020-07-03_17h15.16.858,retriever_ti,2020.1.3,Win32,60,Chrome,1366,768,,,,,,,,,,,,,,,,,1,,,,,,,,,,,,,,,,,,,,,,,,,,,519.32447,15,right,0.755445,dress         ,3,7,-2,0,3,519.35835,519.35835,521.85372,0,14,14,14,1,15,5,3,scarf         ,dress         ,html/resources/sequences_IDs/A/06_scarf.jpg,html/resources/sequences_IDs/A/07_dress.jpg,6,7,3,2,3,2,5,6,0,39,,,,,,,,,,,,,,,,,,,,
,,,,,39,2020-07-03_17h15.16.858,retriever_ti,2020.1.3,Win32,60,Chrome,1366,768,,,,,,,,,,,,,,,,,1,,,,,,,,,,,,,,,,,,,,,,,,,,,522.473335,16,left,1.10278,seaturtle     ,1,2,-1,0,0,522.49147,522.49147,524.9869,0,15,15,15,1,16,1,2,seaturtle     ,redfox      ,html/resources/sequences_IDs/A/02_seaturtle.jpg,html/resources/sequences_IDs/B/01_redfox.jpg,2,1,2,1,1,1,2,1,0,39,,,,,,,,,,,,,,,,,,,,
,,,,,39,2020-07-03_17h15.16.858,retriever_ti,2020.1.3,Win32,60,Chrome,1366,768,,,,,,,,,,,,,,,,,1,,,,,,,,,,,,,,,,,,,,,,,,,,,526.088335,17,right,0.66326,dress         ,3,7,-1,0,0,526.124085,526.124085,528.61929,0,16,16,16,1,17,4,3,phone       ,dress         ,html/resources/sequences_IDs/B/09_phone.jpg,html/resources/sequences_IDs/A/07_dress.jpg,9,7,4,2,3,2,7,6,0,39,,,,,,,,,,,,,,,,,,,,
,,,,,39,2020-07-03_17h15.16.858,retriever_ti,2020.1.3,Win32,60,Chrome,1366,768,,,,,,,,,,,,,,,,,1,,,,,,,,,,,,,,,,,,,,,,,,,,,529.72292,18,right,1.08085,seaturtle     ,1,2,-5,0,3,529.73952,529.73952,532.235715,0,17,17,17,1,18,6,1,radio       ,seaturtle     ,html/resources/sequences_IDs/B/10_radio.jpg,html/resources/sequences_IDs/A/02_seaturtle.jpg,10,2,4,2,2,1,8,2,0,39,,,,,,,,,,,,,,,,,,,,
,,,,,39,2020-07-03_17h15.16.858,retriever_ti,2020.1.3,Win32,60,Chrome,1366,768,,,,,,,,,,,,,,,,,1,,,,,,,,,,,,,,,,,,,,,,,,,,,532.84126,19,right,1.545245,clownfish     ,7,4,4,1,3,532.85772,532.85772,535.352015,0,18,18,18,1,19,3,7,dress         ,clownfish     ,html/resources/sequences_IDs/A/07_dress.jpg,html/resources/sequences_IDs/A/04_clownfish.jpg,7,4,3,2,2,1,6,3,0,39,,,,,,,,,,,,,,,,,,,,
,,,,,39,2020-07-03_17h15.16.858,retriever_ti,2020.1.3,Win32,60,Chrome,1366,768,,,,,,,,,,,,,,,,,1,,,,,,,,,,,,,,,,,,,,,,,,,,,535.970625,20,right,1.24195,parrot      ,8,5,7,1,3,536.00604,536.00604,538.502075,0,19,19,19,1,20,1,8,seaturtle     ,parrot      ,html/resources/sequences_IDs/A/02_seaturtle.jpg,html/resources/sequences_IDs/B/05_parrot.jpg,2,5,2,1,2,1,2,4,0,39,,,,,,,,,,,,,,,,,,,,
,,,,,39,2020-07-03_17h15.16.858,retriever_ti,2020.1.3,Win32,60,Chrome,1366,768,,,,,,,,,,,,,,,,,1,,,,,,,,,,,,,,,,,,,,,,,,,,,539.12191,21,left,1.1314,parrot      ,8,5,2,1,3,539.139435,539.139435,541.63404,0,20,20,20,1,21,8,6,parrot      ,radio       ,html/resources/sequences_IDs/B/05_parrot.jpg,html/resources/sequences_IDs/B/10_radio.jpg,5,10,2,1,4,2,4,8,0,39,,,,,,,,,,,,,,,,,,,,
,,,,,39,2020-07-03_17h15.16.858,retriever_ti,2020.1.3,Win32,60,Chrome,1366,768,,,,,,,,,,,,,,,,,1,,,,,,,,,,,,,,,,,,,,,,,,,,,542.252555,22,left,1.03988,seaturtle     ,1,2,-4,0,3,542.285385,542.285385,544.784275,0,21,21,21,1,22,1,5,seaturtle     ,scarf         ,html/resources/sequences_IDs/A/02_seaturtle.jpg,html/resources/sequences_IDs/A/06_scarf.jpg,2,6,2,1,3,2,2,5,0,39,,,,,,,,,,,,,,,,,,,,
,,,,,39,2020-07-03_17h15.16.858,retriever_ti,2020.1.3,Win32,60,Chrome,1366,768,,,,,,,,,,,,,,,,,1,,,,,,,,,,,,,,,,,,,,,,,,,,,545.40461,23,right,0.732095,radio       ,6,10,1,1,1,545.43897,545.43897,547.934495,0,22,22,22,1,23,5,6,scarf         ,radio       ,html/resources/sequences_IDs/A/06_scarf.jpg,html/resources/sequences_IDs/B/10_radio.jpg,6,10,3,2,4,2,5,8,0,39,,,,,,,,,,,,,,,,,,,,
,,,,,39,2020-07-03_17h15.16.858,retriever_ti,2020.1.3,Win32,60,Chrome,1366,768,,,,,,,,,,,,,,,,,1,,,,,,,,,,,,,,,,,,,,,,,,,,,549.03783,24,left,1.222365,phone       ,4,9,-2,0,3,549.072605,549.072605,551.567235,0,23,23,23,1,24,4,6,phone       ,radio       ,html/resources/sequences_IDs/B/09_phone.jpg,html/resources/sequences_IDs/B/10_radio.jpg,9,10,4,2,4,2,7,8,0,39,,,,,,,,,,,,,,,,,,,,
,,,,,39,2020-07-03_17h15.16.858,retriever_ti,2020.1.3,Win32,60,Chrome,1366,768,,,,,,,,,,,,,,,,,1,,,,,,,,,,,,,,,,,,,,,,,,,,,552.185465,25,left,1.24732,seaturtle     ,1,2,-2,0,3,552.221175,552.221175,554.717395,0,24,24,24,1,25,1,3,seaturtle     ,dress         ,html/resources/sequences_IDs/A/02_seaturtle.jpg,html/resources/sequences_IDs/A/07_dress.jpg,2,7,2,1,3,2,2,6,0,39,,,,,,,,,,,,,,,,,,,,
,,,,,39,2020-07-03_17h15.16.858,retriever_ti,2020.1.3,Win32,60,Chrome,1366,768,,,,,,,,,,,,,,,,,1,,,,,,,,,,,,,,,,,,,,,,,,,,,555.337075,26,right,1.020455,seaturtle     ,1,2,-4,0,3,555.370825,555.370825,557.866925,0,25,25,25,1,26,5,1,scarf         ,seaturtle     ,html/resources/sequences_IDs/A/06_scarf.jpg,html/resources/sequences_IDs/A/02_seaturtle.jpg,6,2,3,2,2,1,5,2,0,39,,,,,,,,,,,,,,,,,,,,
,,,,,39,2020-07-03_17h15.16.858,retriever_ti,2020.1.3,Win32,60,Chrome,1366,768,,,,,,,,,,,,,,,,,1,,,,,,,,,,,,,,,,,,,,,,,,,,,558.48423,27,right,1.0737,phone       ,4,9,1,1,1,558.503025,558.503025,560.999535,0,26,26,26,1,27,3,4,dress         ,phone       ,html/resources/sequences_IDs/A/07_dress.jpg,html/resources/sequences_IDs/B/09_phone.jpg,7,9,3,2,4,2,6,7,0,39,,,,,,,,,,,,,,,,,,,,
,,,,,39,2020-07-03_17h15.16.858,retriever_ti,2020.1.3,Win32,60,Chrome,1366,768,,,,,,,,,,,,,,,,,1,,,,,,,,,,,,,,,,,,,,,,,,,,,562.1006,28,left,1.102975,parrot      ,8,5,5,1,3,562.13612,562.13612,564.63246,0,27,27,27,1,28,8,3,parrot      ,dress         ,html/resources/sequences_IDs/B/05_parrot.jpg,html/resources/sequences_IDs/A/07_dress.jpg,5,7,2,1,3,2,4,6,0,39,,,,,,,,,,,,,,,,,,,,
,,,,,39,2020-07-03_17h15.16.858,retriever_ti,2020.1.3,Win32,60,Chrome,1366,768,,,,,,,,,,,,,,,,,1,,,,,,,,,,,,,,,,,,,,,,,,,,,565.252235,29,left,1.072175,phone       ,4,9,-1,0,0,565.285815,565.285815,567.78204,0,28,28,28,1,29,4,5,phone       ,scarf         ,html/resources/sequences_IDs/B/09_phone.jpg,html/resources/sequences_IDs/A/06_scarf.jpg,9,6,4,2,3,2,7,5,0,39,,,,,,,,,,,,,,,,,,,,
,,,,,39,2020-07-03_17h15.16.858,retriever_ti,2020.1.3,Win32,60,Chrome,1366,768,,,,,,,,,,,,,,,,,1,,,,,,,,,,,,,,,,,,,,,,,,,,,568.88591,30,left,1.439065,clownfish     ,7,4,1,1,1,568.919,568.919,571.413995,0,29,29,29,1,30,7,6,clownfish     ,radio       ,html/resources/sequences_IDs/A/04_clownfish.jpg,html/resources/sequences_IDs/B/10_radio.jpg,4,10,2,1,4,2,3,8,0,39,,,,,,,,,,,,,,,,,,,,
,,,,,39,2020-07-03_17h15.16.858,retriever_ti,2020.1.3,Win32,60,Chrome,1366,768,,,,,,,,,,,,,,,,,1,,,,,,,,,,,,,,,,,,,,,,,,,,,572.514825,31,left,0.998565,parrot      ,8,5,1,1,1,572.532265,572.532265,575.03056,0,30,30,30,1,31,8,7,parrot      ,clownfish     ,html/resources/sequences_IDs/B/05_parrot.jpg,html/resources/sequences_IDs/A/04_clownfish.jpg,5,4,2,1,2,1,4,3,0,39,,,,,,,,,,,,,,,,,,,,
,,,,,39,2020-07-03_17h15.16.858,retriever_ti,2020.1.3,Win32,60,Chrome,1366,768,,,,,,,,,,,,,,,,,1,,,,,,,,,,,,,,,,,,,,,,,,,,,576.13237,32,left,0.897245,redfox      ,2,1,-6,0,3,576.151605,576.151605,578.64761,0,31,31,31,1,32,2,8,redfox      ,parrot      ,html/resources/sequences_IDs/B/01_redfox.jpg,html/resources/sequences_IDs/B/05_parrot.jpg,1,5,1,1,2,1,1,4,0,39,,,,,,,,,,,,,,,,,,,,
,,,,,39,2020-07-03_17h15.16.858,retriever_ti,2020.1.3,Win32,60,Chrome,1366,768,,,,,,,,,,,,,,,,,1,,,,,,,,,,,,,,,,,,,,,,,,,,,579.267805,33,right,1.08476,seaturtle     ,1,2,-2,0,3,579.30207,579.30207,581.79665,0,32,32,32,1,33,3,1,dress         ,seaturtle     ,html/resources/sequences_IDs/A/07_dress.jpg,html/resources/sequences_IDs/A/02_seaturtle.jpg,7,2,3,2,2,1,6,2,0,39,,,,,,,,,,,,,,,,,,,,
,,,,,39,2020-07-03_17h15.16.858,retriever_ti,2020.1.3,Win32,60,Chrome,1366,768,,,,,,,,,,,,,,,,,1,,,,,,,,,,,,,,,,,,,,,,,,,,,582.39883,34,left,0.949395,phone       ,4,9,1,1,0,582.41835,582.41835,584.913535,0,33,33,33,1,34,4,3,phone       ,dress         ,html/resources/sequences_IDs/B/09_phone.jpg,html/resources/sequences_IDs/A/07_dress.jpg,9,7,4,2,3,2,7,6,1,39,,,,,,,,,,,,,,,,,,,,
,,,,,39,2020-07-03_17h15.16.858,retriever_ti,2020.1.3,Win32,60,Chrome,1366,768,,,,,,,,,,,,,,,,,1,,,,,,,,,,,,,,,,,,,,,,,,,,,586.01714,35,right,0.69602,redfox      ,2,1,1,1,0,586.034265,586.034265,588.530795,0,34,34,34,1,35,1,2,seaturtle     ,redfox      ,html/resources/sequences_IDs/A/02_seaturtle.jpg,html/resources/sequences_IDs/B/01_redfox.jpg,2,1,2,1,1,1,2,1,1,39,,,,,,,,,,,,,,,,,,,,
,,,,,39,2020-07-03_17h15.16.858,retriever_ti,2020.1.3,Win32,60,Chrome,1366,768,,,,,,,,,,,,,,,,,1,,,,,,,,,,,,,,,,,,,,,,,,,,,589.6334,36,left,0.850345,clownfish     ,7,4,4,1,3,589.650415,589.650415,592.145615,0,35,35,35,1,36,7,3,clownfish     ,dress         ,html/resources/sequences_IDs/A/04_clownfish.jpg,html/resources/sequences_IDs/A/07_dress.jpg,4,7,2,1,3,2,3,6,0,39,,,,,,,,,,,,,,,,,,,,
,,,,,39,2020-07-03_17h15.16.858,retriever_ti,2020.1.3,Win32,60,Chrome,1366,768,,,,,,,,,,,,,,,,,1,,,,,,,,,,,,,,,,,,,,,,,,,,,592.749905,37,left,1.08724,phone       ,4,9,-1,0,1,592.76625,592.76625,595.26204,0,36,36,36,1,37,4,5,phone       ,scarf         ,html/resources/sequences_IDs/B/09_phone.jpg,html/resources/sequences_IDs/A/06_scarf.jpg,9,6,4,2,3,2,7,5,1,39,,,,,,,,,,,,,,,,,,,,
,,,,,39,2020-07-03_17h15.16.858,retriever_ti,2020.1.3,Win32,60,Chrome,1366,768,,,,,,,,,,,,,,,,,1,,,,,,,,,,,,,,,,,,,,,,,,,,,596.36349,38,left,1.17253,dress         ,3,7,-3,0,3,596.399715,596.399715,598.89449,0,37,37,37,1,38,3,6,dress         ,radio       ,html/resources/sequences_IDs/A/07_dress.jpg,html/resources/sequences_IDs/B/10_radio.jpg,7,10,3,2,4,2,6,8,0,39,,,,,,,,,,,,,,,,,,,,
,,,,,39,2020-07-03_17h15.16.858,retriever_ti,2020.1.3,Win32,60,Chrome,1366,768,,,,,,,,,,,,,,,,,1,,,,,,,,,,,,,,,,,,,,,,,,,,,599.497845,39,right,0.75507,phone       ,4,9,-1,0,0,599.531395,599.531395,602.02754,0,38,38,38,1,39,5,4,scarf         ,phone       ,html/resources/sequences_IDs/A/06_scarf.jpg,html/resources/sequences_IDs/B/09_phone.jpg,6,9,3,2,4,2,5,7,0,39,,,,,,,,,,,,,,,,,,,,
,,,,,39,2020-07-03_17h15.16.858,retriever_ti,2020.1.3,Win32,60,Chrome,1366,768,,,,,,,,,,,,,,,,,1,,,,,,,,,,,,,,,,,,,,,,,,,,,603.128265,40,left,0.857345,redfox      ,2,1,-1,0,0,603.16201,603.16201,605.660945,0,39,39,39,1,40,2,3,redfox      ,dress         ,html/resources/sequences_IDs/B/01_redfox.jpg,html/resources/sequences_IDs/A/07_dress.jpg,1,7,1,1,3,2,1,6,0,39,,,,,,,,,,,,,,,,,,,,
,,,,,39,2020-07-03_17h15.16.858,retriever_ti,2020.1.3,Win32,60,Chrome,1366,768,,,,,,,,,,,,,,,,,1,,,,,,,,,,,,,,,,,,,,,,,,,,,606.764245,41,right,1.359215,clownfish     ,7,4,1,1,0,606.79776,606.79776,609.29419,0,40,40,40,1,41,6,7,radio       ,clownfish     ,html/resources/sequences_IDs/B/10_radio.jpg,html/resources/sequences_IDs/A/04_clownfish.jpg,10,4,4,2,2,1,8,3,1,39,,,,,,,,,,,,,,,,,,,,
,,,,,39,2020-07-03_17h15.16.858,retriever_ti,2020.1.3,Win32,60,Chrome,1366,768,,,,,,,,,,,,,,,,,1,,,,,,,,,,,,,,,,,,,,,,,,,,,610.395775,42,left,1.257115,dress         ,3,7,1,1,0,610.415055,610.415055,612.91007,0,41,41,41,1,42,3,2,dress         ,redfox      ,html/resources/sequences_IDs/A/07_dress.jpg,html/resources/sequences_IDs/B/01_redfox.jpg,7,1,3,2,1,1,6,1,1,39,,,,,,,,,,,,,,,,,,,,
,,,,,39,2020-07-03_17h15.16.858,retriever_ti,2020.1.3,Win32,60,Chrome,1366,768,,,,,,,,,,,,,,,,,1,,,,,,,,,,,,,,,,,,,,,,,,,,,614.01342,43,left,1.42912,radio       ,6,10,1,1,1,614.03002,614.03002,616.526895,0,42,42,42,1,43,6,5,radio       ,scarf         ,html/resources/sequences_IDs/B/10_radio.jpg,html/resources/sequences_IDs/A/06_scarf.jpg,10,6,4,2,3,2,8,5,0,39,,,,,,,,,,,,,,,,,,,,
,,,,,39,2020-07-03_17h15.16.858,retriever_ti,2020.1.3,Win32,60,Chrome,1366,768,,,,,,,,,,,,,,,,,1,,,,,,,,,,,,,,,,,,,,,,,,,,,617.63045,44,right,0.858705,redfox      ,2,1,-1,0,0,617.647705,617.647705,620.143445,0,43,43,43,1,44,3,2,dress         ,redfox      ,html/resources/sequences_IDs/A/07_dress.jpg,html/resources/sequences_IDs/B/01_redfox.jpg,7,1,3,2,1,1,6,1,0,39,,,,,,,,,,,,,,,,,,,,
,,,,,39,2020-07-03_17h15.16.858,retriever_ti,2020.1.3,Win32,60,Chrome,1366,768,,,,,,,,,,,,,,,,,1,,,,,,,,,,,,,,,,,,,,,,,,,,,621.246525,45,left,1.174945,phone       ,4,9,-3,0,3,621.280205,621.280205,623.77551,0,44,44,44,1,45,4,7,phone       ,clownfish     ,html/resources/sequences_IDs/B/09_phone.jpg,html/resources/sequences_IDs/A/04_clownfish.jpg,9,4,4,2,2,1,7,3,0,39,,,,,,,,,,,,,,,,,,,,
,,,,,39,2020-07-03_17h15.16.858,retriever_ti,2020.1.3,Win32,60,Chrome,1366,768,,,,,,,,,,,,,,,,,1,,,,,,,,,,,,,,,,,,,,,,,,,,,624.39368,46,left,0.94592,redfox      ,2,1,-1,0,0,624.412905,624.412905,626.90874,0,45,45,45,1,46,2,3,redfox      ,dress         ,html/resources/sequences_IDs/B/01_redfox.jpg,html/resources/sequences_IDs/A/07_dress.jpg,1,7,1,1,3,2,1,6,0,39,,,,,,,,,,,,,,,,,,,,
,,,,,39,2020-07-03_17h15.16.858,retriever_ti,2020.1.3,Win32,60,Chrome,1366,768,,,,,,,,,,,,,,,,,1,,,,,,,,,,,,,,,,,,,,,,,,,,,628.012245,47,right,1.18306,phone       ,4,9,-3,0,3,628.029075,628.029075,630.524725,0,46,46,46,1,47,7,4,clownfish     ,phone       ,html/resources/sequences_IDs/A/04_clownfish.jpg,html/resources/sequences_IDs/B/09_phone.jpg,4,9,2,1,4,2,3,7,0,39,,,,,,,,,,,,,,,,,,,,
,,,,,39,2020-07-03_17h15.16.858,retriever_ti,2020.1.3,Win32,60,Chrome,1366,768,,,,,,,,,,,,,,,,,1,,,,,,,,,,,,,,,,,,,,,,,,,,,631.14254,48,right,1.433035,scarf         ,5,6,1,1,1,631.17625,631.17625,633.67391,0,47,47,47,1,48,4,5,phone       ,scarf         ,html/resources/sequences_IDs/B/09_phone.jpg,html/resources/sequences_IDs/A/06_scarf.jpg,9,6,4,2,3,2,7,5,0,39,,,,,,,,,,,,,,,,,,,,
,,,,,39,2020-07-03_17h15.16.858,retriever_ti,2020.1.3,Win32,60,Chrome,1366,768,,,,,,,,,,,,,,,,,1,,,,,,,,,,,,,,,,,,,,,,,,,,,634.77711,49,left,1.0872,parrot      ,8,5,3,1,3,634.79489,634.79489,637.291245,0,48,48,48,1,49,8,5,parrot      ,scarf         ,html/resources/sequences_IDs/B/05_parrot.jpg,html/resources/sequences_IDs/A/06_scarf.jpg,5,6,2,1,3,2,4,5,0,39,,,,,,,,,,,,,,,,,,,,
,,,,,39,2020-07-03_17h15.16.858,retriever_ti,2020.1.3,Win32,60,Chrome,1366,768,,,,,,,,,,,,,,,,,1,,,,,,,,,,,,,,,,,,,,,,,,,,,637.909235,50,left,1.48873,dress         ,3,7,-2,0,3,637.94561,637.94561,640.440345,0,49,49,49,1,50,3,5,dress         ,scarf         ,html/resources/sequences_IDs/A/07_dress.jpg,html/resources/sequences_IDs/A/06_scarf.jpg,7,6,3,2,3,2,6,5,0,39,,,,,,,,,,,,,,,,,,,,
,,,,,39,2020-07-03_17h15.16.858,retriever_ti,2020.1.3,Win32,60,Chrome,1366,768,,,,,,,,,,,,,,,,,1,,,,,,,,,,,,,,,,,,,,,,,,,,,641.060505,51,right,0.93904,seaturtle     ,1,2,-6,0,3,641.07825,641.07825,643.5741,0,50,50,50,1,51,7,1,clownfish     ,seaturtle     ,html/resources/sequences_IDs/A/04_clownfish.jpg,html/resources/sequences_IDs/A/02_seaturtle.jpg,4,2,2,1,2,1,3,2,0,39,,,,,,,,,,,,,,,,,,,,
,,,,,39,2020-07-03_17h15.16.858,retriever_ti,2020.1.3,Win32,60,Chrome,1366,768,,,,,,,,,,,,,,,,,1,,,,,,,,,,,,,,,,,,,,,,,,,,,644.19148,52,left,1.01189,radio       ,6,10,-1,0,0,644.226785,644.226785,646.72305,0,51,51,51,1,52,6,7,radio       ,clownfish     ,html/resources/sequences_IDs/B/10_radio.jpg,html/resources/sequences_IDs/A/04_clownfish.jpg,10,4,4,2,2,1,8,3,0,39,,,,,,,,,,,,,,,,,,,,
,,,,,39,2020-07-03_17h15.16.858,retriever_ti,2020.1.3,Win32,60,Chrome,1366,768,,,,,,,,,,,,,,,,,1,,,,,,,,,,,,,,,,,,,,,,,,,,,647.826445,53,right,0.896815,parrot      ,8,5,1,1,1,647.8598,647.8598,650.356015,0,52,52,52,1,53,7,8,clownfish     ,parrot      ,html/resources/sequences_IDs/A/04_clownfish.jpg,html/resources/sequences_IDs/B/05_parrot.jpg,4,5,2,1,2,1,3,4,0,39,,,,,,,,,,,,,,,,,,,,
,,,,,39,2020-07-03_17h15.16.858,retriever_ti,2020.1.3,Win32,60,Chrome,1366,768,,,,,,,,,,,,,,,,,1,,,,,,,,,,,,,,,,,,,,,,,,,,,651.459425,54,right,1.041785,redfox      ,2,1,1,1,1,651.49455,651.49455,653.989095,0,53,53,53,1,54,1,2,seaturtle     ,redfox      ,html/resources/sequences_IDs/A/02_seaturtle.jpg,html/resources/sequences_IDs/B/01_redfox.jpg,2,1,2,1,1,1,2,1,0,39,,,,,,,,,,,,,,,,,,,,
,,,,,39,2020-07-03_17h15.16.858,retriever_ti,2020.1.3,Win32,60,Chrome,1366,768,,,,,,,,,,,,,,,,,1,,,,,,,,,,,,,,,,,,,,,,,,,,,655.09248,55,right,1.135415,redfox      ,2,1,-2,0,3,655.109725,655.109725,657.60511,0,54,54,54,1,55,4,2,phone       ,redfox      ,html/resources/sequences_IDs/B/09_phone.jpg,html/resources/sequences_IDs/B/01_redfox.jpg,9,1,4,2,1,1,7,1,0,39,,,,,,,,,,,,,,,,,,,,
,,,,,39,2020-07-03_17h15.16.858,retriever_ti,2020.1.3,Win32,60,Chrome,1366,768,,,,,,,,,,,,,,,,,1,,,,,,,,,,,,,,,,,,,,,,,,,,,658.222775,56,left,1.030155,parrot      ,8,5,7,1,3,658.24125,658.24125,660.73819,0,55,55,55,1,56,8,1,parrot      ,seaturtle     ,html/resources/sequences_IDs/B/05_parrot.jpg,html/resources/sequences_IDs/A/02_seaturtle.jpg,5,2,2,1,2,1,4,2,0,39,,,,,,,,,,,,,,,,,,,,
,,,,,39,2020-07-03_17h15.16.858,retriever_ti,2020.1.3,Win32,60,Chrome,1366,768,,,,,,,,,,,,,,,,,1,,,,,,,,,,,,,,,,,,,,,,,,,,,661.35593,57,left,1.0601,redfox      ,2,1,-5,0,3,661.373025,661.373025,663.870595,0,56,56,56,1,57,2,7,redfox      ,clownfish     ,html/resources/sequences_IDs/B/01_redfox.jpg,html/resources/sequences_IDs/A/04_clownfish.jpg,1,4,1,1,2,1,1,3,0,39,,,,,,,,,,,,,,,,,,,,
,,,,,39,2020-07-03_17h15.16.858,retriever_ti,2020.1.3,Win32,60,Chrome,1366,768,,,,,,,,,,,,,,,,,1,,,,,,,,,,,,,,,,,,,,,,,,,,,664.47223,58,right,1.00014,redfox      ,2,1,-5,0,3,664.491285,664.491285,666.987445,0,57,57,57,1,58,7,2,clownfish     ,redfox      ,html/resources/sequences_IDs/A/04_clownfish.jpg,html/resources/sequences_IDs/B/01_redfox.jpg,4,1,2,1,1,1,3,1,0,39,,,,,,,,,,,,,,,,,,,,
,,,,,39,2020-07-03_17h15.16.858,retriever_ti,2020.1.3,Win32,60,Chrome,1366,768,,,,,,,,,,,,,,,,,1,,,,,,,,,,,,,,,,,,,,,,,,,,,667.607235,59,right,0.98474,phone       ,4,9,2,1,3,667.6261,667.6261,670.119855,0,58,58,58,1,59,2,4,redfox      ,phone       ,html/resources/sequences_IDs/B/01_redfox.jpg,html/resources/sequences_IDs/B/09_phone.jpg,1,9,1,1,4,2,1,7,0,39,,,,,,,,,,,,,,,,,,,,
,,,,,39,2020-07-03_17h15.16.858,retriever_ti,2020.1.3,Win32,60,Chrome,1366,768,,,,,,,,,,,,,,,,,1,,,,,,,,,,,,,,,,,,,,,,,,,,,670.72288,60,right,1.229345,phone       ,4,9,1,1,1,670.756985,670.756985,673.253555,0,59,59,59,1,60,3,4,dress         ,phone       ,html/resources/sequences_IDs/A/07_dress.jpg,html/resources/sequences_IDs/B/09_phone.jpg,7,9,3,2,4,2,6,7,0,39,,,,,,,,,,,,,,,,,,,,
,,,,,39,2020-07-03_17h15.16.858,retriever_ti,2020.1.3,Win32,60,Chrome,1366,768,,,,,,,,,,,,,,,,,1,,,,,,,,,,,,,,,,,,,,,,,,,,,674.354915,61,right,1.40111,radio       ,6,10,5,1,3,674.3728,674.3728,676.86979,0,60,60,60,1,61,1,6,seaturtle     ,radio       ,html/resources/sequences_IDs/A/02_seaturtle.jpg,html/resources/sequences_IDs/B/10_radio.jpg,2,10,2,1,4,2,2,8,0,39,,,,,,,,,,,,,,,,,,,,
,,,,,39,2020-07-03_17h15.16.858,retriever_ti,2020.1.3,Win32,60,Chrome,1366,768,,,,,,,,,,,,,,,,,1,,,,,,,,,,,,,,,,,,,,,,,,,,,677.48935,62,right,1.83676,phone       ,4,9,-2,0,3,677.50663,677.50663,680.00259,0,61,61,61,1,62,6,4,radio       ,phone       ,html/resources/sequences_IDs/B/10_radio.jpg,html/resources/sequences_IDs/B/09_phone.jpg,10,9,4,2,4,2,8,7,0,39,,,,,,,,,,,,,,,,,,,,
,,,,,39,2020-07-03_17h15.16.858,retriever_ti,2020.1.3,Win32,60,Chrome,1366,768,,,,,,,,,,,,,,,,,1,,,,,,,,,,,,,,,,,,,,,,,,,,,680.62094,63,left,1.608505,parrot      ,8,5,6,1,3,680.639495,680.639495,683.135495,0,62,62,62,1,63,8,2,parrot      ,redfox      ,html/resources/sequences_IDs/B/05_parrot.jpg,html/resources/sequences_IDs/B/01_redfox.jpg,5,1,2,1,1,1,4,1,0,39,,,,,,,,,,,,,,,,,,,,
,,,,,39,2020-07-03_17h15.16.858,retriever_ti,2020.1.3,Win32,60,Chrome,1366,768,,,,,,,,,,,,,,,,,1,,,,,,,,,,,,,,,,,,,,,,,,,,,683.73915,64,right,1.356885,redfox      ,2,1,-1,0,0,683.75674,683.75674,686.25202,0,63,63,63,1,64,3,2,dress         ,redfox      ,html/resources/sequences_IDs/A/07_dress.jpg,html/resources/sequences_IDs/B/01_redfox.jpg,7,1,3,2,1,1,6,1,0,39,,,,,,,,,,,,,,,,,,,,
,,,,,39,2020-07-03_17h15.16.858,retriever_ti,2020.1.3,Win32,60,Chrome,1366,768,,,,,,,,,,,,,,,,,1,,,,,,,,,,,,,,,,,,,,,,,,,,,687.35629,65,left,1.0447,scarf         ,5,6,-2,0,3,687.37245,687.37245,689.868575,0,64,64,64,1,65,5,7,scarf         ,clownfish     ,html/resources/sequences_IDs/A/06_scarf.jpg,html/resources/sequences_IDs/A/04_clownfish.jpg,6,4,3,2,2,1,5,3,0,39,,,,,,,,,,,,,,,,,,,,
,,,,,39,2020-07-03_17h15.16.858,retriever_ti,2020.1.3,Win32,60,Chrome,1366,768,,,,,,,,,,,,,,,,,1,,,,,,,,,,,,,,,,,,,,,,,,,,,690.4853,66,left,1.15918,phone       ,4,9,1,1,1,690.503065,690.503065,693.00056,0,65,65,65,1,66,4,3,phone       ,dress         ,html/resources/sequences_IDs/B/09_phone.jpg,html/resources/sequences_IDs/A/07_dress.jpg,9,7,4,2,3,2,7,6,0,39,,,,,,,,,,,,,,,,,,,,
,,,,,39,2020-07-03_17h15.16.858,retriever_ti,2020.1.3,Win32,60,Chrome,1366,768,,,,,,,,,,,,,,,,,1,,,,,,,,,,,,,,,,,,,,,,,,,,,694.10415,67,left,1.134115,scarf         ,5,6,1,1,1,694.13741,694.13741,696.634495,0,66,66,66,1,67,5,4,scarf         ,phone       ,html/resources/sequences_IDs/A/06_scarf.jpg,html/resources/sequences_IDs/B/09_phone.jpg,6,9,3,2,4,2,5,7,0,39,,,,,,,,,,,,,,,,,,,,
,,,,,39,2020-07-03_17h15.16.858,retriever_ti,2020.1.3,Win32,60,Chrome,1366,768,,,,,,,,,,,,,,,,,1,,,,,,,,,,,,,,,,,,,,,,,,,,,697.73809,68,left,1.408095,scarf         ,5,6,3,1,3,697.755205,697.755205,700.2505,0,67,67,67,1,68,5,2,scarf         ,redfox      ,html/resources/sequences_IDs/A/06_scarf.jpg,html/resources/sequences_IDs/B/01_redfox.jpg,6,1,3,2,1,1,5,1,0,39,,,,,,,,,,,,,,,,,,,,
,,,,,39,2020-07-03_17h15.16.858,retriever_ti,2020.1.3,Win32,60,Chrome,1366,768,,,,,,,,,,,,,,,,,1,,,,,,,,,,,,,,,,,,,,,,,,,,,700.87088,69,right,1.32575,seaturtle     ,1,2,-1,0,0,700.906785,700.906785,703.399595,0,68,68,68,1,69,2,1,redfox      ,seaturtle     ,html/resources/sequences_IDs/B/01_redfox.jpg,html/resources/sequences_IDs/A/02_seaturtle.jpg,1,2,1,1,2,1,1,2,0,39,,,,,,,,,,,,,,,,,,,,
,,,,,39,2020-07-03_17h15.16.858,retriever_ti,2020.1.3,Win32,60,Chrome,1366,768,,,,,,,,,,,,,,,,,1,,,,,,,,,,,,,,,,,,,,,,,,,,,704.50147,70,left,1.23338,dress         ,3,7,-5,0,3,704.520035,704.520035,707.01664,0,69,69,69,1,70,3,8,dress         ,parrot      ,html/resources/sequences_IDs/A/07_dress.jpg,html/resources/sequences_IDs/B/05_parrot.jpg,7,5,3,2,2,1,6,4,0,39,,,,,,,,,,,,,,,,,,,,
,,,,,39,2020-07-03_17h15.16.858,retriever_ti,2020.1.3,Win32,60,Chrome,1366,768,,,,,,,,,,,,,,,,,1,,,,,,,,,,,,,,,,,,,,,,,,,,,707.621235,71,right,1.106625,seaturtle     ,1,2,-1,0,0,707.636915,707.636915,710.13259,0,70,70,70,1,71,2,1,redfox      ,seaturtle     ,html/resources/sequences_IDs/B/01_redfox.jpg,html/resources/sequences_IDs/A/02_seaturtle.jpg,1,2,1,1,2,1,1,2,0,39,,,,,,,,,,,,,,,,,,,,
,,,,,39,2020-07-03_17h15.16.858,retriever_ti,2020.1.3,Win32,60,Chrome,1366,768,,,,,,,,,,,,,,,,,1,,,,,,,,,,,,,,,,,,,,,,,,,,,711.236255,72,left,0.956665,radio       ,6,10,-1,0,0,711.253455,711.253455,713.749625,0,71,71,71,1,72,6,7,radio       ,clownfish     ,html/resources/sequences_IDs/B/10_radio.jpg,html/resources/sequences_IDs/A/04_clownfish.jpg,10,4,4,2,2,1,8,3,0,39,,,,,,,,,,,,,,,,,,,,
,,,,,39,2020-07-03_17h15.16.858,retriever_ti,2020.1.3,Win32,60,Chrome,1366,768,,,,,,,,,,,,,,,,,1,,,,,,,,,,,,,,,,,,,,,,,,,,,714.85247,73,right,1.049005,scarf         ,5,6,3,1,3,714.886625,714.886625,717.38186,0,72,72,72,1,73,2,5,redfox      ,scarf         ,html/resources/sequences_IDs/B/01_redfox.jpg,html/resources/sequences_IDs/A/06_scarf.jpg,1,6,1,1,3,2,1,5,0,39,,,,,,,,,,,,,,,,,,,,
,,,,,39,2020-07-03_17h15.16.858,retriever_ti,2020.1.3,Win32,60,Chrome,1366,768,,,,,,,,,,,,,,,,,1,,,,,,,,,,,,,,,,,,,,,,,,,,,717.99943,74,left,0.85028,scarf         ,5,6,-1,0,0,718.03518,718.03518,720.531005,0,73,73,73,1,74,5,6,scarf         ,radio       ,html/resources/sequences_IDs/A/06_scarf.jpg,html/resources/sequences_IDs/B/10_radio.jpg,6,10,3,2,4,2,5,8,0,39,,,,,,,,,,,,,,,,,,,,
,,,,,39,2020-07-03_17h15.16.858,retriever_ti,2020.1.3,Win32,60,Chrome,1366,768,,,,,,,,,,,,,,,,,1,,,,,,,,,,,,,,,,,,,,,,,,,,,721.6317,75,right,0.95519,phone       ,4,9,-4,0,3,721.66563,721.66563,724.16431,0,74,74,74,1,75,8,4,parrot      ,phone       ,html/resources/sequences_IDs/B/05_parrot.jpg,html/resources/sequences_IDs/B/09_phone.jpg,5,9,2,1,4,2,4,7,0,39,,,,,,,,,,,,,,,,,,,,
,,,,,39,2020-07-03_17h15.16.858,retriever_ti,2020.1.3,Win32,60,Chrome,1366,768,,,,,,,,,,,,,,,,,1,,,,,,,,,,,,,,,,,,,,,,,,,,,724.78218,76,right,0.83298,scarf         ,5,6,-2,0,3,724.817095,724.817095,727.31407,0,75,75,75,1,76,7,5,clownfish     ,scarf         ,html/resources/sequences_IDs/A/04_clownfish.jpg,html/resources/sequences_IDs/A/06_scarf.jpg,4,6,2,1,3,2,3,5,0,39,,,,,,,,,,,,,,,,,,,,
,,,,,39,2020-07-03_17h15.16.858,retriever_ti,2020.1.3,Win32,60,Chrome,1366,768,,,,,,,,,,,,,,,,,1,,,,,,,,,,,,,,,,,,,,,,,,,,,727.93426,77,left,0.965835,scarf         ,5,6,-3,0,3,727.951025,727.951025,730.44648,0,76,76,76,1,77,5,8,scarf         ,parrot      ,html/resources/sequences_IDs/A/06_scarf.jpg,html/resources/sequences_IDs/B/05_parrot.jpg,6,5,3,2,2,1,5,4,0,39,,,,,,,,,,,,,,,,,,,,
,,,,,39,2020-07-03_17h15.16.858,retriever_ti,2020.1.3,Win32,60,Chrome,1366,768,,,,,,,,,,,,,,,,,,,,,,,,,,,,,,,,,,,,,0,8.017,,,,,,,,,,,,,,,,,,,,,,,,,,,,,,,,,,,,,,,,,0,0,0,0,1,,,,,,,,,,,,,,,
,,,,,39,2020-07-03_17h15.16.858,retriever_ti,2020.1.3,Win32,60,Chrome,1366,768,,,,,,,,,,,,,,,,,2,,,,,,,,,,,,,,,,,,,,,,,,,,,766.48414,78,right,1.194915,parrot      ,8,5,7,1,3,766.510925,766.510925,769.00972,0,0,0,0,1,78,1,8,seaturtle     ,parrot      ,html/resources/sequences_IDs/A/02_seaturtle.jpg,html/resources/sequences_IDs/B/05_parrot.jpg,2,5,2,1,2,1,2,4,0,39,,,,,,,,,,,,,,,,,,,,
,,,,,39,2020-07-03_17h15.16.858,retriever_ti,2020.1.3,Win32,60,Chrome,1366,768,,,,,,,,,,,,,,,,,2,,,,,,,,,,,,,,,,,,,,,,,,,,,769.6278,79,left,0.84033,scarf         ,5,6,2,1,3,769.6631,769.6631,772.159215,0,1,1,1,1,79,5,3,scarf         ,dress         ,html/resources/sequences_IDs/A/06_scarf.jpg,html/resources/sequences_IDs/A/07_dress.jpg,6,7,3,2,3,2,5,6,0,39,,,,,,,,,,,,,,,,,,,,
,,,,,39,2020-07-03_17h15.16.858,retriever_ti,2020.1.3,Win32,60,Chrome,1366,768,,,,,,,,,,,,,,,,,2,,,,,,,,,,,,,,,,,,,,,,,,,,,772.779195,80,left,1.05891,dress         ,3,7,1,1,1,772.81258,772.81258,775.309395,0,2,2,2,1,80,3,2,dress         ,redfox      ,html/resources/sequences_IDs/A/07_dress.jpg,html/resources/sequences_IDs/B/01_redfox.jpg,7,1,3,2,1,1,6,1,0,39,,,,,,,,,,,,,,,,,,,,
,,,,,39,2020-07-03_17h15.16.858,retriever_ti,2020.1.3,Win32,60,Chrome,1366,768,,,,,,,,,,,,,,,,,2,,,,,,,,,,,,,,,,,,,,,,,,,,,776.41222,81,right,0.854935,scarf         ,5,6,-2,0,3,776.429505,776.429505,778.9251,0,3,3,3,1,81,7,5,clownfish     ,scarf         ,html/resources/sequences_IDs/A/04_clownfish.jpg,html/resources/sequences_IDs/A/06_scarf.jpg,4,6,2,1,3,2,3,5,0,39,,,,,,,,,,,,,,,,,,,,
,,,,,39,2020-07-03_17h15.16.858,retriever_ti,2020.1.3,Win32,60,Chrome,1366,768,,,,,,,,,,,,,,,,,2,,,,,,,,,,,,,,,,,,,,,,,,,,,779.543115,82,left,0.891135,dress         ,3,7,2,1,3,779.562055,779.562055,782.05748,0,4,4,4,1,82,3,1,dress         ,seaturtle     ,html/resources/sequences_IDs/A/07_dress.jpg,html/resources/sequences_IDs/A/02_seaturtle.jpg,7,2,3,2,2,1,6,2,0,39,,,,,,,,,,,,,,,,,,,,
,,,,,39,2020-07-03_17h15.16.858,retriever_ti,2020.1.3,Win32,60,Chrome,1366,768,,,,,,,,,,,,,,,,,2,,,,,,,,,,,,,,,,,,,,,,,,,,,782.675315,83,right,1.011075,seaturtle     ,1,2,-1,0,0,782.7083,782.7083,785.20776,0,5,5,5,1,83,2,1,redfox      ,seaturtle     ,html/resources/sequences_IDs/B/01_redfox.jpg,html/resources/sequences_IDs/A/02_seaturtle.jpg,1,2,1,1,2,1,1,2,0,39,,,,,,,,,,,,,,,,,,,,
,,,,,39,2020-07-03_17h15.16.858,retriever_ti,2020.1.3,Win32,60,Chrome,1366,768,,,,,,,,,,,,,,,,,2,,,,,,,,,,,,,,,,,,,,,,,,,,,786.309705,84,left,1.178505,seaturtle     ,1,2,-1,0,1,786.32853,786.32853,788.82384,0,6,6,6,1,84,1,2,seaturtle     ,redfox      ,html/resources/sequences_IDs/A/02_seaturtle.jpg,html/resources/sequences_IDs/B/01_redfox.jpg,2,1,2,1,1,1,2,1,1,39,,,,,,,,,,,,,,,,,,,,
,,,,,39,2020-07-03_17h15.16.858,retriever_ti,2020.1.3,Win32,60,Chrome,1366,768,,,,,,,,,,,,,,,,,2,,,,,,,,,,,,,,,,,,,,,,,,,,,789.92471,85,left,1.150285,dress         ,3,7,1,1,0,789.95868,789.95868,792.456415,0,7,7,7,1,85,3,2,dress         ,redfox      ,html/resources/sequences_IDs/A/07_dress.jpg,html/resources/sequences_IDs/B/01_redfox.jpg,7,1,3,2,1,1,6,1,1,39,,,,,,,,,,,,,,,,,,,,
,,,,,39,2020-07-03_17h15.16.858,retriever_ti,2020.1.3,Win32,60,Chrome,1366,768,,,,,,,,,,,,,,,,,2,,,,,,,,,,,,,,,,,,,,,,,,,,,793.55794,86,left,1.15551,scarf         ,5,6,-1,0,0,793.59183,793.59183,796.090565,0,8,8,8,1,86,5,6,scarf         ,radio       ,html/resources/sequences_IDs/A/06_scarf.jpg,html/resources/sequences_IDs/B/10_radio.jpg,6,10,3,2,4,2,5,8,0,39,,,,,,,,,,,,,,,,,,,,
,,,,,39,2020-07-03_17h15.16.858,retriever_ti,2020.1.3,Win32,60,Chrome,1366,768,,,,,,,,,,,,,,,,,2,,,,,,,,,,,,,,,,,,,,,,,,,,,797.19374,87,right,1.42411,redfox      ,2,1,-4,0,3,797.227475,797.227475,799.72279,0,9,9,9,1,87,6,2,radio       ,redfox      ,html/resources/sequences_IDs/B/10_radio.jpg,html/resources/sequences_IDs/B/01_redfox.jpg,10,1,4,2,1,1,8,1,0,39,,,,,,,,,,,,,,,,,,,,
,,,,,39,2020-07-03_17h15.16.858,retriever_ti,2020.1.3,Win32,60,Chrome,1366,768,,,,,,,,,,,,,,,,,2,,,,,,,,,,,,,,,,,,,,,,,,,,,800.34094,88,right,0.765495,scarf         ,5,6,1,1,1,800.35988,800.35988,802.855705,0,10,10,10,1,88,4,5,phone       ,scarf         ,html/resources/sequences_IDs/B/09_phone.jpg,html/resources/sequences_IDs/A/06_scarf.jpg,9,6,4,2,3,2,7,5,0,39,,,,,,,,,,,,,,,,,,,,
,,,,,39,2020-07-03_17h15.16.858,retriever_ti,2020.1.3,Win32,60,Chrome,1366,768,,,,,,,,,,,,,,,,,2,,,,,,,,,,,,,,,,,,,,,,,,,,,803.9601,89,left,1.10819,scarf         ,5,6,3,1,3,803.99354,803.99354,806.48891,0,11,11,11,1,89,5,2,scarf         ,redfox      ,html/resources/sequences_IDs/A/06_scarf.jpg,html/resources/sequences_IDs/B/01_redfox.jpg,6,1,3,2,1,1,5,1,0,39,,,,,,,,,,,,,,,,,,,,
,,,,,39,2020-07-03_17h15.16.858,retriever_ti,2020.1.3,Win32,60,Chrome,1366,768,,,,,,,,,,,,,,,,,2,,,,,,,,,,,,,,,,,,,,,,,,,,,807.10889,90,right,1.22413,phone       ,4,9,2,1,3,807.12628,807.12628,809.737705,0,12,12,12,1,90,2,4,redfox      ,phone       ,html/resources/sequences_IDs/B/01_redfox.jpg,html/resources/sequences_IDs/B/09_phone.jpg,1,9,1,1,4,2,1,7,0,39,,,,,,,,,,,,,,,,,,,,
,,,,,39,2020-07-03_17h15.16.858,retriever_ti,2020.1.3,Win32,60,Chrome,1366,768,,,,,,,,,,,,,,,,,2,,,,,,,,,,,,,,,,,,,,,,,,,,,810.35475,91,left,1.27646,phone       ,4,9,-3,0,3,810.388795,810.388795,812.887335,0,13,13,13,1,91,4,7,phone       ,clownfish     ,html/resources/sequences_IDs/B/09_phone.jpg,html/resources/sequences_IDs/A/04_clownfish.jpg,9,4,4,2,2,1,7,3,0,39,,,,,,,,,,,,,,,,,,,,
,,,,,39,2020-07-03_17h15.16.858,retriever_ti,2020.1.3,Win32,60,Chrome,1366,768,,,,,,,,,,,,,,,,,2,,,,,,,,,,,,,,,,,,,,,,,,,,,813.50517,92,right,1.117595,scarf         ,5,6,-3,0,3,813.523515,813.523515,816.021105,0,14,14,14,1,92,8,5,parrot      ,scarf         ,html/resources/sequences_IDs/B/05_parrot.jpg,html/resources/sequences_IDs/A/06_scarf.jpg,5,6,2,1,3,2,4,5,0,39,,,,,,,,,,,,,,,,,,,,
,,,,,39,2020-07-03_17h15.16.858,retriever_ti,2020.1.3,Win32,60,Chrome,1366,768,,,,,,,,,,,,,,,,,2,,,,,,,,,,,,,,,,,,,,,,,,,,,816.62909,93,left,0.91423,scarf         ,5,6,-3,0,3,816.659295,816.659295,819.154905,0,15,15,15,1,93,5,8,scarf         ,parrot      ,html/resources/sequences_IDs/A/06_scarf.jpg,html/resources/sequences_IDs/B/05_parrot.jpg,6,5,3,2,2,1,5,4,0,39,,,,,,,,,,,,,,,,,,,,
,,,,,39,2020-07-03_17h15.16.858,retriever_ti,2020.1.3,Win32,60,Chrome,1366,768,,,,,,,,,,,,,,,,,2,,,,,,,,,,,,,,,,,,,,,,,,,,,819.77333,94,right,1.705985,seaturtle     ,1,2,-1,0,0,819.79228,819.79228,822.286985,0,16,16,16,1,94,2,1,redfox      ,seaturtle     ,html/resources/sequences_IDs/B/01_redfox.jpg,html/resources/sequences_IDs/A/02_seaturtle.jpg,1,2,1,1,2,1,1,2,0,39,,,,,,,,,,,,,,,,,,,,
,,,,,39,2020-07-03_17h15.16.858,retriever_ti,2020.1.3,Win32,60,Chrome,1366,768,,,,,,,,,,,,,,,,,2,,,,,,,,,,,,,,,,,,,,,,,,,,,823.39031,95,left,1.35854,phone       ,4,9,-1,0,0,823.407485,823.407485,825.90316,0,17,17,17,1,95,4,5,phone       ,scarf         ,html/resources/sequences_IDs/B/09_phone.jpg,html/resources/sequences_IDs/A/06_scarf.jpg,9,6,4,2,3,2,7,5,0,39,,,,,,,,,,,,,,,,,,,,
,,,,,39,2020-07-03_17h15.16.858,retriever_ti,2020.1.3,Win32,60,Chrome,1366,768,,,,,,,,,,,,,,,,,2,,,,,,,,,,,,,,,,,,,,,,,,,,,827.00733,96,left,0.718685,scarf         ,5,6,-1,0,0,827.024465,827.024465,829.520395,0,18,18,18,1,96,5,6,scarf         ,radio       ,html/resources/sequences_IDs/A/06_scarf.jpg,html/resources/sequences_IDs/B/10_radio.jpg,6,10,3,2,4,2,5,8,0,39,,,,,,,,,,,,,,,,,,,,
,,,,,39,2020-07-03_17h15.16.858,retriever_ti,2020.1.3,Win32,60,Chrome,1366,768,,,,,,,,,,,,,,,,,2,,,,,,,,,,,,,,,,,,,,,,,,,,,830.622905,97,left,1.83218,clownfish     ,7,4,6,1,3,830.64035,830.64035,833.136195,0,19,19,19,1,97,7,1,clownfish     ,seaturtle     ,html/resources/sequences_IDs/A/04_clownfish.jpg,html/resources/sequences_IDs/A/02_seaturtle.jpg,4,2,2,1,2,1,3,2,0,39,,,,,,,,,,,,,,,,,,,,
,,,,,39,2020-07-03_17h15.16.858,retriever_ti,2020.1.3,Win32,60,Chrome,1366,768,,,,,,,,,,,,,,,,,2,,,,,,,,,,,,,,,,,,,,,,,,,,,833.75446,98,right,1.056705,radio       ,6,10,3,1,3,833.77325,833.77325,836.26883,0,20,20,20,1,98,3,6,dress         ,radio       ,html/resources/sequences_IDs/A/07_dress.jpg,html/resources/sequences_IDs/B/10_radio.jpg,7,10,3,2,4,2,6,8,0,39,,,,,,,,,,,,,,,,,,,,
,,,,,39,2020-07-03_17h15.16.858,retriever_ti,2020.1.3,Win32,60,Chrome,1366,768,,,,,,,,,,,,,,,,,2,,,,,,,,,,,,,,,,,,,,,,,,,,,836.87249,99,right,1.07235,radio       ,6,10,-2,0,3,836.906505,836.906505,839.401805,0,21,21,21,1,99,8,6,parrot      ,radio       ,html/resources/sequences_IDs/B/05_parrot.jpg,html/resources/sequences_IDs/B/10_radio.jpg,5,10,2,1,4,2,4,8,0,39,,,,,,,,,,,,,,,,,,,,
,,,,,39,2020-07-03_17h15.16.858,retriever_ti,2020.1.3,Win32,60,Chrome,1366,768,,,,,,,,,,,,,,,,,2,,,,,,,,,,,,,,,,,,,,,,,,,,,840.02012,100,right,0.90444,dress         ,3,7,-1,0,0,840.038395,840.038395,842.53391,0,22,22,22,1,100,4,3,phone       ,dress         ,html/resources/sequences_IDs/B/09_phone.jpg,html/resources/sequences_IDs/A/07_dress.jpg,9,7,4,2,3,2,7,6,0,39,,,,,,,,,,,,,,,,,,,,
,,,,,39,2020-07-03_17h15.16.858,retriever_ti,2020.1.3,Win32,60,Chrome,1366,768,,,,,,,,,,,,,,,,,2,,,,,,,,,,,,,,,,,,,,,,,,,,,843.636025,101,right,1.252775,scarf         ,5,6,-1,0,1,843.652895,843.652895,846.15089,0,23,23,23,1,101,6,5,radio       ,scarf         ,html/resources/sequences_IDs/B/10_radio.jpg,html/resources/sequences_IDs/A/06_scarf.jpg,10,6,4,2,3,2,8,5,1,39,,,,,,,,,,,,,,,,,,,,
,,,,,39,2020-07-03_17h15.16.858,retriever_ti,2020.1.3,Win32,60,Chrome,1366,768,,,,,,,,,,,,,,,,,2,,,,,,,,,,,,,,,,,,,,,,,,,,,847.2548,102,right,1.24302,parrot      ,8,5,1,1,1,847.287755,847.287755,849.784,0,24,24,24,1,102,7,8,clownfish     ,parrot      ,html/resources/sequences_IDs/A/04_clownfish.jpg,html/resources/sequences_IDs/B/05_parrot.jpg,4,5,2,1,2,1,3,4,0,39,,,,,,,,,,,,,,,,,,,,
,,,,,39,2020-07-03_17h15.16.858,retriever_ti,2020.1.3,Win32,60,Chrome,1366,768,,,,,,,,,,,,,,,,,2,,,,,,,,,,,,,,,,,,,,,,,,,,,850.88665,103,right,1.30431,phone       ,4,9,-2,0,3,850.92074,850.92074,853.417035,0,25,25,25,1,103,6,4,radio       ,phone       ,html/resources/sequences_IDs/B/10_radio.jpg,html/resources/sequences_IDs/B/09_phone.jpg,10,9,4,2,4,2,8,7,0,39,,,,,,,,,,,,,,,,,,,,
,,,,,39,2020-07-03_17h15.16.858,retriever_ti,2020.1.3,Win32,60,Chrome,1366,768,,,,,,,,,,,,,,,,,2,,,,,,,,,,,,,,,,,,,,,,,,,,,854.018755,104,left,1.55079,phone       ,4,9,1,1,1,854.055405,854.055405,856.550115,0,26,26,26,1,104,4,3,phone       ,dress         ,html/resources/sequences_IDs/B/09_phone.jpg,html/resources/sequences_IDs/A/07_dress.jpg,9,7,4,2,3,2,7,6,0,39,,,,,,,,,,,,,,,,,,,,
,,,,,39,2020-07-03_17h15.16.858,retriever_ti,2020.1.3,Win32,60,Chrome,1366,768,,,,,,,,,,,,,,,,,2,,,,,,,,,,,,,,,,,,,,,,,,,,,857.653455,105,right,0.98415,seaturtle     ,1,2,-7,0,3,857.671015,857.671015,860.166675,0,27,27,27,1,105,8,1,parrot      ,seaturtle     ,html/resources/sequences_IDs/B/05_parrot.jpg,html/resources/sequences_IDs/A/02_seaturtle.jpg,5,2,2,1,2,1,4,2,0,39,,,,,,,,,,,,,,,,,,,,
,,,,,39,2020-07-03_17h15.16.858,retriever_ti,2020.1.3,Win32,60,Chrome,1366,768,,,,,,,,,,,,,,,,,2,,,,,,,,,,,,,,,,,,,,,,,,,,,860.78658,106,right,1.777165,dress         ,3,7,-3,0,3,860.82028,860.82028,863.316155,0,28,28,28,1,106,6,3,radio       ,dress         ,html/resources/sequences_IDs/B/10_radio.jpg,html/resources/sequences_IDs/A/07_dress.jpg,10,7,4,2,3,2,8,6,0,39,,,,,,,,,,,,,,,,,,,,
,,,,,39,2020-07-03_17h15.16.858,retriever_ti,2020.1.3,Win32,60,Chrome,1366,768,,,,,,,,,,,,,,,,,2,,,,,,,,,,,,,,,,,,,,,,,,,,,863.917725,107,right,1.147145,redfox      ,2,1,-5,0,3,863.937205,863.937205,866.43183,0,29,29,29,1,107,7,2,clownfish     ,redfox      ,html/resources/sequences_IDs/A/04_clownfish.jpg,html/resources/sequences_IDs/B/01_redfox.jpg,4,1,2,1,1,1,3,1,0,39,,,,,,,,,,,,,,,,,,,,
,,,,,39,2020-07-03_17h15.16.858,retriever_ti,2020.1.3,Win32,60,Chrome,1366,768,,,,,,,,,,,,,,,,,2,,,,,,,,,,,,,,,,,,,,,,,,,,,867.05206,108,right,1.951705,clownfish     ,7,4,6,1,3,867.08562,867.08562,869.581435,0,30,30,30,1,108,1,7,seaturtle     ,clownfish     ,html/resources/sequences_IDs/A/02_seaturtle.jpg,html/resources/sequences_IDs/A/04_clownfish.jpg,2,4,2,1,2,1,2,3,0,39,,,,,,,,,,,,,,,,,,,,
,,,,,39,2020-07-03_17h15.16.858,retriever_ti,2020.1.3,Win32,60,Chrome,1366,768,,,,,,,,,,,,,,,,,2,,,,,,,,,,,,,,,,,,,,,,,,,,,870.199925,109,left,1.100385,redfox      ,2,1,-6,0,3,870.2361,870.2361,872.73045,0,31,31,31,1,109,2,8,redfox      ,parrot      ,html/resources/sequences_IDs/B/01_redfox.jpg,html/resources/sequences_IDs/B/05_parrot.jpg,1,5,1,1,2,1,1,4,0,39,,,,,,,,,,,,,,,,,,,,
,,,,,39,2020-07-03_17h15.16.858,retriever_ti,2020.1.3,Win32,60,Chrome,1366,768,,,,,,,,,,,,,,,,,2,,,,,,,,,,,,,,,,,,,,,,,,,,,873.3319,110,right,1.409225,radio       ,6,10,5,1,3,873.364815,873.364815,875.864985,0,32,32,32,1,110,1,6,seaturtle     ,radio       ,html/resources/sequences_IDs/A/02_seaturtle.jpg,html/resources/sequences_IDs/B/10_radio.jpg,2,10,2,1,4,2,2,8,0,39,,,,,,,,,,,,,,,,,,,,
,,,,,39,2020-07-03_17h15.16.858,retriever_ti,2020.1.3,Win32,60,Chrome,1366,768,,,,,,,,,,,,,,,,,2,,,,,,,,,,,,,,,,,,,,,,,,,,,876.483315,111,right,1.618395,dress         ,3,7,-1,0,1,876.50214,876.50214,878.996755,0,33,33,33,1,111,4,3,phone       ,dress         ,html/resources/sequences_IDs/B/09_phone.jpg,html/resources/sequences_IDs/A/07_dress.jpg,9,7,4,2,3,2,7,6,1,39,,,,,,,,,,,,,,,,,,,,
,,,,,39,2020-07-03_17h15.16.858,retriever_ti,2020.1.3,Win32,60,Chrome,1366,768,,,,,,,,,,,,,,,,,2,,,,,,,,,,,,,,,,,,,,,,,,,,,880.100825,112,left,1.05957,scarf         ,5,6,-2,0,3,880.117465,880.117465,882.61421,0,34,34,34,1,112,5,7,scarf         ,clownfish     ,html/resources/sequences_IDs/A/06_scarf.jpg,html/resources/sequences_IDs/A/04_clownfish.jpg,6,4,3,2,2,1,5,3,0,39,,,,,,,,,,,,,,,,,,,,
,,,,,39,2020-07-03_17h15.16.858,retriever_ti,2020.1.3,Win32,60,Chrome,1366,768,,,,,,,,,,,,,,,,,2,,,,,,,,,,,,,,,,,,,,,,,,,,,883.2316,113,right,1.392985,scarf         ,5,6,-1,0,0,883.250565,883.250565,885.746555,0,35,35,35,1,113,6,5,radio       ,scarf         ,html/resources/sequences_IDs/B/10_radio.jpg,html/resources/sequences_IDs/A/06_scarf.jpg,10,6,4,2,3,2,8,5,0,39,,,,,,,,,,,,,,,,,,,,
,,,,,39,2020-07-03_17h15.16.858,retriever_ti,2020.1.3,Win32,60,Chrome,1366,768,,,,,,,,,,,,,,,,,2,,,,,,,,,,,,,,,,,,,,,,,,,,,886.8497,114,left,1.40663,parrot      ,8,5,5,1,3,886.8834,886.8834,889.379595,0,36,36,36,1,114,8,3,parrot      ,dress         ,html/resources/sequences_IDs/B/05_parrot.jpg,html/resources/sequences_IDs/A/07_dress.jpg,5,7,2,1,3,2,4,6,0,39,,,,,,,,,,,,,,,,,,,,
,,,,,39,2020-07-03_17h15.16.858,retriever_ti,2020.1.3,Win32,60,Chrome,1366,768,,,,,,,,,,,,,,,,,2,,,,,,,,,,,,,,,,,,,,,,,,,,,889.99797,115,right,1.570495,dress         ,3,7,-4,0,3,890.033575,890.033575,892.529375,0,37,37,37,1,115,7,3,clownfish     ,dress         ,html/resources/sequences_IDs/A/04_clownfish.jpg,html/resources/sequences_IDs/A/07_dress.jpg,4,7,2,1,3,2,3,6,0,39,,,,,,,,,,,,,,,,,,,,
,,,,,39,2020-07-03_17h15.16.858,retriever_ti,2020.1.3,Win32,60,Chrome,1366,768,,,,,,,,,,,,,,,,,2,,,,,,,,,,,,,,,,,,,,,,,,,,,893.15486,116,left,1.336895,redfox      ,2,1,-1,0,0,893.182785,893.182785,895.67869,0,38,38,38,1,116,2,3,redfox      ,dress         ,html/resources/sequences_IDs/B/01_redfox.jpg,html/resources/sequences_IDs/A/07_dress.jpg,1,7,1,1,3,2,1,6,0,39,,,,,,,,,,,,,,,,,,,,
,,,,,39,2020-07-03_17h15.16.858,retriever_ti,2020.1.3,Win32,60,Chrome,1366,768,,,,,,,,,,,,,,,,,2,,,,,,,,,,,,,,,,,,,,,,,,,,,896.782395,117,left,1.098,scarf         ,5,6,1,1,1,896.81765,896.81765,899.31195,0,39,39,39,1,117,5,4,scarf         ,phone       ,html/resources/sequences_IDs/A/06_scarf.jpg,html/resources/sequences_IDs/B/09_phone.jpg,6,9,3,2,4,2,5,7,0,39,,,,,,,,,,,,,,,,,,,,
,,,,,39,2020-07-03_17h15.16.858,retriever_ti,2020.1.3,Win32,60,Chrome,1366,768,,,,,,,,,,,,,,,,,2,,,,,,,,,,,,,,,,,,,,,,,,,,,900.41126,118,left,0.738205,scarf         ,5,6,1,1,1,900.42842,900.42842,902.92757,0,40,40,40,1,118,5,4,scarf         ,phone       ,html/resources/sequences_IDs/A/06_scarf.jpg,html/resources/sequences_IDs/B/09_phone.jpg,6,9,3,2,4,2,5,7,0,39,,,,,,,,,,,,,,,,,,,,
,,,,,39,2020-07-03_17h15.16.858,retriever_ti,2020.1.3,Win32,60,Chrome,1366,768,,,,,,,,,,,,,,,,,2,,,,,,,,,,,,,,,,,,,,,,,,,,,904.03073,119,right,1.292455,scarf         ,5,6,-1,0,0,904.064365,904.064365,906.561175,0,41,41,41,1,119,6,5,radio       ,scarf         ,html/resources/sequences_IDs/B/10_radio.jpg,html/resources/sequences_IDs/A/06_scarf.jpg,10,6,4,2,3,2,8,5,0,39,,,,,,,,,,,,,,,,,,,,
,,,,,39,2020-07-03_17h15.16.858,retriever_ti,2020.1.3,Win32,60,Chrome,1366,768,,,,,,,,,,,,,,,,,2,,,,,,,,,,,,,,,,,,,,,,,,,,,907.66508,120,left,0.995165,scarf         ,5,6,4,1,3,907.69866,907.69866,910.19403,0,42,42,42,1,120,5,1,scarf         ,seaturtle     ,html/resources/sequences_IDs/A/06_scarf.jpg,html/resources/sequences_IDs/A/02_seaturtle.jpg,6,2,3,2,2,1,5,2,0,39,,,,,,,,,,,,,,,,,,,,
,,,,,39,2020-07-03_17h15.16.858,retriever_ti,2020.1.3,Win32,60,Chrome,1366,768,,,,,,,,,,,,,,,,,2,,,,,,,,,,,,,,,,,,,,,,,,,,,910.813555,121,left,2.247775,phone       ,4,9,-1,0,1,910.847345,910.847345,913.34401,0,43,43,43,1,121,4,5,phone       ,scarf         ,html/resources/sequences_IDs/B/09_phone.jpg,html/resources/sequences_IDs/A/06_scarf.jpg,9,6,4,2,3,2,7,5,1,39,,,,,,,,,,,,,,,,,,,,
,,,,,39,2020-07-03_17h15.16.858,retriever_ti,2020.1.3,Win32,60,Chrome,1366,768,,,,,,,,,,,,,,,,,2,,,,,,,,,,,,,,,,,,,,,,,,,,,914.44518,122,right,0.949355,redfox      ,2,1,-6,0,3,914.463775,914.463775,916.95968,0,44,44,44,1,122,8,2,parrot      ,redfox      ,html/resources/sequences_IDs/B/05_parrot.jpg,html/resources/sequences_IDs/B/01_redfox.jpg,5,1,2,1,1,1,4,1,0,39,,,,,,,,,,,,,,,,,,,,
,,,,,39,2020-07-03_17h15.16.858,retriever_ti,2020.1.3,Win32,60,Chrome,1366,768,,,,,,,,,,,,,,,,,2,,,,,,,,,,,,,,,,,,,,,,,,,,,917.56372,123,left,1.065935,parrot      ,8,5,1,1,1,917.597535,917.597535,920.09312,0,45,45,45,1,123,8,7,parrot      ,clownfish     ,html/resources/sequences_IDs/B/05_parrot.jpg,html/resources/sequences_IDs/A/04_clownfish.jpg,5,4,2,1,2,1,4,3,0,39,,,,,,,,,,,,,,,,,,,,
,,,,,39,2020-07-03_17h15.16.858,retriever_ti,2020.1.3,Win32,60,Chrome,1366,768,,,,,,,,,,,,,,,,,2,,,,,,,,,,,,,,,,,,,,,,,,,,,921.196405,124,right,0.838005,scarf         ,5,6,2,1,3,921.229935,921.229935,923.72573,0,46,46,46,1,124,3,5,dress         ,scarf         ,html/resources/sequences_IDs/A/07_dress.jpg,html/resources/sequences_IDs/A/06_scarf.jpg,7,6,3,2,3,2,6,5,0,39,,,,,,,,,,,,,,,,,,,,
,,,,,39,2020-07-03_17h15.16.858,retriever_ti,2020.1.3,Win32,60,Chrome,1366,768,,,,,,,,,,,,,,,,,2,,,,,,,,,,,,,,,,,,,,,,,,,,,924.343755,125,left,1.076525,parrot      ,8,5,1,1,0,924.379825,924.379825,926.87534,0,47,47,47,1,125,8,7,parrot      ,clownfish     ,html/resources/sequences_IDs/B/05_parrot.jpg,html/resources/sequences_IDs/A/04_clownfish.jpg,5,4,2,1,2,1,4,3,1,39,,,,,,,,,,,,,,,,,,,,
,,,,,39,2020-07-03_17h15.16.858,retriever_ti,2020.1.3,Win32,60,Chrome,1366,768,,,,,,,,,,,,,,,,,2,,,,,,,,,,,,,,,,,,,,,,,,,,,927.978625,126,left,0.81104,phone       ,4,9,-4,0,3,928.013045,928.013045,930.50762,0,48,48,48,1,126,4,8,phone       ,parrot      ,html/resources/sequences_IDs/B/09_phone.jpg,html/resources/sequences_IDs/B/05_parrot.jpg,9,5,4,2,2,1,7,4,0,39,,,,,,,,,,,,,,,,,,,,
,,,,,39,2020-07-03_17h15.16.858,retriever_ti,2020.1.3,Win32,60,Chrome,1366,768,,,,,,,,,,,,,,,,,2,,,,,,,,,,,,,,,,,,,,,,,,,,,931.125435,127,left,1.868115,seaturtle     ,1,2,-1,0,0,931.14196,931.14196,933.640705,0,49,49,49,1,127,1,2,seaturtle     ,redfox      ,html/resources/sequences_IDs/A/02_seaturtle.jpg,html/resources/sequences_IDs/B/01_redfox.jpg,2,1,2,1,1,1,2,1,0,39,,,,,,,,,,,,,,,,,,,,
,,,,,39,2020-07-03_17h15.16.858,retriever_ti,2020.1.3,Win32,60,Chrome,1366,768,,,,,,,,,,,,,,,,,2,,,,,,,,,,,,,,,,,,,,,,,,,,,934.744295,128,right,1.17878,redfox      ,2,1,1,1,1,934.76145,934.76145,937.257185,0,50,50,50,1,128,1,2,seaturtle     ,redfox      ,html/resources/sequences_IDs/A/02_seaturtle.jpg,html/resources/sequences_IDs/B/01_redfox.jpg,2,1,2,1,1,1,2,1,0,39,,,,,,,,,,,,,,,,,,,,
,,,,,39,2020-07-03_17h15.16.858,retriever_ti,2020.1.3,Win32,60,Chrome,1366,768,,,,,,,,,,,,,,,,,2,,,,,,,,,,,,,,,,,,,,,,,,,,,938.35882,129,left,1.013215,phone       ,4,9,-2,0,3,938.394355,938.394355,940.890975,0,51,51,51,1,129,4,6,phone       ,radio       ,html/resources/sequences_IDs/B/09_phone.jpg,html/resources/sequences_IDs/B/10_radio.jpg,9,10,4,2,4,2,7,8,0,39,,,,,,,,,,,,,,,,,,,,
,,,,,39,2020-07-03_17h15.16.858,retriever_ti,2020.1.3,Win32,60,Chrome,1366,768,,,,,,,,,,,,,,,,,2,,,,,,,,,,,,,,,,,,,,,,,,,,,941.497335,130,left,0.92424,redfox      ,2,1,-3,0,3,941.528875,941.528875,944.024255,0,52,52,52,1,130,2,5,redfox      ,scarf         ,html/resources/sequences_IDs/B/01_redfox.jpg,html/resources/sequences_IDs/A/06_scarf.jpg,1,6,1,1,3,2,1,5,0,39,,,,,,,,,,,,,,,,,,,,
,,,,,39,2020-07-03_17h15.16.858,retriever_ti,2020.1.3,Win32,60,Chrome,1366,768,,,,,,,,,,,,,,,,,2,,,,,,,,,,,,,,,,,,,,,,,,,,,944.6404,131,right,1.24851,parrot      ,8,5,2,1,3,944.660495,944.660495,947.156385,0,53,53,53,1,131,6,8,radio       ,parrot      ,html/resources/sequences_IDs/B/10_radio.jpg,html/resources/sequences_IDs/B/05_parrot.jpg,10,5,4,2,2,1,8,4,0,39,,,,,,,,,,,,,,,,,,,,
,,,,,39,2020-07-03_17h15.16.858,retriever_ti,2020.1.3,Win32,60,Chrome,1366,768,,,,,,,,,,,,,,,,,2,,,,,,,,,,,,,,,,,,,,,,,,,,,947.77652,132,right,1.15656,radio       ,6,10,-1,0,0,947.793645,947.793645,950.29012,0,54,54,54,1,132,7,6,clownfish     ,radio       ,html/resources/sequences_IDs/A/04_clownfish.jpg,html/resources/sequences_IDs/B/10_radio.jpg,4,10,2,1,4,2,3,8,0,39,,,,,,,,,,,,,,,,,,,,
,,,,,39,2020-07-03_17h15.16.858,retriever_ti,2020.1.3,Win32,60,Chrome,1366,768,,,,,,,,,,,,,,,,,2,,,,,,,,,,,,,,,,,,,,,,,,,,,951.39338,133,right,1.134255,parrot      ,8,5,1,1,1,951.410205,951.410205,953.905755,0,55,55,55,1,133,7,8,clownfish     ,parrot      ,html/resources/sequences_IDs/A/04_clownfish.jpg,html/resources/sequences_IDs/B/05_parrot.jpg,4,5,2,1,2,1,3,4,0,39,,,,,,,,,,,,,,,,,,,,
,,,,,39,2020-07-03_17h15.16.858,retriever_ti,2020.1.3,Win32,60,Chrome,1366,768,,,,,,,,,,,,,,,,,2,,,,,,,,,,,,,,,,,,,,,,,,,,,955.00873,134,left,0.872285,dress         ,3,7,-4,0,3,955.04253,955.04253,957.53856,0,56,56,56,1,134,3,7,dress         ,clownfish     ,html/resources/sequences_IDs/A/07_dress.jpg,html/resources/sequences_IDs/A/04_clownfish.jpg,7,4,3,2,2,1,6,3,0,39,,,,,,,,,,,,,,,,,,,,
,,,,,39,2020-07-03_17h15.16.858,retriever_ti,2020.1.3,Win32,60,Chrome,1366,768,,,,,,,,,,,,,,,,,2,,,,,,,,,,,,,,,,,,,,,,,,,,,958.155995,135,right,1.163175,scarf         ,5,6,4,1,3,958.17601,958.17601,960.6716,0,57,57,57,1,135,1,5,seaturtle     ,scarf         ,html/resources/sequences_IDs/A/02_seaturtle.jpg,html/resources/sequences_IDs/A/06_scarf.jpg,2,6,2,1,3,2,2,5,0,39,,,,,,,,,,,,,,,,,,,,
,,,,,39,2020-07-03_17h15.16.858,retriever_ti,2020.1.3,Win32,60,Chrome,1366,768,,,,,,,,,,,,,,,,,2,,,,,,,,,,,,,,,,,,,,,,,,,,,961.28926,136,left,1.454165,seaturtle     ,1,2,-2,0,3,961.306245,961.306245,963.87053,0,58,58,58,1,136,1,3,seaturtle     ,dress         ,html/resources/sequences_IDs/A/02_seaturtle.jpg,html/resources/sequences_IDs/A/07_dress.jpg,2,7,2,1,3,2,2,6,0,39,,,,,,,,,,,,,,,,,,,,
,,,,,39,2020-07-03_17h15.16.858,retriever_ti,2020.1.3,Win32,60,Chrome,1366,768,,,,,,,,,,,,,,,,,2,,,,,,,,,,,,,,,,,,,,,,,,,,,964.47208,137,right,0.81215,phone       ,4,9,1,1,1,964.491245,964.491245,966.98691,0,59,59,59,1,137,3,4,dress         ,phone       ,html/resources/sequences_IDs/A/07_dress.jpg,html/resources/sequences_IDs/B/09_phone.jpg,7,9,3,2,4,2,6,7,0,39,,,,,,,,,,,,,,,,,,,,
,,,,,39,2020-07-03_17h15.16.858,retriever_ti,2020.1.3,Win32,60,Chrome,1366,768,,,,,,,,,,,,,,,,,2,,,,,,,,,,,,,,,,,,,,,,,,,,,968.090565,138,right,0.761045,clownfish     ,7,4,-1,0,0,968.12661,968.12661,970.620385,0,60,60,60,1,138,8,7,parrot      ,clownfish     ,html/resources/sequences_IDs/B/05_parrot.jpg,html/resources/sequences_IDs/A/04_clownfish.jpg,5,4,2,1,2,1,4,3,0,39,,,,,,,,,,,,,,,,,,,,
,,,,,39,2020-07-03_17h15.16.858,retriever_ti,2020.1.3,Win32,60,Chrome,1366,768,,,,,,,,,,,,,,,,,2,,,,,,,,,,,,,,,,,,,,,,,,,,,971.723945,139,right,0.823425,phone       ,4,9,3,1,3,971.757355,971.757355,974.253925,0,61,61,61,1,139,1,4,seaturtle     ,phone       ,html/resources/sequences_IDs/A/02_seaturtle.jpg,html/resources/sequences_IDs/B/09_phone.jpg,2,9,2,1,4,2,2,7,0,39,,,,,,,,,,,,,,,,,,,,
,,,,,39,2020-07-03_17h15.16.858,retriever_ti,2020.1.3,Win32,60,Chrome,1366,768,,,,,,,,,,,,,,,,,2,,,,,,,,,,,,,,,,,,,,,,,,,,,974.857375,140,left,1.01428,redfox      ,2,1,-5,0,3,974.8916,974.8916,977.386705,0,62,62,62,1,140,2,7,redfox      ,clownfish     ,html/resources/sequences_IDs/B/01_redfox.jpg,html/resources/sequences_IDs/A/04_clownfish.jpg,1,4,1,1,2,1,1,3,0,39,,,,,,,,,,,,,,,,,,,,
,,,,,39,2020-07-03_17h15.16.858,retriever_ti,2020.1.3,Win32,60,Chrome,1366,768,,,,,,,,,,,,,,,,,2,,,,,,,,,,,,,,,,,,,,,,,,,,,978.00456,141,left,1.490525,dress         ,3,7,-5,0,3,978.040715,978.040715,980.5359,0,63,63,63,1,141,3,8,dress         ,parrot      ,html/resources/sequences_IDs/A/07_dress.jpg,html/resources/sequences_IDs/B/05_parrot.jpg,7,5,3,2,2,1,6,4,0,39,,,,,,,,,,,,,,,,,,,,
,,,,,39,2020-07-03_17h15.16.858,retriever_ti,2020.1.3,Win32,60,Chrome,1366,768,,,,,,,,,,,,,,,,,2,,,,,,,,,,,,,,,,,,,,,,,,,,,981.139605,142,left,1.30942,phone       ,4,9,2,1,3,981.17292,981.17292,983.66938,0,64,64,64,1,142,4,2,phone       ,redfox      ,html/resources/sequences_IDs/B/09_phone.jpg,html/resources/sequences_IDs/B/01_redfox.jpg,9,1,4,2,1,1,7,1,0,39,,,,,,,,,,,,,,,,,,,,
,,,,,39,2020-07-03_17h15.16.858,retriever_ti,2020.1.3,Win32,60,Chrome,1366,768,,,,,,,,,,,,,,,,,2,,,,,,,,,,,,,,,,,,,,,,,,,,,984.27094,143,right,1.68458,radio       ,6,10,4,1,3,984.29016,984.29016,986.78541,0,65,65,65,1,143,2,6,redfox      ,radio       ,html/resources/sequences_IDs/B/01_redfox.jpg,html/resources/sequences_IDs/B/10_radio.jpg,1,10,1,1,4,2,1,8,0,39,,,,,,,,,,,,,,,,,,,,
,,,,,39,2020-07-03_17h15.16.858,retriever_ti,2020.1.3,Win32,60,Chrome,1366,768,,,,,,,,,,,,,,,,,2,,,,,,,,,,,,,,,,,,,,,,,,,,,987.40565,144,left,1.33332,redfox      ,2,1,-1,0,0,987.43891,987.43891,989.93587,0,66,66,66,1,144,2,3,redfox      ,dress         ,html/resources/sequences_IDs/B/01_redfox.jpg,html/resources/sequences_IDs/A/07_dress.jpg,1,7,1,1,3,2,1,6,0,39,,,,,,,,,,,,,,,,,,,,
,,,,,39,2020-07-03_17h15.16.858,retriever_ti,2020.1.3,Win32,60,Chrome,1366,768,,,,,,,,,,,,,,,,,2,,,,,,,,,,,,,,,,,,,,,,,,,,,991.03595,145,right,0.701735,phone       ,4,9,-4,0,3,991.07043,991.07043,993.567405,0,67,67,67,1,145,8,4,parrot      ,phone       ,html/resources/sequences_IDs/B/05_parrot.jpg,html/resources/sequences_IDs/B/09_phone.jpg,5,9,2,1,4,2,4,7,0,39,,,,,,,,,,,,,,,,,,,,
,,,,,39,2020-07-03_17h15.16.858,retriever_ti,2020.1.3,Win32,60,Chrome,1366,768,,,,,,,,,,,,,,,,,2,,,,,,,,,,,,,,,,,,,,,,,,,,,994.169475,146,right,0.647815,phone       ,4,9,1,1,1,994.188265,994.188265,996.684545,0,68,68,68,1,146,3,4,dress         ,phone       ,html/resources/sequences_IDs/A/07_dress.jpg,html/resources/sequences_IDs/B/09_phone.jpg,7,9,3,2,4,2,6,7,0,39,,,,,,,,,,,,,,,,,,,,
,,,,,39,2020-07-03_17h15.16.858,retriever_ti,2020.1.3,Win32,60,Chrome,1366,768,,,,,,,,,,,,,,,,,2,,,,,,,,,,,,,,,,,,,,,,,,,,,997.78771,147,left,1.107705,radio       ,6,10,-1,0,0,997.80443,997.80443,1000.30059,0,69,69,69,1,147,6,7,radio       ,clownfish     ,html/resources/sequences_IDs/B/10_radio.jpg,html/resources/sequences_IDs/A/04_clownfish.jpg,10,4,4,2,2,1,8,3,0,39,,,,,,,,,,,,,,,,,,,,
,,,,,39,2020-07-03_17h15.16.858,retriever_ti,2020.1.3,Win32,60,Chrome,1366,768,,,,,,,,,,,,,,,,,2,,,,,,,,,,,,,,,,,,,,,,,,,,,1001.404425,148,right,1.17035,phone       ,4,9,-3,0,3,1001.437965,1001.437965,1003.93399,0,70,70,70,1,148,7,4,clownfish     ,phone       ,html/resources/sequences_IDs/A/04_clownfish.jpg,html/resources/sequences_IDs/B/09_phone.jpg,4,9,2,1,4,2,3,7,0,39,,,,,,,,,,,,,,,,,,,,
,,,,,39,2020-07-03_17h15.16.858,retriever_ti,2020.1.3,Win32,60,Chrome,1366,768,,,,,,,,,,,,,,,,,2,,,,,,,,,,,,,,,,,,,,,,,,,,,1004.53563,149,right,1.631975,radio       ,6,10,-1,0,0,1004.57152,1004.57152,1007.066715,0,71,71,71,1,149,7,6,clownfish     ,radio       ,html/resources/sequences_IDs/A/04_clownfish.jpg,html/resources/sequences_IDs/B/10_radio.jpg,4,10,2,1,4,2,3,8,0,39,,,,,,,,,,,,,,,,,,,,
,,,,,39,2020-07-03_17h15.16.858,retriever_ti,2020.1.3,Win32,60,Chrome,1366,768,,,,,,,,,,,,,,,,,2,,,,,,,,,,,,,,,,,,,,,,,,,,,1008.17027,150,left,1.367495,radio       ,6,10,-1,0,0,1008.18771,1008.18771,1010.682735,0,72,72,72,1,150,6,7,radio       ,clownfish     ,html/resources/sequences_IDs/B/10_radio.jpg,html/resources/sequences_IDs/A/04_clownfish.jpg,10,4,4,2,2,1,8,3,0,39,,,,,,,,,,,,,,,,,,,,
,,,,,39,2020-07-03_17h15.16.858,retriever_ti,2020.1.3,Win32,60,Chrome,1366,768,,,,,,,,,,,,,,,,,2,,,,,,,,,,,,,,,,,,,,,,,,,,,1011.78619,151,right,1.535405,seaturtle     ,1,2,-3,0,3,1011.80277,1011.80277,1014.29893,0,73,73,73,1,151,4,1,phone       ,seaturtle     ,html/resources/sequences_IDs/B/09_phone.jpg,html/resources/sequences_IDs/A/02_seaturtle.jpg,9,2,4,2,2,1,7,2,0,39,,,,,,,,,,,,,,,,,,,,
,,,,,39,2020-07-03_17h15.16.858,retriever_ti,2020.1.3,Win32,60,Chrome,1366,768,,,,,,,,,,,,,,,,,2,,,,,,,,,,,,,,,,,,,,,,,,,,,1014.90265,152,right,1.374715,redfox      ,2,1,-1,0,0,1014.937,1014.937,1017.431715,0,74,74,74,1,152,3,2,dress         ,redfox      ,html/resources/sequences_IDs/A/07_dress.jpg,html/resources/sequences_IDs/B/01_redfox.jpg,7,1,3,2,1,1,6,1,0,39,,,,,,,,,,,,,,,,,,,,
,,,,,39,2020-07-03_17h15.16.858,retriever_ti,2020.1.3,Win32,60,Chrome,1366,768,,,,,,,,,,,,,,,,,2,,,,,,,,,,,,,,,,,,,,,,,,,,,1018.53364,153,left,0.863995,radio       ,6,10,-1,0,1,1018.56881,1018.56881,1021.064035,0,75,75,75,1,153,6,7,radio       ,clownfish     ,html/resources/sequences_IDs/B/10_radio.jpg,html/resources/sequences_IDs/A/04_clownfish.jpg,10,4,4,2,2,1,8,3,1,39,,,,,,,,,,,,,,,,,,,,
,,,,,39,2020-07-03_17h15.16.858,retriever_ti,2020.1.3,Win32,60,Chrome,1366,768,,,,,,,,,,,,,,,,,2,,,,,,,,,,,,,,,,,,,,,,,,,,,1022.165215,154,left,0.798005,radio       ,6,10,5,1,3,1022.182285,1022.182285,1024.680845,0,76,76,76,1,154,6,1,radio       ,seaturtle     ,html/resources/sequences_IDs/B/10_radio.jpg,html/resources/sequences_IDs/A/02_seaturtle.jpg,10,2,4,2,2,1,8,2,0,39,,,,,,,,,,,,,,,,,,,,
,,,,,39,2020-07-03_17h15.16.858,retriever_ti,2020.1.3,Win32,60,Chrome,1366,768,,,,,,,,,,,,,,,,,,,,,,,,,,,,,,,,,,,,,0,6.529985,,,,,,,,,,,,,,,,,,,,,,,,,,,,,,,,,,,,,,,,,1,0,1,0,1,,,,,,,,,,,,,,,
,,,,,39,2020-07-03_17h15.16.858,retriever_ti,2020.1.3,Win32,60,Chrome,1366,768,,,,,,,,,,,,,,,,,3,,,,,,,,,,,,,,,,,,,,,,,,,,,1040.759845,155,left,1.272515,phone       ,4,9,-2,0,3,1040.7998,1040.7998,1043.295885,0,0,0,0,1,155,4,6,phone       ,radio       ,html/resources/sequences_IDs/B/09_phone.jpg,html/resources/sequences_IDs/B/10_radio.jpg,9,10,4,2,4,2,7,8,0,39,,,,,,,,,,,,,,,,,,,,
,,,,,39,2020-07-03_17h15.16.858,retriever_ti,2020.1.3,Win32,60,Chrome,1366,768,,,,,,,,,,,,,,,,,3,,,,,,,,,,,,,,,,,,,,,,,,,,,1043.91417,156,right,0.960975,phone       ,4,9,1,1,1,1043.949245,1043.949245,1046.446085,0,1,1,1,1,156,3,4,dress         ,phone       ,html/resources/sequences_IDs/A/07_dress.jpg,html/resources/sequences_IDs/B/09_phone.jpg,7,9,3,2,4,2,6,7,0,39,,,,,,,,,,,,,,,,,,,,
,,,,,39,2020-07-03_17h15.16.858,retriever_ti,2020.1.3,Win32,60,Chrome,1366,768,,,,,,,,,,,,,,,,,3,,,,,,,,,,,,,,,,,,,,,,,,,,,1047.54936,157,left,0.86221,phone       ,4,9,1,1,0,1047.56659,1047.56659,1050.06205,0,2,2,2,1,157,4,3,phone       ,dress         ,html/resources/sequences_IDs/B/09_phone.jpg,html/resources/sequences_IDs/A/07_dress.jpg,9,7,4,2,3,2,7,6,1,39,,,,,,,,,,,,,,,,,,,,
,,,,,39,2020-07-03_17h15.16.858,retriever_ti,2020.1.3,Win32,60,Chrome,1366,768,,,,,,,,,,,,,,,,,3,,,,,,,,,,,,,,,,,,,,,,,,,,,1051.16284,158,left,1.751085,clownfish     ,7,4,4,1,3,1051.1797,1051.1797,1053.67745,0,3,3,3,1,158,7,3,clownfish     ,dress         ,html/resources/sequences_IDs/A/04_clownfish.jpg,html/resources/sequences_IDs/A/07_dress.jpg,4,7,2,1,3,2,3,6,0,39,,,,,,,,,,,,,,,,,,,,
,,,,,39,2020-07-03_17h15.16.858,retriever_ti,2020.1.3,Win32,60,Chrome,1366,768,,,,,,,,,,,,,,,,,3,,,,,,,,,,,,,,,,,,,,,,,,,,,1054.27895,159,left,1.37254,parrot      ,8,5,1,1,0,1054.314245,1054.314245,1056.811475,0,4,4,4,1,159,8,7,parrot      ,clownfish     ,html/resources/sequences_IDs/B/05_parrot.jpg,html/resources/sequences_IDs/A/04_clownfish.jpg,5,4,2,1,2,1,4,3,1,39,,,,,,,,,,,,,,,,,,,,
,,,,,39,2020-07-03_17h15.16.858,retriever_ti,2020.1.3,Win32,60,Chrome,1366,768,,,,,,,,,,,,,,,,,3,,,,,,,,,,,,,,,,,,,,,,,,,,,1057.914695,160,left,1.284465,radio       ,6,10,-1,0,0,1057.948475,1057.948475,1060.4444,0,5,5,5,1,160,6,7,radio       ,clownfish     ,html/resources/sequences_IDs/B/10_radio.jpg,html/resources/sequences_IDs/A/04_clownfish.jpg,10,4,4,2,2,1,8,3,0,39,,,,,,,,,,,,,,,,,,,,
,,,,,39,2020-07-03_17h15.16.858,retriever_ti,2020.1.3,Win32,60,Chrome,1366,768,,,,,,,,,,,,,,,,,3,,,,,,,,,,,,,,,,,,,,,,,,,,,1061.547795,161,right,0.87298,parrot      ,8,5,3,1,3,1061.565125,1061.565125,1064.060135,0,6,6,6,1,161,5,8,scarf         ,parrot      ,html/resources/sequences_IDs/A/06_scarf.jpg,html/resources/sequences_IDs/B/05_parrot.jpg,6,5,3,2,2,1,5,4,0,39,,,,,,,,,,,,,,,,,,,,
,,,,,39,2020-07-03_17h15.16.858,retriever_ti,2020.1.3,Win32,60,Chrome,1366,768,,,,,,,,,,,,,,,,,3,,,,,,,,,,,,,,,,,,,,,,,,,,,1064.66408,162,right,0.71666,phone       ,4,9,2,1,3,1064.681215,1064.681215,1067.17687,0,7,7,7,1,162,2,4,redfox      ,phone       ,html/resources/sequences_IDs/B/01_redfox.jpg,html/resources/sequences_IDs/B/09_phone.jpg,1,9,1,1,4,2,1,7,0,39,,,,,,,,,,,,,,,,,,,,
,,,,,39,2020-07-03_17h15.16.858,retriever_ti,2020.1.3,Win32,60,Chrome,1366,768,,,,,,,,,,,,,,,,,3,,,,,,,,,,,,,,,,,,,,,,,,,,,1067.79517,163,right,1.307895,seaturtle     ,1,2,-7,0,3,1067.830835,1067.830835,1070.326315,0,8,8,8,1,163,8,1,parrot      ,seaturtle     ,html/resources/sequences_IDs/B/05_parrot.jpg,html/resources/sequences_IDs/A/02_seaturtle.jpg,5,2,2,1,2,1,4,2,0,39,,,,,,,,,,,,,,,,,,,,
,,,,,39,2020-07-03_17h15.16.858,retriever_ti,2020.1.3,Win32,60,Chrome,1366,768,,,,,,,,,,,,,,,,,3,,,,,,,,,,,,,,,,,,,,,,,,,,,1070.9459,164,right,1.09036,clownfish     ,7,4,-1,0,0,1070.97978,1070.97978,1073.475865,0,9,9,9,1,164,8,7,parrot      ,clownfish     ,html/resources/sequences_IDs/B/05_parrot.jpg,html/resources/sequences_IDs/A/04_clownfish.jpg,5,4,2,1,2,1,4,3,0,39,,,,,,,,,,,,,,,,,,,,
,,,,,39,2020-07-03_17h15.16.858,retriever_ti,2020.1.3,Win32,60,Chrome,1366,768,,,,,,,,,,,,,,,,,3,,,,,,,,,,,,,,,,,,,,,,,,,,,1074.578795,165,right,0.95539,phone       ,4,9,-3,0,3,1074.61333,1074.61333,1077.10958,0,10,10,10,1,165,7,4,clownfish     ,phone       ,html/resources/sequences_IDs/A/04_clownfish.jpg,html/resources/sequences_IDs/B/09_phone.jpg,4,9,2,1,4,2,3,7,0,39,,,,,,,,,,,,,,,,,,,,
,,,,,39,2020-07-03_17h15.16.858,retriever_ti,2020.1.3,Win32,60,Chrome,1366,768,,,,,,,,,,,,,,,,,3,,,,,,,,,,,,,,,,,,,,,,,,,,,1077.727375,166,right,1.29852,radio       ,6,10,-1,0,0,1077.746385,1077.746385,1080.241865,0,11,11,11,1,166,7,6,clownfish     ,radio       ,html/resources/sequences_IDs/A/04_clownfish.jpg,html/resources/sequences_IDs/B/10_radio.jpg,4,10,2,1,4,2,3,8,0,39,,,,,,,,,,,,,,,,,,,,
,,,,,39,2020-07-03_17h15.16.858,retriever_ti,2020.1.3,Win32,60,Chrome,1366,768,,,,,,,,,,,,,,,,,3,,,,,,,,,,,,,,,,,,,,,,,,,,,1081.34277,167,right,0.691435,parrot      ,8,5,4,1,3,1081.376125,1081.376125,1083.874765,0,12,12,12,1,167,4,8,phone       ,parrot      ,html/resources/sequences_IDs/B/09_phone.jpg,html/resources/sequences_IDs/B/05_parrot.jpg,9,5,4,2,2,1,7,4,0,39,,,,,,,,,,,,,,,,,,,,
,,,,,39,2020-07-03_17h15.16.858,retriever_ti,2020.1.3,Win32,60,Chrome,1366,768,,,,,,,,,,,,,,,,,3,,,,,,,,,,,,,,,,,,,,,,,,,,,1084.493425,168,left,0.86761,parrot      ,8,5,6,1,3,1084.52848,1084.52848,1087.02483,0,13,13,13,1,168,8,2,parrot      ,redfox      ,html/resources/sequences_IDs/B/05_parrot.jpg,html/resources/sequences_IDs/B/01_redfox.jpg,5,1,2,1,1,1,4,1,0,39,,,,,,,,,,,,,,,,,,,,
,,,,,39,2020-07-03_17h15.16.858,retriever_ti,2020.1.3,Win32,60,Chrome,1366,768,,,,,,,,,,,,,,,,,3,,,,,,,,,,,,,,,,,,,,,,,,,,,1087.644745,169,right,1.191615,scarf         ,5,6,-1,0,0,1087.66188,1087.66188,1090.157205,0,14,14,14,1,169,6,5,radio       ,scarf         ,html/resources/sequences_IDs/B/10_radio.jpg,html/resources/sequences_IDs/A/06_scarf.jpg,10,6,4,2,3,2,8,5,0,39,,,,,,,,,,,,,,,,,,,,
,,,,,39,2020-07-03_17h15.16.858,retriever_ti,2020.1.3,Win32,60,Chrome,1366,768,,,,,,,,,,,,,,,,,3,,,,,,,,,,,,,,,,,,,,,,,,,,,1091.261315,170,right,1.286515,dress         ,3,7,1,1,1,1091.279345,1091.279345,1093.773585,0,15,15,15,1,170,2,3,redfox      ,dress         ,html/resources/sequences_IDs/B/01_redfox.jpg,html/resources/sequences_IDs/A/07_dress.jpg,1,7,1,1,3,2,1,6,0,39,,,,,,,,,,,,,,,,,,,,
,,,,,39,2020-07-03_17h15.16.858,retriever_ti,2020.1.3,Win32,60,Chrome,1366,768,,,,,,,,,,,,,,,,,3,,,,,,,,,,,,,,,,,,,,,,,,,,,1094.87658,171,left,0.75883,dress         ,3,7,1,1,0,1094.9103,1094.9103,1097.406545,0,16,16,16,1,171,3,2,dress         ,redfox      ,html/resources/sequences_IDs/A/07_dress.jpg,html/resources/sequences_IDs/B/01_redfox.jpg,7,1,3,2,1,1,6,1,1,39,,,,,,,,,,,,,,,,,,,,
,,,,,39,2020-07-03_17h15.16.858,retriever_ti,2020.1.3,Win32,60,Chrome,1366,768,,,,,,,,,,,,,,,,,3,,,,,,,,,,,,,,,,,,,,,,,,,,,1098.507685,172,left,1.72493,dress         ,3,7,-3,0,3,1098.527095,1098.527095,1101.022885,0,17,17,17,1,172,3,6,dress         ,radio       ,html/resources/sequences_IDs/A/07_dress.jpg,html/resources/sequences_IDs/B/10_radio.jpg,7,10,3,2,4,2,6,8,0,39,,,,,,,,,,,,,,,,,,,,
,,,,,39,2020-07-03_17h15.16.858,retriever_ti,2020.1.3,Win32,60,Chrome,1366,768,,,,,,,,,,,,,,,,,3,,,,,,,,,,,,,,,,,,,,,,,,,,,1101.64275,173,left,1.483975,clownfish     ,7,4,6,1,3,1101.676715,1101.676715,1104.172415,0,18,18,18,1,173,7,1,clownfish     ,seaturtle     ,html/resources/sequences_IDs/A/04_clownfish.jpg,html/resources/sequences_IDs/A/02_seaturtle.jpg,4,2,2,1,2,1,3,2,0,39,,,,,,,,,,,,,,,,,,,,
,,,,,39,2020-07-03_17h15.16.858,retriever_ti,2020.1.3,Win32,60,Chrome,1366,768,,,,,,,,,,,,,,,,,3,,,,,,,,,,,,,,,,,,,,,,,,,,,1104.792045,174,right,0.857395,scarf         ,5,6,-1,0,0,1104.82669,1104.82669,1107.322155,0,19,19,19,1,174,6,5,radio       ,scarf         ,html/resources/sequences_IDs/B/10_radio.jpg,html/resources/sequences_IDs/A/06_scarf.jpg,10,6,4,2,3,2,8,5,0,39,,,,,,,,,,,,,,,,,,,,
,,,,,39,2020-07-03_17h15.16.858,retriever_ti,2020.1.3,Win32,60,Chrome,1366,768,,,,,,,,,,,,,,,,,3,,,,,,,,,,,,,,,,,,,,,,,,,,,1108.42332,175,right,0.983135,radio       ,6,10,-1,0,0,1108.45888,1108.45888,1110.95502,0,20,20,20,1,175,7,6,clownfish     ,radio       ,html/resources/sequences_IDs/A/04_clownfish.jpg,html/resources/sequences_IDs/B/10_radio.jpg,4,10,2,1,4,2,3,8,0,39,,,,,,,,,,,,,,,,,,,,
,,,,,39,2020-07-03_17h15.16.858,retriever_ti,2020.1.3,Win32,60,Chrome,1366,768,,,,,,,,,,,,,,,,,3,,,,,,,,,,,,,,,,,,,,,,,,,,,1112.056145,176,right,0.80575,redfox      ,2,1,1,1,0,1112.08976,1112.08976,1114.58748,0,21,21,21,1,176,1,2,seaturtle     ,redfox      ,html/resources/sequences_IDs/A/02_seaturtle.jpg,html/resources/sequences_IDs/B/01_redfox.jpg,2,1,2,1,1,1,2,1,1,39,,,,,,,,,,,,,,,,,,,,
,,,,,39,2020-07-03_17h15.16.858,retriever_ti,2020.1.3,Win32,60,Chrome,1366,768,,,,,,,,,,,,,,,,,3,,,,,,,,,,,,,,,,,,,,,,,,,,,1115.690565,177,left,0.564535,scarf         ,5,6,-1,0,0,1115.724855,1115.724855,1118.220835,0,22,22,22,1,177,5,6,scarf         ,radio       ,html/resources/sequences_IDs/A/06_scarf.jpg,html/resources/sequences_IDs/B/10_radio.jpg,6,10,3,2,4,2,5,8,0,39,,,,,,,,,,,,,,,,,,,,
,,,,,39,2020-07-03_17h15.16.858,retriever_ti,2020.1.3,Win32,60,Chrome,1366,768,,,,,,,,,,,,,,,,,3,,,,,,,,,,,,,,,,,,,,,,,,,,,1119.324325,178,left,1.15993,redfox      ,2,1,-3,0,3,1119.34158,1119.34158,1121.837375,0,23,23,23,1,178,2,5,redfox      ,scarf         ,html/resources/sequences_IDs/B/01_redfox.jpg,html/resources/sequences_IDs/A/06_scarf.jpg,1,6,1,1,3,2,1,5,0,39,,,,,,,,,,,,,,,,,,,,
,,,,,39,2020-07-03_17h15.16.858,retriever_ti,2020.1.3,Win32,60,Chrome,1366,768,,,,,,,,,,,,,,,,,3,,,,,,,,,,,,,,,,,,,,,,,,,,,1122.455675,179,right,2.295205,parrot      ,8,5,1,1,1,1122.492055,1122.492055,1124.98704,0,24,24,24,1,179,7,8,clownfish     ,parrot      ,html/resources/sequences_IDs/A/04_clownfish.jpg,html/resources/sequences_IDs/B/05_parrot.jpg,4,5,2,1,2,1,3,4,0,39,,,,,,,,,,,,,,,,,,,,
,,,,,39,2020-07-03_17h15.16.858,retriever_ti,2020.1.3,Win32,60,Chrome,1366,768,,,,,,,,,,,,,,,,,3,,,,,,,,,,,,,,,,,,,,,,,,,,,1126.09045,180,right,0.62658,parrot      ,8,5,5,1,3,1126.107915,1126.107915,1128.6031,0,25,25,25,1,180,3,8,dress         ,parrot      ,html/resources/sequences_IDs/A/07_dress.jpg,html/resources/sequences_IDs/B/05_parrot.jpg,7,5,3,2,2,1,6,4,0,39,,,,,,,,,,,,,,,,,,,,
,,,,,39,2020-07-03_17h15.16.858,retriever_ti,2020.1.3,Win32,60,Chrome,1366,768,,,,,,,,,,,,,,,,,3,,,,,,,,,,,,,,,,,,,,,,,,,,,1129.22327,181,left,1.005565,phone       ,4,9,3,1,3,1129.25698,1129.25698,1131.75282,0,26,26,26,1,181,4,1,phone       ,seaturtle     ,html/resources/sequences_IDs/B/09_phone.jpg,html/resources/sequences_IDs/A/02_seaturtle.jpg,9,2,4,2,2,1,7,2,0,39,,,,,,,,,,,,,,,,,,,,
,,,,,39,2020-07-03_17h15.16.858,retriever_ti,2020.1.3,Win32,60,Chrome,1366,768,,,,,,,,,,,,,,,,,3,,,,,,,,,,,,,,,,,,,,,,,,,,,1132.37028,182,right,0.93772,dress         ,3,7,-5,0,3,1132.406325,1132.406325,1134.90273,0,27,27,27,1,182,8,3,parrot      ,dress         ,html/resources/sequences_IDs/B/05_parrot.jpg,html/resources/sequences_IDs/A/07_dress.jpg,5,7,2,1,3,2,4,6,0,39,,,,,,,,,,,,,,,,,,,,
,,,,,39,2020-07-03_17h15.16.858,retriever_ti,2020.1.3,Win32,60,Chrome,1366,768,,,,,,,,,,,,,,,,,3,,,,,,,,,,,,,,,,,,,,,,,,,,,1135.5229,183,right,0.69035,phone       ,4,9,-2,0,3,1135.540005,1135.540005,1138.034975,0,28,28,28,1,183,6,4,radio       ,phone       ,html/resources/sequences_IDs/B/10_radio.jpg,html/resources/sequences_IDs/B/09_phone.jpg,10,9,4,2,4,2,8,7,0,39,,,,,,,,,,,,,,,,,,,,
,,,,,39,2020-07-03_17h15.16.858,retriever_ti,2020.1.3,Win32,60,Chrome,1366,768,,,,,,,,,,,,,,,,,3,,,,,,,,,,,,,,,,,,,,,,,,,,,1138.63744,184,right,0.521455,phone       ,4,9,3,1,3,1138.65613,1138.65613,1141.15085,0,29,29,29,1,184,1,4,seaturtle     ,phone       ,html/resources/sequences_IDs/A/02_seaturtle.jpg,html/resources/sequences_IDs/B/09_phone.jpg,2,9,2,1,4,2,2,7,0,39,,,,,,,,,,,,,,,,,,,,
,,,,,39,2020-07-03_17h15.16.858,retriever_ti,2020.1.3,Win32,60,Chrome,1366,768,,,,,,,,,,,,,,,,,3,,,,,,,,,,,,,,,,,,,,,,,,,,,1141.76842,185,right,0.78572,redfox      ,2,1,-2,0,3,1141.80246,1141.80246,1144.30079,0,30,30,30,1,185,4,2,phone       ,redfox      ,html/resources/sequences_IDs/B/09_phone.jpg,html/resources/sequences_IDs/B/01_redfox.jpg,9,1,4,2,1,1,7,1,0,39,,,,,,,,,,,,,,,,,,,,
,,,,,39,2020-07-03_17h15.16.858,retriever_ti,2020.1.3,Win32,60,Chrome,1366,768,,,,,,,,,,,,,,,,,3,,,,,,,,,,,,,,,,,,,,,,,,,,,1144.90406,186,left,1.1037,scarf         ,5,6,3,1,3,1144.938325,1144.938325,1147.433925,0,31,31,31,1,186,5,2,scarf         ,redfox      ,html/resources/sequences_IDs/A/06_scarf.jpg,html/resources/sequences_IDs/B/01_redfox.jpg,6,1,3,2,1,1,5,1,0,39,,,,,,,,,,,,,,,,,,,,
,,,,,39,2020-07-03_17h15.16.858,retriever_ti,2020.1.3,Win32,60,Chrome,1366,768,,,,,,,,,,,,,,,,,3,,,,,,,,,,,,,,,,,,,,,,,,,,,1148.035265,187,right,1.240595,redfox      ,2,1,-5,0,3,1148.070345,1148.070345,1150.568475,0,32,32,32,1,187,7,2,clownfish     ,redfox      ,html/resources/sequences_IDs/A/04_clownfish.jpg,html/resources/sequences_IDs/B/01_redfox.jpg,4,1,2,1,1,1,3,1,0,39,,,,,,,,,,,,,,,,,,,,
,,,,,39,2020-07-03_17h15.16.858,retriever_ti,2020.1.3,Win32,60,Chrome,1366,768,,,,,,,,,,,,,,,,,3,,,,,,,,,,,,,,,,,,,,,,,,,,,1151.187455,188,right,1.132235,dress         ,3,7,-3,0,3,1151.220725,1151.220725,1153.71708,0,33,33,33,1,188,6,3,radio       ,dress         ,html/resources/sequences_IDs/B/10_radio.jpg,html/resources/sequences_IDs/A/07_dress.jpg,10,7,4,2,3,2,8,6,0,39,,,,,,,,,,,,,,,,,,,,
,,,,,39,2020-07-03_17h15.16.858,retriever_ti,2020.1.3,Win32,60,Chrome,1366,768,,,,,,,,,,,,,,,,,3,,,,,,,,,,,,,,,,,,,,,,,,,,,1154.336175,189,left,1.054715,parrot      ,8,5,2,1,3,1154.3714,1154.3714,1156.867005,0,34,34,34,1,189,8,6,parrot      ,radio       ,html/resources/sequences_IDs/B/05_parrot.jpg,html/resources/sequences_IDs/B/10_radio.jpg,5,10,2,1,4,2,4,8,0,39,,,,,,,,,,,,,,,,,,,,
,,,,,39,2020-07-03_17h15.16.858,retriever_ti,2020.1.3,Win32,60,Chrome,1366,768,,,,,,,,,,,,,,,,,3,,,,,,,,,,,,,,,,,,,,,,,,,,,1157.48709,190,left,1.009415,phone       ,4,9,-3,0,3,1157.52104,1157.52104,1160.01664,0,35,35,35,1,190,4,7,phone       ,clownfish     ,html/resources/sequences_IDs/B/09_phone.jpg,html/resources/sequences_IDs/A/04_clownfish.jpg,9,4,4,2,2,1,7,3,0,39,,,,,,,,,,,,,,,,,,,,
,,,,,39,2020-07-03_17h15.16.858,retriever_ti,2020.1.3,Win32,60,Chrome,1366,768,,,,,,,,,,,,,,,,,3,,,,,,,,,,,,,,,,,,,,,,,,,,,1160.634335,191,right,0.82466,scarf         ,5,6,1,1,1,1160.65314,1160.65314,1163.149705,0,36,36,36,1,191,4,5,phone       ,scarf         ,html/resources/sequences_IDs/B/09_phone.jpg,html/resources/sequences_IDs/A/06_scarf.jpg,9,6,4,2,3,2,7,5,0,39,,,,,,,,,,,,,,,,,,,,
,,,,,39,2020-07-03_17h15.16.858,retriever_ti,2020.1.3,Win32,60,Chrome,1366,768,,,,,,,,,,,,,,,,,3,,,,,,,,,,,,,,,,,,,,,,,,,,,1164.253065,192,left,0.99143,dress         ,3,7,1,1,1,1164.269465,1164.269465,1166.76576,0,37,37,37,1,192,3,2,dress         ,redfox      ,html/resources/sequences_IDs/A/07_dress.jpg,html/resources/sequences_IDs/B/01_redfox.jpg,7,1,3,2,1,1,6,1,0,39,,,,,,,,,,,,,,,,,,,,
,,,,,39,2020-07-03_17h15.16.858,retriever_ti,2020.1.3,Win32,60,Chrome,1366,768,,,,,,,,,,,,,,,,,3,,,,,,,,,,,,,,,,,,,,,,,,,,,1167.86913,193,left,0.93068,dress         ,3,7,-4,0,3,1167.9031,1167.9031,1170.398205,0,38,38,38,1,193,3,7,dress         ,clownfish     ,html/resources/sequences_IDs/A/07_dress.jpg,html/resources/sequences_IDs/A/04_clownfish.jpg,7,4,3,2,2,1,6,3,0,39,,,,,,,,,,,,,,,,,,,,
,,,,,39,2020-07-03_17h15.16.858,retriever_ti,2020.1.3,Win32,60,Chrome,1366,768,,,,,,,,,,,,,,,,,3,,,,,,,,,,,,,,,,,,,,,,,,,,,1171.016035,194,left,0.70077,dress         ,3,7,2,1,3,1171.049725,1171.049725,1173.54739,0,39,39,39,1,194,3,1,dress         ,seaturtle     ,html/resources/sequences_IDs/A/07_dress.jpg,html/resources/sequences_IDs/A/02_seaturtle.jpg,7,2,3,2,2,1,6,2,0,39,,,,,,,,,,,,,,,,,,,,
,,,,,39,2020-07-03_17h15.16.858,retriever_ti,2020.1.3,Win32,60,Chrome,1366,768,,,,,,,,,,,,,,,,,3,,,,,,,,,,,,,,,,,,,,,,,,,,,1174.150215,195,right,0.66304,phone       ,4,9,-4,0,3,1174.18653,1174.18653,1176.681445,0,40,40,40,1,195,8,4,parrot      ,phone       ,html/resources/sequences_IDs/B/05_parrot.jpg,html/resources/sequences_IDs/B/09_phone.jpg,5,9,2,1,4,2,4,7,0,39,,,,,,,,,,,,,,,,,,,,
,,,,,39,2020-07-03_17h15.16.858,retriever_ti,2020.1.3,Win32,60,Chrome,1366,768,,,,,,,,,,,,,,,,,3,,,,,,,,,,,,,,,,,,,,,,,,,,,1177.30156,196,left,1.219295,redfox      ,2,1,1,1,1,1177.33556,1177.33556,1179.83082,0,41,41,41,1,196,2,1,redfox      ,seaturtle     ,html/resources/sequences_IDs/B/01_redfox.jpg,html/resources/sequences_IDs/A/02_seaturtle.jpg,1,2,1,1,2,1,1,2,0,39,,,,,,,,,,,,,,,,,,,,
,,,,,39,2020-07-03_17h15.16.858,retriever_ti,2020.1.3,Win32,60,Chrome,1366,768,,,,,,,,,,,,,,,,,3,,,,,,,,,,,,,,,,,,,,,,,,,,,1180.933675,197,right,0.738285,dress         ,3,7,-1,0,0,1180.967595,1180.967595,1183.46425,0,42,42,42,1,197,4,3,phone       ,dress         ,html/resources/sequences_IDs/B/09_phone.jpg,html/resources/sequences_IDs/A/07_dress.jpg,9,7,4,2,3,2,7,6,0,39,,,,,,,,,,,,,,,,,,,,
,,,,,39,2020-07-03_17h15.16.858,retriever_ti,2020.1.3,Win32,60,Chrome,1366,768,,,,,,,,,,,,,,,,,3,,,,,,,,,,,,,,,,,,,,,,,,,,,1184.56529,198,left,0.808825,scarf         ,5,6,1,1,1,1184.6012,1184.6012,1187.09721,0,43,43,43,1,198,5,4,scarf         ,phone       ,html/resources/sequences_IDs/A/06_scarf.jpg,html/resources/sequences_IDs/B/09_phone.jpg,6,9,3,2,4,2,5,7,0,39,,,,,,,,,,,,,,,,,,,,
,,,,,39,2020-07-03_17h15.16.858,retriever_ti,2020.1.3,Win32,60,Chrome,1366,768,,,,,,,,,,,,,,,,,3,,,,,,,,,,,,,,,,,,,,,,,,,,,1188.19986,199,left,1.252635,seaturtle     ,1,2,-5,0,3,1188.23334,1188.23334,1190.729855,0,44,44,44,1,199,1,6,seaturtle     ,radio       ,html/resources/sequences_IDs/A/02_seaturtle.jpg,html/resources/sequences_IDs/B/10_radio.jpg,2,10,2,1,4,2,2,8,0,39,,,,,,,,,,,,,,,,,,,,
,,,,,39,2020-07-03_17h15.16.858,retriever_ti,2020.1.3,Win32,60,Chrome,1366,768,,,,,,,,,,,,,,,,,3,,,,,,,,,,,,,,,,,,,,,,,,,,,1191.35021,200,right,1.07557,dress         ,3,7,-1,0,0,1191.367015,1191.367015,1193.86246,0,45,45,45,1,200,4,3,phone       ,dress         ,html/resources/sequences_IDs/B/09_phone.jpg,html/resources/sequences_IDs/A/07_dress.jpg,9,7,4,2,3,2,7,6,0,39,,,,,,,,,,,,,,,,,,,,
,,,,,39,2020-07-03_17h15.16.858,retriever_ti,2020.1.3,Win32,60,Chrome,1366,768,,,,,,,,,,,,,,,,,3,,,,,,,,,,,,,,,,,,,,,,,,,,,1194.96618,201,left,1.00498,radio       ,6,10,-1,0,1,1194.99977,1194.99977,1197.495615,0,46,46,46,1,201,6,7,radio       ,clownfish     ,html/resources/sequences_IDs/B/10_radio.jpg,html/resources/sequences_IDs/A/04_clownfish.jpg,10,4,4,2,2,1,8,3,1,39,,,,,,,,,,,,,,,,,,,,
,,,,,39,2020-07-03_17h15.16.858,retriever_ti,2020.1.3,Win32,60,Chrome,1366,768,,,,,,,,,,,,,,,,,3,,,,,,,,,,,,,,,,,,,,,,,,,,,1198.597025,202,left,1.05618,seaturtle     ,1,2,-6,0,3,1198.616375,1198.616375,1201.110865,0,47,47,47,1,202,1,7,seaturtle     ,clownfish     ,html/resources/sequences_IDs/A/02_seaturtle.jpg,html/resources/sequences_IDs/A/04_clownfish.jpg,2,4,2,1,2,1,2,3,0,39,,,,,,,,,,,,,,,,,,,,
,,,,,39,2020-07-03_17h15.16.858,retriever_ti,2020.1.3,Win32,60,Chrome,1366,768,,,,,,,,,,,,,,,,,3,,,,,,,,,,,,,,,,,,,,,,,,,,,1201.72893,203,right,1.155725,redfox      ,2,1,1,1,1,1201.76241,1201.76241,1204.26107,0,48,48,48,1,203,1,2,seaturtle     ,redfox      ,html/resources/sequences_IDs/A/02_seaturtle.jpg,html/resources/sequences_IDs/B/01_redfox.jpg,2,1,2,1,1,1,2,1,0,39,,,,,,,,,,,,,,,,,,,,
,,,,,39,2020-07-03_17h15.16.858,retriever_ti,2020.1.3,Win32,60,Chrome,1366,768,,,,,,,,,,,,,,,,,3,,,,,,,,,,,,,,,,,,,,,,,,,,,1205.366215,204,left,1.04868,radio       ,6,10,5,1,3,1205.399385,1205.399385,1207.89391,0,49,49,49,1,204,6,1,radio       ,seaturtle     ,html/resources/sequences_IDs/B/10_radio.jpg,html/resources/sequences_IDs/A/02_seaturtle.jpg,10,2,4,2,2,1,8,2,0,39,,,,,,,,,,,,,,,,,,,,
,,,,,39,2020-07-03_17h15.16.858,retriever_ti,2020.1.3,Win32,60,Chrome,1366,768,,,,,,,,,,,,,,,,,3,,,,,,,,,,,,,,,,,,,,,,,,,,,1208.49618,205,left,0.83266,radio       ,6,10,4,1,3,1208.53124,1208.53124,1211.027185,0,50,50,50,1,205,6,2,radio       ,redfox      ,html/resources/sequences_IDs/B/10_radio.jpg,html/resources/sequences_IDs/B/01_redfox.jpg,10,1,4,2,1,1,8,1,0,39,,,,,,,,,,,,,,,,,,,,
,,,,,39,2020-07-03_17h15.16.858,retriever_ti,2020.1.3,Win32,60,Chrome,1366,768,,,,,,,,,,,,,,,,,3,,,,,,,,,,,,,,,,,,,,,,,,,,,1211.64603,206,right,1.3866,parrot      ,8,5,2,1,3,1211.663315,1211.663315,1214.1598,0,51,51,51,1,206,6,8,radio       ,parrot      ,html/resources/sequences_IDs/B/10_radio.jpg,html/resources/sequences_IDs/B/05_parrot.jpg,10,5,4,2,2,1,8,4,0,39,,,,,,,,,,,,,,,,,,,,
,,,,,39,2020-07-03_17h15.16.858,retriever_ti,2020.1.3,Win32,60,Chrome,1366,768,,,,,,,,,,,,,,,,,3,,,,,,,,,,,,,,,,,,,,,,,,,,,1214.777765,207,left,0.70811,scarf         ,5,6,4,1,3,1214.813,1214.813,1217.30957,0,52,52,52,1,207,5,1,scarf         ,seaturtle     ,html/resources/sequences_IDs/A/06_scarf.jpg,html/resources/sequences_IDs/A/02_seaturtle.jpg,6,2,3,2,2,1,5,2,0,39,,,,,,,,,,,,,,,,,,,,
,,,,,39,2020-07-03_17h15.16.858,retriever_ti,2020.1.3,Win32,60,Chrome,1366,768,,,,,,,,,,,,,,,,,3,,,,,,,,,,,,,,,,,,,,,,,,,,,1217.91296,208,right,0.767485,scarf         ,5,6,-1,0,1,1217.93024,1217.93024,1220.42651,0,53,53,53,1,208,6,5,radio       ,scarf         ,html/resources/sequences_IDs/B/10_radio.jpg,html/resources/sequences_IDs/A/06_scarf.jpg,10,6,4,2,3,2,8,5,1,39,,,,,,,,,,,,,,,,,,,,
,,,,,39,2020-07-03_17h15.16.858,retriever_ti,2020.1.3,Win32,60,Chrome,1366,768,,,,,,,,,,,,,,,,,3,,,,,,,,,,,,,,,,,,,,,,,,,,,1221.52977,209,left,1.390005,redfox      ,2,1,-4,0,3,1221.563845,1221.563845,1224.05911,0,54,54,54,1,209,2,6,redfox      ,radio       ,html/resources/sequences_IDs/B/01_redfox.jpg,html/resources/sequences_IDs/B/10_radio.jpg,1,10,1,1,4,2,1,8,0,39,,,,,,,,,,,,,,,,,,,,
,,,,,39,2020-07-03_17h15.16.858,retriever_ti,2020.1.3,Win32,60,Chrome,1366,768,,,,,,,,,,,,,,,,,3,,,,,,,,,,,,,,,,,,,,,,,,,,,1224.677135,210,right,0.715235,scarf         ,5,6,-3,0,3,1224.712715,1224.712715,1227.20892,0,55,55,55,1,210,8,5,parrot      ,scarf         ,html/resources/sequences_IDs/B/05_parrot.jpg,html/resources/sequences_IDs/A/06_scarf.jpg,5,6,2,1,3,2,4,5,0,39,,,,,,,,,,,,,,,,,,,,
,,,,,39,2020-07-03_17h15.16.858,retriever_ti,2020.1.3,Win32,60,Chrome,1366,768,,,,,,,,,,,,,,,,,3,,,,,,,,,,,,,,,,,,,,,,,,,,,1227.828785,211,left,0.69892,phone       ,4,9,-1,0,0,1227.84602,1227.84602,1230.341835,0,56,56,56,1,211,4,5,phone       ,scarf         ,html/resources/sequences_IDs/B/09_phone.jpg,html/resources/sequences_IDs/A/06_scarf.jpg,9,6,4,2,3,2,7,5,0,39,,,,,,,,,,,,,,,,,,,,
,,,,,39,2020-07-03_17h15.16.858,retriever_ti,2020.1.3,Win32,60,Chrome,1366,768,,,,,,,,,,,,,,,,,3,,,,,,,,,,,,,,,,,,,,,,,,,,,1231.443145,212,left,1.460195,scarf         ,5,6,1,1,1,1231.476375,1231.476375,1233.97451,0,57,57,57,1,212,5,4,scarf         ,phone       ,html/resources/sequences_IDs/A/06_scarf.jpg,html/resources/sequences_IDs/B/09_phone.jpg,6,9,3,2,4,2,5,7,0,39,,,,,,,,,,,,,,,,,,,,
,,,,,39,2020-07-03_17h15.16.858,retriever_ti,2020.1.3,Win32,60,Chrome,1366,768,,,,,,,,,,,,,,,,,3,,,,,,,,,,,,,,,,,,,,,,,,,,,1235.07847,213,left,0.797305,scarf         ,5,6,-1,0,0,1235.095385,1235.095385,1237.591065,0,58,58,58,1,213,5,6,scarf         ,radio       ,html/resources/sequences_IDs/A/06_scarf.jpg,html/resources/sequences_IDs/B/10_radio.jpg,6,10,3,2,4,2,5,8,0,39,,,,,,,,,,,,,,,,,,,,
,,,,,39,2020-07-03_17h15.16.858,retriever_ti,2020.1.3,Win32,60,Chrome,1366,768,,,,,,,,,,,,,,,,,3,,,,,,,,,,,,,,,,,,,,,,,,,,,1238.692375,214,left,0.93092,phone       ,4,9,-1,0,1,1238.711105,1238.711105,1241.207895,0,59,59,59,1,214,4,5,phone       ,scarf         ,html/resources/sequences_IDs/B/09_phone.jpg,html/resources/sequences_IDs/A/06_scarf.jpg,9,6,4,2,3,2,7,5,1,39,,,,,,,,,,,,,,,,,,,,
,,,,,39,2020-07-03_17h15.16.858,retriever_ti,2020.1.3,Win32,60,Chrome,1366,768,,,,,,,,,,,,,,,,,3,,,,,,,,,,,,,,,,,,,,,,,,,,,1242.311045,215,right,0.83631,scarf         ,5,6,-2,0,3,1242.32819,1242.32819,1244.823285,0,60,60,60,1,215,7,5,clownfish     ,scarf         ,html/resources/sequences_IDs/A/04_clownfish.jpg,html/resources/sequences_IDs/A/06_scarf.jpg,4,6,2,1,3,2,3,5,0,39,,,,,,,,,,,,,,,,,,,,
,,,,,39,2020-07-03_17h15.16.858,retriever_ti,2020.1.3,Win32,60,Chrome,1366,768,,,,,,,,,,,,,,,,,3,,,,,,,,,,,,,,,,,,,,,,,,,,,1245.42704,216,left,0.94811,redfox      ,2,1,-6,0,3,1245.4438,1245.4438,1247.93986,0,61,61,61,1,216,2,8,redfox      ,parrot      ,html/resources/sequences_IDs/B/01_redfox.jpg,html/resources/sequences_IDs/B/05_parrot.jpg,1,5,1,1,2,1,1,4,0,39,,,,,,,,,,,,,,,,,,,,
,,,,,39,2020-07-03_17h15.16.858,retriever_ti,2020.1.3,Win32,60,Chrome,1366,768,,,,,,,,,,,,,,,,,3,,,,,,,,,,,,,,,,,,,,,,,,,,,1248.557555,217,right,0.907,scarf         ,5,6,2,1,3,1248.5925,1248.5925,1251.089505,0,62,62,62,1,217,3,5,dress         ,scarf         ,html/resources/sequences_IDs/A/07_dress.jpg,html/resources/sequences_IDs/A/06_scarf.jpg,7,6,3,2,3,2,6,5,0,39,,,,,,,,,,,,,,,,,,,,
,,,,,39,2020-07-03_17h15.16.858,retriever_ti,2020.1.3,Win32,60,Chrome,1366,768,,,,,,,,,,,,,,,,,3,,,,,,,,,,,,,,,,,,,,,,,,,,,1251.70961,218,left,0.73673,scarf         ,5,6,2,1,3,1251.742965,1251.742965,1254.239245,0,63,63,63,1,218,5,3,scarf         ,dress         ,html/resources/sequences_IDs/A/06_scarf.jpg,html/resources/sequences_IDs/A/07_dress.jpg,6,7,3,2,3,2,5,6,0,39,,,,,,,,,,,,,,,,,,,,
