instructionsLoop.thisRepN,instructionsLoop.thisTrialN,instructionsLoop.thisN,instructionsLoop.thisIndex,instructionsLoop.ran,participant,date,expName,psychopyVersion,OS,frameRate,browser,xResolution,yResolution,fix_onset,tprac,practiceKey.keys,practiceKey.rt,pracitem_chosen_name,acc_practice,P1_onsetPrac,P2_onsetPrac,onsetFeedbPrac,practiceTrials.thisRepN,practiceTrials.thisTrialN,practiceTrials.thisN,practiceTrials.thisIndex,practiceTrials.ran,P1,P2,Block,LocItem1,LocItem2,NameItem1,NameItem2,key_respAC_prac.keys,key_respAC_prac.corr,key_respAC_prac.rt,AC_acc,Attentions.thisRepN,Attentions.thisTrialN,Attentions.thisN,Attentions.thisIndex,Attentions.ran,Stim,Loc1,Loc2,Loc3,Loc4,CorrAns,keyDisturbed.keys,keyDisturbed.rt,repPractice.thisRepN,repPractice.thisTrialN,repPractice.thisN,repPractice.thisIndex,repPractice.ran,fixcross_onsetMain,trialNumber,key_resp.keys,key_resp.rt,item_chosen_name,item_chosen_value,item_chosen_ID,diff_chosen_minus_reject,acc_real,acc_feedback,P1_onset,P2_onset,feedb_onset,trials.thisRepN,trials.thisTrialN,trials.thisN,trials.thisIndex,trials.ran,Trial,ValueP1,ValueP2,P1name,P2name,P1Loc,P2Loc,P1id,P2id,Micro_categoryP1,Macro_categoryP1,Micro_categoryP2,Macro_categoryP2,ID_sequenceP1,ID_sequenceP2,InverseFb,pNumber,repBlocks.thisRepN,repBlocks.thisTrialN,repBlocks.thisN,repBlocks.thisIndex,repBlocks.ran,key_respAC.keys,key_respAC.corr,key_respAC.rt,trials_AC.thisRepN,trials_AC.thisTrialN,trials_AC.thisN,trials_AC.thisIndex,trials_AC.ran,Bonus,BonusLoop.thisRepN,BonusLoop.thisTrialN,BonusLoop.thisN,BonusLoop.thisIndex,BonusLoop.ran,comments
0,0,0,0,1,40,2020-07-03_16h18.51.359,retriever_ti,2020.1.3,MacIntel,60,Chrome,1360,768,,,,,,,,,,,,,,,,,,,,,,,,,,,,,,,,,,,,,,,,,,,,,,,,,,,,,,,,,,,,,,,,,,,,,,,,,,,,,,,,,,,,,,,,,,,,,,,,,,
1,0,1,0,1,40,2020-07-03_16h18.51.359,retriever_ti,2020.1.3,MacIntel,60,Chrome,1360,768,,,,,,,,,,,,,,,,,,,,,,,,,,,,,,,,,,,,,,,,,,,,,,,,,,,,,,,,,,,,,,,,,,,,,,,,,,,,,,,,,,,,,,,,,,,,,,,,,,
2,0,2,0,1,40,2020-07-03_16h18.51.359,retriever_ti,2020.1.3,MacIntel,60,Chrome,1360,768,,,,,,,,,,,,,,,,,,,,,,,,,,,,,,,,,,,,,,,,,,,,,,,,,,,,,,,,,,,,,,,,,,,,,,,,,,,,,,,,,,,,,,,,,,,,,,,,,,
3,0,3,0,1,40,2020-07-03_16h18.51.359,retriever_ti,2020.1.3,MacIntel,60,Chrome,1360,768,,,,,,,,,,,,,,,,,,,,,,,,,,,,,,,,,,,,,,,,,,,,,,,,,,,,,,,,,,,,,,,,,,,,,,,,,,,,,,,,,,,,,,,,,,,,,,,,,,
4,0,4,0,1,40,2020-07-03_16h18.51.359,retriever_ti,2020.1.3,MacIntel,60,Chrome,1360,768,,,,,,,,,,,,,,,,,,,,,,,,,,,,,,,,,,,,,,,,,,,,,,,,,,,,,,,,,,,,,,,,,,,,,,,,,,,,,,,,,,,,,,,,,,,,,,,,,,
5,0,5,0,1,40,2020-07-03_16h18.51.359,retriever_ti,2020.1.3,MacIntel,60,Chrome,1360,768,,,,,,,,,,,,,,,,,,,,,,,,,,,,,,,,,,,,,,,,,,,,,,,,,,,,,,,,,,,,,,,,,,,,,,,,,,,,,,,,,,,,,,,,,,,,,,,,,,
6,0,6,0,1,40,2020-07-03_16h18.51.359,retriever_ti,2020.1.3,MacIntel,60,Chrome,1360,768,,,,,,,,,,,,,,,,,,,,,,,,,,,,,,,,,,,,,,,,,,,,,,,,,,,,,,,,,,,,,,,,,,,,,,,,,,,,,,,,,,,,,,,,,,,,,,,,,,
7,0,7,0,1,40,2020-07-03_16h18.51.359,retriever_ti,2020.1.3,MacIntel,60,Chrome,1360,768,,,,,,,,,,,,,,,,,,,,,,,,,,,,,,,,,,,,,,,,,,,,,,,,,,,,,,,,,,,,,,,,,,,,,,,,,,,,,,,,,,,,,,,,,,,,,,,,,,
8,0,8,0,1,40,2020-07-03_16h18.51.359,retriever_ti,2020.1.3,MacIntel,60,Chrome,1360,768,,,,,,,,,,,,,,,,,,,,,,,,,,,,,,,,,,,,,,,,,,,,,,,,,,,,,,,,,,,,,,,,,,,,,,,,,,,,,,,,,,,,,,,,,,,,,,,,,,
9,0,9,0,1,40,2020-07-03_16h18.51.359,retriever_ti,2020.1.3,MacIntel,60,Chrome,1360,768,,,,,,,,,,,,,,,,,,,,,,,,,,,,,,,,,,,,,,,,,,,,,,,,,,,,,,,,,,,,,,,,,,,,,,,,,,,,,,,,,,,,,,,,,,,,,,,,,,
10,0,10,0,1,40,2020-07-03_16h18.51.359,retriever_ti,2020.1.3,MacIntel,60,Chrome,1360,768,,,,,,,,,,,,,,,,,,,,,,,,,,,,,,,,,,,,,,,,,,,,,,,,,,,,,,,,,,,,,,,,,,,,,,,,,,,,,,,,,,,,,,,,,,,,,,,,,,
11,0,11,0,1,40,2020-07-03_16h18.51.359,retriever_ti,2020.1.3,MacIntel,60,Chrome,1360,768,,,,,,,,,,,,,,,,,,,,,,,,,,,,,,,,,,,,,,,,,,,,,,,,,,,,,,,,,,,,,,,,,,,,,,,,,,,,,,,,,,,,,,,,,,,,,,,,,,
12,0,12,0,1,40,2020-07-03_16h18.51.359,retriever_ti,2020.1.3,MacIntel,60,Chrome,1360,768,,,,,,,,,,,,,,,,,,,,,,,,,,,,,,,,,,,,,,,,,,,,,,,,,,,,,,,,,,,,,,,,,,,,,,,,,,,,,,,,,,,,,,,,,,,,,,,,,,
13,0,13,0,1,40,2020-07-03_16h18.51.359,retriever_ti,2020.1.3,MacIntel,60,Chrome,1360,768,,,,,,,,,,,,,,,,,,,,,,,,,,,,,,,,,,,,,,,,,,,,,,,,,,,,,,,,,,,,,,,,,,,,,,,,,,,,,,,,,,,,,,,,,,,,,,,,,,
14,0,14,0,1,40,2020-07-03_16h18.51.359,retriever_ti,2020.1.3,MacIntel,60,Chrome,1360,768,,,,,,,,,,,,,,,,,,,,,,,,,,,,,,,,,,,,,,,,,,,,,,,,,,,,,,,,,,,,,,,,,,,,,,,,,,,,,,,,,,,,,,,,,,,,,,,,,,
15,0,15,0,1,40,2020-07-03_16h18.51.359,retriever_ti,2020.1.3,MacIntel,60,Chrome,1360,768,,,,,,,,,,,,,,,,,,,,,,,,,,,,,,,,,,,,,,,,,,,,,,,,,,,,,,,,,,,,,,,,,,,,,,,,,,,,,,,,,,,,,,,,,,,,,,,,,,
16,0,16,0,1,40,2020-07-03_16h18.51.359,retriever_ti,2020.1.3,MacIntel,60,Chrome,1360,768,,,,,,,,,,,,,,,,,,,,,,,,,,,,,,,,,,,,,,,,,,,,,,,,,,,,,,,,,,,,,,,,,,,,,,,,,,,,,,,,,,,,,,,,,,,,,,,,,,
17,0,17,0,1,40,2020-07-03_16h18.51.359,retriever_ti,2020.1.3,MacIntel,60,Chrome,1360,768,,,,,,,,,,,,,,,,,,,,,,,,,,,,,,,,,,,,,,,,,,,,,,,,,,,,,,,,,,,,,,,,,,,,,,,,,,,,,,,,,,,,,,,,,,,,,,,,,,
18,0,18,0,1,40,2020-07-03_16h18.51.359,retriever_ti,2020.1.3,MacIntel,60,Chrome,1360,768,,,,,,,,,,,,,,,,,,,,,,,,,,,,,,,,,,,,,,,,,,,,,,,,,,,,,,,,,,,,,,,,,,,,,,,,,,,,,,,,,,,,,,,,,,,,,,,,,,
,,,,,40,2020-07-03_16h18.51.359,retriever_ti,2020.1.3,MacIntel,60,Chrome,1360,768,359.67382,1,NaN,NaN,No_response,2,359.71087,359.71087,362.209385,0,0,0,0,1,2,5,1,html/resources/stimuli_practice_decision/04_beetle.jpg,html/resources/stimuli_practice_decision/02_canary.jpg,beetle,canary,,,,,,,,,,,,,,,,,,,,,,,,,,,,,,,,,,,,,,,,,,,,,,,,,,,,,,,,,,,,,,,,,,,,,,,,,,,,,
,,,,,40,2020-07-03_16h18.51.359,retriever_ti,2020.1.3,MacIntel,60,Chrome,1360,768,362.733625,2,right,0.78992,sock,0,362.743195,362.743195,365.2414,0,1,1,1,1,4,3,1,html/resources/stimuli_practice_decision/01_rabbit.jpg,html/resources/stimuli_practice_decision/07_sock.jpg,rabbit,sock,,,,,,,,,,,,,,,,,,,,,,,,,,,,,,,,,,,,,,,,,,,,,,,,,,,,,,,,,,,,,,,,,,,,,,,,,,,,,
,,,,,40,2020-07-03_16h18.51.359,retriever_ti,2020.1.3,MacIntel,60,Chrome,1360,768,366.2417,3,right,0.853155,beetle,0,366.274735,366.274735,368.773805,0,2,2,2,1,6,2,1,html/resources/stimuli_practice_decision/06_pullover.jpg,html/resources/stimuli_practice_decision/04_beetle.jpg,pullover,beetle,,,,,,,,,,,,,,,,,,,,,,,,,,,,,,,,,,,,,,,,,,,,,,,,,,,,,,,,,,,,,,,,,,,,,,,,,,,,,
,,,,,40,2020-07-03_16h18.51.359,retriever_ti,2020.1.3,MacIntel,60,Chrome,1360,768,369.290655,4,right,0.720305,handmixer,0,369.30768,369.30768,371.80599,0,3,3,3,1,7,1,1,html/resources/stimuli_practice_decision/05_glasses.jpg,html/resources/stimuli_practice_decision/08_handmixer.jpg,glasses,handmixer,,,,,,,,,,,,,,,,,,,,,,,,,,,,,,,,,,,,,,,,,,,,,,,,,,,,,,,,,,,,,,,,,,,,,,,,,,,,,
,,,,,40,2020-07-03_16h18.51.359,retriever_ti,2020.1.3,MacIntel,60,Chrome,1360,768,372.306945,5,right,0.83922,pullover,0,372.34017,372.34017,374.838765,0,4,4,4,1,7,6,1,html/resources/stimuli_practice_decision/05_glasses.jpg,html/resources/stimuli_practice_decision/06_pullover.jpg,glasses,pullover,,,,,,,,,,,,,,,,,,,,,,,,,,,,,,,,,,,,,,,,,,,,,,,,,,,,,,,,,,,,,,,,,,,,,,,,,,,,,
,,,,,40,2020-07-03_16h18.51.359,retriever_ti,2020.1.3,MacIntel,60,Chrome,1360,768,375.83894,6,right,1.107825,glasses,1,375.87267,375.87267,378.37092,0,5,5,5,1,4,7,1,html/resources/stimuli_practice_decision/01_rabbit.jpg,html/resources/stimuli_practice_decision/05_glasses.jpg,rabbit,glasses,,,,,,,,,,,,,,,,,,,,,,,,,,,,,,,,,,,,,,,,,,,,,,,,,,,,,,,,,,,,,,,,,,,,,,,,,,,,,
,,,,,40,2020-07-03_16h18.51.359,retriever_ti,2020.1.3,MacIntel,60,Chrome,1360,768,378.87139,7,left,1.502845,handmixer,0,378.904135,378.904135,381.40332,0,6,6,6,1,1,2,1,html/resources/stimuli_practice_decision/08_handmixer.jpg,html/resources/stimuli_practice_decision/04_beetle.jpg,handmixer,beetle,,,,,,,,,,,,,,,,,,,,,,,,,,,,,,,,,,,,,,,,,,,,,,,,,,,,,,,,,,,,,,,,,,,,,,,,,,,,,
,,,,,40,2020-07-03_16h18.51.359,retriever_ti,2020.1.3,MacIntel,60,Chrome,1360,768,382.404315,8,left,1.020985,rabbit,1,382.42049,382.42049,384.918715,0,7,7,7,1,4,3,1,html/resources/stimuli_practice_decision/01_rabbit.jpg,html/resources/stimuli_practice_decision/07_sock.jpg,rabbit,sock,,,,,,,,,,,,,,,,,,,,,,,,,,,,,,,,,,,,,,,,,,,,,,,,,,,,,,,,,,,,,,,,,,,,,,,,,,,,,
,,,,,40,2020-07-03_16h18.51.359,retriever_ti,2020.1.3,MacIntel,60,Chrome,1360,768,,,,,,,,,,,,,,,,,,,,,,down,1,2.94172,1,0,0,0,3,1,html/resources/sequences_IDs/triangle.png,star ↑,square →,triangle ↓,← circle,down,,,,,,,,,,,,,,,,,,,,,,,,,,,,,,,,,,,,,,,,,,,,,,,,,,,,,,,,,,,,,,
,,,,,40,2020-07-03_16h18.51.359,retriever_ti,2020.1.3,MacIntel,60,Chrome,1360,768,,,,,,,,,,,,,,,,,,,,,,left,1,2.35081,1,0,1,1,2,1,html/resources/sequences_IDs/square1.png,star ↑,triangle →,circle ↓,← square,left,,,,,,,,,,,,,,,,,,,,,,,,,,,,,,,,,,,,,,,,,,,,,,,,,,,,,,,,,,,,,,
,,,,,40,2020-07-03_16h18.51.359,retriever_ti,2020.1.3,MacIntel,60,Chrome,1360,768,,,,,,,,,,,,,,,,,,,,,,up,1,1.190585,1,0,2,2,0,1,html/resources/sequences_IDs/circle.png,circle ↑,square →,triangle ↓,← star ,up,,,,,,,,,,,,,,,,,,,,,,,,,,,,,,,,,,,,,,,,,,,,,,,,,,,,,,,,,,,,,,
,,,,,40,2020-07-03_16h18.51.359,retriever_ti,2020.1.3,MacIntel,60,Chrome,1360,768,,,,,,,,,,,,,,,,,,,,,,down,1,1.445095,1,0,3,3,1,1,html/resources/sequences_IDs/star.png,square ↑,circle →,star ↓,← triangle,down,,,,,,,,,,,,,,,,,,,,,,,,,,,,,,,,,,,,,,,,,,,,,,,,,,,,,,,,,,,,,,
,,,,,40,2020-07-03_16h18.51.359,retriever_ti,2020.1.3,MacIntel,60,Chrome,1360,768,,,,,,,,,,,,,,,,,,,,,,,,,,,,,,,,,,,,,0,10.51495,0,0,0,0,1,,,,,,,,,,,,,,,,,,,,,,,,,,,,,,,,,,,,,,,,,,,,,,,,,,,,,,,
,,,,,40,2020-07-03_16h18.51.359,retriever_ti,2020.1.3,MacIntel,60,Chrome,1360,768,407.7297,9,right,1.134885,glasses,1,407.76426,407.76426,410.26218,0,0,0,0,1,6,7,1,html/resources/stimuli_practice_decision/06_pullover.jpg,html/resources/stimuli_practice_decision/05_glasses.jpg,pullover,glasses,,,,,,,,,,,,,,,,,,,,,,,,,,,,,,,,,,,,,,,,,,,,,,,,,,,,,,,,,,,,,,,,,,,,,,,,,,,,,
,,,,,40,2020-07-03_16h18.51.359,retriever_ti,2020.1.3,MacIntel,60,Chrome,1360,768,411.26332,10,right,1.09332,beetle,0,411.2967,411.2967,413.79503,0,1,1,1,1,6,2,1,html/resources/stimuli_practice_decision/06_pullover.jpg,html/resources/stimuli_practice_decision/04_beetle.jpg,pullover,beetle,,,,,,,,,,,,,,,,,,,,,,,,,,,,,,,,,,,,,,,,,,,,,,,,,,,,,,,,,,,,,,,,,,,,,,,,,,,,,
,,,,,40,2020-07-03_16h18.51.359,retriever_ti,2020.1.3,MacIntel,60,Chrome,1360,768,414.311325,11,left,1.06643,canary,0,414.345805,414.345805,416.843405,0,2,2,2,1,5,6,1,html/resources/stimuli_practice_decision/02_canary.jpg,html/resources/stimuli_practice_decision/06_pullover.jpg,canary,pullover,,,,,,,,,,,,,,,,,,,,,,,,,,,,,,,,,,,,,,,,,,,,,,,,,,,,,,,,,,,,,,,,,,,,,,,,,,,,,
,,,,,40,2020-07-03_16h18.51.359,retriever_ti,2020.1.3,MacIntel,60,Chrome,1360,768,417.844175,12,right,1.111925,glasses,0,417.878025,417.878025,420.376265,0,3,3,3,1,8,7,1,html/resources/stimuli_practice_decision/03_squirrel.jpg,html/resources/stimuli_practice_decision/05_glasses.jpg,squirrel,glasses,,,,,,,,,,,,,,,,,,,,,,,,,,,,,,,,,,,,,,,,,,,,,,,,,,,,,,,,,,,,,,,,,,,,,,,,,,,,,
,,,,,40,2020-07-03_16h18.51.359,retriever_ti,2020.1.3,MacIntel,60,Chrome,1360,768,421.37658,13,left,0.9719,canary,1,421.40959,421.40959,423.90807,0,4,4,4,1,5,3,1,html/resources/stimuli_practice_decision/02_canary.jpg,html/resources/stimuli_practice_decision/07_sock.jpg,canary,sock,,,,,,,,,,,,,,,,,,,,,,,,,,,,,,,,,,,,,,,,,,,,,,,,,,,,,,,,,,,,,,,,,,,,,,,,,,,,,
,,,,,40,2020-07-03_16h18.51.359,retriever_ti,2020.1.3,MacIntel,60,Chrome,1360,768,424.42504,14,left,0.777355,glasses,0,424.45906,424.45906,426.95801,0,5,5,5,1,7,8,1,html/resources/stimuli_practice_decision/05_glasses.jpg,html/resources/stimuli_practice_decision/03_squirrel.jpg,glasses,squirrel,,,,,,,,,,,,,,,,,,,,,,,,,,,,,,,,,,,,,,,,,,,,,,,,,,,,,,,,,,,,,,,,,,,,,,,,,,,,,
,,,,,40,2020-07-03_16h18.51.359,retriever_ti,2020.1.3,MacIntel,60,Chrome,1360,768,427.958305,15,left,0.73335,canary,1,427.99182,427.99182,430.49052,0,6,6,6,1,5,4,1,html/resources/stimuli_practice_decision/02_canary.jpg,html/resources/stimuli_practice_decision/01_rabbit.jpg,canary,rabbit,,,,,,,,,,,,,,,,,,,,,,,,,,,,,,,,,,,,,,,,,,,,,,,,,,,,,,,,,,,,,,,,,,,,,,,,,,,,,
,,,,,40,2020-07-03_16h18.51.359,retriever_ti,2020.1.3,MacIntel,60,Chrome,1360,768,431.490135,16,left,0.685255,canary,1,431.507185,431.507185,434.006505,0,7,7,7,1,5,3,1,html/resources/stimuli_practice_decision/02_canary.jpg,html/resources/stimuli_practice_decision/07_sock.jpg,canary,sock,,,,,,,,,,,,,,,,,,,,,,,,,,,,,,,,,,,,,,,,,,,,,,,,,,,,,,,,,,,,,,,,,,,,,,,,,,,,,
,,,,,40,2020-07-03_16h18.51.359,retriever_ti,2020.1.3,MacIntel,60,Chrome,1360,768,,,,,,,,,,,,,,,,,,,,,,down,1,2.228955,1,0,0,0,3,1,html/resources/sequences_IDs/triangle.png,star ↑,square →,triangle ↓,← circle,down,,,,,,,,,,,,,,,,,,,,,,,,,,,,,,,,,,,,,,,,,,,,,,,,,,,,,,,,,,,,,,
,,,,,40,2020-07-03_16h18.51.359,retriever_ti,2020.1.3,MacIntel,60,Chrome,1360,768,,,,,,,,,,,,,,,,,,,,,,up,1,1.397715,1,0,1,1,0,1,html/resources/sequences_IDs/circle.png,circle ↑,square →,triangle ↓,← star ,up,,,,,,,,,,,,,,,,,,,,,,,,,,,,,,,,,,,,,,,,,,,,,,,,,,,,,,,,,,,,,,
,,,,,40,2020-07-03_16h18.51.359,retriever_ti,2020.1.3,MacIntel,60,Chrome,1360,768,,,,,,,,,,,,,,,,,,,,,,down,1,1.29493,1,0,2,2,1,1,html/resources/sequences_IDs/star.png,square ↑,circle →,star ↓,← triangle,down,,,,,,,,,,,,,,,,,,,,,,,,,,,,,,,,,,,,,,,,,,,,,,,,,,,,,,,,,,,,,,
,,,,,40,2020-07-03_16h18.51.359,retriever_ti,2020.1.3,MacIntel,60,Chrome,1360,768,,,,,,,,,,,,,,,,,,,,,,left,1,1.0873,1,0,3,3,2,1,html/resources/sequences_IDs/square1.png,star ↑,triangle →,circle ↓,← square,left,,,,,,,,,,,,,,,,,,,,,,,,,,,,,,,,,,,,,,,,,,,,,,,,,,,,,,,,,,,,,,
,,,,,40,2020-07-03_16h18.51.359,retriever_ti,2020.1.3,MacIntel,60,Chrome,1360,768,,,,,,,,,,,,,,,,,,,,,,,,,,,,,,,,,,,,,0,2.703355,1,0,1,0,1,,,,,,,,,,,,,,,,,,,,,,,,,,,,,,,,,,,,,,,,,,,,,,,,,,,,,,,
,,,,,40,2020-07-03_16h18.51.359,retriever_ti,2020.1.3,MacIntel,60,Chrome,1360,768,,,,,,,,,,,,,,,,,1,,,,,,,,,,,,,,,,,,,,,,,,,,,448.51687,1,left,0.64005,sport_tshirt,4,7,-1,0,0,448.538285,448.538285,451.03556,0,0,0,0,1,1,4,5,sport_tshirt,peacock       ,html/resources/sequences_IDs/B/07_sport_tshirt.jpg,html/resources/sequences_IDs/A/05_peacock.jpg,7,5,3,2,2,1,6,4,0,40,,,,,,,,,,,,,,,,,,,,
,,,,,40,2020-07-03_16h18.51.359,retriever_ti,2020.1.3,MacIntel,60,Chrome,1360,768,,,,,,,,,,,,,,,,,1,,,,,,,,,,,,,,,,,,,,,,,,,,,452.13586,2,left,0.510715,peacock       ,5,5,-1,0,0,452.152485,452.152485,454.650195,0,1,1,1,1,2,5,6,peacock       ,holdfast    ,html/resources/sequences_IDs/A/05_peacock.jpg,html/resources/sequences_IDs/B/04_holdfast.jpg,5,4,2,1,2,1,4,3,0,40,,,,,,,,,,,,,,,,,,,,
,,,,,40,2020-07-03_16h18.51.359,retriever_ti,2020.1.3,MacIntel,60,Chrome,1360,768,,,,,,,,,,,,,,,,,1,,,,,,,,,,,,,,,,,,,,,,,,,,,455.75037,3,left,0.46748,dolphin     ,2,2,1,1,1,455.767185,455.767185,458.266775,0,2,2,2,1,3,2,1,dolphin     ,wolf          ,html/resources/sequences_IDs/B/02_dolphin.jpg,html/resources/sequences_IDs/A/01_wolf.jpg,2,1,1,1,1,1,2,1,0,40,,,,,,,,,,,,,,,,,,,,
,,,,,40,2020-07-03_16h18.51.359,retriever_ti,2020.1.3,MacIntel,60,Chrome,1360,768,,,,,,,,,,,,,,,,,1,,,,,,,,,,,,,,,,,,,,,,,,,,,459.36808,4,left,0.685995,dolphin     ,2,2,-1,0,0,459.40059,459.40059,461.8989,0,3,3,3,1,4,2,3,dolphin     ,scarf         ,html/resources/sequences_IDs/B/02_dolphin.jpg,html/resources/sequences_IDs/A/06_scarf.jpg,2,6,1,1,3,2,2,5,0,40,,,,,,,,,,,,,,,,,,,,
,,,,,40,2020-07-03_16h18.51.359,retriever_ti,2020.1.3,MacIntel,60,Chrome,1360,768,,,,,,,,,,,,,,,,,1,,,,,,,,,,,,,,,,,,,,,,,,,,,462.99851,5,right,1.24199,dolphin     ,2,2,1,1,0,463.031955,463.031955,465.53096,0,4,4,4,1,5,1,2,wolf          ,dolphin     ,html/resources/sequences_IDs/A/01_wolf.jpg,html/resources/sequences_IDs/B/02_dolphin.jpg,1,2,1,1,1,1,1,2,1,40,,,,,,,,,,,,,,,,,,,,
,,,,,40,2020-07-03_16h18.51.359,retriever_ti,2020.1.3,MacIntel,60,Chrome,1360,768,,,,,,,,,,,,,,,,,1,,,,,,,,,,,,,,,,,,,,,,,,,,,466.631965,6,left,1.06435,wolf          ,1,1,-6,0,3,466.66539,466.66539,469.16276,0,5,5,5,1,6,1,7,wolf          ,satellite_dish,html/resources/sequences_IDs/A/01_wolf.jpg,html/resources/sequences_IDs/A/10_satellite_dish.jpg,1,10,1,1,4,2,1,8,0,40,,,,,,,,,,,,,,,,,,,,
,,,,,40,2020-07-03_16h18.51.359,retriever_ti,2020.1.3,MacIntel,60,Chrome,1360,768,,,,,,,,,,,,,,,,,1,,,,,,,,,,,,,,,,,,,,,,,,,,,469.76356,7,left,1.452625,scarf         ,3,6,1,1,1,469.79679,469.79679,472.295555,0,6,6,6,1,7,3,2,scarf         ,dolphin     ,html/resources/sequences_IDs/A/06_scarf.jpg,html/resources/sequences_IDs/B/02_dolphin.jpg,6,2,3,2,1,1,5,2,0,40,,,,,,,,,,,,,,,,,,,,
,,,,,40,2020-07-03_16h18.51.359,retriever_ti,2020.1.3,MacIntel,60,Chrome,1360,768,,,,,,,,,,,,,,,,,1,,,,,,,,,,,,,,,,,,,,,,,,,,,473.396825,8,right,1.24097,slipper     ,8,8,3,1,3,473.430215,473.430215,475.9282,0,7,7,7,1,8,5,8,peacock       ,slipper     ,html/resources/sequences_IDs/A/05_peacock.jpg,html/resources/sequences_IDs/B/08_slipper.jpg,5,8,2,1,3,2,4,7,0,40,,,,,,,,,,,,,,,,,,,,
,,,,,40,2020-07-03_16h18.51.359,retriever_ti,2020.1.3,MacIntel,60,Chrome,1360,768,,,,,,,,,,,,,,,,,1,,,,,,,,,,,,,,,,,,,,,,,,,,,476.529155,9,right,1.17671,holdfast    ,6,4,-1,0,0,476.56259,476.56259,479.0601,0,8,8,8,1,9,7,6,satellite_dish,holdfast    ,html/resources/sequences_IDs/A/10_satellite_dish.jpg,html/resources/sequences_IDs/B/04_holdfast.jpg,10,4,4,2,2,1,8,3,0,40,,,,,,,,,,,,,,,,,,,,
,,,,,40,2020-07-03_16h18.51.359,retriever_ti,2020.1.3,MacIntel,60,Chrome,1360,768,,,,,,,,,,,,,,,,,1,,,,,,,,,,,,,,,,,,,,,,,,,,,480.161495,10,left,1.33148,sport_tshirt,4,7,2,1,3,480.194875,480.194875,482.69243,0,9,9,9,1,10,4,2,sport_tshirt,dolphin     ,html/resources/sequences_IDs/B/07_sport_tshirt.jpg,html/resources/sequences_IDs/B/02_dolphin.jpg,7,2,3,2,1,1,6,2,0,40,,,,,,,,,,,,,,,,,,,,
,,,,,40,2020-07-03_16h18.51.359,retriever_ti,2020.1.3,MacIntel,60,Chrome,1360,768,,,,,,,,,,,,,,,,,1,,,,,,,,,,,,,,,,,,,,,,,,,,,483.29381,11,right,0.89483,sport_tshirt,4,7,-2,0,3,483.32775,483.32775,485.82601,0,10,10,10,1,11,6,4,holdfast    ,sport_tshirt,html/resources/sequences_IDs/B/04_holdfast.jpg,html/resources/sequences_IDs/B/07_sport_tshirt.jpg,4,7,2,1,3,2,3,6,0,40,,,,,,,,,,,,,,,,,,,,
,,,,,40,2020-07-03_16h18.51.359,retriever_ti,2020.1.3,MacIntel,60,Chrome,1360,768,,,,,,,,,,,,,,,,,1,,,,,,,,,,,,,,,,,,,,,,,,,,,486.443245,12,left,0.79713,holdfast    ,6,4,1,1,1,486.459095,486.459095,488.958025,0,11,11,11,1,12,6,5,holdfast    ,peacock       ,html/resources/sequences_IDs/B/04_holdfast.jpg,html/resources/sequences_IDs/A/05_peacock.jpg,4,5,2,1,2,1,3,4,0,40,,,,,,,,,,,,,,,,,,,,
,,,,,40,2020-07-03_16h18.51.359,retriever_ti,2020.1.3,MacIntel,60,Chrome,1360,768,,,,,,,,,,,,,,,,,1,,,,,,,,,,,,,,,,,,,,,,,,,,,490.058985,13,right,0.957295,slipper     ,8,8,4,1,3,490.09246,490.09246,492.590935,0,12,12,12,1,13,4,8,sport_tshirt,slipper     ,html/resources/sequences_IDs/B/07_sport_tshirt.jpg,html/resources/sequences_IDs/B/08_slipper.jpg,7,8,3,2,3,2,6,7,0,40,,,,,,,,,,,,,,,,,,,,
,,,,,40,2020-07-03_16h18.51.359,retriever_ti,2020.1.3,MacIntel,60,Chrome,1360,768,,,,,,,,,,,,,,,,,1,,,,,,,,,,,,,,,,,,,,,,,,,,,493.20769,14,left,0.77261,scarf         ,3,6,1,1,1,493.241715,493.241715,495.739445,0,13,13,13,1,14,3,2,scarf         ,dolphin     ,html/resources/sequences_IDs/A/06_scarf.jpg,html/resources/sequences_IDs/B/02_dolphin.jpg,6,2,3,2,1,1,5,2,0,40,,,,,,,,,,,,,,,,,,,,
,,,,,40,2020-07-03_16h18.51.359,retriever_ti,2020.1.3,MacIntel,60,Chrome,1360,768,,,,,,,,,,,,,,,,,1,,,,,,,,,,,,,,,,,,,,,,,,,,,496.8405,15,right,1.06931,wolf          ,1,1,-5,0,3,496.874055,496.874055,499.37257,0,14,14,14,1,15,6,1,holdfast    ,wolf          ,html/resources/sequences_IDs/B/04_holdfast.jpg,html/resources/sequences_IDs/A/01_wolf.jpg,4,1,2,1,1,1,3,1,0,40,,,,,,,,,,,,,,,,,,,,
,,,,,40,2020-07-03_16h18.51.359,retriever_ti,2020.1.3,MacIntel,60,Chrome,1360,768,,,,,,,,,,,,,,,,,1,,,,,,,,,,,,,,,,,,,,,,,,,,,499.98851,16,right,1.148115,satellite_dish,7,10,3,1,3,500.023095,500.023095,502.521155,0,15,15,15,1,16,4,7,sport_tshirt,satellite_dish,html/resources/sequences_IDs/B/07_sport_tshirt.jpg,html/resources/sequences_IDs/A/10_satellite_dish.jpg,7,10,3,2,4,2,6,8,0,40,,,,,,,,,,,,,,,,,,,,
,,,,,40,2020-07-03_16h18.51.359,retriever_ti,2020.1.3,MacIntel,60,Chrome,1360,768,,,,,,,,,,,,,,,,,1,,,,,,,,,,,,,,,,,,,,,,,,,,,503.12186,17,left,0.852365,wolf          ,1,1,-5,0,3,503.13897,503.13897,505.63696,0,16,16,16,1,17,1,6,wolf          ,holdfast    ,html/resources/sequences_IDs/A/01_wolf.jpg,html/resources/sequences_IDs/B/04_holdfast.jpg,1,4,1,1,2,1,1,3,0,40,,,,,,,,,,,,,,,,,,,,
,,,,,40,2020-07-03_16h18.51.359,retriever_ti,2020.1.3,MacIntel,60,Chrome,1360,768,,,,,,,,,,,,,,,,,1,,,,,,,,,,,,,,,,,,,,,,,,,,,506.23798,18,left,1.45733,satellite_dish,7,10,4,1,3,506.253905,506.253905,508.75299,0,17,17,17,1,18,7,3,satellite_dish,scarf         ,html/resources/sequences_IDs/A/10_satellite_dish.jpg,html/resources/sequences_IDs/A/06_scarf.jpg,10,6,4,2,3,2,8,5,0,40,,,,,,,,,,,,,,,,,,,,
,,,,,40,2020-07-03_16h18.51.359,retriever_ti,2020.1.3,MacIntel,60,Chrome,1360,768,,,,,,,,,,,,,,,,,1,,,,,,,,,,,,,,,,,,,,,,,,,,,509.36967,19,left,0.84394,scarf         ,3,6,-1,0,0,509.403245,509.403245,511.90152,0,18,18,18,1,19,3,4,scarf         ,sport_tshirt,html/resources/sequences_IDs/A/06_scarf.jpg,html/resources/sequences_IDs/B/07_sport_tshirt.jpg,6,7,3,2,3,2,5,6,0,40,,,,,,,,,,,,,,,,,,,,
,,,,,40,2020-07-03_16h18.51.359,retriever_ti,2020.1.3,MacIntel,60,Chrome,1360,768,,,,,,,,,,,,,,,,,1,,,,,,,,,,,,,,,,,,,,,,,,,,,513.00193,20,left,1.19945,satellite_dish,7,10,5,1,3,513.019405,513.019405,515.518065,0,19,19,19,1,20,7,2,satellite_dish,dolphin     ,html/resources/sequences_IDs/A/10_satellite_dish.jpg,html/resources/sequences_IDs/B/02_dolphin.jpg,10,2,4,2,1,1,8,2,0,40,,,,,,,,,,,,,,,,,,,,
,,,,,40,2020-07-03_16h18.51.359,retriever_ti,2020.1.3,MacIntel,60,Chrome,1360,768,,,,,,,,,,,,,,,,,1,,,,,,,,,,,,,,,,,,,,,,,,,,,516.135715,21,right,0.906245,peacock       ,5,5,1,1,1,516.168665,516.168665,518.66646,0,20,20,20,1,21,4,5,sport_tshirt,peacock       ,html/resources/sequences_IDs/B/07_sport_tshirt.jpg,html/resources/sequences_IDs/A/05_peacock.jpg,7,5,3,2,2,1,6,4,0,40,,,,,,,,,,,,,,,,,,,,
,,,,,40,2020-07-03_16h18.51.359,retriever_ti,2020.1.3,MacIntel,60,Chrome,1360,768,,,,,,,,,,,,,,,,,1,,,,,,,,,,,,,,,,,,,,,,,,,,,519.767295,22,right,0.88956,slipper     ,8,8,2,1,3,519.801445,519.801445,522.299575,0,21,21,21,1,22,6,8,holdfast    ,slipper     ,html/resources/sequences_IDs/B/04_holdfast.jpg,html/resources/sequences_IDs/B/08_slipper.jpg,4,8,2,1,3,2,3,7,0,40,,,,,,,,,,,,,,,,,,,,
,,,,,40,2020-07-03_16h18.51.359,retriever_ti,2020.1.3,MacIntel,60,Chrome,1360,768,,,,,,,,,,,,,,,,,1,,,,,,,,,,,,,,,,,,,,,,,,,,,522.916505,23,right,0.80192,satellite_dish,7,10,1,1,1,522.94976,522.94976,525.448095,0,22,22,22,1,23,6,7,holdfast    ,satellite_dish,html/resources/sequences_IDs/B/04_holdfast.jpg,html/resources/sequences_IDs/A/10_satellite_dish.jpg,4,10,2,1,4,2,3,8,0,40,,,,,,,,,,,,,,,,,,,,
,,,,,40,2020-07-03_16h18.51.359,retriever_ti,2020.1.3,MacIntel,60,Chrome,1360,768,,,,,,,,,,,,,,,,,1,,,,,,,,,,,,,,,,,,,,,,,,,,,526.548365,24,left,0.780115,slipper     ,8,8,7,1,3,526.58259,526.58259,529.0806,0,23,23,23,1,24,8,1,slipper     ,wolf          ,html/resources/sequences_IDs/B/08_slipper.jpg,html/resources/sequences_IDs/A/01_wolf.jpg,8,1,3,2,1,1,7,1,0,40,,,,,,,,,,,,,,,,,,,,
,,,,,40,2020-07-03_16h18.51.359,retriever_ti,2020.1.3,MacIntel,60,Chrome,1360,768,,,,,,,,,,,,,,,,,1,,,,,,,,,,,,,,,,,,,,,,,,,,,529.68143,25,left,0.69043,sport_tshirt,4,7,3,1,3,529.714615,529.714615,532.21275,0,24,24,24,1,25,4,1,sport_tshirt,wolf          ,html/resources/sequences_IDs/B/07_sport_tshirt.jpg,html/resources/sequences_IDs/A/01_wolf.jpg,7,1,3,2,1,1,6,1,0,40,,,,,,,,,,,,,,,,,,,,
,,,,,40,2020-07-03_16h18.51.359,retriever_ti,2020.1.3,MacIntel,60,Chrome,1360,768,,,,,,,,,,,,,,,,,1,,,,,,,,,,,,,,,,,,,,,,,,,,,532.814455,26,left,0.58124,scarf         ,3,6,2,1,3,532.831205,532.831205,535.328655,0,25,25,25,1,26,3,1,scarf         ,wolf          ,html/resources/sequences_IDs/A/06_scarf.jpg,html/resources/sequences_IDs/A/01_wolf.jpg,6,1,3,2,1,1,5,1,0,40,,,,,,,,,,,,,,,,,,,,
,,,,,40,2020-07-03_16h18.51.359,retriever_ti,2020.1.3,MacIntel,60,Chrome,1360,768,,,,,,,,,,,,,,,,,1,,,,,,,,,,,,,,,,,,,,,,,,,,,535.929175,27,right,0.761885,slipper     ,8,8,1,1,1,535.96351,535.96351,538.462125,0,26,26,26,1,27,7,8,satellite_dish,slipper     ,html/resources/sequences_IDs/A/10_satellite_dish.jpg,html/resources/sequences_IDs/B/08_slipper.jpg,10,8,4,2,3,2,8,7,0,40,,,,,,,,,,,,,,,,,,,,
,,,,,40,2020-07-03_16h18.51.359,retriever_ti,2020.1.3,MacIntel,60,Chrome,1360,768,,,,,,,,,,,,,,,,,1,,,,,,,,,,,,,,,,,,,,,,,,,,,539.56163,28,left,0.6102,sport_tshirt,4,7,-2,0,3,539.59544,539.59544,542.093455,0,27,27,27,1,28,4,6,sport_tshirt,holdfast    ,html/resources/sequences_IDs/B/07_sport_tshirt.jpg,html/resources/sequences_IDs/B/04_holdfast.jpg,7,4,3,2,2,1,6,3,0,40,,,,,,,,,,,,,,,,,,,,
,,,,,40,2020-07-03_16h18.51.359,retriever_ti,2020.1.3,MacIntel,60,Chrome,1360,768,,,,,,,,,,,,,,,,,1,,,,,,,,,,,,,,,,,,,,,,,,,,,542.69471,29,left,0.79895,satellite_dish,7,10,3,1,3,542.710675,542.710675,545.2098,0,28,28,28,1,29,7,4,satellite_dish,sport_tshirt,html/resources/sequences_IDs/A/10_satellite_dish.jpg,html/resources/sequences_IDs/B/07_sport_tshirt.jpg,10,7,4,2,3,2,8,6,0,40,,,,,,,,,,,,,,,,,,,,
,,,,,40,2020-07-03_16h18.51.359,retriever_ti,2020.1.3,MacIntel,60,Chrome,1360,768,,,,,,,,,,,,,,,,,1,,,,,,,,,,,,,,,,,,,,,,,,,,,545.82721,30,left,0.69439,dolphin     ,2,2,-4,0,3,545.84433,545.84433,548.34229,0,29,29,29,1,30,2,6,dolphin     ,holdfast    ,html/resources/sequences_IDs/B/02_dolphin.jpg,html/resources/sequences_IDs/B/04_holdfast.jpg,2,4,1,1,2,1,2,3,0,40,,,,,,,,,,,,,,,,,,,,
,,,,,40,2020-07-03_16h18.51.359,retriever_ti,2020.1.3,MacIntel,60,Chrome,1360,768,,,,,,,,,,,,,,,,,1,,,,,,,,,,,,,,,,,,,,,,,,,,,548.94355,31,left,0.53263,wolf          ,1,1,-7,0,3,548.976715,548.976715,551.474745,0,30,30,30,1,31,1,8,wolf          ,slipper     ,html/resources/sequences_IDs/A/01_wolf.jpg,html/resources/sequences_IDs/B/08_slipper.jpg,1,8,1,1,3,2,1,7,0,40,,,,,,,,,,,,,,,,,,,,
,,,,,40,2020-07-03_16h18.51.359,retriever_ti,2020.1.3,MacIntel,60,Chrome,1360,768,,,,,,,,,,,,,,,,,1,,,,,,,,,,,,,,,,,,,,,,,,,,,552.07603,32,left,0.65356,slipper     ,8,8,6,1,3,552.09215,552.09215,554.59009,0,31,31,31,1,32,8,2,slipper     ,dolphin     ,html/resources/sequences_IDs/B/08_slipper.jpg,html/resources/sequences_IDs/B/02_dolphin.jpg,8,2,3,2,1,1,7,2,0,40,,,,,,,,,,,,,,,,,,,,
,,,,,40,2020-07-03_16h18.51.359,retriever_ti,2020.1.3,MacIntel,60,Chrome,1360,768,,,,,,,,,,,,,,,,,1,,,,,,,,,,,,,,,,,,,,,,,,,,,555.19064,33,left,0.65573,peacock       ,5,5,-1,0,0,555.224965,555.224965,557.72376,0,32,32,32,1,33,5,6,peacock       ,holdfast    ,html/resources/sequences_IDs/A/05_peacock.jpg,html/resources/sequences_IDs/B/04_holdfast.jpg,5,4,2,1,2,1,4,3,0,40,,,,,,,,,,,,,,,,,,,,
,,,,,40,2020-07-03_16h18.51.359,retriever_ti,2020.1.3,MacIntel,60,Chrome,1360,768,,,,,,,,,,,,,,,,,1,,,,,,,,,,,,,,,,,,,,,,,,,,,558.824285,34,right,0.49004,slipper     ,8,8,1,1,1,558.840875,558.840875,561.33894,0,33,33,33,1,34,7,8,satellite_dish,slipper     ,html/resources/sequences_IDs/A/10_satellite_dish.jpg,html/resources/sequences_IDs/B/08_slipper.jpg,10,8,4,2,3,2,8,7,0,40,,,,,,,,,,,,,,,,,,,,
,,,,,40,2020-07-03_16h18.51.359,retriever_ti,2020.1.3,MacIntel,60,Chrome,1360,768,,,,,,,,,,,,,,,,,1,,,,,,,,,,,,,,,,,,,,,,,,,,,562.43881,35,right,0.70608,peacock       ,5,5,4,1,3,562.456555,562.456555,564.95462,0,34,34,34,1,35,1,5,wolf          ,peacock       ,html/resources/sequences_IDs/A/01_wolf.jpg,html/resources/sequences_IDs/A/05_peacock.jpg,1,5,1,1,2,1,1,4,0,40,,,,,,,,,,,,,,,,,,,,
,,,,,40,2020-07-03_16h18.51.359,retriever_ti,2020.1.3,MacIntel,60,Chrome,1360,768,,,,,,,,,,,,,,,,,1,,,,,,,,,,,,,,,,,,,,,,,,,,,565.57149,36,left,0.61827,peacock       ,5,5,1,1,1,565.60507,565.60507,568.104285,0,35,35,35,1,36,5,4,peacock       ,sport_tshirt,html/resources/sequences_IDs/A/05_peacock.jpg,html/resources/sequences_IDs/B/07_sport_tshirt.jpg,5,7,2,1,3,2,4,6,0,40,,,,,,,,,,,,,,,,,,,,
,,,,,40,2020-07-03_16h18.51.359,retriever_ti,2020.1.3,MacIntel,60,Chrome,1360,768,,,,,,,,,,,,,,,,,1,,,,,,,,,,,,,,,,,,,,,,,,,,,569.204815,37,right,0.58354,scarf         ,3,6,1,1,1,569.23787,569.23787,571.735865,0,36,36,36,1,37,2,3,dolphin     ,scarf         ,html/resources/sequences_IDs/B/02_dolphin.jpg,html/resources/sequences_IDs/A/06_scarf.jpg,2,6,1,1,3,2,2,5,0,40,,,,,,,,,,,,,,,,,,,,
,,,,,40,2020-07-03_16h18.51.359,retriever_ti,2020.1.3,MacIntel,60,Chrome,1360,768,,,,,,,,,,,,,,,,,1,,,,,,,,,,,,,,,,,,,,,,,,,,,572.837135,38,left,0.57586,satellite_dish,7,10,2,1,3,572.870415,572.870415,575.368945,0,37,37,37,1,38,7,5,satellite_dish,peacock       ,html/resources/sequences_IDs/A/10_satellite_dish.jpg,html/resources/sequences_IDs/A/05_peacock.jpg,10,5,4,2,2,1,8,4,0,40,,,,,,,,,,,,,,,,,,,,
,,,,,40,2020-07-03_16h18.51.359,retriever_ti,2020.1.3,MacIntel,60,Chrome,1360,768,,,,,,,,,,,,,,,,,1,,,,,,,,,,,,,,,,,,,,,,,,,,,575.98528,39,left,0.597175,peacock       ,5,5,1,1,1,576.002125,576.002125,578.5005,0,38,38,38,1,39,5,4,peacock       ,sport_tshirt,html/resources/sequences_IDs/A/05_peacock.jpg,html/resources/sequences_IDs/B/07_sport_tshirt.jpg,5,7,2,1,3,2,4,6,0,40,,,,,,,,,,,,,,,,,,,,
,,,,,40,2020-07-03_16h18.51.359,retriever_ti,2020.1.3,MacIntel,60,Chrome,1360,768,,,,,,,,,,,,,,,,,1,,,,,,,,,,,,,,,,,,,,,,,,,,,579.6019,40,right,0.840545,scarf         ,3,6,-5,0,3,579.63536,579.63536,582.13296,0,39,39,39,1,40,8,3,slipper     ,scarf         ,html/resources/sequences_IDs/B/08_slipper.jpg,html/resources/sequences_IDs/A/06_scarf.jpg,8,6,3,2,3,2,7,5,0,40,,,,,,,,,,,,,,,,,,,,
,,,,,40,2020-07-03_16h18.51.359,retriever_ti,2020.1.3,MacIntel,60,Chrome,1360,768,,,,,,,,,,,,,,,,,1,,,,,,,,,,,,,,,,,,,,,,,,,,,582.73427,41,right,0.630485,scarf         ,3,6,-1,0,0,582.767155,582.767155,585.265855,0,40,40,40,1,41,4,3,sport_tshirt,scarf         ,html/resources/sequences_IDs/B/07_sport_tshirt.jpg,html/resources/sequences_IDs/A/06_scarf.jpg,7,6,3,2,3,2,6,5,0,40,,,,,,,,,,,,,,,,,,,,
,,,,,40,2020-07-03_16h18.51.359,retriever_ti,2020.1.3,MacIntel,60,Chrome,1360,768,,,,,,,,,,,,,,,,,1,,,,,,,,,,,,,,,,,,,,,,,,,,,586.366805,42,left,0.455955,dolphin     ,2,2,-5,0,3,586.383305,586.383305,588.882155,0,41,41,41,1,42,2,7,dolphin     ,satellite_dish,html/resources/sequences_IDs/B/02_dolphin.jpg,html/resources/sequences_IDs/A/10_satellite_dish.jpg,2,10,1,1,4,2,2,8,0,40,,,,,,,,,,,,,,,,,,,,
,,,,,40,2020-07-03_16h18.51.359,retriever_ti,2020.1.3,MacIntel,60,Chrome,1360,768,,,,,,,,,,,,,,,,,1,,,,,,,,,,,,,,,,,,,,,,,,,,,589.49906,43,right,0.52737,dolphin     ,2,2,1,1,1,589.51602,589.51602,592.0143,0,42,42,42,1,43,1,2,wolf          ,dolphin     ,html/resources/sequences_IDs/A/01_wolf.jpg,html/resources/sequences_IDs/B/02_dolphin.jpg,1,2,1,1,1,1,1,2,0,40,,,,,,,,,,,,,,,,,,,,
,,,,,40,2020-07-03_16h18.51.359,retriever_ti,2020.1.3,MacIntel,60,Chrome,1360,768,,,,,,,,,,,,,,,,,1,,,,,,,,,,,,,,,,,,,,,,,,,,,593.11464,44,left,0.69503,slipper     ,8,8,3,1,3,593.13184,593.13184,595.63037,0,43,43,43,1,44,8,5,slipper     ,peacock       ,html/resources/sequences_IDs/B/08_slipper.jpg,html/resources/sequences_IDs/A/05_peacock.jpg,8,5,3,2,2,1,7,4,0,40,,,,,,,,,,,,,,,,,,,,
,,,,,40,2020-07-03_16h18.51.359,retriever_ti,2020.1.3,MacIntel,60,Chrome,1360,768,,,,,,,,,,,,,,,,,1,,,,,,,,,,,,,,,,,,,,,,,,,,,596.24766,45,right,0.614885,peacock       ,5,5,-1,0,1,596.28087,596.28087,598.77896,0,44,44,44,1,45,6,5,holdfast    ,peacock       ,html/resources/sequences_IDs/B/04_holdfast.jpg,html/resources/sequences_IDs/A/05_peacock.jpg,4,5,2,1,2,1,3,4,1,40,,,,,,,,,,,,,,,,,,,,
,,,,,40,2020-07-03_16h18.51.359,retriever_ti,2020.1.3,MacIntel,60,Chrome,1360,768,,,,,,,,,,,,,,,,,1,,,,,,,,,,,,,,,,,,,,,,,,,,,599.87955,46,left,0.65627,slipper     ,8,8,1,1,1,599.913275,599.913275,602.411875,0,45,45,45,1,46,8,7,slipper     ,satellite_dish,html/resources/sequences_IDs/B/08_slipper.jpg,html/resources/sequences_IDs/A/10_satellite_dish.jpg,8,10,3,2,4,2,7,8,0,40,,,,,,,,,,,,,,,,,,,,
,,,,,40,2020-07-03_16h18.51.359,retriever_ti,2020.1.3,MacIntel,60,Chrome,1360,768,,,,,,,,,,,,,,,,,1,,,,,,,,,,,,,,,,,,,,,,,,,,,603.512345,47,left,0.754915,satellite_dish,7,10,1,1,1,603.52907,603.52907,606.027425,0,46,46,46,1,47,7,6,satellite_dish,holdfast    ,html/resources/sequences_IDs/A/10_satellite_dish.jpg,html/resources/sequences_IDs/B/04_holdfast.jpg,10,4,4,2,2,1,8,3,0,40,,,,,,,,,,,,,,,,,,,,
,,,,,40,2020-07-03_16h18.51.359,retriever_ti,2020.1.3,MacIntel,60,Chrome,1360,768,,,,,,,,,,,,,,,,,1,,,,,,,,,,,,,,,,,,,,,,,,,,,607.127385,48,left,0.788925,holdfast    ,6,4,1,1,1,607.16143,607.16143,609.66,0,47,47,47,1,48,6,5,holdfast    ,peacock       ,html/resources/sequences_IDs/B/04_holdfast.jpg,html/resources/sequences_IDs/A/05_peacock.jpg,4,5,2,1,2,1,3,4,0,40,,,,,,,,,,,,,,,,,,,,
,,,,,40,2020-07-03_16h18.51.359,retriever_ti,2020.1.3,MacIntel,60,Chrome,1360,768,,,,,,,,,,,,,,,,,1,,,,,,,,,,,,,,,,,,,,,,,,,,,610.760175,49,left,0.861205,slipper     ,8,8,1,1,0,610.79365,610.79365,613.29241,0,48,48,48,1,49,8,7,slipper     ,satellite_dish,html/resources/sequences_IDs/B/08_slipper.jpg,html/resources/sequences_IDs/A/10_satellite_dish.jpg,8,10,3,2,4,2,7,8,1,40,,,,,,,,,,,,,,,,,,,,
,,,,,40,2020-07-03_16h18.51.359,retriever_ti,2020.1.3,MacIntel,60,Chrome,1360,768,,,,,,,,,,,,,,,,,1,,,,,,,,,,,,,,,,,,,,,,,,,,,614.392575,50,right,0.73294,scarf         ,3,6,-2,0,3,614.4253,614.4253,616.923585,0,49,49,49,1,50,5,3,peacock       ,scarf         ,html/resources/sequences_IDs/A/05_peacock.jpg,html/resources/sequences_IDs/A/06_scarf.jpg,5,6,2,1,3,2,4,5,0,40,,,,,,,,,,,,,,,,,,,,
,,,,,40,2020-07-03_16h18.51.359,retriever_ti,2020.1.3,MacIntel,60,Chrome,1360,768,,,,,,,,,,,,,,,,,1,,,,,,,,,,,,,,,,,,,,,,,,,,,617.52491,51,right,0.793625,satellite_dish,7,10,2,1,3,617.55864,617.55864,620.056115,0,50,50,50,1,51,5,7,peacock       ,satellite_dish,html/resources/sequences_IDs/A/05_peacock.jpg,html/resources/sequences_IDs/A/10_satellite_dish.jpg,5,10,2,1,4,2,4,8,0,40,,,,,,,,,,,,,,,,,,,,
,,,,,40,2020-07-03_16h18.51.359,retriever_ti,2020.1.3,MacIntel,60,Chrome,1360,768,,,,,,,,,,,,,,,,,1,,,,,,,,,,,,,,,,,,,,,,,,,,,620.65739,52,left,1.276325,peacock       ,5,5,3,1,3,620.67412,620.67412,623.171935,0,51,51,51,1,52,5,2,peacock       ,dolphin     ,html/resources/sequences_IDs/A/05_peacock.jpg,html/resources/sequences_IDs/B/02_dolphin.jpg,5,2,2,1,1,1,4,2,0,40,,,,,,,,,,,,,,,,,,,,
,,,,,40,2020-07-03_16h18.51.359,retriever_ti,2020.1.3,MacIntel,60,Chrome,1360,768,,,,,,,,,,,,,,,,,1,,,,,,,,,,,,,,,,,,,,,,,,,,,623.77264,53,left,1.031645,scarf         ,3,6,-5,0,3,623.79014,623.79014,626.288605,0,52,52,52,1,53,3,8,scarf         ,slipper     ,html/resources/sequences_IDs/A/06_scarf.jpg,html/resources/sequences_IDs/B/08_slipper.jpg,6,8,3,2,3,2,5,7,0,40,,,,,,,,,,,,,,,,,,,,
,,,,,40,2020-07-03_16h18.51.359,retriever_ti,2020.1.3,MacIntel,60,Chrome,1360,768,,,,,,,,,,,,,,,,,1,,,,,,,,,,,,,,,,,,,,,,,,,,,626.905445,54,left,0.675915,peacock       ,5,5,4,1,3,626.923385,626.923385,629.420345,0,53,53,53,1,54,5,1,peacock       ,wolf          ,html/resources/sequences_IDs/A/05_peacock.jpg,html/resources/sequences_IDs/A/01_wolf.jpg,5,1,2,1,1,1,4,1,0,40,,,,,,,,,,,,,,,,,,,,
,,,,,40,2020-07-03_16h18.51.359,retriever_ti,2020.1.3,MacIntel,60,Chrome,1360,768,,,,,,,,,,,,,,,,,1,,,,,,,,,,,,,,,,,,,,,,,,,,,630.021075,55,right,1.03255,wolf          ,1,1,-1,0,0,630.03805,630.03805,632.537215,0,54,54,54,1,55,2,1,dolphin     ,wolf          ,html/resources/sequences_IDs/B/02_dolphin.jpg,html/resources/sequences_IDs/A/01_wolf.jpg,2,1,1,1,1,1,2,1,0,40,,,,,,,,,,,,,,,,,,,,
,,,,,40,2020-07-03_16h18.51.359,retriever_ti,2020.1.3,MacIntel,60,Chrome,1360,768,,,,,,,,,,,,,,,,,1,,,,,,,,,,,,,,,,,,,,,,,,,,,633.637775,56,right,1.01066,peacock       ,5,5,3,1,3,633.67115,633.67115,636.16894,0,55,55,55,1,56,2,5,dolphin     ,peacock       ,html/resources/sequences_IDs/B/02_dolphin.jpg,html/resources/sequences_IDs/A/05_peacock.jpg,2,5,1,1,2,1,2,4,0,40,,,,,,,,,,,,,,,,,,,,
,,,,,40,2020-07-03_16h18.51.359,retriever_ti,2020.1.3,MacIntel,60,Chrome,1360,768,,,,,,,,,,,,,,,,,1,,,,,,,,,,,,,,,,,,,,,,,,,,,636.78619,57,right,0.738645,scarf         ,3,6,-3,0,3,636.80304,636.80304,639.3022,0,56,56,56,1,57,6,3,holdfast    ,scarf         ,html/resources/sequences_IDs/B/04_holdfast.jpg,html/resources/sequences_IDs/A/06_scarf.jpg,4,6,2,1,3,2,3,5,0,40,,,,,,,,,,,,,,,,,,,,
,,,,,40,2020-07-03_16h18.51.359,retriever_ti,2020.1.3,MacIntel,60,Chrome,1360,768,,,,,,,,,,,,,,,,,1,,,,,,,,,,,,,,,,,,,,,,,,,,,639.90272,58,left,0.635345,slipper     ,8,8,1,1,1,639.919545,639.919545,642.417985,0,57,57,57,1,58,8,7,slipper     ,satellite_dish,html/resources/sequences_IDs/B/08_slipper.jpg,html/resources/sequences_IDs/A/10_satellite_dish.jpg,8,10,3,2,4,2,7,8,0,40,,,,,,,,,,,,,,,,,,,,
,,,,,40,2020-07-03_16h18.51.359,retriever_ti,2020.1.3,MacIntel,60,Chrome,1360,768,,,,,,,,,,,,,,,,,1,,,,,,,,,,,,,,,,,,,,,,,,,,,643.517455,59,left,0.93438,dolphin     ,2,2,-6,0,3,643.551855,643.551855,646.050155,0,58,58,58,1,59,2,8,dolphin     ,slipper     ,html/resources/sequences_IDs/B/02_dolphin.jpg,html/resources/sequences_IDs/B/08_slipper.jpg,2,8,1,1,3,2,2,7,0,40,,,,,,,,,,,,,,,,,,,,
,,,,,40,2020-07-03_16h18.51.359,retriever_ti,2020.1.3,MacIntel,60,Chrome,1360,768,,,,,,,,,,,,,,,,,1,,,,,,,,,,,,,,,,,,,,,,,,,,,646.66743,60,right,0.705565,sport_tshirt,4,7,-4,0,3,646.701325,646.701325,649.199095,0,59,59,59,1,60,8,4,slipper     ,sport_tshirt,html/resources/sequences_IDs/B/08_slipper.jpg,html/resources/sequences_IDs/B/07_sport_tshirt.jpg,8,7,3,2,3,2,7,6,0,40,,,,,,,,,,,,,,,,,,,,
,,,,,40,2020-07-03_16h18.51.359,retriever_ti,2020.1.3,MacIntel,60,Chrome,1360,768,,,,,,,,,,,,,,,,,1,,,,,,,,,,,,,,,,,,,,,,,,,,,649.79979,61,left,0.500745,wolf          ,1,1,-2,0,3,649.833225,649.833225,652.331985,0,60,60,60,1,61,1,3,wolf          ,scarf         ,html/resources/sequences_IDs/A/01_wolf.jpg,html/resources/sequences_IDs/A/06_scarf.jpg,1,6,1,1,3,2,1,5,0,40,,,,,,,,,,,,,,,,,,,,
,,,,,40,2020-07-03_16h18.51.359,retriever_ti,2020.1.3,MacIntel,60,Chrome,1360,768,,,,,,,,,,,,,,,,,1,,,,,,,,,,,,,,,,,,,,,,,,,,,652.949375,62,left,0.573875,scarf         ,3,6,-3,0,3,652.982315,652.982315,655.48054,0,61,61,61,1,62,3,6,scarf         ,holdfast    ,html/resources/sequences_IDs/A/06_scarf.jpg,html/resources/sequences_IDs/B/04_holdfast.jpg,6,4,3,2,2,1,5,3,0,40,,,,,,,,,,,,,,,,,,,,
,,,,,40,2020-07-03_16h18.51.359,retriever_ti,2020.1.3,MacIntel,60,Chrome,1360,768,,,,,,,,,,,,,,,,,1,,,,,,,,,,,,,,,,,,,,,,,,,,,656.09739,63,left,0.604295,scarf         ,3,6,-1,0,0,656.114125,656.114125,658.612565,0,62,62,62,1,63,3,4,scarf         ,sport_tshirt,html/resources/sequences_IDs/A/06_scarf.jpg,html/resources/sequences_IDs/B/07_sport_tshirt.jpg,6,7,3,2,3,2,5,6,0,40,,,,,,,,,,,,,,,,,,,,
,,,,,40,2020-07-03_16h18.51.359,retriever_ti,2020.1.3,MacIntel,60,Chrome,1360,768,,,,,,,,,,,,,,,,,1,,,,,,,,,,,,,,,,,,,,,,,,,,,659.71408,64,right,1.234655,peacock       ,5,5,2,1,3,659.72998,659.72998,662.22937,0,63,63,63,1,64,3,5,scarf         ,peacock       ,html/resources/sequences_IDs/A/06_scarf.jpg,html/resources/sequences_IDs/A/05_peacock.jpg,6,5,3,2,2,1,5,4,0,40,,,,,,,,,,,,,,,,,,,,
,,,,,40,2020-07-03_16h18.51.359,retriever_ti,2020.1.3,MacIntel,60,Chrome,1360,768,,,,,,,,,,,,,,,,,1,,,,,,,,,,,,,,,,,,,,,,,,,,,662.84669,65,right,0.52853,sport_tshirt,4,7,-1,0,1,662.87939,662.87939,665.37785,0,64,64,64,1,65,5,4,peacock       ,sport_tshirt,html/resources/sequences_IDs/A/05_peacock.jpg,html/resources/sequences_IDs/B/07_sport_tshirt.jpg,5,7,2,1,3,2,4,6,1,40,,,,,,,,,,,,,,,,,,,,
,,,,,40,2020-07-03_16h18.51.359,retriever_ti,2020.1.3,MacIntel,60,Chrome,1360,768,,,,,,,,,,,,,,,,,1,,,,,,,,,,,,,,,,,,,,,,,,,,,666.478345,66,left,0.67905,holdfast    ,6,4,-1,0,1,666.49551,666.49551,668.99317,0,65,65,65,1,66,6,7,holdfast    ,satellite_dish,html/resources/sequences_IDs/B/04_holdfast.jpg,html/resources/sequences_IDs/A/10_satellite_dish.jpg,4,10,2,1,4,2,3,8,1,40,,,,,,,,,,,,,,,,,,,,
,,,,,40,2020-07-03_16h18.51.359,retriever_ti,2020.1.3,MacIntel,60,Chrome,1360,768,,,,,,,,,,,,,,,,,1,,,,,,,,,,,,,,,,,,,,,,,,,,,670.094325,67,right,0.61674,scarf         ,3,6,1,1,0,670.1103,670.1103,672.60887,0,66,66,66,1,67,2,3,dolphin     ,scarf         ,html/resources/sequences_IDs/B/02_dolphin.jpg,html/resources/sequences_IDs/A/06_scarf.jpg,2,6,1,1,3,2,2,5,1,40,,,,,,,,,,,,,,,,,,,,
,,,,,40,2020-07-03_16h18.51.359,retriever_ti,2020.1.3,MacIntel,60,Chrome,1360,768,,,,,,,,,,,,,,,,,1,,,,,,,,,,,,,,,,,,,,,,,,,,,673.709395,68,right,0.60593,sport_tshirt,4,7,1,1,0,673.72624,673.72624,676.22465,0,67,67,67,1,68,3,4,scarf         ,sport_tshirt,html/resources/sequences_IDs/A/06_scarf.jpg,html/resources/sequences_IDs/B/07_sport_tshirt.jpg,6,7,3,2,3,2,5,6,1,40,,,,,,,,,,,,,,,,,,,,
,,,,,40,2020-07-03_16h18.51.359,retriever_ti,2020.1.3,MacIntel,60,Chrome,1360,768,,,,,,,,,,,,,,,,,1,,,,,,,,,,,,,,,,,,,,,,,,,,,677.32565,69,right,0.735765,dolphin     ,2,2,1,1,1,677.34282,677.34282,679.840695,0,68,68,68,1,69,1,2,wolf          ,dolphin     ,html/resources/sequences_IDs/A/01_wolf.jpg,html/resources/sequences_IDs/B/02_dolphin.jpg,1,2,1,1,1,1,1,2,0,40,,,,,,,,,,,,,,,,,,,,
,,,,,40,2020-07-03_16h18.51.359,retriever_ti,2020.1.3,MacIntel,60,Chrome,1360,768,,,,,,,,,,,,,,,,,1,,,,,,,,,,,,,,,,,,,,,,,,,,,680.94143,70,right,0.96811,holdfast    ,6,4,-2,0,3,680.97443,680.97443,683.47315,0,69,69,69,1,70,8,6,slipper     ,holdfast    ,html/resources/sequences_IDs/B/08_slipper.jpg,html/resources/sequences_IDs/B/04_holdfast.jpg,8,4,3,2,2,1,7,3,0,40,,,,,,,,,,,,,,,,,,,,
,,,,,40,2020-07-03_16h18.51.359,retriever_ti,2020.1.3,MacIntel,60,Chrome,1360,768,,,,,,,,,,,,,,,,,1,,,,,,,,,,,,,,,,,,,,,,,,,,,684.073895,71,right,0.877035,satellite_dish,7,10,1,1,1,684.090865,684.090865,686.58853,0,70,70,70,1,71,6,7,holdfast    ,satellite_dish,html/resources/sequences_IDs/B/04_holdfast.jpg,html/resources/sequences_IDs/A/10_satellite_dish.jpg,4,10,2,1,4,2,3,8,0,40,,,,,,,,,,,,,,,,,,,,
,,,,,40,2020-07-03_16h18.51.359,retriever_ti,2020.1.3,MacIntel,60,Chrome,1360,768,,,,,,,,,,,,,,,,,1,,,,,,,,,,,,,,,,,,,,,,,,,,,687.689995,72,left,0.94393,dolphin     ,2,2,-2,0,3,687.70581,687.70581,690.20423,0,71,71,71,1,72,2,4,dolphin     ,sport_tshirt,html/resources/sequences_IDs/B/02_dolphin.jpg,html/resources/sequences_IDs/B/07_sport_tshirt.jpg,2,7,1,1,3,2,2,6,0,40,,,,,,,,,,,,,,,,,,,,
,,,,,40,2020-07-03_16h18.51.359,retriever_ti,2020.1.3,MacIntel,60,Chrome,1360,768,,,,,,,,,,,,,,,,,1,,,,,,,,,,,,,,,,,,,,,,,,,,,690.822335,73,left,1.079,scarf         ,3,6,-4,0,3,690.83827,690.83827,693.33668,0,72,72,72,1,73,3,7,scarf         ,satellite_dish,html/resources/sequences_IDs/A/06_scarf.jpg,html/resources/sequences_IDs/A/10_satellite_dish.jpg,6,10,3,2,4,2,5,8,0,40,,,,,,,,,,,,,,,,,,,,
,,,,,40,2020-07-03_16h18.51.359,retriever_ti,2020.1.3,MacIntel,60,Chrome,1360,768,,,,,,,,,,,,,,,,,1,,,,,,,,,,,,,,,,,,,,,,,,,,,693.937965,74,right,0.882485,dolphin     ,2,2,-4,0,3,693.953965,693.953965,696.45329,0,73,73,73,1,74,6,2,holdfast    ,dolphin     ,html/resources/sequences_IDs/B/04_holdfast.jpg,html/resources/sequences_IDs/B/02_dolphin.jpg,4,2,2,1,1,1,3,2,0,40,,,,,,,,,,,,,,,,,,,,
,,,,,40,2020-07-03_16h18.51.359,retriever_ti,2020.1.3,MacIntel,60,Chrome,1360,768,,,,,,,,,,,,,,,,,1,,,,,,,,,,,,,,,,,,,,,,,,,,,697.054185,75,left,1.21523,satellite_dish,7,10,6,1,3,697.070925,697.070925,699.56949,0,74,74,74,1,75,7,1,satellite_dish,wolf          ,html/resources/sequences_IDs/A/10_satellite_dish.jpg,html/resources/sequences_IDs/A/01_wolf.jpg,10,1,4,2,1,1,8,1,0,40,,,,,,,,,,,,,,,,,,,,
,,,,,40,2020-07-03_16h18.51.359,retriever_ti,2020.1.3,MacIntel,60,Chrome,1360,768,,,,,,,,,,,,,,,,,1,,,,,,,,,,,,,,,,,,,,,,,,,,,700.18625,76,right,0.909205,scarf         ,3,6,-1,0,0,700.203375,700.203375,702.702035,0,75,75,75,1,76,4,3,sport_tshirt,scarf         ,html/resources/sequences_IDs/B/07_sport_tshirt.jpg,html/resources/sequences_IDs/A/06_scarf.jpg,7,6,3,2,3,2,6,5,0,40,,,,,,,,,,,,,,,,,,,,
,,,,,40,2020-07-03_16h18.51.359,retriever_ti,2020.1.3,MacIntel,60,Chrome,1360,768,,,,,,,,,,,,,,,,,1,,,,,,,,,,,,,,,,,,,,,,,,,,,703.802595,77,left,0.71131,wolf          ,1,1,-3,0,3,703.81905,703.81905,706.31687,0,76,76,76,1,77,1,4,wolf          ,sport_tshirt,html/resources/sequences_IDs/A/01_wolf.jpg,html/resources/sequences_IDs/B/07_sport_tshirt.jpg,1,7,1,1,3,2,1,6,0,40,,,,,,,,,,,,,,,,,,,,
,,,,,40,2020-07-03_16h18.51.359,retriever_ti,2020.1.3,MacIntel,60,Chrome,1360,768,,,,,,,,,,,,,,,,,,,,,,,,,,,,,,,,,,,,,0,3.338185,,,,,,,,,,,,,,,,,,,,,,,,,,,,,,,,,,,,,,,,,0,0,0,0,1,,,,,,,,,,,,,,,
,,,,,40,2020-07-03_16h18.51.359,retriever_ti,2020.1.3,MacIntel,60,Chrome,1360,768,,,,,,,,,,,,,,,,,2,,,,,,,,,,,,,,,,,,,,,,,,,,,739.46207,78,left,0.926135,peacock       ,5,5,4,1,3,739.49226,739.49226,741.991405,0,0,0,0,1,78,5,1,peacock       ,wolf          ,html/resources/sequences_IDs/A/05_peacock.jpg,html/resources/sequences_IDs/A/01_wolf.jpg,5,1,2,1,1,1,4,1,0,40,,,,,,,,,,,,,,,,,,,,
,,,,,40,2020-07-03_16h18.51.359,retriever_ti,2020.1.3,MacIntel,60,Chrome,1360,768,,,,,,,,,,,,,,,,,2,,,,,,,,,,,,,,,,,,,,,,,,,,,742.60886,79,right,1.09958,sport_tshirt,4,7,-3,0,3,742.641715,742.641715,745.139815,0,1,1,1,1,79,7,4,satellite_dish,sport_tshirt,html/resources/sequences_IDs/A/10_satellite_dish.jpg,html/resources/sequences_IDs/B/07_sport_tshirt.jpg,10,7,4,2,3,2,8,6,0,40,,,,,,,,,,,,,,,,,,,,
,,,,,40,2020-07-03_16h18.51.359,retriever_ti,2020.1.3,MacIntel,60,Chrome,1360,768,,,,,,,,,,,,,,,,,2,,,,,,,,,,,,,,,,,,,,,,,,,,,745.740895,80,right,0.62832,peacock       ,5,5,-1,0,1,745.773885,745.773885,748.2732,0,2,2,2,1,80,6,5,holdfast    ,peacock       ,html/resources/sequences_IDs/B/04_holdfast.jpg,html/resources/sequences_IDs/A/05_peacock.jpg,4,5,2,1,2,1,3,4,1,40,,,,,,,,,,,,,,,,,,,,
,,,,,40,2020-07-03_16h18.51.359,retriever_ti,2020.1.3,MacIntel,60,Chrome,1360,768,,,,,,,,,,,,,,,,,2,,,,,,,,,,,,,,,,,,,,,,,,,,,749.37358,81,right,0.562,satellite_dish,7,10,1,1,1,749.38939,749.38939,751.88825,0,3,3,3,1,81,6,7,holdfast    ,satellite_dish,html/resources/sequences_IDs/B/04_holdfast.jpg,html/resources/sequences_IDs/A/10_satellite_dish.jpg,4,10,2,1,4,2,3,8,0,40,,,,,,,,,,,,,,,,,,,,
,,,,,40,2020-07-03_16h18.51.359,retriever_ti,2020.1.3,MacIntel,60,Chrome,1360,768,,,,,,,,,,,,,,,,,2,,,,,,,,,,,,,,,,,,,,,,,,,,,752.988125,82,left,0.66284,satellite_dish,7,10,2,1,3,753.02219,753.02219,755.520265,0,4,4,4,1,82,7,5,satellite_dish,peacock       ,html/resources/sequences_IDs/A/10_satellite_dish.jpg,html/resources/sequences_IDs/A/05_peacock.jpg,10,5,4,2,2,1,8,4,0,40,,,,,,,,,,,,,,,,,,,,
,,,,,40,2020-07-03_16h18.51.359,retriever_ti,2020.1.3,MacIntel,60,Chrome,1360,768,,,,,,,,,,,,,,,,,2,,,,,,,,,,,,,,,,,,,,,,,,,,,756.12141,83,left,0.54079,dolphin     ,2,2,-5,0,3,756.15429,756.15429,758.653255,0,5,5,5,1,83,2,7,dolphin     ,satellite_dish,html/resources/sequences_IDs/B/02_dolphin.jpg,html/resources/sequences_IDs/A/10_satellite_dish.jpg,2,10,1,1,4,2,2,8,0,40,,,,,,,,,,,,,,,,,,,,
,,,,,40,2020-07-03_16h18.51.359,retriever_ti,2020.1.3,MacIntel,60,Chrome,1360,768,,,,,,,,,,,,,,,,,2,,,,,,,,,,,,,,,,,,,,,,,,,,,759.270115,84,right,0.49491,sport_tshirt,4,7,-4,0,3,759.30405,759.30405,761.80194,0,6,6,6,1,84,8,4,slipper     ,sport_tshirt,html/resources/sequences_IDs/B/08_slipper.jpg,html/resources/sequences_IDs/B/07_sport_tshirt.jpg,8,7,3,2,3,2,7,6,0,40,,,,,,,,,,,,,,,,,,,,
,,,,,40,2020-07-03_16h18.51.359,retriever_ti,2020.1.3,MacIntel,60,Chrome,1360,768,,,,,,,,,,,,,,,,,2,,,,,,,,,,,,,,,,,,,,,,,,,,,762.41967,85,left,0.55388,wolf          ,1,1,-1,0,0,762.45297,762.45297,764.951265,0,7,7,7,1,85,1,2,wolf          ,dolphin     ,html/resources/sequences_IDs/A/01_wolf.jpg,html/resources/sequences_IDs/B/02_dolphin.jpg,1,2,1,1,1,1,1,2,0,40,,,,,,,,,,,,,,,,,,,,
,,,,,40,2020-07-03_16h18.51.359,retriever_ti,2020.1.3,MacIntel,60,Chrome,1360,768,,,,,,,,,,,,,,,,,2,,,,,,,,,,,,,,,,,,,,,,,,,,,766.05169,86,left,0.6011,slipper     ,8,8,5,1,3,766.08496,766.08496,768.583465,0,8,8,8,1,86,8,3,slipper     ,scarf         ,html/resources/sequences_IDs/B/08_slipper.jpg,html/resources/sequences_IDs/A/06_scarf.jpg,8,6,3,2,3,2,7,5,0,40,,,,,,,,,,,,,,,,,,,,
,,,,,40,2020-07-03_16h18.51.359,retriever_ti,2020.1.3,MacIntel,60,Chrome,1360,768,,,,,,,,,,,,,,,,,2,,,,,,,,,,,,,,,,,,,,,,,,,,,769.18472,87,right,0.60321,holdfast    ,6,4,5,1,3,769.20177,769.20177,771.700055,0,9,9,9,1,87,1,6,wolf          ,holdfast    ,html/resources/sequences_IDs/A/01_wolf.jpg,html/resources/sequences_IDs/B/04_holdfast.jpg,1,4,1,1,2,1,1,3,0,40,,,,,,,,,,,,,,,,,,,,
,,,,,40,2020-07-03_16h18.51.359,retriever_ti,2020.1.3,MacIntel,60,Chrome,1360,768,,,,,,,,,,,,,,,,,2,,,,,,,,,,,,,,,,,,,,,,,,,,,772.300965,88,right,0.745485,scarf         ,3,6,-2,0,3,772.333235,772.333235,774.831815,0,10,10,10,1,88,5,3,peacock       ,scarf         ,html/resources/sequences_IDs/A/05_peacock.jpg,html/resources/sequences_IDs/A/06_scarf.jpg,5,6,2,1,3,2,4,5,0,40,,,,,,,,,,,,,,,,,,,,
,,,,,40,2020-07-03_16h18.51.359,retriever_ti,2020.1.3,MacIntel,60,Chrome,1360,768,,,,,,,,,,,,,,,,,2,,,,,,,,,,,,,,,,,,,,,,,,,,,775.43348,89,left,0.5258,satellite_dish,7,10,1,1,1,775.46681,775.46681,777.96453,0,11,11,11,1,89,7,6,satellite_dish,holdfast    ,html/resources/sequences_IDs/A/10_satellite_dish.jpg,html/resources/sequences_IDs/B/04_holdfast.jpg,10,4,4,2,2,1,8,3,0,40,,,,,,,,,,,,,,,,,,,,
,,,,,40,2020-07-03_16h18.51.359,retriever_ti,2020.1.3,MacIntel,60,Chrome,1360,768,,,,,,,,,,,,,,,,,2,,,,,,,,,,,,,,,,,,,,,,,,,,,779.06468,90,left,0.553505,scarf         ,3,6,2,1,3,779.09905,779.09905,781.597255,0,12,12,12,1,90,3,1,scarf         ,wolf          ,html/resources/sequences_IDs/A/06_scarf.jpg,html/resources/sequences_IDs/A/01_wolf.jpg,6,1,3,2,1,1,5,1,0,40,,,,,,,,,,,,,,,,,,,,
,,,,,40,2020-07-03_16h18.51.359,retriever_ti,2020.1.3,MacIntel,60,Chrome,1360,768,,,,,,,,,,,,,,,,,2,,,,,,,,,,,,,,,,,,,,,,,,,,,782.198235,91,left,0.350875,peacock       ,5,5,-1,0,0,782.23148,782.23148,784.729595,0,13,13,13,1,91,5,6,peacock       ,holdfast    ,html/resources/sequences_IDs/A/05_peacock.jpg,html/resources/sequences_IDs/B/04_holdfast.jpg,5,4,2,1,2,1,4,3,0,40,,,,,,,,,,,,,,,,,,,,
,,,,,40,2020-07-03_16h18.51.359,retriever_ti,2020.1.3,MacIntel,60,Chrome,1360,768,,,,,,,,,,,,,,,,,2,,,,,,,,,,,,,,,,,,,,,,,,,,,785.83055,92,left,0.476705,slipper     ,8,8,1,1,0,785.863905,785.863905,788.362115,0,14,14,14,1,92,8,7,slipper     ,satellite_dish,html/resources/sequences_IDs/B/08_slipper.jpg,html/resources/sequences_IDs/A/10_satellite_dish.jpg,8,10,3,2,4,2,7,8,1,40,,,,,,,,,,,,,,,,,,,,
,,,,,40,2020-07-03_16h18.51.359,retriever_ti,2020.1.3,MacIntel,60,Chrome,1360,768,,,,,,,,,,,,,,,,,2,,,,,,,,,,,,,,,,,,,,,,,,,,,789.46381,93,left,0.637805,satellite_dish,7,10,4,1,3,789.49656,789.49656,791.995015,0,15,15,15,1,93,7,3,satellite_dish,scarf         ,html/resources/sequences_IDs/A/10_satellite_dish.jpg,html/resources/sequences_IDs/A/06_scarf.jpg,10,6,4,2,3,2,8,5,0,40,,,,,,,,,,,,,,,,,,,,
,,,,,40,2020-07-03_16h18.51.359,retriever_ti,2020.1.3,MacIntel,60,Chrome,1360,768,,,,,,,,,,,,,,,,,2,,,,,,,,,,,,,,,,,,,,,,,,,,,792.611845,94,left,0.496615,slipper     ,8,8,7,1,3,792.645575,792.645575,795.14317,0,16,16,16,1,94,8,1,slipper     ,wolf          ,html/resources/sequences_IDs/B/08_slipper.jpg,html/resources/sequences_IDs/A/01_wolf.jpg,8,1,3,2,1,1,7,1,0,40,,,,,,,,,,,,,,,,,,,,
,,,,,40,2020-07-03_16h18.51.359,retriever_ti,2020.1.3,MacIntel,60,Chrome,1360,768,,,,,,,,,,,,,,,,,2,,,,,,,,,,,,,,,,,,,,,,,,,,,795.76124,95,right,0.61057,holdfast    ,6,4,3,1,3,795.794615,795.794615,798.293115,0,17,17,17,1,95,3,6,scarf         ,holdfast    ,html/resources/sequences_IDs/A/06_scarf.jpg,html/resources/sequences_IDs/B/04_holdfast.jpg,6,4,3,2,2,1,5,3,0,40,,,,,,,,,,,,,,,,,,,,
,,,,,40,2020-07-03_16h18.51.359,retriever_ti,2020.1.3,MacIntel,60,Chrome,1360,768,,,,,,,,,,,,,,,,,2,,,,,,,,,,,,,,,,,,,,,,,,,,,798.910165,96,left,0.575535,satellite_dish,7,10,1,1,1,798.944035,798.944035,801.44226,0,18,18,18,1,96,7,6,satellite_dish,holdfast    ,html/resources/sequences_IDs/A/10_satellite_dish.jpg,html/resources/sequences_IDs/B/04_holdfast.jpg,10,4,4,2,2,1,8,3,0,40,,,,,,,,,,,,,,,,,,,,
,,,,,40,2020-07-03_16h18.51.359,retriever_ti,2020.1.3,MacIntel,60,Chrome,1360,768,,,,,,,,,,,,,,,,,2,,,,,,,,,,,,,,,,,,,,,,,,,,,802.542975,97,left,0.479865,dolphin     ,2,2,1,1,1,802.559045,802.559045,805.057875,0,19,19,19,1,97,2,1,dolphin     ,wolf          ,html/resources/sequences_IDs/B/02_dolphin.jpg,html/resources/sequences_IDs/A/01_wolf.jpg,2,1,1,1,1,1,2,1,0,40,,,,,,,,,,,,,,,,,,,,
,,,,,40,2020-07-03_16h18.51.359,retriever_ti,2020.1.3,MacIntel,60,Chrome,1360,768,,,,,,,,,,,,,,,,,2,,,,,,,,,,,,,,,,,,,,,,,,,,,806.15834,98,right,0.62459,wolf          ,1,1,-5,0,3,806.17564,806.17564,808.67334,0,20,20,20,1,98,6,1,holdfast    ,wolf          ,html/resources/sequences_IDs/B/04_holdfast.jpg,html/resources/sequences_IDs/A/01_wolf.jpg,4,1,2,1,1,1,3,1,0,40,,,,,,,,,,,,,,,,,,,,
,,,,,40,2020-07-03_16h18.51.359,retriever_ti,2020.1.3,MacIntel,60,Chrome,1360,768,,,,,,,,,,,,,,,,,2,,,,,,,,,,,,,,,,,,,,,,,,,,,809.2906,99,right,0.696515,peacock       ,5,5,2,1,3,809.3075,809.3075,811.80631,0,21,21,21,1,99,3,5,scarf         ,peacock       ,html/resources/sequences_IDs/A/06_scarf.jpg,html/resources/sequences_IDs/A/05_peacock.jpg,6,5,3,2,2,1,5,4,0,40,,,,,,,,,,,,,,,,,,,,
,,,,,40,2020-07-03_16h18.51.359,retriever_ti,2020.1.3,MacIntel,60,Chrome,1360,768,,,,,,,,,,,,,,,,,2,,,,,,,,,,,,,,,,,,,,,,,,,,,812.423555,100,left,0.529535,sport_tshirt,4,7,-2,0,3,812.43941,812.43941,814.937825,0,22,22,22,1,100,4,6,sport_tshirt,holdfast    ,html/resources/sequences_IDs/B/07_sport_tshirt.jpg,html/resources/sequences_IDs/B/04_holdfast.jpg,7,4,3,2,2,1,6,3,0,40,,,,,,,,,,,,,,,,,,,,
,,,,,40,2020-07-03_16h18.51.359,retriever_ti,2020.1.3,MacIntel,60,Chrome,1360,768,,,,,,,,,,,,,,,,,2,,,,,,,,,,,,,,,,,,,,,,,,,,,815.539035,101,left,0.885445,scarf         ,3,6,1,1,1,815.55514,815.55514,818.054785,0,23,23,23,1,101,3,2,scarf         ,dolphin     ,html/resources/sequences_IDs/A/06_scarf.jpg,html/resources/sequences_IDs/B/02_dolphin.jpg,6,2,3,2,1,1,5,2,0,40,,,,,,,,,,,,,,,,,,,,
,,,,,40,2020-07-03_16h18.51.359,retriever_ti,2020.1.3,MacIntel,60,Chrome,1360,768,,,,,,,,,,,,,,,,,2,,,,,,,,,,,,,,,,,,,,,,,,,,,819.15476,102,right,0.5759,slipper     ,8,8,1,1,1,819.188585,819.188585,821.68642,0,24,24,24,1,102,7,8,satellite_dish,slipper     ,html/resources/sequences_IDs/A/10_satellite_dish.jpg,html/resources/sequences_IDs/B/08_slipper.jpg,10,8,4,2,3,2,8,7,0,40,,,,,,,,,,,,,,,,,,,,
,,,,,40,2020-07-03_16h18.51.359,retriever_ti,2020.1.3,MacIntel,60,Chrome,1360,768,,,,,,,,,,,,,,,,,2,,,,,,,,,,,,,,,,,,,,,,,,,,,822.78693,103,left,1.328535,wolf          ,1,1,-2,0,3,822.804075,822.804075,825.302045,0,25,25,25,1,103,1,3,wolf          ,scarf         ,html/resources/sequences_IDs/A/01_wolf.jpg,html/resources/sequences_IDs/A/06_scarf.jpg,1,6,1,1,3,2,1,5,0,40,,,,,,,,,,,,,,,,,,,,
,,,,,40,2020-07-03_16h18.51.359,retriever_ti,2020.1.3,MacIntel,60,Chrome,1360,768,,,,,,,,,,,,,,,,,2,,,,,,,,,,,,,,,,,,,,,,,,,,,825.903275,104,right,0.843105,satellite_dish,7,10,3,1,3,825.936205,825.936205,828.434665,0,26,26,26,1,104,4,7,sport_tshirt,satellite_dish,html/resources/sequences_IDs/B/07_sport_tshirt.jpg,html/resources/sequences_IDs/A/10_satellite_dish.jpg,7,10,3,2,4,2,6,8,0,40,,,,,,,,,,,,,,,,,,,,
,,,,,40,2020-07-03_16h18.51.359,retriever_ti,2020.1.3,MacIntel,60,Chrome,1360,768,,,,,,,,,,,,,,,,,2,,,,,,,,,,,,,,,,,,,,,,,,,,,829.035355,105,left,0.616325,peacock       ,5,5,-1,0,0,829.05298,829.05298,831.5501,0,27,27,27,1,105,5,6,peacock       ,holdfast    ,html/resources/sequences_IDs/A/05_peacock.jpg,html/resources/sequences_IDs/B/04_holdfast.jpg,5,4,2,1,2,1,4,3,0,40,,,,,,,,,,,,,,,,,,,,
,,,,,40,2020-07-03_16h18.51.359,retriever_ti,2020.1.3,MacIntel,60,Chrome,1360,768,,,,,,,,,,,,,,,,,2,,,,,,,,,,,,,,,,,,,,,,,,,,,832.651145,106,left,0.861325,holdfast    ,6,4,3,1,3,832.668305,832.668305,835.166205,0,28,28,28,1,106,6,3,holdfast    ,scarf         ,html/resources/sequences_IDs/B/04_holdfast.jpg,html/resources/sequences_IDs/A/06_scarf.jpg,4,6,2,1,3,2,3,5,0,40,,,,,,,,,,,,,,,,,,,,
,,,,,40,2020-07-03_16h18.51.359,retriever_ti,2020.1.3,MacIntel,60,Chrome,1360,768,,,,,,,,,,,,,,,,,2,,,,,,,,,,,,,,,,,,,,,,,,,,,835.784035,107,right,1.060125,dolphin     ,2,2,-3,0,3,835.800095,835.800095,838.29884,0,29,29,29,1,107,5,2,peacock       ,dolphin     ,html/resources/sequences_IDs/A/05_peacock.jpg,html/resources/sequences_IDs/B/02_dolphin.jpg,5,2,2,1,1,1,4,2,0,40,,,,,,,,,,,,,,,,,,,,
,,,,,40,2020-07-03_16h18.51.359,retriever_ti,2020.1.3,MacIntel,60,Chrome,1360,768,,,,,,,,,,,,,,,,,2,,,,,,,,,,,,,,,,,,,,,,,,,,,838.899265,108,left,0.52727,dolphin     ,2,2,-4,0,3,838.933165,838.933165,841.43187,0,30,30,30,1,108,2,6,dolphin     ,holdfast    ,html/resources/sequences_IDs/B/02_dolphin.jpg,html/resources/sequences_IDs/B/04_holdfast.jpg,2,4,1,1,2,1,2,3,0,40,,,,,,,,,,,,,,,,,,,,
,,,,,40,2020-07-03_16h18.51.359,retriever_ti,2020.1.3,MacIntel,60,Chrome,1360,768,,,,,,,,,,,,,,,,,2,,,,,,,,,,,,,,,,,,,,,,,,,,,842.03303,109,right,0.686645,peacock       ,5,5,1,1,1,842.06503,842.06503,844.56445,0,31,31,31,1,109,4,5,sport_tshirt,peacock       ,html/resources/sequences_IDs/B/07_sport_tshirt.jpg,html/resources/sequences_IDs/A/05_peacock.jpg,7,5,3,2,2,1,6,4,0,40,,,,,,,,,,,,,,,,,,,,
,,,,,40,2020-07-03_16h18.51.359,retriever_ti,2020.1.3,MacIntel,60,Chrome,1360,768,,,,,,,,,,,,,,,,,2,,,,,,,,,,,,,,,,,,,,,,,,,,,845.664915,110,right,0.820405,dolphin     ,2,2,-1,0,0,845.68158,845.68158,848.180145,0,32,32,32,1,110,3,2,scarf         ,dolphin     ,html/resources/sequences_IDs/A/06_scarf.jpg,html/resources/sequences_IDs/B/02_dolphin.jpg,6,2,3,2,1,1,5,2,0,40,,,,,,,,,,,,,,,,,,,,
,,,,,40,2020-07-03_16h18.51.359,retriever_ti,2020.1.3,MacIntel,60,Chrome,1360,768,,,,,,,,,,,,,,,,,2,,,,,,,,,,,,,,,,,,,,,,,,,,,849.279975,111,left,0.929755,slipper     ,8,8,6,1,3,849.3138,849.3138,851.81176,0,33,33,33,1,111,8,2,slipper     ,dolphin     ,html/resources/sequences_IDs/B/08_slipper.jpg,html/resources/sequences_IDs/B/02_dolphin.jpg,8,2,3,2,1,1,7,2,0,40,,,,,,,,,,,,,,,,,,,,
,,,,,40,2020-07-03_16h18.51.359,retriever_ti,2020.1.3,MacIntel,60,Chrome,1360,768,,,,,,,,,,,,,,,,,2,,,,,,,,,,,,,,,,,,,,,,,,,,,852.429705,112,right,0.814865,satellite_dish,7,10,1,1,1,852.462465,852.462465,854.960835,0,34,34,34,1,112,6,7,holdfast    ,satellite_dish,html/resources/sequences_IDs/B/04_holdfast.jpg,html/resources/sequences_IDs/A/10_satellite_dish.jpg,4,10,2,1,4,2,3,8,0,40,,,,,,,,,,,,,,,,,,,,
,,,,,40,2020-07-03_16h18.51.359,retriever_ti,2020.1.3,MacIntel,60,Chrome,1360,768,,,,,,,,,,,,,,,,,2,,,,,,,,,,,,,,,,,,,,,,,,,,,856.06137,113,right,0.863945,dolphin     ,2,2,-2,0,3,856.09444,856.09444,858.59295,0,35,35,35,1,113,4,2,sport_tshirt,dolphin     ,html/resources/sequences_IDs/B/07_sport_tshirt.jpg,html/resources/sequences_IDs/B/02_dolphin.jpg,7,2,3,2,1,1,6,2,0,40,,,,,,,,,,,,,,,,,,,,
,,,,,40,2020-07-03_16h18.51.359,retriever_ti,2020.1.3,MacIntel,60,Chrome,1360,768,,,,,,,,,,,,,,,,,2,,,,,,,,,,,,,,,,,,,,,,,,,,,859.193975,114,right,0.622945,dolphin     ,2,2,-4,0,3,859.21123,859.21123,861.70919,0,36,36,36,1,114,6,2,holdfast    ,dolphin     ,html/resources/sequences_IDs/B/04_holdfast.jpg,html/resources/sequences_IDs/B/02_dolphin.jpg,4,2,2,1,1,1,3,2,0,40,,,,,,,,,,,,,,,,,,,,
,,,,,40,2020-07-03_16h18.51.359,retriever_ti,2020.1.3,MacIntel,60,Chrome,1360,768,,,,,,,,,,,,,,,,,2,,,,,,,,,,,,,,,,,,,,,,,,,,,862.327135,115,left,0.56076,peacock       ,5,5,1,1,0,862.343055,862.343055,864.842375,0,37,37,37,1,115,5,4,peacock       ,sport_tshirt,html/resources/sequences_IDs/A/05_peacock.jpg,html/resources/sequences_IDs/B/07_sport_tshirt.jpg,5,7,2,1,3,2,4,6,1,40,,,,,,,,,,,,,,,,,,,,
,,,,,40,2020-07-03_16h18.51.359,retriever_ti,2020.1.3,MacIntel,60,Chrome,1360,768,,,,,,,,,,,,,,,,,2,,,,,,,,,,,,,,,,,,,,,,,,,,,865.94258,116,left,1.085825,dolphin     ,2,2,-2,0,3,865.975425,865.975425,868.47469,0,38,38,38,1,116,2,4,dolphin     ,sport_tshirt,html/resources/sequences_IDs/B/02_dolphin.jpg,html/resources/sequences_IDs/B/07_sport_tshirt.jpg,2,7,1,1,3,2,2,6,0,40,,,,,,,,,,,,,,,,,,,,
,,,,,40,2020-07-03_16h18.51.359,retriever_ti,2020.1.3,MacIntel,60,Chrome,1360,768,,,,,,,,,,,,,,,,,2,,,,,,,,,,,,,,,,,,,,,,,,,,,869.092665,117,right,0.967345,sport_tshirt,4,7,-2,0,3,869.108185,869.108185,871.60649,0,39,39,39,1,117,6,4,holdfast    ,sport_tshirt,html/resources/sequences_IDs/B/04_holdfast.jpg,html/resources/sequences_IDs/B/07_sport_tshirt.jpg,4,7,2,1,3,2,3,6,0,40,,,,,,,,,,,,,,,,,,,,
,,,,,40,2020-07-03_16h18.51.359,retriever_ti,2020.1.3,MacIntel,60,Chrome,1360,768,,,,,,,,,,,,,,,,,2,,,,,,,,,,,,,,,,,,,,,,,,,,,872.20758,118,left,0.60623,slipper     ,8,8,1,1,1,872.240685,872.240685,874.738605,0,40,40,40,1,118,8,7,slipper     ,satellite_dish,html/resources/sequences_IDs/B/08_slipper.jpg,html/resources/sequences_IDs/A/10_satellite_dish.jpg,8,10,3,2,4,2,7,8,0,40,,,,,,,,,,,,,,,,,,,,
,,,,,40,2020-07-03_16h18.51.359,retriever_ti,2020.1.3,MacIntel,60,Chrome,1360,768,,,,,,,,,,,,,,,,,2,,,,,,,,,,,,,,,,,,,,,,,,,,,875.840275,119,left,0.636305,slipper     ,8,8,2,1,3,875.87356,875.87356,878.37194,0,41,41,41,1,119,8,6,slipper     ,holdfast    ,html/resources/sequences_IDs/B/08_slipper.jpg,html/resources/sequences_IDs/B/04_holdfast.jpg,8,4,3,2,2,1,7,3,0,40,,,,,,,,,,,,,,,,,,,,
,,,,,40,2020-07-03_16h18.51.359,retriever_ti,2020.1.3,MacIntel,60,Chrome,1360,768,,,,,,,,,,,,,,,,,2,,,,,,,,,,,,,,,,,,,,,,,,,,,878.98844,120,left,0.49891,dolphin     ,2,2,-1,0,0,879.02246,879.02246,881.52102,0,42,42,42,1,120,2,3,dolphin     ,scarf         ,html/resources/sequences_IDs/B/02_dolphin.jpg,html/resources/sequences_IDs/A/06_scarf.jpg,2,6,1,1,3,2,2,5,0,40,,,,,,,,,,,,,,,,,,,,
,,,,,40,2020-07-03_16h18.51.359,retriever_ti,2020.1.3,MacIntel,60,Chrome,1360,768,,,,,,,,,,,,,,,,,2,,,,,,,,,,,,,,,,,,,,,,,,,,,882.62161,121,left,0.495385,slipper     ,8,8,3,1,3,882.65514,882.65514,885.153395,0,43,43,43,1,121,8,5,slipper     ,peacock       ,html/resources/sequences_IDs/B/08_slipper.jpg,html/resources/sequences_IDs/A/05_peacock.jpg,8,5,3,2,2,1,7,4,0,40,,,,,,,,,,,,,,,,,,,,
,,,,,40,2020-07-03_16h18.51.359,retriever_ti,2020.1.3,MacIntel,60,Chrome,1360,768,,,,,,,,,,,,,,,,,2,,,,,,,,,,,,,,,,,,,,,,,,,,,885.754295,122,right,0.661335,scarf         ,3,6,-1,0,0,885.77098,885.77098,888.26844,0,44,44,44,1,122,4,3,sport_tshirt,scarf         ,html/resources/sequences_IDs/B/07_sport_tshirt.jpg,html/resources/sequences_IDs/A/06_scarf.jpg,7,6,3,2,3,2,6,5,0,40,,,,,,,,,,,,,,,,,,,,
,,,,,40,2020-07-03_16h18.51.359,retriever_ti,2020.1.3,MacIntel,60,Chrome,1360,768,,,,,,,,,,,,,,,,,2,,,,,,,,,,,,,,,,,,,,,,,,,,,889.36954,123,right,0.554965,slipper     ,8,8,3,1,3,889.38662,889.38662,891.884275,0,45,45,45,1,123,5,8,peacock       ,slipper     ,html/resources/sequences_IDs/A/05_peacock.jpg,html/resources/sequences_IDs/B/08_slipper.jpg,5,8,2,1,3,2,4,7,0,40,,,,,,,,,,,,,,,,,,,,
,,,,,40,2020-07-03_16h18.51.359,retriever_ti,2020.1.3,MacIntel,60,Chrome,1360,768,,,,,,,,,,,,,,,,,2,,,,,,,,,,,,,,,,,,,,,,,,,,,892.485745,124,left,0.49361,dolphin     ,2,2,-6,0,3,892.519245,892.519245,895.016645,0,46,46,46,1,124,2,8,dolphin     ,slipper     ,html/resources/sequences_IDs/B/02_dolphin.jpg,html/resources/sequences_IDs/B/08_slipper.jpg,2,8,1,1,3,2,2,7,0,40,,,,,,,,,,,,,,,,,,,,
,,,,,40,2020-07-03_16h18.51.359,retriever_ti,2020.1.3,MacIntel,60,Chrome,1360,768,,,,,,,,,,,,,,,,,2,,,,,,,,,,,,,,,,,,,,,,,,,,,895.618315,125,left,0.494015,peacock       ,5,5,-2,0,3,895.63505,895.63505,898.13336,0,47,47,47,1,125,5,7,peacock       ,satellite_dish,html/resources/sequences_IDs/A/05_peacock.jpg,html/resources/sequences_IDs/A/10_satellite_dish.jpg,5,10,2,1,4,2,4,8,0,40,,,,,,,,,,,,,,,,,,,,
,,,,,40,2020-07-03_16h18.51.359,retriever_ti,2020.1.3,MacIntel,60,Chrome,1360,768,,,,,,,,,,,,,,,,,2,,,,,,,,,,,,,,,,,,,,,,,,,,,898.75037,126,left,0.51949,holdfast    ,6,4,-2,0,3,898.78397,898.78397,901.28247,0,48,48,48,1,126,6,8,holdfast    ,slipper     ,html/resources/sequences_IDs/B/04_holdfast.jpg,html/resources/sequences_IDs/B/08_slipper.jpg,4,8,2,1,3,2,3,7,0,40,,,,,,,,,,,,,,,,,,,,
,,,,,40,2020-07-03_16h18.51.359,retriever_ti,2020.1.3,MacIntel,60,Chrome,1360,768,,,,,,,,,,,,,,,,,2,,,,,,,,,,,,,,,,,,,,,,,,,,,901.898985,127,left,0.47831,dolphin     ,2,2,-3,0,3,901.93282,901.93282,904.431895,0,49,49,49,1,127,2,5,dolphin     ,peacock       ,html/resources/sequences_IDs/B/02_dolphin.jpg,html/resources/sequences_IDs/A/05_peacock.jpg,2,5,1,1,2,1,2,4,0,40,,,,,,,,,,,,,,,,,,,,
,,,,,40,2020-07-03_16h18.51.359,retriever_ti,2020.1.3,MacIntel,60,Chrome,1360,768,,,,,,,,,,,,,,,,,2,,,,,,,,,,,,,,,,,,,,,,,,,,,905.047585,128,left,0.53035,peacock       ,5,5,1,1,1,905.082575,905.082575,907.5801,0,50,50,50,1,128,5,4,peacock       ,sport_tshirt,html/resources/sequences_IDs/A/05_peacock.jpg,html/resources/sequences_IDs/B/07_sport_tshirt.jpg,5,7,2,1,3,2,4,6,0,40,,,,,,,,,,,,,,,,,,,,
,,,,,40,2020-07-03_16h18.51.359,retriever_ti,2020.1.3,MacIntel,60,Chrome,1360,768,,,,,,,,,,,,,,,,,2,,,,,,,,,,,,,,,,,,,,,,,,,,,908.68152,129,right,0.59587,slipper     ,8,8,7,1,3,908.697405,908.697405,911.195945,0,51,51,51,1,129,1,8,wolf          ,slipper     ,html/resources/sequences_IDs/A/01_wolf.jpg,html/resources/sequences_IDs/B/08_slipper.jpg,1,8,1,1,3,2,1,7,0,40,,,,,,,,,,,,,,,,,,,,
,,,,,40,2020-07-03_16h18.51.359,retriever_ti,2020.1.3,MacIntel,60,Chrome,1360,768,,,,,,,,,,,,,,,,,2,,,,,,,,,,,,,,,,,,,,,,,,,,,911.814185,130,right,0.564595,satellite_dish,7,10,6,1,3,911.84746,911.84746,914.345835,0,52,52,52,1,130,1,7,wolf          ,satellite_dish,html/resources/sequences_IDs/A/01_wolf.jpg,html/resources/sequences_IDs/A/10_satellite_dish.jpg,1,10,1,1,4,2,1,8,0,40,,,,,,,,,,,,,,,,,,,,
,,,,,40,2020-07-03_16h18.51.359,retriever_ti,2020.1.3,MacIntel,60,Chrome,1360,768,,,,,,,,,,,,,,,,,2,,,,,,,,,,,,,,,,,,,,,,,,,,,914.96257,131,right,0.529545,scarf         ,3,6,1,1,0,914.97989,914.97989,917.47787,0,53,53,53,1,131,2,3,dolphin     ,scarf         ,html/resources/sequences_IDs/B/02_dolphin.jpg,html/resources/sequences_IDs/A/06_scarf.jpg,2,6,1,1,3,2,2,5,1,40,,,,,,,,,,,,,,,,,,,,
,,,,,40,2020-07-03_16h18.51.359,retriever_ti,2020.1.3,MacIntel,60,Chrome,1360,768,,,,,,,,,,,,,,,,,2,,,,,,,,,,,,,,,,,,,,,,,,,,,918.57874,132,left,0.491655,dolphin     ,2,2,-1,0,0,918.59459,918.59459,921.09306,0,54,54,54,1,132,2,3,dolphin     ,scarf         ,html/resources/sequences_IDs/B/02_dolphin.jpg,html/resources/sequences_IDs/A/06_scarf.jpg,2,6,1,1,3,2,2,5,0,40,,,,,,,,,,,,,,,,,,,,
,,,,,40,2020-07-03_16h18.51.359,retriever_ti,2020.1.3,MacIntel,60,Chrome,1360,768,,,,,,,,,,,,,,,,,2,,,,,,,,,,,,,,,,,,,,,,,,,,,922.194345,133,right,0.40647,sport_tshirt,4,7,3,1,3,922.22732,922.22732,924.726545,0,55,55,55,1,133,1,4,wolf          ,sport_tshirt,html/resources/sequences_IDs/A/01_wolf.jpg,html/resources/sequences_IDs/B/07_sport_tshirt.jpg,1,7,1,1,3,2,1,6,0,40,,,,,,,,,,,,,,,,,,,,
,,,,,40,2020-07-03_16h18.51.359,retriever_ti,2020.1.3,MacIntel,60,Chrome,1360,768,,,,,,,,,,,,,,,,,2,,,,,,,,,,,,,,,,,,,,,,,,,,,925.343305,134,left,0.09468,dolphin     ,2,2,1,1,1,925.360465,925.360465,927.858435,0,56,56,56,1,134,2,1,dolphin     ,wolf          ,html/resources/sequences_IDs/B/02_dolphin.jpg,html/resources/sequences_IDs/A/01_wolf.jpg,2,1,1,1,1,1,2,1,0,40,,,,,,,,,,,,,,,,,,,,
,,,,,40,2020-07-03_16h18.51.359,retriever_ti,2020.1.3,MacIntel,60,Chrome,1360,768,,,,,,,,,,,,,,,,,2,,,,,,,,,,,,,,,,,,,,,,,,,,,928.959255,135,left,0.393565,holdfast    ,6,4,1,1,1,928.97633,928.97633,931.473875,0,57,57,57,1,135,6,5,holdfast    ,peacock       ,html/resources/sequences_IDs/B/04_holdfast.jpg,html/resources/sequences_IDs/A/05_peacock.jpg,4,5,2,1,2,1,3,4,0,40,,,,,,,,,,,,,,,,,,,,
,,,,,40,2020-07-03_16h18.51.359,retriever_ti,2020.1.3,MacIntel,60,Chrome,1360,768,,,,,,,,,,,,,,,,,2,,,,,,,,,,,,,,,,,,,,,,,,,,,932.57483,136,left,0.00085,sport_tshirt,4,7,-4,0,3,932.608,932.608,935.106755,0,58,58,58,1,136,4,8,sport_tshirt,slipper     ,html/resources/sequences_IDs/B/07_sport_tshirt.jpg,html/resources/sequences_IDs/B/08_slipper.jpg,7,8,3,2,3,2,6,7,0,40,,,,,,,,,,,,,,,,,,,,
,,,,,40,2020-07-03_16h18.51.359,retriever_ti,2020.1.3,MacIntel,60,Chrome,1360,768,,,,,,,,,,,,,,,,,2,,,,,,,,,,,,,,,,,,,,,,,,,,,935.7077,137,left,0.264085,peacock       ,5,5,1,1,1,935.7244,935.7244,938.222915,0,59,59,59,1,137,5,4,peacock       ,sport_tshirt,html/resources/sequences_IDs/A/05_peacock.jpg,html/resources/sequences_IDs/B/07_sport_tshirt.jpg,5,7,2,1,3,2,4,6,0,40,,,,,,,,,,,,,,,,,,,,
,,,,,40,2020-07-03_16h18.51.359,retriever_ti,2020.1.3,MacIntel,60,Chrome,1360,768,,,,,,,,,,,,,,,,,2,,,,,,,,,,,,,,,,,,,,,,,,,,,939.323565,138,left,0.09545,holdfast    ,6,4,-1,0,1,939.33966,939.33966,941.83799,0,60,60,60,1,138,6,7,holdfast    ,satellite_dish,html/resources/sequences_IDs/B/04_holdfast.jpg,html/resources/sequences_IDs/A/10_satellite_dish.jpg,4,10,2,1,4,2,3,8,1,40,,,,,,,,,,,,,,,,,,,,
,,,,,40,2020-07-03_16h18.51.359,retriever_ti,2020.1.3,MacIntel,60,Chrome,1360,768,,,,,,,,,,,,,,,,,2,,,,,,,,,,,,,,,,,,,,,,,,,,,942.939055,139,left,0.0746,slipper     ,8,8,1,1,1,942.97225,942.97225,945.47057,0,61,61,61,1,139,8,7,slipper     ,satellite_dish,html/resources/sequences_IDs/B/08_slipper.jpg,html/resources/sequences_IDs/A/10_satellite_dish.jpg,8,10,3,2,4,2,7,8,0,40,,,,,,,,,,,,,,,,,,,,
,,,,,40,2020-07-03_16h18.51.359,retriever_ti,2020.1.3,MacIntel,60,Chrome,1360,768,,,,,,,,,,,,,,,,,2,,,,,,,,,,,,,,,,,,,,,,,,,,,946.571475,140,left,0.000825,scarf         ,3,6,-1,0,1,946.58755,946.58755,949.08671,0,62,62,62,1,140,3,4,scarf         ,sport_tshirt,html/resources/sequences_IDs/A/06_scarf.jpg,html/resources/sequences_IDs/B/07_sport_tshirt.jpg,6,7,3,2,3,2,5,6,1,40,,,,,,,,,,,,,,,,,,,,
,,,,,40,2020-07-03_16h18.51.359,retriever_ti,2020.1.3,MacIntel,60,Chrome,1360,768,,,,,,,,,,,,,,,,,2,,,,,,,,,,,,,,,,,,,,,,,,,,,950.187135,141,left,0.079775,sport_tshirt,4,7,-1,0,0,950.20376,950.20376,952.702225,0,63,63,63,1,141,4,5,sport_tshirt,peacock       ,html/resources/sequences_IDs/B/07_sport_tshirt.jpg,html/resources/sequences_IDs/A/05_peacock.jpg,7,5,3,2,2,1,6,4,0,40,,,,,,,,,,,,,,,,,,,,
,,,,,40,2020-07-03_16h18.51.359,retriever_ti,2020.1.3,MacIntel,60,Chrome,1360,768,,,,,,,,,,,,,,,,,2,,,,,,,,,,,,,,,,,,,,,,,,,,,953.80277,142,left,0.40035,scarf         ,3,6,-5,0,3,953.835785,953.835785,956.3346,0,64,64,64,1,142,3,8,scarf         ,slipper     ,html/resources/sequences_IDs/A/06_scarf.jpg,html/resources/sequences_IDs/B/08_slipper.jpg,6,8,3,2,3,2,5,7,0,40,,,,,,,,,,,,,,,,,,,,
,,,,,40,2020-07-03_16h18.51.359,retriever_ti,2020.1.3,MacIntel,60,Chrome,1360,768,,,,,,,,,,,,,,,,,2,,,,,,,,,,,,,,,,,,,,,,,,,,,956.951385,143,left,0.290785,wolf          ,1,1,-1,0,1,956.98456,956.98456,959.482865,0,65,65,65,1,143,1,2,wolf          ,dolphin     ,html/resources/sequences_IDs/A/01_wolf.jpg,html/resources/sequences_IDs/B/02_dolphin.jpg,1,2,1,1,1,1,1,2,1,40,,,,,,,,,,,,,,,,,,,,
,,,,,40,2020-07-03_16h18.51.359,retriever_ti,2020.1.3,MacIntel,60,Chrome,1360,768,,,,,,,,,,,,,,,,,2,,,,,,,,,,,,,,,,,,,,,,,,,,,960.584415,144,left,0.39641,scarf         ,3,6,-1,0,0,960.617315,960.617315,963.116335,0,66,66,66,1,144,3,4,scarf         ,sport_tshirt,html/resources/sequences_IDs/A/06_scarf.jpg,html/resources/sequences_IDs/B/07_sport_tshirt.jpg,6,7,3,2,3,2,5,6,0,40,,,,,,,,,,,,,,,,,,,,
,,,,,40,2020-07-03_16h18.51.359,retriever_ti,2020.1.3,MacIntel,60,Chrome,1360,768,,,,,,,,,,,,,,,,,2,,,,,,,,,,,,,,,,,,,,,,,,,,,964.21642,145,left,0.333,wolf          ,1,1,-1,0,0,964.25012,964.25012,966.74783,0,67,67,67,1,145,1,2,wolf          ,dolphin     ,html/resources/sequences_IDs/A/01_wolf.jpg,html/resources/sequences_IDs/B/02_dolphin.jpg,1,2,1,1,1,1,1,2,0,40,,,,,,,,,,,,,,,,,,,,
,,,,,40,2020-07-03_16h18.51.359,retriever_ti,2020.1.3,MacIntel,60,Chrome,1360,768,,,,,,,,,,,,,,,,,2,,,,,,,,,,,,,,,,,,,,,,,,,,,967.84908,146,left,0.293905,satellite_dish,7,10,6,1,3,967.865935,967.865935,970.364345,0,68,68,68,1,146,7,1,satellite_dish,wolf          ,html/resources/sequences_IDs/A/10_satellite_dish.jpg,html/resources/sequences_IDs/A/01_wolf.jpg,10,1,4,2,1,1,8,1,0,40,,,,,,,,,,,,,,,,,,,,
,,,,,40,2020-07-03_16h18.51.359,retriever_ti,2020.1.3,MacIntel,60,Chrome,1360,768,,,,,,,,,,,,,,,,,2,,,,,,,,,,,,,,,,,,,,,,,,,,,970.981175,147,left,0.30951,sport_tshirt,4,7,3,1,3,971.01501,971.01501,973.51357,0,69,69,69,1,147,4,1,sport_tshirt,wolf          ,html/resources/sequences_IDs/B/07_sport_tshirt.jpg,html/resources/sequences_IDs/A/01_wolf.jpg,7,1,3,2,1,1,6,1,0,40,,,,,,,,,,,,,,,,,,,,
,,,,,40,2020-07-03_16h18.51.359,retriever_ti,2020.1.3,MacIntel,60,Chrome,1360,768,,,,,,,,,,,,,,,,,2,,,,,,,,,,,,,,,,,,,,,,,,,,,974.13069,148,left,0.295695,satellite_dish,7,10,-1,0,0,974.164215,974.164215,976.662675,0,70,70,70,1,148,7,8,satellite_dish,slipper     ,html/resources/sequences_IDs/A/10_satellite_dish.jpg,html/resources/sequences_IDs/B/08_slipper.jpg,10,8,4,2,3,2,8,7,0,40,,,,,,,,,,,,,,,,,,,,
,,,,,40,2020-07-03_16h18.51.359,retriever_ti,2020.1.3,MacIntel,60,Chrome,1360,768,,,,,,,,,,,,,,,,,2,,,,,,,,,,,,,,,,,,,,,,,,,,,977.76211,149,right,0.146135,peacock       ,5,5,-1,0,0,977.77884,977.77884,980.278345,0,71,71,71,1,149,6,5,holdfast    ,peacock       ,html/resources/sequences_IDs/B/04_holdfast.jpg,html/resources/sequences_IDs/A/05_peacock.jpg,4,5,2,1,2,1,3,4,0,40,,,,,,,,,,,,,,,,,,,,
,,,,,40,2020-07-03_16h18.51.359,retriever_ti,2020.1.3,MacIntel,60,Chrome,1360,768,,,,,,,,,,,,,,,,,2,,,,,,,,,,,,,,,,,,,,,,,,,,,981.377945,150,right,0.210735,scarf         ,3,6,-1,0,0,981.412225,981.412225,983.90968,0,72,72,72,1,150,4,3,sport_tshirt,scarf         ,html/resources/sequences_IDs/B/07_sport_tshirt.jpg,html/resources/sequences_IDs/A/06_scarf.jpg,7,6,3,2,3,2,6,5,0,40,,,,,,,,,,,,,,,,,,,,
,,,,,40,2020-07-03_16h18.51.359,retriever_ti,2020.1.3,MacIntel,60,Chrome,1360,768,,,,,,,,,,,,,,,,,2,,,,,,,,,,,,,,,,,,,,,,,,,,,985.01126,151,right,0.34524,dolphin     ,2,2,-5,0,3,985.02791,985.02791,987.52684,0,73,73,73,1,151,7,2,satellite_dish,dolphin     ,html/resources/sequences_IDs/A/10_satellite_dish.jpg,html/resources/sequences_IDs/B/02_dolphin.jpg,10,2,4,2,1,1,8,2,0,40,,,,,,,,,,,,,,,,,,,,
,,,,,40,2020-07-03_16h18.51.359,retriever_ti,2020.1.3,MacIntel,60,Chrome,1360,768,,,,,,,,,,,,,,,,,2,,,,,,,,,,,,,,,,,,,,,,,,,,,988.143175,152,right,0.205055,peacock       ,5,5,4,1,3,988.17624,988.17624,990.67469,0,74,74,74,1,152,1,5,wolf          ,peacock       ,html/resources/sequences_IDs/A/01_wolf.jpg,html/resources/sequences_IDs/A/05_peacock.jpg,1,5,1,1,2,1,1,4,0,40,,,,,,,,,,,,,,,,,,,,
,,,,,40,2020-07-03_16h18.51.359,retriever_ti,2020.1.3,MacIntel,60,Chrome,1360,768,,,,,,,,,,,,,,,,,2,,,,,,,,,,,,,,,,,,,,,,,,,,,991.275835,153,right,0.288375,satellite_dish,7,10,4,1,3,991.293005,991.293005,993.791305,0,75,75,75,1,153,3,7,scarf         ,satellite_dish,html/resources/sequences_IDs/A/06_scarf.jpg,html/resources/sequences_IDs/A/10_satellite_dish.jpg,6,10,3,2,4,2,5,8,0,40,,,,,,,,,,,,,,,,,,,,
,,,,,40,2020-07-03_16h18.51.359,retriever_ti,2020.1.3,MacIntel,60,Chrome,1360,768,,,,,,,,,,,,,,,,,2,,,,,,,,,,,,,,,,,,,,,,,,,,,994.408485,154,right,0.264475,sport_tshirt,4,7,1,1,1,994.4256,994.4256,996.923075,0,76,76,76,1,154,3,4,scarf         ,sport_tshirt,html/resources/sequences_IDs/A/06_scarf.jpg,html/resources/sequences_IDs/B/07_sport_tshirt.jpg,6,7,3,2,3,2,5,6,0,40,,,,,,,,,,,,,,,,,,,,
,,,,,40,2020-07-03_16h18.51.359,retriever_ti,2020.1.3,MacIntel,60,Chrome,1360,768,,,,,,,,,,,,,,,,,,,,,,,,,,,,,,,,,,,,,0,1.37846,,,,,,,,,,,,,,,,,,,,,,,,,,,,,,,,,,,,,,,,,1,0,1,0,1,,,,,,,,,,,,,,,
,,,,,40,2020-07-03_16h18.51.359,retriever_ti,2020.1.3,MacIntel,60,Chrome,1360,768,,,,,,,,,,,,,,,,,3,,,,,,,,,,,,,,,,,,,,,,,,,,,1007.682185,155,right,0.41719,peacock       ,5,5,-2,0,3,1007.70531,1007.70531,1010.20285,0,0,0,0,1,155,7,5,satellite_dish,peacock       ,html/resources/sequences_IDs/A/10_satellite_dish.jpg,html/resources/sequences_IDs/A/05_peacock.jpg,10,5,4,2,2,1,8,4,0,40,,,,,,,,,,,,,,,,,,,,
,,,,,40,2020-07-03_16h18.51.359,retriever_ti,2020.1.3,MacIntel,60,Chrome,1360,768,,,,,,,,,,,,,,,,,3,,,,,,,,,,,,,,,,,,,,,,,,,,,1010.80344,156,left,0.258945,sport_tshirt,4,7,-3,0,3,1010.820655,1010.820655,1013.319645,0,1,1,1,1,156,4,7,sport_tshirt,satellite_dish,html/resources/sequences_IDs/B/07_sport_tshirt.jpg,html/resources/sequences_IDs/A/10_satellite_dish.jpg,7,10,3,2,4,2,6,8,0,40,,,,,,,,,,,,,,,,,,,,
,,,,,40,2020-07-03_16h18.51.359,retriever_ti,2020.1.3,MacIntel,60,Chrome,1360,768,,,,,,,,,,,,,,,,,3,,,,,,,,,,,,,,,,,,,,,,,,,,,1013.936785,157,right,0.29737,sport_tshirt,4,7,-3,0,3,1013.97029,1013.97029,1016.46807,0,2,2,2,1,157,7,4,satellite_dish,sport_tshirt,html/resources/sequences_IDs/A/10_satellite_dish.jpg,html/resources/sequences_IDs/B/07_sport_tshirt.jpg,10,7,4,2,3,2,8,6,0,40,,,,,,,,,,,,,,,,,,,,
,,,,,40,2020-07-03_16h18.51.359,retriever_ti,2020.1.3,MacIntel,60,Chrome,1360,768,,,,,,,,,,,,,,,,,3,,,,,,,,,,,,,,,,,,,,,,,,,,,1017.068665,158,left,0.260545,wolf          ,1,1,-2,0,3,1017.085385,1017.085385,1019.58417,0,3,3,3,1,158,1,3,wolf          ,scarf         ,html/resources/sequences_IDs/A/01_wolf.jpg,html/resources/sequences_IDs/A/06_scarf.jpg,1,6,1,1,3,2,1,5,0,40,,,,,,,,,,,,,,,,,,,,
,,,,,40,2020-07-03_16h18.51.359,retriever_ti,2020.1.3,MacIntel,60,Chrome,1360,768,,,,,,,,,,,,,,,,,3,,,,,,,,,,,,,,,,,,,,,,,,,,,1020.201715,159,right,0.00084,holdfast    ,6,4,2,1,3,1020.217675,1020.217675,1022.716075,0,4,4,4,1,159,4,6,sport_tshirt,holdfast    ,html/resources/sequences_IDs/B/07_sport_tshirt.jpg,html/resources/sequences_IDs/B/04_holdfast.jpg,7,4,3,2,2,1,6,3,0,40,,,,,,,,,,,,,,,,,,,,
,,,,,40,2020-07-03_16h18.51.359,retriever_ti,2020.1.3,MacIntel,60,Chrome,1360,768,,,,,,,,,,,,,,,,,3,,,,,,,,,,,,,,,,,,,,,,,,,,,1023.317335,160,left,0.12607,holdfast    ,6,4,4,1,3,1023.350665,1023.350665,1025.848735,0,5,5,5,1,160,6,2,holdfast    ,dolphin     ,html/resources/sequences_IDs/B/04_holdfast.jpg,html/resources/sequences_IDs/B/02_dolphin.jpg,4,2,2,1,1,1,3,2,0,40,,,,,,,,,,,,,,,,,,,,
,,,,,40,2020-07-03_16h18.51.359,retriever_ti,2020.1.3,MacIntel,60,Chrome,1360,768,,,,,,,,,,,,,,,,,3,,,,,,,,,,,,,,,,,,,,,,,,,,,1026.450335,161,right,0.155355,dolphin     ,2,2,-1,0,0,1026.48314,1026.48314,1028.98202,0,6,6,6,1,161,3,2,scarf         ,dolphin     ,html/resources/sequences_IDs/A/06_scarf.jpg,html/resources/sequences_IDs/B/02_dolphin.jpg,6,2,3,2,1,1,5,2,0,40,,,,,,,,,,,,,,,,,,,,
,,,,,40,2020-07-03_16h18.51.359,retriever_ti,2020.1.3,MacIntel,60,Chrome,1360,768,,,,,,,,,,,,,,,,,3,,,,,,,,,,,,,,,,,,,,,,,,,,,1030.08256,162,right,0.46458,satellite_dish,7,10,-1,0,1,1030.09938,1030.09938,1032.59708,0,7,7,7,1,162,8,7,slipper     ,satellite_dish,html/resources/sequences_IDs/B/08_slipper.jpg,html/resources/sequences_IDs/A/10_satellite_dish.jpg,8,10,3,2,4,2,7,8,1,40,,,,,,,,,,,,,,,,,,,,
,,,,,40,2020-07-03_16h18.51.359,retriever_ti,2020.1.3,MacIntel,60,Chrome,1360,768,,,,,,,,,,,,,,,,,3,,,,,,,,,,,,,,,,,,,,,,,,,,,1033.697655,163,right,0.297365,sport_tshirt,4,7,1,1,1,1033.715015,1033.715015,1036.213615,0,8,8,8,1,163,3,4,scarf         ,sport_tshirt,html/resources/sequences_IDs/A/06_scarf.jpg,html/resources/sequences_IDs/B/07_sport_tshirt.jpg,6,7,3,2,3,2,5,6,0,40,,,,,,,,,,,,,,,,,,,,
,,,,,40,2020-07-03_16h18.51.359,retriever_ti,2020.1.3,MacIntel,60,Chrome,1360,768,,,,,,,,,,,,,,,,,3,,,,,,,,,,,,,,,,,,,,,,,,,,,1037.313495,164,right,0.35334,dolphin     ,2,2,1,1,0,1037.3478,1037.3478,1039.845405,0,9,9,9,1,164,1,2,wolf          ,dolphin     ,html/resources/sequences_IDs/A/01_wolf.jpg,html/resources/sequences_IDs/B/02_dolphin.jpg,1,2,1,1,1,1,1,2,1,40,,,,,,,,,,,,,,,,,,,,
,,,,,40,2020-07-03_16h18.51.359,retriever_ti,2020.1.3,MacIntel,60,Chrome,1360,768,,,,,,,,,,,,,,,,,3,,,,,,,,,,,,,,,,,,,,,,,,,,,1040.946475,165,left,0.378905,peacock       ,5,5,1,1,0,1040.979295,1040.979295,1043.478335,0,10,10,10,1,165,5,4,peacock       ,sport_tshirt,html/resources/sequences_IDs/A/05_peacock.jpg,html/resources/sequences_IDs/B/07_sport_tshirt.jpg,5,7,2,1,3,2,4,6,1,40,,,,,,,,,,,,,,,,,,,,
,,,,,40,2020-07-03_16h18.51.359,retriever_ti,2020.1.3,MacIntel,60,Chrome,1360,768,,,,,,,,,,,,,,,,,3,,,,,,,,,,,,,,,,,,,,,,,,,,,1044.578785,166,left,0.268495,scarf         ,3,6,1,1,1,1044.61114,1044.61114,1047.110845,0,11,11,11,1,166,3,2,scarf         ,dolphin     ,html/resources/sequences_IDs/A/06_scarf.jpg,html/resources/sequences_IDs/B/02_dolphin.jpg,6,2,3,2,1,1,5,2,0,40,,,,,,,,,,,,,,,,,,,,
,,,,,40,2020-07-03_16h18.51.359,retriever_ti,2020.1.3,MacIntel,60,Chrome,1360,768,,,,,,,,,,,,,,,,,3,,,,,,,,,,,,,,,,,,,,,,,,,,,1048.21114,167,right,0.450425,satellite_dish,7,10,-1,0,0,1048.243645,1048.243645,1050.74293,0,12,12,12,1,167,8,7,slipper     ,satellite_dish,html/resources/sequences_IDs/B/08_slipper.jpg,html/resources/sequences_IDs/A/10_satellite_dish.jpg,8,10,3,2,4,2,7,8,0,40,,,,,,,,,,,,,,,,,,,,
,,,,,40,2020-07-03_16h18.51.359,retriever_ti,2020.1.3,MacIntel,60,Chrome,1360,768,,,,,,,,,,,,,,,,,3,,,,,,,,,,,,,,,,,,,,,,,,,,,1051.84265,168,left,0.154345,scarf         ,3,6,-5,0,3,1051.85957,1051.85957,1054.358515,0,13,13,13,1,168,3,8,scarf         ,slipper     ,html/resources/sequences_IDs/A/06_scarf.jpg,html/resources/sequences_IDs/B/08_slipper.jpg,6,8,3,2,3,2,5,7,0,40,,,,,,,,,,,,,,,,,,,,
,,,,,40,2020-07-03_16h18.51.359,retriever_ti,2020.1.3,MacIntel,60,Chrome,1360,768,,,,,,,,,,,,,,,,,3,,,,,,,,,,,,,,,,,,,,,,,,,,,1054.95952,169,left,0.285885,scarf         ,3,6,-3,0,3,1054.97553,1054.97553,1057.4745,0,14,14,14,1,169,3,6,scarf         ,holdfast    ,html/resources/sequences_IDs/A/06_scarf.jpg,html/resources/sequences_IDs/B/04_holdfast.jpg,6,4,3,2,2,1,5,3,0,40,,,,,,,,,,,,,,,,,,,,
,,,,,40,2020-07-03_16h18.51.359,retriever_ti,2020.1.3,MacIntel,60,Chrome,1360,768,,,,,,,,,,,,,,,,,3,,,,,,,,,,,,,,,,,,,,,,,,,,,1058.09163,170,right,0.41758,holdfast    ,6,4,-2,0,3,1058.10846,1058.10846,1060.607155,0,15,15,15,1,170,8,6,slipper     ,holdfast    ,html/resources/sequences_IDs/B/08_slipper.jpg,html/resources/sequences_IDs/B/04_holdfast.jpg,8,4,3,2,2,1,7,3,0,40,,,,,,,,,,,,,,,,,,,,
,,,,,40,2020-07-03_16h18.51.359,retriever_ti,2020.1.3,MacIntel,60,Chrome,1360,768,,,,,,,,,,,,,,,,,3,,,,,,,,,,,,,,,,,,,,,,,,,,,1061.222785,171,left,0.451585,holdfast    ,6,4,-1,0,1,1061.24111,1061.24111,1063.73903,0,16,16,16,1,171,6,7,holdfast    ,satellite_dish,html/resources/sequences_IDs/B/04_holdfast.jpg,html/resources/sequences_IDs/A/10_satellite_dish.jpg,4,10,2,1,4,2,3,8,1,40,,,,,,,,,,,,,,,,,,,,
,,,,,40,2020-07-03_16h18.51.359,retriever_ti,2020.1.3,MacIntel,60,Chrome,1360,768,,,,,,,,,,,,,,,,,3,,,,,,,,,,,,,,,,,,,,,,,,,,,1064.83997,172,left,0.126895,wolf          ,1,1,-7,0,3,1064.873455,1064.873455,1067.372035,0,17,17,17,1,172,1,8,wolf          ,slipper     ,html/resources/sequences_IDs/A/01_wolf.jpg,html/resources/sequences_IDs/B/08_slipper.jpg,1,8,1,1,3,2,1,7,0,40,,,,,,,,,,,,,,,,,,,,
,,,,,40,2020-07-03_16h18.51.359,retriever_ti,2020.1.3,MacIntel,60,Chrome,1360,768,,,,,,,,,,,,,,,,,3,,,,,,,,,,,,,,,,,,,,,,,,,,,1067.989125,173,right,0.55106,dolphin     ,2,2,1,1,1,1068.02229,1068.02229,1070.521175,0,18,18,18,1,173,1,2,wolf          ,dolphin     ,html/resources/sequences_IDs/A/01_wolf.jpg,html/resources/sequences_IDs/B/02_dolphin.jpg,1,2,1,1,1,1,1,2,0,40,,,,,,,,,,,,,,,,,,,,
,,,,,40,2020-07-03_16h18.51.359,retriever_ti,2020.1.3,MacIntel,60,Chrome,1360,768,,,,,,,,,,,,,,,,,3,,,,,,,,,,,,,,,,,,,,,,,,,,,1071.621955,174,left,0.000835,satellite_dish,7,10,1,1,1,1071.655255,1071.655255,1074.153165,0,19,19,19,1,174,7,6,satellite_dish,holdfast    ,html/resources/sequences_IDs/A/10_satellite_dish.jpg,html/resources/sequences_IDs/B/04_holdfast.jpg,10,4,4,2,2,1,8,3,0,40,,,,,,,,,,,,,,,,,,,,
,,,,,40,2020-07-03_16h18.51.359,retriever_ti,2020.1.3,MacIntel,60,Chrome,1360,768,,,,,,,,,,,,,,,,,3,,,,,,,,,,,,,,,,,,,,,,,,,,,1075.254215,175,left,0.215805,sport_tshirt,4,7,-1,0,0,1075.270285,1075.270285,1077.76886,0,20,20,20,1,175,4,5,sport_tshirt,peacock       ,html/resources/sequences_IDs/B/07_sport_tshirt.jpg,html/resources/sequences_IDs/A/05_peacock.jpg,7,5,3,2,2,1,6,4,0,40,,,,,,,,,,,,,,,,,,,,
,,,,,40,2020-07-03_16h18.51.359,retriever_ti,2020.1.3,MacIntel,60,Chrome,1360,768,,,,,,,,,,,,,,,,,3,,,,,,,,,,,,,,,,,,,,,,,,,,,1078.869405,176,right,0.2306,scarf         ,3,6,1,1,0,1078.88645,1078.88645,1081.384825,0,21,21,21,1,176,2,3,dolphin     ,scarf         ,html/resources/sequences_IDs/B/02_dolphin.jpg,html/resources/sequences_IDs/A/06_scarf.jpg,2,6,1,1,3,2,2,5,1,40,,,,,,,,,,,,,,,,,,,,
,,,,,40,2020-07-03_16h18.51.359,retriever_ti,2020.1.3,MacIntel,60,Chrome,1360,768,,,,,,,,,,,,,,,,,3,,,,,,,,,,,,,,,,,,,,,,,,,,,1082.484945,177,left,0.06201,slipper     ,8,8,1,1,1,1082.518455,1082.518455,1085.017315,0,22,22,22,1,177,8,7,slipper     ,satellite_dish,html/resources/sequences_IDs/B/08_slipper.jpg,html/resources/sequences_IDs/A/10_satellite_dish.jpg,8,10,3,2,4,2,7,8,0,40,,,,,,,,,,,,,,,,,,,,
,,,,,40,2020-07-03_16h18.51.359,retriever_ti,2020.1.3,MacIntel,60,Chrome,1360,768,,,,,,,,,,,,,,,,,3,,,,,,,,,,,,,,,,,,,,,,,,,,,1086.11782,178,left,0.12856,holdfast    ,6,4,2,1,3,1086.15114,1086.15114,1088.649855,0,23,23,23,1,178,6,4,holdfast    ,sport_tshirt,html/resources/sequences_IDs/B/04_holdfast.jpg,html/resources/sequences_IDs/B/07_sport_tshirt.jpg,4,7,2,1,3,2,3,6,0,40,,,,,,,,,,,,,,,,,,,,
,,,,,40,2020-07-03_16h18.51.359,retriever_ti,2020.1.3,MacIntel,60,Chrome,1360,768,,,,,,,,,,,,,,,,,3,,,,,,,,,,,,,,,,,,,,,,,,,,,1089.265725,179,left,0.08246,holdfast    ,6,4,5,1,3,1089.28264,1089.28264,1091.781985,0,24,24,24,1,179,6,1,holdfast    ,wolf          ,html/resources/sequences_IDs/B/04_holdfast.jpg,html/resources/sequences_IDs/A/01_wolf.jpg,4,1,2,1,1,1,3,1,0,40,,,,,,,,,,,,,,,,,,,,
,,,,,40,2020-07-03_16h18.51.359,retriever_ti,2020.1.3,MacIntel,60,Chrome,1360,768,,,,,,,,,,,,,,,,,3,,,,,,,,,,,,,,,,,,,,,,,,,,,1092.39936,180,left,0.308715,scarf         ,3,6,-4,0,3,1092.43275,1092.43275,1094.93141,0,25,25,25,1,180,3,7,scarf         ,satellite_dish,html/resources/sequences_IDs/A/06_scarf.jpg,html/resources/sequences_IDs/A/10_satellite_dish.jpg,6,10,3,2,4,2,5,8,0,40,,,,,,,,,,,,,,,,,,,,
,,,,,40,2020-07-03_16h18.51.359,retriever_ti,2020.1.3,MacIntel,60,Chrome,1360,768,,,,,,,,,,,,,,,,,3,,,,,,,,,,,,,,,,,,,,,,,,,,,1095.54804,181,left,0.42626,satellite_dish,7,10,1,1,1,1095.582,1095.582,1098.079825,0,26,26,26,1,181,7,6,satellite_dish,holdfast    ,html/resources/sequences_IDs/A/10_satellite_dish.jpg,html/resources/sequences_IDs/B/04_holdfast.jpg,10,4,4,2,2,1,8,3,0,40,,,,,,,,,,,,,,,,,,,,
,,,,,40,2020-07-03_16h18.51.359,retriever_ti,2020.1.3,MacIntel,60,Chrome,1360,768,,,,,,,,,,,,,,,,,3,,,,,,,,,,,,,,,,,,,,,,,,,,,1099.18088,182,left,0.319845,peacock       ,5,5,-1,0,0,1099.19771,1099.19771,1101.69522,0,27,27,27,1,182,5,6,peacock       ,holdfast    ,html/resources/sequences_IDs/A/05_peacock.jpg,html/resources/sequences_IDs/B/04_holdfast.jpg,5,4,2,1,2,1,4,3,0,40,,,,,,,,,,,,,,,,,,,,
,,,,,40,2020-07-03_16h18.51.359,retriever_ti,2020.1.3,MacIntel,60,Chrome,1360,768,,,,,,,,,,,,,,,,,3,,,,,,,,,,,,,,,,,,,,,,,,,,,1102.796005,183,left,0.193275,dolphin     ,2,2,1,1,1,1102.82934,1102.82934,1105.32773,0,28,28,28,1,183,2,1,dolphin     ,wolf          ,html/resources/sequences_IDs/B/02_dolphin.jpg,html/resources/sequences_IDs/A/01_wolf.jpg,2,1,1,1,1,1,2,1,0,40,,,,,,,,,,,,,,,,,,,,
,,,,,40,2020-07-03_16h18.51.359,retriever_ti,2020.1.3,MacIntel,60,Chrome,1360,768,,,,,,,,,,,,,,,,,3,,,,,,,,,,,,,,,,,,,,,,,,,,,1106.42796,184,left,0.35166,dolphin     ,2,2,-6,0,3,1106.46196,1106.46196,1108.96079,0,29,29,29,1,184,2,8,dolphin     ,slipper     ,html/resources/sequences_IDs/B/02_dolphin.jpg,html/resources/sequences_IDs/B/08_slipper.jpg,2,8,1,1,3,2,2,7,0,40,,,,,,,,,,,,,,,,,,,,
,,,,,40,2020-07-03_16h18.51.359,retriever_ti,2020.1.3,MacIntel,60,Chrome,1360,768,,,,,,,,,,,,,,,,,3,,,,,,,,,,,,,,,,,,,,,,,,,,,1109.577795,185,left,0.33069,satellite_dish,7,10,-1,0,0,1109.611435,1109.611435,1112.109245,0,30,30,30,1,185,7,8,satellite_dish,slipper     ,html/resources/sequences_IDs/A/10_satellite_dish.jpg,html/resources/sequences_IDs/B/08_slipper.jpg,10,8,4,2,3,2,8,7,0,40,,,,,,,,,,,,,,,,,,,,
,,,,,40,2020-07-03_16h18.51.359,retriever_ti,2020.1.3,MacIntel,60,Chrome,1360,768,,,,,,,,,,,,,,,,,3,,,,,,,,,,,,,,,,,,,,,,,,,,,1113.210635,186,right,0.00085,scarf         ,3,6,-1,0,0,1113.22658,1113.22658,1115.72473,0,31,31,31,1,186,4,3,sport_tshirt,scarf         ,html/resources/sequences_IDs/B/07_sport_tshirt.jpg,html/resources/sequences_IDs/A/06_scarf.jpg,7,6,3,2,3,2,6,5,0,40,,,,,,,,,,,,,,,,,,,,
,,,,,40,2020-07-03_16h18.51.359,retriever_ti,2020.1.3,MacIntel,60,Chrome,1360,768,,,,,,,,,,,,,,,,,3,,,,,,,,,,,,,,,,,,,,,,,,,,,1116.825935,187,left,0.43804,holdfast    ,6,4,1,1,0,1116.85865,1116.85865,1119.35802,0,32,32,32,1,187,6,5,holdfast    ,peacock       ,html/resources/sequences_IDs/B/04_holdfast.jpg,html/resources/sequences_IDs/A/05_peacock.jpg,4,5,2,1,2,1,3,4,1,40,,,,,,,,,,,,,,,,,,,,
,,,,,40,2020-07-03_16h18.51.359,retriever_ti,2020.1.3,MacIntel,60,Chrome,1360,768,,,,,,,,,,,,,,,,,3,,,,,,,,,,,,,,,,,,,,,,,,,,,1120.45852,188,left,0.22881,sport_tshirt,4,7,-1,0,0,1120.47487,1120.47487,1122.973885,0,33,33,33,1,188,4,5,sport_tshirt,peacock       ,html/resources/sequences_IDs/B/07_sport_tshirt.jpg,html/resources/sequences_IDs/A/05_peacock.jpg,7,5,3,2,2,1,6,4,0,40,,,,,,,,,,,,,,,,,,,,
,,,,,40,2020-07-03_16h18.51.359,retriever_ti,2020.1.3,MacIntel,60,Chrome,1360,768,,,,,,,,,,,,,,,,,3,,,,,,,,,,,,,,,,,,,,,,,,,,,1124.075115,189,left,0.354105,peacock       ,5,5,1,1,1,1124.107905,1124.107905,1126.606375,0,34,34,34,1,189,5,4,peacock       ,sport_tshirt,html/resources/sequences_IDs/A/05_peacock.jpg,html/resources/sequences_IDs/B/07_sport_tshirt.jpg,5,7,2,1,3,2,4,6,0,40,,,,,,,,,,,,,,,,,,,,
,,,,,40,2020-07-03_16h18.51.359,retriever_ti,2020.1.3,MacIntel,60,Chrome,1360,768,,,,,,,,,,,,,,,,,3,,,,,,,,,,,,,,,,,,,,,,,,,,,1127.706025,190,right,0.23854,sport_tshirt,4,7,1,1,1,1127.722945,1127.722945,1130.222005,0,35,35,35,1,190,3,4,scarf         ,sport_tshirt,html/resources/sequences_IDs/A/06_scarf.jpg,html/resources/sequences_IDs/B/07_sport_tshirt.jpg,6,7,3,2,3,2,5,6,0,40,,,,,,,,,,,,,,,,,,,,
,,,,,40,2020-07-03_16h18.51.359,retriever_ti,2020.1.3,MacIntel,60,Chrome,1360,768,,,,,,,,,,,,,,,,,3,,,,,,,,,,,,,,,,,,,,,,,,,,,1131.322475,191,left,0.37708,sport_tshirt,4,7,2,1,3,1131.3558,1131.3558,1133.854045,0,36,36,36,1,191,4,2,sport_tshirt,dolphin     ,html/resources/sequences_IDs/B/07_sport_tshirt.jpg,html/resources/sequences_IDs/B/02_dolphin.jpg,7,2,3,2,1,1,6,2,0,40,,,,,,,,,,,,,,,,,,,,
,,,,,40,2020-07-03_16h18.51.359,retriever_ti,2020.1.3,MacIntel,60,Chrome,1360,768,,,,,,,,,,,,,,,,,3,,,,,,,,,,,,,,,,,,,,,,,,,,,1134.47155,192,right,0.37803,scarf         ,3,6,-2,0,3,1134.50446,1134.50446,1137.00286,0,37,37,37,1,192,5,3,peacock       ,scarf         ,html/resources/sequences_IDs/A/05_peacock.jpg,html/resources/sequences_IDs/A/06_scarf.jpg,5,6,2,1,3,2,4,5,0,40,,,,,,,,,,,,,,,,,,,,
,,,,,40,2020-07-03_16h18.51.359,retriever_ti,2020.1.3,MacIntel,60,Chrome,1360,768,,,,,,,,,,,,,,,,,3,,,,,,,,,,,,,,,,,,,,,,,,,,,1137.61979,193,left,0.337805,holdfast    ,6,4,3,1,3,1137.65362,1137.65362,1140.151755,0,38,38,38,1,193,6,3,holdfast    ,scarf         ,html/resources/sequences_IDs/B/04_holdfast.jpg,html/resources/sequences_IDs/A/06_scarf.jpg,4,6,2,1,3,2,3,5,0,40,,,,,,,,,,,,,,,,,,,,
,,,,,40,2020-07-03_16h18.51.359,retriever_ti,2020.1.3,MacIntel,60,Chrome,1360,768,,,,,,,,,,,,,,,,,3,,,,,,,,,,,,,,,,,,,,,,,,,,,1140.752745,194,right,0.373775,scarf         ,3,6,1,1,1,1140.768925,1140.768925,1143.268035,0,39,39,39,1,194,2,3,dolphin     ,scarf         ,html/resources/sequences_IDs/B/02_dolphin.jpg,html/resources/sequences_IDs/A/06_scarf.jpg,2,6,1,1,3,2,2,5,0,40,,,,,,,,,,,,,,,,,,,,
,,,,,40,2020-07-03_16h18.51.359,retriever_ti,2020.1.3,MacIntel,60,Chrome,1360,768,,,,,,,,,,,,,,,,,3,,,,,,,,,,,,,,,,,,,,,,,,,,,1144.36806,195,left,0.403195,satellite_dish,7,10,5,1,3,1144.402175,1144.402175,1146.90002,0,40,40,40,1,195,7,2,satellite_dish,dolphin     ,html/resources/sequences_IDs/A/10_satellite_dish.jpg,html/resources/sequences_IDs/B/02_dolphin.jpg,10,2,4,2,1,1,8,2,0,40,,,,,,,,,,,,,,,,,,,,
,,,,,40,2020-07-03_16h18.51.359,retriever_ti,2020.1.3,MacIntel,60,Chrome,1360,768,,,,,,,,,,,,,,,,,3,,,,,,,,,,,,,,,,,,,,,,,,,,,1147.517425,196,right,0.383445,scarf         ,3,6,-4,0,3,1147.534195,1147.534195,1150.03346,0,41,41,41,1,196,7,3,satellite_dish,scarf         ,html/resources/sequences_IDs/A/10_satellite_dish.jpg,html/resources/sequences_IDs/A/06_scarf.jpg,10,6,4,2,3,2,8,5,0,40,,,,,,,,,,,,,,,,,,,,
,,,,,40,2020-07-03_16h18.51.359,retriever_ti,2020.1.3,MacIntel,60,Chrome,1360,768,,,,,,,,,,,,,,,,,3,,,,,,,,,,,,,,,,,,,,,,,,,,,1150.650705,197,left,0.45061,slipper     ,8,8,7,1,3,1150.66664,1150.66664,1153.165915,0,42,42,42,1,197,8,1,slipper     ,wolf          ,html/resources/sequences_IDs/B/08_slipper.jpg,html/resources/sequences_IDs/A/01_wolf.jpg,8,1,3,2,1,1,7,1,0,40,,,,,,,,,,,,,,,,,,,,
,,,,,40,2020-07-03_16h18.51.359,retriever_ti,2020.1.3,MacIntel,60,Chrome,1360,768,,,,,,,,,,,,,,,,,3,,,,,,,,,,,,,,,,,,,,,,,,,,,1153.782255,198,right,0.16536,satellite_dish,7,10,5,1,3,1153.81652,1153.81652,1156.315325,0,43,43,43,1,198,2,7,dolphin     ,satellite_dish,html/resources/sequences_IDs/B/02_dolphin.jpg,html/resources/sequences_IDs/A/10_satellite_dish.jpg,2,10,1,1,4,2,2,8,0,40,,,,,,,,,,,,,,,,,,,,
,,,,,40,2020-07-03_16h18.51.359,retriever_ti,2020.1.3,MacIntel,60,Chrome,1360,768,,,,,,,,,,,,,,,,,3,,,,,,,,,,,,,,,,,,,,,,,,,,,1156.93136,199,left,0.22814,holdfast    ,6,4,-2,0,3,1156.948365,1156.948365,1159.447695,0,44,44,44,1,199,6,8,holdfast    ,slipper     ,html/resources/sequences_IDs/B/04_holdfast.jpg,html/resources/sequences_IDs/B/08_slipper.jpg,4,8,2,1,3,2,3,7,0,40,,,,,,,,,,,,,,,,,,,,
,,,,,40,2020-07-03_16h18.51.359,retriever_ti,2020.1.3,MacIntel,60,Chrome,1360,768,,,,,,,,,,,,,,,,,3,,,,,,,,,,,,,,,,,,,,,,,,,,,1160.06501,200,left,0.06179,satellite_dish,7,10,-1,0,0,1160.098255,1160.098255,1162.595905,0,45,45,45,1,200,7,8,satellite_dish,slipper     ,html/resources/sequences_IDs/A/10_satellite_dish.jpg,html/resources/sequences_IDs/B/08_slipper.jpg,10,8,4,2,3,2,8,7,0,40,,,,,,,,,,,,,,,,,,,,
,,,,,40,2020-07-03_16h18.51.359,retriever_ti,2020.1.3,MacIntel,60,Chrome,1360,768,,,,,,,,,,,,,,,,,3,,,,,,,,,,,,,,,,,,,,,,,,,,,1163.69654,201,left,0.095445,peacock       ,5,5,-2,0,3,1163.730605,1163.730605,1166.22922,0,46,46,46,1,201,5,7,peacock       ,satellite_dish,html/resources/sequences_IDs/A/05_peacock.jpg,html/resources/sequences_IDs/A/10_satellite_dish.jpg,5,10,2,1,4,2,4,8,0,40,,,,,,,,,,,,,,,,,,,,
,,,,,40,2020-07-03_16h18.51.359,retriever_ti,2020.1.3,MacIntel,60,Chrome,1360,768,,,,,,,,,,,,,,,,,3,,,,,,,,,,,,,,,,,,,,,,,,,,,1166.846435,202,left,0.410255,holdfast    ,6,4,-1,0,0,1166.88018,1166.88018,1169.37828,0,47,47,47,1,202,6,7,holdfast    ,satellite_dish,html/resources/sequences_IDs/B/04_holdfast.jpg,html/resources/sequences_IDs/A/10_satellite_dish.jpg,4,10,2,1,4,2,3,8,0,40,,,,,,,,,,,,,,,,,,,,
,,,,,40,2020-07-03_16h18.51.359,retriever_ti,2020.1.3,MacIntel,60,Chrome,1360,768,,,,,,,,,,,,,,,,,3,,,,,,,,,,,,,,,,,,,,,,,,,,,1170.479215,203,left,0.38119,peacock       ,5,5,-1,0,0,1170.51215,1170.51215,1173.009865,0,48,48,48,1,203,5,6,peacock       ,holdfast    ,html/resources/sequences_IDs/A/05_peacock.jpg,html/resources/sequences_IDs/B/04_holdfast.jpg,5,4,2,1,2,1,4,3,0,40,,,,,,,,,,,,,,,,,,,,
,,,,,40,2020-07-03_16h18.51.359,retriever_ti,2020.1.3,MacIntel,60,Chrome,1360,768,,,,,,,,,,,,,,,,,3,,,,,,,,,,,,,,,,,,,,,,,,,,,1174.11073,204,left,0.100985,dolphin     ,2,2,-3,0,3,1174.14388,1174.14388,1176.642635,0,49,49,49,1,204,2,5,dolphin     ,peacock       ,html/resources/sequences_IDs/B/02_dolphin.jpg,html/resources/sequences_IDs/A/05_peacock.jpg,2,5,1,1,2,1,2,4,0,40,,,,,,,,,,,,,,,,,,,,
,,,,,40,2020-07-03_16h18.51.359,retriever_ti,2020.1.3,MacIntel,60,Chrome,1360,768,,,,,,,,,,,,,,,,,3,,,,,,,,,,,,,,,,,,,,,,,,,,,1177.259455,205,right,0.213935,satellite_dish,7,10,6,1,3,1177.29302,1177.29302,1179.791835,0,50,50,50,1,205,1,7,wolf          ,satellite_dish,html/resources/sequences_IDs/A/01_wolf.jpg,html/resources/sequences_IDs/A/10_satellite_dish.jpg,1,10,1,1,4,2,1,8,0,40,,,,,,,,,,,,,,,,,,,,
,,,,,40,2020-07-03_16h18.51.359,retriever_ti,2020.1.3,MacIntel,60,Chrome,1360,768,,,,,,,,,,,,,,,,,3,,,,,,,,,,,,,,,,,,,,,,,,,,,1180.392745,206,right,0.211655,scarf         ,3,6,-1,0,0,1180.426155,1180.426155,1182.92438,0,51,51,51,1,206,4,3,sport_tshirt,scarf         ,html/resources/sequences_IDs/B/07_sport_tshirt.jpg,html/resources/sequences_IDs/A/06_scarf.jpg,7,6,3,2,3,2,6,5,0,40,,,,,,,,,,,,,,,,,,,,
,,,,,40,2020-07-03_16h18.51.359,retriever_ti,2020.1.3,MacIntel,60,Chrome,1360,768,,,,,,,,,,,,,,,,,3,,,,,,,,,,,,,,,,,,,,,,,,,,,1184.02515,207,right,0.08323,scarf         ,3,6,-5,0,3,1184.04165,1184.04165,1186.54042,0,52,52,52,1,207,8,3,slipper     ,scarf         ,html/resources/sequences_IDs/B/08_slipper.jpg,html/resources/sequences_IDs/A/06_scarf.jpg,8,6,3,2,3,2,7,5,0,40,,,,,,,,,,,,,,,,,,,,
,,,,,40,2020-07-03_16h18.51.359,retriever_ti,2020.1.3,MacIntel,60,Chrome,1360,768,,,,,,,,,,,,,,,,,3,,,,,,,,,,,,,,,,,,,,,,,,,,,1187.15629,208,right,0.21205,wolf          ,1,1,-4,0,3,1187.19023,1187.19023,1189.68927,0,53,53,53,1,208,5,1,peacock       ,wolf          ,html/resources/sequences_IDs/A/05_peacock.jpg,html/resources/sequences_IDs/A/01_wolf.jpg,5,1,2,1,1,1,4,1,0,40,,,,,,,,,,,,,,,,,,,,
,,,,,40,2020-07-03_16h18.51.359,retriever_ti,2020.1.3,MacIntel,60,Chrome,1360,768,,,,,,,,,,,,,,,,,3,,,,,,,,,,,,,,,,,,,,,,,,,,,1190.290145,209,right,0.14804,wolf          ,1,1,-2,0,3,1190.323315,1190.323315,1192.821595,0,54,54,54,1,209,3,1,scarf         ,wolf          ,html/resources/sequences_IDs/A/06_scarf.jpg,html/resources/sequences_IDs/A/01_wolf.jpg,6,1,3,2,1,1,5,1,0,40,,,,,,,,,,,,,,,,,,,,
,,,,,40,2020-07-03_16h18.51.359,retriever_ti,2020.1.3,MacIntel,60,Chrome,1360,768,,,,,,,,,,,,,,,,,3,,,,,,,,,,,,,,,,,,,,,,,,,,,1193.422175,210,left,0.122255,satellite_dish,7,10,6,1,3,1193.439055,1193.439055,1195.937475,0,55,55,55,1,210,7,1,satellite_dish,wolf          ,html/resources/sequences_IDs/A/10_satellite_dish.jpg,html/resources/sequences_IDs/A/01_wolf.jpg,10,1,4,2,1,1,8,1,0,40,,,,,,,,,,,,,,,,,,,,
,,,,,40,2020-07-03_16h18.51.359,retriever_ti,2020.1.3,MacIntel,60,Chrome,1360,768,,,,,,,,,,,,,,,,,3,,,,,,,,,,,,,,,,,,,,,,,,,,,1196.538515,211,right,0.093055,peacock       ,5,5,4,1,3,1196.5554,1196.5554,1199.053785,0,56,56,56,1,211,1,5,wolf          ,peacock       ,html/resources/sequences_IDs/A/01_wolf.jpg,html/resources/sequences_IDs/A/05_peacock.jpg,1,5,1,1,2,1,1,4,0,40,,,,,,,,,,,,,,,,,,,,
,,,,,40,2020-07-03_16h18.51.359,retriever_ti,2020.1.3,MacIntel,60,Chrome,1360,768,,,,,,,,,,,,,,,,,3,,,,,,,,,,,,,,,,,,,,,,,,,,,1199.669585,212,left,0.55917,slipper     ,8,8,3,1,3,1199.68763,1199.68763,1202.185445,0,57,57,57,1,212,8,5,slipper     ,peacock       ,html/resources/sequences_IDs/B/08_slipper.jpg,html/resources/sequences_IDs/A/05_peacock.jpg,8,5,3,2,2,1,7,4,0,40,,,,,,,,,,,,,,,,,,,,
,,,,,40,2020-07-03_16h18.51.359,retriever_ti,2020.1.3,MacIntel,60,Chrome,1360,768,,,,,,,,,,,,,,,,,3,,,,,,,,,,,,,,,,,,,,,,,,,,,1202.78659,213,right,0.145585,sport_tshirt,4,7,-1,0,0,1202.802685,1202.802685,1205.30095,0,58,58,58,1,213,5,4,peacock       ,sport_tshirt,html/resources/sequences_IDs/A/05_peacock.jpg,html/resources/sequences_IDs/B/07_sport_tshirt.jpg,5,7,2,1,3,2,4,6,0,40,,,,,,,,,,,,,,,,,,,,
,,,,,40,2020-07-03_16h18.51.359,retriever_ti,2020.1.3,MacIntel,60,Chrome,1360,768,,,,,,,,,,,,,,,,,3,,,,,,,,,,,,,,,,,,,,,,,,,,,1206.401895,214,left,0.33783,dolphin     ,2,2,1,1,1,1206.435815,1206.435815,1208.93424,0,59,59,59,1,214,2,1,dolphin     ,wolf          ,html/resources/sequences_IDs/B/02_dolphin.jpg,html/resources/sequences_IDs/A/01_wolf.jpg,2,1,1,1,1,1,2,1,0,40,,,,,,,,,,,,,,,,,,,,
,,,,,40,2020-07-03_16h18.51.359,retriever_ti,2020.1.3,MacIntel,60,Chrome,1360,768,,,,,,,,,,,,,,,,,3,,,,,,,,,,,,,,,,,,,,,,,,,,,1210.034945,215,left,0.3433,scarf         ,3,6,-2,0,3,1210.068,1210.068,1212.56631,0,60,60,60,1,215,3,5,scarf         ,peacock       ,html/resources/sequences_IDs/A/06_scarf.jpg,html/resources/sequences_IDs/A/05_peacock.jpg,6,5,3,2,2,1,5,4,0,40,,,,,,,,,,,,,,,,,,,,
,,,,,40,2020-07-03_16h18.51.359,retriever_ti,2020.1.3,MacIntel,60,Chrome,1360,768,,,,,,,,,,,,,,,,,3,,,,,,,,,,,,,,,,,,,,,,,,,,,1213.16691,216,left,0.302655,dolphin     ,2,2,-2,0,3,1213.183805,1213.183805,1215.682265,0,61,61,61,1,216,2,4,dolphin     ,sport_tshirt,html/resources/sequences_IDs/B/02_dolphin.jpg,html/resources/sequences_IDs/B/07_sport_tshirt.jpg,2,7,1,1,3,2,2,6,0,40,,,,,,,,,,,,,,,,,,,,
,,,,,40,2020-07-03_16h18.51.359,retriever_ti,2020.1.3,MacIntel,60,Chrome,1360,768,,,,,,,,,,,,,,,,,3,,,,,,,,,,,,,,,,,,,,,,,,,,,1216.283285,217,left,0.310855,scarf         ,3,6,-1,0,1,1216.31668,1216.31668,1218.815505,0,62,62,62,1,217,3,4,scarf         ,sport_tshirt,html/resources/sequences_IDs/A/06_scarf.jpg,html/resources/sequences_IDs/B/07_sport_tshirt.jpg,6,7,3,2,3,2,5,6,1,40,,,,,,,,,,,,,,,,,,,,
,,,,,40,2020-07-03_16h18.51.359,retriever_ti,2020.1.3,MacIntel,60,Chrome,1360,768,,,,,,,,,,,,,,,,,3,,,,,,,,,,,,,,,,,,,,,,,,,,,1219.914295,218,right,0.43164,scarf         ,3,6,1,1,1,1219.93257,1219.93257,1222.43061,0,63,63,63,1,218,2,3,dolphin     ,scarf         ,html/resources/sequences_IDs/B/02_dolphin.jpg,html/resources/sequences_IDs/A/06_scarf.jpg,2,6,1,1,3,2,2,5,0,40,,,,,,,,,,,,,,,,,,,,
