instructionsLoop.thisRepN,instructionsLoop.thisTrialN,instructionsLoop.thisN,instructionsLoop.thisIndex,instructionsLoop.ran,participant,date,expName,psychopyVersion,OS,frameRate,browser,xResolution,yResolution,fix_onset,tprac,practiceKey.keys,practiceKey.rt,pracitem_chosen_name,acc_practice,P1_onsetPrac,P2_onsetPrac,onsetFeedbPrac,practiceTrials.thisRepN,practiceTrials.thisTrialN,practiceTrials.thisN,practiceTrials.thisIndex,practiceTrials.ran,P1,P2,Block,LocItem1,LocItem2,NameItem1,NameItem2,key_respAC_prac.keys,key_respAC_prac.corr,key_respAC_prac.rt,AC_acc,Attentions.thisRepN,Attentions.thisTrialN,Attentions.thisN,Attentions.thisIndex,Attentions.ran,Stim,Loc1,Loc2,Loc3,Loc4,CorrAns,keyDisturbed.keys,keyDisturbed.rt,repPractice.thisRepN,repPractice.thisTrialN,repPractice.thisN,repPractice.thisIndex,repPractice.ran,fixcross_onsetMain,trialNumber,key_resp.keys,key_resp.rt,item_chosen_name,item_chosen_value,item_chosen_ID,diff_chosen_minus_reject,acc_real,acc_feedback,P1_onset,P2_onset,feedb_onset,trials.thisRepN,trials.thisTrialN,trials.thisN,trials.thisIndex,trials.ran,Trial,ValueP1,ValueP2,P1name,P2name,P1Loc,P2Loc,P1id,P2id,Micro_categoryP1,Macro_categoryP1,Micro_categoryP2,Macro_categoryP2,ID_sequenceP1,ID_sequenceP2,InverseFb,pNumber,repBlocks.thisRepN,repBlocks.thisTrialN,repBlocks.thisN,repBlocks.thisIndex,repBlocks.ran,key_respAC.keys,key_respAC.corr,key_respAC.rt,trials_AC.thisRepN,trials_AC.thisTrialN,trials_AC.thisN,trials_AC.thisIndex,trials_AC.ran,Bonus,BonusLoop.thisRepN,BonusLoop.thisTrialN,BonusLoop.thisN,BonusLoop.thisIndex,BonusLoop.ran,comments
0,0,0,0,1,41,2020-07-03_16h23.22.508,retriever_ti,2020.1.3,Linux x86_64,60,Chrome,1366,768,,,,,,,,,,,,,,,,,,,,,,,,,,,,,,,,,,,,,,,,,,,,,,,,,,,,,,,,,,,,,,,,,,,,,,,,,,,,,,,,,,,,,,,,,,,,,,,,,,
1,0,1,0,1,41,2020-07-03_16h23.22.508,retriever_ti,2020.1.3,Linux x86_64,60,Chrome,1366,768,,,,,,,,,,,,,,,,,,,,,,,,,,,,,,,,,,,,,,,,,,,,,,,,,,,,,,,,,,,,,,,,,,,,,,,,,,,,,,,,,,,,,,,,,,,,,,,,,,
2,0,2,0,1,41,2020-07-03_16h23.22.508,retriever_ti,2020.1.3,Linux x86_64,60,Chrome,1366,768,,,,,,,,,,,,,,,,,,,,,,,,,,,,,,,,,,,,,,,,,,,,,,,,,,,,,,,,,,,,,,,,,,,,,,,,,,,,,,,,,,,,,,,,,,,,,,,,,,
3,0,3,0,1,41,2020-07-03_16h23.22.508,retriever_ti,2020.1.3,Linux x86_64,60,Chrome,1366,768,,,,,,,,,,,,,,,,,,,,,,,,,,,,,,,,,,,,,,,,,,,,,,,,,,,,,,,,,,,,,,,,,,,,,,,,,,,,,,,,,,,,,,,,,,,,,,,,,,
4,0,4,0,1,41,2020-07-03_16h23.22.508,retriever_ti,2020.1.3,Linux x86_64,60,Chrome,1366,768,,,,,,,,,,,,,,,,,,,,,,,,,,,,,,,,,,,,,,,,,,,,,,,,,,,,,,,,,,,,,,,,,,,,,,,,,,,,,,,,,,,,,,,,,,,,,,,,,,
5,0,5,0,1,41,2020-07-03_16h23.22.508,retriever_ti,2020.1.3,Linux x86_64,60,Chrome,1366,768,,,,,,,,,,,,,,,,,,,,,,,,,,,,,,,,,,,,,,,,,,,,,,,,,,,,,,,,,,,,,,,,,,,,,,,,,,,,,,,,,,,,,,,,,,,,,,,,,,
6,0,6,0,1,41,2020-07-03_16h23.22.508,retriever_ti,2020.1.3,Linux x86_64,60,Chrome,1366,768,,,,,,,,,,,,,,,,,,,,,,,,,,,,,,,,,,,,,,,,,,,,,,,,,,,,,,,,,,,,,,,,,,,,,,,,,,,,,,,,,,,,,,,,,,,,,,,,,,
7,0,7,0,1,41,2020-07-03_16h23.22.508,retriever_ti,2020.1.3,Linux x86_64,60,Chrome,1366,768,,,,,,,,,,,,,,,,,,,,,,,,,,,,,,,,,,,,,,,,,,,,,,,,,,,,,,,,,,,,,,,,,,,,,,,,,,,,,,,,,,,,,,,,,,,,,,,,,,
8,0,8,0,1,41,2020-07-03_16h23.22.508,retriever_ti,2020.1.3,Linux x86_64,60,Chrome,1366,768,,,,,,,,,,,,,,,,,,,,,,,,,,,,,,,,,,,,,,,,,,,,,,,,,,,,,,,,,,,,,,,,,,,,,,,,,,,,,,,,,,,,,,,,,,,,,,,,,,
9,0,9,0,1,41,2020-07-03_16h23.22.508,retriever_ti,2020.1.3,Linux x86_64,60,Chrome,1366,768,,,,,,,,,,,,,,,,,,,,,,,,,,,,,,,,,,,,,,,,,,,,,,,,,,,,,,,,,,,,,,,,,,,,,,,,,,,,,,,,,,,,,,,,,,,,,,,,,,
10,0,10,0,1,41,2020-07-03_16h23.22.508,retriever_ti,2020.1.3,Linux x86_64,60,Chrome,1366,768,,,,,,,,,,,,,,,,,,,,,,,,,,,,,,,,,,,,,,,,,,,,,,,,,,,,,,,,,,,,,,,,,,,,,,,,,,,,,,,,,,,,,,,,,,,,,,,,,,
11,0,11,0,1,41,2020-07-03_16h23.22.508,retriever_ti,2020.1.3,Linux x86_64,60,Chrome,1366,768,,,,,,,,,,,,,,,,,,,,,,,,,,,,,,,,,,,,,,,,,,,,,,,,,,,,,,,,,,,,,,,,,,,,,,,,,,,,,,,,,,,,,,,,,,,,,,,,,,
12,0,12,0,1,41,2020-07-03_16h23.22.508,retriever_ti,2020.1.3,Linux x86_64,60,Chrome,1366,768,,,,,,,,,,,,,,,,,,,,,,,,,,,,,,,,,,,,,,,,,,,,,,,,,,,,,,,,,,,,,,,,,,,,,,,,,,,,,,,,,,,,,,,,,,,,,,,,,,
13,0,13,0,1,41,2020-07-03_16h23.22.508,retriever_ti,2020.1.3,Linux x86_64,60,Chrome,1366,768,,,,,,,,,,,,,,,,,,,,,,,,,,,,,,,,,,,,,,,,,,,,,,,,,,,,,,,,,,,,,,,,,,,,,,,,,,,,,,,,,,,,,,,,,,,,,,,,,,
14,0,14,0,1,41,2020-07-03_16h23.22.508,retriever_ti,2020.1.3,Linux x86_64,60,Chrome,1366,768,,,,,,,,,,,,,,,,,,,,,,,,,,,,,,,,,,,,,,,,,,,,,,,,,,,,,,,,,,,,,,,,,,,,,,,,,,,,,,,,,,,,,,,,,,,,,,,,,,
,,,,,41,2020-07-03_16h23.22.508,retriever_ti,2020.1.3,Linux x86_64,60,Chrome,1366,768,652.066545,1,right,1.4074,canary,1,652.122305,652.122305,654.61986,0,0,0,0,1,2,5,1,html/resources/stimuli_practice_decision/04_beetle.jpg,html/resources/stimuli_practice_decision/02_canary.jpg,beetle,canary,,,,,,,,,,,,,,,,,,,,,,,,,,,,,,,,,,,,,,,,,,,,,,,,,,,,,,,,,,,,,,,,,,,,,,,,,,,,,
,,,,,41,2020-07-03_16h23.22.508,retriever_ti,2020.1.3,Linux x86_64,60,Chrome,1366,768,655.20402,2,left,1.43668,rabbit,1,655.23695,655.23695,657.734135,0,1,1,1,1,4,3,1,html/resources/stimuli_practice_decision/01_rabbit.jpg,html/resources/stimuli_practice_decision/07_sock.jpg,rabbit,sock,,,,,,,,,,,,,,,,,,,,,,,,,,,,,,,,,,,,,,,,,,,,,,,,,,,,,,,,,,,,,,,,,,,,,,,,,,,,,
,,,,,41,2020-07-03_16h23.22.508,retriever_ti,2020.1.3,Linux x86_64,60,Chrome,1366,768,658.735915,3,right,1.441305,beetle,0,658.754155,658.754155,661.250885,0,2,2,2,1,6,2,1,html/resources/stimuli_practice_decision/06_pullover.jpg,html/resources/stimuli_practice_decision/04_beetle.jpg,pullover,beetle,,,,,,,,,,,,,,,,,,,,,,,,,,,,,,,,,,,,,,,,,,,,,,,,,,,,,,,,,,,,,,,,,,,,,,,,,,,,,
,,,,,41,2020-07-03_16h23.22.508,retriever_ti,2020.1.3,Linux x86_64,60,Chrome,1366,768,661.768465,4,right,1.310775,handmixer,0,661.80311,661.80311,664.302765,0,3,3,3,1,7,1,1,html/resources/stimuli_practice_decision/05_glasses.jpg,html/resources/stimuli_practice_decision/08_handmixer.jpg,glasses,handmixer,,,,,,,,,,,,,,,,,,,,,,,,,,,,,,,,,,,,,,,,,,,,,,,,,,,,,,,,,,,,,,,,,,,,,,,,,,,,,
,,,,,41,2020-07-03_16h23.22.508,retriever_ti,2020.1.3,Linux x86_64,60,Chrome,1366,768,664.819685,5,left,1.059485,glasses,1,664.83602,664.83602,667.334645,0,4,4,4,1,7,6,1,html/resources/stimuli_practice_decision/05_glasses.jpg,html/resources/stimuli_practice_decision/06_pullover.jpg,glasses,pullover,,,,,,,,,,,,,,,,,,,,,,,,,,,,,,,,,,,,,,,,,,,,,,,,,,,,,,,,,,,,,,,,,,,,,,,,,,,,,
,,,,,41,2020-07-03_16h23.22.508,retriever_ti,2020.1.3,Linux x86_64,60,Chrome,1366,768,668.33484,6,left,1.380965,rabbit,0,668.3714,668.3714,670.869,0,5,5,5,1,4,7,1,html/resources/stimuli_practice_decision/01_rabbit.jpg,html/resources/stimuli_practice_decision/05_glasses.jpg,rabbit,glasses,,,,,,,,,,,,,,,,,,,,,,,,,,,,,,,,,,,,,,,,,,,,,,,,,,,,,,,,,,,,,,,,,,,,,,,,,,,,,
,,,,,41,2020-07-03_16h23.22.508,retriever_ti,2020.1.3,Linux x86_64,60,Chrome,1366,768,671.38629,7,left,1.329435,handmixer,0,671.404385,671.404385,673.9004,0,6,6,6,1,1,2,1,html/resources/stimuli_practice_decision/08_handmixer.jpg,html/resources/stimuli_practice_decision/04_beetle.jpg,handmixer,beetle,,,,,,,,,,,,,,,,,,,,,,,,,,,,,,,,,,,,,,,,,,,,,,,,,,,,,,,,,,,,,,,,,,,,,,,,,,,,,
,,,,,41,2020-07-03_16h23.22.508,retriever_ti,2020.1.3,Linux x86_64,60,Chrome,1366,768,674.90911,8,NaN,NaN,No_response,2,674.95502,674.95502,677.444265,0,7,7,7,1,4,3,1,html/resources/stimuli_practice_decision/01_rabbit.jpg,html/resources/stimuli_practice_decision/07_sock.jpg,rabbit,sock,,,,,,,,,,,,,,,,,,,,,,,,,,,,,,,,,,,,,,,,,,,,,,,,,,,,,,,,,,,,,,,,,,,,,,,,,,,,,
,,,,,41,2020-07-03_16h23.22.508,retriever_ti,2020.1.3,Linux x86_64,60,Chrome,1366,768,,,,,,,,,,,,,,,,,,,,,,left,1,4.970515,1,0,0,0,2,1,html/resources/sequences_IDs/square1.png,star ↑,triangle →,circle ↓,← square,left,,,,,,,,,,,,,,,,,,,,,,,,,,,,,,,,,,,,,,,,,,,,,,,,,,,,,,,,,,,,,,
,,,,,41,2020-07-03_16h23.22.508,retriever_ti,2020.1.3,Linux x86_64,60,Chrome,1366,768,,,,,,,,,,,,,,,,,,,,,,down,1,3.120315,1,0,1,1,3,1,html/resources/sequences_IDs/triangle.png,star ↑,square →,triangle ↓,← circle,down,,,,,,,,,,,,,,,,,,,,,,,,,,,,,,,,,,,,,,,,,,,,,,,,,,,,,,,,,,,,,,
,,,,,41,2020-07-03_16h23.22.508,retriever_ti,2020.1.3,Linux x86_64,60,Chrome,1366,768,,,,,,,,,,,,,,,,,,,,,,down,1,2.21939,1,0,2,2,1,1,html/resources/sequences_IDs/star.png,square ↑,circle →,star ↓,← triangle,down,,,,,,,,,,,,,,,,,,,,,,,,,,,,,,,,,,,,,,,,,,,,,,,,,,,,,,,,,,,,,,
,,,,,41,2020-07-03_16h23.22.508,retriever_ti,2020.1.3,Linux x86_64,60,Chrome,1366,768,,,,,,,,,,,,,,,,,,,,,,up,1,2.21739,1,0,3,3,0,1,html/resources/sequences_IDs/circle.png,circle ↑,square →,triangle ↓,← star ,up,,,,,,,,,,,,,,,,,,,,,,,,,,,,,,,,,,,,,,,,,,,,,,,,,,,,,,,,,,,,,,
,,,,,41,2020-07-03_16h23.22.508,retriever_ti,2020.1.3,Linux x86_64,60,Chrome,1366,768,,,,,,,,,,,,,,,,,,,,,,,,,,,,,,,,,,,,,0,6.77174,0,0,0,0,1,,,,,,,,,,,,,,,,,,,,,,,,,,,,,,,,,,,,,,,,,,,,,,,,,,,,,,,
,,,,,41,2020-07-03_16h23.22.508,retriever_ti,2020.1.3,Linux x86_64,60,Chrome,1366,768,703.9701,9,right,0.84882,glasses,1,703.985655,703.985655,706.48259,0,0,0,0,1,6,7,1,html/resources/stimuli_practice_decision/06_pullover.jpg,html/resources/stimuli_practice_decision/05_glasses.jpg,pullover,glasses,,,,,,,,,,,,,,,,,,,,,,,,,,,,,,,,,,,,,,,,,,,,,,,,,,,,,,,,,,,,,,,,,,,,,,,,,,,,,
,,,,,41,2020-07-03_16h23.22.508,retriever_ti,2020.1.3,Linux x86_64,60,Chrome,1366,768,707.48377,10,right,1.215,beetle,0,707.51813,707.51813,710.01524,0,1,1,1,1,6,2,1,html/resources/stimuli_practice_decision/06_pullover.jpg,html/resources/stimuli_practice_decision/04_beetle.jpg,pullover,beetle,,,,,,,,,,,,,,,,,,,,,,,,,,,,,,,,,,,,,,,,,,,,,,,,,,,,,,,,,,,,,,,,,,,,,,,,,,,,,
,,,,,41,2020-07-03_16h23.22.508,retriever_ti,2020.1.3,Linux x86_64,60,Chrome,1366,768,710.53268,11,left,1.139595,canary,0,710.568305,710.568305,713.06508,0,2,2,2,1,5,6,1,html/resources/stimuli_practice_decision/02_canary.jpg,html/resources/stimuli_practice_decision/06_pullover.jpg,canary,pullover,,,,,,,,,,,,,,,,,,,,,,,,,,,,,,,,,,,,,,,,,,,,,,,,,,,,,,,,,,,,,,,,,,,,,,,,,,,,,
,,,,,41,2020-07-03_16h23.22.508,retriever_ti,2020.1.3,Linux x86_64,60,Chrome,1366,768,714.066445,12,right,1.04269,glasses,0,714.083635,714.083635,716.58159,0,3,3,3,1,8,7,1,html/resources/stimuli_practice_decision/03_squirrel.jpg,html/resources/stimuli_practice_decision/05_glasses.jpg,squirrel,glasses,,,,,,,,,,,,,,,,,,,,,,,,,,,,,,,,,,,,,,,,,,,,,,,,,,,,,,,,,,,,,,,,,,,,,,,,,,,,,
,,,,,41,2020-07-03_16h23.22.508,retriever_ti,2020.1.3,Linux x86_64,60,Chrome,1366,768,717.58405,13,left,1.324575,canary,1,717.618125,717.618125,720.115265,0,4,4,4,1,5,3,1,html/resources/stimuli_practice_decision/02_canary.jpg,html/resources/stimuli_practice_decision/07_sock.jpg,canary,sock,,,,,,,,,,,,,,,,,,,,,,,,,,,,,,,,,,,,,,,,,,,,,,,,,,,,,,,,,,,,,,,,,,,,,,,,,,,,,
,,,,,41,2020-07-03_16h23.22.508,retriever_ti,2020.1.3,Linux x86_64,60,Chrome,1366,768,720.631955,14,right,1.14198,squirrel,1,720.65097,720.65097,723.148,0,5,5,5,1,7,8,1,html/resources/stimuli_practice_decision/05_glasses.jpg,html/resources/stimuli_practice_decision/03_squirrel.jpg,glasses,squirrel,,,,,,,,,,,,,,,,,,,,,,,,,,,,,,,,,,,,,,,,,,,,,,,,,,,,,,,,,,,,,,,,,,,,,,,,,,,,,
,,,,,41,2020-07-03_16h23.22.508,retriever_ti,2020.1.3,Linux x86_64,60,Chrome,1366,768,724.149855,15,right,1.07149,rabbit,0,724.18673,724.18673,726.680995,0,6,6,6,1,5,4,1,html/resources/stimuli_practice_decision/02_canary.jpg,html/resources/stimuli_practice_decision/01_rabbit.jpg,canary,rabbit,,,,,,,,,,,,,,,,,,,,,,,,,,,,,,,,,,,,,,,,,,,,,,,,,,,,,,,,,,,,,,,,,,,,,,,,,,,,,
,,,,,41,2020-07-03_16h23.22.508,retriever_ti,2020.1.3,Linux x86_64,60,Chrome,1366,768,727.730285,16,left,1.11815,canary,1,727.750875,727.750875,730.24799,0,7,7,7,1,5,3,1,html/resources/stimuli_practice_decision/02_canary.jpg,html/resources/stimuli_practice_decision/07_sock.jpg,canary,sock,,,,,,,,,,,,,,,,,,,,,,,,,,,,,,,,,,,,,,,,,,,,,,,,,,,,,,,,,,,,,,,,,,,,,,,,,,,,,
,,,,,41,2020-07-03_16h23.22.508,retriever_ti,2020.1.3,Linux x86_64,60,Chrome,1366,768,,,,,,,,,,,,,,,,,,,,,,left,1,2.28223,1,0,0,0,2,1,html/resources/sequences_IDs/square1.png,star ↑,triangle →,circle ↓,← square,left,,,,,,,,,,,,,,,,,,,,,,,,,,,,,,,,,,,,,,,,,,,,,,,,,,,,,,,,,,,,,,
,,,,,41,2020-07-03_16h23.22.508,retriever_ti,2020.1.3,Linux x86_64,60,Chrome,1366,768,,,,,,,,,,,,,,,,,,,,,,up,1,2.15809,1,0,1,1,0,1,html/resources/sequences_IDs/circle.png,circle ↑,square →,triangle ↓,← star ,up,,,,,,,,,,,,,,,,,,,,,,,,,,,,,,,,,,,,,,,,,,,,,,,,,,,,,,,,,,,,,,
,,,,,41,2020-07-03_16h23.22.508,retriever_ti,2020.1.3,Linux x86_64,60,Chrome,1366,768,,,,,,,,,,,,,,,,,,,,,,down,1,2.03038,1,0,2,2,3,1,html/resources/sequences_IDs/triangle.png,star ↑,square →,triangle ↓,← circle,down,,,,,,,,,,,,,,,,,,,,,,,,,,,,,,,,,,,,,,,,,,,,,,,,,,,,,,,,,,,,,,
,,,,,41,2020-07-03_16h23.22.508,retriever_ti,2020.1.3,Linux x86_64,60,Chrome,1366,768,,,,,,,,,,,,,,,,,,,,,,down,1,2.04323,1,0,3,3,1,1,html/resources/sequences_IDs/star.png,square ↑,circle →,star ↓,← triangle,down,,,,,,,,,,,,,,,,,,,,,,,,,,,,,,,,,,,,,,,,,,,,,,,,,,,,,,,,,,,,,,
,,,,,41,2020-07-03_16h23.22.508,retriever_ti,2020.1.3,Linux x86_64,60,Chrome,1366,768,,,,,,,,,,,,,,,,,,,,,,,,,,,,,,,,,,,,,0,3.222365,1,0,1,0,1,,,,,,,,,,,,,,,,,,,,,,,,,,,,,,,,,,,,,,,,,,,,,,,,,,,,,,,
,,,,,41,2020-07-03_16h23.22.508,retriever_ti,2020.1.3,Linux x86_64,60,Chrome,1366,768,,,,,,,,,,,,,,,,,1,,,,,,,,,,,,,,,,,,,,,,,,,,,1040.55393,1,right,0.758595,giraffe     ,5,3,4,1,3,1040.58784,1040.58784,1043.084585,0,0,0,0,1,1,1,5,radio       ,giraffe     ,html/resources/sequences_IDs/B/10_radio.jpg,html/resources/sequences_IDs/B/03_giraffe.jpg,10,3,4,2,1,1,8,2,0,41,,,,,,,,,,,,,,,,,,,,
,,,,,41,2020-07-03_16h23.22.508,retriever_ti,2020.1.3,Linux x86_64,60,Chrome,1366,768,,,,,,,,,,,,,,,,,1,,,,,,,,,,,,,,,,,,,,,,,,,,,1043.7191,2,right,0.975985,clownfish     ,8,4,4,1,3,1043.75199,1043.75199,1046.25044,0,1,1,1,1,2,4,8,seaturtle     ,clownfish     ,html/resources/sequences_IDs/A/02_seaturtle.jpg,html/resources/sequences_IDs/A/04_clownfish.jpg,2,4,2,1,2,1,1,3,0,41,,,,,,,,,,,,,,,,,,,,
,,,,,41,2020-07-03_16h23.22.508,retriever_ti,2020.1.3,Linux x86_64,60,Chrome,1366,768,,,,,,,,,,,,,,,,,1,,,,,,,,,,,,,,,,,,,,,,,,,,,1046.868595,3,left,1.07012,phone       ,3,9,-3,0,3,1046.885665,1046.885665,1049.383,0,2,2,2,1,3,3,6,phone       ,hat           ,html/resources/sequences_IDs/B/09_phone.jpg,html/resources/sequences_IDs/A/08_hat.jpg,9,8,4,2,3,2,7,6,0,41,,,,,,,,,,,,,,,,,,,,
,,,,,41,2020-07-03_16h23.22.508,retriever_ti,2020.1.3,Linux x86_64,60,Chrome,1366,768,,,,,,,,,,,,,,,,,1,,,,,,,,,,,,,,,,,,,,,,,,,,,1050.001165,4,right,1.190695,hat           ,6,8,2,1,3,1050.019835,1050.019835,1052.51623,0,3,3,3,1,4,4,6,seaturtle     ,hat           ,html/resources/sequences_IDs/A/02_seaturtle.jpg,html/resources/sequences_IDs/A/08_hat.jpg,2,8,2,1,3,2,1,6,0,41,,,,,,,,,,,,,,,,,,,,
,,,,,41,2020-07-03_16h23.22.508,retriever_ti,2020.1.3,Linux x86_64,60,Chrome,1366,768,,,,,,,,,,,,,,,,,1,,,,,,,,,,,,,,,,,,,,,,,,,,,1053.13474,5,left,0.947905,giraffe     ,5,3,-1,0,1,1053.152375,1053.152375,1055.653065,0,4,4,4,1,5,5,6,giraffe     ,hat           ,html/resources/sequences_IDs/B/03_giraffe.jpg,html/resources/sequences_IDs/A/08_hat.jpg,3,8,1,1,3,2,2,6,1,41,,,,,,,,,,,,,,,,,,,,
,,,,,41,2020-07-03_16h23.22.508,retriever_ti,2020.1.3,Linux x86_64,60,Chrome,1366,768,,,,,,,,,,,,,,,,,1,,,,,,,,,,,,,,,,,,,,,,,,,,,1056.851085,6,left,0.9548,giraffe     ,5,3,1,1,1,1056.87001,1056.87001,1059.368485,0,5,5,5,1,6,5,4,giraffe     ,seaturtle     ,html/resources/sequences_IDs/B/03_giraffe.jpg,html/resources/sequences_IDs/A/02_seaturtle.jpg,3,2,1,1,2,1,2,1,0,41,,,,,,,,,,,,,,,,,,,,
,,,,,41,2020-07-03_16h23.22.508,retriever_ti,2020.1.3,Linux x86_64,60,Chrome,1366,768,,,,,,,,,,,,,,,,,1,,,,,,,,,,,,,,,,,,,,,,,,,,,1060.46883,7,right,0.92384,giraffe     ,5,3,1,1,0,1060.502045,1060.502045,1063.00054,0,6,6,6,1,7,4,5,seaturtle     ,giraffe     ,html/resources/sequences_IDs/A/02_seaturtle.jpg,html/resources/sequences_IDs/B/03_giraffe.jpg,2,3,2,1,1,1,1,2,1,41,,,,,,,,,,,,,,,,,,,,
,,,,,41,2020-07-03_16h23.22.508,retriever_ti,2020.1.3,Linux x86_64,60,Chrome,1366,768,,,,,,,,,,,,,,,,,1,,,,,,,,,,,,,,,,,,,,,,,,,,,1064.101045,8,right,0.891275,radio       ,1,10,-1,0,1,1064.13698,1064.13698,1066.63178,0,7,7,7,1,8,2,1,peacock       ,radio       ,html/resources/sequences_IDs/A/05_peacock.jpg,html/resources/sequences_IDs/B/10_radio.jpg,5,10,2,1,4,2,4,8,1,41,,,,,,,,,,,,,,,,,,,,
,,,,,41,2020-07-03_16h23.22.508,retriever_ti,2020.1.3,Linux x86_64,60,Chrome,1366,768,,,,,,,,,,,,,,,,,1,,,,,,,,,,,,,,,,,,,,,,,,,,,1067.7342,9,left,1.265495,seaturtle     ,4,2,1,1,1,1067.751095,1067.751095,1070.24912,0,8,8,8,1,9,4,3,seaturtle     ,phone       ,html/resources/sequences_IDs/A/02_seaturtle.jpg,html/resources/sequences_IDs/B/09_phone.jpg,2,9,2,1,4,2,1,7,0,41,,,,,,,,,,,,,,,,,,,,
,,,,,41,2020-07-03_16h23.22.508,retriever_ti,2020.1.3,Linux x86_64,60,Chrome,1366,768,,,,,,,,,,,,,,,,,1,,,,,,,,,,,,,,,,,,,,,,,,,,,1071.350785,10,right,0.9293,giraffe     ,5,3,2,1,3,1071.38515,1071.38515,1073.88155,0,9,9,9,1,10,3,5,phone       ,giraffe     ,html/resources/sequences_IDs/B/09_phone.jpg,html/resources/sequences_IDs/B/03_giraffe.jpg,9,3,4,2,1,1,7,2,0,41,,,,,,,,,,,,,,,,,,,,
,,,,,41,2020-07-03_16h23.22.508,retriever_ti,2020.1.3,Linux x86_64,60,Chrome,1366,768,,,,,,,,,,,,,,,,,1,,,,,,,,,,,,,,,,,,,,,,,,,,,1074.499615,11,left,1.06526,radio       ,1,10,-3,0,3,1074.51783,1074.51783,1077.015215,0,10,10,10,1,11,1,4,radio       ,seaturtle     ,html/resources/sequences_IDs/B/10_radio.jpg,html/resources/sequences_IDs/A/02_seaturtle.jpg,10,2,4,2,2,1,8,1,0,41,,,,,,,,,,,,,,,,,,,,
,,,,,41,2020-07-03_16h23.22.508,retriever_ti,2020.1.3,Linux x86_64,60,Chrome,1366,768,,,,,,,,,,,,,,,,,1,,,,,,,,,,,,,,,,,,,,,,,,,,,1077.635565,12,right,0.970655,hat           ,6,8,-2,0,3,1077.669765,1077.669765,1080.175015,0,11,11,11,1,12,8,6,clownfish     ,hat           ,html/resources/sequences_IDs/A/04_clownfish.jpg,html/resources/sequences_IDs/A/08_hat.jpg,4,8,2,1,3,2,3,6,0,41,,,,,,,,,,,,,,,,,,,,
,,,,,41,2020-07-03_16h23.22.508,retriever_ti,2020.1.3,Linux x86_64,60,Chrome,1366,768,,,,,,,,,,,,,,,,,1,,,,,,,,,,,,,,,,,,,,,,,,,,,1080.785815,13,right,0.786615,giraffe     ,5,3,1,1,1,1080.82014,1080.82014,1083.31502,0,12,12,12,1,13,4,5,seaturtle     ,giraffe     ,html/resources/sequences_IDs/A/02_seaturtle.jpg,html/resources/sequences_IDs/B/03_giraffe.jpg,2,3,2,1,1,1,1,2,0,41,,,,,,,,,,,,,,,,,,,,
,,,,,41,2020-07-03_16h23.22.508,retriever_ti,2020.1.3,Linux x86_64,60,Chrome,1366,768,,,,,,,,,,,,,,,,,1,,,,,,,,,,,,,,,,,,,,,,,,,,,1084.416735,14,right,0.922755,radio       ,1,10,-1,0,0,1084.4497,1084.4497,1086.95008,0,13,13,13,1,14,2,1,peacock       ,radio       ,html/resources/sequences_IDs/A/05_peacock.jpg,html/resources/sequences_IDs/B/10_radio.jpg,5,10,2,1,4,2,4,8,0,41,,,,,,,,,,,,,,,,,,,,
,,,,,41,2020-07-03_16h23.22.508,retriever_ti,2020.1.3,Linux x86_64,60,Chrome,1366,768,,,,,,,,,,,,,,,,,1,,,,,,,,,,,,,,,,,,,,,,,,,,,1088.051855,15,right,0.80465,giraffe     ,5,3,-3,0,3,1088.071305,1088.071305,1090.56413,0,14,14,14,1,15,8,5,clownfish     ,giraffe     ,html/resources/sequences_IDs/A/04_clownfish.jpg,html/resources/sequences_IDs/B/03_giraffe.jpg,4,3,2,1,1,1,3,2,0,41,,,,,,,,,,,,,,,,,,,,
,,,,,41,2020-07-03_16h23.22.508,retriever_ti,2020.1.3,Linux x86_64,60,Chrome,1366,768,,,,,,,,,,,,,,,,,1,,,,,,,,,,,,,,,,,,,,,,,,,,,1091.1823,16,right,1.16274,peacock       ,2,5,-6,0,3,1091.200225,1091.200225,1093.69743,0,15,15,15,1,16,8,2,clownfish     ,peacock       ,html/resources/sequences_IDs/A/04_clownfish.jpg,html/resources/sequences_IDs/A/05_peacock.jpg,4,5,2,1,2,1,3,4,0,41,,,,,,,,,,,,,,,,,,,,
,,,,,41,2020-07-03_16h23.22.508,retriever_ti,2020.1.3,Linux x86_64,60,Chrome,1366,768,,,,,,,,,,,,,,,,,1,,,,,,,,,,,,,,,,,,,,,,,,,,,1094.299965,17,right,1.005725,phone       ,3,9,-5,0,3,1094.316615,1094.316615,1096.814525,0,16,16,16,1,17,8,3,clownfish     ,phone       ,html/resources/sequences_IDs/A/04_clownfish.jpg,html/resources/sequences_IDs/B/09_phone.jpg,4,9,2,1,4,2,3,7,0,41,,,,,,,,,,,,,,,,,,,,
,,,,,41,2020-07-03_16h23.22.508,retriever_ti,2020.1.3,Linux x86_64,60,Chrome,1366,768,,,,,,,,,,,,,,,,,1,,,,,,,,,,,,,,,,,,,,,,,,,,,1097.44822,18,NaN,NaN,No_response,NaN,NaN,NaN,2,2,1097.467605,1097.467605,1100.41483,0,17,17,17,1,18,6,4,hat           ,seaturtle     ,html/resources/sequences_IDs/A/08_hat.jpg,html/resources/sequences_IDs/A/02_seaturtle.jpg,8,2,3,2,2,1,6,1,0,41,,,,,,,,,,,,,,,,,,,,
,,,,,41,2020-07-03_16h23.22.508,retriever_ti,2020.1.3,Linux x86_64,60,Chrome,1366,768,,,,,,,,,,,,,,,,,1,,,,,,,,,,,,,,,,,,,,,,,,,,,1101.513605,19,right,0.06072,sport_tshirt,7,7,1,1,1,1101.67535,1101.67535,1104.16399,0,18,18,18,1,19,6,7,hat           ,sport_tshirt,html/resources/sequences_IDs/A/08_hat.jpg,html/resources/sequences_IDs/B/07_sport_tshirt.jpg,8,7,3,2,3,2,6,5,0,41,,,,,,,,,,,,,,,,,,,,
,,,,,41,2020-07-03_16h23.22.508,retriever_ti,2020.1.3,Linux x86_64,60,Chrome,1366,768,,,,,,,,,,,,,,,,,1,,,,,,,,,,,,,,,,,,,,,,,,,,,1105.265225,20,right,0.7895,radio       ,1,10,-6,0,3,1105.28436,1105.28436,1107.780055,0,19,19,19,1,20,7,1,sport_tshirt,radio       ,html/resources/sequences_IDs/B/07_sport_tshirt.jpg,html/resources/sequences_IDs/B/10_radio.jpg,7,10,3,2,4,2,5,8,0,41,,,,,,,,,,,,,,,,,,,,
,,,,,41,2020-07-03_16h23.22.508,retriever_ti,2020.1.3,Linux x86_64,60,Chrome,1366,768,,,,,,,,,,,,,,,,,1,,,,,,,,,,,,,,,,,,,,,,,,,,,1108.397535,21,right,0.93595,phone       ,3,9,-3,0,3,1108.433435,1108.433435,1110.930065,0,20,20,20,1,21,6,3,hat           ,phone       ,html/resources/sequences_IDs/A/08_hat.jpg,html/resources/sequences_IDs/B/09_phone.jpg,8,9,3,2,4,2,6,7,0,41,,,,,,,,,,,,,,,,,,,,
,,,,,41,2020-07-03_16h23.22.508,retriever_ti,2020.1.3,Linux x86_64,60,Chrome,1366,768,,,,,,,,,,,,,,,,,1,,,,,,,,,,,,,,,,,,,,,,,,,,,1111.548885,22,left,0.92754,peacock       ,2,5,-1,0,0,1111.568395,1111.568395,1114.062835,0,21,21,21,1,22,2,3,peacock       ,phone       ,html/resources/sequences_IDs/A/05_peacock.jpg,html/resources/sequences_IDs/B/09_phone.jpg,5,9,2,1,4,2,4,7,0,41,,,,,,,,,,,,,,,,,,,,
,,,,,41,2020-07-03_16h23.22.508,retriever_ti,2020.1.3,Linux x86_64,60,Chrome,1366,768,,,,,,,,,,,,,,,,,1,,,,,,,,,,,,,,,,,,,,,,,,,,,1115.163825,23,left,0.980375,clownfish     ,8,4,1,1,1,1115.1825,1115.1825,1117.680765,0,22,22,22,1,23,8,7,clownfish     ,sport_tshirt,html/resources/sequences_IDs/A/04_clownfish.jpg,html/resources/sequences_IDs/B/07_sport_tshirt.jpg,4,7,2,1,3,2,3,5,0,41,,,,,,,,,,,,,,,,,,,,
,,,,,41,2020-07-03_16h23.22.508,retriever_ti,2020.1.3,Linux x86_64,60,Chrome,1366,768,,,,,,,,,,,,,,,,,1,,,,,,,,,,,,,,,,,,,,,,,,,,,1118.799775,24,left,0.97377,phone       ,3,9,-1,0,0,1118.81763,1118.81763,1121.313575,0,23,23,23,1,24,3,4,phone       ,seaturtle     ,html/resources/sequences_IDs/B/09_phone.jpg,html/resources/sequences_IDs/A/02_seaturtle.jpg,9,2,4,2,2,1,7,1,0,41,,,,,,,,,,,,,,,,,,,,
,,,,,41,2020-07-03_16h23.22.508,retriever_ti,2020.1.3,Linux x86_64,60,Chrome,1366,768,,,,,,,,,,,,,,,,,1,,,,,,,,,,,,,,,,,,,,,,,,,,,1122.41507,25,right,1.17513,peacock       ,2,5,-1,0,0,1122.43247,1122.43247,1124.929675,0,24,24,24,1,25,3,2,phone       ,peacock       ,html/resources/sequences_IDs/B/09_phone.jpg,html/resources/sequences_IDs/A/05_peacock.jpg,9,5,4,2,2,1,7,4,0,41,,,,,,,,,,,,,,,,,,,,
,,,,,41,2020-07-03_16h23.22.508,retriever_ti,2020.1.3,Linux x86_64,60,Chrome,1366,768,,,,,,,,,,,,,,,,,1,,,,,,,,,,,,,,,,,,,,,,,,,,,1126.032505,26,right,1.118035,phone       ,3,9,2,1,3,1126.06606,1126.06606,1128.562385,0,25,25,25,1,26,1,3,radio       ,phone       ,html/resources/sequences_IDs/B/10_radio.jpg,html/resources/sequences_IDs/B/09_phone.jpg,10,9,4,2,4,2,8,7,0,41,,,,,,,,,,,,,,,,,,,,
,,,,,41,2020-07-03_16h23.22.508,retriever_ti,2020.1.3,Linux x86_64,60,Chrome,1366,768,,,,,,,,,,,,,,,,,1,,,,,,,,,,,,,,,,,,,,,,,,,,,1129.180225,27,right,0.81329,giraffe     ,5,3,1,1,1,1129.1987,1129.1987,1131.69693,0,26,26,26,1,27,4,5,seaturtle     ,giraffe     ,html/resources/sequences_IDs/A/02_seaturtle.jpg,html/resources/sequences_IDs/B/03_giraffe.jpg,2,3,2,1,1,1,1,2,0,41,,,,,,,,,,,,,,,,,,,,
,,,,,41,2020-07-03_16h23.22.508,retriever_ti,2020.1.3,Linux x86_64,60,Chrome,1366,768,,,,,,,,,,,,,,,,,1,,,,,,,,,,,,,,,,,,,,,,,,,,,1132.798095,28,right,0.84965,giraffe     ,5,3,3,1,3,1132.831025,1132.831025,1135.329575,0,27,27,27,1,28,2,5,peacock       ,giraffe     ,html/resources/sequences_IDs/A/05_peacock.jpg,html/resources/sequences_IDs/B/03_giraffe.jpg,5,3,2,1,1,1,4,2,0,41,,,,,,,,,,,,,,,,,,,,
,,,,,41,2020-07-03_16h23.22.508,retriever_ti,2020.1.3,Linux x86_64,60,Chrome,1366,768,,,,,,,,,,,,,,,,,1,,,,,,,,,,,,,,,,,,,,,,,,,,,1135.947675,29,right,0.77338,giraffe     ,5,3,-1,0,0,1135.96606,1135.96606,1138.462225,0,28,28,28,1,29,6,5,hat           ,giraffe     ,html/resources/sequences_IDs/A/08_hat.jpg,html/resources/sequences_IDs/B/03_giraffe.jpg,8,3,3,2,1,1,6,2,0,41,,,,,,,,,,,,,,,,,,,,
,,,,,41,2020-07-03_16h23.22.508,retriever_ti,2020.1.3,Linux x86_64,60,Chrome,1366,768,,,,,,,,,,,,,,,,,1,,,,,,,,,,,,,,,,,,,,,,,,,,,1139.564055,30,left,0.991765,clownfish     ,8,4,1,1,0,1139.59897,1139.59897,1142.096955,0,29,29,29,1,30,8,7,clownfish     ,sport_tshirt,html/resources/sequences_IDs/A/04_clownfish.jpg,html/resources/sequences_IDs/B/07_sport_tshirt.jpg,4,7,2,1,3,2,3,5,1,41,,,,,,,,,,,,,,,,,,,,
,,,,,41,2020-07-03_16h23.22.508,retriever_ti,2020.1.3,Linux x86_64,60,Chrome,1366,768,,,,,,,,,,,,,,,,,1,,,,,,,,,,,,,,,,,,,,,,,,,,,1143.20249,31,left,0.942415,giraffe     ,5,3,1,1,1,1143.25242,1143.25242,1145.74509,0,30,30,30,1,31,5,4,giraffe     ,seaturtle     ,html/resources/sequences_IDs/B/03_giraffe.jpg,html/resources/sequences_IDs/A/02_seaturtle.jpg,3,2,1,1,2,1,2,1,0,41,,,,,,,,,,,,,,,,,,,,
,,,,,41,2020-07-03_16h23.22.508,retriever_ti,2020.1.3,Linux x86_64,60,Chrome,1366,768,,,,,,,,,,,,,,,,,1,,,,,,,,,,,,,,,,,,,,,,,,,,,1146.84687,32,right,0.7807,giraffe     ,5,3,-2,0,3,1146.88258,1146.88258,1149.3784,0,31,31,31,1,32,7,5,sport_tshirt,giraffe     ,html/resources/sequences_IDs/B/07_sport_tshirt.jpg,html/resources/sequences_IDs/B/03_giraffe.jpg,7,3,3,2,1,1,5,2,0,41,,,,,,,,,,,,,,,,,,,,
,,,,,41,2020-07-03_16h23.22.508,retriever_ti,2020.1.3,Linux x86_64,60,Chrome,1366,768,,,,,,,,,,,,,,,,,1,,,,,,,,,,,,,,,,,,,,,,,,,,,1149.996855,33,left,0.74273,phone       ,3,9,-4,0,3,1150.03192,1150.03192,1152.528015,0,32,32,32,1,33,3,7,phone       ,sport_tshirt,html/resources/sequences_IDs/B/09_phone.jpg,html/resources/sequences_IDs/B/07_sport_tshirt.jpg,9,7,4,2,3,2,7,5,0,41,,,,,,,,,,,,,,,,,,,,
,,,,,41,2020-07-03_16h23.22.508,retriever_ti,2020.1.3,Linux x86_64,60,Chrome,1366,768,,,,,,,,,,,,,,,,,1,,,,,,,,,,,,,,,,,,,,,,,,,,,1153.146765,34,left,1.051705,peacock       ,2,5,-5,0,3,1153.180075,1153.180075,1155.678295,0,33,33,33,1,34,2,7,peacock       ,sport_tshirt,html/resources/sequences_IDs/A/05_peacock.jpg,html/resources/sequences_IDs/B/07_sport_tshirt.jpg,5,7,2,1,3,2,4,5,0,41,,,,,,,,,,,,,,,,,,,,
,,,,,41,2020-07-03_16h23.22.508,retriever_ti,2020.1.3,Linux x86_64,60,Chrome,1366,768,,,,,,,,,,,,,,,,,1,,,,,,,,,,,,,,,,,,,,,,,,,,,1156.29524,35,right,0.87897,seaturtle     ,4,2,-3,0,3,1156.330755,1156.330755,1158.82782,0,34,34,34,1,35,7,4,sport_tshirt,seaturtle     ,html/resources/sequences_IDs/B/07_sport_tshirt.jpg,html/resources/sequences_IDs/A/02_seaturtle.jpg,7,2,3,2,2,1,5,1,0,41,,,,,,,,,,,,,,,,,,,,
,,,,,41,2020-07-03_16h23.22.508,retriever_ti,2020.1.3,Linux x86_64,60,Chrome,1366,768,,,,,,,,,,,,,,,,,1,,,,,,,,,,,,,,,,,,,,,,,,,,,1159.437115,36,left,0.58207,seaturtle     ,4,2,-3,0,3,1159.45299,1159.45299,1161.944745,0,35,35,35,1,36,4,7,seaturtle     ,sport_tshirt,html/resources/sequences_IDs/A/02_seaturtle.jpg,html/resources/sequences_IDs/B/07_sport_tshirt.jpg,2,7,2,1,3,2,1,5,0,41,,,,,,,,,,,,,,,,,,,,
,,,,,41,2020-07-03_16h23.22.508,retriever_ti,2020.1.3,Linux x86_64,60,Chrome,1366,768,,,,,,,,,,,,,,,,,1,,,,,,,,,,,,,,,,,,,,,,,,,,,1162.562455,37,left,1.02012,giraffe     ,5,3,-1,0,0,1162.58022,1162.58022,1165.06647,0,36,36,36,1,37,5,6,giraffe     ,hat           ,html/resources/sequences_IDs/B/03_giraffe.jpg,html/resources/sequences_IDs/A/08_hat.jpg,3,8,1,1,3,2,2,6,0,41,,,,,,,,,,,,,,,,,,,,
,,,,,41,2020-07-03_16h23.22.508,retriever_ti,2020.1.3,Linux x86_64,60,Chrome,1366,768,,,,,,,,,,,,,,,,,1,,,,,,,,,,,,,,,,,,,,,,,,,,,1166.15908,38,right,0.924945,peacock       ,2,5,1,1,1,1166.222195,1166.222195,1168.71095,0,37,37,37,1,38,1,2,radio       ,peacock       ,html/resources/sequences_IDs/B/10_radio.jpg,html/resources/sequences_IDs/A/05_peacock.jpg,10,5,4,2,2,1,8,4,0,41,,,,,,,,,,,,,,,,,,,,
,,,,,41,2020-07-03_16h23.22.508,retriever_ti,2020.1.3,Linux x86_64,60,Chrome,1366,768,,,,,,,,,,,,,,,,,1,,,,,,,,,,,,,,,,,,,,,,,,,,,1169.81317,39,left,0.855805,phone       ,3,9,-1,0,0,1169.848585,1169.848585,1172.345225,0,38,38,38,1,39,3,4,phone       ,seaturtle     ,html/resources/sequences_IDs/B/09_phone.jpg,html/resources/sequences_IDs/A/02_seaturtle.jpg,9,2,4,2,2,1,7,1,0,41,,,,,,,,,,,,,,,,,,,,
,,,,,41,2020-07-03_16h23.22.508,retriever_ti,2020.1.3,Linux x86_64,60,Chrome,1366,768,,,,,,,,,,,,,,,,,1,,,,,,,,,,,,,,,,,,,,,,,,,,,1173.44696,40,right,0.88615,peacock       ,2,5,1,1,1,1173.46471,1173.46471,1175.960295,0,39,39,39,1,40,1,2,radio       ,peacock       ,html/resources/sequences_IDs/B/10_radio.jpg,html/resources/sequences_IDs/A/05_peacock.jpg,10,5,4,2,2,1,8,4,0,41,,,,,,,,,,,,,,,,,,,,
,,,,,41,2020-07-03_16h23.22.508,retriever_ti,2020.1.3,Linux x86_64,60,Chrome,1366,768,,,,,,,,,,,,,,,,,1,,,,,,,,,,,,,,,,,,,,,,,,,,,1177.062385,41,right,0.90487,phone       ,3,9,1,1,1,1177.079575,1177.079575,1179.576705,0,40,40,40,1,41,2,3,peacock       ,phone       ,html/resources/sequences_IDs/A/05_peacock.jpg,html/resources/sequences_IDs/B/09_phone.jpg,5,9,2,1,4,2,4,7,0,41,,,,,,,,,,,,,,,,,,,,
,,,,,41,2020-07-03_16h23.22.508,retriever_ti,2020.1.3,Linux x86_64,60,Chrome,1366,768,,,,,,,,,,,,,,,,,1,,,,,,,,,,,,,,,,,,,,,,,,,,,1180.678975,42,left,0.87385,peacock       ,2,5,-6,0,3,1180.712525,1180.712525,1183.21044,0,41,41,41,1,42,2,8,peacock       ,clownfish     ,html/resources/sequences_IDs/A/05_peacock.jpg,html/resources/sequences_IDs/A/04_clownfish.jpg,5,4,2,1,2,1,4,3,0,41,,,,,,,,,,,,,,,,,,,,
,,,,,41,2020-07-03_16h23.22.508,retriever_ti,2020.1.3,Linux x86_64,60,Chrome,1366,768,,,,,,,,,,,,,,,,,1,,,,,,,,,,,,,,,,,,,,,,,,,,,1183.828125,43,left,0.955095,radio       ,1,10,-6,0,3,1183.863145,1183.863145,1186.36066,0,42,42,42,1,43,1,7,radio       ,sport_tshirt,html/resources/sequences_IDs/B/10_radio.jpg,html/resources/sequences_IDs/B/07_sport_tshirt.jpg,10,7,4,2,3,2,8,5,0,41,,,,,,,,,,,,,,,,,,,,
,,,,,41,2020-07-03_16h23.22.508,retriever_ti,2020.1.3,Linux x86_64,60,Chrome,1366,768,,,,,,,,,,,,,,,,,1,,,,,,,,,,,,,,,,,,,,,,,,,,,1186.978905,44,right,0.798145,phone       ,3,9,1,1,0,1187.01245,1187.01245,1189.748155,0,43,43,43,1,44,2,3,peacock       ,phone       ,html/resources/sequences_IDs/A/05_peacock.jpg,html/resources/sequences_IDs/B/09_phone.jpg,5,9,2,1,4,2,4,7,1,41,,,,,,,,,,,,,,,,,,,,
,,,,,41,2020-07-03_16h23.22.508,retriever_ti,2020.1.3,Linux x86_64,60,Chrome,1366,768,,,,,,,,,,,,,,,,,1,,,,,,,,,,,,,,,,,,,,,,,,,,,1190.84499,45,right,0.85122,hat           ,6,8,5,1,3,1190.87859,1190.87859,1193.37625,0,44,44,44,1,45,1,6,radio       ,hat           ,html/resources/sequences_IDs/B/10_radio.jpg,html/resources/sequences_IDs/A/08_hat.jpg,10,8,4,2,3,2,8,6,0,41,,,,,,,,,,,,,,,,,,,,
,,,,,41,2020-07-03_16h23.22.508,retriever_ti,2020.1.3,Linux x86_64,60,Chrome,1366,768,,,,,,,,,,,,,,,,,1,,,,,,,,,,,,,,,,,,,,,,,,,,,1193.993765,46,left,0.66989,sport_tshirt,7,7,-1,0,0,1194.012965,1194.012965,1196.5093,0,45,45,45,1,46,7,8,sport_tshirt,clownfish     ,html/resources/sequences_IDs/B/07_sport_tshirt.jpg,html/resources/sequences_IDs/A/04_clownfish.jpg,7,4,3,2,2,1,5,3,0,41,,,,,,,,,,,,,,,,,,,,
,,,,,41,2020-07-03_16h23.22.508,retriever_ti,2020.1.3,Linux x86_64,60,Chrome,1366,768,,,,,,,,,,,,,,,,,1,,,,,,,,,,,,,,,,,,,,,,,,,,,1197.611845,47,left,0.696595,giraffe     ,5,3,2,1,3,1197.645405,1197.645405,1200.142755,0,46,46,46,1,47,5,3,giraffe     ,phone       ,html/resources/sequences_IDs/B/03_giraffe.jpg,html/resources/sequences_IDs/B/09_phone.jpg,3,9,1,1,4,2,2,7,0,41,,,,,,,,,,,,,,,,,,,,
,,,,,41,2020-07-03_16h23.22.508,retriever_ti,2020.1.3,Linux x86_64,60,Chrome,1366,768,,,,,,,,,,,,,,,,,1,,,,,,,,,,,,,,,,,,,,,,,,,,,1200.7466,48,right,0.801265,peacock       ,2,5,-5,0,3,1200.761055,1200.761055,1203.25922,0,47,47,47,1,48,7,2,sport_tshirt,peacock       ,html/resources/sequences_IDs/B/07_sport_tshirt.jpg,html/resources/sequences_IDs/A/05_peacock.jpg,7,5,3,2,2,1,5,4,0,41,,,,,,,,,,,,,,,,,,,,
,,,,,41,2020-07-03_16h23.22.508,retriever_ti,2020.1.3,Linux x86_64,60,Chrome,1366,768,,,,,,,,,,,,,,,,,1,,,,,,,,,,,,,,,,,,,,,,,,,,,1203.87691,49,left,0.60908,hat           ,6,8,5,1,3,1203.962045,1203.962045,1206.45878,0,48,48,48,1,49,6,1,hat           ,radio       ,html/resources/sequences_IDs/A/08_hat.jpg,html/resources/sequences_IDs/B/10_radio.jpg,8,10,3,2,4,2,6,8,0,41,,,,,,,,,,,,,,,,,,,,
,,,,,41,2020-07-03_16h23.22.508,retriever_ti,2020.1.3,Linux x86_64,60,Chrome,1366,768,,,,,,,,,,,,,,,,,1,,,,,,,,,,,,,,,,,,,,,,,,,,,1207.06165,50,right,0.732605,clownfish     ,8,4,1,1,1,1207.078765,1207.078765,1209.575245,0,49,49,49,1,50,7,8,sport_tshirt,clownfish     ,html/resources/sequences_IDs/B/07_sport_tshirt.jpg,html/resources/sequences_IDs/A/04_clownfish.jpg,7,4,3,2,2,1,5,3,0,41,,,,,,,,,,,,,,,,,,,,
,,,,,41,2020-07-03_16h23.22.508,retriever_ti,2020.1.3,Linux x86_64,60,Chrome,1366,768,,,,,,,,,,,,,,,,,1,,,,,,,,,,,,,,,,,,,,,,,,,,,1210.676965,51,left,0.679015,giraffe     ,5,3,-3,0,3,1210.71117,1210.71117,1213.20887,0,50,50,50,1,51,5,8,giraffe     ,clownfish     ,html/resources/sequences_IDs/B/03_giraffe.jpg,html/resources/sequences_IDs/A/04_clownfish.jpg,3,4,1,1,2,1,2,3,0,41,,,,,,,,,,,,,,,,,,,,
,,,,,41,2020-07-03_16h23.22.508,retriever_ti,2020.1.3,Linux x86_64,60,Chrome,1366,768,,,,,,,,,,,,,,,,,1,,,,,,,,,,,,,,,,,,,,,,,,,,,1213.827685,52,right,0.66353,phone       ,3,9,-1,0,1,1213.864565,1213.864565,1216.359495,0,51,51,51,1,52,4,3,seaturtle     ,phone       ,html/resources/sequences_IDs/A/02_seaturtle.jpg,html/resources/sequences_IDs/B/09_phone.jpg,2,9,2,1,4,2,1,7,1,41,,,,,,,,,,,,,,,,,,,,
,,,,,41,2020-07-03_16h23.22.508,retriever_ti,2020.1.3,Linux x86_64,60,Chrome,1366,768,,,,,,,,,,,,,,,,,1,,,,,,,,,,,,,,,,,,,,,,,,,,,1217.49718,53,right,0.642665,hat           ,6,8,-1,0,1,1217.51316,1217.51316,1220.00892,0,52,52,52,1,53,7,6,sport_tshirt,hat           ,html/resources/sequences_IDs/B/07_sport_tshirt.jpg,html/resources/sequences_IDs/A/08_hat.jpg,7,8,3,2,3,2,5,6,1,41,,,,,,,,,,,,,,,,,,,,
,,,,,41,2020-07-03_16h23.22.508,retriever_ti,2020.1.3,Linux x86_64,60,Chrome,1366,768,,,,,,,,,,,,,,,,,1,,,,,,,,,,,,,,,,,,,,,,,,,,,1221.1099,54,right,0.58499,hat           ,6,8,-1,0,0,1221.12675,1221.12675,1223.625065,0,53,53,53,1,54,7,6,sport_tshirt,hat           ,html/resources/sequences_IDs/B/07_sport_tshirt.jpg,html/resources/sequences_IDs/A/08_hat.jpg,7,8,3,2,3,2,5,6,0,41,,,,,,,,,,,,,,,,,,,,
,,,,,41,2020-07-03_16h23.22.508,retriever_ti,2020.1.3,Linux x86_64,60,Chrome,1366,768,,,,,,,,,,,,,,,,,1,,,,,,,,,,,,,,,,,,,,,,,,,,,1224.72729,55,right,0.960545,giraffe     ,5,3,-1,0,0,1224.74476,1224.74476,1227.241445,0,54,54,54,1,55,6,5,hat           ,giraffe     ,html/resources/sequences_IDs/A/08_hat.jpg,html/resources/sequences_IDs/B/03_giraffe.jpg,8,3,3,2,1,1,6,2,0,41,,,,,,,,,,,,,,,,,,,,
,,,,,41,2020-07-03_16h23.22.508,retriever_ti,2020.1.3,Linux x86_64,60,Chrome,1366,768,,,,,,,,,,,,,,,,,1,,,,,,,,,,,,,,,,,,,,,,,,,,,1228.343605,56,left,0.672655,giraffe     ,5,3,4,1,3,1228.361565,1228.361565,1230.85792,0,55,55,55,1,56,5,1,giraffe     ,radio       ,html/resources/sequences_IDs/B/03_giraffe.jpg,html/resources/sequences_IDs/B/10_radio.jpg,3,10,1,1,4,2,2,8,0,41,,,,,,,,,,,,,,,,,,,,
,,,,,41,2020-07-03_16h23.22.508,retriever_ti,2020.1.3,Linux x86_64,60,Chrome,1366,768,,,,,,,,,,,,,,,,,1,,,,,,,,,,,,,,,,,,,,,,,,,,,1231.475645,57,left,0.809985,hat           ,6,8,-2,0,3,1231.51013,1231.51013,1234.024115,0,56,56,56,1,57,6,8,hat           ,clownfish     ,html/resources/sequences_IDs/A/08_hat.jpg,html/resources/sequences_IDs/A/04_clownfish.jpg,8,4,3,2,2,1,6,3,0,41,,,,,,,,,,,,,,,,,,,,
,,,,,41,2020-07-03_16h23.22.508,retriever_ti,2020.1.3,Linux x86_64,60,Chrome,1366,768,,,,,,,,,,,,,,,,,1,,,,,,,,,,,,,,,,,,,,,,,,,,,1234.643425,58,right,0.819,sport_tshirt,7,7,1,1,1,1234.66022,1234.66022,1237.15722,0,57,57,57,1,58,6,7,hat           ,sport_tshirt,html/resources/sequences_IDs/A/08_hat.jpg,html/resources/sequences_IDs/B/07_sport_tshirt.jpg,8,7,3,2,3,2,6,5,0,41,,,,,,,,,,,,,,,,,,,,
,,,,,41,2020-07-03_16h23.22.508,retriever_ti,2020.1.3,Linux x86_64,60,Chrome,1366,768,,,,,,,,,,,,,,,,,1,,,,,,,,,,,,,,,,,,,,,,,,,,,1238.25999,59,right,0.77715,phone       ,3,9,-4,0,3,1238.276555,1238.276555,1240.77425,0,58,58,58,1,59,7,3,sport_tshirt,phone       ,html/resources/sequences_IDs/B/07_sport_tshirt.jpg,html/resources/sequences_IDs/B/09_phone.jpg,7,9,3,2,4,2,5,7,0,41,,,,,,,,,,,,,,,,,,,,
,,,,,41,2020-07-03_16h23.22.508,retriever_ti,2020.1.3,Linux x86_64,60,Chrome,1366,768,,,,,,,,,,,,,,,,,1,,,,,,,,,,,,,,,,,,,,,,,,,,,1241.39149,60,right,0.764225,hat           ,6,8,-1,0,0,1241.410615,1241.410615,1243.907605,0,59,59,59,1,60,7,6,sport_tshirt,hat           ,html/resources/sequences_IDs/B/07_sport_tshirt.jpg,html/resources/sequences_IDs/A/08_hat.jpg,7,8,3,2,3,2,5,6,0,41,,,,,,,,,,,,,,,,,,,,
,,,,,41,2020-07-03_16h23.22.508,retriever_ti,2020.1.3,Linux x86_64,60,Chrome,1366,768,,,,,,,,,,,,,,,,,1,,,,,,,,,,,,,,,,,,,,,,,,,,,1245.00889,61,left,0.789415,seaturtle     ,4,2,1,1,1,1245.028495,1245.028495,1247.52361,0,60,60,60,1,61,4,3,seaturtle     ,phone       ,html/resources/sequences_IDs/A/02_seaturtle.jpg,html/resources/sequences_IDs/B/09_phone.jpg,2,9,2,1,4,2,1,7,0,41,,,,,,,,,,,,,,,,,,,,
,,,,,41,2020-07-03_16h23.22.508,retriever_ti,2020.1.3,Linux x86_64,60,Chrome,1366,768,,,,,,,,,,,,,,,,,1,,,,,,,,,,,,,,,,,,,,,,,,,,,1248.62575,62,left,0.8225,phone       ,3,9,2,1,3,1248.65937,1248.65937,1251.15442,0,61,61,61,1,62,3,1,phone       ,radio       ,html/resources/sequences_IDs/B/09_phone.jpg,html/resources/sequences_IDs/B/10_radio.jpg,9,10,4,2,4,2,7,8,0,41,,,,,,,,,,,,,,,,,,,,
,,,,,41,2020-07-03_16h23.22.508,retriever_ti,2020.1.3,Linux x86_64,60,Chrome,1366,768,,,,,,,,,,,,,,,,,1,,,,,,,,,,,,,,,,,,,,,,,,,,,1251.76548,63,right,0.91587,seaturtle     ,4,2,2,1,3,1251.79214,1251.79214,1254.27326,0,62,62,62,1,63,2,4,peacock       ,seaturtle     ,html/resources/sequences_IDs/A/05_peacock.jpg,html/resources/sequences_IDs/A/02_seaturtle.jpg,5,2,2,1,2,1,4,1,0,41,,,,,,,,,,,,,,,,,,,,
,,,,,41,2020-07-03_16h23.22.508,retriever_ti,2020.1.3,Linux x86_64,60,Chrome,1366,768,,,,,,,,,,,,,,,,,1,,,,,,,,,,,,,,,,,,,,,,,,,,,1254.874815,64,left,0.92098,hat           ,6,8,4,1,3,1254.910395,1254.910395,1257.40685,0,63,63,63,1,64,6,2,hat           ,peacock       ,html/resources/sequences_IDs/A/08_hat.jpg,html/resources/sequences_IDs/A/05_peacock.jpg,8,5,3,2,2,1,6,4,0,41,,,,,,,,,,,,,,,,,,,,
,,,,,41,2020-07-03_16h23.22.508,retriever_ti,2020.1.3,Linux x86_64,60,Chrome,1366,768,,,,,,,,,,,,,,,,,1,,,,,,,,,,,,,,,,,,,,,,,,,,,1258.025665,65,right,1.058015,clownfish     ,8,4,7,1,3,1258.11046,1258.11046,1260.606255,0,64,64,64,1,65,1,8,radio       ,clownfish     ,html/resources/sequences_IDs/B/10_radio.jpg,html/resources/sequences_IDs/A/04_clownfish.jpg,10,4,4,2,2,1,8,3,0,41,,,,,,,,,,,,,,,,,,,,
,,,,,41,2020-07-03_16h23.22.508,retriever_ti,2020.1.3,Linux x86_64,60,Chrome,1366,768,,,,,,,,,,,,,,,,,1,,,,,,,,,,,,,,,,,,,,,,,,,,,1261.22457,66,right,1.02057,peacock       ,2,5,-1,0,0,1261.259585,1261.259585,1263.7564,0,65,65,65,1,66,3,2,phone       ,peacock       ,html/resources/sequences_IDs/B/09_phone.jpg,html/resources/sequences_IDs/A/05_peacock.jpg,9,5,4,2,2,1,7,4,0,41,,,,,,,,,,,,,,,,,,,,
,,,,,41,2020-07-03_16h23.22.508,retriever_ti,2020.1.3,Linux x86_64,60,Chrome,1366,768,,,,,,,,,,,,,,,,,1,,,,,,,,,,,,,,,,,,,,,,,,,,,1264.85805,67,right,0.89314,hat           ,6,8,1,1,1,1264.893005,1264.893005,1267.389735,0,66,66,66,1,67,5,6,giraffe     ,hat           ,html/resources/sequences_IDs/B/03_giraffe.jpg,html/resources/sequences_IDs/A/08_hat.jpg,3,8,1,1,3,2,2,6,0,41,,,,,,,,,,,,,,,,,,,,
,,,,,41,2020-07-03_16h23.22.508,retriever_ti,2020.1.3,Linux x86_64,60,Chrome,1366,768,,,,,,,,,,,,,,,,,1,,,,,,,,,,,,,,,,,,,,,,,,,,,1268.490995,68,left,0.87012,seaturtle     ,4,2,2,1,3,1268.508375,1268.508375,1271.00606,0,67,67,67,1,68,4,2,seaturtle     ,peacock       ,html/resources/sequences_IDs/A/02_seaturtle.jpg,html/resources/sequences_IDs/A/05_peacock.jpg,2,5,2,1,2,1,1,4,0,41,,,,,,,,,,,,,,,,,,,,
,,,,,41,2020-07-03_16h23.22.508,retriever_ti,2020.1.3,Linux x86_64,60,Chrome,1366,768,,,,,,,,,,,,,,,,,1,,,,,,,,,,,,,,,,,,,,,,,,,,,1271.62356,69,right,0.69331,seaturtle     ,4,2,-4,0,3,1271.65941,1271.65941,1274.15648,0,68,68,68,1,69,8,4,clownfish     ,seaturtle     ,html/resources/sequences_IDs/A/04_clownfish.jpg,html/resources/sequences_IDs/A/02_seaturtle.jpg,4,2,2,1,2,1,3,1,0,41,,,,,,,,,,,,,,,,,,,,
,,,,,41,2020-07-03_16h23.22.508,retriever_ti,2020.1.3,Linux x86_64,60,Chrome,1366,768,,,,,,,,,,,,,,,,,1,,,,,,,,,,,,,,,,,,,,,,,,,,,1274.775035,70,left,0.75303,peacock       ,2,5,1,1,1,1274.793465,1274.793465,1277.28891,0,69,69,69,1,70,2,1,peacock       ,radio       ,html/resources/sequences_IDs/A/05_peacock.jpg,html/resources/sequences_IDs/B/10_radio.jpg,5,10,2,1,4,2,4,8,0,41,,,,,,,,,,,,,,,,,,,,
,,,,,41,2020-07-03_16h23.22.508,retriever_ti,2020.1.3,Linux x86_64,60,Chrome,1366,768,,,,,,,,,,,,,,,,,1,,,,,,,,,,,,,,,,,,,,,,,,,,,1278.390185,71,left,0.824955,seaturtle     ,4,2,3,1,3,1278.408135,1278.408135,1280.905445,0,70,70,70,1,71,4,1,seaturtle     ,radio       ,html/resources/sequences_IDs/A/02_seaturtle.jpg,html/resources/sequences_IDs/B/10_radio.jpg,2,10,2,1,4,2,1,8,0,41,,,,,,,,,,,,,,,,,,,,
,,,,,41,2020-07-03_16h23.22.508,retriever_ti,2020.1.3,Linux x86_64,60,Chrome,1366,768,,,,,,,,,,,,,,,,,1,,,,,,,,,,,,,,,,,,,,,,,,,,,1281.52457,72,left,0.802985,phone       ,3,9,-5,0,3,1281.542075,1281.542075,1284.0388,0,71,71,71,1,72,3,8,phone       ,clownfish     ,html/resources/sequences_IDs/B/09_phone.jpg,html/resources/sequences_IDs/A/04_clownfish.jpg,9,4,4,2,2,1,7,3,0,41,,,,,,,,,,,,,,,,,,,,
,,,,,41,2020-07-03_16h23.22.508,retriever_ti,2020.1.3,Linux x86_64,60,Chrome,1366,768,,,,,,,,,,,,,,,,,1,,,,,,,,,,,,,,,,,,,,,,,,,,,1284.65849,73,left,0.754795,clownfish     ,8,4,7,1,3,1284.675745,1284.675745,1287.172215,0,72,72,72,1,73,8,1,clownfish     ,radio       ,html/resources/sequences_IDs/A/04_clownfish.jpg,html/resources/sequences_IDs/B/10_radio.jpg,4,10,2,1,4,2,3,8,0,41,,,,,,,,,,,,,,,,,,,,
,,,,,41,2020-07-03_16h23.22.508,retriever_ti,2020.1.3,Linux x86_64,60,Chrome,1366,768,,,,,,,,,,,,,,,,,1,,,,,,,,,,,,,,,,,,,,,,,,,,,1287.77513,74,right,0.813025,hat           ,6,8,4,1,3,1287.792805,1287.792805,1290.2883,0,73,73,73,1,74,2,6,peacock       ,hat           ,html/resources/sequences_IDs/A/05_peacock.jpg,html/resources/sequences_IDs/A/08_hat.jpg,5,8,2,1,3,2,4,6,0,41,,,,,,,,,,,,,,,,,,,,
,,,,,41,2020-07-03_16h23.22.508,retriever_ti,2020.1.3,Linux x86_64,60,Chrome,1366,768,,,,,,,,,,,,,,,,,1,,,,,,,,,,,,,,,,,,,,,,,,,,,1290.907395,75,left,0.984665,giraffe     ,5,3,3,1,3,1290.94146,1290.94146,1293.43822,0,74,74,74,1,75,5,2,giraffe     ,peacock       ,html/resources/sequences_IDs/B/03_giraffe.jpg,html/resources/sequences_IDs/A/05_peacock.jpg,3,5,1,1,2,1,2,4,0,41,,,,,,,,,,,,,,,,,,,,
,,,,,41,2020-07-03_16h23.22.508,retriever_ti,2020.1.3,Linux x86_64,60,Chrome,1366,768,,,,,,,,,,,,,,,,,1,,,,,,,,,,,,,,,,,,,,,,,,,,,1294.05568,76,left,1.01932,clownfish     ,8,4,1,1,1,1294.07414,1294.07414,1296.57184,0,75,75,75,1,76,8,7,clownfish     ,sport_tshirt,html/resources/sequences_IDs/A/04_clownfish.jpg,html/resources/sequences_IDs/B/07_sport_tshirt.jpg,4,7,2,1,3,2,3,5,0,41,,,,,,,,,,,,,,,,,,,,
,,,,,41,2020-07-03_16h23.22.508,retriever_ti,2020.1.3,Linux x86_64,60,Chrome,1366,768,,,,,,,,,,,,,,,,,1,,,,,,,,,,,,,,,,,,,,,,,,,,,1297.674235,77,left,0.931395,giraffe     ,5,3,-2,0,3,1297.690355,1297.690355,1300.18785,0,76,76,76,1,77,5,7,giraffe     ,sport_tshirt,html/resources/sequences_IDs/B/03_giraffe.jpg,html/resources/sequences_IDs/B/07_sport_tshirt.jpg,3,7,1,1,3,2,2,5,0,41,,,,,,,,,,,,,,,,,,,,
,,,,,41,2020-07-03_16h23.22.508,retriever_ti,2020.1.3,Linux x86_64,60,Chrome,1366,768,,,,,,,,,,,,,,,,,,,,,,,,,,,,,,,,,,,,,0,2.858375,,,,,,,,,,,,,,,,,,,,,,,,,,,,,,,,,,,,,,,,,0,0,0,0,1,,,,,,,,,,,,,,,
,,,,,41,2020-07-03_16h23.22.508,retriever_ti,2020.1.3,Linux x86_64,60,Chrome,1366,768,,,,,,,,,,,,,,,,,2,,,,,,,,,,,,,,,,,,,,,,,,,,,1319.799275,78,left,0.86394,seaturtle     ,4,2,3,1,3,1319.822715,1319.822715,1322.32142,0,0,0,0,1,78,4,1,seaturtle     ,radio       ,html/resources/sequences_IDs/A/02_seaturtle.jpg,html/resources/sequences_IDs/B/10_radio.jpg,2,10,2,1,4,2,1,8,0,41,,,,,,,,,,,,,,,,,,,,
,,,,,41,2020-07-03_16h23.22.508,retriever_ti,2020.1.3,Linux x86_64,60,Chrome,1366,768,,,,,,,,,,,,,,,,,2,,,,,,,,,,,,,,,,,,,,,,,,,,,1322.938205,79,right,0.989255,clownfish     ,8,4,1,1,1,1322.956155,1322.956155,1325.453615,0,1,1,1,1,79,7,8,sport_tshirt,clownfish     ,html/resources/sequences_IDs/B/07_sport_tshirt.jpg,html/resources/sequences_IDs/A/04_clownfish.jpg,7,4,3,2,2,1,5,3,0,41,,,,,,,,,,,,,,,,,,,,
,,,,,41,2020-07-03_16h23.22.508,retriever_ti,2020.1.3,Linux x86_64,60,Chrome,1366,768,,,,,,,,,,,,,,,,,2,,,,,,,,,,,,,,,,,,,,,,,,,,,1326.55551,80,left,0.83277,peacock       ,2,5,1,1,1,1326.57288,1326.57288,1329.072805,0,2,2,2,1,80,2,1,peacock       ,radio       ,html/resources/sequences_IDs/A/05_peacock.jpg,html/resources/sequences_IDs/B/10_radio.jpg,5,10,2,1,4,2,4,8,0,41,,,,,,,,,,,,,,,,,,,,
,,,,,41,2020-07-03_16h23.22.508,retriever_ti,2020.1.3,Linux x86_64,60,Chrome,1366,768,,,,,,,,,,,,,,,,,2,,,,,,,,,,,,,,,,,,,,,,,,,,,1330.172115,81,left,0.85193,hat           ,6,8,1,1,1,1330.207205,1330.207205,1332.703555,0,3,3,3,1,81,6,5,hat           ,giraffe     ,html/resources/sequences_IDs/A/08_hat.jpg,html/resources/sequences_IDs/B/03_giraffe.jpg,8,3,3,2,1,1,6,2,0,41,,,,,,,,,,,,,,,,,,,,
,,,,,41,2020-07-03_16h23.22.508,retriever_ti,2020.1.3,Linux x86_64,60,Chrome,1366,768,,,,,,,,,,,,,,,,,2,,,,,,,,,,,,,,,,,,,,,,,,,,,1333.80474,82,right,0.873005,clownfish     ,8,4,1,1,1,1333.82223,1333.82223,1336.31954,0,4,4,4,1,82,7,8,sport_tshirt,clownfish     ,html/resources/sequences_IDs/B/07_sport_tshirt.jpg,html/resources/sequences_IDs/A/04_clownfish.jpg,7,4,3,2,2,1,5,3,0,41,,,,,,,,,,,,,,,,,,,,
,,,,,41,2020-07-03_16h23.22.508,retriever_ti,2020.1.3,Linux x86_64,60,Chrome,1366,768,,,,,,,,,,,,,,,,,2,,,,,,,,,,,,,,,,,,,,,,,,,,,1337.42204,83,left,0.895485,peacock       ,2,5,-5,0,3,1337.45594,1337.45594,1339.95264,0,5,5,5,1,83,2,7,peacock       ,sport_tshirt,html/resources/sequences_IDs/A/05_peacock.jpg,html/resources/sequences_IDs/B/07_sport_tshirt.jpg,5,7,2,1,3,2,4,5,0,41,,,,,,,,,,,,,,,,,,,,
,,,,,41,2020-07-03_16h23.22.508,retriever_ti,2020.1.3,Linux x86_64,60,Chrome,1366,768,,,,,,,,,,,,,,,,,2,,,,,,,,,,,,,,,,,,,,,,,,,,,1340.572555,84,left,0.99535,giraffe     ,5,3,1,1,0,1340.58915,1340.58915,1343.085765,0,6,6,6,1,84,5,4,giraffe     ,seaturtle     ,html/resources/sequences_IDs/B/03_giraffe.jpg,html/resources/sequences_IDs/A/02_seaturtle.jpg,3,2,1,1,2,1,2,1,1,41,,,,,,,,,,,,,,,,,,,,
,,,,,41,2020-07-03_16h23.22.508,retriever_ti,2020.1.3,Linux x86_64,60,Chrome,1366,768,,,,,,,,,,,,,,,,,2,,,,,,,,,,,,,,,,,,,,,,,,,,,1344.220185,85,left,0.680365,seaturtle     ,4,2,-3,0,3,1344.238115,1344.238115,1346.73585,0,7,7,7,1,85,4,7,seaturtle     ,sport_tshirt,html/resources/sequences_IDs/A/02_seaturtle.jpg,html/resources/sequences_IDs/B/07_sport_tshirt.jpg,2,7,2,1,3,2,1,5,0,41,,,,,,,,,,,,,,,,,,,,
,,,,,41,2020-07-03_16h23.22.508,retriever_ti,2020.1.3,Linux x86_64,60,Chrome,1366,768,,,,,,,,,,,,,,,,,2,,,,,,,,,,,,,,,,,,,,,,,,,,,1347.354435,86,left,0.772935,clownfish     ,8,4,1,1,1,1347.391165,1347.391165,1349.88678,0,8,8,8,1,86,8,7,clownfish     ,sport_tshirt,html/resources/sequences_IDs/A/04_clownfish.jpg,html/resources/sequences_IDs/B/07_sport_tshirt.jpg,4,7,2,1,3,2,3,5,0,41,,,,,,,,,,,,,,,,,,,,
,,,,,41,2020-07-03_16h23.22.508,retriever_ti,2020.1.3,Linux x86_64,60,Chrome,1366,768,,,,,,,,,,,,,,,,,2,,,,,,,,,,,,,,,,,,,,,,,,,,,1350.988085,87,left,0.76559,peacock       ,2,5,-6,0,3,1351.0219,1351.0219,1353.52115,0,9,9,9,1,87,2,8,peacock       ,clownfish     ,html/resources/sequences_IDs/A/05_peacock.jpg,html/resources/sequences_IDs/A/04_clownfish.jpg,5,4,2,1,2,1,4,3,0,41,,,,,,,,,,,,,,,,,,,,
,,,,,41,2020-07-03_16h23.22.508,retriever_ti,2020.1.3,Linux x86_64,60,Chrome,1366,768,,,,,,,,,,,,,,,,,2,,,,,,,,,,,,,,,,,,,,,,,,,,,1354.124535,88,right,0.71969,giraffe     ,5,3,4,1,3,1354.178965,1354.178965,1356.652705,0,10,10,10,1,88,1,5,radio       ,giraffe     ,html/resources/sequences_IDs/B/10_radio.jpg,html/resources/sequences_IDs/B/03_giraffe.jpg,10,3,4,2,1,1,8,2,0,41,,,,,,,,,,,,,,,,,,,,
,,,,,41,2020-07-03_16h23.22.508,retriever_ti,2020.1.3,Linux x86_64,60,Chrome,1366,768,,,,,,,,,,,,,,,,,2,,,,,,,,,,,,,,,,,,,,,,,,,,,1357.270715,89,right,0.80928,peacock       ,2,5,-2,0,3,1357.32134,1357.32134,1359.818685,0,11,11,11,1,89,4,2,seaturtle     ,peacock       ,html/resources/sequences_IDs/A/02_seaturtle.jpg,html/resources/sequences_IDs/A/05_peacock.jpg,2,5,2,1,2,1,1,4,0,41,,,,,,,,,,,,,,,,,,,,
,,,,,41,2020-07-03_16h23.22.508,retriever_ti,2020.1.3,Linux x86_64,60,Chrome,1366,768,,,,,,,,,,,,,,,,,2,,,,,,,,,,,,,,,,,,,,,,,,,,,1360.43874,90,left,0.563965,phone       ,3,9,-1,0,1,1360.47145,1360.47145,1362.968305,0,12,12,12,1,90,3,4,phone       ,seaturtle     ,html/resources/sequences_IDs/B/09_phone.jpg,html/resources/sequences_IDs/A/02_seaturtle.jpg,9,2,4,2,2,1,7,1,1,41,,,,,,,,,,,,,,,,,,,,
,,,,,41,2020-07-03_16h23.22.508,retriever_ti,2020.1.3,Linux x86_64,60,Chrome,1366,768,,,,,,,,,,,,,,,,,2,,,,,,,,,,,,,,,,,,,,,,,,,,,1364.070095,91,right,0.73312,hat           ,6,8,-1,0,0,1364.08909,1364.08909,1366.585705,0,13,13,13,1,91,7,6,sport_tshirt,hat           ,html/resources/sequences_IDs/B/07_sport_tshirt.jpg,html/resources/sequences_IDs/A/08_hat.jpg,7,8,3,2,3,2,5,6,0,41,,,,,,,,,,,,,,,,,,,,
,,,,,41,2020-07-03_16h23.22.508,retriever_ti,2020.1.3,Linux x86_64,60,Chrome,1366,768,,,,,,,,,,,,,,,,,2,,,,,,,,,,,,,,,,,,,,,,,,,,,1367.68591,92,right,0.760515,phone       ,3,9,-5,0,3,1367.70398,1367.70398,1370.20116,0,14,14,14,1,92,8,3,clownfish     ,phone       ,html/resources/sequences_IDs/A/04_clownfish.jpg,html/resources/sequences_IDs/B/09_phone.jpg,4,9,2,1,4,2,3,7,0,41,,,,,,,,,,,,,,,,,,,,
,,,,,41,2020-07-03_16h23.22.508,retriever_ti,2020.1.3,Linux x86_64,60,Chrome,1366,768,,,,,,,,,,,,,,,,,2,,,,,,,,,,,,,,,,,,,,,,,,,,,1370.820815,93,right,0.895415,seaturtle     ,4,2,-3,0,3,1370.83746,1370.83746,1373.335,0,15,15,15,1,93,7,4,sport_tshirt,seaturtle     ,html/resources/sequences_IDs/B/07_sport_tshirt.jpg,html/resources/sequences_IDs/A/02_seaturtle.jpg,7,2,3,2,2,1,5,1,0,41,,,,,,,,,,,,,,,,,,,,
,,,,,41,2020-07-03_16h23.22.508,retriever_ti,2020.1.3,Linux x86_64,60,Chrome,1366,768,,,,,,,,,,,,,,,,,2,,,,,,,,,,,,,,,,,,,,,,,,,,,1373.952985,94,right,0.84851,phone       ,3,9,-1,0,0,1373.97059,1373.97059,1376.46761,0,16,16,16,1,94,4,3,seaturtle     ,phone       ,html/resources/sequences_IDs/A/02_seaturtle.jpg,html/resources/sequences_IDs/B/09_phone.jpg,2,9,2,1,4,2,1,7,0,41,,,,,,,,,,,,,,,,,,,,
,,,,,41,2020-07-03_16h23.22.508,retriever_ti,2020.1.3,Linux x86_64,60,Chrome,1366,768,,,,,,,,,,,,,,,,,2,,,,,,,,,,,,,,,,,,,,,,,,,,,1377.572835,95,right,0.708445,clownfish     ,8,4,7,1,3,1377.60459,1377.60459,1380.1015,0,17,17,17,1,95,1,8,radio       ,clownfish     ,html/resources/sequences_IDs/B/10_radio.jpg,html/resources/sequences_IDs/A/04_clownfish.jpg,10,4,4,2,2,1,8,3,0,41,,,,,,,,,,,,,,,,,,,,
,,,,,41,2020-07-03_16h23.22.508,retriever_ti,2020.1.3,Linux x86_64,60,Chrome,1366,768,,,,,,,,,,,,,,,,,2,,,,,,,,,,,,,,,,,,,,,,,,,,,1380.72354,96,left,0.6842,hat           ,6,8,3,1,3,1380.73972,1380.73972,1383.23405,0,18,18,18,1,96,6,3,hat           ,phone       ,html/resources/sequences_IDs/A/08_hat.jpg,html/resources/sequences_IDs/B/09_phone.jpg,8,9,3,2,4,2,6,7,0,41,,,,,,,,,,,,,,,,,,,,
,,,,,41,2020-07-03_16h23.22.508,retriever_ti,2020.1.3,Linux x86_64,60,Chrome,1366,768,,,,,,,,,,,,,,,,,2,,,,,,,,,,,,,,,,,,,,,,,,,,,1383.85198,97,left,0.673985,peacock       ,2,5,-1,0,0,1383.888005,1383.888005,1386.38426,0,19,19,19,1,97,2,3,peacock       ,phone       ,html/resources/sequences_IDs/A/05_peacock.jpg,html/resources/sequences_IDs/B/09_phone.jpg,5,9,2,1,4,2,4,7,0,41,,,,,,,,,,,,,,,,,,,,
,,,,,41,2020-07-03_16h23.22.508,retriever_ti,2020.1.3,Linux x86_64,60,Chrome,1366,768,,,,,,,,,,,,,,,,,2,,,,,,,,,,,,,,,,,,,,,,,,,,,1387.486585,98,right,0.621515,seaturtle     ,4,2,-4,0,3,1387.50428,1387.50428,1390.000285,0,20,20,20,1,98,8,4,clownfish     ,seaturtle     ,html/resources/sequences_IDs/A/04_clownfish.jpg,html/resources/sequences_IDs/A/02_seaturtle.jpg,4,2,2,1,2,1,3,1,0,41,,,,,,,,,,,,,,,,,,,,
,,,,,41,2020-07-03_16h23.22.508,retriever_ti,2020.1.3,Linux x86_64,60,Chrome,1366,768,,,,,,,,,,,,,,,,,2,,,,,,,,,,,,,,,,,,,,,,,,,,,1390.60266,99,right,0.72251,peacock       ,2,5,-5,0,3,1390.63637,1390.63637,1393.1342,0,21,21,21,1,99,7,2,sport_tshirt,peacock       ,html/resources/sequences_IDs/B/07_sport_tshirt.jpg,html/resources/sequences_IDs/A/05_peacock.jpg,7,5,3,2,2,1,5,4,0,41,,,,,,,,,,,,,,,,,,,,
,,,,,41,2020-07-03_16h23.22.508,retriever_ti,2020.1.3,Linux x86_64,60,Chrome,1366,768,,,,,,,,,,,,,,,,,2,,,,,,,,,,,,,,,,,,,,,,,,,,,1393.752115,100,left,0.54222,giraffe     ,5,3,1,1,1,1393.787075,1393.787075,1396.28326,0,22,22,22,1,100,5,4,giraffe     ,seaturtle     ,html/resources/sequences_IDs/B/03_giraffe.jpg,html/resources/sequences_IDs/A/02_seaturtle.jpg,3,2,1,1,2,1,2,1,0,41,,,,,,,,,,,,,,,,,,,,
,,,,,41,2020-07-03_16h23.22.508,retriever_ti,2020.1.3,Linux x86_64,60,Chrome,1366,768,,,,,,,,,,,,,,,,,2,,,,,,,,,,,,,,,,,,,,,,,,,,,1397.38697,101,right,1.088405,phone       ,3,9,-1,0,0,1397.42075,1397.42075,1399.91657,0,23,23,23,1,101,4,3,seaturtle     ,phone       ,html/resources/sequences_IDs/A/02_seaturtle.jpg,html/resources/sequences_IDs/B/09_phone.jpg,2,9,2,1,4,2,1,7,0,41,,,,,,,,,,,,,,,,,,,,
,,,,,41,2020-07-03_16h23.22.508,retriever_ti,2020.1.3,Linux x86_64,60,Chrome,1366,768,,,,,,,,,,,,,,,,,2,,,,,,,,,,,,,,,,,,,,,,,,,,,1401.018605,102,left,0.59084,hat           ,6,8,5,1,3,1401.053325,1401.053325,1403.629945,0,24,24,24,1,102,6,1,hat           ,radio       ,html/resources/sequences_IDs/A/08_hat.jpg,html/resources/sequences_IDs/B/10_radio.jpg,8,10,3,2,4,2,6,8,0,41,,,,,,,,,,,,,,,,,,,,
,,,,,41,2020-07-03_16h23.22.508,retriever_ti,2020.1.3,Linux x86_64,60,Chrome,1366,768,,,,,,,,,,,,,,,,,2,,,,,,,,,,,,,,,,,,,,,,,,,,,1404.24621,103,left,1.144425,phone       ,3,9,1,1,1,1404.294835,1404.294835,1406.784575,0,25,25,25,1,103,3,2,phone       ,peacock       ,html/resources/sequences_IDs/B/09_phone.jpg,html/resources/sequences_IDs/A/05_peacock.jpg,9,5,4,2,2,1,7,4,0,41,,,,,,,,,,,,,,,,,,,,
,,,,,41,2020-07-03_16h23.22.508,retriever_ti,2020.1.3,Linux x86_64,60,Chrome,1366,768,,,,,,,,,,,,,,,,,2,,,,,,,,,,,,,,,,,,,,,,,,,,,1407.886645,104,right,0.724115,radio       ,1,10,-6,0,3,1407.92623,1407.92623,1410.41675,0,26,26,26,1,104,7,1,sport_tshirt,radio       ,html/resources/sequences_IDs/B/07_sport_tshirt.jpg,html/resources/sequences_IDs/B/10_radio.jpg,7,10,3,2,4,2,5,8,0,41,,,,,,,,,,,,,,,,,,,,
,,,,,41,2020-07-03_16h23.22.508,retriever_ti,2020.1.3,Linux x86_64,60,Chrome,1366,768,,,,,,,,,,,,,,,,,2,,,,,,,,,,,,,,,,,,,,,,,,,,,1411.0353,105,left,0.72424,giraffe     ,5,3,-3,0,3,1411.06889,1411.06889,1413.56594,0,27,27,27,1,105,5,8,giraffe     ,clownfish     ,html/resources/sequences_IDs/B/03_giraffe.jpg,html/resources/sequences_IDs/A/04_clownfish.jpg,3,4,1,1,2,1,2,3,0,41,,,,,,,,,,,,,,,,,,,,
,,,,,41,2020-07-03_16h23.22.508,retriever_ti,2020.1.3,Linux x86_64,60,Chrome,1366,768,,,,,,,,,,,,,,,,,2,,,,,,,,,,,,,,,,,,,,,,,,,,,1414.183485,106,left,0.772745,giraffe     ,5,3,3,1,3,1414.20302,1414.20302,1416.699495,0,28,28,28,1,106,5,2,giraffe     ,peacock       ,html/resources/sequences_IDs/B/03_giraffe.jpg,html/resources/sequences_IDs/A/05_peacock.jpg,3,5,1,1,2,1,2,4,0,41,,,,,,,,,,,,,,,,,,,,
,,,,,41,2020-07-03_16h23.22.508,retriever_ti,2020.1.3,Linux x86_64,60,Chrome,1366,768,,,,,,,,,,,,,,,,,2,,,,,,,,,,,,,,,,,,,,,,,,,,,1417.317945,107,left,0.96514,phone       ,3,9,-1,0,0,1417.33591,1417.33591,1419.83504,0,29,29,29,1,107,3,4,phone       ,seaturtle     ,html/resources/sequences_IDs/B/09_phone.jpg,html/resources/sequences_IDs/A/02_seaturtle.jpg,9,2,4,2,2,1,7,1,0,41,,,,,,,,,,,,,,,,,,,,
,,,,,41,2020-07-03_16h23.22.508,retriever_ti,2020.1.3,Linux x86_64,60,Chrome,1366,768,,,,,,,,,,,,,,,,,2,,,,,,,,,,,,,,,,,,,,,,,,,,,1420.93321,108,right,0.82152,peacock       ,2,5,1,1,0,1420.951795,1420.951795,1423.449425,0,30,30,30,1,108,1,2,radio       ,peacock       ,html/resources/sequences_IDs/B/10_radio.jpg,html/resources/sequences_IDs/A/05_peacock.jpg,10,5,4,2,2,1,8,4,1,41,,,,,,,,,,,,,,,,,,,,
,,,,,41,2020-07-03_16h23.22.508,retriever_ti,2020.1.3,Linux x86_64,60,Chrome,1366,768,,,,,,,,,,,,,,,,,2,,,,,,,,,,,,,,,,,,,,,,,,,,,1424.550135,109,left,0.574735,giraffe     ,5,3,1,1,1,1424.58559,1424.58559,1427.08322,0,31,31,31,1,109,5,4,giraffe     ,seaturtle     ,html/resources/sequences_IDs/B/03_giraffe.jpg,html/resources/sequences_IDs/A/02_seaturtle.jpg,3,2,1,1,2,1,2,1,0,41,,,,,,,,,,,,,,,,,,,,
,,,,,41,2020-07-03_16h23.22.508,retriever_ti,2020.1.3,Linux x86_64,60,Chrome,1366,768,,,,,,,,,,,,,,,,,2,,,,,,,,,,,,,,,,,,,,,,,,,,,1428.18586,110,right,0.6385,giraffe     ,5,3,-1,0,1,1428.21762,1428.21762,1430.71518,0,32,32,32,1,110,6,5,hat           ,giraffe     ,html/resources/sequences_IDs/A/08_hat.jpg,html/resources/sequences_IDs/B/03_giraffe.jpg,8,3,3,2,1,1,6,2,1,41,,,,,,,,,,,,,,,,,,,,
,,,,,41,2020-07-03_16h23.22.508,retriever_ti,2020.1.3,Linux x86_64,60,Chrome,1366,768,,,,,,,,,,,,,,,,,2,,,,,,,,,,,,,,,,,,,,,,,,,,,1431.816895,111,right,0.97254,peacock       ,2,5,-6,0,3,1431.833725,1431.833725,1434.331685,0,33,33,33,1,111,8,2,clownfish     ,peacock       ,html/resources/sequences_IDs/A/04_clownfish.jpg,html/resources/sequences_IDs/A/05_peacock.jpg,4,5,2,1,2,1,3,4,0,41,,,,,,,,,,,,,,,,,,,,
,,,,,41,2020-07-03_16h23.22.508,retriever_ti,2020.1.3,Linux x86_64,60,Chrome,1366,768,,,,,,,,,,,,,,,,,2,,,,,,,,,,,,,,,,,,,,,,,,,,,1434.93474,112,right,0.853555,hat           ,6,8,1,1,1,1434.95161,1434.95161,1437.44843,0,34,34,34,1,112,5,6,giraffe     ,hat           ,html/resources/sequences_IDs/B/03_giraffe.jpg,html/resources/sequences_IDs/A/08_hat.jpg,3,8,1,1,3,2,2,6,0,41,,,,,,,,,,,,,,,,,,,,
,,,,,41,2020-07-03_16h23.22.508,retriever_ti,2020.1.3,Linux x86_64,60,Chrome,1366,768,,,,,,,,,,,,,,,,,2,,,,,,,,,,,,,,,,,,,,,,,,,,,1438.54984,113,left,0.722305,giraffe     ,5,3,2,1,3,1438.58464,1438.58464,1441.08153,0,35,35,35,1,113,5,3,giraffe     ,phone       ,html/resources/sequences_IDs/B/03_giraffe.jpg,html/resources/sequences_IDs/B/09_phone.jpg,3,9,1,1,4,2,2,7,0,41,,,,,,,,,,,,,,,,,,,,
,,,,,41,2020-07-03_16h23.22.508,retriever_ti,2020.1.3,Linux x86_64,60,Chrome,1366,768,,,,,,,,,,,,,,,,,2,,,,,,,,,,,,,,,,,,,,,,,,,,,1441.69971,114,right,0.84994,hat           ,6,8,3,1,3,1441.71735,1441.71735,1444.214765,0,36,36,36,1,114,3,6,phone       ,hat           ,html/resources/sequences_IDs/B/09_phone.jpg,html/resources/sequences_IDs/A/08_hat.jpg,9,8,4,2,3,2,7,6,0,41,,,,,,,,,,,,,,,,,,,,
,,,,,41,2020-07-03_16h23.22.508,retriever_ti,2020.1.3,Linux x86_64,60,Chrome,1366,768,,,,,,,,,,,,,,,,,2,,,,,,,,,,,,,,,,,,,,,,,,,,,1444.832595,115,left,0.84775,peacock       ,2,5,1,1,1,1444.86894,1444.86894,1447.364705,0,37,37,37,1,115,2,1,peacock       ,radio       ,html/resources/sequences_IDs/A/05_peacock.jpg,html/resources/sequences_IDs/B/10_radio.jpg,5,10,2,1,4,2,4,8,0,41,,,,,,,,,,,,,,,,,,,,
,,,,,41,2020-07-03_16h23.22.508,retriever_ti,2020.1.3,Linux x86_64,60,Chrome,1366,768,,,,,,,,,,,,,,,,,2,,,,,,,,,,,,,,,,,,,,,,,,,,,1448.466695,116,left,0.691825,hat           ,6,8,-2,0,3,1448.484295,1448.484295,1450.9809,0,38,38,38,1,116,6,8,hat           ,clownfish     ,html/resources/sequences_IDs/A/08_hat.jpg,html/resources/sequences_IDs/A/04_clownfish.jpg,8,4,3,2,2,1,6,3,0,41,,,,,,,,,,,,,,,,,,,,
,,,,,41,2020-07-03_16h23.22.508,retriever_ti,2020.1.3,Linux x86_64,60,Chrome,1366,768,,,,,,,,,,,,,,,,,2,,,,,,,,,,,,,,,,,,,,,,,,,,,1451.598825,117,left,0.913955,phone       ,3,9,-2,0,3,1451.63442,1451.63442,1454.13618,0,39,39,39,1,117,3,5,phone       ,giraffe     ,html/resources/sequences_IDs/B/09_phone.jpg,html/resources/sequences_IDs/B/03_giraffe.jpg,9,3,4,2,1,1,7,2,0,41,,,,,,,,,,,,,,,,,,,,
,,,,,41,2020-07-03_16h23.22.508,retriever_ti,2020.1.3,Linux x86_64,60,Chrome,1366,768,,,,,,,,,,,,,,,,,2,,,,,,,,,,,,,,,,,,,,,,,,,,,1454.74977,118,left,0.94738,seaturtle     ,4,2,-4,0,3,1454.78373,1454.78373,1457.2807,0,40,40,40,1,118,4,8,seaturtle     ,clownfish     ,html/resources/sequences_IDs/A/02_seaturtle.jpg,html/resources/sequences_IDs/A/04_clownfish.jpg,2,4,2,1,2,1,1,3,0,41,,,,,,,,,,,,,,,,,,,,
,,,,,41,2020-07-03_16h23.22.508,retriever_ti,2020.1.3,Linux x86_64,60,Chrome,1366,768,,,,,,,,,,,,,,,,,2,,,,,,,,,,,,,,,,,,,,,,,,,,,1457.898805,119,right,0.91273,phone       ,3,9,1,1,1,1457.91776,1457.91776,1460.413955,0,41,41,41,1,119,2,3,peacock       ,phone       ,html/resources/sequences_IDs/A/05_peacock.jpg,html/resources/sequences_IDs/B/09_phone.jpg,5,9,2,1,4,2,4,7,0,41,,,,,,,,,,,,,,,,,,,,
,,,,,41,2020-07-03_16h23.22.508,retriever_ti,2020.1.3,Linux x86_64,60,Chrome,1366,768,,,,,,,,,,,,,,,,,2,,,,,,,,,,,,,,,,,,,,,,,,,,,1461.51628,120,left,0.641545,hat           ,6,8,-1,0,0,1461.53298,1461.53298,1464.030505,0,42,42,42,1,120,6,7,hat           ,sport_tshirt,html/resources/sequences_IDs/A/08_hat.jpg,html/resources/sequences_IDs/B/07_sport_tshirt.jpg,8,7,3,2,3,2,6,5,0,41,,,,,,,,,,,,,,,,,,,,
,,,,,41,2020-07-03_16h23.22.508,retriever_ti,2020.1.3,Linux x86_64,60,Chrome,1366,768,,,,,,,,,,,,,,,,,2,,,,,,,,,,,,,,,,,,,,,,,,,,,1465.13184,121,right,0.72622,hat           ,6,8,4,1,3,1465.16611,1465.16611,1467.66374,0,43,43,43,1,121,2,6,peacock       ,hat           ,html/resources/sequences_IDs/A/05_peacock.jpg,html/resources/sequences_IDs/A/08_hat.jpg,5,8,2,1,3,2,4,6,0,41,,,,,,,,,,,,,,,,,,,,
,,,,,41,2020-07-03_16h23.22.508,retriever_ti,2020.1.3,Linux x86_64,60,Chrome,1366,768,,,,,,,,,,,,,,,,,2,,,,,,,,,,,,,,,,,,,,,,,,,,,1468.283945,122,right,0.57326,hat           ,6,8,-1,0,0,1468.30105,1468.30105,1470.796705,0,44,44,44,1,122,7,6,sport_tshirt,hat           ,html/resources/sequences_IDs/B/07_sport_tshirt.jpg,html/resources/sequences_IDs/A/08_hat.jpg,7,8,3,2,3,2,5,6,0,41,,,,,,,,,,,,,,,,,,,,
,,,,,41,2020-07-03_16h23.22.508,retriever_ti,2020.1.3,Linux x86_64,60,Chrome,1366,768,,,,,,,,,,,,,,,,,2,,,,,,,,,,,,,,,,,,,,,,,,,,,1471.89958,123,left,0.63763,hat           ,6,8,2,1,3,1471.915735,1471.915735,1474.413695,0,45,45,45,1,123,6,4,hat           ,seaturtle     ,html/resources/sequences_IDs/A/08_hat.jpg,html/resources/sequences_IDs/A/02_seaturtle.jpg,8,2,3,2,2,1,6,1,0,41,,,,,,,,,,,,,,,,,,,,
,,,,,41,2020-07-03_16h23.22.508,retriever_ti,2020.1.3,Linux x86_64,60,Chrome,1366,768,,,,,,,,,,,,,,,,,2,,,,,,,,,,,,,,,,,,,,,,,,,,,1475.05475,124,left,0.777205,phone       ,3,9,2,1,3,1475.08567,1475.08567,1477.57985,0,46,46,46,1,124,3,1,phone       ,radio       ,html/resources/sequences_IDs/B/09_phone.jpg,html/resources/sequences_IDs/B/10_radio.jpg,9,10,4,2,4,2,7,8,0,41,,,,,,,,,,,,,,,,,,,,
,,,,,41,2020-07-03_16h23.22.508,retriever_ti,2020.1.3,Linux x86_64,60,Chrome,1366,768,,,,,,,,,,,,,,,,,2,,,,,,,,,,,,,,,,,,,,,,,,,,,1478.197415,125,right,0.849555,hat           ,6,8,-2,0,3,1478.21497,1478.21497,1480.713135,0,47,47,47,1,125,8,6,clownfish     ,hat           ,html/resources/sequences_IDs/A/04_clownfish.jpg,html/resources/sequences_IDs/A/08_hat.jpg,4,8,2,1,3,2,3,6,0,41,,,,,,,,,,,,,,,,,,,,
,,,,,41,2020-07-03_16h23.22.508,retriever_ti,2020.1.3,Linux x86_64,60,Chrome,1366,768,,,,,,,,,,,,,,,,,2,,,,,,,,,,,,,,,,,,,,,,,,,,,1481.331815,126,right,0.58846,giraffe     ,5,3,3,1,3,1481.348605,1481.348605,1483.84644,0,48,48,48,1,126,2,5,peacock       ,giraffe     ,html/resources/sequences_IDs/A/05_peacock.jpg,html/resources/sequences_IDs/B/03_giraffe.jpg,5,3,2,1,1,1,4,2,0,41,,,,,,,,,,,,,,,,,,,,
,,,,,41,2020-07-03_16h23.22.508,retriever_ti,2020.1.3,Linux x86_64,60,Chrome,1366,768,,,,,,,,,,,,,,,,,2,,,,,,,,,,,,,,,,,,,,,,,,,,,1484.515685,127,left,1.06171,phone       ,3,9,1,1,1,1484.58754,1484.58754,1487.06296,0,49,49,49,1,127,3,2,phone       ,peacock       ,html/resources/sequences_IDs/B/09_phone.jpg,html/resources/sequences_IDs/A/05_peacock.jpg,9,5,4,2,2,1,7,4,0,41,,,,,,,,,,,,,,,,,,,,
,,,,,41,2020-07-03_16h23.22.508,retriever_ti,2020.1.3,Linux x86_64,60,Chrome,1366,768,,,,,,,,,,,,,,,,,2,,,,,,,,,,,,,,,,,,,,,,,,,,,1488.165415,128,left,0.85385,phone       ,3,9,-5,0,3,1488.183595,1488.183595,1490.678965,0,50,50,50,1,128,3,8,phone       ,clownfish     ,html/resources/sequences_IDs/B/09_phone.jpg,html/resources/sequences_IDs/A/04_clownfish.jpg,9,4,4,2,2,1,7,3,0,41,,,,,,,,,,,,,,,,,,,,
,,,,,41,2020-07-03_16h23.22.508,retriever_ti,2020.1.3,Linux x86_64,60,Chrome,1366,768,,,,,,,,,,,,,,,,,2,,,,,,,,,,,,,,,,,,,,,,,,,,,1491.28142,129,left,0.67589,phone       ,3,9,-4,0,3,1491.314915,1491.314915,1493.81238,0,51,51,51,1,129,3,7,phone       ,sport_tshirt,html/resources/sequences_IDs/B/09_phone.jpg,html/resources/sequences_IDs/B/07_sport_tshirt.jpg,9,7,4,2,3,2,7,5,0,41,,,,,,,,,,,,,,,,,,,,
,,,,,41,2020-07-03_16h23.22.508,retriever_ti,2020.1.3,Linux x86_64,60,Chrome,1366,768,,,,,,,,,,,,,,,,,2,,,,,,,,,,,,,,,,,,,,,,,,,,,1494.42986,130,left,0.63122,hat           ,6,8,-1,0,0,1494.465315,1494.465315,1496.962415,0,52,52,52,1,130,6,7,hat           ,sport_tshirt,html/resources/sequences_IDs/A/08_hat.jpg,html/resources/sequences_IDs/B/07_sport_tshirt.jpg,8,7,3,2,3,2,6,5,0,41,,,,,,,,,,,,,,,,,,,,
,,,,,41,2020-07-03_16h23.22.508,retriever_ti,2020.1.3,Linux x86_64,60,Chrome,1366,768,,,,,,,,,,,,,,,,,2,,,,,,,,,,,,,,,,,,,,,,,,,,,1498.06531,131,right,0.748515,phone       ,3,9,-4,0,3,1498.09926,1498.09926,1500.59542,0,53,53,53,1,131,7,3,sport_tshirt,phone       ,html/resources/sequences_IDs/B/07_sport_tshirt.jpg,html/resources/sequences_IDs/B/09_phone.jpg,7,9,3,2,4,2,5,7,0,41,,,,,,,,,,,,,,,,,,,,
,,,,,41,2020-07-03_16h23.22.508,retriever_ti,2020.1.3,Linux x86_64,60,Chrome,1366,768,,,,,,,,,,,,,,,,,2,,,,,,,,,,,,,,,,,,,,,,,,,,,1501.21425,132,right,0.68925,radio       ,1,10,-7,0,3,1501.232445,1501.232445,1503.728405,0,54,54,54,1,132,8,1,clownfish     ,radio       ,html/resources/sequences_IDs/A/04_clownfish.jpg,html/resources/sequences_IDs/B/10_radio.jpg,4,10,2,1,4,2,3,8,0,41,,,,,,,,,,,,,,,,,,,,
,,,,,41,2020-07-03_16h23.22.508,retriever_ti,2020.1.3,Linux x86_64,60,Chrome,1366,768,,,,,,,,,,,,,,,,,2,,,,,,,,,,,,,,,,,,,,,,,,,,,1504.3298,133,left,0.93129,hat           ,6,8,-1,0,1,1504.3477,1504.3477,1506.84479,0,55,55,55,1,133,6,7,hat           ,sport_tshirt,html/resources/sequences_IDs/A/08_hat.jpg,html/resources/sequences_IDs/B/07_sport_tshirt.jpg,8,7,3,2,3,2,6,5,1,41,,,,,,,,,,,,,,,,,,,,
,,,,,41,2020-07-03_16h23.22.508,retriever_ti,2020.1.3,Linux x86_64,60,Chrome,1366,768,,,,,,,,,,,,,,,,,2,,,,,,,,,,,,,,,,,,,,,,,,,,,1507.947005,134,right,0.6274,hat           ,6,8,2,1,3,1507.96612,1507.96612,1510.461525,0,56,56,56,1,134,4,6,seaturtle     ,hat           ,html/resources/sequences_IDs/A/02_seaturtle.jpg,html/resources/sequences_IDs/A/08_hat.jpg,2,8,2,1,3,2,1,6,0,41,,,,,,,,,,,,,,,,,,,,
,,,,,41,2020-07-03_16h23.22.508,retriever_ti,2020.1.3,Linux x86_64,60,Chrome,1366,768,,,,,,,,,,,,,,,,,2,,,,,,,,,,,,,,,,,,,,,,,,,,,1511.07933,135,right,0.73857,giraffe     ,5,3,-2,0,3,1511.09712,1511.09712,1513.594765,0,57,57,57,1,135,7,5,sport_tshirt,giraffe     ,html/resources/sequences_IDs/B/07_sport_tshirt.jpg,html/resources/sequences_IDs/B/03_giraffe.jpg,7,3,3,2,1,1,5,2,0,41,,,,,,,,,,,,,,,,,,,,
,,,,,41,2020-07-03_16h23.22.508,retriever_ti,2020.1.3,Linux x86_64,60,Chrome,1366,768,,,,,,,,,,,,,,,,,2,,,,,,,,,,,,,,,,,,,,,,,,,,,1514.197755,136,left,0.819615,giraffe     ,5,3,-2,0,3,1514.21395,1514.21395,1516.711445,0,58,58,58,1,136,5,7,giraffe     ,sport_tshirt,html/resources/sequences_IDs/B/03_giraffe.jpg,html/resources/sequences_IDs/B/07_sport_tshirt.jpg,3,7,1,1,3,2,2,5,0,41,,,,,,,,,,,,,,,,,,,,
,,,,,41,2020-07-03_16h23.22.508,retriever_ti,2020.1.3,Linux x86_64,60,Chrome,1366,768,,,,,,,,,,,,,,,,,2,,,,,,,,,,,,,,,,,,,,,,,,,,,1517.328825,137,right,0.73918,giraffe     ,5,3,-3,0,3,1517.36386,1517.36386,1519.861805,0,59,59,59,1,137,8,5,clownfish     ,giraffe     ,html/resources/sequences_IDs/A/04_clownfish.jpg,html/resources/sequences_IDs/B/03_giraffe.jpg,4,3,2,1,1,1,3,2,0,41,,,,,,,,,,,,,,,,,,,,
,,,,,41,2020-07-03_16h23.22.508,retriever_ti,2020.1.3,Linux x86_64,60,Chrome,1366,768,,,,,,,,,,,,,,,,,2,,,,,,,,,,,,,,,,,,,,,,,,,,,1520.479955,138,right,0.551275,hat           ,6,8,5,1,3,1520.514565,1520.514565,1523.01163,0,60,60,60,1,138,1,6,radio       ,hat           ,html/resources/sequences_IDs/B/10_radio.jpg,html/resources/sequences_IDs/A/08_hat.jpg,10,8,4,2,3,2,8,6,0,41,,,,,,,,,,,,,,,,,,,,
,,,,,41,2020-07-03_16h23.22.508,retriever_ti,2020.1.3,Linux x86_64,60,Chrome,1366,768,,,,,,,,,,,,,,,,,2,,,,,,,,,,,,,,,,,,,,,,,,,,,1523.62845,139,left,0.57753,sport_tshirt,7,7,-1,0,1,1523.647425,1523.647425,1526.14417,0,61,61,61,1,139,7,8,sport_tshirt,clownfish     ,html/resources/sequences_IDs/B/07_sport_tshirt.jpg,html/resources/sequences_IDs/A/04_clownfish.jpg,7,4,3,2,2,1,5,3,1,41,,,,,,,,,,,,,,,,,,,,
,,,,,41,2020-07-03_16h23.22.508,retriever_ti,2020.1.3,Linux x86_64,60,Chrome,1366,768,,,,,,,,,,,,,,,,,2,,,,,,,,,,,,,,,,,,,,,,,,,,,1527.246995,140,right,0.555705,peacock       ,2,5,-1,0,1,1527.281505,1527.281505,1529.777465,0,62,62,62,1,140,3,2,phone       ,peacock       ,html/resources/sequences_IDs/B/09_phone.jpg,html/resources/sequences_IDs/A/05_peacock.jpg,9,5,4,2,2,1,7,4,1,41,,,,,,,,,,,,,,,,,,,,
,,,,,41,2020-07-03_16h23.22.508,retriever_ti,2020.1.3,Linux x86_64,60,Chrome,1366,768,,,,,,,,,,,,,,,,,2,,,,,,,,,,,,,,,,,,,,,,,,,,,1530.879835,141,left,0.494965,giraffe     ,5,3,-1,0,0,1530.89618,1530.89618,1533.39381,0,63,63,63,1,141,5,6,giraffe     ,hat           ,html/resources/sequences_IDs/B/03_giraffe.jpg,html/resources/sequences_IDs/A/08_hat.jpg,3,8,1,1,3,2,2,6,0,41,,,,,,,,,,,,,,,,,,,,
,,,,,41,2020-07-03_16h23.22.508,retriever_ti,2020.1.3,Linux x86_64,60,Chrome,1366,768,,,,,,,,,,,,,,,,,2,,,,,,,,,,,,,,,,,,,,,,,,,,,1534.49605,142,left,0.868105,hat           ,6,8,4,1,3,1534.51223,1534.51223,1537.01709,0,64,64,64,1,142,6,2,hat           ,peacock       ,html/resources/sequences_IDs/A/08_hat.jpg,html/resources/sequences_IDs/A/05_peacock.jpg,8,5,3,2,2,1,6,4,0,41,,,,,,,,,,,,,,,,,,,,
,,,,,41,2020-07-03_16h23.22.508,retriever_ti,2020.1.3,Linux x86_64,60,Chrome,1366,768,,,,,,,,,,,,,,,,,2,,,,,,,,,,,,,,,,,,,,,,,,,,,1537.63031,143,right,0.6185,giraffe     ,5,3,1,1,1,1537.649375,1537.649375,1540.14341,0,65,65,65,1,143,4,5,seaturtle     ,giraffe     ,html/resources/sequences_IDs/A/02_seaturtle.jpg,html/resources/sequences_IDs/B/03_giraffe.jpg,2,3,2,1,1,1,1,2,0,41,,,,,,,,,,,,,,,,,,,,
,,,,,41,2020-07-03_16h23.22.508,retriever_ti,2020.1.3,Linux x86_64,60,Chrome,1366,768,,,,,,,,,,,,,,,,,2,,,,,,,,,,,,,,,,,,,,,,,,,,,1541.24547,144,left,0.66377,giraffe     ,5,3,4,1,3,1541.263075,1541.263075,1543.760005,0,66,66,66,1,144,5,1,giraffe     ,radio       ,html/resources/sequences_IDs/B/03_giraffe.jpg,html/resources/sequences_IDs/B/10_radio.jpg,3,10,1,1,4,2,2,8,0,41,,,,,,,,,,,,,,,,,,,,
,,,,,41,2020-07-03_16h23.22.508,retriever_ti,2020.1.3,Linux x86_64,60,Chrome,1366,768,,,,,,,,,,,,,,,,,2,,,,,,,,,,,,,,,,,,,,,,,,,,,1544.37861,145,left,0.87382,hat           ,6,8,1,1,1,1544.413055,1544.413055,1546.910095,0,67,67,67,1,145,6,5,hat           ,giraffe     ,html/resources/sequences_IDs/A/08_hat.jpg,html/resources/sequences_IDs/B/03_giraffe.jpg,8,3,3,2,1,1,6,2,0,41,,,,,,,,,,,,,,,,,,,,
,,,,,41,2020-07-03_16h23.22.508,retriever_ti,2020.1.3,Linux x86_64,60,Chrome,1366,768,,,,,,,,,,,,,,,,,2,,,,,,,,,,,,,,,,,,,,,,,,,,,1548.01076,146,right,0.664295,sport_tshirt,7,7,-1,0,0,1548.047895,1548.047895,1550.54304,0,68,68,68,1,146,8,7,clownfish     ,sport_tshirt,html/resources/sequences_IDs/A/04_clownfish.jpg,html/resources/sequences_IDs/B/07_sport_tshirt.jpg,4,7,2,1,3,2,3,5,0,41,,,,,,,,,,,,,,,,,,,,
,,,,,41,2020-07-03_16h23.22.508,retriever_ti,2020.1.3,Linux x86_64,60,Chrome,1366,768,,,,,,,,,,,,,,,,,2,,,,,,,,,,,,,,,,,,,,,,,,,,,1551.64473,147,right,0.619575,seaturtle     ,4,2,3,1,3,1551.679325,1551.679325,1554.176365,0,69,69,69,1,147,1,4,radio       ,seaturtle     ,html/resources/sequences_IDs/B/10_radio.jpg,html/resources/sequences_IDs/A/02_seaturtle.jpg,10,2,4,2,2,1,8,1,0,41,,,,,,,,,,,,,,,,,,,,
,,,,,41,2020-07-03_16h23.22.508,retriever_ti,2020.1.3,Linux x86_64,60,Chrome,1366,768,,,,,,,,,,,,,,,,,2,,,,,,,,,,,,,,,,,,,,,,,,,,,1554.79457,148,right,0.726405,giraffe     ,5,3,1,1,1,1554.811545,1554.811545,1557.30955,0,70,70,70,1,148,4,5,seaturtle     ,giraffe     ,html/resources/sequences_IDs/A/02_seaturtle.jpg,html/resources/sequences_IDs/B/03_giraffe.jpg,2,3,2,1,1,1,1,2,0,41,,,,,,,,,,,,,,,,,,,,
,,,,,41,2020-07-03_16h23.22.508,retriever_ti,2020.1.3,Linux x86_64,60,Chrome,1366,768,,,,,,,,,,,,,,,,,2,,,,,,,,,,,,,,,,,,,,,,,,,,,1558.410565,149,left,1.094135,peacock       ,2,5,-2,0,3,1558.44463,1558.44463,1560.942545,0,71,71,71,1,149,2,4,peacock       ,seaturtle     ,html/resources/sequences_IDs/A/05_peacock.jpg,html/resources/sequences_IDs/A/02_seaturtle.jpg,5,2,2,1,2,1,4,1,0,41,,,,,,,,,,,,,,,,,,,,
,,,,,41,2020-07-03_16h23.22.508,retriever_ti,2020.1.3,Linux x86_64,60,Chrome,1366,768,,,,,,,,,,,,,,,,,2,,,,,,,,,,,,,,,,,,,,,,,,,,,1561.561395,150,right,0.625885,peacock       ,2,5,1,1,1,1561.578105,1561.578105,1564.0758,0,72,72,72,1,150,1,2,radio       ,peacock       ,html/resources/sequences_IDs/B/10_radio.jpg,html/resources/sequences_IDs/A/05_peacock.jpg,10,5,4,2,2,1,8,4,0,41,,,,,,,,,,,,,,,,,,,,
,,,,,41,2020-07-03_16h23.22.508,retriever_ti,2020.1.3,Linux x86_64,60,Chrome,1366,768,,,,,,,,,,,,,,,,,2,,,,,,,,,,,,,,,,,,,,,,,,,,,1565.17696,151,right,0.70739,phone       ,3,9,2,1,3,1565.197045,1565.197045,1567.692615,0,73,73,73,1,151,1,3,radio       ,phone       ,html/resources/sequences_IDs/B/10_radio.jpg,html/resources/sequences_IDs/B/09_phone.jpg,10,9,4,2,4,2,8,7,0,41,,,,,,,,,,,,,,,,,,,,
,,,,,41,2020-07-03_16h23.22.508,retriever_ti,2020.1.3,Linux x86_64,60,Chrome,1366,768,,,,,,,,,,,,,,,,,2,,,,,,,,,,,,,,,,,,,,,,,,,,,1568.311225,152,left,0.80329,radio       ,1,10,-6,0,3,1568.34511,1568.34511,1570.84253,0,74,74,74,1,152,1,7,radio       ,sport_tshirt,html/resources/sequences_IDs/B/10_radio.jpg,html/resources/sequences_IDs/B/07_sport_tshirt.jpg,10,7,4,2,3,2,8,5,0,41,,,,,,,,,,,,,,,,,,,,
,,,,,41,2020-07-03_16h23.22.508,retriever_ti,2020.1.3,Linux x86_64,60,Chrome,1366,768,,,,,,,,,,,,,,,,,2,,,,,,,,,,,,,,,,,,,,,,,,,,,1571.45987,153,left,0.73225,phone       ,3,9,-1,0,0,1571.47791,1571.47791,1573.975265,0,75,75,75,1,153,3,4,phone       ,seaturtle     ,html/resources/sequences_IDs/B/09_phone.jpg,html/resources/sequences_IDs/A/02_seaturtle.jpg,9,2,4,2,2,1,7,1,0,41,,,,,,,,,,,,,,,,,,,,
,,,,,41,2020-07-03_16h23.22.508,retriever_ti,2020.1.3,Linux x86_64,60,Chrome,1366,768,,,,,,,,,,,,,,,,,2,,,,,,,,,,,,,,,,,,,,,,,,,,,1575.0771,154,right,0.78705,peacock       ,2,5,1,1,1,1575.093875,1575.093875,1577.592145,0,76,76,76,1,154,1,2,radio       ,peacock       ,html/resources/sequences_IDs/B/10_radio.jpg,html/resources/sequences_IDs/A/05_peacock.jpg,10,5,4,2,2,1,8,4,0,41,,,,,,,,,,,,,,,,,,,,
,,,,,41,2020-07-03_16h23.22.508,retriever_ti,2020.1.3,Linux x86_64,60,Chrome,1366,768,,,,,,,,,,,,,,,,,,,,,,,,,,,,,,,,,,,,,0,1.522595,,,,,,,,,,,,,,,,,,,,,,,,,,,,,,,,,,,,,,,,,1,0,1,0,1,,,,,,,,,,,,,,,
,,,,,41,2020-07-03_16h23.22.508,retriever_ti,2020.1.3,Linux x86_64,60,Chrome,1366,768,,,,,,,,,,,,,,,,,3,,,,,,,,,,,,,,,,,,,,,,,,,,,1588.81656,155,left,0.79749,hat           ,6,8,4,1,3,1588.844905,1588.844905,1591.341915,0,0,0,0,1,155,6,2,hat           ,peacock       ,html/resources/sequences_IDs/A/08_hat.jpg,html/resources/sequences_IDs/A/05_peacock.jpg,8,5,3,2,2,1,6,4,0,41,,,,,,,,,,,,,,,,,,,,
,,,,,41,2020-07-03_16h23.22.508,retriever_ti,2020.1.3,Linux x86_64,60,Chrome,1366,768,,,,,,,,,,,,,,,,,3,,,,,,,,,,,,,,,,,,,,,,,,,,,1591.9601,156,right,0.78015,seaturtle     ,4,2,3,1,3,1591.994245,1591.994245,1594.490865,0,1,1,1,1,156,1,4,radio       ,seaturtle     ,html/resources/sequences_IDs/B/10_radio.jpg,html/resources/sequences_IDs/A/02_seaturtle.jpg,10,2,4,2,2,1,8,1,0,41,,,,,,,,,,,,,,,,,,,,
,,,,,41,2020-07-03_16h23.22.508,retriever_ti,2020.1.3,Linux x86_64,60,Chrome,1366,768,,,,,,,,,,,,,,,,,3,,,,,,,,,,,,,,,,,,,,,,,,,,,1595.108985,157,left,0.79919,phone       ,3,9,-1,0,1,1595.143735,1595.143735,1597.640985,0,2,2,2,1,157,3,4,phone       ,seaturtle     ,html/resources/sequences_IDs/B/09_phone.jpg,html/resources/sequences_IDs/A/02_seaturtle.jpg,9,2,4,2,2,1,7,1,1,41,,,,,,,,,,,,,,,,,,,,
,,,,,41,2020-07-03_16h23.22.508,retriever_ti,2020.1.3,Linux x86_64,60,Chrome,1366,768,,,,,,,,,,,,,,,,,3,,,,,,,,,,,,,,,,,,,,,,,,,,,1598.74346,158,left,0.72137,hat           ,6,8,-1,0,0,1598.77762,1598.77762,1601.274235,0,3,3,3,1,158,6,7,hat           ,sport_tshirt,html/resources/sequences_IDs/A/08_hat.jpg,html/resources/sequences_IDs/B/07_sport_tshirt.jpg,8,7,3,2,3,2,6,5,0,41,,,,,,,,,,,,,,,,,,,,
,,,,,41,2020-07-03_16h23.22.508,retriever_ti,2020.1.3,Linux x86_64,60,Chrome,1366,768,,,,,,,,,,,,,,,,,3,,,,,,,,,,,,,,,,,,,,,,,,,,,1602.376455,159,left,0.776215,giraffe     ,5,3,3,1,3,1602.409995,1602.409995,1604.902435,0,4,4,4,1,159,5,2,giraffe     ,peacock       ,html/resources/sequences_IDs/B/03_giraffe.jpg,html/resources/sequences_IDs/A/05_peacock.jpg,3,5,1,1,2,1,2,4,0,41,,,,,,,,,,,,,,,,,,,,
,,,,,41,2020-07-03_16h23.22.508,retriever_ti,2020.1.3,Linux x86_64,60,Chrome,1366,768,,,,,,,,,,,,,,,,,3,,,,,,,,,,,,,,,,,,,,,,,,,,,1605.518535,160,left,0.955625,giraffe     ,5,3,1,1,0,1605.543575,1605.543575,1608.040295,0,5,5,5,1,160,5,4,giraffe     ,seaturtle     ,html/resources/sequences_IDs/B/03_giraffe.jpg,html/resources/sequences_IDs/A/02_seaturtle.jpg,3,2,1,1,2,1,2,1,1,41,,,,,,,,,,,,,,,,,,,,
,,,,,41,2020-07-03_16h23.22.508,retriever_ti,2020.1.3,Linux x86_64,60,Chrome,1366,768,,,,,,,,,,,,,,,,,3,,,,,,,,,,,,,,,,,,,,,,,,,,,1609.141925,161,left,0.952085,seaturtle     ,4,2,1,1,1,1609.159385,1609.159385,1611.6571,0,6,6,6,1,161,4,3,seaturtle     ,phone       ,html/resources/sequences_IDs/A/02_seaturtle.jpg,html/resources/sequences_IDs/B/09_phone.jpg,2,9,2,1,4,2,1,7,0,41,,,,,,,,,,,,,,,,,,,,
,,,,,41,2020-07-03_16h23.22.508,retriever_ti,2020.1.3,Linux x86_64,60,Chrome,1366,768,,,,,,,,,,,,,,,,,3,,,,,,,,,,,,,,,,,,,,,,,,,,,1612.758395,162,right,0.584985,clownfish     ,8,4,1,1,0,1612.79426,1612.79426,1615.290295,0,7,7,7,1,162,7,8,sport_tshirt,clownfish     ,html/resources/sequences_IDs/B/07_sport_tshirt.jpg,html/resources/sequences_IDs/A/04_clownfish.jpg,7,4,3,2,2,1,5,3,1,41,,,,,,,,,,,,,,,,,,,,
,,,,,41,2020-07-03_16h23.22.508,retriever_ti,2020.1.3,Linux x86_64,60,Chrome,1366,768,,,,,,,,,,,,,,,,,3,,,,,,,,,,,,,,,,,,,,,,,,,,,1616.39197,163,left,0.69445,phone       ,3,9,-2,0,3,1616.42745,1616.42745,1618.93094,0,8,8,8,1,163,3,5,phone       ,giraffe     ,html/resources/sequences_IDs/B/09_phone.jpg,html/resources/sequences_IDs/B/03_giraffe.jpg,9,3,4,2,1,1,7,2,0,41,,,,,,,,,,,,,,,,,,,,
,,,,,41,2020-07-03_16h23.22.508,retriever_ti,2020.1.3,Linux x86_64,60,Chrome,1366,768,,,,,,,,,,,,,,,,,3,,,,,,,,,,,,,,,,,,,,,,,,,,,1619.54364,164,left,0.922925,giraffe     ,5,3,1,1,1,1619.56179,1619.56179,1622.056995,0,9,9,9,1,164,5,4,giraffe     ,seaturtle     ,html/resources/sequences_IDs/B/03_giraffe.jpg,html/resources/sequences_IDs/A/02_seaturtle.jpg,3,2,1,1,2,1,2,1,0,41,,,,,,,,,,,,,,,,,,,,
,,,,,41,2020-07-03_16h23.22.508,retriever_ti,2020.1.3,Linux x86_64,60,Chrome,1366,768,,,,,,,,,,,,,,,,,3,,,,,,,,,,,,,,,,,,,,,,,,,,,1623.15852,165,right,0.861315,sport_tshirt,7,7,5,1,3,1623.192445,1623.192445,1625.69048,0,10,10,10,1,165,2,7,peacock       ,sport_tshirt,html/resources/sequences_IDs/A/05_peacock.jpg,html/resources/sequences_IDs/B/07_sport_tshirt.jpg,5,7,2,1,3,2,4,5,0,41,,,,,,,,,,,,,,,,,,,,
,,,,,41,2020-07-03_16h23.22.508,retriever_ti,2020.1.3,Linux x86_64,60,Chrome,1366,768,,,,,,,,,,,,,,,,,3,,,,,,,,,,,,,,,,,,,,,,,,,,,1626.310305,166,right,0.803985,giraffe     ,5,3,-3,0,3,1626.326055,1626.326055,1628.82305,0,11,11,11,1,166,8,5,clownfish     ,giraffe     ,html/resources/sequences_IDs/A/04_clownfish.jpg,html/resources/sequences_IDs/B/03_giraffe.jpg,4,3,2,1,1,1,3,2,0,41,,,,,,,,,,,,,,,,,,,,
,,,,,41,2020-07-03_16h23.22.508,retriever_ti,2020.1.3,Linux x86_64,60,Chrome,1366,768,,,,,,,,,,,,,,,,,3,,,,,,,,,,,,,,,,,,,,,,,,,,,1629.42621,167,left,0.738,giraffe     ,5,3,-2,0,3,1629.44338,1629.44338,1631.939235,0,12,12,12,1,167,5,7,giraffe     ,sport_tshirt,html/resources/sequences_IDs/B/03_giraffe.jpg,html/resources/sequences_IDs/B/07_sport_tshirt.jpg,3,7,1,1,3,2,2,5,0,41,,,,,,,,,,,,,,,,,,,,
,,,,,41,2020-07-03_16h23.22.508,retriever_ti,2020.1.3,Linux x86_64,60,Chrome,1366,768,,,,,,,,,,,,,,,,,3,,,,,,,,,,,,,,,,,,,,,,,,,,,1632.558245,168,right,0.71605,seaturtle     ,4,2,-3,0,3,1632.577645,1632.577645,1635.073005,0,13,13,13,1,168,7,4,sport_tshirt,seaturtle     ,html/resources/sequences_IDs/B/07_sport_tshirt.jpg,html/resources/sequences_IDs/A/02_seaturtle.jpg,7,2,3,2,2,1,5,1,0,41,,,,,,,,,,,,,,,,,,,,
,,,,,41,2020-07-03_16h23.22.508,retriever_ti,2020.1.3,Linux x86_64,60,Chrome,1366,768,,,,,,,,,,,,,,,,,3,,,,,,,,,,,,,,,,,,,,,,,,,,,1635.69008,169,left,0.88357,seaturtle     ,4,2,2,1,3,1635.72543,1635.72543,1638.2221,0,14,14,14,1,169,4,2,seaturtle     ,peacock       ,html/resources/sequences_IDs/A/02_seaturtle.jpg,html/resources/sequences_IDs/A/05_peacock.jpg,2,5,2,1,2,1,1,4,0,41,,,,,,,,,,,,,,,,,,,,
,,,,,41,2020-07-03_16h23.22.508,retriever_ti,2020.1.3,Linux x86_64,60,Chrome,1366,768,,,,,,,,,,,,,,,,,3,,,,,,,,,,,,,,,,,,,,,,,,,,,1638.84157,170,right,0.55614,sport_tshirt,7,7,-1,0,0,1638.876755,1638.876755,1641.372285,0,15,15,15,1,170,8,7,clownfish     ,sport_tshirt,html/resources/sequences_IDs/A/04_clownfish.jpg,html/resources/sequences_IDs/B/07_sport_tshirt.jpg,4,7,2,1,3,2,3,5,0,41,,,,,,,,,,,,,,,,,,,,
,,,,,41,2020-07-03_16h23.22.508,retriever_ti,2020.1.3,Linux x86_64,60,Chrome,1366,768,,,,,,,,,,,,,,,,,3,,,,,,,,,,,,,,,,,,,,,,,,,,,1642.473795,171,left,0.88117,seaturtle     ,4,2,1,1,1,1642.508905,1642.508905,1645.00543,0,16,16,16,1,171,4,3,seaturtle     ,phone       ,html/resources/sequences_IDs/A/02_seaturtle.jpg,html/resources/sequences_IDs/B/09_phone.jpg,2,9,2,1,4,2,1,7,0,41,,,,,,,,,,,,,,,,,,,,
,,,,,41,2020-07-03_16h23.22.508,retriever_ti,2020.1.3,Linux x86_64,60,Chrome,1366,768,,,,,,,,,,,,,,,,,3,,,,,,,,,,,,,,,,,,,,,,,,,,,1646.10669,172,left,0.776615,peacock       ,2,5,-1,0,0,1646.12398,1646.12398,1648.62181,0,17,17,17,1,172,2,3,peacock       ,phone       ,html/resources/sequences_IDs/A/05_peacock.jpg,html/resources/sequences_IDs/B/09_phone.jpg,5,9,2,1,4,2,4,7,0,41,,,,,,,,,,,,,,,,,,,,
,,,,,41,2020-07-03_16h23.22.508,retriever_ti,2020.1.3,Linux x86_64,60,Chrome,1366,768,,,,,,,,,,,,,,,,,3,,,,,,,,,,,,,,,,,,,,,,,,,,,1649.72377,173,left,0.85353,phone       ,3,9,1,1,0,1649.758815,1649.758815,1652.255275,0,18,18,18,1,173,3,2,phone       ,peacock       ,html/resources/sequences_IDs/B/09_phone.jpg,html/resources/sequences_IDs/A/05_peacock.jpg,9,5,4,2,2,1,7,4,1,41,,,,,,,,,,,,,,,,,,,,
,,,,,41,2020-07-03_16h23.22.508,retriever_ti,2020.1.3,Linux x86_64,60,Chrome,1366,768,,,,,,,,,,,,,,,,,3,,,,,,,,,,,,,,,,,,,,,,,,,,,1653.363645,174,NaN,NaN,No_response,NaN,NaN,NaN,2,2,1653.39192,1653.39192,1655.88443,0,19,19,19,1,174,4,5,seaturtle     ,giraffe     ,html/resources/sequences_IDs/A/02_seaturtle.jpg,html/resources/sequences_IDs/B/03_giraffe.jpg,2,3,2,1,1,1,1,2,0,41,,,,,,,,,,,,,,,,,,,,
,,,,,41,2020-07-03_16h23.22.508,retriever_ti,2020.1.3,Linux x86_64,60,Chrome,1366,768,,,,,,,,,,,,,,,,,3,,,,,,,,,,,,,,,,,,,,,,,,,,,1656.97719,175,left,0.61802,hat           ,6,8,-2,0,3,1656.997765,1656.997765,1659.48798,0,20,20,20,1,175,6,8,hat           ,clownfish     ,html/resources/sequences_IDs/A/08_hat.jpg,html/resources/sequences_IDs/A/04_clownfish.jpg,8,4,3,2,2,1,6,3,0,41,,,,,,,,,,,,,,,,,,,,
,,,,,41,2020-07-03_16h23.22.508,retriever_ti,2020.1.3,Linux x86_64,60,Chrome,1366,768,,,,,,,,,,,,,,,,,3,,,,,,,,,,,,,,,,,,,,,,,,,,,1660.10738,176,right,0.642855,clownfish     ,8,4,1,1,1,1660.14228,1660.14228,1662.63807,0,21,21,21,1,176,7,8,sport_tshirt,clownfish     ,html/resources/sequences_IDs/B/07_sport_tshirt.jpg,html/resources/sequences_IDs/A/04_clownfish.jpg,7,4,3,2,2,1,5,3,0,41,,,,,,,,,,,,,,,,,,,,
,,,,,41,2020-07-03_16h23.22.508,retriever_ti,2020.1.3,Linux x86_64,60,Chrome,1366,768,,,,,,,,,,,,,,,,,3,,,,,,,,,,,,,,,,,,,,,,,,,,,1663.73875,177,right,0.577325,hat           ,6,8,-1,0,0,1663.775765,1663.775765,1666.271015,0,22,22,22,1,177,7,6,sport_tshirt,hat           ,html/resources/sequences_IDs/B/07_sport_tshirt.jpg,html/resources/sequences_IDs/A/08_hat.jpg,7,8,3,2,3,2,5,6,0,41,,,,,,,,,,,,,,,,,,,,
,,,,,41,2020-07-03_16h23.22.508,retriever_ti,2020.1.3,Linux x86_64,60,Chrome,1366,768,,,,,,,,,,,,,,,,,3,,,,,,,,,,,,,,,,,,,,,,,,,,,1667.373535,178,left,0.56603,giraffe     ,5,3,4,1,3,1667.407395,1667.407395,1669.905235,0,23,23,23,1,178,5,1,giraffe     ,radio       ,html/resources/sequences_IDs/B/03_giraffe.jpg,html/resources/sequences_IDs/B/10_radio.jpg,3,10,1,1,4,2,2,8,0,41,,,,,,,,,,,,,,,,,,,,
,,,,,41,2020-07-03_16h23.22.508,retriever_ti,2020.1.3,Linux x86_64,60,Chrome,1366,768,,,,,,,,,,,,,,,,,3,,,,,,,,,,,,,,,,,,,,,,,,,,,1670.525145,179,left,0.83423,seaturtle     ,4,2,-3,0,3,1670.5407,1670.5407,1673.03803,0,24,24,24,1,179,4,7,seaturtle     ,sport_tshirt,html/resources/sequences_IDs/A/02_seaturtle.jpg,html/resources/sequences_IDs/B/07_sport_tshirt.jpg,2,7,2,1,3,2,1,5,0,41,,,,,,,,,,,,,,,,,,,,
,,,,,41,2020-07-03_16h23.22.508,retriever_ti,2020.1.3,Linux x86_64,60,Chrome,1366,768,,,,,,,,,,,,,,,,,3,,,,,,,,,,,,,,,,,,,,,,,,,,,1673.655145,180,right,0.826685,seaturtle     ,4,2,2,1,3,1673.67313,1673.67313,1676.170715,0,25,25,25,1,180,2,4,peacock       ,seaturtle     ,html/resources/sequences_IDs/A/05_peacock.jpg,html/resources/sequences_IDs/A/02_seaturtle.jpg,5,2,2,1,2,1,4,1,0,41,,,,,,,,,,,,,,,,,,,,
,,,,,41,2020-07-03_16h23.22.508,retriever_ti,2020.1.3,Linux x86_64,60,Chrome,1366,768,,,,,,,,,,,,,,,,,3,,,,,,,,,,,,,,,,,,,,,,,,,,,1676.78892,181,left,0.578235,giraffe     ,5,3,-3,0,3,1676.80746,1676.80746,1679.30368,0,26,26,26,1,181,5,8,giraffe     ,clownfish     ,html/resources/sequences_IDs/B/03_giraffe.jpg,html/resources/sequences_IDs/A/04_clownfish.jpg,3,4,1,1,2,1,2,3,0,41,,,,,,,,,,,,,,,,,,,,
,,,,,41,2020-07-03_16h23.22.508,retriever_ti,2020.1.3,Linux x86_64,60,Chrome,1366,768,,,,,,,,,,,,,,,,,3,,,,,,,,,,,,,,,,,,,,,,,,,,,1679.90559,182,left,0.677825,hat           ,6,8,1,1,0,1679.940285,1679.940285,1682.43749,0,27,27,27,1,182,6,5,hat           ,giraffe     ,html/resources/sequences_IDs/A/08_hat.jpg,html/resources/sequences_IDs/B/03_giraffe.jpg,8,3,3,2,1,1,6,2,1,41,,,,,,,,,,,,,,,,,,,,
,,,,,41,2020-07-03_16h23.22.508,retriever_ti,2020.1.3,Linux x86_64,60,Chrome,1366,768,,,,,,,,,,,,,,,,,3,,,,,,,,,,,,,,,,,,,,,,,,,,,1683.53951,183,left,0.75995,peacock       ,2,5,1,1,1,1683.57406,1683.57406,1686.070405,0,28,28,28,1,183,2,1,peacock       ,radio       ,html/resources/sequences_IDs/A/05_peacock.jpg,html/resources/sequences_IDs/B/10_radio.jpg,5,10,2,1,4,2,4,8,0,41,,,,,,,,,,,,,,,,,,,,
,,,,,41,2020-07-03_16h23.22.508,retriever_ti,2020.1.3,Linux x86_64,60,Chrome,1366,768,,,,,,,,,,,,,,,,,3,,,,,,,,,,,,,,,,,,,,,,,,,,,1687.172295,184,right,0.730845,hat           ,6,8,-2,0,3,1687.207605,1687.207605,1689.70427,0,29,29,29,1,184,8,6,clownfish     ,hat           ,html/resources/sequences_IDs/A/04_clownfish.jpg,html/resources/sequences_IDs/A/08_hat.jpg,4,8,2,1,3,2,3,6,0,41,,,,,,,,,,,,,,,,,,,,
,,,,,41,2020-07-03_16h23.22.508,retriever_ti,2020.1.3,Linux x86_64,60,Chrome,1366,768,,,,,,,,,,,,,,,,,3,,,,,,,,,,,,,,,,,,,,,,,,,,,1690.32142,185,right,0.62854,peacock       ,2,5,-5,0,3,1690.34029,1690.34029,1692.836765,0,30,30,30,1,185,7,2,sport_tshirt,peacock       ,html/resources/sequences_IDs/B/07_sport_tshirt.jpg,html/resources/sequences_IDs/A/05_peacock.jpg,7,5,3,2,2,1,5,4,0,41,,,,,,,,,,,,,,,,,,,,
,,,,,41,2020-07-03_16h23.22.508,retriever_ti,2020.1.3,Linux x86_64,60,Chrome,1366,768,,,,,,,,,,,,,,,,,3,,,,,,,,,,,,,,,,,,,,,,,,,,,1693.4554,186,left,0.574205,hat           ,6,8,-1,0,0,1693.472565,1693.472565,1695.96965,0,31,31,31,1,186,6,7,hat           ,sport_tshirt,html/resources/sequences_IDs/A/08_hat.jpg,html/resources/sequences_IDs/B/07_sport_tshirt.jpg,8,7,3,2,3,2,6,5,0,41,,,,,,,,,,,,,,,,,,,,
,,,,,41,2020-07-03_16h23.22.508,retriever_ti,2020.1.3,Linux x86_64,60,Chrome,1366,768,,,,,,,,,,,,,,,,,3,,,,,,,,,,,,,,,,,,,,,,,,,,,1697.072075,187,right,0.593675,seaturtle     ,4,2,-4,0,3,1697.106345,1697.106345,1699.60363,0,32,32,32,1,187,8,4,clownfish     ,seaturtle     ,html/resources/sequences_IDs/A/04_clownfish.jpg,html/resources/sequences_IDs/A/02_seaturtle.jpg,4,2,2,1,2,1,3,1,0,41,,,,,,,,,,,,,,,,,,,,
,,,,,41,2020-07-03_16h23.22.508,retriever_ti,2020.1.3,Linux x86_64,60,Chrome,1366,768,,,,,,,,,,,,,,,,,3,,,,,,,,,,,,,,,,,,,,,,,,,,,1700.22072,188,left,0.60626,phone       ,3,9,-3,0,3,1700.256545,1700.256545,1702.761095,0,33,33,33,1,188,3,6,phone       ,hat           ,html/resources/sequences_IDs/B/09_phone.jpg,html/resources/sequences_IDs/A/08_hat.jpg,9,8,4,2,3,2,7,6,0,41,,,,,,,,,,,,,,,,,,,,
,,,,,41,2020-07-03_16h23.22.508,retriever_ti,2020.1.3,Linux x86_64,60,Chrome,1366,768,,,,,,,,,,,,,,,,,3,,,,,,,,,,,,,,,,,,,,,,,,,,,1703.371985,189,right,0.752205,hat           ,6,8,4,1,3,1703.406535,1703.406535,1705.903105,0,34,34,34,1,189,2,6,peacock       ,hat           ,html/resources/sequences_IDs/A/05_peacock.jpg,html/resources/sequences_IDs/A/08_hat.jpg,5,8,2,1,3,2,4,6,0,41,,,,,,,,,,,,,,,,,,,,
,,,,,41,2020-07-03_16h23.22.508,retriever_ti,2020.1.3,Linux x86_64,60,Chrome,1366,768,,,,,,,,,,,,,,,,,3,,,,,,,,,,,,,,,,,,,,,,,,,,,1706.520395,190,left,0.892395,phone       ,3,9,-5,0,3,1706.556215,1706.556215,1709.052505,0,35,35,35,1,190,3,8,phone       ,clownfish     ,html/resources/sequences_IDs/B/09_phone.jpg,html/resources/sequences_IDs/A/04_clownfish.jpg,9,4,4,2,2,1,7,3,0,41,,,,,,,,,,,,,,,,,,,,
,,,,,41,2020-07-03_16h23.22.508,retriever_ti,2020.1.3,Linux x86_64,60,Chrome,1366,768,,,,,,,,,,,,,,,,,3,,,,,,,,,,,,,,,,,,,,,,,,,,,1709.67194,191,right,0.78254,giraffe     ,5,3,1,1,1,1709.70529,1709.70529,1712.203225,0,36,36,36,1,191,4,5,seaturtle     ,giraffe     ,html/resources/sequences_IDs/A/02_seaturtle.jpg,html/resources/sequences_IDs/B/03_giraffe.jpg,2,3,2,1,1,1,1,2,0,41,,,,,,,,,,,,,,,,,,,,
,,,,,41,2020-07-03_16h23.22.508,retriever_ti,2020.1.3,Linux x86_64,60,Chrome,1366,768,,,,,,,,,,,,,,,,,3,,,,,,,,,,,,,,,,,,,,,,,,,,,1713.3057,192,right,0.735075,phone       ,3,9,2,1,3,1713.339785,1713.339785,1715.83539,0,37,37,37,1,192,1,3,radio       ,phone       ,html/resources/sequences_IDs/B/10_radio.jpg,html/resources/sequences_IDs/B/09_phone.jpg,10,9,4,2,4,2,8,7,0,41,,,,,,,,,,,,,,,,,,,,
,,,,,41,2020-07-03_16h23.22.508,retriever_ti,2020.1.3,Linux x86_64,60,Chrome,1366,768,,,,,,,,,,,,,,,,,3,,,,,,,,,,,,,,,,,,,,,,,,,,,1716.453545,193,left,0.69654,giraffe     ,5,3,2,1,3,1716.487575,1716.487575,1718.98544,0,38,38,38,1,193,5,3,giraffe     ,phone       ,html/resources/sequences_IDs/B/03_giraffe.jpg,html/resources/sequences_IDs/B/09_phone.jpg,3,9,1,1,4,2,2,7,0,41,,,,,,,,,,,,,,,,,,,,
,,,,,41,2020-07-03_16h23.22.508,retriever_ti,2020.1.3,Linux x86_64,60,Chrome,1366,768,,,,,,,,,,,,,,,,,3,,,,,,,,,,,,,,,,,,,,,,,,,,,1719.604655,194,left,0.93161,peacock       ,2,5,-6,0,3,1719.621405,1719.621405,1722.118665,0,39,39,39,1,194,2,8,peacock       ,clownfish     ,html/resources/sequences_IDs/A/05_peacock.jpg,html/resources/sequences_IDs/A/04_clownfish.jpg,5,4,2,1,2,1,4,3,0,41,,,,,,,,,,,,,,,,,,,,
,,,,,41,2020-07-03_16h23.22.508,retriever_ti,2020.1.3,Linux x86_64,60,Chrome,1366,768,,,,,,,,,,,,,,,,,3,,,,,,,,,,,,,,,,,,,,,,,,,,,1722.73621,195,right,0.804995,peacock       ,2,5,1,1,1,1722.754255,1722.754255,1725.285475,0,40,40,40,1,195,1,2,radio       ,peacock       ,html/resources/sequences_IDs/B/10_radio.jpg,html/resources/sequences_IDs/A/05_peacock.jpg,10,5,4,2,2,1,8,4,0,41,,,,,,,,,,,,,,,,,,,,
,,,,,41,2020-07-03_16h23.22.508,retriever_ti,2020.1.3,Linux x86_64,60,Chrome,1366,768,,,,,,,,,,,,,,,,,3,,,,,,,,,,,,,,,,,,,,,,,,,,,1726.38772,196,left,1.16911,phone       ,3,9,1,1,1,1726.423975,1726.423975,1728.918165,0,41,41,41,1,196,3,2,phone       ,peacock       ,html/resources/sequences_IDs/B/09_phone.jpg,html/resources/sequences_IDs/A/05_peacock.jpg,9,5,4,2,2,1,7,4,0,41,,,,,,,,,,,,,,,,,,,,
,,,,,41,2020-07-03_16h23.22.508,retriever_ti,2020.1.3,Linux x86_64,60,Chrome,1366,768,,,,,,,,,,,,,,,,,3,,,,,,,,,,,,,,,,,,,,,,,,,,,1730.019925,197,left,0.92756,phone       ,3,9,2,1,3,1730.05383,1730.05383,1732.55183,0,42,42,42,1,197,3,1,phone       ,radio       ,html/resources/sequences_IDs/B/09_phone.jpg,html/resources/sequences_IDs/B/10_radio.jpg,9,10,4,2,4,2,7,8,0,41,,,,,,,,,,,,,,,,,,,,
,,,,,41,2020-07-03_16h23.22.508,retriever_ti,2020.1.3,Linux x86_64,60,Chrome,1366,768,,,,,,,,,,,,,,,,,3,,,,,,,,,,,,,,,,,,,,,,,,,,,1733.1694,198,right,0.63998,giraffe     ,5,3,3,1,3,1733.20465,1733.20465,1735.70349,0,43,43,43,1,198,2,5,peacock       ,giraffe     ,html/resources/sequences_IDs/A/05_peacock.jpg,html/resources/sequences_IDs/B/03_giraffe.jpg,5,3,2,1,1,1,4,2,0,41,,,,,,,,,,,,,,,,,,,,
,,,,,41,2020-07-03_16h23.22.508,retriever_ti,2020.1.3,Linux x86_64,60,Chrome,1366,768,,,,,,,,,,,,,,,,,3,,,,,,,,,,,,,,,,,,,,,,,,,,,1736.32065,199,right,0.628775,phone       ,3,9,-5,0,3,1736.353595,1736.353595,1738.851215,0,44,44,44,1,199,8,3,clownfish     ,phone       ,html/resources/sequences_IDs/A/04_clownfish.jpg,html/resources/sequences_IDs/B/09_phone.jpg,4,9,2,1,4,2,3,7,0,41,,,,,,,,,,,,,,,,,,,,
,,,,,41,2020-07-03_16h23.22.508,retriever_ti,2020.1.3,Linux x86_64,60,Chrome,1366,768,,,,,,,,,,,,,,,,,3,,,,,,,,,,,,,,,,,,,,,,,,,,,1739.468895,200,left,0.765245,clownfish     ,8,4,7,1,3,1739.486395,1739.486395,1741.985165,0,45,45,45,1,200,8,1,clownfish     ,radio       ,html/resources/sequences_IDs/A/04_clownfish.jpg,html/resources/sequences_IDs/B/10_radio.jpg,4,10,2,1,4,2,3,8,0,41,,,,,,,,,,,,,,,,,,,,
,,,,,41,2020-07-03_16h23.22.508,retriever_ti,2020.1.3,Linux x86_64,60,Chrome,1366,768,,,,,,,,,,,,,,,,,3,,,,,,,,,,,,,,,,,,,,,,,,,,,1742.605345,201,right,0.582415,radio       ,1,10,-6,0,3,1742.65548,1742.65548,1745.15157,0,46,46,46,1,201,7,1,sport_tshirt,radio       ,html/resources/sequences_IDs/B/07_sport_tshirt.jpg,html/resources/sequences_IDs/B/10_radio.jpg,7,10,3,2,4,2,5,8,0,41,,,,,,,,,,,,,,,,,,,,
,,,,,41,2020-07-03_16h23.22.508,retriever_ti,2020.1.3,Linux x86_64,60,Chrome,1366,768,,,,,,,,,,,,,,,,,3,,,,,,,,,,,,,,,,,,,,,,,,,,,1745.763655,202,right,0.94361,peacock       ,2,5,-6,0,3,1745.80408,1745.80408,1748.30073,0,47,47,47,1,202,8,2,clownfish     ,peacock       ,html/resources/sequences_IDs/A/04_clownfish.jpg,html/resources/sequences_IDs/A/05_peacock.jpg,4,5,2,1,2,1,3,4,0,41,,,,,,,,,,,,,,,,,,,,
,,,,,41,2020-07-03_16h23.22.508,retriever_ti,2020.1.3,Linux x86_64,60,Chrome,1366,768,,,,,,,,,,,,,,,,,3,,,,,,,,,,,,,,,,,,,,,,,,,,,1748.91975,203,right,0.639775,giraffe     ,5,3,-1,0,0,1748.93766,1748.93766,1751.43456,0,48,48,48,1,203,6,5,hat           ,giraffe     ,html/resources/sequences_IDs/A/08_hat.jpg,html/resources/sequences_IDs/B/03_giraffe.jpg,8,3,3,2,1,1,6,2,0,41,,,,,,,,,,,,,,,,,,,,
,,,,,41,2020-07-03_16h23.22.508,retriever_ti,2020.1.3,Linux x86_64,60,Chrome,1366,768,,,,,,,,,,,,,,,,,3,,,,,,,,,,,,,,,,,,,,,,,,,,,1752.53815,204,right,0.734105,phone       ,3,9,1,1,1,1752.572045,1752.572045,1755.06691,0,49,49,49,1,204,2,3,peacock       ,phone       ,html/resources/sequences_IDs/A/05_peacock.jpg,html/resources/sequences_IDs/B/09_phone.jpg,5,9,2,1,4,2,4,7,0,41,,,,,,,,,,,,,,,,,,,,
,,,,,41,2020-07-03_16h23.22.508,retriever_ti,2020.1.3,Linux x86_64,60,Chrome,1366,768,,,,,,,,,,,,,,,,,3,,,,,,,,,,,,,,,,,,,,,,,,,,,1756.168205,205,left,0.605945,hat           ,6,8,1,1,1,1756.18826,1756.18826,1758.68338,0,50,50,50,1,205,6,5,hat           ,giraffe     ,html/resources/sequences_IDs/A/08_hat.jpg,html/resources/sequences_IDs/B/03_giraffe.jpg,8,3,3,2,1,1,6,2,0,41,,,,,,,,,,,,,,,,,,,,
,,,,,41,2020-07-03_16h23.22.508,retriever_ti,2020.1.3,Linux x86_64,60,Chrome,1366,768,,,,,,,,,,,,,,,,,3,,,,,,,,,,,,,,,,,,,,,,,,,,,1759.78601,206,right,0.72303,seaturtle     ,4,2,1,1,1,1759.802445,1759.802445,1762.600195,0,51,51,51,1,206,3,4,phone       ,seaturtle     ,html/resources/sequences_IDs/B/09_phone.jpg,html/resources/sequences_IDs/A/02_seaturtle.jpg,9,2,4,2,2,1,7,1,0,41,,,,,,,,,,,,,,,,,,,,
,,,,,41,2020-07-03_16h23.22.508,retriever_ti,2020.1.3,Linux x86_64,60,Chrome,1366,768,,,,,,,,,,,,,,,,,3,,,,,,,,,,,,,,,,,,,,,,,,,,,1763.703145,207,left,0.691465,seaturtle     ,4,2,3,1,3,1763.71903,1763.71903,1766.21948,0,52,52,52,1,207,4,1,seaturtle     ,radio       ,html/resources/sequences_IDs/A/02_seaturtle.jpg,html/resources/sequences_IDs/B/10_radio.jpg,2,10,2,1,4,2,1,8,0,41,,,,,,,,,,,,,,,,,,,,
,,,,,41,2020-07-03_16h23.22.508,retriever_ti,2020.1.3,Linux x86_64,60,Chrome,1366,768,,,,,,,,,,,,,,,,,3,,,,,,,,,,,,,,,,,,,,,,,,,,,1766.84057,208,right,0.658985,giraffe     ,5,3,-2,0,3,1766.87201,1766.87201,1769.366405,0,53,53,53,1,208,7,5,sport_tshirt,giraffe     ,html/resources/sequences_IDs/B/07_sport_tshirt.jpg,html/resources/sequences_IDs/B/03_giraffe.jpg,7,3,3,2,1,1,5,2,0,41,,,,,,,,,,,,,,,,,,,,
,,,,,41,2020-07-03_16h23.22.508,retriever_ti,2020.1.3,Linux x86_64,60,Chrome,1366,768,,,,,,,,,,,,,,,,,3,,,,,,,,,,,,,,,,,,,,,,,,,,,1769.98378,209,left,1.047675,hat           ,6,8,2,1,3,1770.01913,1770.01913,1772.51662,0,54,54,54,1,209,6,4,hat           ,seaturtle     ,html/resources/sequences_IDs/A/08_hat.jpg,html/resources/sequences_IDs/A/02_seaturtle.jpg,8,2,3,2,2,1,6,1,0,41,,,,,,,,,,,,,,,,,,,,
,,,,,41,2020-07-03_16h23.22.508,retriever_ti,2020.1.3,Linux x86_64,60,Chrome,1366,768,,,,,,,,,,,,,,,,,3,,,,,,,,,,,,,,,,,,,,,,,,,,,1773.13515,210,right,0.898855,clownfish     ,8,4,1,1,1,1773.15208,1773.15208,1775.6493,0,55,55,55,1,210,7,8,sport_tshirt,clownfish     ,html/resources/sequences_IDs/B/07_sport_tshirt.jpg,html/resources/sequences_IDs/A/04_clownfish.jpg,7,4,3,2,2,1,5,3,0,41,,,,,,,,,,,,,,,,,,,,
,,,,,41,2020-07-03_16h23.22.508,retriever_ti,2020.1.3,Linux x86_64,60,Chrome,1366,768,,,,,,,,,,,,,,,,,3,,,,,,,,,,,,,,,,,,,,,,,,,,,1776.7505,211,right,1.002225,hat           ,6,8,2,1,3,1776.768815,1776.768815,1779.2659,0,56,56,56,1,211,4,6,seaturtle     ,hat           ,html/resources/sequences_IDs/A/02_seaturtle.jpg,html/resources/sequences_IDs/A/08_hat.jpg,2,8,2,1,3,2,1,6,0,41,,,,,,,,,,,,,,,,,,,,
,,,,,41,2020-07-03_16h23.22.508,retriever_ti,2020.1.3,Linux x86_64,60,Chrome,1366,768,,,,,,,,,,,,,,,,,3,,,,,,,,,,,,,,,,,,,,,,,,,,,1779.869015,212,left,0.789085,hat           ,6,8,3,1,3,1779.903475,1779.903475,1782.39916,0,57,57,57,1,212,6,3,hat           ,phone       ,html/resources/sequences_IDs/A/08_hat.jpg,html/resources/sequences_IDs/B/09_phone.jpg,8,9,3,2,4,2,6,7,0,41,,,,,,,,,,,,,,,,,,,,
,,,,,41,2020-07-03_16h23.22.508,retriever_ti,2020.1.3,Linux x86_64,60,Chrome,1366,768,,,,,,,,,,,,,,,,,3,,,,,,,,,,,,,,,,,,,,,,,,,,,1783.01775,213,right,0.888825,seaturtle     ,4,2,1,1,1,1783.035375,1783.035375,1785.532715,0,58,58,58,1,213,3,4,phone       ,seaturtle     ,html/resources/sequences_IDs/B/09_phone.jpg,html/resources/sequences_IDs/A/02_seaturtle.jpg,9,2,4,2,2,1,7,1,0,41,,,,,,,,,,,,,,,,,,,,
,,,,,41,2020-07-03_16h23.22.508,retriever_ti,2020.1.3,Linux x86_64,60,Chrome,1366,768,,,,,,,,,,,,,,,,,3,,,,,,,,,,,,,,,,,,,,,,,,,,,1786.6356,214,left,0.916455,radio       ,1,10,-6,0,3,1786.65125,1786.65125,1789.149085,0,59,59,59,1,214,1,7,radio       ,sport_tshirt,html/resources/sequences_IDs/B/10_radio.jpg,html/resources/sequences_IDs/B/07_sport_tshirt.jpg,10,7,4,2,3,2,8,5,0,41,,,,,,,,,,,,,,,,,,,,
,,,,,41,2020-07-03_16h23.22.508,retriever_ti,2020.1.3,Linux x86_64,60,Chrome,1366,768,,,,,,,,,,,,,,,,,3,,,,,,,,,,,,,,,,,,,,,,,,,,,1789.766915,215,left,0.73624,phone       ,3,9,-4,0,3,1789.801685,1789.801685,1792.298505,0,60,60,60,1,215,3,7,phone       ,sport_tshirt,html/resources/sequences_IDs/B/09_phone.jpg,html/resources/sequences_IDs/B/07_sport_tshirt.jpg,9,7,4,2,3,2,7,5,0,41,,,,,,,,,,,,,,,,,,,,
,,,,,41,2020-07-03_16h23.22.508,retriever_ti,2020.1.3,Linux x86_64,60,Chrome,1366,768,,,,,,,,,,,,,,,,,3,,,,,,,,,,,,,,,,,,,,,,,,,,,1792.91687,216,right,0.667255,hat           ,6,8,5,1,3,1792.934255,1792.934255,1795.43188,0,61,61,61,1,216,1,6,radio       ,hat           ,html/resources/sequences_IDs/B/10_radio.jpg,html/resources/sequences_IDs/A/08_hat.jpg,10,8,4,2,3,2,8,6,0,41,,,,,,,,,,,,,,,,,,,,
