instructionsLoop.thisRepN,instructionsLoop.thisTrialN,instructionsLoop.thisN,instructionsLoop.thisIndex,instructionsLoop.ran,participant,date,expName,psychopyVersion,OS,frameRate,browser,xResolution,yResolution,fix_onset,tprac,practiceKey.keys,practiceKey.rt,pracitem_chosen_name,acc_practice,P1_onsetPrac,P2_onsetPrac,onsetFeedbPrac,practiceTrials.thisRepN,practiceTrials.thisTrialN,practiceTrials.thisN,practiceTrials.thisIndex,practiceTrials.ran,P1,P2,Block,LocItem1,LocItem2,NameItem1,NameItem2,key_respAC_prac.keys,key_respAC_prac.corr,key_respAC_prac.rt,AC_acc,Attentions.thisRepN,Attentions.thisTrialN,Attentions.thisN,Attentions.thisIndex,Attentions.ran,Stim,Loc1,Loc2,Loc3,Loc4,CorrAns,keyDisturbed.keys,keyDisturbed.rt,repPractice.thisRepN,repPractice.thisTrialN,repPractice.thisN,repPractice.thisIndex,repPractice.ran,fixcross_onsetMain,trialNumber,key_resp.keys,key_resp.rt,item_chosen_name,item_chosen_value,item_chosen_ID,diff_chosen_minus_reject,acc_real,acc_feedback,P1_onset,P2_onset,feedb_onset,trials.thisRepN,trials.thisTrialN,trials.thisN,trials.thisIndex,trials.ran,Trial,ValueP1,ValueP2,P1name,P2name,P1Loc,P2Loc,P1id,P2id,Micro_categoryP1,Macro_categoryP1,Micro_categoryP2,Macro_categoryP2,ID_sequenceP1,ID_sequenceP2,InverseFb,pNumber,repBlocks.thisRepN,repBlocks.thisTrialN,repBlocks.thisN,repBlocks.thisIndex,repBlocks.ran,key_respAC.keys,key_respAC.corr,key_respAC.rt,trials_AC.thisRepN,trials_AC.thisTrialN,trials_AC.thisN,trials_AC.thisIndex,trials_AC.ran,Bonus,BonusLoop.thisRepN,BonusLoop.thisTrialN,BonusLoop.thisN,BonusLoop.thisIndex,BonusLoop.ran,comments
0,0,0,0,1,42,2020-07-03_17h24.28.377,retriever_ti,2020.1.3,Win32,60,Chrome,1920,1080,,,,,,,,,,,,,,,,,,,,,,,,,,,,,,,,,,,,,,,,,,,,,,,,,,,,,,,,,,,,,,,,,,,,,,,,,,,,,,,,,,,,,,,,,,,,,,,,,,
1,0,1,0,1,42,2020-07-03_17h24.28.377,retriever_ti,2020.1.3,Win32,60,Chrome,1920,1080,,,,,,,,,,,,,,,,,,,,,,,,,,,,,,,,,,,,,,,,,,,,,,,,,,,,,,,,,,,,,,,,,,,,,,,,,,,,,,,,,,,,,,,,,,,,,,,,,,
2,0,2,0,1,42,2020-07-03_17h24.28.377,retriever_ti,2020.1.3,Win32,60,Chrome,1920,1080,,,,,,,,,,,,,,,,,,,,,,,,,,,,,,,,,,,,,,,,,,,,,,,,,,,,,,,,,,,,,,,,,,,,,,,,,,,,,,,,,,,,,,,,,,,,,,,,,,
3,0,3,0,1,42,2020-07-03_17h24.28.377,retriever_ti,2020.1.3,Win32,60,Chrome,1920,1080,,,,,,,,,,,,,,,,,,,,,,,,,,,,,,,,,,,,,,,,,,,,,,,,,,,,,,,,,,,,,,,,,,,,,,,,,,,,,,,,,,,,,,,,,,,,,,,,,,
4,0,4,0,1,42,2020-07-03_17h24.28.377,retriever_ti,2020.1.3,Win32,60,Chrome,1920,1080,,,,,,,,,,,,,,,,,,,,,,,,,,,,,,,,,,,,,,,,,,,,,,,,,,,,,,,,,,,,,,,,,,,,,,,,,,,,,,,,,,,,,,,,,,,,,,,,,,
5,0,5,0,1,42,2020-07-03_17h24.28.377,retriever_ti,2020.1.3,Win32,60,Chrome,1920,1080,,,,,,,,,,,,,,,,,,,,,,,,,,,,,,,,,,,,,,,,,,,,,,,,,,,,,,,,,,,,,,,,,,,,,,,,,,,,,,,,,,,,,,,,,,,,,,,,,,
6,0,6,0,1,42,2020-07-03_17h24.28.377,retriever_ti,2020.1.3,Win32,60,Chrome,1920,1080,,,,,,,,,,,,,,,,,,,,,,,,,,,,,,,,,,,,,,,,,,,,,,,,,,,,,,,,,,,,,,,,,,,,,,,,,,,,,,,,,,,,,,,,,,,,,,,,,,
7,0,7,0,1,42,2020-07-03_17h24.28.377,retriever_ti,2020.1.3,Win32,60,Chrome,1920,1080,,,,,,,,,,,,,,,,,,,,,,,,,,,,,,,,,,,,,,,,,,,,,,,,,,,,,,,,,,,,,,,,,,,,,,,,,,,,,,,,,,,,,,,,,,,,,,,,,,
8,0,8,0,1,42,2020-07-03_17h24.28.377,retriever_ti,2020.1.3,Win32,60,Chrome,1920,1080,,,,,,,,,,,,,,,,,,,,,,,,,,,,,,,,,,,,,,,,,,,,,,,,,,,,,,,,,,,,,,,,,,,,,,,,,,,,,,,,,,,,,,,,,,,,,,,,,,
9,0,9,0,1,42,2020-07-03_17h24.28.377,retriever_ti,2020.1.3,Win32,60,Chrome,1920,1080,,,,,,,,,,,,,,,,,,,,,,,,,,,,,,,,,,,,,,,,,,,,,,,,,,,,,,,,,,,,,,,,,,,,,,,,,,,,,,,,,,,,,,,,,,,,,,,,,,
10,0,10,0,1,42,2020-07-03_17h24.28.377,retriever_ti,2020.1.3,Win32,60,Chrome,1920,1080,,,,,,,,,,,,,,,,,,,,,,,,,,,,,,,,,,,,,,,,,,,,,,,,,,,,,,,,,,,,,,,,,,,,,,,,,,,,,,,,,,,,,,,,,,,,,,,,,,
11,0,11,0,1,42,2020-07-03_17h24.28.377,retriever_ti,2020.1.3,Win32,60,Chrome,1920,1080,,,,,,,,,,,,,,,,,,,,,,,,,,,,,,,,,,,,,,,,,,,,,,,,,,,,,,,,,,,,,,,,,,,,,,,,,,,,,,,,,,,,,,,,,,,,,,,,,,
12,0,12,0,1,42,2020-07-03_17h24.28.377,retriever_ti,2020.1.3,Win32,60,Chrome,1920,1080,,,,,,,,,,,,,,,,,,,,,,,,,,,,,,,,,,,,,,,,,,,,,,,,,,,,,,,,,,,,,,,,,,,,,,,,,,,,,,,,,,,,,,,,,,,,,,,,,,
13,0,13,0,1,42,2020-07-03_17h24.28.377,retriever_ti,2020.1.3,Win32,60,Chrome,1920,1080,,,,,,,,,,,,,,,,,,,,,,,,,,,,,,,,,,,,,,,,,,,,,,,,,,,,,,,,,,,,,,,,,,,,,,,,,,,,,,,,,,,,,,,,,,,,,,,,,,
14,0,14,0,1,42,2020-07-03_17h24.28.377,retriever_ti,2020.1.3,Win32,60,Chrome,1920,1080,,,,,,,,,,,,,,,,,,,,,,,,,,,,,,,,,,,,,,,,,,,,,,,,,,,,,,,,,,,,,,,,,,,,,,,,,,,,,,,,,,,,,,,,,,,,,,,,,,
,,,,,42,2020-07-03_17h24.28.377,retriever_ti,2020.1.3,Win32,60,Chrome,1920,1080,266.860895,1,right,1.20839,canary,1,266.897645,266.897645,269.396685,0,0,0,0,1,2,5,1,html/resources/stimuli_practice_decision/04_beetle.jpg,html/resources/stimuli_practice_decision/02_canary.jpg,beetle,canary,,,,,,,,,,,,,,,,,,,,,,,,,,,,,,,,,,,,,,,,,,,,,,,,,,,,,,,,,,,,,,,,,,,,,,,,,,,,,
,,,,,42,2020-07-03_17h24.28.377,retriever_ti,2020.1.3,Win32,60,Chrome,1920,1080,269.93482,2,left,1.36355,rabbit,1,269.947095,269.947095,272.44629,0,1,1,1,1,4,3,1,html/resources/stimuli_practice_decision/01_rabbit.jpg,html/resources/stimuli_practice_decision/07_sock.jpg,rabbit,sock,,,,,,,,,,,,,,,,,,,,,,,,,,,,,,,,,,,,,,,,,,,,,,,,,,,,,,,,,,,,,,,,,,,,,,,,,,,,,
,,,,,42,2020-07-03_17h24.28.377,retriever_ti,2020.1.3,Win32,60,Chrome,1920,1080,273.446835,3,left,1.527115,pullover,1,273.480435,273.480435,275.979715,0,2,2,2,1,6,2,1,html/resources/stimuli_practice_decision/06_pullover.jpg,html/resources/stimuli_practice_decision/04_beetle.jpg,pullover,beetle,,,,,,,,,,,,,,,,,,,,,,,,,,,,,,,,,,,,,,,,,,,,,,,,,,,,,,,,,,,,,,,,,,,,,,,,,,,,,
,,,,,42,2020-07-03_17h24.28.377,retriever_ti,2020.1.3,Win32,60,Chrome,1920,1080,276.496615,4,right,1.669535,handmixer,0,276.51383,276.51383,279.01295,0,3,3,3,1,7,1,1,html/resources/stimuli_practice_decision/05_glasses.jpg,html/resources/stimuli_practice_decision/08_handmixer.jpg,glasses,handmixer,,,,,,,,,,,,,,,,,,,,,,,,,,,,,,,,,,,,,,,,,,,,,,,,,,,,,,,,,,,,,,,,,,,,,,,,,,,,,
,,,,,42,2020-07-03_17h24.28.377,retriever_ti,2020.1.3,Win32,60,Chrome,1920,1080,279.53025,5,NaN,NaN,No_response,2,279.547095,279.547095,282.04639,0,4,4,4,1,7,6,1,html/resources/stimuli_practice_decision/05_glasses.jpg,html/resources/stimuli_practice_decision/06_pullover.jpg,glasses,pullover,,,,,,,,,,,,,,,,,,,,,,,,,,,,,,,,,,,,,,,,,,,,,,,,,,,,,,,,,,,,,,,,,,,,,,,,,,,,,
,,,,,42,2020-07-03_17h24.28.377,retriever_ti,2020.1.3,Win32,60,Chrome,1920,1080,282.56327,6,left,1.36385,rabbit,0,282.597155,282.597155,285.096355,0,5,5,5,1,4,7,1,html/resources/stimuli_practice_decision/01_rabbit.jpg,html/resources/stimuli_practice_decision/05_glasses.jpg,rabbit,glasses,,,,,,,,,,,,,,,,,,,,,,,,,,,,,,,,,,,,,,,,,,,,,,,,,,,,,,,,,,,,,,,,,,,,,,,,,,,,,
,,,,,42,2020-07-03_17h24.28.377,retriever_ti,2020.1.3,Win32,60,Chrome,1920,1080,285.613615,7,left,1.46316,handmixer,0,285.63059,285.63059,288.129735,0,6,6,6,1,1,2,1,html/resources/stimuli_practice_decision/08_handmixer.jpg,html/resources/stimuli_practice_decision/04_beetle.jpg,handmixer,beetle,,,,,,,,,,,,,,,,,,,,,,,,,,,,,,,,,,,,,,,,,,,,,,,,,,,,,,,,,,,,,,,,,,,,,,,,,,,,,
,,,,,42,2020-07-03_17h24.28.377,retriever_ti,2020.1.3,Win32,60,Chrome,1920,1080,289.13036,8,left,1.12429,rabbit,1,289.16415,289.16415,291.66315,0,7,7,7,1,4,3,1,html/resources/stimuli_practice_decision/01_rabbit.jpg,html/resources/stimuli_practice_decision/07_sock.jpg,rabbit,sock,,,,,,,,,,,,,,,,,,,,,,,,,,,,,,,,,,,,,,,,,,,,,,,,,,,,,,,,,,,,,,,,,,,,,,,,,,,,,
,,,,,42,2020-07-03_17h24.28.377,retriever_ti,2020.1.3,Win32,60,Chrome,1920,1080,,,,,,,,,,,,,,,,,,,,,,down,1,1.59579,1,0,0,0,1,1,html/resources/sequences_IDs/star.png,square ↑,circle →,star ↓,← triangle,down,,,,,,,,,,,,,,,,,,,,,,,,,,,,,,,,,,,,,,,,,,,,,,,,,,,,,,,,,,,,,,
,,,,,42,2020-07-03_17h24.28.377,retriever_ti,2020.1.3,Win32,60,Chrome,1920,1080,,,,,,,,,,,,,,,,,,,,,,up,1,1.195335,1,0,1,1,0,1,html/resources/sequences_IDs/circle.png,circle ↑,square →,triangle ↓,← star ,up,,,,,,,,,,,,,,,,,,,,,,,,,,,,,,,,,,,,,,,,,,,,,,,,,,,,,,,,,,,,,,
,,,,,42,2020-07-03_17h24.28.377,retriever_ti,2020.1.3,Win32,60,Chrome,1920,1080,,,,,,,,,,,,,,,,,,,,,,down,1,1.819725,1,0,2,2,3,1,html/resources/sequences_IDs/triangle.png,star ↑,square →,triangle ↓,← circle,down,,,,,,,,,,,,,,,,,,,,,,,,,,,,,,,,,,,,,,,,,,,,,,,,,,,,,,,,,,,,,,
,,,,,42,2020-07-03_17h24.28.377,retriever_ti,2020.1.3,Win32,60,Chrome,1920,1080,,,,,,,,,,,,,,,,,,,,,,left,1,1.819605,1,0,3,3,2,1,html/resources/sequences_IDs/square1.png,star ↑,triangle →,circle ↓,← square,left,,,,,,,,,,,,,,,,,,,,,,,,,,,,,,,,,,,,,,,,,,,,,,,,,,,,,,,,,,,,,,
,,,,,42,2020-07-03_17h24.28.377,retriever_ti,2020.1.3,Win32,60,Chrome,1920,1080,,,,,,,,,,,,,,,,,,,,,,,,,,,,,,,,,,,,,0,14.16326,0,0,0,0,1,,,,,,,,,,,,,,,,,,,,,,,,,,,,,,,,,,,,,,,,,,,,,,,,,,,,,,,
,,,,,42,2020-07-03_17h24.28.377,retriever_ti,2020.1.3,Win32,60,Chrome,1920,1080,320.79131,9,left,0.7854,pullover,0,320.81423,320.81423,323.31356,0,0,0,0,1,6,7,1,html/resources/stimuli_practice_decision/06_pullover.jpg,html/resources/stimuli_practice_decision/05_glasses.jpg,pullover,glasses,,,,,,,,,,,,,,,,,,,,,,,,,,,,,,,,,,,,,,,,,,,,,,,,,,,,,,,,,,,,,,,,,,,,,,,,,,,,,
,,,,,42,2020-07-03_17h24.28.377,retriever_ti,2020.1.3,Win32,60,Chrome,1920,1080,324.313785,10,left,1.75054,pullover,1,324.347595,324.347595,326.846875,0,1,1,1,1,6,2,1,html/resources/stimuli_practice_decision/06_pullover.jpg,html/resources/stimuli_practice_decision/04_beetle.jpg,pullover,beetle,,,,,,,,,,,,,,,,,,,,,,,,,,,,,,,,,,,,,,,,,,,,,,,,,,,,,,,,,,,,,,,,,,,,,,,,,,,,,
,,,,,42,2020-07-03_17h24.28.377,retriever_ti,2020.1.3,Win32,60,Chrome,1920,1080,327.36419,11,left,1.8143,canary,0,327.397895,327.397895,329.896925,0,2,2,2,1,5,6,1,html/resources/stimuli_practice_decision/02_canary.jpg,html/resources/stimuli_practice_decision/06_pullover.jpg,canary,pullover,,,,,,,,,,,,,,,,,,,,,,,,,,,,,,,,,,,,,,,,,,,,,,,,,,,,,,,,,,,,,,,,,,,,,,,,,,,,,
,,,,,42,2020-07-03_17h24.28.377,retriever_ti,2020.1.3,Win32,60,Chrome,1920,1080,330.89742,12,left,1.523755,squirrel,1,330.931145,330.931145,333.43041,0,3,3,3,1,8,7,1,html/resources/stimuli_practice_decision/03_squirrel.jpg,html/resources/stimuli_practice_decision/05_glasses.jpg,squirrel,glasses,,,,,,,,,,,,,,,,,,,,,,,,,,,,,,,,,,,,,,,,,,,,,,,,,,,,,,,,,,,,,,,,,,,,,,,,,,,,,
,,,,,42,2020-07-03_17h24.28.377,retriever_ti,2020.1.3,Win32,60,Chrome,1920,1080,334.43055,13,left,1.454615,canary,1,334.46428,334.46428,336.96366,0,4,4,4,1,5,3,1,html/resources/stimuli_practice_decision/02_canary.jpg,html/resources/stimuli_practice_decision/07_sock.jpg,canary,sock,,,,,,,,,,,,,,,,,,,,,,,,,,,,,,,,,,,,,,,,,,,,,,,,,,,,,,,,,,,,,,,,,,,,,,,,,,,,,
,,,,,42,2020-07-03_17h24.28.377,retriever_ti,2020.1.3,Win32,60,Chrome,1920,1080,337.48086,14,right,1.00563,squirrel,1,337.514405,337.514405,340.013675,0,5,5,5,1,7,8,1,html/resources/stimuli_practice_decision/05_glasses.jpg,html/resources/stimuli_practice_decision/03_squirrel.jpg,glasses,squirrel,,,,,,,,,,,,,,,,,,,,,,,,,,,,,,,,,,,,,,,,,,,,,,,,,,,,,,,,,,,,,,,,,,,,,,,,,,,,,
,,,,,42,2020-07-03_17h24.28.377,retriever_ti,2020.1.3,Win32,60,Chrome,1920,1080,341.014235,15,right,1.409135,rabbit,0,341.031315,341.031315,343.530445,0,6,6,6,1,5,4,1,html/resources/stimuli_practice_decision/02_canary.jpg,html/resources/stimuli_practice_decision/01_rabbit.jpg,canary,rabbit,,,,,,,,,,,,,,,,,,,,,,,,,,,,,,,,,,,,,,,,,,,,,,,,,,,,,,,,,,,,,,,,,,,,,,,,,,,,,
,,,,,42,2020-07-03_17h24.28.377,retriever_ti,2020.1.3,Win32,60,Chrome,1920,1080,344.530755,16,left,1.546605,canary,1,344.564685,344.564685,347.063845,0,7,7,7,1,5,3,1,html/resources/stimuli_practice_decision/02_canary.jpg,html/resources/stimuli_practice_decision/07_sock.jpg,canary,sock,,,,,,,,,,,,,,,,,,,,,,,,,,,,,,,,,,,,,,,,,,,,,,,,,,,,,,,,,,,,,,,,,,,,,,,,,,,,,
,,,,,42,2020-07-03_17h24.28.377,retriever_ti,2020.1.3,Win32,60,Chrome,1920,1080,,,,,,,,,,,,,,,,,,,,,,left,1,1.762185,1,0,0,0,2,1,html/resources/sequences_IDs/square1.png,star ↑,triangle →,circle ↓,← square,left,,,,,,,,,,,,,,,,,,,,,,,,,,,,,,,,,,,,,,,,,,,,,,,,,,,,,,,,,,,,,,
,,,,,42,2020-07-03_17h24.28.377,retriever_ti,2020.1.3,Win32,60,Chrome,1920,1080,,,,,,,,,,,,,,,,,,,,,,down,1,2.080515,1,0,1,1,1,1,html/resources/sequences_IDs/star.png,square ↑,circle →,star ↓,← triangle,down,,,,,,,,,,,,,,,,,,,,,,,,,,,,,,,,,,,,,,,,,,,,,,,,,,,,,,,,,,,,,,
,,,,,42,2020-07-03_17h24.28.377,retriever_ti,2020.1.3,Win32,60,Chrome,1920,1080,,,,,,,,,,,,,,,,,,,,,,down,1,1.859585,1,0,2,2,3,1,html/resources/sequences_IDs/triangle.png,star ↑,square →,triangle ↓,← circle,down,,,,,,,,,,,,,,,,,,,,,,,,,,,,,,,,,,,,,,,,,,,,,,,,,,,,,,,,,,,,,,
,,,,,42,2020-07-03_17h24.28.377,retriever_ti,2020.1.3,Win32,60,Chrome,1920,1080,,,,,,,,,,,,,,,,,,,,,,up,1,0.875035,1,0,3,3,0,1,html/resources/sequences_IDs/circle.png,circle ↑,square →,triangle ↓,← star ,up,,,,,,,,,,,,,,,,,,,,,,,,,,,,,,,,,,,,,,,,,,,,,,,,,,,,,,,,,,,,,,
,,,,,42,2020-07-03_17h24.28.377,retriever_ti,2020.1.3,Win32,60,Chrome,1920,1080,,,,,,,,,,,,,,,,,,,,,,,,,,,,,,,,,,,,,0,5.02877,1,0,1,0,1,,,,,,,,,,,,,,,,,,,,,,,,,,,,,,,,,,,,,,,,,,,,,,,,,,,,,,,
,,,,,42,2020-07-03_17h24.28.377,retriever_ti,2020.1.3,Win32,60,Chrome,1920,1080,,,,,,,,,,,,,,,,,1,,,,,,,,,,,,,,,,,,,,,,,,,,,372.734625,1,left,1.114095,slipper     ,5,8,2,1,3,372.74846,372.74846,375.247885,0,0,0,0,1,1,5,3,slipper     ,parrot      ,html/resources/sequences_IDs/B/08_slipper.jpg,html/resources/sequences_IDs/B/05_parrot.jpg,8,5,3,2,2,1,6,4,0,42,,,,,,,,,,,,,,,,,,,,
,,,,,42,2020-07-03_17h24.28.377,retriever_ti,2020.1.3,Win32,60,Chrome,1920,1080,,,,,,,,,,,,,,,,,1,,,,,,,,,,,,,,,,,,,,,,,,,,,375.86595,2,left,1.5997,giraffe     ,7,3,1,1,1,375.88212,375.88212,378.38108,0,1,1,1,1,2,7,6,giraffe     ,dress         ,html/resources/sequences_IDs/B/03_giraffe.jpg,html/resources/sequences_IDs/A/07_dress.jpg,3,7,1,1,3,2,2,5,0,42,,,,,,,,,,,,,,,,,,,,
,,,,,42,2020-07-03_17h24.28.377,retriever_ti,2020.1.3,Win32,60,Chrome,1920,1080,,,,,,,,,,,,,,,,,1,,,,,,,,,,,,,,,,,,,,,,,,,,,379.481165,3,right,1.497275,seaturtle     ,8,2,5,1,3,379.4983,379.4983,381.997605,0,2,2,2,1,3,3,8,parrot      ,seaturtle     ,html/resources/sequences_IDs/B/05_parrot.jpg,html/resources/sequences_IDs/A/02_seaturtle.jpg,5,2,2,1,2,1,4,1,0,42,,,,,,,,,,,,,,,,,,,,
,,,,,42,2020-07-03_17h24.28.377,retriever_ti,2020.1.3,Win32,60,Chrome,1920,1080,,,,,,,,,,,,,,,,,1,,,,,,,,,,,,,,,,,,,,,,,,,,,382.614945,4,left,1.550465,parrot      ,3,5,1,1,1,382.64835,382.64835,385.14756,0,3,3,3,1,4,3,2,parrot      ,satellite_dish,html/resources/sequences_IDs/B/05_parrot.jpg,html/resources/sequences_IDs/A/10_satellite_dish.jpg,5,10,2,1,4,2,4,8,0,42,,,,,,,,,,,,,,,,,,,,
,,,,,42,2020-07-03_17h24.28.377,retriever_ti,2020.1.3,Win32,60,Chrome,1920,1080,,,,,,,,,,,,,,,,,1,,,,,,,,,,,,,,,,,,,,,,,,,,,386.248145,5,right,1.460475,giraffe     ,7,3,1,1,1,386.28168,386.28168,388.781,0,4,4,4,1,5,6,7,dress         ,giraffe     ,html/resources/sequences_IDs/A/07_dress.jpg,html/resources/sequences_IDs/B/03_giraffe.jpg,7,3,3,2,1,1,5,2,0,42,,,,,,,,,,,,,,,,,,,,
,,,,,42,2020-07-03_17h24.28.377,retriever_ti,2020.1.3,Win32,60,Chrome,1920,1080,,,,,,,,,,,,,,,,,1,,,,,,,,,,,,,,,,,,,,,,,,,,,389.88156,6,left,1.581385,clownfish     ,4,4,-2,0,3,389.89846,389.89846,392.397625,0,5,5,5,1,6,4,6,clownfish     ,dress         ,html/resources/sequences_IDs/A/04_clownfish.jpg,html/resources/sequences_IDs/A/07_dress.jpg,4,7,2,1,3,2,3,5,0,42,,,,,,,,,,,,,,,,,,,,
,,,,,42,2020-07-03_17h24.28.377,retriever_ti,2020.1.3,Win32,60,Chrome,1920,1080,,,,,,,,,,,,,,,,,1,,,,,,,,,,,,,,,,,,,,,,,,,,,392.998,7,left,1.32108,giraffe     ,7,3,-1,0,0,393.03176,393.03176,395.53107,0,6,6,6,1,7,7,8,giraffe     ,seaturtle     ,html/resources/sequences_IDs/B/03_giraffe.jpg,html/resources/sequences_IDs/A/02_seaturtle.jpg,3,2,1,1,2,1,2,1,0,42,,,,,,,,,,,,,,,,,,,,
,,,,,42,2020-07-03_17h24.28.377,retriever_ti,2020.1.3,Win32,60,Chrome,1920,1080,,,,,,,,,,,,,,,,,1,,,,,,,,,,,,,,,,,,,,,,,,,,,396.63162,8,right,1.328855,parrot      ,3,5,-1,0,1,396.665115,396.665115,399.164505,0,7,7,7,1,8,4,3,clownfish     ,parrot      ,html/resources/sequences_IDs/A/04_clownfish.jpg,html/resources/sequences_IDs/B/05_parrot.jpg,4,5,2,1,2,1,3,4,1,42,,,,,,,,,,,,,,,,,,,,
,,,,,42,2020-07-03_17h24.28.377,retriever_ti,2020.1.3,Win32,60,Chrome,1920,1080,,,,,,,,,,,,,,,,,1,,,,,,,,,,,,,,,,,,,,,,,,,,,400.265125,9,right,1.3069,parrot      ,3,5,1,1,1,400.28205,400.28205,402.781085,0,8,8,8,1,9,2,3,satellite_dish,parrot      ,html/resources/sequences_IDs/A/10_satellite_dish.jpg,html/resources/sequences_IDs/B/05_parrot.jpg,10,5,4,2,2,1,8,4,0,42,,,,,,,,,,,,,,,,,,,,
,,,,,42,2020-07-03_17h24.28.377,retriever_ti,2020.1.3,Win32,60,Chrome,1920,1080,,,,,,,,,,,,,,,,,1,,,,,,,,,,,,,,,,,,,,,,,,,,,403.88169,10,left,1.82488,slipper     ,5,8,3,1,3,403.915295,403.915295,406.41459,0,9,9,9,1,10,5,2,slipper     ,satellite_dish,html/resources/sequences_IDs/B/08_slipper.jpg,html/resources/sequences_IDs/A/10_satellite_dish.jpg,8,10,3,2,4,2,6,8,0,42,,,,,,,,,,,,,,,,,,,,
,,,,,42,2020-07-03_17h24.28.377,retriever_ti,2020.1.3,Win32,60,Chrome,1920,1080,,,,,,,,,,,,,,,,,1,,,,,,,,,,,,,,,,,,,,,,,,,,,407.03143,11,right,2.38959,clownfish     ,4,4,2,1,3,407.0488,407.0488,409.547865,0,10,10,10,1,11,2,4,satellite_dish,clownfish     ,html/resources/sequences_IDs/A/10_satellite_dish.jpg,html/resources/sequences_IDs/A/04_clownfish.jpg,10,4,4,2,2,1,8,3,0,42,,,,,,,,,,,,,,,,,,,,
,,,,,42,2020-07-03_17h24.28.377,retriever_ti,2020.1.3,Win32,60,Chrome,1920,1080,,,,,,,,,,,,,,,,,1,,,,,,,,,,,,,,,,,,,,,,,,,,,410.148835,12,left,1.35961,seaturtle     ,8,2,1,1,0,410.18201,410.18201,412.681495,0,11,11,11,1,12,8,7,seaturtle     ,giraffe     ,html/resources/sequences_IDs/A/02_seaturtle.jpg,html/resources/sequences_IDs/B/03_giraffe.jpg,2,3,2,1,1,1,1,2,1,42,,,,,,,,,,,,,,,,,,,,
,,,,,42,2020-07-03_17h24.28.377,retriever_ti,2020.1.3,Win32,60,Chrome,1920,1080,,,,,,,,,,,,,,,,,1,,,,,,,,,,,,,,,,,,,,,,,,,,,413.781805,13,right,2.03731,phone       ,1,9,-4,0,3,413.815335,413.815335,416.3146,0,12,12,12,1,13,5,1,slipper     ,phone       ,html/resources/sequences_IDs/B/08_slipper.jpg,html/resources/sequences_IDs/B/09_phone.jpg,8,9,3,2,4,2,6,7,0,42,,,,,,,,,,,,,,,,,,,,
,,,,,42,2020-07-03_17h24.28.377,retriever_ti,2020.1.3,Win32,60,Chrome,1920,1080,,,,,,,,,,,,,,,,,1,,,,,,,,,,,,,,,,,,,,,,,,,,,416.9315,14,left,1.46772,seaturtle     ,8,2,4,1,3,416.948825,416.948825,419.44799,0,13,13,13,1,14,8,4,seaturtle     ,clownfish     ,html/resources/sequences_IDs/A/02_seaturtle.jpg,html/resources/sequences_IDs/A/04_clownfish.jpg,2,4,2,1,2,1,1,3,0,42,,,,,,,,,,,,,,,,,,,,
,,,,,42,2020-07-03_17h24.28.377,retriever_ti,2020.1.3,Win32,60,Chrome,1920,1080,,,,,,,,,,,,,,,,,1,,,,,,,,,,,,,,,,,,,,,,,,,,,420.06521,15,left,1.311835,seaturtle     ,8,2,7,1,3,420.082255,420.082255,422.58141,0,14,14,14,1,15,8,1,seaturtle     ,phone       ,html/resources/sequences_IDs/A/02_seaturtle.jpg,html/resources/sequences_IDs/B/09_phone.jpg,2,9,2,1,4,2,1,7,0,42,,,,,,,,,,,,,,,,,,,,
,,,,,42,2020-07-03_17h24.28.377,retriever_ti,2020.1.3,Win32,60,Chrome,1920,1080,,,,,,,,,,,,,,,,,1,,,,,,,,,,,,,,,,,,,,,,,,,,,423.198295,16,right,1.407485,parrot      ,3,5,1,1,1,423.232275,423.232275,425.73138,0,15,15,15,1,16,2,3,satellite_dish,parrot      ,html/resources/sequences_IDs/A/10_satellite_dish.jpg,html/resources/sequences_IDs/B/05_parrot.jpg,10,5,4,2,2,1,8,4,0,42,,,,,,,,,,,,,,,,,,,,
,,,,,42,2020-07-03_17h24.28.377,retriever_ti,2020.1.3,Win32,60,Chrome,1920,1080,,,,,,,,,,,,,,,,,1,,,,,,,,,,,,,,,,,,,,,,,,,,,426.831945,17,left,1.430995,dress         ,6,7,5,1,3,426.84887,426.84887,429.3481,0,16,16,16,1,17,6,1,dress         ,phone       ,html/resources/sequences_IDs/A/07_dress.jpg,html/resources/sequences_IDs/B/09_phone.jpg,7,9,3,2,4,2,5,7,0,42,,,,,,,,,,,,,,,,,,,,
,,,,,42,2020-07-03_17h24.28.377,retriever_ti,2020.1.3,Win32,60,Chrome,1920,1080,,,,,,,,,,,,,,,,,1,,,,,,,,,,,,,,,,,,,,,,,,,,,429.9654,18,left,1.641375,parrot      ,3,5,1,1,1,429.982185,429.982185,432.48149,0,17,17,17,1,18,3,2,parrot      ,satellite_dish,html/resources/sequences_IDs/B/05_parrot.jpg,html/resources/sequences_IDs/A/10_satellite_dish.jpg,5,10,2,1,4,2,4,8,0,42,,,,,,,,,,,,,,,,,,,,
,,,,,42,2020-07-03_17h24.28.377,retriever_ti,2020.1.3,Win32,60,Chrome,1920,1080,,,,,,,,,,,,,,,,,1,,,,,,,,,,,,,,,,,,,,,,,,,,,433.58173,19,right,1.20937,giraffe     ,7,3,6,1,3,433.598875,433.598875,436.098165,0,18,18,18,1,19,1,7,phone       ,giraffe     ,html/resources/sequences_IDs/B/09_phone.jpg,html/resources/sequences_IDs/B/03_giraffe.jpg,9,3,4,2,1,1,7,2,0,42,,,,,,,,,,,,,,,,,,,,
,,,,,42,2020-07-03_17h24.28.377,retriever_ti,2020.1.3,Win32,60,Chrome,1920,1080,,,,,,,,,,,,,,,,,1,,,,,,,,,,,,,,,,,,,,,,,,,,,436.715505,20,left,1.455875,satellite_dish,2,10,-3,0,3,436.732405,436.732405,439.231515,0,19,19,19,1,20,2,5,satellite_dish,slipper     ,html/resources/sequences_IDs/A/10_satellite_dish.jpg,html/resources/sequences_IDs/B/08_slipper.jpg,10,8,4,2,3,2,8,6,0,42,,,,,,,,,,,,,,,,,,,,
,,,,,42,2020-07-03_17h24.28.377,retriever_ti,2020.1.3,Win32,60,Chrome,1920,1080,,,,,,,,,,,,,,,,,1,,,,,,,,,,,,,,,,,,,,,,,,,,,439.848805,21,right,1.47767,giraffe     ,7,3,1,1,1,439.86589,439.86589,442.364945,0,20,20,20,1,21,6,7,dress         ,giraffe     ,html/resources/sequences_IDs/A/07_dress.jpg,html/resources/sequences_IDs/B/03_giraffe.jpg,7,3,3,2,1,1,5,2,0,42,,,,,,,,,,,,,,,,,,,,
,,,,,42,2020-07-03_17h24.28.377,retriever_ti,2020.1.3,Win32,60,Chrome,1920,1080,,,,,,,,,,,,,,,,,1,,,,,,,,,,,,,,,,,,,,,,,,,,,443.465165,22,right,1.611375,giraffe     ,7,3,-1,0,0,443.482355,443.482355,445.981685,0,21,21,21,1,22,8,7,seaturtle     ,giraffe     ,html/resources/sequences_IDs/A/02_seaturtle.jpg,html/resources/sequences_IDs/B/03_giraffe.jpg,2,3,2,1,1,1,1,2,0,42,,,,,,,,,,,,,,,,,,,,
,,,,,42,2020-07-03_17h24.28.377,retriever_ti,2020.1.3,Win32,60,Chrome,1920,1080,,,,,,,,,,,,,,,,,1,,,,,,,,,,,,,,,,,,,,,,,,,,,447.082175,23,left,1.91494,dress         ,6,7,1,1,1,447.099075,447.099075,449.59841,0,22,22,22,1,23,6,5,dress         ,slipper     ,html/resources/sequences_IDs/A/07_dress.jpg,html/resources/sequences_IDs/B/08_slipper.jpg,7,8,3,2,3,2,5,6,0,42,,,,,,,,,,,,,,,,,,,,
,,,,,42,2020-07-03_17h24.28.377,retriever_ti,2020.1.3,Win32,60,Chrome,1920,1080,,,,,,,,,,,,,,,,,1,,,,,,,,,,,,,,,,,,,,,,,,,,,450.699025,24,left,1.474515,clownfish     ,4,4,1,1,1,450.73242,450.73242,453.231865,0,23,23,23,1,24,4,3,clownfish     ,parrot      ,html/resources/sequences_IDs/A/04_clownfish.jpg,html/resources/sequences_IDs/B/05_parrot.jpg,4,5,2,1,2,1,3,4,0,42,,,,,,,,,,,,,,,,,,,,
,,,,,42,2020-07-03_17h24.28.377,retriever_ti,2020.1.3,Win32,60,Chrome,1920,1080,,,,,,,,,,,,,,,,,1,,,,,,,,,,,,,,,,,,,,,,,,,,,454.33247,25,left,1.04574,clownfish     ,4,4,-1,0,0,454.34904,454.34904,456.84843,0,24,24,24,1,25,4,5,clownfish     ,slipper     ,html/resources/sequences_IDs/A/04_clownfish.jpg,html/resources/sequences_IDs/B/08_slipper.jpg,4,8,2,1,3,2,3,6,0,42,,,,,,,,,,,,,,,,,,,,
,,,,,42,2020-07-03_17h24.28.377,retriever_ti,2020.1.3,Win32,60,Chrome,1920,1080,,,,,,,,,,,,,,,,,1,,,,,,,,,,,,,,,,,,,,,,,,,,,457.9489,26,left,1.9012,dress         ,6,7,1,1,0,457.96593,457.96593,460.46518,0,25,25,25,1,26,6,5,dress         ,slipper     ,html/resources/sequences_IDs/A/07_dress.jpg,html/resources/sequences_IDs/B/08_slipper.jpg,7,8,3,2,3,2,5,6,1,42,,,,,,,,,,,,,,,,,,,,
,,,,,42,2020-07-03_17h24.28.377,retriever_ti,2020.1.3,Win32,60,Chrome,1920,1080,,,,,,,,,,,,,,,,,1,,,,,,,,,,,,,,,,,,,,,,,,,,,461.565485,27,left,1.65348,parrot      ,3,5,-3,0,3,461.599225,461.599225,464.098495,0,26,26,26,1,27,3,6,parrot      ,dress         ,html/resources/sequences_IDs/B/05_parrot.jpg,html/resources/sequences_IDs/A/07_dress.jpg,5,7,2,1,3,2,4,5,0,42,,,,,,,,,,,,,,,,,,,,
,,,,,42,2020-07-03_17h24.28.377,retriever_ti,2020.1.3,Win32,60,Chrome,1920,1080,,,,,,,,,,,,,,,,,1,,,,,,,,,,,,,,,,,,,,,,,,,,,464.71594,28,right,1.37124,seaturtle     ,8,2,6,1,3,464.73291,464.73291,467.231955,0,27,27,27,1,28,2,8,satellite_dish,seaturtle     ,html/resources/sequences_IDs/A/10_satellite_dish.jpg,html/resources/sequences_IDs/A/02_seaturtle.jpg,10,2,4,2,2,1,8,1,0,42,,,,,,,,,,,,,,,,,,,,
,,,,,42,2020-07-03_17h24.28.377,retriever_ti,2020.1.3,Win32,60,Chrome,1920,1080,,,,,,,,,,,,,,,,,1,,,,,,,,,,,,,,,,,,,,,,,,,,,467.84922,29,left,1.16775,clownfish     ,4,4,3,1,3,467.883245,467.883245,470.38197,0,28,28,28,1,29,4,1,clownfish     ,phone       ,html/resources/sequences_IDs/A/04_clownfish.jpg,html/resources/sequences_IDs/B/09_phone.jpg,4,9,2,1,4,2,3,7,0,42,,,,,,,,,,,,,,,,,,,,
,,,,,42,2020-07-03_17h24.28.377,retriever_ti,2020.1.3,Win32,60,Chrome,1920,1080,,,,,,,,,,,,,,,,,1,,,,,,,,,,,,,,,,,,,,,,,,,,,470.998835,30,right,1.55923,clownfish     ,4,4,3,1,3,471.01606,471.01606,473.515345,0,29,29,29,1,30,1,4,phone       ,clownfish     ,html/resources/sequences_IDs/B/09_phone.jpg,html/resources/sequences_IDs/A/04_clownfish.jpg,9,4,4,2,2,1,7,3,0,42,,,,,,,,,,,,,,,,,,,,
,,,,,42,2020-07-03_17h24.28.377,retriever_ti,2020.1.3,Win32,60,Chrome,1920,1080,,,,,,,,,,,,,,,,,1,,,,,,,,,,,,,,,,,,,,,,,,,,,474.1326,31,left,1.47982,slipper     ,5,8,1,1,1,474.14941,474.14941,476.648695,0,30,30,30,1,31,5,4,slipper     ,clownfish     ,html/resources/sequences_IDs/B/08_slipper.jpg,html/resources/sequences_IDs/A/04_clownfish.jpg,8,4,3,2,2,1,6,3,0,42,,,,,,,,,,,,,,,,,,,,
,,,,,42,2020-07-03_17h24.28.377,retriever_ti,2020.1.3,Win32,60,Chrome,1920,1080,,,,,,,,,,,,,,,,,1,,,,,,,,,,,,,,,,,,,,,,,,,,,477.749315,32,left,1.62849,seaturtle     ,8,2,5,1,3,477.766235,477.766235,480.265425,0,31,31,31,1,32,8,3,seaturtle     ,parrot      ,html/resources/sequences_IDs/A/02_seaturtle.jpg,html/resources/sequences_IDs/B/05_parrot.jpg,2,5,2,1,2,1,1,4,0,42,,,,,,,,,,,,,,,,,,,,
,,,,,42,2020-07-03_17h24.28.377,retriever_ti,2020.1.3,Win32,60,Chrome,1920,1080,,,,,,,,,,,,,,,,,1,,,,,,,,,,,,,,,,,,,,,,,,,,,480.882315,33,left,1.64525,giraffe     ,7,3,5,1,3,480.899355,480.899355,483.398755,0,32,32,32,1,33,7,2,giraffe     ,satellite_dish,html/resources/sequences_IDs/B/03_giraffe.jpg,html/resources/sequences_IDs/A/10_satellite_dish.jpg,3,10,1,1,4,2,2,8,0,42,,,,,,,,,,,,,,,,,,,,
,,,,,42,2020-07-03_17h24.28.377,retriever_ti,2020.1.3,Win32,60,Chrome,1920,1080,,,,,,,,,,,,,,,,,1,,,,,,,,,,,,,,,,,,,,,,,,,,,484.01599,34,right,1.649725,dress         ,6,7,5,1,3,484.03295,484.03295,486.53218,0,33,33,33,1,34,1,6,phone       ,dress         ,html/resources/sequences_IDs/B/09_phone.jpg,html/resources/sequences_IDs/A/07_dress.jpg,9,7,4,2,3,2,7,5,0,42,,,,,,,,,,,,,,,,,,,,
,,,,,42,2020-07-03_17h24.28.377,retriever_ti,2020.1.3,Win32,60,Chrome,1920,1080,,,,,,,,,,,,,,,,,1,,,,,,,,,,,,,,,,,,,,,,,,,,,487.14909,35,left,1.92991,seaturtle     ,8,2,1,1,1,487.166385,487.166385,489.66551,0,34,34,34,1,35,8,7,seaturtle     ,giraffe     ,html/resources/sequences_IDs/A/02_seaturtle.jpg,html/resources/sequences_IDs/B/03_giraffe.jpg,2,3,2,1,1,1,1,2,0,42,,,,,,,,,,,,,,,,,,,,
,,,,,42,2020-07-03_17h24.28.377,retriever_ti,2020.1.3,Win32,60,Chrome,1920,1080,,,,,,,,,,,,,,,,,1,,,,,,,,,,,,,,,,,,,,,,,,,,,490.766105,36,left,1.363295,clownfish     ,4,4,-3,0,3,490.783045,490.783045,493.282245,0,35,35,35,1,36,4,7,clownfish     ,giraffe     ,html/resources/sequences_IDs/A/04_clownfish.jpg,html/resources/sequences_IDs/B/03_giraffe.jpg,4,3,2,1,1,1,3,2,0,42,,,,,,,,,,,,,,,,,,,,
,,,,,42,2020-07-03_17h24.28.377,retriever_ti,2020.1.3,Win32,60,Chrome,1920,1080,,,,,,,,,,,,,,,,,1,,,,,,,,,,,,,,,,,,,,,,,,,,,493.89945,37,right,1.97191,dress         ,6,7,-1,0,0,493.916385,493.916385,496.41571,0,36,36,36,1,37,7,6,giraffe     ,dress         ,html/resources/sequences_IDs/B/03_giraffe.jpg,html/resources/sequences_IDs/A/07_dress.jpg,3,7,1,1,3,2,2,5,0,42,,,,,,,,,,,,,,,,,,,,
,,,,,42,2020-07-03_17h24.28.377,retriever_ti,2020.1.3,Win32,60,Chrome,1920,1080,,,,,,,,,,,,,,,,,1,,,,,,,,,,,,,,,,,,,,,,,,,,,497.515925,38,left,1.290935,parrot      ,3,5,2,1,3,497.549595,497.549595,500.04899,0,37,37,37,1,38,3,1,parrot      ,phone       ,html/resources/sequences_IDs/B/05_parrot.jpg,html/resources/sequences_IDs/B/09_phone.jpg,5,9,2,1,4,2,4,7,0,42,,,,,,,,,,,,,,,,,,,,
,,,,,42,2020-07-03_17h24.28.377,retriever_ti,2020.1.3,Win32,60,Chrome,1920,1080,,,,,,,,,,,,,,,,,1,,,,,,,,,,,,,,,,,,,,,,,,,,,500.64965,39,left,1.322045,phone       ,1,9,-1,0,0,500.666425,500.666425,503.16565,0,38,38,38,1,39,1,2,phone       ,satellite_dish,html/resources/sequences_IDs/B/09_phone.jpg,html/resources/sequences_IDs/A/10_satellite_dish.jpg,9,10,4,2,4,2,7,8,0,42,,,,,,,,,,,,,,,,,,,,
,,,,,42,2020-07-03_17h24.28.377,retriever_ti,2020.1.3,Win32,60,Chrome,1920,1080,,,,,,,,,,,,,,,,,1,,,,,,,,,,,,,,,,,,,,,,,,,,,504.26625,40,right,1.300545,dress         ,6,7,1,1,1,504.28335,504.28335,506.78241,0,39,39,39,1,40,5,6,slipper     ,dress         ,html/resources/sequences_IDs/B/08_slipper.jpg,html/resources/sequences_IDs/A/07_dress.jpg,8,7,3,2,3,2,6,5,0,42,,,,,,,,,,,,,,,,,,,,
,,,,,42,2020-07-03_17h24.28.377,retriever_ti,2020.1.3,Win32,60,Chrome,1920,1080,,,,,,,,,,,,,,,,,1,,,,,,,,,,,,,,,,,,,,,,,,,,,507.88292,41,left,1.009235,dress         ,6,7,1,1,1,507.899665,507.899665,510.39916,0,40,40,40,1,41,6,5,dress         ,slipper     ,html/resources/sequences_IDs/A/07_dress.jpg,html/resources/sequences_IDs/B/08_slipper.jpg,7,8,3,2,3,2,5,6,0,42,,,,,,,,,,,,,,,,,,,,
,,,,,42,2020-07-03_17h24.28.377,retriever_ti,2020.1.3,Win32,60,Chrome,1920,1080,,,,,,,,,,,,,,,,,1,,,,,,,,,,,,,,,,,,,,,,,,,,,511.499365,42,right,1.72219,slipper     ,5,8,1,1,1,511.51645,511.51645,514.01579,0,41,41,41,1,42,4,5,clownfish     ,slipper     ,html/resources/sequences_IDs/A/04_clownfish.jpg,html/resources/sequences_IDs/B/08_slipper.jpg,4,8,2,1,3,2,3,6,0,42,,,,,,,,,,,,,,,,,,,,
,,,,,42,2020-07-03_17h24.28.377,retriever_ti,2020.1.3,Win32,60,Chrome,1920,1080,,,,,,,,,,,,,,,,,1,,,,,,,,,,,,,,,,,,,,,,,,,,,515.116485,43,left,1.519725,dress         ,6,7,3,1,3,515.14998,515.14998,517.64928,0,42,42,42,1,43,6,3,dress         ,parrot      ,html/resources/sequences_IDs/A/07_dress.jpg,html/resources/sequences_IDs/B/05_parrot.jpg,7,5,3,2,2,1,5,4,0,42,,,,,,,,,,,,,,,,,,,,
,,,,,42,2020-07-03_17h24.28.377,retriever_ti,2020.1.3,Win32,60,Chrome,1920,1080,,,,,,,,,,,,,,,,,1,,,,,,,,,,,,,,,,,,,,,,,,,,,518.26649,44,left,1.067065,phone       ,1,9,-1,0,1,518.300035,518.300035,520.799215,0,43,43,43,1,44,1,2,phone       ,satellite_dish,html/resources/sequences_IDs/B/09_phone.jpg,html/resources/sequences_IDs/A/10_satellite_dish.jpg,9,10,4,2,4,2,7,8,1,42,,,,,,,,,,,,,,,,,,,,
,,,,,42,2020-07-03_17h24.28.377,retriever_ti,2020.1.3,Win32,60,Chrome,1920,1080,,,,,,,,,,,,,,,,,1,,,,,,,,,,,,,,,,,,,,,,,,,,,521.8999,45,left,1.55084,giraffe     ,7,3,6,1,3,521.91672,521.91672,524.416095,0,44,44,44,1,45,7,1,giraffe     ,phone       ,html/resources/sequences_IDs/B/03_giraffe.jpg,html/resources/sequences_IDs/B/09_phone.jpg,3,9,1,1,4,2,2,7,0,42,,,,,,,,,,,,,,,,,,,,
,,,,,42,2020-07-03_17h24.28.377,retriever_ti,2020.1.3,Win32,60,Chrome,1920,1080,,,,,,,,,,,,,,,,,1,,,,,,,,,,,,,,,,,,,,,,,,,,,525.032865,46,left,1.18066,giraffe     ,7,3,3,1,3,525.066755,525.066755,527.56622,0,45,45,45,1,46,7,4,giraffe     ,clownfish     ,html/resources/sequences_IDs/B/03_giraffe.jpg,html/resources/sequences_IDs/A/04_clownfish.jpg,3,4,1,1,2,1,2,3,0,42,,,,,,,,,,,,,,,,,,,,
,,,,,42,2020-07-03_17h24.28.377,retriever_ti,2020.1.3,Win32,60,Chrome,1920,1080,,,,,,,,,,,,,,,,,1,,,,,,,,,,,,,,,,,,,,,,,,,,,528.183385,47,left,1.23422,parrot      ,3,5,1,1,0,528.200105,528.200105,530.699435,0,46,46,46,1,47,3,2,parrot      ,satellite_dish,html/resources/sequences_IDs/B/05_parrot.jpg,html/resources/sequences_IDs/A/10_satellite_dish.jpg,5,10,2,1,4,2,4,8,1,42,,,,,,,,,,,,,,,,,,,,
,,,,,42,2020-07-03_17h24.28.377,retriever_ti,2020.1.3,Win32,60,Chrome,1920,1080,,,,,,,,,,,,,,,,,1,,,,,,,,,,,,,,,,,,,,,,,,,,,531.799955,48,left,1.07935,dress         ,6,7,4,1,3,531.833495,531.833495,534.332835,0,47,47,47,1,48,6,2,dress         ,satellite_dish,html/resources/sequences_IDs/A/07_dress.jpg,html/resources/sequences_IDs/A/10_satellite_dish.jpg,7,10,3,2,4,2,5,8,0,42,,,,,,,,,,,,,,,,,,,,
,,,,,42,2020-07-03_17h24.28.377,retriever_ti,2020.1.3,Win32,60,Chrome,1920,1080,,,,,,,,,,,,,,,,,1,,,,,,,,,,,,,,,,,,,,,,,,,,,534.949725,49,left,1.34915,dress         ,6,7,2,1,3,534.96678,534.96678,537.466125,0,48,48,48,1,49,6,4,dress         ,clownfish     ,html/resources/sequences_IDs/A/07_dress.jpg,html/resources/sequences_IDs/A/04_clownfish.jpg,7,4,3,2,2,1,5,3,0,42,,,,,,,,,,,,,,,,,,,,
,,,,,42,2020-07-03_17h24.28.377,retriever_ti,2020.1.3,Win32,60,Chrome,1920,1080,,,,,,,,,,,,,,,,,1,,,,,,,,,,,,,,,,,,,,,,,,,,,538.08338,50,right,1.6875,giraffe     ,7,3,4,1,3,538.100075,538.100075,540.599475,0,49,49,49,1,50,3,7,parrot      ,giraffe     ,html/resources/sequences_IDs/B/05_parrot.jpg,html/resources/sequences_IDs/B/03_giraffe.jpg,5,3,2,1,1,1,4,2,0,42,,,,,,,,,,,,,,,,,,,,
,,,,,42,2020-07-03_17h24.28.377,retriever_ti,2020.1.3,Win32,60,Chrome,1920,1080,,,,,,,,,,,,,,,,,1,,,,,,,,,,,,,,,,,,,,,,,,,,,541.216435,51,left,1.00517,slipper     ,5,8,-1,0,0,541.250265,541.250265,543.74957,0,50,50,50,1,51,5,6,slipper     ,dress         ,html/resources/sequences_IDs/B/08_slipper.jpg,html/resources/sequences_IDs/A/07_dress.jpg,8,7,3,2,3,2,6,5,0,42,,,,,,,,,,,,,,,,,,,,
,,,,,42,2020-07-03_17h24.28.377,retriever_ti,2020.1.3,Win32,60,Chrome,1920,1080,,,,,,,,,,,,,,,,,1,,,,,,,,,,,,,,,,,,,,,,,,,,,544.850135,52,left,1.513685,parrot      ,3,5,-2,0,3,544.883775,544.883775,547.382835,0,51,51,51,1,52,3,5,parrot      ,slipper     ,html/resources/sequences_IDs/B/05_parrot.jpg,html/resources/sequences_IDs/B/08_slipper.jpg,5,8,2,1,3,2,4,6,0,42,,,,,,,,,,,,,,,,,,,,
,,,,,42,2020-07-03_17h24.28.377,retriever_ti,2020.1.3,Win32,60,Chrome,1920,1080,,,,,,,,,,,,,,,,,1,,,,,,,,,,,,,,,,,,,,,,,,,,,547.983515,53,right,1.171595,dress         ,6,7,4,1,3,548.017055,548.017055,550.516275,0,52,52,52,1,53,2,6,satellite_dish,dress         ,html/resources/sequences_IDs/A/10_satellite_dish.jpg,html/resources/sequences_IDs/A/07_dress.jpg,10,7,4,2,3,2,8,5,0,42,,,,,,,,,,,,,,,,,,,,
,,,,,42,2020-07-03_17h24.28.377,retriever_ti,2020.1.3,Win32,60,Chrome,1920,1080,,,,,,,,,,,,,,,,,1,,,,,,,,,,,,,,,,,,,,,,,,,,,551.133235,54,left,1.23334,dress         ,6,7,-2,0,3,551.1673,551.1673,553.6663,0,53,53,53,1,54,6,8,dress         ,seaturtle     ,html/resources/sequences_IDs/A/07_dress.jpg,html/resources/sequences_IDs/A/02_seaturtle.jpg,7,2,3,2,2,1,5,1,0,42,,,,,,,,,,,,,,,,,,,,
,,,,,42,2020-07-03_17h24.28.377,retriever_ti,2020.1.3,Win32,60,Chrome,1920,1080,,,,,,,,,,,,,,,,,1,,,,,,,,,,,,,,,,,,,,,,,,,,,554.2837,55,left,1.814285,parrot      ,3,5,-1,0,0,554.300445,554.300445,556.79977,0,54,54,54,1,55,3,4,parrot      ,clownfish     ,html/resources/sequences_IDs/B/05_parrot.jpg,html/resources/sequences_IDs/A/04_clownfish.jpg,5,4,2,1,2,1,4,3,0,42,,,,,,,,,,,,,,,,,,,,
,,,,,42,2020-07-03_17h24.28.377,retriever_ti,2020.1.3,Win32,60,Chrome,1920,1080,,,,,,,,,,,,,,,,,1,,,,,,,,,,,,,,,,,,,,,,,,,,,557.900255,56,right,0.85829,slipper     ,5,8,4,1,3,557.933805,557.933805,560.433045,0,55,55,55,1,56,1,5,phone       ,slipper     ,html/resources/sequences_IDs/B/09_phone.jpg,html/resources/sequences_IDs/B/08_slipper.jpg,9,8,4,2,3,2,7,6,0,42,,,,,,,,,,,,,,,,,,,,
,,,,,42,2020-07-03_17h24.28.377,retriever_ti,2020.1.3,Win32,60,Chrome,1920,1080,,,,,,,,,,,,,,,,,1,,,,,,,,,,,,,,,,,,,,,,,,,,,561.04999,57,right,1.09625,dress         ,6,7,-1,0,1,561.08401,561.08401,563.58315,0,56,56,56,1,57,7,6,giraffe     ,dress         ,html/resources/sequences_IDs/B/03_giraffe.jpg,html/resources/sequences_IDs/A/07_dress.jpg,3,7,1,1,3,2,2,5,1,42,,,,,,,,,,,,,,,,,,,,
,,,,,42,2020-07-03_17h24.28.377,retriever_ti,2020.1.3,Win32,60,Chrome,1920,1080,,,,,,,,,,,,,,,,,1,,,,,,,,,,,,,,,,,,,,,,,,,,,564.68378,58,left,1.154075,slipper     ,5,8,-3,0,3,564.700525,564.700525,567.199815,0,57,57,57,1,58,5,8,slipper     ,seaturtle     ,html/resources/sequences_IDs/B/08_slipper.jpg,html/resources/sequences_IDs/A/02_seaturtle.jpg,8,2,3,2,2,1,6,1,0,42,,,,,,,,,,,,,,,,,,,,
,,,,,42,2020-07-03_17h24.28.377,retriever_ti,2020.1.3,Win32,60,Chrome,1920,1080,,,,,,,,,,,,,,,,,1,,,,,,,,,,,,,,,,,,,,,,,,,,,567.81695,59,right,1.59485,parrot      ,3,5,2,1,3,567.834635,567.834635,570.333125,0,58,58,58,1,59,1,3,phone       ,parrot      ,html/resources/sequences_IDs/B/09_phone.jpg,html/resources/sequences_IDs/B/05_parrot.jpg,9,5,4,2,2,1,7,4,0,42,,,,,,,,,,,,,,,,,,,,
,,,,,42,2020-07-03_17h24.28.377,retriever_ti,2020.1.3,Win32,60,Chrome,1920,1080,,,,,,,,,,,,,,,,,1,,,,,,,,,,,,,,,,,,,,,,,,,,,570.933535,60,right,1.723095,slipper     ,5,8,1,1,0,570.967325,570.967325,573.46658,0,59,59,59,1,60,4,5,clownfish     ,slipper     ,html/resources/sequences_IDs/A/04_clownfish.jpg,html/resources/sequences_IDs/B/08_slipper.jpg,4,8,2,1,3,2,3,6,1,42,,,,,,,,,,,,,,,,,,,,
,,,,,42,2020-07-03_17h24.28.377,retriever_ti,2020.1.3,Win32,60,Chrome,1920,1080,,,,,,,,,,,,,,,,,1,,,,,,,,,,,,,,,,,,,,,,,,,,,574.56714,61,left,1.42844,giraffe     ,7,3,4,1,3,574.600715,574.600715,577.09988,0,60,60,60,1,61,7,3,giraffe     ,parrot      ,html/resources/sequences_IDs/B/03_giraffe.jpg,html/resources/sequences_IDs/B/05_parrot.jpg,3,5,1,1,2,1,2,4,0,42,,,,,,,,,,,,,,,,,,,,
,,,,,42,2020-07-03_17h24.28.377,retriever_ti,2020.1.3,Win32,60,Chrome,1920,1080,,,,,,,,,,,,,,,,,1,,,,,,,,,,,,,,,,,,,,,,,,,,,577.7168,62,left,1.839895,satellite_dish,2,10,1,1,1,577.73403,577.73403,580.233255,0,61,61,61,1,62,2,1,satellite_dish,phone       ,html/resources/sequences_IDs/A/10_satellite_dish.jpg,html/resources/sequences_IDs/B/09_phone.jpg,10,9,4,2,4,2,8,7,0,42,,,,,,,,,,,,,,,,,,,,
,,,,,42,2020-07-03_17h24.28.377,retriever_ti,2020.1.3,Win32,60,Chrome,1920,1080,,,,,,,,,,,,,,,,,1,,,,,,,,,,,,,,,,,,,,,,,,,,,581.334095,63,right,1.635215,dress         ,6,7,-2,0,3,581.350725,581.350725,583.85014,0,62,62,62,1,63,8,6,seaturtle     ,dress         ,html/resources/sequences_IDs/A/02_seaturtle.jpg,html/resources/sequences_IDs/A/07_dress.jpg,2,7,2,1,3,2,1,5,0,42,,,,,,,,,,,,,,,,,,,,
,,,,,42,2020-07-03_17h24.28.377,retriever_ti,2020.1.3,Win32,60,Chrome,1920,1080,,,,,,,,,,,,,,,,,1,,,,,,,,,,,,,,,,,,,,,,,,,,,584.46731,64,left,1.145835,seaturtle     ,8,2,6,1,3,584.48413,584.48413,586.98341,0,63,63,63,1,64,8,2,seaturtle     ,satellite_dish,html/resources/sequences_IDs/A/02_seaturtle.jpg,html/resources/sequences_IDs/A/10_satellite_dish.jpg,2,10,2,1,4,2,1,8,0,42,,,,,,,,,,,,,,,,,,,,
,,,,,42,2020-07-03_17h24.28.377,retriever_ti,2020.1.3,Win32,60,Chrome,1920,1080,,,,,,,,,,,,,,,,,1,,,,,,,,,,,,,,,,,,,,,,,,,,,587.600275,65,left,1.49379,clownfish     ,4,4,1,1,1,587.63423,587.63423,590.133485,0,64,64,64,1,65,4,3,clownfish     ,parrot      ,html/resources/sequences_IDs/A/04_clownfish.jpg,html/resources/sequences_IDs/B/05_parrot.jpg,4,5,2,1,2,1,3,4,0,42,,,,,,,,,,,,,,,,,,,,
,,,,,42,2020-07-03_17h24.28.377,retriever_ti,2020.1.3,Win32,60,Chrome,1920,1080,,,,,,,,,,,,,,,,,1,,,,,,,,,,,,,,,,,,,,,,,,,,,591.23403,66,left,1.163915,satellite_dish,2,10,1,1,1,591.250935,591.250935,593.750115,0,65,65,65,1,66,2,1,satellite_dish,phone       ,html/resources/sequences_IDs/A/10_satellite_dish.jpg,html/resources/sequences_IDs/B/09_phone.jpg,10,9,4,2,4,2,8,7,0,42,,,,,,,,,,,,,,,,,,,,
,,,,,42,2020-07-03_17h24.28.377,retriever_ti,2020.1.3,Win32,60,Chrome,1920,1080,,,,,,,,,,,,,,,,,1,,,,,,,,,,,,,,,,,,,,,,,,,,,594.85072,67,right,1.52361,clownfish     ,4,4,-1,0,0,594.867645,594.867645,597.366965,0,66,66,66,1,67,5,4,slipper     ,clownfish     ,html/resources/sequences_IDs/B/08_slipper.jpg,html/resources/sequences_IDs/A/04_clownfish.jpg,8,4,3,2,2,1,6,3,0,42,,,,,,,,,,,,,,,,,,,,
,,,,,42,2020-07-03_17h24.28.377,retriever_ti,2020.1.3,Win32,60,Chrome,1920,1080,,,,,,,,,,,,,,,,,1,,,,,,,,,,,,,,,,,,,,,,,,,,,598.467375,68,left,0.996105,clownfish     ,4,4,2,1,3,598.500975,598.500975,601.000215,0,67,67,67,1,68,4,2,clownfish     ,satellite_dish,html/resources/sequences_IDs/A/04_clownfish.jpg,html/resources/sequences_IDs/A/10_satellite_dish.jpg,4,10,2,1,4,2,3,8,0,42,,,,,,,,,,,,,,,,,,,,
,,,,,42,2020-07-03_17h24.28.377,retriever_ti,2020.1.3,Win32,60,Chrome,1920,1080,,,,,,,,,,,,,,,,,1,,,,,,,,,,,,,,,,,,,,,,,,,,,601.617185,69,right,1.71925,satellite_dish,2,10,1,1,1,601.634585,601.634585,604.133625,0,68,68,68,1,69,1,2,phone       ,satellite_dish,html/resources/sequences_IDs/B/09_phone.jpg,html/resources/sequences_IDs/A/10_satellite_dish.jpg,9,10,4,2,4,2,7,8,0,42,,,,,,,,,,,,,,,,,,,,
,,,,,42,2020-07-03_17h24.28.377,retriever_ti,2020.1.3,Win32,60,Chrome,1920,1080,,,,,,,,,,,,,,,,,1,,,,,,,,,,,,,,,,,,,,,,,,,,,605.234235,70,left,1.510835,seaturtle     ,8,2,3,1,3,605.25111,605.25111,607.75033,0,69,69,69,1,70,8,5,seaturtle     ,slipper     ,html/resources/sequences_IDs/A/02_seaturtle.jpg,html/resources/sequences_IDs/B/08_slipper.jpg,2,8,2,1,3,2,1,6,0,42,,,,,,,,,,,,,,,,,,,,
,,,,,42,2020-07-03_17h24.28.377,retriever_ti,2020.1.3,Win32,60,Chrome,1920,1080,,,,,,,,,,,,,,,,,1,,,,,,,,,,,,,,,,,,,,,,,,,,,608.367505,71,right,0.862595,slipper     ,5,8,-2,0,3,608.40108,608.40108,610.90035,0,70,70,70,1,71,7,5,giraffe     ,slipper     ,html/resources/sequences_IDs/B/03_giraffe.jpg,html/resources/sequences_IDs/B/08_slipper.jpg,3,8,1,1,3,2,2,6,0,42,,,,,,,,,,,,,,,,,,,,
,,,,,42,2020-07-03_17h24.28.377,retriever_ti,2020.1.3,Win32,60,Chrome,1920,1080,,,,,,,,,,,,,,,,,1,,,,,,,,,,,,,,,,,,,,,,,,,,,611.517245,72,left,1.417355,parrot      ,3,5,-1,0,0,611.53447,611.53447,614.03371,0,71,71,71,1,72,3,4,parrot      ,clownfish     ,html/resources/sequences_IDs/B/05_parrot.jpg,html/resources/sequences_IDs/A/04_clownfish.jpg,5,4,2,1,2,1,4,3,0,42,,,,,,,,,,,,,,,,,,,,
,,,,,42,2020-07-03_17h24.28.377,retriever_ti,2020.1.3,Win32,60,Chrome,1920,1080,,,,,,,,,,,,,,,,,1,,,,,,,,,,,,,,,,,,,,,,,,,,,615.13453,73,right,0.81979,giraffe     ,7,3,5,1,3,615.167865,615.167865,617.66714,0,72,72,72,1,73,2,7,satellite_dish,giraffe     ,html/resources/sequences_IDs/A/10_satellite_dish.jpg,html/resources/sequences_IDs/B/03_giraffe.jpg,10,3,4,2,1,1,8,2,0,42,,,,,,,,,,,,,,,,,,,,
,,,,,42,2020-07-03_17h24.28.377,retriever_ti,2020.1.3,Win32,60,Chrome,1920,1080,,,,,,,,,,,,,,,,,1,,,,,,,,,,,,,,,,,,,,,,,,,,,618.284435,74,right,1.950875,seaturtle     ,8,2,4,1,3,618.318035,618.318035,620.81717,0,73,73,73,1,74,4,8,clownfish     ,seaturtle     ,html/resources/sequences_IDs/A/04_clownfish.jpg,html/resources/sequences_IDs/A/02_seaturtle.jpg,4,2,2,1,2,1,3,1,0,42,,,,,,,,,,,,,,,,,,,,
,,,,,42,2020-07-03_17h24.28.377,retriever_ti,2020.1.3,Win32,60,Chrome,1920,1080,,,,,,,,,,,,,,,,,1,,,,,,,,,,,,,,,,,,,,,,,,,,,621.434055,75,right,1.24536,seaturtle     ,8,2,7,1,3,621.451235,621.451235,623.95053,0,74,74,74,1,75,1,8,phone       ,seaturtle     ,html/resources/sequences_IDs/B/09_phone.jpg,html/resources/sequences_IDs/A/02_seaturtle.jpg,9,2,4,2,2,1,7,1,0,42,,,,,,,,,,,,,,,,,,,,
,,,,,42,2020-07-03_17h24.28.377,retriever_ti,2020.1.3,Win32,60,Chrome,1920,1080,,,,,,,,,,,,,,,,,1,,,,,,,,,,,,,,,,,,,,,,,,,,,624.567935,76,left,1.302765,slipper     ,5,8,-2,0,3,624.584515,624.584515,627.0839,0,75,75,75,1,76,5,7,slipper     ,giraffe     ,html/resources/sequences_IDs/B/08_slipper.jpg,html/resources/sequences_IDs/B/03_giraffe.jpg,8,3,3,2,1,1,6,2,0,42,,,,,,,,,,,,,,,,,,,,
,,,,,42,2020-07-03_17h24.28.377,retriever_ti,2020.1.3,Win32,60,Chrome,1920,1080,,,,,,,,,,,,,,,,,1,,,,,,,,,,,,,,,,,,,,,,,,,,,627.700745,77,right,1.40354,seaturtle     ,8,2,1,1,1,627.71792,627.71792,630.217255,0,76,76,76,1,77,7,8,giraffe     ,seaturtle     ,html/resources/sequences_IDs/B/03_giraffe.jpg,html/resources/sequences_IDs/A/02_seaturtle.jpg,3,2,1,1,2,1,2,1,0,42,,,,,,,,,,,,,,,,,,,,
,,,,,42,2020-07-03_17h24.28.377,retriever_ti,2020.1.3,Win32,60,Chrome,1920,1080,,,,,,,,,,,,,,,,,,,,,,,,,,,,,,,,,,,,,0,6.48021,,,,,,,,,,,,,,,,,,,,,,,,,,,,,,,,,,,,,,,,,0,0,0,0,1,,,,,,,,,,,,,,,
,,,,,42,2020-07-03_17h24.28.377,retriever_ti,2020.1.3,Win32,60,Chrome,1920,1080,,,,,,,,,,,,,,,,,2,,,,,,,,,,,,,,,,,,,,,,,,,,,650.159005,78,left,0.73929,parrot      ,3,5,-3,0,3,650.18486,650.18486,652.684205,0,0,0,0,1,78,3,6,parrot      ,dress         ,html/resources/sequences_IDs/B/05_parrot.jpg,html/resources/sequences_IDs/A/07_dress.jpg,5,7,2,1,3,2,4,5,0,42,,,,,,,,,,,,,,,,,,,,
,,,,,42,2020-07-03_17h24.28.377,retriever_ti,2020.1.3,Win32,60,Chrome,1920,1080,,,,,,,,,,,,,,,,,2,,,,,,,,,,,,,,,,,,,,,,,,,,,653.301455,79,right,0.90655,slipper     ,5,8,3,1,3,653.33504,653.33504,655.83429,0,1,1,1,1,79,2,5,satellite_dish,slipper     ,html/resources/sequences_IDs/A/10_satellite_dish.jpg,html/resources/sequences_IDs/B/08_slipper.jpg,10,8,4,2,3,2,8,6,0,42,,,,,,,,,,,,,,,,,,,,
,,,,,42,2020-07-03_17h24.28.377,retriever_ti,2020.1.3,Win32,60,Chrome,1920,1080,,,,,,,,,,,,,,,,,2,,,,,,,,,,,,,,,,,,,,,,,,,,,656.451175,80,right,1.25811,seaturtle     ,8,2,7,1,3,656.485075,656.485075,658.98426,0,2,2,2,1,80,1,8,phone       ,seaturtle     ,html/resources/sequences_IDs/B/09_phone.jpg,html/resources/sequences_IDs/A/02_seaturtle.jpg,9,2,4,2,2,1,7,1,0,42,,,,,,,,,,,,,,,,,,,,
,,,,,42,2020-07-03_17h24.28.377,retriever_ti,2020.1.3,Win32,60,Chrome,1920,1080,,,,,,,,,,,,,,,,,2,,,,,,,,,,,,,,,,,,,,,,,,,,,659.601495,81,right,1.02578,giraffe     ,7,3,-1,0,0,659.635105,659.635105,662.13433,0,3,3,3,1,81,8,7,seaturtle     ,giraffe     ,html/resources/sequences_IDs/A/02_seaturtle.jpg,html/resources/sequences_IDs/B/03_giraffe.jpg,2,3,2,1,1,1,1,2,0,42,,,,,,,,,,,,,,,,,,,,
,,,,,42,2020-07-03_17h24.28.377,retriever_ti,2020.1.3,Win32,60,Chrome,1920,1080,,,,,,,,,,,,,,,,,2,,,,,,,,,,,,,,,,,,,,,,,,,,,663.23497,82,left,1.01786,parrot      ,3,5,1,1,1,663.251645,663.251645,665.750985,0,4,4,4,1,82,3,2,parrot      ,satellite_dish,html/resources/sequences_IDs/B/05_parrot.jpg,html/resources/sequences_IDs/A/10_satellite_dish.jpg,5,10,2,1,4,2,4,8,0,42,,,,,,,,,,,,,,,,,,,,
,,,,,42,2020-07-03_17h24.28.377,retriever_ti,2020.1.3,Win32,60,Chrome,1920,1080,,,,,,,,,,,,,,,,,2,,,,,,,,,,,,,,,,,,,,,,,,,,,666.851535,83,right,0.854905,parrot      ,3,5,1,1,1,666.868405,666.868405,669.367745,0,5,5,5,1,83,2,3,satellite_dish,parrot      ,html/resources/sequences_IDs/A/10_satellite_dish.jpg,html/resources/sequences_IDs/B/05_parrot.jpg,10,5,4,2,2,1,8,4,0,42,,,,,,,,,,,,,,,,,,,,
,,,,,42,2020-07-03_17h24.28.377,retriever_ti,2020.1.3,Win32,60,Chrome,1920,1080,,,,,,,,,,,,,,,,,2,,,,,,,,,,,,,,,,,,,,,,,,,,,670.46793,84,left,1.3632,slipper     ,5,8,-2,0,3,670.501735,670.501735,673.001155,0,6,6,6,1,84,5,7,slipper     ,giraffe     ,html/resources/sequences_IDs/B/08_slipper.jpg,html/resources/sequences_IDs/B/03_giraffe.jpg,8,3,3,2,1,1,6,2,0,42,,,,,,,,,,,,,,,,,,,,
,,,,,42,2020-07-03_17h24.28.377,retriever_ti,2020.1.3,Win32,60,Chrome,1920,1080,,,,,,,,,,,,,,,,,2,,,,,,,,,,,,,,,,,,,,,,,,,,,673.618415,85,right,0.99678,giraffe     ,7,3,6,1,3,673.651875,673.651875,676.15113,0,7,7,7,1,85,1,7,phone       ,giraffe     ,html/resources/sequences_IDs/B/09_phone.jpg,html/resources/sequences_IDs/B/03_giraffe.jpg,9,3,4,2,1,1,7,2,0,42,,,,,,,,,,,,,,,,,,,,
,,,,,42,2020-07-03_17h24.28.377,retriever_ti,2020.1.3,Win32,60,Chrome,1920,1080,,,,,,,,,,,,,,,,,2,,,,,,,,,,,,,,,,,,,,,,,,,,,676.768295,86,right,0.915165,satellite_dish,2,10,1,1,0,676.803145,676.803145,679.3012,0,8,8,8,1,86,1,2,phone       ,satellite_dish,html/resources/sequences_IDs/B/09_phone.jpg,html/resources/sequences_IDs/A/10_satellite_dish.jpg,9,10,4,2,4,2,7,8,1,42,,,,,,,,,,,,,,,,,,,,
,,,,,42,2020-07-03_17h24.28.377,retriever_ti,2020.1.3,Win32,60,Chrome,1920,1080,,,,,,,,,,,,,,,,,2,,,,,,,,,,,,,,,,,,,,,,,,,,,680.40148,87,left,2.082175,clownfish     ,4,4,2,1,3,680.43533,680.43533,682.93457,0,9,9,9,1,87,4,2,clownfish     ,satellite_dish,html/resources/sequences_IDs/A/04_clownfish.jpg,html/resources/sequences_IDs/A/10_satellite_dish.jpg,4,10,2,1,4,2,3,8,0,42,,,,,,,,,,,,,,,,,,,,
,,,,,42,2020-07-03_17h24.28.377,retriever_ti,2020.1.3,Win32,60,Chrome,1920,1080,,,,,,,,,,,,,,,,,2,,,,,,,,,,,,,,,,,,,,,,,,,,,683.552455,88,left,1.645895,clownfish     ,4,4,1,1,0,683.58531,683.58531,686.084635,0,10,10,10,1,88,4,3,clownfish     ,parrot      ,html/resources/sequences_IDs/A/04_clownfish.jpg,html/resources/sequences_IDs/B/05_parrot.jpg,4,5,2,1,2,1,3,4,1,42,,,,,,,,,,,,,,,,,,,,
,,,,,42,2020-07-03_17h24.28.377,retriever_ti,2020.1.3,Win32,60,Chrome,1920,1080,,,,,,,,,,,,,,,,,2,,,,,,,,,,,,,,,,,,,,,,,,,,,687.185175,89,left,0.96718,giraffe     ,7,3,6,1,3,687.20191,687.20191,689.70136,0,11,11,11,1,89,7,1,giraffe     ,phone       ,html/resources/sequences_IDs/B/03_giraffe.jpg,html/resources/sequences_IDs/B/09_phone.jpg,3,9,1,1,4,2,2,7,0,42,,,,,,,,,,,,,,,,,,,,
,,,,,42,2020-07-03_17h24.28.377,retriever_ti,2020.1.3,Win32,60,Chrome,1920,1080,,,,,,,,,,,,,,,,,2,,,,,,,,,,,,,,,,,,,,,,,,,,,690.318205,90,right,1.89863,parrot      ,3,5,-4,0,3,690.335345,690.335345,692.83463,0,12,12,12,1,90,7,3,giraffe     ,parrot      ,html/resources/sequences_IDs/B/03_giraffe.jpg,html/resources/sequences_IDs/B/05_parrot.jpg,3,5,1,1,2,1,2,4,0,42,,,,,,,,,,,,,,,,,,,,
,,,,,42,2020-07-03_17h24.28.377,retriever_ti,2020.1.3,Win32,60,Chrome,1920,1080,,,,,,,,,,,,,,,,,2,,,,,,,,,,,,,,,,,,,,,,,,,,,693.43533,91,right,1.21643,seaturtle     ,8,2,5,1,3,693.47028,693.47028,695.968115,0,13,13,13,1,91,3,8,parrot      ,seaturtle     ,html/resources/sequences_IDs/B/05_parrot.jpg,html/resources/sequences_IDs/A/02_seaturtle.jpg,5,2,2,1,2,1,4,1,0,42,,,,,,,,,,,,,,,,,,,,
,,,,,42,2020-07-03_17h24.28.377,retriever_ti,2020.1.3,Win32,60,Chrome,1920,1080,,,,,,,,,,,,,,,,,2,,,,,,,,,,,,,,,,,,,,,,,,,,,696.58527,92,left,1.416455,slipper     ,5,8,-1,0,0,696.618915,696.618915,699.1181,0,14,14,14,1,92,5,6,slipper     ,dress         ,html/resources/sequences_IDs/B/08_slipper.jpg,html/resources/sequences_IDs/A/07_dress.jpg,8,7,3,2,3,2,6,5,0,42,,,,,,,,,,,,,,,,,,,,
,,,,,42,2020-07-03_17h24.28.377,retriever_ti,2020.1.3,Win32,60,Chrome,1920,1080,,,,,,,,,,,,,,,,,2,,,,,,,,,,,,,,,,,,,,,,,,,,,700.2193,93,right,0.96385,dress         ,6,7,2,1,3,700.235485,700.235485,702.73491,0,15,15,15,1,93,4,6,clownfish     ,dress         ,html/resources/sequences_IDs/A/04_clownfish.jpg,html/resources/sequences_IDs/A/07_dress.jpg,4,7,2,1,3,2,3,5,0,42,,,,,,,,,,,,,,,,,,,,
,,,,,42,2020-07-03_17h24.28.377,retriever_ti,2020.1.3,Win32,60,Chrome,1920,1080,,,,,,,,,,,,,,,,,2,,,,,,,,,,,,,,,,,,,,,,,,,,,703.35195,94,left,1.196685,phone       ,1,9,-1,0,0,703.385605,703.385605,705.884845,0,16,16,16,1,94,1,2,phone       ,satellite_dish,html/resources/sequences_IDs/B/09_phone.jpg,html/resources/sequences_IDs/A/10_satellite_dish.jpg,9,10,4,2,4,2,7,8,0,42,,,,,,,,,,,,,,,,,,,,
,,,,,42,2020-07-03_17h24.28.377,retriever_ti,2020.1.3,Win32,60,Chrome,1920,1080,,,,,,,,,,,,,,,,,2,,,,,,,,,,,,,,,,,,,,,,,,,,,706.985475,95,right,1.23787,giraffe     ,7,3,5,1,3,707.00227,707.00227,709.501555,0,17,17,17,1,95,2,7,satellite_dish,giraffe     ,html/resources/sequences_IDs/A/10_satellite_dish.jpg,html/resources/sequences_IDs/B/03_giraffe.jpg,10,3,4,2,1,1,8,2,0,42,,,,,,,,,,,,,,,,,,,,
,,,,,42,2020-07-03_17h24.28.377,retriever_ti,2020.1.3,Win32,60,Chrome,1920,1080,,,,,,,,,,,,,,,,,2,,,,,,,,,,,,,,,,,,,,,,,,,,,710.11844,96,left,1.41787,slipper     ,5,8,3,1,3,710.135635,710.135635,712.634915,0,18,18,18,1,96,5,2,slipper     ,satellite_dish,html/resources/sequences_IDs/B/08_slipper.jpg,html/resources/sequences_IDs/A/10_satellite_dish.jpg,8,10,3,2,4,2,6,8,0,42,,,,,,,,,,,,,,,,,,,,
,,,,,42,2020-07-03_17h24.28.377,retriever_ti,2020.1.3,Win32,60,Chrome,1920,1080,,,,,,,,,,,,,,,,,2,,,,,,,,,,,,,,,,,,,,,,,,,,,713.25215,97,left,0.859515,parrot      ,3,5,2,1,3,713.268895,713.268895,715.76834,0,19,19,19,1,97,3,1,parrot      ,phone       ,html/resources/sequences_IDs/B/05_parrot.jpg,html/resources/sequences_IDs/B/09_phone.jpg,5,9,2,1,4,2,4,7,0,42,,,,,,,,,,,,,,,,,,,,
,,,,,42,2020-07-03_17h24.28.377,retriever_ti,2020.1.3,Win32,60,Chrome,1920,1080,,,,,,,,,,,,,,,,,2,,,,,,,,,,,,,,,,,,,,,,,,,,,716.385195,98,right,1.061885,giraffe     ,7,3,4,1,3,716.40233,716.40233,718.901675,0,20,20,20,1,98,3,7,parrot      ,giraffe     ,html/resources/sequences_IDs/B/05_parrot.jpg,html/resources/sequences_IDs/B/03_giraffe.jpg,5,3,2,1,1,1,4,2,0,42,,,,,,,,,,,,,,,,,,,,
,,,,,42,2020-07-03_17h24.28.377,retriever_ti,2020.1.3,Win32,60,Chrome,1920,1080,,,,,,,,,,,,,,,,,2,,,,,,,,,,,,,,,,,,,,,,,,,,,719.51883,99,left,1.11779,seaturtle     ,8,2,1,1,1,719.552455,719.552455,722.05172,0,21,21,21,1,99,8,7,seaturtle     ,giraffe     ,html/resources/sequences_IDs/A/02_seaturtle.jpg,html/resources/sequences_IDs/B/03_giraffe.jpg,2,3,2,1,1,1,1,2,0,42,,,,,,,,,,,,,,,,,,,,
,,,,,42,2020-07-03_17h24.28.377,retriever_ti,2020.1.3,Win32,60,Chrome,1920,1080,,,,,,,,,,,,,,,,,2,,,,,,,,,,,,,,,,,,,,,,,,,,,723.152285,100,right,1.297595,parrot      ,3,5,-1,0,0,723.16925,723.16925,725.668445,0,22,22,22,1,100,4,3,clownfish     ,parrot      ,html/resources/sequences_IDs/A/04_clownfish.jpg,html/resources/sequences_IDs/B/05_parrot.jpg,4,5,2,1,2,1,3,4,0,42,,,,,,,,,,,,,,,,,,,,
,,,,,42,2020-07-03_17h24.28.377,retriever_ti,2020.1.3,Win32,60,Chrome,1920,1080,,,,,,,,,,,,,,,,,2,,,,,,,,,,,,,,,,,,,,,,,,,,,726.76867,101,left,1.03053,slipper     ,5,8,-3,0,3,726.785875,726.785875,729.28514,0,23,23,23,1,101,5,8,slipper     ,seaturtle     ,html/resources/sequences_IDs/B/08_slipper.jpg,html/resources/sequences_IDs/A/02_seaturtle.jpg,8,2,3,2,2,1,6,1,0,42,,,,,,,,,,,,,,,,,,,,
,,,,,42,2020-07-03_17h24.28.377,retriever_ti,2020.1.3,Win32,60,Chrome,1920,1080,,,,,,,,,,,,,,,,,2,,,,,,,,,,,,,,,,,,,,,,,,,,,729.902375,102,right,0.087335,giraffe     ,7,3,-1,0,1,729.91919,729.91919,732.41865,0,24,24,24,1,102,8,7,seaturtle     ,giraffe     ,html/resources/sequences_IDs/A/02_seaturtle.jpg,html/resources/sequences_IDs/B/03_giraffe.jpg,2,3,2,1,1,1,1,2,1,42,,,,,,,,,,,,,,,,,,,,
,,,,,42,2020-07-03_17h24.28.377,retriever_ti,2020.1.3,Win32,60,Chrome,1920,1080,,,,,,,,,,,,,,,,,2,,,,,,,,,,,,,,,,,,,,,,,,,,,733.51909,103,right,1.31002,slipper     ,5,8,1,1,1,733.53595,733.53595,736.035155,0,25,25,25,1,103,4,5,clownfish     ,slipper     ,html/resources/sequences_IDs/A/04_clownfish.jpg,html/resources/sequences_IDs/B/08_slipper.jpg,4,8,2,1,3,2,3,6,0,42,,,,,,,,,,,,,,,,,,,,
,,,,,42,2020-07-03_17h24.28.377,retriever_ti,2020.1.3,Win32,60,Chrome,1920,1080,,,,,,,,,,,,,,,,,2,,,,,,,,,,,,,,,,,,,,,,,,,,,737.13579,104,right,1.84479,slipper     ,5,8,-1,0,0,737.15265,737.15265,739.65186,0,26,26,26,1,104,6,5,dress         ,slipper     ,html/resources/sequences_IDs/A/07_dress.jpg,html/resources/sequences_IDs/B/08_slipper.jpg,7,8,3,2,3,2,5,6,0,42,,,,,,,,,,,,,,,,,,,,
,,,,,42,2020-07-03_17h24.28.377,retriever_ti,2020.1.3,Win32,60,Chrome,1920,1080,,,,,,,,,,,,,,,,,2,,,,,,,,,,,,,,,,,,,,,,,,,,,740.75217,105,right,1.231895,parrot      ,3,5,1,1,1,740.785965,740.785965,743.28531,0,27,27,27,1,105,2,3,satellite_dish,parrot      ,html/resources/sequences_IDs/A/10_satellite_dish.jpg,html/resources/sequences_IDs/B/05_parrot.jpg,10,5,4,2,2,1,8,4,0,42,,,,,,,,,,,,,,,,,,,,
,,,,,42,2020-07-03_17h24.28.377,retriever_ti,2020.1.3,Win32,60,Chrome,1920,1080,,,,,,,,,,,,,,,,,2,,,,,,,,,,,,,,,,,,,,,,,,,,,744.385865,106,right,1.161285,slipper     ,5,8,2,1,3,744.40268,744.40268,746.90206,0,28,28,28,1,106,3,5,parrot      ,slipper     ,html/resources/sequences_IDs/B/05_parrot.jpg,html/resources/sequences_IDs/B/08_slipper.jpg,5,8,2,1,3,2,4,6,0,42,,,,,,,,,,,,,,,,,,,,
,,,,,42,2020-07-03_17h24.28.377,retriever_ti,2020.1.3,Win32,60,Chrome,1920,1080,,,,,,,,,,,,,,,,,2,,,,,,,,,,,,,,,,,,,,,,,,,,,747.51926,107,left,2.05981,slipper     ,5,8,-1,0,0,747.53604,747.53604,750.035355,0,29,29,29,1,107,5,6,slipper     ,dress         ,html/resources/sequences_IDs/B/08_slipper.jpg,html/resources/sequences_IDs/A/07_dress.jpg,8,7,3,2,3,2,6,5,0,42,,,,,,,,,,,,,,,,,,,,
,,,,,42,2020-07-03_17h24.28.377,retriever_ti,2020.1.3,Win32,60,Chrome,1920,1080,,,,,,,,,,,,,,,,,2,,,,,,,,,,,,,,,,,,,,,,,,,,,751.13603,108,right,1.97395,phone       ,1,9,-4,0,3,751.16955,751.16955,753.668755,0,30,30,30,1,108,5,1,slipper     ,phone       ,html/resources/sequences_IDs/B/08_slipper.jpg,html/resources/sequences_IDs/B/09_phone.jpg,8,9,3,2,4,2,6,7,0,42,,,,,,,,,,,,,,,,,,,,
,,,,,42,2020-07-03_17h24.28.377,retriever_ti,2020.1.3,Win32,60,Chrome,1920,1080,,,,,,,,,,,,,,,,,2,,,,,,,,,,,,,,,,,,,,,,,,,,,754.285925,109,right,1.211645,parrot      ,3,5,2,1,3,754.30302,754.30302,756.80218,0,31,31,31,1,109,1,3,phone       ,parrot      ,html/resources/sequences_IDs/B/09_phone.jpg,html/resources/sequences_IDs/B/05_parrot.jpg,9,5,4,2,2,1,7,4,0,42,,,,,,,,,,,,,,,,,,,,
,,,,,42,2020-07-03_17h24.28.377,retriever_ti,2020.1.3,Win32,60,Chrome,1920,1080,,,,,,,,,,,,,,,,,2,,,,,,,,,,,,,,,,,,,,,,,,,,,757.419625,110,left,1.143705,parrot      ,3,5,1,1,0,757.436085,757.436085,759.935485,0,32,32,32,1,110,3,2,parrot      ,satellite_dish,html/resources/sequences_IDs/B/05_parrot.jpg,html/resources/sequences_IDs/A/10_satellite_dish.jpg,5,10,2,1,4,2,4,8,1,42,,,,,,,,,,,,,,,,,,,,
,,,,,42,2020-07-03_17h24.28.377,retriever_ti,2020.1.3,Win32,60,Chrome,1920,1080,,,,,,,,,,,,,,,,,2,,,,,,,,,,,,,,,,,,,,,,,,,,,761.036135,111,right,1.173695,clownfish     ,4,4,1,1,1,761.069545,761.069545,763.568935,0,33,33,33,1,111,3,4,parrot      ,clownfish     ,html/resources/sequences_IDs/B/05_parrot.jpg,html/resources/sequences_IDs/A/04_clownfish.jpg,5,4,2,1,2,1,4,3,0,42,,,,,,,,,,,,,,,,,,,,
,,,,,42,2020-07-03_17h24.28.377,retriever_ti,2020.1.3,Win32,60,Chrome,1920,1080,,,,,,,,,,,,,,,,,2,,,,,,,,,,,,,,,,,,,,,,,,,,,764.669155,112,right,1.03019,dress         ,6,7,4,1,3,764.703135,764.703135,767.202175,0,34,34,34,1,112,2,6,satellite_dish,dress         ,html/resources/sequences_IDs/A/10_satellite_dish.jpg,html/resources/sequences_IDs/A/07_dress.jpg,10,7,4,2,3,2,8,5,0,42,,,,,,,,,,,,,,,,,,,,
,,,,,42,2020-07-03_17h24.28.377,retriever_ti,2020.1.3,Win32,60,Chrome,1920,1080,,,,,,,,,,,,,,,,,2,,,,,,,,,,,,,,,,,,,,,,,,,,,767.819515,113,right,1.707115,satellite_dish,2,10,-1,0,0,767.836355,767.836355,770.335665,0,35,35,35,1,113,3,2,parrot      ,satellite_dish,html/resources/sequences_IDs/B/05_parrot.jpg,html/resources/sequences_IDs/A/10_satellite_dish.jpg,5,10,2,1,4,2,4,8,0,42,,,,,,,,,,,,,,,,,,,,
,,,,,42,2020-07-03_17h24.28.377,retriever_ti,2020.1.3,Win32,60,Chrome,1920,1080,,,,,,,,,,,,,,,,,2,,,,,,,,,,,,,,,,,,,,,,,,,,,771.43623,114,right,1.059315,clownfish     ,4,4,2,1,3,771.469915,771.469915,773.968965,0,36,36,36,1,114,2,4,satellite_dish,clownfish     ,html/resources/sequences_IDs/A/10_satellite_dish.jpg,html/resources/sequences_IDs/A/04_clownfish.jpg,10,4,4,2,2,1,8,3,0,42,,,,,,,,,,,,,,,,,,,,
,,,,,42,2020-07-03_17h24.28.377,retriever_ti,2020.1.3,Win32,60,Chrome,1920,1080,,,,,,,,,,,,,,,,,2,,,,,,,,,,,,,,,,,,,,,,,,,,,774.585795,115,right,1.80911,satellite_dish,2,10,1,1,1,774.60315,774.60315,777.102315,0,37,37,37,1,115,1,2,phone       ,satellite_dish,html/resources/sequences_IDs/B/09_phone.jpg,html/resources/sequences_IDs/A/10_satellite_dish.jpg,9,10,4,2,4,2,7,8,0,42,,,,,,,,,,,,,,,,,,,,
,,,,,42,2020-07-03_17h24.28.377,retriever_ti,2020.1.3,Win32,60,Chrome,1920,1080,,,,,,,,,,,,,,,,,2,,,,,,,,,,,,,,,,,,,,,,,,,,,778.203015,116,left,0.98417,seaturtle     ,8,2,7,1,3,778.21968,778.21968,780.719855,0,38,38,38,1,116,8,1,seaturtle     ,phone       ,html/resources/sequences_IDs/A/02_seaturtle.jpg,html/resources/sequences_IDs/B/09_phone.jpg,2,9,2,1,4,2,1,7,0,42,,,,,,,,,,,,,,,,,,,,
,,,,,42,2020-07-03_17h24.28.377,retriever_ti,2020.1.3,Win32,60,Chrome,1920,1080,,,,,,,,,,,,,,,,,2,,,,,,,,,,,,,,,,,,,,,,,,,,,781.33676,117,left,0.9888,dress         ,6,7,5,1,3,781.353235,781.353235,783.852485,0,39,39,39,1,117,6,1,dress         ,phone       ,html/resources/sequences_IDs/A/07_dress.jpg,html/resources/sequences_IDs/B/09_phone.jpg,7,9,3,2,4,2,5,7,0,42,,,,,,,,,,,,,,,,,,,,
,,,,,42,2020-07-03_17h24.28.377,retriever_ti,2020.1.3,Win32,60,Chrome,1920,1080,,,,,,,,,,,,,,,,,2,,,,,,,,,,,,,,,,,,,,,,,,,,,784.46945,118,left,1.651885,seaturtle     ,8,2,6,1,3,784.50344,784.50344,787.0025,0,40,40,40,1,118,8,2,seaturtle     ,satellite_dish,html/resources/sequences_IDs/A/02_seaturtle.jpg,html/resources/sequences_IDs/A/10_satellite_dish.jpg,2,10,2,1,4,2,1,8,0,42,,,,,,,,,,,,,,,,,,,,
,,,,,42,2020-07-03_17h24.28.377,retriever_ti,2020.1.3,Win32,60,Chrome,1920,1080,,,,,,,,,,,,,,,,,2,,,,,,,,,,,,,,,,,,,,,,,,,,,787.619745,119,left,1.792135,clownfish     ,4,4,1,1,1,787.65319,787.65319,790.15259,0,41,41,41,1,119,4,3,clownfish     ,parrot      ,html/resources/sequences_IDs/A/04_clownfish.jpg,html/resources/sequences_IDs/B/05_parrot.jpg,4,5,2,1,2,1,3,4,0,42,,,,,,,,,,,,,,,,,,,,
,,,,,42,2020-07-03_17h24.28.377,retriever_ti,2020.1.3,Win32,60,Chrome,1920,1080,,,,,,,,,,,,,,,,,2,,,,,,,,,,,,,,,,,,,,,,,,,,,791.25309,120,left,1.22052,dress         ,6,7,-2,0,3,791.286735,791.286735,793.785845,0,42,42,42,1,120,6,8,dress         ,seaturtle     ,html/resources/sequences_IDs/A/07_dress.jpg,html/resources/sequences_IDs/A/02_seaturtle.jpg,7,2,3,2,2,1,5,1,0,42,,,,,,,,,,,,,,,,,,,,
,,,,,42,2020-07-03_17h24.28.377,retriever_ti,2020.1.3,Win32,60,Chrome,1920,1080,,,,,,,,,,,,,,,,,2,,,,,,,,,,,,,,,,,,,,,,,,,,,794.38618,121,left,1.474625,dress         ,6,7,3,1,3,794.403365,794.403365,796.902575,0,43,43,43,1,121,6,3,dress         ,parrot      ,html/resources/sequences_IDs/A/07_dress.jpg,html/resources/sequences_IDs/B/05_parrot.jpg,7,5,3,2,2,1,5,4,0,42,,,,,,,,,,,,,,,,,,,,
,,,,,42,2020-07-03_17h24.28.377,retriever_ti,2020.1.3,Win32,60,Chrome,1920,1080,,,,,,,,,,,,,,,,,2,,,,,,,,,,,,,,,,,,,,,,,,,,,797.51997,122,left,1.92936,seaturtle     ,8,2,5,1,3,797.53677,797.53677,800.036,0,44,44,44,1,122,8,3,seaturtle     ,parrot      ,html/resources/sequences_IDs/A/02_seaturtle.jpg,html/resources/sequences_IDs/B/05_parrot.jpg,2,5,2,1,2,1,1,4,0,42,,,,,,,,,,,,,,,,,,,,
,,,,,42,2020-07-03_17h24.28.377,retriever_ti,2020.1.3,Win32,60,Chrome,1920,1080,,,,,,,,,,,,,,,,,2,,,,,,,,,,,,,,,,,,,,,,,,,,,800.652955,123,left,1.840455,giraffe     ,7,3,5,1,3,800.67005,800.67005,803.16937,0,45,45,45,1,123,7,2,giraffe     ,satellite_dish,html/resources/sequences_IDs/B/03_giraffe.jpg,html/resources/sequences_IDs/A/10_satellite_dish.jpg,3,10,1,1,4,2,2,8,0,42,,,,,,,,,,,,,,,,,,,,
,,,,,42,2020-07-03_17h24.28.377,retriever_ti,2020.1.3,Win32,60,Chrome,1920,1080,,,,,,,,,,,,,,,,,2,,,,,,,,,,,,,,,,,,,,,,,,,,,803.78702,124,left,1.971735,seaturtle     ,8,2,4,1,3,803.820225,803.820225,806.3194,0,46,46,46,1,124,8,4,seaturtle     ,clownfish     ,html/resources/sequences_IDs/A/02_seaturtle.jpg,html/resources/sequences_IDs/A/04_clownfish.jpg,2,4,2,1,2,1,1,3,0,42,,,,,,,,,,,,,,,,,,,,
,,,,,42,2020-07-03_17h24.28.377,retriever_ti,2020.1.3,Win32,60,Chrome,1920,1080,,,,,,,,,,,,,,,,,2,,,,,,,,,,,,,,,,,,,,,,,,,,,806.936575,125,right,2.06899,seaturtle     ,8,2,6,1,3,806.953595,806.953595,809.452745,0,47,47,47,1,125,2,8,satellite_dish,seaturtle     ,html/resources/sequences_IDs/A/10_satellite_dish.jpg,html/resources/sequences_IDs/A/02_seaturtle.jpg,10,2,4,2,2,1,8,1,0,42,,,,,,,,,,,,,,,,,,,,
,,,,,42,2020-07-03_17h24.28.377,retriever_ti,2020.1.3,Win32,60,Chrome,1920,1080,,,,,,,,,,,,,,,,,2,,,,,,,,,,,,,,,,,,,,,,,,,,,810.06973,126,left,1.338005,giraffe     ,7,3,3,1,3,810.08696,810.08696,812.586205,0,48,48,48,1,126,7,4,giraffe     ,clownfish     ,html/resources/sequences_IDs/B/03_giraffe.jpg,html/resources/sequences_IDs/A/04_clownfish.jpg,3,4,1,1,2,1,2,3,0,42,,,,,,,,,,,,,,,,,,,,
,,,,,42,2020-07-03_17h24.28.377,retriever_ti,2020.1.3,Win32,60,Chrome,1920,1080,,,,,,,,,,,,,,,,,2,,,,,,,,,,,,,,,,,,,,,,,,,,,813.203435,127,right,1.733025,dress         ,6,7,-1,0,1,813.237,813.237,815.73616,0,49,49,49,1,127,7,6,giraffe     ,dress         ,html/resources/sequences_IDs/B/03_giraffe.jpg,html/resources/sequences_IDs/A/07_dress.jpg,3,7,1,1,3,2,2,5,1,42,,,,,,,,,,,,,,,,,,,,
,,,,,42,2020-07-03_17h24.28.377,retriever_ti,2020.1.3,Win32,60,Chrome,1920,1080,,,,,,,,,,,,,,,,,2,,,,,,,,,,,,,,,,,,,,,,,,,,,816.836495,128,left,1.225095,parrot      ,3,5,-1,0,0,816.855125,816.855125,819.352865,0,50,50,50,1,128,3,4,parrot      ,clownfish     ,html/resources/sequences_IDs/B/05_parrot.jpg,html/resources/sequences_IDs/A/04_clownfish.jpg,5,4,2,1,2,1,4,3,0,42,,,,,,,,,,,,,,,,,,,,
,,,,,42,2020-07-03_17h24.28.377,retriever_ti,2020.1.3,Win32,60,Chrome,1920,1080,,,,,,,,,,,,,,,,,2,,,,,,,,,,,,,,,,,,,,,,,,,,,820.45346,129,left,1.226055,slipper     ,5,8,1,1,1,820.48707,820.48707,822.98626,0,51,51,51,1,129,5,4,slipper     ,clownfish     ,html/resources/sequences_IDs/B/08_slipper.jpg,html/resources/sequences_IDs/A/04_clownfish.jpg,8,4,3,2,2,1,6,3,0,42,,,,,,,,,,,,,,,,,,,,
,,,,,42,2020-07-03_17h24.28.377,retriever_ti,2020.1.3,Win32,60,Chrome,1920,1080,,,,,,,,,,,,,,,,,2,,,,,,,,,,,,,,,,,,,,,,,,,,,824.086855,130,left,1.12265,giraffe     ,7,3,2,1,3,824.103745,824.103745,826.603105,0,52,52,52,1,130,7,5,giraffe     ,slipper     ,html/resources/sequences_IDs/B/03_giraffe.jpg,html/resources/sequences_IDs/B/08_slipper.jpg,3,8,1,1,3,2,2,6,0,42,,,,,,,,,,,,,,,,,,,,
,,,,,42,2020-07-03_17h24.28.377,retriever_ti,2020.1.3,Win32,60,Chrome,1920,1080,,,,,,,,,,,,,,,,,2,,,,,,,,,,,,,,,,,,,,,,,,,,,827.220215,131,left,1.444645,slipper     ,5,8,2,1,3,827.254195,827.254195,829.753005,0,53,53,53,1,131,5,3,slipper     ,parrot      ,html/resources/sequences_IDs/B/08_slipper.jpg,html/resources/sequences_IDs/B/05_parrot.jpg,8,5,3,2,2,1,6,4,0,42,,,,,,,,,,,,,,,,,,,,
,,,,,42,2020-07-03_17h24.28.377,retriever_ti,2020.1.3,Win32,60,Chrome,1920,1080,,,,,,,,,,,,,,,,,2,,,,,,,,,,,,,,,,,,,,,,,,,,,830.36998,132,right,1.27836,slipper     ,5,8,1,1,0,830.38703,830.38703,832.886405,0,54,54,54,1,132,4,5,clownfish     ,slipper     ,html/resources/sequences_IDs/A/04_clownfish.jpg,html/resources/sequences_IDs/B/08_slipper.jpg,4,8,2,1,3,2,3,6,1,42,,,,,,,,,,,,,,,,,,,,
,,,,,42,2020-07-03_17h24.28.377,retriever_ti,2020.1.3,Win32,60,Chrome,1920,1080,,,,,,,,,,,,,,,,,2,,,,,,,,,,,,,,,,,,,,,,,,,,,833.986945,133,left,1.18662,clownfish     ,4,4,-1,0,0,834.00384,834.00384,836.503085,0,55,55,55,1,133,4,5,clownfish     ,slipper     ,html/resources/sequences_IDs/A/04_clownfish.jpg,html/resources/sequences_IDs/B/08_slipper.jpg,4,8,2,1,3,2,3,6,0,42,,,,,,,,,,,,,,,,,,,,
,,,,,42,2020-07-03_17h24.28.377,retriever_ti,2020.1.3,Win32,60,Chrome,1920,1080,,,,,,,,,,,,,,,,,2,,,,,,,,,,,,,,,,,,,,,,,,,,,837.603605,134,NaN,NaN,No_response,NaN,NaN,NaN,2,2,837.620525,837.620525,840.119835,0,56,56,56,1,134,8,6,seaturtle     ,dress         ,html/resources/sequences_IDs/A/02_seaturtle.jpg,html/resources/sequences_IDs/A/07_dress.jpg,2,7,2,1,3,2,1,5,0,42,,,,,,,,,,,,,,,,,,,,
,,,,,42,2020-07-03_17h24.28.377,retriever_ti,2020.1.3,Win32,60,Chrome,1920,1080,,,,,,,,,,,,,,,,,2,,,,,,,,,,,,,,,,,,,,,,,,,,,841.220405,135,right,1.136615,seaturtle     ,8,2,4,1,3,841.25395,841.25395,843.75312,0,57,57,57,1,135,4,8,clownfish     ,seaturtle     ,html/resources/sequences_IDs/A/04_clownfish.jpg,html/resources/sequences_IDs/A/02_seaturtle.jpg,4,2,2,1,2,1,3,1,0,42,,,,,,,,,,,,,,,,,,,,
,,,,,42,2020-07-03_17h24.28.377,retriever_ti,2020.1.3,Win32,60,Chrome,1920,1080,,,,,,,,,,,,,,,,,2,,,,,,,,,,,,,,,,,,,,,,,,,,,844.370185,136,right,1.551445,dress         ,6,7,-1,0,0,844.387225,844.387225,846.88661,0,58,58,58,1,136,7,6,giraffe     ,dress         ,html/resources/sequences_IDs/B/03_giraffe.jpg,html/resources/sequences_IDs/A/07_dress.jpg,3,7,1,1,3,2,2,5,0,42,,,,,,,,,,,,,,,,,,,,
,,,,,42,2020-07-03_17h24.28.377,retriever_ti,2020.1.3,Win32,60,Chrome,1920,1080,,,,,,,,,,,,,,,,,2,,,,,,,,,,,,,,,,,,,,,,,,,,,847.98723,137,left,1.252115,giraffe     ,7,3,-1,0,0,848.020645,848.020645,850.51993,0,59,59,59,1,137,7,8,giraffe     ,seaturtle     ,html/resources/sequences_IDs/B/03_giraffe.jpg,html/resources/sequences_IDs/A/02_seaturtle.jpg,3,2,1,1,2,1,2,1,0,42,,,,,,,,,,,,,,,,,,,,
,,,,,42,2020-07-03_17h24.28.377,retriever_ti,2020.1.3,Win32,60,Chrome,1920,1080,,,,,,,,,,,,,,,,,2,,,,,,,,,,,,,,,,,,,,,,,,,,,851.62052,138,left,1.130275,dress         ,6,7,2,1,3,851.637345,851.637345,854.136535,0,60,60,60,1,138,6,4,dress         ,clownfish     ,html/resources/sequences_IDs/A/07_dress.jpg,html/resources/sequences_IDs/A/04_clownfish.jpg,7,4,3,2,2,1,5,3,0,42,,,,,,,,,,,,,,,,,,,,
,,,,,42,2020-07-03_17h24.28.377,retriever_ti,2020.1.3,Win32,60,Chrome,1920,1080,,,,,,,,,,,,,,,,,2,,,,,,,,,,,,,,,,,,,,,,,,,,,854.73697,139,left,1.199995,dress         ,6,7,-1,0,0,854.754035,854.754035,857.253295,0,61,61,61,1,139,6,7,dress         ,giraffe     ,html/resources/sequences_IDs/A/07_dress.jpg,html/resources/sequences_IDs/B/03_giraffe.jpg,7,3,3,2,1,1,5,2,0,42,,,,,,,,,,,,,,,,,,,,
,,,,,42,2020-07-03_17h24.28.377,retriever_ti,2020.1.3,Win32,60,Chrome,1920,1080,,,,,,,,,,,,,,,,,2,,,,,,,,,,,,,,,,,,,,,,,,,,,858.353935,140,left,1.477565,satellite_dish,2,10,1,1,1,858.387535,858.387535,860.88673,0,62,62,62,1,140,2,1,satellite_dish,phone       ,html/resources/sequences_IDs/A/10_satellite_dish.jpg,html/resources/sequences_IDs/B/09_phone.jpg,10,9,4,2,4,2,8,7,0,42,,,,,,,,,,,,,,,,,,,,
,,,,,42,2020-07-03_17h24.28.377,retriever_ti,2020.1.3,Win32,60,Chrome,1920,1080,,,,,,,,,,,,,,,,,2,,,,,,,,,,,,,,,,,,,,,,,,,,,861.98739,141,left,0.6501,satellite_dish,2,10,1,1,1,862.02083,862.02083,864.52011,0,63,63,63,1,141,2,1,satellite_dish,phone       ,html/resources/sequences_IDs/A/10_satellite_dish.jpg,html/resources/sequences_IDs/B/09_phone.jpg,10,9,4,2,4,2,8,7,0,42,,,,,,,,,,,,,,,,,,,,
,,,,,42,2020-07-03_17h24.28.377,retriever_ti,2020.1.3,Win32,60,Chrome,1920,1080,,,,,,,,,,,,,,,,,2,,,,,,,,,,,,,,,,,,,,,,,,,,,865.62066,142,right,1.20902,slipper     ,5,8,-3,0,3,865.63756,865.63756,868.136925,0,64,64,64,1,142,8,5,seaturtle     ,slipper     ,html/resources/sequences_IDs/A/02_seaturtle.jpg,html/resources/sequences_IDs/B/08_slipper.jpg,2,8,2,1,3,2,1,6,0,42,,,,,,,,,,,,,,,,,,,,
,,,,,42,2020-07-03_17h24.28.377,retriever_ti,2020.1.3,Win32,60,Chrome,1920,1080,,,,,,,,,,,,,,,,,2,,,,,,,,,,,,,,,,,,,,,,,,,,,868.753735,143,right,1.28324,dress         ,6,7,5,1,3,868.772185,868.772185,871.270185,0,65,65,65,1,143,1,6,phone       ,dress         ,html/resources/sequences_IDs/B/09_phone.jpg,html/resources/sequences_IDs/A/07_dress.jpg,9,7,4,2,3,2,7,5,0,42,,,,,,,,,,,,,,,,,,,,
,,,,,42,2020-07-03_17h24.28.377,retriever_ti,2020.1.3,Win32,60,Chrome,1920,1080,,,,,,,,,,,,,,,,,2,,,,,,,,,,,,,,,,,,,,,,,,,,,871.887485,144,left,1.57124,slipper     ,5,8,1,1,1,871.90433,871.90433,874.403615,0,66,66,66,1,144,5,4,slipper     ,clownfish     ,html/resources/sequences_IDs/B/08_slipper.jpg,html/resources/sequences_IDs/A/04_clownfish.jpg,8,4,3,2,2,1,6,3,0,42,,,,,,,,,,,,,,,,,,,,
,,,,,42,2020-07-03_17h24.28.377,retriever_ti,2020.1.3,Win32,60,Chrome,1920,1080,,,,,,,,,,,,,,,,,2,,,,,,,,,,,,,,,,,,,,,,,,,,,875.50436,145,left,1.05569,clownfish     ,4,4,3,1,3,875.52101,875.52101,878.02021,0,67,67,67,1,145,4,1,clownfish     ,phone       ,html/resources/sequences_IDs/A/04_clownfish.jpg,html/resources/sequences_IDs/B/09_phone.jpg,4,9,2,1,4,2,3,7,0,42,,,,,,,,,,,,,,,,,,,,
,,,,,42,2020-07-03_17h24.28.377,retriever_ti,2020.1.3,Win32,60,Chrome,1920,1080,,,,,,,,,,,,,,,,,2,,,,,,,,,,,,,,,,,,,,,,,,,,,878.63717,146,left,1.23461,dress         ,6,7,1,1,0,878.671105,878.671105,881.17029,0,68,68,68,1,146,6,5,dress         ,slipper     ,html/resources/sequences_IDs/A/07_dress.jpg,html/resources/sequences_IDs/B/08_slipper.jpg,7,8,3,2,3,2,5,6,1,42,,,,,,,,,,,,,,,,,,,,
,,,,,42,2020-07-03_17h24.28.377,retriever_ti,2020.1.3,Win32,60,Chrome,1920,1080,,,,,,,,,,,,,,,,,2,,,,,,,,,,,,,,,,,,,,,,,,,,,882.270875,147,right,1.722,slipper     ,5,8,4,1,3,882.288175,882.288175,884.786965,0,69,69,69,1,147,1,5,phone       ,slipper     ,html/resources/sequences_IDs/B/09_phone.jpg,html/resources/sequences_IDs/B/08_slipper.jpg,9,8,4,2,3,2,7,6,0,42,,,,,,,,,,,,,,,,,,,,
,,,,,42,2020-07-03_17h24.28.377,retriever_ti,2020.1.3,Win32,60,Chrome,1920,1080,,,,,,,,,,,,,,,,,2,,,,,,,,,,,,,,,,,,,,,,,,,,,885.40444,148,left,1.10714,dress         ,6,7,-1,0,0,885.437825,885.437825,887.936975,0,70,70,70,1,148,6,7,dress         ,giraffe     ,html/resources/sequences_IDs/A/07_dress.jpg,html/resources/sequences_IDs/B/03_giraffe.jpg,7,3,3,2,1,1,5,2,0,42,,,,,,,,,,,,,,,,,,,,
,,,,,42,2020-07-03_17h24.28.377,retriever_ti,2020.1.3,Win32,60,Chrome,1920,1080,,,,,,,,,,,,,,,,,2,,,,,,,,,,,,,,,,,,,,,,,,,,,889.03762,149,left,1.87084,giraffe     ,7,3,1,1,1,889.071055,889.071055,891.5705,0,71,71,71,1,149,7,6,giraffe     ,dress         ,html/resources/sequences_IDs/B/03_giraffe.jpg,html/resources/sequences_IDs/A/07_dress.jpg,3,7,1,1,3,2,2,5,0,42,,,,,,,,,,,,,,,,,,,,
,,,,,42,2020-07-03_17h24.28.377,retriever_ti,2020.1.3,Win32,60,Chrome,1920,1080,,,,,,,,,,,,,,,,,2,,,,,,,,,,,,,,,,,,,,,,,,,,,892.67065,150,left,1.222995,dress         ,6,7,4,1,3,892.704535,892.704535,895.20382,0,72,72,72,1,150,6,2,dress         ,satellite_dish,html/resources/sequences_IDs/A/07_dress.jpg,html/resources/sequences_IDs/A/10_satellite_dish.jpg,7,10,3,2,4,2,5,8,0,42,,,,,,,,,,,,,,,,,,,,
,,,,,42,2020-07-03_17h24.28.377,retriever_ti,2020.1.3,Win32,60,Chrome,1920,1080,,,,,,,,,,,,,,,,,2,,,,,,,,,,,,,,,,,,,,,,,,,,,895.82107,151,right,1.112605,clownfish     ,4,4,3,1,3,895.83791,895.83791,898.337435,0,73,73,73,1,151,1,4,phone       ,clownfish     ,html/resources/sequences_IDs/B/09_phone.jpg,html/resources/sequences_IDs/A/04_clownfish.jpg,9,4,4,2,2,1,7,3,0,42,,,,,,,,,,,,,,,,,,,,
,,,,,42,2020-07-03_17h24.28.377,retriever_ti,2020.1.3,Win32,60,Chrome,1920,1080,,,,,,,,,,,,,,,,,2,,,,,,,,,,,,,,,,,,,,,,,,,,,898.954425,152,left,1.74171,dress         ,6,7,1,1,1,898.971145,898.971145,901.470525,0,74,74,74,1,152,6,5,dress         ,slipper     ,html/resources/sequences_IDs/A/07_dress.jpg,html/resources/sequences_IDs/B/08_slipper.jpg,7,8,3,2,3,2,5,6,0,42,,,,,,,,,,,,,,,,,,,,
,,,,,42,2020-07-03_17h24.28.377,retriever_ti,2020.1.3,Win32,60,Chrome,1920,1080,,,,,,,,,,,,,,,,,2,,,,,,,,,,,,,,,,,,,,,,,,,,,902.57086,153,right,1.273805,seaturtle     ,8,2,1,1,1,902.58793,902.58793,905.0873,0,75,75,75,1,153,7,8,giraffe     ,seaturtle     ,html/resources/sequences_IDs/B/03_giraffe.jpg,html/resources/sequences_IDs/A/02_seaturtle.jpg,3,2,1,1,2,1,2,1,0,42,,,,,,,,,,,,,,,,,,,,
,,,,,42,2020-07-03_17h24.28.377,retriever_ti,2020.1.3,Win32,60,Chrome,1920,1080,,,,,,,,,,,,,,,,,2,,,,,,,,,,,,,,,,,,,,,,,,,,,906.18773,154,left,1.023785,clownfish     ,4,4,-3,0,3,906.221445,906.221445,908.720675,0,76,76,76,1,154,4,7,clownfish     ,giraffe     ,html/resources/sequences_IDs/A/04_clownfish.jpg,html/resources/sequences_IDs/B/03_giraffe.jpg,4,3,2,1,1,1,3,2,0,42,,,,,,,,,,,,,,,,,,,,
,,,,,42,2020-07-03_17h24.28.377,retriever_ti,2020.1.3,Win32,60,Chrome,1920,1080,,,,,,,,,,,,,,,,,,,,,,,,,,,,,,,,,,,,,0,1.56026,,,,,,,,,,,,,,,,,,,,,,,,,,,,,,,,,,,,,,,,,1,0,1,0,1,,,,,,,,,,,,,,,
,,,,,42,2020-07-03_17h24.28.377,retriever_ti,2020.1.3,Win32,60,Chrome,1920,1080,,,,,,,,,,,,,,,,,3,,,,,,,,,,,,,,,,,,,,,,,,,,,918.975035,155,left,0.74219,seaturtle     ,8,2,1,1,1,918.988605,918.988605,921.487475,0,0,0,0,1,155,8,7,seaturtle     ,giraffe     ,html/resources/sequences_IDs/A/02_seaturtle.jpg,html/resources/sequences_IDs/B/03_giraffe.jpg,2,3,2,1,1,1,1,2,0,42,,,,,,,,,,,,,,,,,,,,
,,,,,42,2020-07-03_17h24.28.377,retriever_ti,2020.1.3,Win32,60,Chrome,1920,1080,,,,,,,,,,,,,,,,,3,,,,,,,,,,,,,,,,,,,,,,,,,,,922.588075,156,left,1.384865,seaturtle     ,8,2,4,1,3,922.62177,922.62177,925.12084,0,1,1,1,1,156,8,4,seaturtle     ,clownfish     ,html/resources/sequences_IDs/A/02_seaturtle.jpg,html/resources/sequences_IDs/A/04_clownfish.jpg,2,4,2,1,2,1,1,3,0,42,,,,,,,,,,,,,,,,,,,,
,,,,,42,2020-07-03_17h24.28.377,retriever_ti,2020.1.3,Win32,60,Chrome,1920,1080,,,,,,,,,,,,,,,,,3,,,,,,,,,,,,,,,,,,,,,,,,,,,925.738015,157,left,1.31927,slipper     ,5,8,2,1,3,925.75489,925.75489,928.25424,0,2,2,2,1,157,5,3,slipper     ,parrot      ,html/resources/sequences_IDs/B/08_slipper.jpg,html/resources/sequences_IDs/B/05_parrot.jpg,8,5,3,2,2,1,6,4,0,42,,,,,,,,,,,,,,,,,,,,
,,,,,42,2020-07-03_17h24.28.377,retriever_ti,2020.1.3,Win32,60,Chrome,1920,1080,,,,,,,,,,,,,,,,,3,,,,,,,,,,,,,,,,,,,,,,,,,,,928.871145,158,right,1.915385,giraffe     ,7,3,1,1,0,928.888305,928.888305,931.387575,0,3,3,3,1,158,6,7,dress         ,giraffe     ,html/resources/sequences_IDs/A/07_dress.jpg,html/resources/sequences_IDs/B/03_giraffe.jpg,7,3,3,2,1,1,5,2,1,42,,,,,,,,,,,,,,,,,,,,
,,,,,42,2020-07-03_17h24.28.377,retriever_ti,2020.1.3,Win32,60,Chrome,1920,1080,,,,,,,,,,,,,,,,,3,,,,,,,,,,,,,,,,,,,,,,,,,,,932.48821,159,left,1.36867,parrot      ,3,5,-1,0,1,932.522945,932.522945,935.021005,0,4,4,4,1,159,3,4,parrot      ,clownfish     ,html/resources/sequences_IDs/B/05_parrot.jpg,html/resources/sequences_IDs/A/04_clownfish.jpg,5,4,2,1,2,1,4,3,1,42,,,,,,,,,,,,,,,,,,,,
,,,,,42,2020-07-03_17h24.28.377,retriever_ti,2020.1.3,Win32,60,Chrome,1920,1080,,,,,,,,,,,,,,,,,3,,,,,,,,,,,,,,,,,,,,,,,,,,,936.121595,160,left,1.067105,giraffe     ,7,3,6,1,3,936.13843,936.13843,938.63768,0,5,5,5,1,160,7,1,giraffe     ,phone       ,html/resources/sequences_IDs/B/03_giraffe.jpg,html/resources/sequences_IDs/B/09_phone.jpg,3,9,1,1,4,2,2,7,0,42,,,,,,,,,,,,,,,,,,,,
,,,,,42,2020-07-03_17h24.28.377,retriever_ti,2020.1.3,Win32,60,Chrome,1920,1080,,,,,,,,,,,,,,,,,3,,,,,,,,,,,,,,,,,,,,,,,,,,,939.25481,161,left,1.65413,dress         ,6,7,-2,0,3,939.288465,939.288465,941.787705,0,6,6,6,1,161,6,8,dress         ,seaturtle     ,html/resources/sequences_IDs/A/07_dress.jpg,html/resources/sequences_IDs/A/02_seaturtle.jpg,7,2,3,2,2,1,5,1,0,42,,,,,,,,,,,,,,,,,,,,
,,,,,42,2020-07-03_17h24.28.377,retriever_ti,2020.1.3,Win32,60,Chrome,1920,1080,,,,,,,,,,,,,,,,,3,,,,,,,,,,,,,,,,,,,,,,,,,,,942.404655,162,right,1.979605,seaturtle     ,8,2,1,1,0,942.42186,942.42186,944.921185,0,7,7,7,1,162,7,8,giraffe     ,seaturtle     ,html/resources/sequences_IDs/B/03_giraffe.jpg,html/resources/sequences_IDs/A/02_seaturtle.jpg,3,2,1,1,2,1,2,1,1,42,,,,,,,,,,,,,,,,,,,,
,,,,,42,2020-07-03_17h24.28.377,retriever_ti,2020.1.3,Win32,60,Chrome,1920,1080,,,,,,,,,,,,,,,,,3,,,,,,,,,,,,,,,,,,,,,,,,,,,946.02168,163,right,0.952525,parrot      ,3,5,2,1,3,946.03851,946.03851,948.53782,0,8,8,8,1,163,1,3,phone       ,parrot      ,html/resources/sequences_IDs/B/09_phone.jpg,html/resources/sequences_IDs/B/05_parrot.jpg,9,5,4,2,2,1,7,4,0,42,,,,,,,,,,,,,,,,,,,,
,,,,,42,2020-07-03_17h24.28.377,retriever_ti,2020.1.3,Win32,60,Chrome,1920,1080,,,,,,,,,,,,,,,,,3,,,,,,,,,,,,,,,,,,,,,,,,,,,949.15468,164,left,1.06282,seaturtle     ,8,2,1,1,1,949.171945,949.171945,951.671175,0,9,9,9,1,164,8,7,seaturtle     ,giraffe     ,html/resources/sequences_IDs/A/02_seaturtle.jpg,html/resources/sequences_IDs/B/03_giraffe.jpg,2,3,2,1,1,1,1,2,0,42,,,,,,,,,,,,,,,,,,,,
,,,,,42,2020-07-03_17h24.28.377,retriever_ti,2020.1.3,Win32,60,Chrome,1920,1080,,,,,,,,,,,,,,,,,3,,,,,,,,,,,,,,,,,,,,,,,,,,,952.77191,165,left,1.30002,parrot      ,3,5,-1,0,0,952.78863,952.78863,955.287875,0,10,10,10,1,165,3,4,parrot      ,clownfish     ,html/resources/sequences_IDs/B/05_parrot.jpg,html/resources/sequences_IDs/A/04_clownfish.jpg,5,4,2,1,2,1,4,3,0,42,,,,,,,,,,,,,,,,,,,,
,,,,,42,2020-07-03_17h24.28.377,retriever_ti,2020.1.3,Win32,60,Chrome,1920,1080,,,,,,,,,,,,,,,,,3,,,,,,,,,,,,,,,,,,,,,,,,,,,956.388455,166,right,1.559795,parrot      ,3,5,1,1,1,956.4221,956.4221,958.921335,0,11,11,11,1,166,2,3,satellite_dish,parrot      ,html/resources/sequences_IDs/A/10_satellite_dish.jpg,html/resources/sequences_IDs/B/05_parrot.jpg,10,5,4,2,2,1,8,4,0,42,,,,,,,,,,,,,,,,,,,,
,,,,,42,2020-07-03_17h24.28.377,retriever_ti,2020.1.3,Win32,60,Chrome,1920,1080,,,,,,,,,,,,,,,,,3,,,,,,,,,,,,,,,,,,,,,,,,,,,960.0219,167,left,1.218375,giraffe     ,7,3,3,1,3,960.055485,960.055485,962.554625,0,12,12,12,1,167,7,4,giraffe     ,clownfish     ,html/resources/sequences_IDs/B/03_giraffe.jpg,html/resources/sequences_IDs/A/04_clownfish.jpg,3,4,1,1,2,1,2,3,0,42,,,,,,,,,,,,,,,,,,,,
,,,,,42,2020-07-03_17h24.28.377,retriever_ti,2020.1.3,Win32,60,Chrome,1920,1080,,,,,,,,,,,,,,,,,3,,,,,,,,,,,,,,,,,,,,,,,,,,,963.171595,168,left,1.45402,slipper     ,5,8,-2,0,3,963.2054,963.2054,965.704645,0,13,13,13,1,168,5,7,slipper     ,giraffe     ,html/resources/sequences_IDs/B/08_slipper.jpg,html/resources/sequences_IDs/B/03_giraffe.jpg,8,3,3,2,1,1,6,2,0,42,,,,,,,,,,,,,,,,,,,,
,,,,,42,2020-07-03_17h24.28.377,retriever_ti,2020.1.3,Win32,60,Chrome,1920,1080,,,,,,,,,,,,,,,,,3,,,,,,,,,,,,,,,,,,,,,,,,,,,966.32192,169,right,1.10229,slipper     ,5,8,1,1,1,966.338815,966.338815,968.838065,0,14,14,14,1,169,4,5,clownfish     ,slipper     ,html/resources/sequences_IDs/A/04_clownfish.jpg,html/resources/sequences_IDs/B/08_slipper.jpg,4,8,2,1,3,2,3,6,0,42,,,,,,,,,,,,,,,,,,,,
,,,,,42,2020-07-03_17h24.28.377,retriever_ti,2020.1.3,Win32,60,Chrome,1920,1080,,,,,,,,,,,,,,,,,3,,,,,,,,,,,,,,,,,,,,,,,,,,,969.938595,170,left,1.781195,dress         ,6,7,3,1,3,969.95559,969.95559,972.454785,0,15,15,15,1,170,6,3,dress         ,parrot      ,html/resources/sequences_IDs/A/07_dress.jpg,html/resources/sequences_IDs/B/05_parrot.jpg,7,5,3,2,2,1,5,4,0,42,,,,,,,,,,,,,,,,,,,,
,,,,,42,2020-07-03_17h24.28.377,retriever_ti,2020.1.3,Win32,60,Chrome,1920,1080,,,,,,,,,,,,,,,,,3,,,,,,,,,,,,,,,,,,,,,,,,,,,973.072,171,left,1.42788,slipper     ,5,8,-1,0,0,973.10561,973.10561,975.6048,0,16,16,16,1,171,5,6,slipper     ,dress         ,html/resources/sequences_IDs/B/08_slipper.jpg,html/resources/sequences_IDs/A/07_dress.jpg,8,7,3,2,3,2,6,5,0,42,,,,,,,,,,,,,,,,,,,,
,,,,,42,2020-07-03_17h24.28.377,retriever_ti,2020.1.3,Win32,60,Chrome,1920,1080,,,,,,,,,,,,,,,,,3,,,,,,,,,,,,,,,,,,,,,,,,,,,976.705425,172,left,1.1277,parrot      ,3,5,1,1,1,976.738865,976.738865,979.23817,0,17,17,17,1,172,3,2,parrot      ,satellite_dish,html/resources/sequences_IDs/B/05_parrot.jpg,html/resources/sequences_IDs/A/10_satellite_dish.jpg,5,10,2,1,4,2,4,8,0,42,,,,,,,,,,,,,,,,,,,,
,,,,,42,2020-07-03_17h24.28.377,retriever_ti,2020.1.3,Win32,60,Chrome,1920,1080,,,,,,,,,,,,,,,,,3,,,,,,,,,,,,,,,,,,,,,,,,,,,980.33885,173,left,1.804535,clownfish     ,4,4,2,1,3,980.372315,980.372315,982.87149,0,18,18,18,1,173,4,2,clownfish     ,satellite_dish,html/resources/sequences_IDs/A/04_clownfish.jpg,html/resources/sequences_IDs/A/10_satellite_dish.jpg,4,10,2,1,4,2,3,8,0,42,,,,,,,,,,,,,,,,,,,,
,,,,,42,2020-07-03_17h24.28.377,retriever_ti,2020.1.3,Win32,60,Chrome,1920,1080,,,,,,,,,,,,,,,,,3,,,,,,,,,,,,,,,,,,,,,,,,,,,983.489575,174,right,1.14268,parrot      ,3,5,1,1,1,983.522275,983.522275,986.021595,0,19,19,19,1,174,2,3,satellite_dish,parrot      ,html/resources/sequences_IDs/A/10_satellite_dish.jpg,html/resources/sequences_IDs/B/05_parrot.jpg,10,5,4,2,2,1,8,4,0,42,,,,,,,,,,,,,,,,,,,,
,,,,,42,2020-07-03_17h24.28.377,retriever_ti,2020.1.3,Win32,60,Chrome,1920,1080,,,,,,,,,,,,,,,,,3,,,,,,,,,,,,,,,,,,,,,,,,,,,987.12183,175,right,0.942905,dress         ,6,7,4,1,3,987.15582,987.15582,989.65494,0,20,20,20,1,175,2,6,satellite_dish,dress         ,html/resources/sequences_IDs/A/10_satellite_dish.jpg,html/resources/sequences_IDs/A/07_dress.jpg,10,7,4,2,3,2,8,5,0,42,,,,,,,,,,,,,,,,,,,,
,,,,,42,2020-07-03_17h24.28.377,retriever_ti,2020.1.3,Win32,60,Chrome,1920,1080,,,,,,,,,,,,,,,,,3,,,,,,,,,,,,,,,,,,,,,,,,,,,990.272675,176,right,1.759535,satellite_dish,2,10,1,1,1,990.289135,990.289135,992.788215,0,21,21,21,1,176,1,2,phone       ,satellite_dish,html/resources/sequences_IDs/B/09_phone.jpg,html/resources/sequences_IDs/A/10_satellite_dish.jpg,9,10,4,2,4,2,7,8,0,42,,,,,,,,,,,,,,,,,,,,
,,,,,42,2020-07-03_17h24.28.377,retriever_ti,2020.1.3,Win32,60,Chrome,1920,1080,,,,,,,,,,,,,,,,,3,,,,,,,,,,,,,,,,,,,,,,,,,,,993.888995,177,left,2.04034,dress         ,6,7,-1,0,0,993.92261,993.92261,996.421795,0,22,22,22,1,177,6,7,dress         ,giraffe     ,html/resources/sequences_IDs/A/07_dress.jpg,html/resources/sequences_IDs/B/03_giraffe.jpg,7,3,3,2,1,1,5,2,0,42,,,,,,,,,,,,,,,,,,,,
,,,,,42,2020-07-03_17h24.28.377,retriever_ti,2020.1.3,Win32,60,Chrome,1920,1080,,,,,,,,,,,,,,,,,3,,,,,,,,,,,,,,,,,,,,,,,,,,,997.522405,178,left,0.96229,giraffe     ,7,3,1,1,1,997.555845,997.555845,1000.055175,0,23,23,23,1,178,7,6,giraffe     ,dress         ,html/resources/sequences_IDs/B/03_giraffe.jpg,html/resources/sequences_IDs/A/07_dress.jpg,3,7,1,1,3,2,2,5,0,42,,,,,,,,,,,,,,,,,,,,
,,,,,42,2020-07-03_17h24.28.377,retriever_ti,2020.1.3,Win32,60,Chrome,1920,1080,,,,,,,,,,,,,,,,,3,,,,,,,,,,,,,,,,,,,,,,,,,,,1001.15541,179,right,0.96486,slipper     ,5,8,-3,0,3,1001.18927,1001.18927,1003.688435,0,24,24,24,1,179,8,5,seaturtle     ,slipper     ,html/resources/sequences_IDs/A/02_seaturtle.jpg,html/resources/sequences_IDs/B/08_slipper.jpg,2,8,2,1,3,2,1,6,0,42,,,,,,,,,,,,,,,,,,,,
,,,,,42,2020-07-03_17h24.28.377,retriever_ti,2020.1.3,Win32,60,Chrome,1920,1080,,,,,,,,,,,,,,,,,3,,,,,,,,,,,,,,,,,,,,,,,,,,,1004.30563,180,left,1.117155,dress         ,6,7,5,1,3,1004.32266,1004.32266,1006.82186,0,25,25,25,1,180,6,1,dress         ,phone       ,html/resources/sequences_IDs/A/07_dress.jpg,html/resources/sequences_IDs/B/09_phone.jpg,7,9,3,2,4,2,5,7,0,42,,,,,,,,,,,,,,,,,,,,
,,,,,42,2020-07-03_17h24.28.377,retriever_ti,2020.1.3,Win32,60,Chrome,1920,1080,,,,,,,,,,,,,,,,,3,,,,,,,,,,,,,,,,,,,,,,,,,,,1007.439115,181,left,1.03135,satellite_dish,2,10,1,1,1,1007.47265,1007.47265,1009.971875,0,26,26,26,1,181,2,1,satellite_dish,phone       ,html/resources/sequences_IDs/A/10_satellite_dish.jpg,html/resources/sequences_IDs/B/09_phone.jpg,10,9,4,2,4,2,8,7,0,42,,,,,,,,,,,,,,,,,,,,
,,,,,42,2020-07-03_17h24.28.377,retriever_ti,2020.1.3,Win32,60,Chrome,1920,1080,,,,,,,,,,,,,,,,,3,,,,,,,,,,,,,,,,,,,,,,,,,,,1011.07215,182,right,0.82489,slipper     ,5,8,2,1,3,1011.10599,1011.10599,1013.605295,0,27,27,27,1,182,3,5,parrot      ,slipper     ,html/resources/sequences_IDs/B/05_parrot.jpg,html/resources/sequences_IDs/B/08_slipper.jpg,5,8,2,1,3,2,4,6,0,42,,,,,,,,,,,,,,,,,,,,
,,,,,42,2020-07-03_17h24.28.377,retriever_ti,2020.1.3,Win32,60,Chrome,1920,1080,,,,,,,,,,,,,,,,,3,,,,,,,,,,,,,,,,,,,,,,,,,,,1014.22253,183,right,1.73025,seaturtle     ,8,2,4,1,3,1014.256145,1014.256145,1016.75531,0,28,28,28,1,183,4,8,clownfish     ,seaturtle     ,html/resources/sequences_IDs/A/04_clownfish.jpg,html/resources/sequences_IDs/A/02_seaturtle.jpg,4,2,2,1,2,1,3,1,0,42,,,,,,,,,,,,,,,,,,,,
,,,,,42,2020-07-03_17h24.28.377,retriever_ti,2020.1.3,Win32,60,Chrome,1920,1080,,,,,,,,,,,,,,,,,3,,,,,,,,,,,,,,,,,,,,,,,,,,,1017.372505,184,right,1.89112,giraffe     ,7,3,4,1,3,1017.389335,1017.389335,1019.88867,0,29,29,29,1,184,3,7,parrot      ,giraffe     ,html/resources/sequences_IDs/B/05_parrot.jpg,html/resources/sequences_IDs/B/03_giraffe.jpg,5,3,2,1,1,1,4,2,0,42,,,,,,,,,,,,,,,,,,,,
,,,,,42,2020-07-03_17h24.28.377,retriever_ti,2020.1.3,Win32,60,Chrome,1920,1080,,,,,,,,,,,,,,,,,3,,,,,,,,,,,,,,,,,,,,,,,,,,,1020.50562,185,right,1.75229,slipper     ,5,8,-1,0,0,1020.539465,1020.539465,1023.038725,0,30,30,30,1,185,6,5,dress         ,slipper     ,html/resources/sequences_IDs/A/07_dress.jpg,html/resources/sequences_IDs/B/08_slipper.jpg,7,8,3,2,3,2,5,6,0,42,,,,,,,,,,,,,,,,,,,,
,,,,,42,2020-07-03_17h24.28.377,retriever_ti,2020.1.3,Win32,60,Chrome,1920,1080,,,,,,,,,,,,,,,,,3,,,,,,,,,,,,,,,,,,,,,,,,,,,1024.13935,186,right,1.4981,parrot      ,3,5,-1,0,0,1024.17309,1024.17309,1026.67209,0,31,31,31,1,186,4,3,clownfish     ,parrot      ,html/resources/sequences_IDs/A/04_clownfish.jpg,html/resources/sequences_IDs/B/05_parrot.jpg,4,5,2,1,2,1,3,4,0,42,,,,,,,,,,,,,,,,,,,,
,,,,,42,2020-07-03_17h24.28.377,retriever_ti,2020.1.3,Win32,60,Chrome,1920,1080,,,,,,,,,,,,,,,,,3,,,,,,,,,,,,,,,,,,,,,,,,,,,1027.77276,187,left,1.46627,parrot      ,3,5,-5,0,3,1027.78941,1027.78941,1030.2888,0,32,32,32,1,187,3,8,parrot      ,seaturtle     ,html/resources/sequences_IDs/B/05_parrot.jpg,html/resources/sequences_IDs/A/02_seaturtle.jpg,5,2,2,1,2,1,4,1,0,42,,,,,,,,,,,,,,,,,,,,
,,,,,42,2020-07-03_17h24.28.377,retriever_ti,2020.1.3,Win32,60,Chrome,1920,1080,,,,,,,,,,,,,,,,,3,,,,,,,,,,,,,,,,,,,,,,,,,,,1030.90572,188,right,1.288135,dress         ,6,7,-1,0,0,1030.922955,1030.922955,1033.42218,0,33,33,33,1,188,7,6,giraffe     ,dress         ,html/resources/sequences_IDs/B/03_giraffe.jpg,html/resources/sequences_IDs/A/07_dress.jpg,3,7,1,1,3,2,2,5,0,42,,,,,,,,,,,,,,,,,,,,
,,,,,42,2020-07-03_17h24.28.377,retriever_ti,2020.1.3,Win32,60,Chrome,1920,1080,,,,,,,,,,,,,,,,,3,,,,,,,,,,,,,,,,,,,,,,,,,,,1034.522675,189,left,1.491115,clownfish     ,4,4,3,1,3,1034.556315,1034.556315,1037.05569,0,34,34,34,1,189,4,1,clownfish     ,phone       ,html/resources/sequences_IDs/A/04_clownfish.jpg,html/resources/sequences_IDs/B/09_phone.jpg,4,9,2,1,4,2,3,7,0,42,,,,,,,,,,,,,,,,,,,,
,,,,,42,2020-07-03_17h24.28.377,retriever_ti,2020.1.3,Win32,60,Chrome,1920,1080,,,,,,,,,,,,,,,,,3,,,,,,,,,,,,,,,,,,,,,,,,,,,1037.672715,190,right,1.665755,dress         ,6,7,3,1,3,1037.689865,1037.689865,1040.188895,0,35,35,35,1,190,3,6,parrot      ,dress         ,html/resources/sequences_IDs/B/05_parrot.jpg,html/resources/sequences_IDs/A/07_dress.jpg,5,7,2,1,3,2,4,5,0,42,,,,,,,,,,,,,,,,,,,,
,,,,,42,2020-07-03_17h24.28.377,retriever_ti,2020.1.3,Win32,60,Chrome,1920,1080,,,,,,,,,,,,,,,,,3,,,,,,,,,,,,,,,,,,,,,,,,,,,1040.805835,191,left,1.03124,giraffe     ,7,3,5,1,3,1040.83972,1040.83972,1043.33904,0,36,36,36,1,191,7,2,giraffe     ,satellite_dish,html/resources/sequences_IDs/B/03_giraffe.jpg,html/resources/sequences_IDs/A/10_satellite_dish.jpg,3,10,1,1,4,2,2,8,0,42,,,,,,,,,,,,,,,,,,,,
,,,,,42,2020-07-03_17h24.28.377,retriever_ti,2020.1.3,Win32,60,Chrome,1920,1080,,,,,,,,,,,,,,,,,3,,,,,,,,,,,,,,,,,,,,,,,,,,,1043.956305,192,left,1.158775,satellite_dish,2,10,1,1,1,1043.97308,1043.97308,1046.47228,0,37,37,37,1,192,2,1,satellite_dish,phone       ,html/resources/sequences_IDs/A/10_satellite_dish.jpg,html/resources/sequences_IDs/B/09_phone.jpg,10,9,4,2,4,2,8,7,0,42,,,,,,,,,,,,,,,,,,,,
,,,,,42,2020-07-03_17h24.28.377,retriever_ti,2020.1.3,Win32,60,Chrome,1920,1080,,,,,,,,,,,,,,,,,3,,,,,,,,,,,,,,,,,,,,,,,,,,,1047.57282,193,left,0.94332,parrot      ,3,5,2,1,3,1047.58982,1047.58982,1050.089135,0,38,38,38,1,193,3,1,parrot      ,phone       ,html/resources/sequences_IDs/B/05_parrot.jpg,html/resources/sequences_IDs/B/09_phone.jpg,5,9,2,1,4,2,4,7,0,42,,,,,,,,,,,,,,,,,,,,
,,,,,42,2020-07-03_17h24.28.377,retriever_ti,2020.1.3,Win32,60,Chrome,1920,1080,,,,,,,,,,,,,,,,,3,,,,,,,,,,,,,,,,,,,,,,,,,,,1050.705905,194,right,1.33726,seaturtle     ,8,2,6,1,3,1050.739815,1050.739815,1053.239155,0,39,39,39,1,194,2,8,satellite_dish,seaturtle     ,html/resources/sequences_IDs/A/10_satellite_dish.jpg,html/resources/sequences_IDs/A/02_seaturtle.jpg,10,2,4,2,2,1,8,1,0,42,,,,,,,,,,,,,,,,,,,,
,,,,,42,2020-07-03_17h24.28.377,retriever_ti,2020.1.3,Win32,60,Chrome,1920,1080,,,,,,,,,,,,,,,,,3,,,,,,,,,,,,,,,,,,,,,,,,,,,1053.85631,195,right,1.34351,seaturtle     ,8,2,7,1,3,1053.87317,1053.87317,1056.372475,0,40,40,40,1,195,1,8,phone       ,seaturtle     ,html/resources/sequences_IDs/B/09_phone.jpg,html/resources/sequences_IDs/A/02_seaturtle.jpg,9,2,4,2,2,1,7,1,0,42,,,,,,,,,,,,,,,,,,,,
,,,,,42,2020-07-03_17h24.28.377,retriever_ti,2020.1.3,Win32,60,Chrome,1920,1080,,,,,,,,,,,,,,,,,3,,,,,,,,,,,,,,,,,,,,,,,,,,,1056.989445,196,right,1.232985,parrot      ,3,5,1,1,0,1057.023155,1057.023155,1059.52257,0,41,41,41,1,196,2,3,satellite_dish,parrot      ,html/resources/sequences_IDs/A/10_satellite_dish.jpg,html/resources/sequences_IDs/B/05_parrot.jpg,10,5,4,2,2,1,8,4,1,42,,,,,,,,,,,,,,,,,,,,
,,,,,42,2020-07-03_17h24.28.377,retriever_ti,2020.1.3,Win32,60,Chrome,1920,1080,,,,,,,,,,,,,,,,,3,,,,,,,,,,,,,,,,,,,,,,,,,,,1060.623125,197,left,1.2676,dress         ,6,7,2,1,3,1060.63992,1060.63992,1063.13927,0,42,42,42,1,197,6,4,dress         ,clownfish     ,html/resources/sequences_IDs/A/07_dress.jpg,html/resources/sequences_IDs/A/04_clownfish.jpg,7,4,3,2,2,1,5,3,0,42,,,,,,,,,,,,,,,,,,,,
,,,,,42,2020-07-03_17h24.28.377,retriever_ti,2020.1.3,Win32,60,Chrome,1920,1080,,,,,,,,,,,,,,,,,3,,,,,,,,,,,,,,,,,,,,,,,,,,,1063.756425,198,left,1.582205,slipper     ,5,8,1,1,1,1063.78986,1063.78986,1066.289275,0,43,43,43,1,198,5,4,slipper     ,clownfish     ,html/resources/sequences_IDs/B/08_slipper.jpg,html/resources/sequences_IDs/A/04_clownfish.jpg,8,4,3,2,2,1,6,3,0,42,,,,,,,,,,,,,,,,,,,,
,,,,,42,2020-07-03_17h24.28.377,retriever_ti,2020.1.3,Win32,60,Chrome,1920,1080,,,,,,,,,,,,,,,,,3,,,,,,,,,,,,,,,,,,,,,,,,,,,1067.389855,199,right,1.646015,giraffe     ,7,3,3,1,3,1067.42342,1067.42342,1069.922675,0,44,44,44,1,199,4,7,clownfish     ,giraffe     ,html/resources/sequences_IDs/A/04_clownfish.jpg,html/resources/sequences_IDs/B/03_giraffe.jpg,4,3,2,1,1,1,3,2,0,42,,,,,,,,,,,,,,,,,,,,
,,,,,42,2020-07-03_17h24.28.377,retriever_ti,2020.1.3,Win32,60,Chrome,1920,1080,,,,,,,,,,,,,,,,,3,,,,,,,,,,,,,,,,,,,,,,,,,,,1070.53956,200,right,1.280575,slipper     ,5,8,3,1,3,1070.57335,1070.57335,1073.07266,0,45,45,45,1,200,2,5,satellite_dish,slipper     ,html/resources/sequences_IDs/A/10_satellite_dish.jpg,html/resources/sequences_IDs/B/08_slipper.jpg,10,8,4,2,3,2,8,6,0,42,,,,,,,,,,,,,,,,,,,,
,,,,,42,2020-07-03_17h24.28.377,retriever_ti,2020.1.3,Win32,60,Chrome,1920,1080,,,,,,,,,,,,,,,,,3,,,,,,,,,,,,,,,,,,,,,,,,,,,1073.689945,201,right,1.28929,dress         ,6,7,1,1,1,1073.723415,1073.723415,1076.22267,0,46,46,46,1,201,5,6,slipper     ,dress         ,html/resources/sequences_IDs/B/08_slipper.jpg,html/resources/sequences_IDs/A/07_dress.jpg,8,7,3,2,3,2,6,5,0,42,,,,,,,,,,,,,,,,,,,,
,,,,,42,2020-07-03_17h24.28.377,retriever_ti,2020.1.3,Win32,60,Chrome,1920,1080,,,,,,,,,,,,,,,,,3,,,,,,,,,,,,,,,,,,,,,,,,,,,1077.32324,202,left,1.047455,giraffe     ,7,3,4,1,3,1077.34009,1077.34009,1079.83936,0,47,47,47,1,202,7,3,giraffe     ,parrot      ,html/resources/sequences_IDs/B/03_giraffe.jpg,html/resources/sequences_IDs/B/05_parrot.jpg,3,5,1,1,2,1,2,4,0,42,,,,,,,,,,,,,,,,,,,,
,,,,,42,2020-07-03_17h24.28.377,retriever_ti,2020.1.3,Win32,60,Chrome,1920,1080,,,,,,,,,,,,,,,,,3,,,,,,,,,,,,,,,,,,,,,,,,,,,1080.45643,203,right,1.154005,dress         ,6,7,-2,0,3,1080.47355,1080.47355,1082.97278,0,48,48,48,1,203,8,6,seaturtle     ,dress         ,html/resources/sequences_IDs/A/02_seaturtle.jpg,html/resources/sequences_IDs/A/07_dress.jpg,2,7,2,1,3,2,1,5,0,42,,,,,,,,,,,,,,,,,,,,
,,,,,42,2020-07-03_17h24.28.377,retriever_ti,2020.1.3,Win32,60,Chrome,1920,1080,,,,,,,,,,,,,,,,,3,,,,,,,,,,,,,,,,,,,,,,,,,,,1083.59004,204,left,1.84964,clownfish     ,4,4,1,1,1,1083.62356,1083.62356,1086.122815,0,49,49,49,1,204,4,3,clownfish     ,parrot      ,html/resources/sequences_IDs/A/04_clownfish.jpg,html/resources/sequences_IDs/B/05_parrot.jpg,4,5,2,1,2,1,3,4,0,42,,,,,,,,,,,,,,,,,,,,
,,,,,42,2020-07-03_17h24.28.377,retriever_ti,2020.1.3,Win32,60,Chrome,1920,1080,,,,,,,,,,,,,,,,,3,,,,,,,,,,,,,,,,,,,,,,,,,,,1087.223095,205,left,1.341295,parrot      ,3,5,1,1,1,1087.25687,1087.25687,1089.756175,0,50,50,50,1,205,3,2,parrot      ,satellite_dish,html/resources/sequences_IDs/B/05_parrot.jpg,html/resources/sequences_IDs/A/10_satellite_dish.jpg,5,10,2,1,4,2,4,8,0,42,,,,,,,,,,,,,,,,,,,,
,,,,,42,2020-07-03_17h24.28.377,retriever_ti,2020.1.3,Win32,60,Chrome,1920,1080,,,,,,,,,,,,,,,,,3,,,,,,,,,,,,,,,,,,,,,,,,,,,1090.856765,206,right,1.43109,clownfish     ,4,4,1,1,1,1090.89034,1090.89034,1093.38956,0,51,51,51,1,206,3,4,parrot      ,clownfish     ,html/resources/sequences_IDs/B/05_parrot.jpg,html/resources/sequences_IDs/A/04_clownfish.jpg,5,4,2,1,2,1,4,3,0,42,,,,,,,,,,,,,,,,,,,,
,,,,,42,2020-07-03_17h24.28.377,retriever_ti,2020.1.3,Win32,60,Chrome,1920,1080,,,,,,,,,,,,,,,,,3,,,,,,,,,,,,,,,,,,,,,,,,,,,1094.490215,207,right,1.342505,giraffe     ,7,3,5,1,3,1094.507075,1094.507075,1097.006365,0,52,52,52,1,207,2,7,satellite_dish,giraffe     ,html/resources/sequences_IDs/A/10_satellite_dish.jpg,html/resources/sequences_IDs/B/03_giraffe.jpg,10,3,4,2,1,1,8,2,0,42,,,,,,,,,,,,,,,,,,,,
,,,,,42,2020-07-03_17h24.28.377,retriever_ti,2020.1.3,Win32,60,Chrome,1920,1080,,,,,,,,,,,,,,,,,3,,,,,,,,,,,,,,,,,,,,,,,,,,,1097.6236,208,right,1.91054,parrot      ,3,5,-5,0,3,1097.640745,1097.640745,1100.139635,0,53,53,53,1,208,8,3,seaturtle     ,parrot      ,html/resources/sequences_IDs/A/02_seaturtle.jpg,html/resources/sequences_IDs/B/05_parrot.jpg,2,5,2,1,2,1,1,4,0,42,,,,,,,,,,,,,,,,,,,,
,,,,,42,2020-07-03_17h24.28.377,retriever_ti,2020.1.3,Win32,60,Chrome,1920,1080,,,,,,,,,,,,,,,,,3,,,,,,,,,,,,,,,,,,,,,,,,,,,1100.756635,209,left,1.453615,giraffe     ,7,3,2,1,3,1100.79049,1100.79049,1103.28968,0,54,54,54,1,209,7,5,giraffe     ,slipper     ,html/resources/sequences_IDs/B/03_giraffe.jpg,html/resources/sequences_IDs/B/08_slipper.jpg,3,8,1,1,3,2,2,6,0,42,,,,,,,,,,,,,,,,,,,,
,,,,,42,2020-07-03_17h24.28.377,retriever_ti,2020.1.3,Win32,60,Chrome,1920,1080,,,,,,,,,,,,,,,,,3,,,,,,,,,,,,,,,,,,,,,,,,,,,1103.906905,210,left,1.254345,dress         ,6,7,1,1,1,1103.92377,1103.92377,1106.423115,0,55,55,55,1,210,6,5,dress         ,slipper     ,html/resources/sequences_IDs/A/07_dress.jpg,html/resources/sequences_IDs/B/08_slipper.jpg,7,8,3,2,3,2,5,6,0,42,,,,,,,,,,,,,,,,,,,,
,,,,,42,2020-07-03_17h24.28.377,retriever_ti,2020.1.3,Win32,60,Chrome,1920,1080,,,,,,,,,,,,,,,,,3,,,,,,,,,,,,,,,,,,,,,,,,,,,1107.52393,211,left,1.08889,giraffe     ,7,3,-1,0,0,1107.540445,1107.540445,1110.039805,0,56,56,56,1,211,7,8,giraffe     ,seaturtle     ,html/resources/sequences_IDs/B/03_giraffe.jpg,html/resources/sequences_IDs/A/02_seaturtle.jpg,3,2,1,1,2,1,2,1,0,42,,,,,,,,,,,,,,,,,,,,
,,,,,42,2020-07-03_17h24.28.377,retriever_ti,2020.1.3,Win32,60,Chrome,1920,1080,,,,,,,,,,,,,,,,,3,,,,,,,,,,,,,,,,,,,,,,,,,,,1111.14003,212,left,1.484255,slipper     ,5,8,4,1,3,1111.173985,1111.173985,1113.673155,0,57,57,57,1,212,5,1,slipper     ,phone       ,html/resources/sequences_IDs/B/08_slipper.jpg,html/resources/sequences_IDs/B/09_phone.jpg,8,9,3,2,4,2,6,7,0,42,,,,,,,,,,,,,,,,,,,,
,,,,,42,2020-07-03_17h24.28.377,retriever_ti,2020.1.3,Win32,60,Chrome,1920,1080,,,,,,,,,,,,,,,,,3,,,,,,,,,,,,,,,,,,,,,,,,,,,1114.29048,213,right,1.470035,clownfish     ,4,4,3,1,3,1114.323945,1114.323945,1116.82333,0,58,58,58,1,213,1,4,phone       ,clownfish     ,html/resources/sequences_IDs/B/09_phone.jpg,html/resources/sequences_IDs/A/04_clownfish.jpg,9,4,4,2,2,1,7,3,0,42,,,,,,,,,,,,,,,,,,,,
,,,,,42,2020-07-03_17h24.28.377,retriever_ti,2020.1.3,Win32,60,Chrome,1920,1080,,,,,,,,,,,,,,,,,3,,,,,,,,,,,,,,,,,,,,,,,,,,,1117.440955,214,left,1.747535,dress         ,6,7,4,1,3,1117.474085,1117.474085,1119.97325,0,59,59,59,1,214,6,2,dress         ,satellite_dish,html/resources/sequences_IDs/A/07_dress.jpg,html/resources/sequences_IDs/A/10_satellite_dish.jpg,7,10,3,2,4,2,5,8,0,42,,,,,,,,,,,,,,,,,,,,
,,,,,42,2020-07-03_17h24.28.377,retriever_ti,2020.1.3,Win32,60,Chrome,1920,1080,,,,,,,,,,,,,,,,,3,,,,,,,,,,,,,,,,,,,,,,,,,,,1120.590195,215,right,1.030615,giraffe     ,7,3,6,1,3,1120.623925,1120.623925,1123.12331,0,60,60,60,1,215,1,7,phone       ,giraffe     ,html/resources/sequences_IDs/B/09_phone.jpg,html/resources/sequences_IDs/B/03_giraffe.jpg,9,3,4,2,1,1,7,2,0,42,,,,,,,,,,,,,,,,,,,,
,,,,,42,2020-07-03_17h24.28.377,retriever_ti,2020.1.3,Win32,60,Chrome,1920,1080,,,,,,,,,,,,,,,,,3,,,,,,,,,,,,,,,,,,,,,,,,,,,1123.740525,216,left,0.978885,slipper     ,5,8,3,1,3,1123.77421,1123.77421,1126.27332,0,61,61,61,1,216,5,2,slipper     ,satellite_dish,html/resources/sequences_IDs/B/08_slipper.jpg,html/resources/sequences_IDs/A/10_satellite_dish.jpg,8,10,3,2,4,2,6,8,0,42,,,,,,,,,,,,,,,,,,,,
,,,,,42,2020-07-03_17h24.28.377,retriever_ti,2020.1.3,Win32,60,Chrome,1920,1080,,,,,,,,,,,,,,,,,3,,,,,,,,,,,,,,,,,,,,,,,,,,,1126.890245,217,right,1.56282,dress         ,6,7,1,1,0,1126.907425,1126.907425,1129.40674,0,62,62,62,1,217,5,6,slipper     ,dress         ,html/resources/sequences_IDs/B/08_slipper.jpg,html/resources/sequences_IDs/A/07_dress.jpg,8,7,3,2,3,2,6,5,1,42,,,,,,,,,,,,,,,,,,,,
,,,,,42,2020-07-03_17h24.28.377,retriever_ti,2020.1.3,Win32,60,Chrome,1920,1080,,,,,,,,,,,,,,,,,3,,,,,,,,,,,,,,,,,,,,,,,,,,,1130.507205,218,NaN,NaN,No_response,NaN,NaN,NaN,2,2,1130.524145,1130.524145,1133.02334,0,63,63,63,1,218,1,6,phone       ,dress         ,html/resources/sequences_IDs/B/09_phone.jpg,html/resources/sequences_IDs/A/07_dress.jpg,9,7,4,2,3,2,7,5,0,42,,,,,,,,,,,,,,,,,,,,
,,,,,42,2020-07-03_17h24.28.377,retriever_ti,2020.1.3,Win32,60,Chrome,1920,1080,,,,,,,,,,,,,,,,,3,,,,,,,,,,,,,,,,,,,,,,,,,,,1134.12414,219,right,1.182545,giraffe     ,7,3,1,1,1,1134.15762,1134.15762,1136.656945,0,64,64,64,1,219,6,7,dress         ,giraffe     ,html/resources/sequences_IDs/A/07_dress.jpg,html/resources/sequences_IDs/B/03_giraffe.jpg,7,3,3,2,1,1,5,2,0,42,,,,,,,,,,,,,,,,,,,,
,,,,,42,2020-07-03_17h24.28.377,retriever_ti,2020.1.3,Win32,60,Chrome,1920,1080,,,,,,,,,,,,,,,,,3,,,,,,,,,,,,,,,,,,,,,,,,,,,1137.75764,220,right,1.04572,seaturtle     ,8,2,3,1,3,1137.790805,1137.790805,1140.2902,0,65,65,65,1,220,5,8,slipper     ,seaturtle     ,html/resources/sequences_IDs/B/08_slipper.jpg,html/resources/sequences_IDs/A/02_seaturtle.jpg,8,2,3,2,2,1,6,1,0,42,,,,,,,,,,,,,,,,,,,,
,,,,,42,2020-07-03_17h24.28.377,retriever_ti,2020.1.3,Win32,60,Chrome,1920,1080,,,,,,,,,,,,,,,,,3,,,,,,,,,,,,,,,,,,,,,,,,,,,1140.90713,221,left,0.78835,seaturtle     ,8,2,6,1,3,1140.924205,1140.924205,1143.423575,0,66,66,66,1,221,8,2,seaturtle     ,satellite_dish,html/resources/sequences_IDs/A/02_seaturtle.jpg,html/resources/sequences_IDs/A/10_satellite_dish.jpg,2,10,2,1,4,2,1,8,0,42,,,,,,,,,,,,,,,,,,,,
