instructionsLoop.thisRepN,instructionsLoop.thisTrialN,instructionsLoop.thisN,instructionsLoop.thisIndex,instructionsLoop.ran,participant,date,expName,psychopyVersion,OS,frameRate,browser,xResolution,yResolution,fix_onset,tprac,practiceKey.keys,practiceKey.rt,pracitem_chosen_name,acc_practice,P1_onsetPrac,P2_onsetPrac,onsetFeedbPrac,practiceTrials.thisRepN,practiceTrials.thisTrialN,practiceTrials.thisN,practiceTrials.thisIndex,practiceTrials.ran,P1,P2,Block,LocItem1,LocItem2,NameItem1,NameItem2,key_respAC_prac.keys,key_respAC_prac.corr,key_respAC_prac.rt,AC_acc,Attentions.thisRepN,Attentions.thisTrialN,Attentions.thisN,Attentions.thisIndex,Attentions.ran,Stim,Loc1,Loc2,Loc3,Loc4,CorrAns,keyDisturbed.keys,keyDisturbed.rt,repPractice.thisRepN,repPractice.thisTrialN,repPractice.thisN,repPractice.thisIndex,repPractice.ran,fixcross_onsetMain,trialNumber,key_resp.keys,key_resp.rt,item_chosen_name,item_chosen_value,item_chosen_ID,diff_chosen_minus_reject,acc_real,acc_feedback,P1_onset,P2_onset,feedb_onset,trials.thisRepN,trials.thisTrialN,trials.thisN,trials.thisIndex,trials.ran,Trial,ValueP1,ValueP2,P1name,P2name,P1Loc,P2Loc,P1id,P2id,Micro_categoryP1,Macro_categoryP1,Micro_categoryP2,Macro_categoryP2,ID_sequenceP1,ID_sequenceP2,InverseFb,pNumber,repBlocks.thisRepN,repBlocks.thisTrialN,repBlocks.thisN,repBlocks.thisIndex,repBlocks.ran,key_respAC.keys,key_respAC.corr,key_respAC.rt,trials_AC.thisRepN,trials_AC.thisTrialN,trials_AC.thisN,trials_AC.thisIndex,trials_AC.ran,Bonus,BonusLoop.thisRepN,BonusLoop.thisTrialN,BonusLoop.thisN,BonusLoop.thisIndex,BonusLoop.ran,comments
0,0,0,0,1,44,2020-07-03_17h46.30.137,retriever_ti,2020.1.3,Win32,60,Chrome,1536,864,,,,,,,,,,,,,,,,,,,,,,,,,,,,,,,,,,,,,,,,,,,,,,,,,,,,,,,,,,,,,,,,,,,,,,,,,,,,,,,,,,,,,,,,,,,,,,,,,,
1,0,1,0,1,44,2020-07-03_17h46.30.137,retriever_ti,2020.1.3,Win32,60,Chrome,1536,864,,,,,,,,,,,,,,,,,,,,,,,,,,,,,,,,,,,,,,,,,,,,,,,,,,,,,,,,,,,,,,,,,,,,,,,,,,,,,,,,,,,,,,,,,,,,,,,,,,
2,0,2,0,1,44,2020-07-03_17h46.30.137,retriever_ti,2020.1.3,Win32,60,Chrome,1536,864,,,,,,,,,,,,,,,,,,,,,,,,,,,,,,,,,,,,,,,,,,,,,,,,,,,,,,,,,,,,,,,,,,,,,,,,,,,,,,,,,,,,,,,,,,,,,,,,,,
3,0,3,0,1,44,2020-07-03_17h46.30.137,retriever_ti,2020.1.3,Win32,60,Chrome,1536,864,,,,,,,,,,,,,,,,,,,,,,,,,,,,,,,,,,,,,,,,,,,,,,,,,,,,,,,,,,,,,,,,,,,,,,,,,,,,,,,,,,,,,,,,,,,,,,,,,,
4,0,4,0,1,44,2020-07-03_17h46.30.137,retriever_ti,2020.1.3,Win32,60,Chrome,1536,864,,,,,,,,,,,,,,,,,,,,,,,,,,,,,,,,,,,,,,,,,,,,,,,,,,,,,,,,,,,,,,,,,,,,,,,,,,,,,,,,,,,,,,,,,,,,,,,,,,
5,0,5,0,1,44,2020-07-03_17h46.30.137,retriever_ti,2020.1.3,Win32,60,Chrome,1536,864,,,,,,,,,,,,,,,,,,,,,,,,,,,,,,,,,,,,,,,,,,,,,,,,,,,,,,,,,,,,,,,,,,,,,,,,,,,,,,,,,,,,,,,,,,,,,,,,,,
6,0,6,0,1,44,2020-07-03_17h46.30.137,retriever_ti,2020.1.3,Win32,60,Chrome,1536,864,,,,,,,,,,,,,,,,,,,,,,,,,,,,,,,,,,,,,,,,,,,,,,,,,,,,,,,,,,,,,,,,,,,,,,,,,,,,,,,,,,,,,,,,,,,,,,,,,,
7,0,7,0,1,44,2020-07-03_17h46.30.137,retriever_ti,2020.1.3,Win32,60,Chrome,1536,864,,,,,,,,,,,,,,,,,,,,,,,,,,,,,,,,,,,,,,,,,,,,,,,,,,,,,,,,,,,,,,,,,,,,,,,,,,,,,,,,,,,,,,,,,,,,,,,,,,
8,0,8,0,1,44,2020-07-03_17h46.30.137,retriever_ti,2020.1.3,Win32,60,Chrome,1536,864,,,,,,,,,,,,,,,,,,,,,,,,,,,,,,,,,,,,,,,,,,,,,,,,,,,,,,,,,,,,,,,,,,,,,,,,,,,,,,,,,,,,,,,,,,,,,,,,,,
9,0,9,0,1,44,2020-07-03_17h46.30.137,retriever_ti,2020.1.3,Win32,60,Chrome,1536,864,,,,,,,,,,,,,,,,,,,,,,,,,,,,,,,,,,,,,,,,,,,,,,,,,,,,,,,,,,,,,,,,,,,,,,,,,,,,,,,,,,,,,,,,,,,,,,,,,,
10,0,10,0,1,44,2020-07-03_17h46.30.137,retriever_ti,2020.1.3,Win32,60,Chrome,1536,864,,,,,,,,,,,,,,,,,,,,,,,,,,,,,,,,,,,,,,,,,,,,,,,,,,,,,,,,,,,,,,,,,,,,,,,,,,,,,,,,,,,,,,,,,,,,,,,,,,
11,0,11,0,1,44,2020-07-03_17h46.30.137,retriever_ti,2020.1.3,Win32,60,Chrome,1536,864,,,,,,,,,,,,,,,,,,,,,,,,,,,,,,,,,,,,,,,,,,,,,,,,,,,,,,,,,,,,,,,,,,,,,,,,,,,,,,,,,,,,,,,,,,,,,,,,,,
12,0,12,0,1,44,2020-07-03_17h46.30.137,retriever_ti,2020.1.3,Win32,60,Chrome,1536,864,,,,,,,,,,,,,,,,,,,,,,,,,,,,,,,,,,,,,,,,,,,,,,,,,,,,,,,,,,,,,,,,,,,,,,,,,,,,,,,,,,,,,,,,,,,,,,,,,,
13,0,13,0,1,44,2020-07-03_17h46.30.137,retriever_ti,2020.1.3,Win32,60,Chrome,1536,864,,,,,,,,,,,,,,,,,,,,,,,,,,,,,,,,,,,,,,,,,,,,,,,,,,,,,,,,,,,,,,,,,,,,,,,,,,,,,,,,,,,,,,,,,,,,,,,,,,
14,0,14,0,1,44,2020-07-03_17h46.30.137,retriever_ti,2020.1.3,Win32,60,Chrome,1536,864,,,,,,,,,,,,,,,,,,,,,,,,,,,,,,,,,,,,,,,,,,,,,,,,,,,,,,,,,,,,,,,,,,,,,,,,,,,,,,,,,,,,,,,,,,,,,,,,,,
15,0,15,0,1,44,2020-07-03_17h46.30.137,retriever_ti,2020.1.3,Win32,60,Chrome,1536,864,,,,,,,,,,,,,,,,,,,,,,,,,,,,,,,,,,,,,,,,,,,,,,,,,,,,,,,,,,,,,,,,,,,,,,,,,,,,,,,,,,,,,,,,,,,,,,,,,,
,,,,,44,2020-07-03_17h46.30.137,retriever_ti,2020.1.3,Win32,60,Chrome,1536,864,158.29407,1,right,1.58012,canary,1,158.308565,158.308565,160.808735,0,0,0,0,1,2,5,1,html/resources/stimuli_practice_decision/04_beetle.jpg,html/resources/stimuli_practice_decision/02_canary.jpg,beetle,canary,,,,,,,,,,,,,,,,,,,,,,,,,,,,,,,,,,,,,,,,,,,,,,,,,,,,,,,,,,,,,,,,,,,,,,,,,,,,,
,,,,,44,2020-07-03_17h46.30.137,retriever_ti,2020.1.3,Win32,60,Chrome,1536,864,161.406285,2,left,1.15889,rabbit,1,161.414715,161.414715,163.91335,0,1,1,1,1,4,3,1,html/resources/stimuli_practice_decision/01_rabbit.jpg,html/resources/stimuli_practice_decision/07_sock.jpg,rabbit,sock,,,,,,,,,,,,,,,,,,,,,,,,,,,,,,,,,,,,,,,,,,,,,,,,,,,,,,,,,,,,,,,,,,,,,,,,,,,,,
,,,,,44,2020-07-03_17h46.30.137,retriever_ti,2020.1.3,Win32,60,Chrome,1536,864,164.91155,3,left,1.28529,pullover,1,164.93328,164.93328,167.433855,0,2,2,2,1,6,2,1,html/resources/stimuli_practice_decision/06_pullover.jpg,html/resources/stimuli_practice_decision/04_beetle.jpg,pullover,beetle,,,,,,,,,,,,,,,,,,,,,,,,,,,,,,,,,,,,,,,,,,,,,,,,,,,,,,,,,,,,,,,,,,,,,,,,,,,,,
,,,,,44,2020-07-03_17h46.30.137,retriever_ti,2020.1.3,Win32,60,Chrome,1536,864,167.954435,4,right,1.31604,handmixer,0,167.99876,167.99876,170.49592,0,3,3,3,1,7,1,1,html/resources/stimuli_practice_decision/05_glasses.jpg,html/resources/stimuli_practice_decision/08_handmixer.jpg,glasses,handmixer,,,,,,,,,,,,,,,,,,,,,,,,,,,,,,,,,,,,,,,,,,,,,,,,,,,,,,,,,,,,,,,,,,,,,,,,,,,,,
,,,,,44,2020-07-03_17h46.30.137,retriever_ti,2020.1.3,Win32,60,Chrome,1536,864,171.016005,5,right,1.81872,pullover,0,171.03826,171.03826,173.536735,0,4,4,4,1,7,6,1,html/resources/stimuli_practice_decision/05_glasses.jpg,html/resources/stimuli_practice_decision/06_pullover.jpg,glasses,pullover,,,,,,,,,,,,,,,,,,,,,,,,,,,,,,,,,,,,,,,,,,,,,,,,,,,,,,,,,,,,,,,,,,,,,,,,,,,,,
,,,,,44,2020-07-03_17h46.30.137,retriever_ti,2020.1.3,Win32,60,Chrome,1536,864,174.54072,6,left,2.00869,rabbit,0,174.56213,174.56213,177.057745,0,5,5,5,1,4,7,1,html/resources/stimuli_practice_decision/01_rabbit.jpg,html/resources/stimuli_practice_decision/05_glasses.jpg,rabbit,glasses,,,,,,,,,,,,,,,,,,,,,,,,,,,,,,,,,,,,,,,,,,,,,,,,,,,,,,,,,,,,,,,,,,,,,,,,,,,,,
,,,,,44,2020-07-03_17h46.30.137,retriever_ti,2020.1.3,Win32,60,Chrome,1536,864,177.55946,7,left,1.174855,handmixer,0,177.583215,177.583215,180.078385,0,6,6,6,1,1,2,1,html/resources/stimuli_practice_decision/08_handmixer.jpg,html/resources/stimuli_practice_decision/04_beetle.jpg,handmixer,beetle,,,,,,,,,,,,,,,,,,,,,,,,,,,,,,,,,,,,,,,,,,,,,,,,,,,,,,,,,,,,,,,,,,,,,,,,,,,,,
,,,,,44,2020-07-03_17h46.30.137,retriever_ti,2020.1.3,Win32,60,Chrome,1536,864,181.080575,8,left,0.943035,rabbit,1,181.12433,181.12433,183.620465,0,7,7,7,1,4,3,1,html/resources/stimuli_practice_decision/01_rabbit.jpg,html/resources/stimuli_practice_decision/07_sock.jpg,rabbit,sock,,,,,,,,,,,,,,,,,,,,,,,,,,,,,,,,,,,,,,,,,,,,,,,,,,,,,,,,,,,,,,,,,,,,,,,,,,,,,
,,,,,44,2020-07-03_17h46.30.137,retriever_ti,2020.1.3,Win32,60,Chrome,1536,864,,,,,,,,,,,,,,,,,,,,,,up,1,2.792385,1,0,0,0,0,1,html/resources/sequences_IDs/circle.png,circle ↑,square →,triangle ↓,← star ,up,,,,,,,,,,,,,,,,,,,,,,,,,,,,,,,,,,,,,,,,,,,,,,,,,,,,,,,,,,,,,,
,,,,,44,2020-07-03_17h46.30.137,retriever_ti,2020.1.3,Win32,60,Chrome,1536,864,,,,,,,,,,,,,,,,,,,,,,down,1,1.82508,1,0,1,1,1,1,html/resources/sequences_IDs/star.png,square ↑,circle →,star ↓,← triangle,down,,,,,,,,,,,,,,,,,,,,,,,,,,,,,,,,,,,,,,,,,,,,,,,,,,,,,,,,,,,,,,
,,,,,44,2020-07-03_17h46.30.137,retriever_ti,2020.1.3,Win32,60,Chrome,1536,864,,,,,,,,,,,,,,,,,,,,,,left,1,2.182295,1,0,2,2,2,1,html/resources/sequences_IDs/square1.png,star ↑,triangle →,circle ↓,← square,left,,,,,,,,,,,,,,,,,,,,,,,,,,,,,,,,,,,,,,,,,,,,,,,,,,,,,,,,,,,,,,
,,,,,44,2020-07-03_17h46.30.137,retriever_ti,2020.1.3,Win32,60,Chrome,1536,864,,,,,,,,,,,,,,,,,,,,,,down,1,2.23457,1,0,3,3,3,1,html/resources/sequences_IDs/triangle.png,star ↑,square →,triangle ↓,← circle,down,,,,,,,,,,,,,,,,,,,,,,,,,,,,,,,,,,,,,,,,,,,,,,,,,,,,,,,,,,,,,,
,,,,,44,2020-07-03_17h46.30.137,retriever_ti,2020.1.3,Win32,60,Chrome,1536,864,,,,,,,,,,,,,,,,,,,,,,,,,,,,,,,,,,,,,0,7.36657,0,0,0,0,1,,,,,,,,,,,,,,,,,,,,,,,,,,,,,,,,,,,,,,,,,,,,,,,,,,,,,,,
,,,,,44,2020-07-03_17h46.30.137,retriever_ti,2020.1.3,Win32,60,Chrome,1536,864,205.13943,9,right,1.29114,glasses,1,205.18695,205.18695,207.6826,0,0,0,0,1,6,7,1,html/resources/stimuli_practice_decision/06_pullover.jpg,html/resources/stimuli_practice_decision/05_glasses.jpg,pullover,glasses,,,,,,,,,,,,,,,,,,,,,,,,,,,,,,,,,,,,,,,,,,,,,,,,,,,,,,,,,,,,,,,,,,,,,,,,,,,,,
,,,,,44,2020-07-03_17h46.30.137,retriever_ti,2020.1.3,Win32,60,Chrome,1536,864,208.685685,10,left,1.22457,pullover,1,208.72721,208.72721,211.224635,0,1,1,1,1,6,2,1,html/resources/stimuli_practice_decision/06_pullover.jpg,html/resources/stimuli_practice_decision/04_beetle.jpg,pullover,beetle,,,,,,,,,,,,,,,,,,,,,,,,,,,,,,,,,,,,,,,,,,,,,,,,,,,,,,,,,,,,,,,,,,,,,,,,,,,,,
,,,,,44,2020-07-03_17h46.30.137,retriever_ti,2020.1.3,Win32,60,Chrome,1536,864,211.72588,11,NaN,NaN,No_response,2,211.7484,211.7484,214.244885,0,2,2,2,1,5,6,1,html/resources/stimuli_practice_decision/02_canary.jpg,html/resources/stimuli_practice_decision/06_pullover.jpg,canary,pullover,,,,,,,,,,,,,,,,,,,,,,,,,,,,,,,,,,,,,,,,,,,,,,,,,,,,,,,,,,,,,,,,,,,,,,,,,,,,,
,,,,,44,2020-07-03_17h46.30.137,retriever_ti,2020.1.3,Win32,60,Chrome,1536,864,214.74884,12,right,1.348795,glasses,0,214.771145,214.771145,217.265935,0,3,3,3,1,8,7,1,html/resources/stimuli_practice_decision/03_squirrel.jpg,html/resources/stimuli_practice_decision/05_glasses.jpg,squirrel,glasses,,,,,,,,,,,,,,,,,,,,,,,,,,,,,,,,,,,,,,,,,,,,,,,,,,,,,,,,,,,,,,,,,,,,,,,,,,,,,
,,,,,44,2020-07-03_17h46.30.137,retriever_ti,2020.1.3,Win32,60,Chrome,1536,864,218.267435,13,left,1.129505,canary,1,218.2899,218.2899,220.787835,0,4,4,4,1,5,3,1,html/resources/stimuli_practice_decision/02_canary.jpg,html/resources/stimuli_practice_decision/07_sock.jpg,canary,sock,,,,,,,,,,,,,,,,,,,,,,,,,,,,,,,,,,,,,,,,,,,,,,,,,,,,,,,,,,,,,,,,,,,,,,,,,,,,,
,,,,,44,2020-07-03_17h46.30.137,retriever_ti,2020.1.3,Win32,60,Chrome,1536,864,221.31242,14,left,1.18057,glasses,0,221.330265,221.330265,223.828205,0,5,5,5,1,7,8,1,html/resources/stimuli_practice_decision/05_glasses.jpg,html/resources/stimuli_practice_decision/03_squirrel.jpg,glasses,squirrel,,,,,,,,,,,,,,,,,,,,,,,,,,,,,,,,,,,,,,,,,,,,,,,,,,,,,,,,,,,,,,,,,,,,,,,,,,,,,
,,,,,44,2020-07-03_17h46.30.137,retriever_ti,2020.1.3,Win32,60,Chrome,1536,864,224.82909,15,right,1.217875,rabbit,0,224.852355,224.852355,227.349095,0,6,6,6,1,5,4,1,html/resources/stimuli_practice_decision/02_canary.jpg,html/resources/stimuli_practice_decision/01_rabbit.jpg,canary,rabbit,,,,,,,,,,,,,,,,,,,,,,,,,,,,,,,,,,,,,,,,,,,,,,,,,,,,,,,,,,,,,,,,,,,,,,,,,,,,,
,,,,,44,2020-07-03_17h46.30.137,retriever_ti,2020.1.3,Win32,60,Chrome,1536,864,228.352985,16,left,0.549905,canary,1,228.373625,228.373625,230.87052,0,7,7,7,1,5,3,1,html/resources/stimuli_practice_decision/02_canary.jpg,html/resources/stimuli_practice_decision/07_sock.jpg,canary,sock,,,,,,,,,,,,,,,,,,,,,,,,,,,,,,,,,,,,,,,,,,,,,,,,,,,,,,,,,,,,,,,,,,,,,,,,,,,,,
,,,,,44,2020-07-03_17h46.30.137,retriever_ti,2020.1.3,Win32,60,Chrome,1536,864,,,,,,,,,,,,,,,,,,,,,,left,1,2.07814,1,0,0,0,2,1,html/resources/sequences_IDs/square1.png,star ↑,triangle →,circle ↓,← square,left,,,,,,,,,,,,,,,,,,,,,,,,,,,,,,,,,,,,,,,,,,,,,,,,,,,,,,,,,,,,,,
,,,,,44,2020-07-03_17h46.30.137,retriever_ti,2020.1.3,Win32,60,Chrome,1536,864,,,,,,,,,,,,,,,,,,,,,,up,1,1.486195,1,0,1,1,0,1,html/resources/sequences_IDs/circle.png,circle ↑,square →,triangle ↓,← star ,up,,,,,,,,,,,,,,,,,,,,,,,,,,,,,,,,,,,,,,,,,,,,,,,,,,,,,,,,,,,,,,
,,,,,44,2020-07-03_17h46.30.137,retriever_ti,2020.1.3,Win32,60,Chrome,1536,864,,,,,,,,,,,,,,,,,,,,,,down,1,1.175915,1,0,2,2,3,1,html/resources/sequences_IDs/triangle.png,star ↑,square →,triangle ↓,← circle,down,,,,,,,,,,,,,,,,,,,,,,,,,,,,,,,,,,,,,,,,,,,,,,,,,,,,,,,,,,,,,,
,,,,,44,2020-07-03_17h46.30.137,retriever_ti,2020.1.3,Win32,60,Chrome,1536,864,,,,,,,,,,,,,,,,,,,,,,down,1,0.9656,1,0,3,3,1,1,html/resources/sequences_IDs/star.png,square ↑,circle →,star ↓,← triangle,down,,,,,,,,,,,,,,,,,,,,,,,,,,,,,,,,,,,,,,,,,,,,,,,,,,,,,,,,,,,,,,
,,,,,44,2020-07-03_17h46.30.137,retriever_ti,2020.1.3,Win32,60,Chrome,1536,864,,,,,,,,,,,,,,,,,,,,,,,,,,,,,,,,,,,,,0,3.9037,1,0,1,0,1,,,,,,,,,,,,,,,,,,,,,,,,,,,,,,,,,,,,,,,,,,,,,,,,,,,,,,,
,,,,,44,2020-07-03_17h46.30.137,retriever_ti,2020.1.3,Win32,60,Chrome,1536,864,,,,,,,,,,,,,,,,,1,,,,,,,,,,,,,,,,,,,,,,,,,,,252.14607,1,right,0.96928,wolf          ,4,1,-3,0,3,252.162355,252.162355,254.662905,0,0,0,0,1,1,7,4,holdfast    ,wolf          ,html/resources/sequences_IDs/B/04_holdfast.jpg,html/resources/sequences_IDs/A/01_wolf.jpg,4,1,2,1,1,1,3,1,0,44,,,,,,,,,,,,,,,,,,,,
,,,,,44,2020-07-03_17h46.30.137,retriever_ti,2020.1.3,Win32,60,Chrome,1536,864,,,,,,,,,,,,,,,,,1,,,,,,,,,,,,,,,,,,,,,,,,,,,255.269815,2,right,1.001155,wolf          ,4,1,1,1,1,255.310865,255.310865,257.8083,0,1,1,1,1,2,3,4,giraffe     ,wolf          ,html/resources/sequences_IDs/B/03_giraffe.jpg,html/resources/sequences_IDs/A/01_wolf.jpg,3,1,1,1,1,1,2,1,0,44,,,,,,,,,,,,,,,,,,,,
,,,,,44,2020-07-03_17h46.30.137,retriever_ti,2020.1.3,Win32,60,Chrome,1536,864,,,,,,,,,,,,,,,,,1,,,,,,,,,,,,,,,,,,,,,,,,,,,258.91563,3,left,1.19373,giraffe     ,3,3,1,1,1,258.958795,258.958795,261.454275,0,2,2,2,1,3,3,2,giraffe     ,hat           ,html/resources/sequences_IDs/B/03_giraffe.jpg,html/resources/sequences_IDs/A/08_hat.jpg,3,8,1,1,3,2,2,7,0,44,,,,,,,,,,,,,,,,,,,,
,,,,,44,2020-07-03_17h46.30.137,retriever_ti,2020.1.3,Win32,60,Chrome,1536,864,,,,,,,,,,,,,,,,,1,,,,,,,,,,,,,,,,,,,,,,,,,,,262.559765,4,right,1.75245,scarf         ,8,6,1,1,1,262.601435,262.601435,265.099155,0,3,3,3,1,4,7,8,holdfast    ,scarf         ,html/resources/sequences_IDs/B/04_holdfast.jpg,html/resources/sequences_IDs/A/06_scarf.jpg,4,6,2,1,3,2,3,5,0,44,,,,,,,,,,,,,,,,,,,,
,,,,,44,2020-07-03_17h46.30.137,retriever_ti,2020.1.3,Win32,60,Chrome,1536,864,,,,,,,,,,,,,,,,,1,,,,,,,,,,,,,,,,,,,,,,,,,,,266.2047,5,left,1.74834,scarf         ,8,6,1,1,1,266.2256,266.2256,268.724265,0,4,4,4,1,5,8,7,scarf         ,holdfast    ,html/resources/sequences_IDs/A/06_scarf.jpg,html/resources/sequences_IDs/B/04_holdfast.jpg,6,4,3,2,2,1,5,3,0,44,,,,,,,,,,,,,,,,,,,,
,,,,,44,2020-07-03_17h46.30.137,retriever_ti,2020.1.3,Win32,60,Chrome,1536,864,,,,,,,,,,,,,,,,,1,,,,,,,,,,,,,,,,,,,,,,,,,,,269.83057,6,left,1.144,wolf          ,4,1,-1,0,0,269.87093,269.87093,272.370855,0,5,5,5,1,6,4,5,wolf          ,phone       ,html/resources/sequences_IDs/A/01_wolf.jpg,html/resources/sequences_IDs/B/09_phone.jpg,1,9,1,1,4,2,1,8,0,44,,,,,,,,,,,,,,,,,,,,
,,,,,44,2020-07-03_17h46.30.137,retriever_ti,2020.1.3,Win32,60,Chrome,1536,864,,,,,,,,,,,,,,,,,1,,,,,,,,,,,,,,,,,,,,,,,,,,,273.47842,7,left,1.58985,phone       ,5,9,-1,0,1,273.499825,273.499825,276.016435,0,6,6,6,1,7,5,6,phone       ,peacock       ,html/resources/sequences_IDs/B/09_phone.jpg,html/resources/sequences_IDs/A/05_peacock.jpg,9,5,4,2,2,1,8,4,1,44,,,,,,,,,,,,,,,,,,,,
,,,,,44,2020-07-03_17h46.30.137,retriever_ti,2020.1.3,Win32,60,Chrome,1536,864,,,,,,,,,,,,,,,,,1,,,,,,,,,,,,,,,,,,,,,,,,,,,277.120355,8,left,1.62464,sport_tshirt,1,7,-6,0,3,277.162835,277.162835,279.662595,0,7,7,7,1,8,1,7,sport_tshirt,holdfast    ,html/resources/sequences_IDs/B/07_sport_tshirt.jpg,html/resources/sequences_IDs/B/04_holdfast.jpg,7,4,3,2,2,1,6,3,0,44,,,,,,,,,,,,,,,,,,,,
,,,,,44,2020-07-03_17h46.30.137,retriever_ti,2020.1.3,Win32,60,Chrome,1536,864,,,,,,,,,,,,,,,,,1,,,,,,,,,,,,,,,,,,,,,,,,,,,280.270225,9,right,1.33942,wolf          ,4,1,-4,0,3,280.29182,280.29182,282.78734,0,8,8,8,1,9,8,4,scarf         ,wolf          ,html/resources/sequences_IDs/A/06_scarf.jpg,html/resources/sequences_IDs/A/01_wolf.jpg,6,1,3,2,1,1,5,1,0,44,,,,,,,,,,,,,,,,,,,,
,,,,,44,2020-07-03_17h46.30.137,retriever_ti,2020.1.3,Win32,60,Chrome,1536,864,,,,,,,,,,,,,,,,,1,,,,,,,,,,,,,,,,,,,,,,,,,,,283.39358,10,right,1.240415,phone       ,5,9,-1,0,0,283.416775,283.416775,285.912525,0,9,9,9,1,10,6,5,peacock       ,phone       ,html/resources/sequences_IDs/A/05_peacock.jpg,html/resources/sequences_IDs/B/09_phone.jpg,5,9,2,1,4,2,4,8,0,44,,,,,,,,,,,,,,,,,,,,
,,,,,44,2020-07-03_17h46.30.137,retriever_ti,2020.1.3,Win32,60,Chrome,1536,864,,,,,,,,,,,,,,,,,1,,,,,,,,,,,,,,,,,,,,,,,,,,,287.018405,11,left,1.31056,wolf          ,4,1,-3,0,3,287.041325,287.041325,289.53734,0,10,10,10,1,11,4,7,wolf          ,holdfast    ,html/resources/sequences_IDs/A/01_wolf.jpg,html/resources/sequences_IDs/B/04_holdfast.jpg,1,4,1,1,2,1,1,3,0,44,,,,,,,,,,,,,,,,,,,,
,,,,,44,2020-07-03_17h46.30.137,retriever_ti,2020.1.3,Win32,60,Chrome,1536,864,,,,,,,,,,,,,,,,,1,,,,,,,,,,,,,,,,,,,,,,,,,,,290.14297,12,left,1.179385,peacock       ,6,5,-2,0,3,290.186495,290.186495,292.683305,0,11,11,11,1,12,6,8,peacock       ,scarf         ,html/resources/sequences_IDs/A/05_peacock.jpg,html/resources/sequences_IDs/A/06_scarf.jpg,5,6,2,1,3,2,4,5,0,44,,,,,,,,,,,,,,,,,,,,
,,,,,44,2020-07-03_17h46.30.137,retriever_ti,2020.1.3,Win32,60,Chrome,1536,864,,,,,,,,,,,,,,,,,1,,,,,,,,,,,,,,,,,,,,,,,,,,,293.29071,13,right,2.11207,sport_tshirt,1,7,-3,0,3,293.32922,293.32922,295.828515,0,12,12,12,1,13,4,1,wolf          ,sport_tshirt,html/resources/sequences_IDs/A/01_wolf.jpg,html/resources/sequences_IDs/B/07_sport_tshirt.jpg,1,7,1,1,3,2,1,6,0,44,,,,,,,,,,,,,,,,,,,,
,,,,,44,2020-07-03_17h46.30.137,retriever_ti,2020.1.3,Win32,60,Chrome,1536,864,,,,,,,,,,,,,,,,,1,,,,,,,,,,,,,,,,,,,,,,,,,,,296.434195,14,right,1.4567,giraffe     ,3,3,-4,0,3,296.457035,296.457035,298.954215,0,13,13,13,1,14,7,3,holdfast    ,giraffe     ,html/resources/sequences_IDs/B/04_holdfast.jpg,html/resources/sequences_IDs/B/03_giraffe.jpg,4,3,2,1,1,1,3,2,0,44,,,,,,,,,,,,,,,,,,,,
,,,,,44,2020-07-03_17h46.30.137,retriever_ti,2020.1.3,Win32,60,Chrome,1536,864,,,,,,,,,,,,,,,,,1,,,,,,,,,,,,,,,,,,,,,,,,,,,299.557995,15,right,1.106045,phone       ,5,9,2,1,3,299.57883,299.57883,302.07822,0,14,14,14,1,15,3,5,giraffe     ,phone       ,html/resources/sequences_IDs/B/03_giraffe.jpg,html/resources/sequences_IDs/B/09_phone.jpg,3,9,1,1,4,2,2,8,0,44,,,,,,,,,,,,,,,,,,,,
,,,,,44,2020-07-03_17h46.30.137,retriever_ti,2020.1.3,Win32,60,Chrome,1536,864,,,,,,,,,,,,,,,,,1,,,,,,,,,,,,,,,,,,,,,,,,,,,302.68426,16,left,1.433285,sport_tshirt,1,7,-7,0,3,302.706535,302.706535,305.20346,0,15,15,15,1,16,1,8,sport_tshirt,scarf         ,html/resources/sequences_IDs/B/07_sport_tshirt.jpg,html/resources/sequences_IDs/A/06_scarf.jpg,7,6,3,2,3,2,6,5,0,44,,,,,,,,,,,,,,,,,,,,
,,,,,44,2020-07-03_17h46.30.137,retriever_ti,2020.1.3,Win32,60,Chrome,1536,864,,,,,,,,,,,,,,,,,1,,,,,,,,,,,,,,,,,,,,,,,,,,,305.81009,17,right,1.565635,sport_tshirt,1,7,-1,0,0,305.830845,305.830845,308.328905,0,16,16,16,1,17,2,1,hat           ,sport_tshirt,html/resources/sequences_IDs/A/08_hat.jpg,html/resources/sequences_IDs/B/07_sport_tshirt.jpg,8,7,3,2,3,2,7,6,0,44,,,,,,,,,,,,,,,,,,,,
,,,,,44,2020-07-03_17h46.30.137,retriever_ti,2020.1.3,Win32,60,Chrome,1536,864,,,,,,,,,,,,,,,,,1,,,,,,,,,,,,,,,,,,,,,,,,,,,309.43281,18,right,1.56905,giraffe     ,3,3,1,1,1,309.47584,309.47584,311.97506,0,17,17,17,1,18,2,3,hat           ,giraffe     ,html/resources/sequences_IDs/A/08_hat.jpg,html/resources/sequences_IDs/B/03_giraffe.jpg,8,3,3,2,1,1,7,2,0,44,,,,,,,,,,,,,,,,,,,,
,,,,,44,2020-07-03_17h46.30.137,retriever_ti,2020.1.3,Win32,60,Chrome,1536,864,,,,,,,,,,,,,,,,,1,,,,,,,,,,,,,,,,,,,,,,,,,,,313.07901,19,right,1.39917,scarf         ,8,6,1,1,1,313.120775,313.120775,315.621045,0,18,18,18,1,19,7,8,holdfast    ,scarf         ,html/resources/sequences_IDs/B/04_holdfast.jpg,html/resources/sequences_IDs/A/06_scarf.jpg,4,6,2,1,3,2,3,5,0,44,,,,,,,,,,,,,,,,,,,,
,,,,,44,2020-07-03_17h46.30.137,retriever_ti,2020.1.3,Win32,60,Chrome,1536,864,,,,,,,,,,,,,,,,,1,,,,,,,,,,,,,,,,,,,,,,,,,,,316.725715,20,left,0.842585,peacock       ,6,5,5,1,3,316.74783,316.74783,319.245035,0,19,19,19,1,20,6,1,peacock       ,sport_tshirt,html/resources/sequences_IDs/A/05_peacock.jpg,html/resources/sequences_IDs/B/07_sport_tshirt.jpg,5,7,2,1,3,2,4,6,0,44,,,,,,,,,,,,,,,,,,,,
,,,,,44,2020-07-03_17h46.30.137,retriever_ti,2020.1.3,Win32,60,Chrome,1536,864,,,,,,,,,,,,,,,,,1,,,,,,,,,,,,,,,,,,,,,,,,,,,319.852395,21,left,0.84293,phone       ,5,9,1,1,1,319.894235,319.894235,322.39186,0,20,20,20,1,21,5,4,phone       ,wolf          ,html/resources/sequences_IDs/B/09_phone.jpg,html/resources/sequences_IDs/A/01_wolf.jpg,9,1,4,2,1,1,8,1,0,44,,,,,,,,,,,,,,,,,,,,
,,,,,44,2020-07-03_17h46.30.137,retriever_ti,2020.1.3,Win32,60,Chrome,1536,864,,,,,,,,,,,,,,,,,1,,,,,,,,,,,,,,,,,,,,,,,,,,,323.49699,22,left,0.95018,wolf          ,4,1,-4,0,3,323.53998,323.53998,326.037975,0,21,21,21,1,22,4,8,wolf          ,scarf         ,html/resources/sequences_IDs/A/01_wolf.jpg,html/resources/sequences_IDs/A/06_scarf.jpg,1,6,1,1,3,2,1,5,0,44,,,,,,,,,,,,,,,,,,,,
,,,,,44,2020-07-03_17h46.30.137,retriever_ti,2020.1.3,Win32,60,Chrome,1536,864,,,,,,,,,,,,,,,,,1,,,,,,,,,,,,,,,,,,,,,,,,,,,326.64533,23,right,0.932555,giraffe     ,3,3,-1,0,0,326.686005,326.686005,329.1825,0,22,22,22,1,23,4,3,wolf          ,giraffe     ,html/resources/sequences_IDs/A/01_wolf.jpg,html/resources/sequences_IDs/B/03_giraffe.jpg,1,3,1,1,1,1,1,2,0,44,,,,,,,,,,,,,,,,,,,,
,,,,,44,2020-07-03_17h46.30.137,retriever_ti,2020.1.3,Win32,60,Chrome,1536,864,,,,,,,,,,,,,,,,,1,,,,,,,,,,,,,,,,,,,,,,,,,,,330.28788,24,right,1.236125,sport_tshirt,1,7,-1,0,0,330.33053,330.33053,332.82867,0,23,23,23,1,24,2,1,hat           ,sport_tshirt,html/resources/sequences_IDs/A/08_hat.jpg,html/resources/sequences_IDs/B/07_sport_tshirt.jpg,8,7,3,2,3,2,7,6,0,44,,,,,,,,,,,,,,,,,,,,
,,,,,44,2020-07-03_17h46.30.137,retriever_ti,2020.1.3,Win32,60,Chrome,1536,864,,,,,,,,,,,,,,,,,1,,,,,,,,,,,,,,,,,,,,,,,,,,,333.935815,25,left,1.081725,peacock       ,6,5,-1,0,1,333.978325,333.978325,336.474595,0,24,24,24,1,25,6,7,peacock       ,holdfast    ,html/resources/sequences_IDs/A/05_peacock.jpg,html/resources/sequences_IDs/B/04_holdfast.jpg,5,4,2,1,2,1,4,3,1,44,,,,,,,,,,,,,,,,,,,,
,,,,,44,2020-07-03_17h46.30.137,retriever_ti,2020.1.3,Win32,60,Chrome,1536,864,,,,,,,,,,,,,,,,,1,,,,,,,,,,,,,,,,,,,,,,,,,,,337.580795,26,right,1.21502,phone       ,5,9,4,1,3,337.62363,337.62363,340.12129,0,25,25,25,1,26,1,5,sport_tshirt,phone       ,html/resources/sequences_IDs/B/07_sport_tshirt.jpg,html/resources/sequences_IDs/B/09_phone.jpg,7,9,3,2,4,2,6,8,0,44,,,,,,,,,,,,,,,,,,,,
,,,,,44,2020-07-03_17h46.30.137,retriever_ti,2020.1.3,Win32,60,Chrome,1536,864,,,,,,,,,,,,,,,,,1,,,,,,,,,,,,,,,,,,,,,,,,,,,340.728795,27,right,1.00577,peacock       ,6,5,-1,0,0,340.750275,340.750275,343.24545,0,26,26,26,1,27,7,6,holdfast    ,peacock       ,html/resources/sequences_IDs/B/04_holdfast.jpg,html/resources/sequences_IDs/A/05_peacock.jpg,4,5,2,1,2,1,3,4,0,44,,,,,,,,,,,,,,,,,,,,
,,,,,44,2020-07-03_17h46.30.137,retriever_ti,2020.1.3,Win32,60,Chrome,1536,864,,,,,,,,,,,,,,,,,1,,,,,,,,,,,,,,,,,,,,,,,,,,,344.350655,28,right,1.09601,peacock       ,6,5,4,1,3,344.39416,344.39416,346.89111,0,27,27,27,1,28,2,6,hat           ,peacock       ,html/resources/sequences_IDs/A/08_hat.jpg,html/resources/sequences_IDs/A/05_peacock.jpg,8,5,3,2,2,1,7,4,0,44,,,,,,,,,,,,,,,,,,,,
,,,,,44,2020-07-03_17h46.30.137,retriever_ti,2020.1.3,Win32,60,Chrome,1536,864,,,,,,,,,,,,,,,,,1,,,,,,,,,,,,,,,,,,,,,,,,,,,347.497325,29,left,1.20589,phone       ,5,9,1,1,0,347.519205,347.519205,350.016375,0,28,28,28,1,29,5,4,phone       ,wolf          ,html/resources/sequences_IDs/B/09_phone.jpg,html/resources/sequences_IDs/A/01_wolf.jpg,9,1,4,2,1,1,8,1,1,44,,,,,,,,,,,,,,,,,,,,
,,,,,44,2020-07-03_17h46.30.137,retriever_ti,2020.1.3,Win32,60,Chrome,1536,864,,,,,,,,,,,,,,,,,1,,,,,,,,,,,,,,,,,,,,,,,,,,,351.121825,30,right,0.964885,giraffe     ,3,3,-5,0,3,351.14409,351.14409,353.64151,0,29,29,29,1,30,8,3,scarf         ,giraffe     ,html/resources/sequences_IDs/A/06_scarf.jpg,html/resources/sequences_IDs/B/03_giraffe.jpg,6,3,3,2,1,1,5,2,0,44,,,,,,,,,,,,,,,,,,,,
,,,,,44,2020-07-03_17h46.30.137,retriever_ti,2020.1.3,Win32,60,Chrome,1536,864,,,,,,,,,,,,,,,,,1,,,,,,,,,,,,,,,,,,,,,,,,,,,354.24616,31,right,1.485895,peacock       ,6,5,1,1,1,354.267045,354.267045,356.767005,0,30,30,30,1,31,5,6,phone       ,peacock       ,html/resources/sequences_IDs/B/09_phone.jpg,html/resources/sequences_IDs/A/05_peacock.jpg,9,5,4,2,2,1,8,4,0,44,,,,,,,,,,,,,,,,,,,,
,,,,,44,2020-07-03_17h46.30.137,retriever_ti,2020.1.3,Win32,60,Chrome,1536,864,,,,,,,,,,,,,,,,,1,,,,,,,,,,,,,,,,,,,,,,,,,,,357.87295,32,left,1.127875,hat           ,2,8,-1,0,1,357.91589,357.91589,360.41196,0,31,31,31,1,32,2,3,hat           ,giraffe     ,html/resources/sequences_IDs/A/08_hat.jpg,html/resources/sequences_IDs/B/03_giraffe.jpg,8,3,3,2,1,1,7,2,1,44,,,,,,,,,,,,,,,,,,,,
,,,,,44,2020-07-03_17h46.30.137,retriever_ti,2020.1.3,Win32,60,Chrome,1536,864,,,,,,,,,,,,,,,,,1,,,,,,,,,,,,,,,,,,,,,,,,,,,361.518115,33,left,0.72223,holdfast    ,7,4,2,1,3,361.540165,361.540165,364.037545,0,32,32,32,1,33,7,5,holdfast    ,phone       ,html/resources/sequences_IDs/B/04_holdfast.jpg,html/resources/sequences_IDs/B/09_phone.jpg,4,9,2,1,4,2,3,8,0,44,,,,,,,,,,,,,,,,,,,,
,,,,,44,2020-07-03_17h46.30.137,retriever_ti,2020.1.3,Win32,60,Chrome,1536,864,,,,,,,,,,,,,,,,,1,,,,,,,,,,,,,,,,,,,,,,,,,,,364.641375,34,right,1.249225,hat           ,2,8,-3,0,3,364.68377,364.68377,367.18242,0,33,33,33,1,34,5,2,phone       ,hat           ,html/resources/sequences_IDs/B/09_phone.jpg,html/resources/sequences_IDs/A/08_hat.jpg,9,8,4,2,3,2,8,7,0,44,,,,,,,,,,,,,,,,,,,,
,,,,,44,2020-07-03_17h46.30.137,retriever_ti,2020.1.3,Win32,60,Chrome,1536,864,,,,,,,,,,,,,,,,,1,,,,,,,,,,,,,,,,,,,,,,,,,,,367.79045,35,left,1.2932,sport_tshirt,1,7,-3,0,3,367.811495,367.811495,370.30744,0,34,34,34,1,35,1,4,sport_tshirt,wolf          ,html/resources/sequences_IDs/B/07_sport_tshirt.jpg,html/resources/sequences_IDs/A/01_wolf.jpg,7,1,3,2,1,1,6,1,0,44,,,,,,,,,,,,,,,,,,,,
,,,,,44,2020-07-03_17h46.30.137,retriever_ti,2020.1.3,Win32,60,Chrome,1536,864,,,,,,,,,,,,,,,,,1,,,,,,,,,,,,,,,,,,,,,,,,,,,370.91406,36,left,1.306965,phone       ,5,9,1,1,1,370.958025,370.958025,373.45526,0,35,35,35,1,36,5,4,phone       ,wolf          ,html/resources/sequences_IDs/B/09_phone.jpg,html/resources/sequences_IDs/A/01_wolf.jpg,9,1,4,2,1,1,8,1,0,44,,,,,,,,,,,,,,,,,,,,
,,,,,44,2020-07-03_17h46.30.137,retriever_ti,2020.1.3,Win32,60,Chrome,1536,864,,,,,,,,,,,,,,,,,1,,,,,,,,,,,,,,,,,,,,,,,,,,,374.558775,37,left,1.2302,phone       ,5,9,2,1,3,374.60329,374.60329,377.099185,0,36,36,36,1,37,5,3,phone       ,giraffe     ,html/resources/sequences_IDs/B/09_phone.jpg,html/resources/sequences_IDs/B/03_giraffe.jpg,9,3,4,2,1,1,8,2,0,44,,,,,,,,,,,,,,,,,,,,
,,,,,44,2020-07-03_17h46.30.137,retriever_ti,2020.1.3,Win32,60,Chrome,1536,864,,,,,,,,,,,,,,,,,1,,,,,,,,,,,,,,,,,,,,,,,,,,,377.705165,38,right,0.844125,hat           ,2,8,1,1,1,377.74648,377.74648,380.24522,0,37,37,37,1,38,1,2,sport_tshirt,hat           ,html/resources/sequences_IDs/B/07_sport_tshirt.jpg,html/resources/sequences_IDs/A/08_hat.jpg,7,8,3,2,3,2,6,7,0,44,,,,,,,,,,,,,,,,,,,,
,,,,,44,2020-07-03_17h46.30.137,retriever_ti,2020.1.3,Win32,60,Chrome,1536,864,,,,,,,,,,,,,,,,,1,,,,,,,,,,,,,,,,,,,,,,,,,,,381.351685,39,left,0.90923,holdfast    ,7,4,6,1,3,381.394055,381.394055,383.891525,0,38,38,38,1,39,7,1,holdfast    ,sport_tshirt,html/resources/sequences_IDs/B/04_holdfast.jpg,html/resources/sequences_IDs/B/07_sport_tshirt.jpg,4,7,2,1,3,2,3,6,0,44,,,,,,,,,,,,,,,,,,,,
,,,,,44,2020-07-03_17h46.30.137,retriever_ti,2020.1.3,Win32,60,Chrome,1536,864,,,,,,,,,,,,,,,,,1,,,,,,,,,,,,,,,,,,,,,,,,,,,384.496855,40,right,1.128895,hat           ,2,8,-2,0,3,384.5398,384.5398,387.037085,0,39,39,39,1,40,4,2,wolf          ,hat           ,html/resources/sequences_IDs/A/01_wolf.jpg,html/resources/sequences_IDs/A/08_hat.jpg,1,8,1,1,3,2,1,7,0,44,,,,,,,,,,,,,,,,,,,,
,,,,,44,2020-07-03_17h46.30.137,retriever_ti,2020.1.3,Win32,60,Chrome,1536,864,,,,,,,,,,,,,,,,,1,,,,,,,,,,,,,,,,,,,,,,,,,,,387.645785,41,left,0.95243,hat           ,2,8,-6,0,3,387.66673,387.66673,390.16252,0,40,40,40,1,41,2,8,hat           ,scarf         ,html/resources/sequences_IDs/A/08_hat.jpg,html/resources/sequences_IDs/A/06_scarf.jpg,8,6,3,2,3,2,7,5,0,44,,,,,,,,,,,,,,,,,,,,
,,,,,44,2020-07-03_17h46.30.137,retriever_ti,2020.1.3,Win32,60,Chrome,1536,864,,,,,,,,,,,,,,,,,1,,,,,,,,,,,,,,,,,,,,,,,,,,,390.76757,42,left,0.948585,peacock       ,6,5,3,1,3,390.81068,390.81068,393.30789,0,41,41,41,1,42,6,3,peacock       ,giraffe     ,html/resources/sequences_IDs/A/05_peacock.jpg,html/resources/sequences_IDs/B/03_giraffe.jpg,5,3,2,1,1,1,4,2,0,44,,,,,,,,,,,,,,,,,,,,
,,,,,44,2020-07-03_17h46.30.137,retriever_ti,2020.1.3,Win32,60,Chrome,1536,864,,,,,,,,,,,,,,,,,1,,,,,,,,,,,,,,,,,,,,,,,,,,,393.91572,43,right,0.627695,peacock       ,6,5,-1,0,0,393.93661,393.93661,396.432355,0,42,42,42,1,43,7,6,holdfast    ,peacock       ,html/resources/sequences_IDs/B/04_holdfast.jpg,html/resources/sequences_IDs/A/05_peacock.jpg,4,5,2,1,2,1,3,4,0,44,,,,,,,,,,,,,,,,,,,,
,,,,,44,2020-07-03_17h46.30.137,retriever_ti,2020.1.3,Win32,60,Chrome,1536,864,,,,,,,,,,,,,,,,,1,,,,,,,,,,,,,,,,,,,,,,,,,,,397.53763,44,right,0.754715,hat           ,2,8,1,1,1,397.558985,397.558985,400.05802,0,43,43,43,1,44,1,2,sport_tshirt,hat           ,html/resources/sequences_IDs/B/07_sport_tshirt.jpg,html/resources/sequences_IDs/A/08_hat.jpg,7,8,3,2,3,2,6,7,0,44,,,,,,,,,,,,,,,,,,,,
,,,,,44,2020-07-03_17h46.30.137,retriever_ti,2020.1.3,Win32,60,Chrome,1536,864,,,,,,,,,,,,,,,,,1,,,,,,,,,,,,,,,,,,,,,,,,,,,401.16466,45,right,1.19503,giraffe     ,3,3,-1,0,0,401.20606,401.20606,403.70395,0,44,44,44,1,45,4,3,wolf          ,giraffe     ,html/resources/sequences_IDs/A/01_wolf.jpg,html/resources/sequences_IDs/B/03_giraffe.jpg,1,3,1,1,1,1,1,2,0,44,,,,,,,,,,,,,,,,,,,,
,,,,,44,2020-07-03_17h46.30.137,retriever_ti,2020.1.3,Win32,60,Chrome,1536,864,,,,,,,,,,,,,,,,,1,,,,,,,,,,,,,,,,,,,,,,,,,,,404.81052,46,left,1.24325,hat           ,2,8,-5,0,3,404.85401,404.85401,407.349415,0,45,45,45,1,46,2,7,hat           ,holdfast    ,html/resources/sequences_IDs/A/08_hat.jpg,html/resources/sequences_IDs/B/04_holdfast.jpg,8,4,3,2,2,1,7,3,0,44,,,,,,,,,,,,,,,,,,,,
,,,,,44,2020-07-03_17h46.30.137,retriever_ti,2020.1.3,Win32,60,Chrome,1536,864,,,,,,,,,,,,,,,,,1,,,,,,,,,,,,,,,,,,,,,,,,,,,407.957015,47,right,0.91955,holdfast    ,7,4,2,1,3,407.97805,407.97805,410.475225,0,46,46,46,1,47,5,7,phone       ,holdfast    ,html/resources/sequences_IDs/B/09_phone.jpg,html/resources/sequences_IDs/B/04_holdfast.jpg,9,4,4,2,2,1,8,3,0,44,,,,,,,,,,,,,,,,,,,,
,,,,,44,2020-07-03_17h46.30.137,retriever_ti,2020.1.3,Win32,60,Chrome,1536,864,,,,,,,,,,,,,,,,,1,,,,,,,,,,,,,,,,,,,,,,,,,,,411.081335,48,right,1.016235,hat           ,2,8,-6,0,3,411.12498,411.12498,413.621305,0,47,47,47,1,48,8,2,scarf         ,hat           ,html/resources/sequences_IDs/A/06_scarf.jpg,html/resources/sequences_IDs/A/08_hat.jpg,6,8,3,2,3,2,5,7,0,44,,,,,,,,,,,,,,,,,,,,
,,,,,44,2020-07-03_17h46.30.137,retriever_ti,2020.1.3,Win32,60,Chrome,1536,864,,,,,,,,,,,,,,,,,1,,,,,,,,,,,,,,,,,,,,,,,,,,,414.22898,49,left,1.204825,giraffe     ,3,3,-5,0,3,414.26959,414.26959,416.76761,0,48,48,48,1,49,3,8,giraffe     ,scarf         ,html/resources/sequences_IDs/B/03_giraffe.jpg,html/resources/sequences_IDs/A/06_scarf.jpg,3,6,1,1,3,2,2,5,0,44,,,,,,,,,,,,,,,,,,,,
,,,,,44,2020-07-03_17h46.30.137,retriever_ti,2020.1.3,Win32,60,Chrome,1536,864,,,,,,,,,,,,,,,,,1,,,,,,,,,,,,,,,,,,,,,,,,,,,417.37213,50,right,1.128955,holdfast    ,7,4,1,1,1,417.415485,417.415485,419.912365,0,49,49,49,1,50,6,7,peacock       ,holdfast    ,html/resources/sequences_IDs/A/05_peacock.jpg,html/resources/sequences_IDs/B/04_holdfast.jpg,5,4,2,1,2,1,4,3,0,44,,,,,,,,,,,,,,,,,,,,
,,,,,44,2020-07-03_17h46.30.137,retriever_ti,2020.1.3,Win32,60,Chrome,1536,864,,,,,,,,,,,,,,,,,1,,,,,,,,,,,,,,,,,,,,,,,,,,,421.01873,51,left,1.438085,giraffe     ,3,3,-1,0,1,421.04039,421.04039,423.53751,0,50,50,50,1,51,3,4,giraffe     ,wolf          ,html/resources/sequences_IDs/B/03_giraffe.jpg,html/resources/sequences_IDs/A/01_wolf.jpg,3,1,1,1,1,1,2,1,1,44,,,,,,,,,,,,,,,,,,,,
,,,,,44,2020-07-03_17h46.30.137,retriever_ti,2020.1.3,Win32,60,Chrome,1536,864,,,,,,,,,,,,,,,,,1,,,,,,,,,,,,,,,,,,,,,,,,,,,424.641235,52,right,1.155315,phone       ,5,9,1,1,1,424.683775,424.683775,427.183695,0,51,51,51,1,52,4,5,wolf          ,phone       ,html/resources/sequences_IDs/A/01_wolf.jpg,html/resources/sequences_IDs/B/09_phone.jpg,1,9,1,1,4,2,1,8,0,44,,,,,,,,,,,,,,,,,,,,
,,,,,44,2020-07-03_17h46.30.137,retriever_ti,2020.1.3,Win32,60,Chrome,1536,864,,,,,,,,,,,,,,,,,1,,,,,,,,,,,,,,,,,,,,,,,,,,,428.28807,53,right,0.848905,holdfast    ,7,4,-1,0,1,428.308585,428.308585,430.808215,0,52,52,52,1,53,8,7,scarf         ,holdfast    ,html/resources/sequences_IDs/A/06_scarf.jpg,html/resources/sequences_IDs/B/04_holdfast.jpg,6,4,3,2,2,1,5,3,1,44,,,,,,,,,,,,,,,,,,,,
,,,,,44,2020-07-03_17h46.30.137,retriever_ti,2020.1.3,Win32,60,Chrome,1536,864,,,,,,,,,,,,,,,,,1,,,,,,,,,,,,,,,,,,,,,,,,,,,431.9136,54,left,1.292185,peacock       ,6,5,2,1,3,431.954555,431.954555,434.45369,0,53,53,53,1,54,6,4,peacock       ,wolf          ,html/resources/sequences_IDs/A/05_peacock.jpg,html/resources/sequences_IDs/A/01_wolf.jpg,5,1,2,1,1,1,4,1,0,44,,,,,,,,,,,,,,,,,,,,
,,,,,44,2020-07-03_17h46.30.137,retriever_ti,2020.1.3,Win32,60,Chrome,1536,864,,,,,,,,,,,,,,,,,1,,,,,,,,,,,,,,,,,,,,,,,,,,,435.05905,55,right,0.996945,hat           ,2,8,-4,0,3,435.0799,435.0799,437.579275,0,54,54,54,1,55,6,2,peacock       ,hat           ,html/resources/sequences_IDs/A/05_peacock.jpg,html/resources/sequences_IDs/A/08_hat.jpg,5,8,2,1,3,2,4,7,0,44,,,,,,,,,,,,,,,,,,,,
,,,,,44,2020-07-03_17h46.30.137,retriever_ti,2020.1.3,Win32,60,Chrome,1536,864,,,,,,,,,,,,,,,,,1,,,,,,,,,,,,,,,,,,,,,,,,,,,438.18466,56,left,0.824525,hat           ,2,8,-2,0,3,438.20787,438.20787,440.70384,0,55,55,55,1,56,2,4,hat           ,wolf          ,html/resources/sequences_IDs/A/08_hat.jpg,html/resources/sequences_IDs/A/01_wolf.jpg,8,1,3,2,1,1,7,1,0,44,,,,,,,,,,,,,,,,,,,,
,,,,,44,2020-07-03_17h46.30.137,retriever_ti,2020.1.3,Win32,60,Chrome,1536,864,,,,,,,,,,,,,,,,,1,,,,,,,,,,,,,,,,,,,,,,,,,,,441.30866,57,right,1.09888,giraffe     ,3,3,2,1,3,441.352895,441.352895,443.849955,0,56,56,56,1,57,1,3,sport_tshirt,giraffe     ,html/resources/sequences_IDs/B/07_sport_tshirt.jpg,html/resources/sequences_IDs/B/03_giraffe.jpg,7,3,3,2,1,1,6,2,0,44,,,,,,,,,,,,,,,,,,,,
,,,,,44,2020-07-03_17h46.30.137,retriever_ti,2020.1.3,Win32,60,Chrome,1536,864,,,,,,,,,,,,,,,,,1,,,,,,,,,,,,,,,,,,,,,,,,,,,444.45558,58,right,1.13511,holdfast    ,7,4,-1,0,0,444.478255,444.478255,446.975075,0,57,57,57,1,58,8,7,scarf         ,holdfast    ,html/resources/sequences_IDs/A/06_scarf.jpg,html/resources/sequences_IDs/B/04_holdfast.jpg,6,4,3,2,2,1,5,3,0,44,,,,,,,,,,,,,,,,,,,,
,,,,,44,2020-07-03_17h46.30.137,retriever_ti,2020.1.3,Win32,60,Chrome,1536,864,,,,,,,,,,,,,,,,,1,,,,,,,,,,,,,,,,,,,,,,,,,,,448.079595,59,right,0.716175,scarf         ,8,6,3,1,3,448.1026,448.1026,450.599995,0,58,58,58,1,59,5,8,phone       ,scarf         ,html/resources/sequences_IDs/B/09_phone.jpg,html/resources/sequences_IDs/A/06_scarf.jpg,9,6,4,2,3,2,8,5,0,44,,,,,,,,,,,,,,,,,,,,
,,,,,44,2020-07-03_17h46.30.137,retriever_ti,2020.1.3,Win32,60,Chrome,1536,864,,,,,,,,,,,,,,,,,1,,,,,,,,,,,,,,,,,,,,,,,,,,,451.205545,60,left,0.97422,scarf         ,8,6,7,1,3,451.24628,451.24628,453.74553,0,59,59,59,1,60,8,1,scarf         ,sport_tshirt,html/resources/sequences_IDs/A/06_scarf.jpg,html/resources/sequences_IDs/B/07_sport_tshirt.jpg,6,7,3,2,3,2,5,6,0,44,,,,,,,,,,,,,,,,,,,,
,,,,,44,2020-07-03_17h46.30.137,retriever_ti,2020.1.3,Win32,60,Chrome,1536,864,,,,,,,,,,,,,,,,,1,,,,,,,,,,,,,,,,,,,,,,,,,,,454.350475,61,right,1.748885,peacock       ,6,5,1,1,1,454.39257,454.39257,456.91263,0,60,60,60,1,61,5,6,phone       ,peacock       ,html/resources/sequences_IDs/B/09_phone.jpg,html/resources/sequences_IDs/A/05_peacock.jpg,9,5,4,2,2,1,8,4,0,44,,,,,,,,,,,,,,,,,,,,
,,,,,44,2020-07-03_17h46.30.137,retriever_ti,2020.1.3,Win32,60,Chrome,1536,864,,,,,,,,,,,,,,,,,1,,,,,,,,,,,,,,,,,,,,,,,,,,,458.28961,62,NaN,NaN,No_response,NaN,NaN,NaN,2,2,458.3515,458.3515,461.10257,0,61,61,61,1,62,3,6,giraffe     ,peacock       ,html/resources/sequences_IDs/B/03_giraffe.jpg,html/resources/sequences_IDs/A/05_peacock.jpg,3,5,1,1,2,1,2,4,0,44,,,,,,,,,,,,,,,,,,,,
,,,,,44,2020-07-03_17h46.30.137,retriever_ti,2020.1.3,Win32,60,Chrome,1536,864,,,,,,,,,,,,,,,,,1,,,,,,,,,,,,,,,,,,,,,,,,,,,462.20574,63,left,1.23889,hat           ,2,8,-3,0,3,462.226255,462.226255,464.724355,0,62,62,62,1,63,2,5,hat           ,phone       ,html/resources/sequences_IDs/A/08_hat.jpg,html/resources/sequences_IDs/B/09_phone.jpg,8,9,3,2,4,2,7,8,0,44,,,,,,,,,,,,,,,,,,,,
,,,,,44,2020-07-03_17h46.30.137,retriever_ti,2020.1.3,Win32,60,Chrome,1536,864,,,,,,,,,,,,,,,,,1,,,,,,,,,,,,,,,,,,,,,,,,,,,465.329105,64,left,1.014275,scarf         ,8,6,3,1,3,465.37599,465.37599,467.87109,0,63,63,63,1,64,8,5,scarf         ,phone       ,html/resources/sequences_IDs/A/06_scarf.jpg,html/resources/sequences_IDs/B/09_phone.jpg,6,9,3,2,4,2,5,8,0,44,,,,,,,,,,,,,,,,,,,,
,,,,,44,2020-07-03_17h46.30.137,retriever_ti,2020.1.3,Win32,60,Chrome,1536,864,,,,,,,,,,,,,,,,,1,,,,,,,,,,,,,,,,,,,,,,,,,,,468.47961,65,left,0.90803,hat           ,2,8,-1,0,0,468.522165,468.522165,471.025635,0,64,64,64,1,65,2,3,hat           ,giraffe     ,html/resources/sequences_IDs/A/08_hat.jpg,html/resources/sequences_IDs/B/03_giraffe.jpg,8,3,3,2,1,1,7,2,0,44,,,,,,,,,,,,,,,,,,,,
,,,,,44,2020-07-03_17h46.30.137,retriever_ti,2020.1.3,Win32,60,Chrome,1536,864,,,,,,,,,,,,,,,,,1,,,,,,,,,,,,,,,,,,,,,,,,,,,472.125655,66,right,1.4392,peacock       ,6,5,-2,0,3,472.171125,472.171125,474.72138,0,65,65,65,1,66,8,6,scarf         ,peacock       ,html/resources/sequences_IDs/A/06_scarf.jpg,html/resources/sequences_IDs/A/05_peacock.jpg,6,5,3,2,2,1,5,4,0,44,,,,,,,,,,,,,,,,,,,,
,,,,,44,2020-07-03_17h46.30.137,retriever_ti,2020.1.3,Win32,60,Chrome,1536,864,,,,,,,,,,,,,,,,,1,,,,,,,,,,,,,,,,,,,,,,,,,,,475.33065,67,NaN,NaN,No_response,NaN,NaN,NaN,2,2,475.37549,475.37549,479.75401,0,66,66,66,1,67,2,1,hat           ,sport_tshirt,html/resources/sequences_IDs/A/08_hat.jpg,html/resources/sequences_IDs/B/07_sport_tshirt.jpg,8,7,3,2,3,2,7,6,1,44,,,,,,,,,,,,,,,,,,,,
,,,,,44,2020-07-03_17h46.30.137,retriever_ti,2020.1.3,Win32,60,Chrome,1536,864,,,,,,,,,,,,,,,,,1,,,,,,,,,,,,,,,,,,,,,,,,,,,480.861105,68,left,0.00152,giraffe     ,3,3,1,1,1,480.877125,480.877125,483.372395,0,67,67,67,1,68,3,2,giraffe     ,hat           ,html/resources/sequences_IDs/B/03_giraffe.jpg,html/resources/sequences_IDs/A/08_hat.jpg,3,8,1,1,3,2,2,7,0,44,,,,,,,,,,,,,,,,,,,,
,,,,,44,2020-07-03_17h46.30.137,retriever_ti,2020.1.3,Win32,60,Chrome,1536,864,,,,,,,,,,,,,,,,,1,,,,,,,,,,,,,,,,,,,,,,,,,,,484.461865,69,left,0.894585,giraffe     ,3,3,-1,0,0,484.495625,484.495625,486.98982,0,68,68,68,1,69,3,4,giraffe     ,wolf          ,html/resources/sequences_IDs/B/03_giraffe.jpg,html/resources/sequences_IDs/A/01_wolf.jpg,3,1,1,1,1,1,2,1,0,44,,,,,,,,,,,,,,,,,,,,
,,,,,44,2020-07-03_17h46.30.137,retriever_ti,2020.1.3,Win32,60,Chrome,1536,864,,,,,,,,,,,,,,,,,1,,,,,,,,,,,,,,,,,,,,,,,,,,,488.092475,70,right,0.78643,holdfast    ,7,4,4,1,3,488.108335,488.108335,490.60814,0,69,69,69,1,70,3,7,giraffe     ,holdfast    ,html/resources/sequences_IDs/B/03_giraffe.jpg,html/resources/sequences_IDs/B/04_holdfast.jpg,3,4,1,1,2,1,2,3,0,44,,,,,,,,,,,,,,,,,,,,
,,,,,44,2020-07-03_17h46.30.137,retriever_ti,2020.1.3,Win32,60,Chrome,1536,864,,,,,,,,,,,,,,,,,1,,,,,,,,,,,,,,,,,,,,,,,,,,,491.20933,71,left,1.15619,phone       ,5,9,4,1,3,491.22661,491.22661,493.742685,0,70,70,70,1,71,5,1,phone       ,sport_tshirt,html/resources/sequences_IDs/B/09_phone.jpg,html/resources/sequences_IDs/B/07_sport_tshirt.jpg,9,7,4,2,3,2,8,6,0,44,,,,,,,,,,,,,,,,,,,,
,,,,,44,2020-07-03_17h46.30.137,retriever_ti,2020.1.3,Win32,60,Chrome,1536,864,,,,,,,,,,,,,,,,,1,,,,,,,,,,,,,,,,,,,,,,,,,,,494.34365,72,left,1.22524,holdfast    ,7,4,5,1,3,494.37765,494.37765,496.877235,0,71,71,71,1,72,7,2,holdfast    ,hat           ,html/resources/sequences_IDs/B/04_holdfast.jpg,html/resources/sequences_IDs/A/08_hat.jpg,4,8,2,1,3,2,3,7,0,44,,,,,,,,,,,,,,,,,,,,
,,,,,44,2020-07-03_17h46.30.137,retriever_ti,2020.1.3,Win32,60,Chrome,1536,864,,,,,,,,,,,,,,,,,1,,,,,,,,,,,,,,,,,,,,,,,,,,,497.47926,73,left,1.377525,giraffe     ,3,3,2,1,3,497.496555,497.496555,499.994995,0,72,72,72,1,73,3,1,giraffe     ,sport_tshirt,html/resources/sequences_IDs/B/03_giraffe.jpg,html/resources/sequences_IDs/B/07_sport_tshirt.jpg,3,7,1,1,3,2,2,6,0,44,,,,,,,,,,,,,,,,,,,,
,,,,,44,2020-07-03_17h46.30.137,retriever_ti,2020.1.3,Win32,60,Chrome,1536,864,,,,,,,,,,,,,,,,,1,,,,,,,,,,,,,,,,,,,,,,,,,,,500.595775,74,left,1.09049,peacock       ,6,5,1,1,1,500.612885,500.612885,503.113205,0,73,73,73,1,74,6,5,peacock       ,phone       ,html/resources/sequences_IDs/A/05_peacock.jpg,html/resources/sequences_IDs/B/09_phone.jpg,5,9,2,1,4,2,4,8,0,44,,,,,,,,,,,,,,,,,,,,
,,,,,44,2020-07-03_17h46.30.137,retriever_ti,2020.1.3,Win32,60,Chrome,1536,864,,,,,,,,,,,,,,,,,1,,,,,,,,,,,,,,,,,,,,,,,,,,,504.213905,75,right,0.98515,holdfast    ,7,4,1,1,1,504.231685,504.231685,506.731375,0,74,74,74,1,75,6,7,peacock       ,holdfast    ,html/resources/sequences_IDs/A/05_peacock.jpg,html/resources/sequences_IDs/B/04_holdfast.jpg,5,4,2,1,2,1,4,3,0,44,,,,,,,,,,,,,,,,,,,,
,,,,,44,2020-07-03_17h46.30.137,retriever_ti,2020.1.3,Win32,60,Chrome,1536,864,,,,,,,,,,,,,,,,,1,,,,,,,,,,,,,,,,,,,,,,,,,,,507.832865,76,right,0.983075,peacock       ,6,5,5,1,3,507.86944,507.86944,510.3657,0,75,75,75,1,76,1,6,sport_tshirt,peacock       ,html/resources/sequences_IDs/B/07_sport_tshirt.jpg,html/resources/sequences_IDs/A/05_peacock.jpg,7,5,3,2,2,1,6,4,0,44,,,,,,,,,,,,,,,,,,,,
,,,,,44,2020-07-03_17h46.30.137,retriever_ti,2020.1.3,Win32,60,Chrome,1536,864,,,,,,,,,,,,,,,,,1,,,,,,,,,,,,,,,,,,,,,,,,,,,510.96622,77,right,1.07709,peacock       ,6,5,2,1,3,510.999655,510.999655,513.50042,0,76,76,76,1,77,4,6,wolf          ,peacock       ,html/resources/sequences_IDs/A/01_wolf.jpg,html/resources/sequences_IDs/A/05_peacock.jpg,1,5,1,1,2,1,1,4,0,44,,,,,,,,,,,,,,,,,,,,
,,,,,44,2020-07-03_17h46.30.137,retriever_ti,2020.1.3,Win32,60,Chrome,1536,864,,,,,,,,,,,,,,,,,,,,,,,,,,,,,,,,,,,,,0,3.04467,,,,,,,,,,,,,,,,,,,,,,,,,,,,,,,,,,,,,,,,,0,0,0,0,1,,,,,,,,,,,,,,,
,,,,,44,2020-07-03_17h46.30.137,retriever_ti,2020.1.3,Win32,60,Chrome,1536,864,,,,,,,,,,,,,,,,,2,,,,,,,,,,,,,,,,,,,,,,,,,,,531.54472,78,left,0.975895,wolf          ,4,1,3,1,3,531.57492,531.57492,534.074845,0,0,0,0,1,78,4,1,wolf          ,sport_tshirt,html/resources/sequences_IDs/A/01_wolf.jpg,html/resources/sequences_IDs/B/07_sport_tshirt.jpg,1,7,1,1,3,2,1,6,0,44,,,,,,,,,,,,,,,,,,,,
,,,,,44,2020-07-03_17h46.30.137,retriever_ti,2020.1.3,Win32,60,Chrome,1536,864,,,,,,,,,,,,,,,,,2,,,,,,,,,,,,,,,,,,,,,,,,,,,534.676745,79,right,0.7923,hat           ,2,8,1,1,1,534.709895,534.709895,537.209755,0,1,1,1,1,79,1,2,sport_tshirt,hat           ,html/resources/sequences_IDs/B/07_sport_tshirt.jpg,html/resources/sequences_IDs/A/08_hat.jpg,7,8,3,2,3,2,6,7,0,44,,,,,,,,,,,,,,,,,,,,
,,,,,44,2020-07-03_17h46.30.137,retriever_ti,2020.1.3,Win32,60,Chrome,1536,864,,,,,,,,,,,,,,,,,2,,,,,,,,,,,,,,,,,,,,,,,,,,,538.312095,80,left,1.02402,giraffe     ,3,3,-1,0,0,538.329625,538.329625,540.82753,0,2,2,2,1,80,3,4,giraffe     ,wolf          ,html/resources/sequences_IDs/B/03_giraffe.jpg,html/resources/sequences_IDs/A/01_wolf.jpg,3,1,1,1,1,1,2,1,0,44,,,,,,,,,,,,,,,,,,,,
,,,,,44,2020-07-03_17h46.30.137,retriever_ti,2020.1.3,Win32,60,Chrome,1536,864,,,,,,,,,,,,,,,,,2,,,,,,,,,,,,,,,,,,,,,,,,,,,541.92906,81,right,0.89458,holdfast    ,7,4,1,1,1,541.96291,541.96291,544.462555,0,3,3,3,1,81,6,7,peacock       ,holdfast    ,html/resources/sequences_IDs/A/05_peacock.jpg,html/resources/sequences_IDs/B/04_holdfast.jpg,5,4,2,1,2,1,4,3,0,44,,,,,,,,,,,,,,,,,,,,
,,,,,44,2020-07-03_17h46.30.137,retriever_ti,2020.1.3,Win32,60,Chrome,1536,864,,,,,,,,,,,,,,,,,2,,,,,,,,,,,,,,,,,,,,,,,,,,,545.565325,82,right,0.70773,holdfast    ,7,4,1,1,1,545.58224,545.58224,548.080455,0,4,4,4,1,82,6,7,peacock       ,holdfast    ,html/resources/sequences_IDs/A/05_peacock.jpg,html/resources/sequences_IDs/B/04_holdfast.jpg,5,4,2,1,2,1,4,3,0,44,,,,,,,,,,,,,,,,,,,,
,,,,,44,2020-07-03_17h46.30.137,retriever_ti,2020.1.3,Win32,60,Chrome,1536,864,,,,,,,,,,,,,,,,,2,,,,,,,,,,,,,,,,,,,,,,,,,,,549.181885,83,left,0.84205,peacock       ,6,5,1,1,1,549.21536,549.21536,551.715015,0,5,5,5,1,83,6,5,peacock       ,phone       ,html/resources/sequences_IDs/A/05_peacock.jpg,html/resources/sequences_IDs/B/09_phone.jpg,5,9,2,1,4,2,4,8,0,44,,,,,,,,,,,,,,,,,,,,
,,,,,44,2020-07-03_17h46.30.137,retriever_ti,2020.1.3,Win32,60,Chrome,1536,864,,,,,,,,,,,,,,,,,2,,,,,,,,,,,,,,,,,,,,,,,,,,,552.815915,84,left,0.761605,peacock       ,6,5,1,1,1,552.83351,552.83351,555.33291,0,6,6,6,1,84,6,5,peacock       ,phone       ,html/resources/sequences_IDs/A/05_peacock.jpg,html/resources/sequences_IDs/B/09_phone.jpg,5,9,2,1,4,2,4,8,0,44,,,,,,,,,,,,,,,,,,,,
,,,,,44,2020-07-03_17h46.30.137,retriever_ti,2020.1.3,Win32,60,Chrome,1536,864,,,,,,,,,,,,,,,,,2,,,,,,,,,,,,,,,,,,,,,,,,,,,556.43465,85,right,0.962245,hat           ,2,8,-6,0,3,556.45158,556.45158,558.95126,0,7,7,7,1,85,8,2,scarf         ,hat           ,html/resources/sequences_IDs/A/06_scarf.jpg,html/resources/sequences_IDs/A/08_hat.jpg,6,8,3,2,3,2,5,7,0,44,,,,,,,,,,,,,,,,,,,,
,,,,,44,2020-07-03_17h46.30.137,retriever_ti,2020.1.3,Win32,60,Chrome,1536,864,,,,,,,,,,,,,,,,,2,,,,,,,,,,,,,,,,,,,,,,,,,,,559.5536,86,right,0.92406,hat           ,2,8,1,1,1,559.587335,559.587335,562.085495,0,8,8,8,1,86,1,2,sport_tshirt,hat           ,html/resources/sequences_IDs/B/07_sport_tshirt.jpg,html/resources/sequences_IDs/A/08_hat.jpg,7,8,3,2,3,2,6,7,0,44,,,,,,,,,,,,,,,,,,,,
,,,,,44,2020-07-03_17h46.30.137,retriever_ti,2020.1.3,Win32,60,Chrome,1536,864,,,,,,,,,,,,,,,,,2,,,,,,,,,,,,,,,,,,,,,,,,,,,563.18669,87,left,0.94132,hat           ,2,8,1,1,1,563.22055,563.22055,565.72046,0,9,9,9,1,87,2,1,hat           ,sport_tshirt,html/resources/sequences_IDs/A/08_hat.jpg,html/resources/sequences_IDs/B/07_sport_tshirt.jpg,8,7,3,2,3,2,7,6,0,44,,,,,,,,,,,,,,,,,,,,
,,,,,44,2020-07-03_17h46.30.137,retriever_ti,2020.1.3,Win32,60,Chrome,1536,864,,,,,,,,,,,,,,,,,2,,,,,,,,,,,,,,,,,,,,,,,,,,,566.82134,88,right,1.10331,holdfast    ,7,4,1,1,0,566.8556,566.8556,569.35506,0,10,10,10,1,88,6,7,peacock       ,holdfast    ,html/resources/sequences_IDs/A/05_peacock.jpg,html/resources/sequences_IDs/B/04_holdfast.jpg,5,4,2,1,2,1,4,3,1,44,,,,,,,,,,,,,,,,,,,,
,,,,,44,2020-07-03_17h46.30.137,retriever_ti,2020.1.3,Win32,60,Chrome,1536,864,,,,,,,,,,,,,,,,,2,,,,,,,,,,,,,,,,,,,,,,,,,,,570.456785,89,right,1.632895,wolf          ,4,1,3,1,3,570.49027,570.49027,572.99005,0,11,11,11,1,89,1,4,sport_tshirt,wolf          ,html/resources/sequences_IDs/B/07_sport_tshirt.jpg,html/resources/sequences_IDs/A/01_wolf.jpg,7,1,3,2,1,1,6,1,0,44,,,,,,,,,,,,,,,,,,,,
,,,,,44,2020-07-03_17h46.30.137,retriever_ti,2020.1.3,Win32,60,Chrome,1536,864,,,,,,,,,,,,,,,,,2,,,,,,,,,,,,,,,,,,,,,,,,,,,573.592015,90,left,1.134395,scarf         ,8,6,7,1,3,573.62761,573.62761,576.12438,0,12,12,12,1,90,8,1,scarf         ,sport_tshirt,html/resources/sequences_IDs/A/06_scarf.jpg,html/resources/sequences_IDs/B/07_sport_tshirt.jpg,6,7,3,2,3,2,5,6,0,44,,,,,,,,,,,,,,,,,,,,
,,,,,44,2020-07-03_17h46.30.137,retriever_ti,2020.1.3,Win32,60,Chrome,1536,864,,,,,,,,,,,,,,,,,2,,,,,,,,,,,,,,,,,,,,,,,,,,,576.725985,91,left,1.213785,holdfast    ,7,4,-1,0,0,576.742075,576.742075,579.24201,0,13,13,13,1,91,7,8,holdfast    ,scarf         ,html/resources/sequences_IDs/B/04_holdfast.jpg,html/resources/sequences_IDs/A/06_scarf.jpg,4,6,2,1,3,2,3,5,0,44,,,,,,,,,,,,,,,,,,,,
,,,,,44,2020-07-03_17h46.30.137,retriever_ti,2020.1.3,Win32,60,Chrome,1536,864,,,,,,,,,,,,,,,,,2,,,,,,,,,,,,,,,,,,,,,,,,,,,580.34315,92,left,1.33746,hat           ,2,8,-1,0,0,580.360485,580.360485,582.860265,0,14,14,14,1,92,2,3,hat           ,giraffe     ,html/resources/sequences_IDs/A/08_hat.jpg,html/resources/sequences_IDs/B/03_giraffe.jpg,8,3,3,2,1,1,7,2,0,44,,,,,,,,,,,,,,,,,,,,
,,,,,44,2020-07-03_17h46.30.137,retriever_ti,2020.1.3,Win32,60,Chrome,1536,864,,,,,,,,,,,,,,,,,2,,,,,,,,,,,,,,,,,,,,,,,,,,,583.96287,93,left,1.778385,giraffe     ,3,3,-4,0,3,583.97841,583.97841,586.47824,0,15,15,15,1,93,3,7,giraffe     ,holdfast    ,html/resources/sequences_IDs/B/03_giraffe.jpg,html/resources/sequences_IDs/B/04_holdfast.jpg,3,4,1,1,2,1,2,3,0,44,,,,,,,,,,,,,,,,,,,,
,,,,,44,2020-07-03_17h46.30.137,retriever_ti,2020.1.3,Win32,60,Chrome,1536,864,,,,,,,,,,,,,,,,,2,,,,,,,,,,,,,,,,,,,,,,,,,,,587.07929,94,left,1.362605,scarf         ,8,6,1,1,1,587.096415,587.096415,589.59614,0,16,16,16,1,94,8,7,scarf         ,holdfast    ,html/resources/sequences_IDs/A/06_scarf.jpg,html/resources/sequences_IDs/B/04_holdfast.jpg,6,4,3,2,2,1,5,3,0,44,,,,,,,,,,,,,,,,,,,,
,,,,,44,2020-07-03_17h46.30.137,retriever_ti,2020.1.3,Win32,60,Chrome,1536,864,,,,,,,,,,,,,,,,,2,,,,,,,,,,,,,,,,,,,,,,,,,,,590.69757,95,right,1.47011,peacock       ,6,5,1,1,1,590.714605,590.714605,593.21411,0,17,17,17,1,95,5,6,phone       ,peacock       ,html/resources/sequences_IDs/B/09_phone.jpg,html/resources/sequences_IDs/A/05_peacock.jpg,9,5,4,2,2,1,8,4,0,44,,,,,,,,,,,,,,,,,,,,
,,,,,44,2020-07-03_17h46.30.137,retriever_ti,2020.1.3,Win32,60,Chrome,1536,864,,,,,,,,,,,,,,,,,2,,,,,,,,,,,,,,,,,,,,,,,,,,,594.3151,96,left,0.85424,wolf          ,4,1,-1,0,0,594.332225,594.332225,596.832255,0,18,18,18,1,96,4,5,wolf          ,phone       ,html/resources/sequences_IDs/A/01_wolf.jpg,html/resources/sequences_IDs/B/09_phone.jpg,1,9,1,1,4,2,1,8,0,44,,,,,,,,,,,,,,,,,,,,
,,,,,44,2020-07-03_17h46.30.137,retriever_ti,2020.1.3,Win32,60,Chrome,1536,864,,,,,,,,,,,,,,,,,2,,,,,,,,,,,,,,,,,,,,,,,,,,,597.933505,97,right,1.25701,scarf         ,8,6,3,1,3,597.95039,597.95039,600.45016,0,19,19,19,1,97,5,8,phone       ,scarf         ,html/resources/sequences_IDs/B/09_phone.jpg,html/resources/sequences_IDs/A/06_scarf.jpg,9,6,4,2,3,2,8,5,0,44,,,,,,,,,,,,,,,,,,,,
,,,,,44,2020-07-03_17h46.30.137,retriever_ti,2020.1.3,Win32,60,Chrome,1536,864,,,,,,,,,,,,,,,,,2,,,,,,,,,,,,,,,,,,,,,,,,,,,601.0508,98,left,1.237895,holdfast    ,7,4,5,1,3,601.08481,601.08481,603.58486,0,20,20,20,1,98,7,2,holdfast    ,hat           ,html/resources/sequences_IDs/B/04_holdfast.jpg,html/resources/sequences_IDs/A/08_hat.jpg,4,8,2,1,3,2,3,7,0,44,,,,,,,,,,,,,,,,,,,,
,,,,,44,2020-07-03_17h46.30.137,retriever_ti,2020.1.3,Win32,60,Chrome,1536,864,,,,,,,,,,,,,,,,,2,,,,,,,,,,,,,,,,,,,,,,,,,,,604.203015,99,left,1.12892,hat           ,2,8,1,1,0,604.2364,604.2364,606.73592,0,21,21,21,1,99,2,1,hat           ,sport_tshirt,html/resources/sequences_IDs/A/08_hat.jpg,html/resources/sequences_IDs/B/07_sport_tshirt.jpg,8,7,3,2,3,2,7,6,1,44,,,,,,,,,,,,,,,,,,,,
,,,,,44,2020-07-03_17h46.30.137,retriever_ti,2020.1.3,Win32,60,Chrome,1536,864,,,,,,,,,,,,,,,,,2,,,,,,,,,,,,,,,,,,,,,,,,,,,607.83691,100,right,1.38472,peacock       ,6,5,1,1,1,607.87101,607.87101,610.37033,0,22,22,22,1,100,5,6,phone       ,peacock       ,html/resources/sequences_IDs/B/09_phone.jpg,html/resources/sequences_IDs/A/05_peacock.jpg,9,5,4,2,2,1,8,4,0,44,,,,,,,,,,,,,,,,,,,,
,,,,,44,2020-07-03_17h46.30.137,retriever_ti,2020.1.3,Win32,60,Chrome,1536,864,,,,,,,,,,,,,,,,,2,,,,,,,,,,,,,,,,,,,,,,,,,,,611.473085,101,right,1.12015,hat           ,2,8,-1,0,0,611.508265,611.508265,614.005205,0,23,23,23,1,101,3,2,giraffe     ,hat           ,html/resources/sequences_IDs/B/03_giraffe.jpg,html/resources/sequences_IDs/A/08_hat.jpg,3,8,1,1,3,2,2,7,0,44,,,,,,,,,,,,,,,,,,,,
,,,,,44,2020-07-03_17h46.30.137,retriever_ti,2020.1.3,Win32,60,Chrome,1536,864,,,,,,,,,,,,,,,,,2,,,,,,,,,,,,,,,,,,,,,,,,,,,615.1061,102,right,0.925645,giraffe     ,3,3,1,1,1,615.140615,615.140615,617.64018,0,24,24,24,1,102,2,3,hat           ,giraffe     ,html/resources/sequences_IDs/A/08_hat.jpg,html/resources/sequences_IDs/B/03_giraffe.jpg,8,3,3,2,1,1,7,2,0,44,,,,,,,,,,,,,,,,,,,,
,,,,,44,2020-07-03_17h46.30.137,retriever_ti,2020.1.3,Win32,60,Chrome,1536,864,,,,,,,,,,,,,,,,,2,,,,,,,,,,,,,,,,,,,,,,,,,,,618.740885,103,left,1.038545,holdfast    ,7,4,4,1,3,618.77503,618.77503,621.275035,0,25,25,25,1,103,7,3,holdfast    ,giraffe     ,html/resources/sequences_IDs/B/04_holdfast.jpg,html/resources/sequences_IDs/B/03_giraffe.jpg,4,3,2,1,1,1,3,2,0,44,,,,,,,,,,,,,,,,,,,,
,,,,,44,2020-07-03_17h46.30.137,retriever_ti,2020.1.3,Win32,60,Chrome,1536,864,,,,,,,,,,,,,,,,,2,,,,,,,,,,,,,,,,,,,,,,,,,,,621.876665,104,right,1.997675,holdfast    ,7,4,5,1,3,621.911005,621.911005,624.409305,0,26,26,26,1,104,2,7,hat           ,holdfast    ,html/resources/sequences_IDs/A/08_hat.jpg,html/resources/sequences_IDs/B/04_holdfast.jpg,8,4,3,2,2,1,7,3,0,44,,,,,,,,,,,,,,,,,,,,
,,,,,44,2020-07-03_17h46.30.137,retriever_ti,2020.1.3,Win32,60,Chrome,1536,864,,,,,,,,,,,,,,,,,2,,,,,,,,,,,,,,,,,,,,,,,,,,,625.0107,105,left,1.2064,holdfast    ,7,4,6,1,3,625.027585,625.027585,627.527095,0,27,27,27,1,105,7,1,holdfast    ,sport_tshirt,html/resources/sequences_IDs/B/04_holdfast.jpg,html/resources/sequences_IDs/B/07_sport_tshirt.jpg,4,7,2,1,3,2,3,6,0,44,,,,,,,,,,,,,,,,,,,,
,,,,,44,2020-07-03_17h46.30.137,retriever_ti,2020.1.3,Win32,60,Chrome,1536,864,,,,,,,,,,,,,,,,,2,,,,,,,,,,,,,,,,,,,,,,,,,,,628.12974,106,left,1.49148,hat           ,2,8,-4,0,3,628.16344,628.16344,630.662175,0,28,28,28,1,106,2,6,hat           ,peacock       ,html/resources/sequences_IDs/A/08_hat.jpg,html/resources/sequences_IDs/A/05_peacock.jpg,8,5,3,2,2,1,7,4,0,44,,,,,,,,,,,,,,,,,,,,
,,,,,44,2020-07-03_17h46.30.137,retriever_ti,2020.1.3,Win32,60,Chrome,1536,864,,,,,,,,,,,,,,,,,2,,,,,,,,,,,,,,,,,,,,,,,,,,,631.2799,107,left,1.002755,scarf         ,8,6,5,1,3,631.296645,631.296645,633.79631,0,29,29,29,1,107,8,3,scarf         ,giraffe     ,html/resources/sequences_IDs/A/06_scarf.jpg,html/resources/sequences_IDs/B/03_giraffe.jpg,6,3,3,2,1,1,5,2,0,44,,,,,,,,,,,,,,,,,,,,
,,,,,44,2020-07-03_17h46.30.137,retriever_ti,2020.1.3,Win32,60,Chrome,1536,864,,,,,,,,,,,,,,,,,2,,,,,,,,,,,,,,,,,,,,,,,,,,,634.397005,108,left,1.063745,giraffe     ,3,3,-1,0,0,634.430825,634.430825,636.9309,0,30,30,30,1,108,3,4,giraffe     ,wolf          ,html/resources/sequences_IDs/B/03_giraffe.jpg,html/resources/sequences_IDs/A/01_wolf.jpg,3,1,1,1,1,1,2,1,0,44,,,,,,,,,,,,,,,,,,,,
,,,,,44,2020-07-03_17h46.30.137,retriever_ti,2020.1.3,Win32,60,Chrome,1536,864,,,,,,,,,,,,,,,,,2,,,,,,,,,,,,,,,,,,,,,,,,,,,638.031935,109,left,0.86644,holdfast    ,7,4,1,1,1,638.04914,638.04914,640.549265,0,31,31,31,1,109,7,6,holdfast    ,peacock       ,html/resources/sequences_IDs/B/04_holdfast.jpg,html/resources/sequences_IDs/A/05_peacock.jpg,4,5,2,1,2,1,3,4,0,44,,,,,,,,,,,,,,,,,,,,
,,,,,44,2020-07-03_17h46.30.137,retriever_ti,2020.1.3,Win32,60,Chrome,1536,864,,,,,,,,,,,,,,,,,2,,,,,,,,,,,,,,,,,,,,,,,,,,,641.649795,110,right,0.819415,holdfast    ,7,4,3,1,3,641.684125,641.684125,644.183345,0,32,32,32,1,110,4,7,wolf          ,holdfast    ,html/resources/sequences_IDs/A/01_wolf.jpg,html/resources/sequences_IDs/B/04_holdfast.jpg,1,4,1,1,2,1,1,3,0,44,,,,,,,,,,,,,,,,,,,,
,,,,,44,2020-07-03_17h46.30.137,retriever_ti,2020.1.3,Win32,60,Chrome,1536,864,,,,,,,,,,,,,,,,,2,,,,,,,,,,,,,,,,,,,,,,,,,,,644.78489,111,left,0.93409,scarf         ,8,6,2,1,3,644.818675,644.818675,647.318095,0,33,33,33,1,111,8,6,scarf         ,peacock       ,html/resources/sequences_IDs/A/06_scarf.jpg,html/resources/sequences_IDs/A/05_peacock.jpg,6,5,3,2,2,1,5,4,0,44,,,,,,,,,,,,,,,,,,,,
,,,,,44,2020-07-03_17h46.30.137,retriever_ti,2020.1.3,Win32,60,Chrome,1536,864,,,,,,,,,,,,,,,,,2,,,,,,,,,,,,,,,,,,,,,,,,,,,647.918995,112,left,1.242465,wolf          ,4,1,1,1,1,647.936475,647.936475,650.436425,0,34,34,34,1,112,4,3,wolf          ,giraffe     ,html/resources/sequences_IDs/A/01_wolf.jpg,html/resources/sequences_IDs/B/03_giraffe.jpg,1,3,1,1,1,1,1,2,0,44,,,,,,,,,,,,,,,,,,,,
,,,,,44,2020-07-03_17h46.30.137,retriever_ti,2020.1.3,Win32,60,Chrome,1536,864,,,,,,,,,,,,,,,,,2,,,,,,,,,,,,,,,,,,,,,,,,,,,651.538895,113,right,1.20593,wolf          ,4,1,2,1,3,651.555505,651.555505,654.05424,0,35,35,35,1,113,2,4,hat           ,wolf          ,html/resources/sequences_IDs/A/08_hat.jpg,html/resources/sequences_IDs/A/01_wolf.jpg,8,1,3,2,1,1,7,1,0,44,,,,,,,,,,,,,,,,,,,,
,,,,,44,2020-07-03_17h46.30.137,retriever_ti,2020.1.3,Win32,60,Chrome,1536,864,,,,,,,,,,,,,,,,,2,,,,,,,,,,,,,,,,,,,,,,,,,,,654.656805,114,left,1.34939,wolf          ,4,1,2,1,3,654.692085,654.692085,657.18865,0,36,36,36,1,114,4,2,wolf          ,hat           ,html/resources/sequences_IDs/A/01_wolf.jpg,html/resources/sequences_IDs/A/08_hat.jpg,1,8,1,1,3,2,1,7,0,44,,,,,,,,,,,,,,,,,,,,
,,,,,44,2020-07-03_17h46.30.137,retriever_ti,2020.1.3,Win32,60,Chrome,1536,864,,,,,,,,,,,,,,,,,2,,,,,,,,,,,,,,,,,,,,,,,,,,,657.806455,115,right,1.12798,phone       ,5,9,4,1,3,657.840225,657.840225,660.33965,0,37,37,37,1,115,1,5,sport_tshirt,phone       ,html/resources/sequences_IDs/B/07_sport_tshirt.jpg,html/resources/sequences_IDs/B/09_phone.jpg,7,9,3,2,4,2,6,8,0,44,,,,,,,,,,,,,,,,,,,,
,,,,,44,2020-07-03_17h46.30.137,retriever_ti,2020.1.3,Win32,60,Chrome,1536,864,,,,,,,,,,,,,,,,,2,,,,,,,,,,,,,,,,,,,,,,,,,,,660.940645,116,left,0.875605,hat           ,2,8,-3,0,3,660.957525,660.957525,663.457525,0,38,38,38,1,116,2,5,hat           ,phone       ,html/resources/sequences_IDs/A/08_hat.jpg,html/resources/sequences_IDs/B/09_phone.jpg,8,9,3,2,4,2,7,8,0,44,,,,,,,,,,,,,,,,,,,,
,,,,,44,2020-07-03_17h46.30.137,retriever_ti,2020.1.3,Win32,60,Chrome,1536,864,,,,,,,,,,,,,,,,,2,,,,,,,,,,,,,,,,,,,,,,,,,,,664.05873,117,right,0.93837,peacock       ,6,5,2,1,3,664.09271,664.09271,666.5921,0,39,39,39,1,117,4,6,wolf          ,peacock       ,html/resources/sequences_IDs/A/01_wolf.jpg,html/resources/sequences_IDs/A/05_peacock.jpg,1,5,1,1,2,1,1,4,0,44,,,,,,,,,,,,,,,,,,,,
,,,,,44,2020-07-03_17h46.30.137,retriever_ti,2020.1.3,Win32,60,Chrome,1536,864,,,,,,,,,,,,,,,,,2,,,,,,,,,,,,,,,,,,,,,,,,,,,667.19275,118,left,1.074415,phone       ,5,9,-1,0,1,667.226205,667.226205,669.726545,0,40,40,40,1,118,5,6,phone       ,peacock       ,html/resources/sequences_IDs/B/09_phone.jpg,html/resources/sequences_IDs/A/05_peacock.jpg,9,5,4,2,2,1,8,4,1,44,,,,,,,,,,,,,,,,,,,,
,,,,,44,2020-07-03_17h46.30.137,retriever_ti,2020.1.3,Win32,60,Chrome,1536,864,,,,,,,,,,,,,,,,,2,,,,,,,,,,,,,,,,,,,,,,,,,,,670.828105,119,left,0.949845,peacock       ,6,5,3,1,3,670.862025,670.862025,673.361455,0,41,41,41,1,119,6,3,peacock       ,giraffe     ,html/resources/sequences_IDs/A/05_peacock.jpg,html/resources/sequences_IDs/B/03_giraffe.jpg,5,3,2,1,1,1,4,2,0,44,,,,,,,,,,,,,,,,,,,,
,,,,,44,2020-07-03_17h46.30.137,retriever_ti,2020.1.3,Win32,60,Chrome,1536,864,,,,,,,,,,,,,,,,,2,,,,,,,,,,,,,,,,,,,,,,,,,,,673.96247,120,left,0.76671,scarf         ,8,6,3,1,3,673.99637,673.99637,676.496465,0,42,42,42,1,120,8,5,scarf         ,phone       ,html/resources/sequences_IDs/A/06_scarf.jpg,html/resources/sequences_IDs/B/09_phone.jpg,6,9,3,2,4,2,5,8,0,44,,,,,,,,,,,,,,,,,,,,
,,,,,44,2020-07-03_17h46.30.137,retriever_ti,2020.1.3,Win32,60,Chrome,1536,864,,,,,,,,,,,,,,,,,2,,,,,,,,,,,,,,,,,,,,,,,,,,,677.11323,121,left,0.672775,hat           ,2,8,1,1,1,677.130215,677.130215,679.630555,0,43,43,43,1,121,2,1,hat           ,sport_tshirt,html/resources/sequences_IDs/A/08_hat.jpg,html/resources/sequences_IDs/B/07_sport_tshirt.jpg,8,7,3,2,3,2,7,6,0,44,,,,,,,,,,,,,,,,,,,,
,,,,,44,2020-07-03_17h46.30.137,retriever_ti,2020.1.3,Win32,60,Chrome,1536,864,,,,,,,,,,,,,,,,,2,,,,,,,,,,,,,,,,,,,,,,,,,,,680.731675,122,right,0.64766,holdfast    ,7,4,6,1,3,680.74783,680.74783,683.24833,0,44,44,44,1,122,1,7,sport_tshirt,holdfast    ,html/resources/sequences_IDs/B/07_sport_tshirt.jpg,html/resources/sequences_IDs/B/04_holdfast.jpg,7,4,3,2,2,1,6,3,0,44,,,,,,,,,,,,,,,,,,,,
,,,,,44,2020-07-03_17h46.30.137,retriever_ti,2020.1.3,Win32,60,Chrome,1536,864,,,,,,,,,,,,,,,,,2,,,,,,,,,,,,,,,,,,,,,,,,,,,683.84978,123,right,0.672415,hat           ,2,8,-1,0,0,683.88339,683.88339,686.38291,0,45,45,45,1,123,3,2,giraffe     ,hat           ,html/resources/sequences_IDs/B/03_giraffe.jpg,html/resources/sequences_IDs/A/08_hat.jpg,3,8,1,1,3,2,2,7,0,44,,,,,,,,,,,,,,,,,,,,
,,,,,44,2020-07-03_17h46.30.137,retriever_ti,2020.1.3,Win32,60,Chrome,1536,864,,,,,,,,,,,,,,,,,2,,,,,,,,,,,,,,,,,,,,,,,,,,,687.48372,124,left,0.695405,giraffe     ,3,3,2,1,3,687.500905,687.500905,690.000885,0,46,46,46,1,124,3,1,giraffe     ,sport_tshirt,html/resources/sequences_IDs/B/03_giraffe.jpg,html/resources/sequences_IDs/B/07_sport_tshirt.jpg,3,7,1,1,3,2,2,6,0,44,,,,,,,,,,,,,,,,,,,,
,,,,,44,2020-07-03_17h46.30.137,retriever_ti,2020.1.3,Win32,60,Chrome,1536,864,,,,,,,,,,,,,,,,,2,,,,,,,,,,,,,,,,,,,,,,,,,,,690.60386,125,left,1.106145,phone       ,5,9,1,1,1,690.63934,690.63934,693.13557,0,47,47,47,1,125,5,4,phone       ,wolf          ,html/resources/sequences_IDs/B/09_phone.jpg,html/resources/sequences_IDs/A/01_wolf.jpg,9,1,4,2,1,1,8,1,0,44,,,,,,,,,,,,,,,,,,,,
,,,,,44,2020-07-03_17h46.30.137,retriever_ti,2020.1.3,Win32,60,Chrome,1536,864,,,,,,,,,,,,,,,,,2,,,,,,,,,,,,,,,,,,,,,,,,,,,694.236585,126,right,1.148965,hat           ,2,8,-3,0,3,694.270905,694.270905,696.77016,0,48,48,48,1,126,5,2,phone       ,hat           ,html/resources/sequences_IDs/B/09_phone.jpg,html/resources/sequences_IDs/A/08_hat.jpg,9,8,4,2,3,2,8,7,0,44,,,,,,,,,,,,,,,,,,,,
,,,,,44,2020-07-03_17h46.30.137,retriever_ti,2020.1.3,Win32,60,Chrome,1536,864,,,,,,,,,,,,,,,,,2,,,,,,,,,,,,,,,,,,,,,,,,,,,697.371605,127,right,1.327025,phone       ,5,9,1,1,1,697.405575,697.405575,699.904925,0,49,49,49,1,127,4,5,wolf          ,phone       ,html/resources/sequences_IDs/A/01_wolf.jpg,html/resources/sequences_IDs/B/09_phone.jpg,1,9,1,1,4,2,1,8,0,44,,,,,,,,,,,,,,,,,,,,
,,,,,44,2020-07-03_17h46.30.137,retriever_ti,2020.1.3,Win32,60,Chrome,1536,864,,,,,,,,,,,,,,,,,2,,,,,,,,,,,,,,,,,,,,,,,,,,,701.01021,128,right,1.40597,scarf         ,8,6,5,1,3,701.039745,701.039745,703.539355,0,50,50,50,1,128,3,8,giraffe     ,scarf         ,html/resources/sequences_IDs/B/03_giraffe.jpg,html/resources/sequences_IDs/A/06_scarf.jpg,3,6,1,1,3,2,2,5,0,44,,,,,,,,,,,,,,,,,,,,
,,,,,44,2020-07-03_17h46.30.137,retriever_ti,2020.1.3,Win32,60,Chrome,1536,864,,,,,,,,,,,,,,,,,2,,,,,,,,,,,,,,,,,,,,,,,,,,,704.140685,129,left,0.68918,scarf         ,8,6,4,1,3,704.17423,704.17423,706.67464,0,51,51,51,1,129,8,4,scarf         ,wolf          ,html/resources/sequences_IDs/A/06_scarf.jpg,html/resources/sequences_IDs/A/01_wolf.jpg,6,1,3,2,1,1,5,1,0,44,,,,,,,,,,,,,,,,,,,,
,,,,,44,2020-07-03_17h46.30.137,retriever_ti,2020.1.3,Win32,60,Chrome,1536,864,,,,,,,,,,,,,,,,,2,,,,,,,,,,,,,,,,,,,,,,,,,,,707.29328,130,right,0.892795,giraffe     ,3,3,2,1,3,707.326685,707.326685,709.80864,0,52,52,52,1,130,1,3,sport_tshirt,giraffe     ,html/resources/sequences_IDs/B/07_sport_tshirt.jpg,html/resources/sequences_IDs/B/03_giraffe.jpg,7,3,3,2,1,1,6,2,0,44,,,,,,,,,,,,,,,,,,,,
,,,,,44,2020-07-03_17h46.30.137,retriever_ti,2020.1.3,Win32,60,Chrome,1536,864,,,,,,,,,,,,,,,,,2,,,,,,,,,,,,,,,,,,,,,,,,,,,710.40998,131,right,1.22813,phone       ,5,9,2,1,3,710.453825,710.453825,712.94322,0,53,53,53,1,131,3,5,giraffe     ,phone       ,html/resources/sequences_IDs/B/03_giraffe.jpg,html/resources/sequences_IDs/B/09_phone.jpg,3,9,1,1,4,2,2,8,0,44,,,,,,,,,,,,,,,,,,,,
,,,,,44,2020-07-03_17h46.30.137,retriever_ti,2020.1.3,Win32,60,Chrome,1536,864,,,,,,,,,,,,,,,,,2,,,,,,,,,,,,,,,,,,,,,,,,,,,713.54856,132,right,0.785945,hat           ,2,8,-4,0,3,713.563755,713.563755,716.06091,0,54,54,54,1,132,6,2,peacock       ,hat           ,html/resources/sequences_IDs/A/05_peacock.jpg,html/resources/sequences_IDs/A/08_hat.jpg,5,8,2,1,3,2,4,7,0,44,,,,,,,,,,,,,,,,,,,,
,,,,,44,2020-07-03_17h46.30.137,retriever_ti,2020.1.3,Win32,60,Chrome,1536,864,,,,,,,,,,,,,,,,,2,,,,,,,,,,,,,,,,,,,,,,,,,,,716.6625,133,left,0.659565,phone       ,5,9,1,1,1,716.67865,716.67865,719.178555,0,55,55,55,1,133,5,4,phone       ,wolf          ,html/resources/sequences_IDs/B/09_phone.jpg,html/resources/sequences_IDs/A/01_wolf.jpg,9,1,4,2,1,1,8,1,0,44,,,,,,,,,,,,,,,,,,,,
,,,,,44,2020-07-03_17h46.30.137,retriever_ti,2020.1.3,Win32,60,Chrome,1536,864,,,,,,,,,,,,,,,,,2,,,,,,,,,,,,,,,,,,,,,,,,,,,720.279925,134,left,1.033105,phone       ,5,9,2,1,3,720.297235,720.297235,722.796605,0,56,56,56,1,134,5,3,phone       ,giraffe     ,html/resources/sequences_IDs/B/09_phone.jpg,html/resources/sequences_IDs/B/03_giraffe.jpg,9,3,4,2,1,1,8,2,0,44,,,,,,,,,,,,,,,,,,,,
,,,,,44,2020-07-03_17h46.30.137,retriever_ti,2020.1.3,Win32,60,Chrome,1536,864,,,,,,,,,,,,,,,,,2,,,,,,,,,,,,,,,,,,,,,,,,,,,723.39817,135,left,0.766355,holdfast    ,7,4,3,1,3,723.41506,723.41506,725.91455,0,57,57,57,1,135,7,4,holdfast    ,wolf          ,html/resources/sequences_IDs/B/04_holdfast.jpg,html/resources/sequences_IDs/A/01_wolf.jpg,4,1,2,1,1,1,3,1,0,44,,,,,,,,,,,,,,,,,,,,
,,,,,44,2020-07-03_17h46.30.137,retriever_ti,2020.1.3,Win32,60,Chrome,1536,864,,,,,,,,,,,,,,,,,2,,,,,,,,,,,,,,,,,,,,,,,,,,,726.51524,136,left,0.657985,phone       ,5,9,1,1,0,726.53299,726.53299,729.03265,0,58,58,58,1,136,5,4,phone       ,wolf          ,html/resources/sequences_IDs/B/09_phone.jpg,html/resources/sequences_IDs/A/01_wolf.jpg,9,1,4,2,1,1,8,1,1,44,,,,,,,,,,,,,,,,,,,,
,,,,,44,2020-07-03_17h46.30.137,retriever_ti,2020.1.3,Win32,60,Chrome,1536,864,,,,,,,,,,,,,,,,,2,,,,,,,,,,,,,,,,,,,,,,,,,,,730.134415,137,left,1.186055,wolf          ,4,1,-4,0,3,730.1506,730.1506,732.650505,0,59,59,59,1,137,4,8,wolf          ,scarf         ,html/resources/sequences_IDs/A/01_wolf.jpg,html/resources/sequences_IDs/A/06_scarf.jpg,1,6,1,1,3,2,1,5,0,44,,,,,,,,,,,,,,,,,,,,
,,,,,44,2020-07-03_17h46.30.137,retriever_ti,2020.1.3,Win32,60,Chrome,1536,864,,,,,,,,,,,,,,,,,2,,,,,,,,,,,,,,,,,,,,,,,,,,,733.2514,138,left,0.73653,scarf         ,8,6,1,1,1,733.285555,733.285555,735.785025,0,60,60,60,1,138,8,7,scarf         ,holdfast    ,html/resources/sequences_IDs/A/06_scarf.jpg,html/resources/sequences_IDs/B/04_holdfast.jpg,6,4,3,2,2,1,5,3,0,44,,,,,,,,,,,,,,,,,,,,
,,,,,44,2020-07-03_17h46.30.137,retriever_ti,2020.1.3,Win32,60,Chrome,1536,864,,,,,,,,,,,,,,,,,2,,,,,,,,,,,,,,,,,,,,,,,,,,,736.886745,139,right,0.61431,scarf         ,8,6,2,1,3,736.912395,736.912395,739.40309,0,61,61,61,1,139,6,8,peacock       ,scarf         ,html/resources/sequences_IDs/A/05_peacock.jpg,html/resources/sequences_IDs/A/06_scarf.jpg,5,6,2,1,3,2,4,5,0,44,,,,,,,,,,,,,,,,,,,,
,,,,,44,2020-07-03_17h46.30.137,retriever_ti,2020.1.3,Win32,60,Chrome,1536,864,,,,,,,,,,,,,,,,,2,,,,,,,,,,,,,,,,,,,,,,,,,,,740.003855,140,right,0.547955,scarf         ,8,6,1,1,1,740.021375,740.021375,742.52145,0,62,62,62,1,140,7,8,holdfast    ,scarf         ,html/resources/sequences_IDs/B/04_holdfast.jpg,html/resources/sequences_IDs/A/06_scarf.jpg,4,6,2,1,3,2,3,5,0,44,,,,,,,,,,,,,,,,,,,,
,,,,,44,2020-07-03_17h46.30.137,retriever_ti,2020.1.3,Win32,60,Chrome,1536,864,,,,,,,,,,,,,,,,,2,,,,,,,,,,,,,,,,,,,,,,,,,,,743.62324,141,left,0.84456,holdfast    ,7,4,2,1,3,743.641235,743.641235,746.13916,0,63,63,63,1,141,7,5,holdfast    ,phone       ,html/resources/sequences_IDs/B/04_holdfast.jpg,html/resources/sequences_IDs/B/09_phone.jpg,4,9,2,1,4,2,3,8,0,44,,,,,,,,,,,,,,,,,,,,
,,,,,44,2020-07-03_17h46.30.137,retriever_ti,2020.1.3,Win32,60,Chrome,1536,864,,,,,,,,,,,,,,,,,2,,,,,,,,,,,,,,,,,,,,,,,,,,,746.75651,142,right,1.01762,peacock       ,6,5,5,1,3,746.774355,746.774355,749.27369,0,64,64,64,1,142,1,6,sport_tshirt,peacock       ,html/resources/sequences_IDs/B/07_sport_tshirt.jpg,html/resources/sequences_IDs/A/05_peacock.jpg,7,5,3,2,2,1,6,4,0,44,,,,,,,,,,,,,,,,,,,,
,,,,,44,2020-07-03_17h46.30.137,retriever_ti,2020.1.3,Win32,60,Chrome,1536,864,,,,,,,,,,,,,,,,,2,,,,,,,,,,,,,,,,,,,,,,,,,,,749.892205,143,right,0.89533,scarf         ,8,6,7,1,3,749.92442,749.92442,752.424835,0,65,65,65,1,143,1,8,sport_tshirt,scarf         ,html/resources/sequences_IDs/B/07_sport_tshirt.jpg,html/resources/sequences_IDs/A/06_scarf.jpg,7,6,3,2,3,2,6,5,0,44,,,,,,,,,,,,,,,,,,,,
,,,,,44,2020-07-03_17h46.30.137,retriever_ti,2020.1.3,Win32,60,Chrome,1536,864,,,,,,,,,,,,,,,,,2,,,,,,,,,,,,,,,,,,,,,,,,,,,753.02561,144,left,0.786535,holdfast    ,7,4,1,1,1,753.043185,753.043185,755.54271,0,66,66,66,1,144,7,6,holdfast    ,peacock       ,html/resources/sequences_IDs/B/04_holdfast.jpg,html/resources/sequences_IDs/A/05_peacock.jpg,4,5,2,1,2,1,3,4,0,44,,,,,,,,,,,,,,,,,,,,
,,,,,44,2020-07-03_17h46.30.137,retriever_ti,2020.1.3,Win32,60,Chrome,1536,864,,,,,,,,,,,,,,,,,2,,,,,,,,,,,,,,,,,,,,,,,,,,,756.64403,145,left,1.0587,phone       ,5,9,4,1,3,756.67804,756.67804,759.17737,0,67,67,67,1,145,5,1,phone       ,sport_tshirt,html/resources/sequences_IDs/B/09_phone.jpg,html/resources/sequences_IDs/B/07_sport_tshirt.jpg,9,7,4,2,3,2,8,6,0,44,,,,,,,,,,,,,,,,,,,,
,,,,,44,2020-07-03_17h46.30.137,retriever_ti,2020.1.3,Win32,60,Chrome,1536,864,,,,,,,,,,,,,,,,,2,,,,,,,,,,,,,,,,,,,,,,,,,,,759.79505,146,left,1.163935,giraffe     ,3,3,-1,0,1,759.82995,759.82995,762.32875,0,68,68,68,1,146,3,4,giraffe     ,wolf          ,html/resources/sequences_IDs/B/03_giraffe.jpg,html/resources/sequences_IDs/A/01_wolf.jpg,3,1,1,1,1,1,2,1,1,44,,,,,,,,,,,,,,,,,,,,
,,,,,44,2020-07-03_17h46.30.137,retriever_ti,2020.1.3,Win32,60,Chrome,1536,864,,,,,,,,,,,,,,,,,2,,,,,,,,,,,,,,,,,,,,,,,,,,,763.43013,147,left,0.858625,scarf         ,8,6,1,1,0,763.464105,763.464105,765.963375,0,69,69,69,1,147,8,7,scarf         ,holdfast    ,html/resources/sequences_IDs/A/06_scarf.jpg,html/resources/sequences_IDs/B/04_holdfast.jpg,6,4,3,2,2,1,5,3,1,44,,,,,,,,,,,,,,,,,,,,
,,,,,44,2020-07-03_17h46.30.137,retriever_ti,2020.1.3,Win32,60,Chrome,1536,864,,,,,,,,,,,,,,,,,2,,,,,,,,,,,,,,,,,,,,,,,,,,,767.064245,148,right,1.55066,giraffe     ,3,3,-1,0,0,767.081775,767.081775,769.58147,0,70,70,70,1,148,4,3,wolf          ,giraffe     ,html/resources/sequences_IDs/A/01_wolf.jpg,html/resources/sequences_IDs/B/03_giraffe.jpg,1,3,1,1,1,1,1,2,0,44,,,,,,,,,,,,,,,,,,,,
,,,,,44,2020-07-03_17h46.30.137,retriever_ti,2020.1.3,Win32,60,Chrome,1536,864,,,,,,,,,,,,,,,,,2,,,,,,,,,,,,,,,,,,,,,,,,,,,770.68288,149,right,1.131595,scarf         ,8,6,6,1,3,770.69968,770.69968,773.19927,0,71,71,71,1,149,2,8,hat           ,scarf         ,html/resources/sequences_IDs/A/08_hat.jpg,html/resources/sequences_IDs/A/06_scarf.jpg,8,6,3,2,3,2,7,5,0,44,,,,,,,,,,,,,,,,,,,,
,,,,,44,2020-07-03_17h46.30.137,retriever_ti,2020.1.3,Win32,60,Chrome,1536,864,,,,,,,,,,,,,,,,,2,,,,,,,,,,,,,,,,,,,,,,,,,,,773.79994,150,left,1.14443,peacock       ,6,5,5,1,3,773.834985,773.834985,776.33425,0,72,72,72,1,150,6,1,peacock       ,sport_tshirt,html/resources/sequences_IDs/A/05_peacock.jpg,html/resources/sequences_IDs/B/07_sport_tshirt.jpg,5,7,2,1,3,2,4,6,0,44,,,,,,,,,,,,,,,,,,,,
,,,,,44,2020-07-03_17h46.30.137,retriever_ti,2020.1.3,Win32,60,Chrome,1536,864,,,,,,,,,,,,,,,,,2,,,,,,,,,,,,,,,,,,,,,,,,,,,776.936735,151,left,1.33022,giraffe     ,3,3,-3,0,3,776.95339,776.95339,779.451975,0,73,73,73,1,151,3,6,giraffe     ,peacock       ,html/resources/sequences_IDs/B/03_giraffe.jpg,html/resources/sequences_IDs/A/05_peacock.jpg,3,5,1,1,2,1,2,4,0,44,,,,,,,,,,,,,,,,,,,,
,,,,,44,2020-07-03_17h46.30.137,retriever_ti,2020.1.3,Win32,60,Chrome,1536,864,,,,,,,,,,,,,,,,,2,,,,,,,,,,,,,,,,,,,,,,,,,,,780.05261,152,left,0.995425,hat           ,2,8,-1,0,1,780.086345,780.086345,782.586255,0,74,74,74,1,152,2,3,hat           ,giraffe     ,html/resources/sequences_IDs/A/08_hat.jpg,html/resources/sequences_IDs/B/03_giraffe.jpg,8,3,3,2,1,1,7,2,1,44,,,,,,,,,,,,,,,,,,,,
,,,,,44,2020-07-03_17h46.30.137,retriever_ti,2020.1.3,Win32,60,Chrome,1536,864,,,,,,,,,,,,,,,,,2,,,,,,,,,,,,,,,,,,,,,,,,,,,783.68786,153,right,1.00948,holdfast    ,7,4,2,1,3,783.73086,783.73086,786.22089,0,75,75,75,1,153,5,7,phone       ,holdfast    ,html/resources/sequences_IDs/B/09_phone.jpg,html/resources/sequences_IDs/B/04_holdfast.jpg,9,4,4,2,2,1,8,3,0,44,,,,,,,,,,,,,,,,,,,,
,,,,,44,2020-07-03_17h46.30.137,retriever_ti,2020.1.3,Win32,60,Chrome,1536,864,,,,,,,,,,,,,,,,,2,,,,,,,,,,,,,,,,,,,,,,,,,,,786.8217,154,left,1.01948,peacock       ,6,5,2,1,3,786.839515,786.839515,789.33993,0,76,76,76,1,154,6,4,peacock       ,wolf          ,html/resources/sequences_IDs/A/05_peacock.jpg,html/resources/sequences_IDs/A/01_wolf.jpg,5,1,2,1,1,1,4,1,0,44,,,,,,,,,,,,,,,,,,,,
,,,,,44,2020-07-03_17h46.30.137,retriever_ti,2020.1.3,Win32,60,Chrome,1536,864,,,,,,,,,,,,,,,,,,,,,,,,,,,,,,,,,,,,,0,1.437915,,,,,,,,,,,,,,,,,,,,,,,,,,,,,,,,,,,,,,,,,1,0,1,0,1,,,,,,,,,,,,,,,
,,,,,44,2020-07-03_17h46.30.137,retriever_ti,2020.1.3,Win32,60,Chrome,1536,864,,,,,,,,,,,,,,,,,3,,,,,,,,,,,,,,,,,,,,,,,,,,,801.247215,155,left,1.27968,giraffe     ,3,3,-1,0,0,801.261525,801.261525,803.761305,0,0,0,0,1,155,3,4,giraffe     ,wolf          ,html/resources/sequences_IDs/B/03_giraffe.jpg,html/resources/sequences_IDs/A/01_wolf.jpg,3,1,1,1,1,1,2,1,0,44,,,,,,,,,,,,,,,,,,,,
,,,,,44,2020-07-03_17h46.30.137,retriever_ti,2020.1.3,Win32,60,Chrome,1536,864,,,,,,,,,,,,,,,,,3,,,,,,,,,,,,,,,,,,,,,,,,,,,804.862555,156,right,0.91567,scarf         ,8,6,1,1,1,804.89599,804.89599,807.39581,0,1,1,1,1,156,7,8,holdfast    ,scarf         ,html/resources/sequences_IDs/B/04_holdfast.jpg,html/resources/sequences_IDs/A/06_scarf.jpg,4,6,2,1,3,2,3,5,0,44,,,,,,,,,,,,,,,,,,,,
,,,,,44,2020-07-03_17h46.30.137,retriever_ti,2020.1.3,Win32,60,Chrome,1536,864,,,,,,,,,,,,,,,,,3,,,,,,,,,,,,,,,,,,,,,,,,,,,808.496585,157,left,0.91194,hat           ,2,8,1,1,1,808.530425,808.530425,811.0304,0,2,2,2,1,157,2,1,hat           ,sport_tshirt,html/resources/sequences_IDs/A/08_hat.jpg,html/resources/sequences_IDs/B/07_sport_tshirt.jpg,8,7,3,2,3,2,7,6,0,44,,,,,,,,,,,,,,,,,,,,
,,,,,44,2020-07-03_17h46.30.137,retriever_ti,2020.1.3,Win32,60,Chrome,1536,864,,,,,,,,,,,,,,,,,3,,,,,,,,,,,,,,,,,,,,,,,,,,,812.13205,158,right,0.98249,holdfast    ,7,4,1,1,1,812.149135,812.149135,814.648925,0,3,3,3,1,158,6,7,peacock       ,holdfast    ,html/resources/sequences_IDs/A/05_peacock.jpg,html/resources/sequences_IDs/B/04_holdfast.jpg,5,4,2,1,2,1,4,3,0,44,,,,,,,,,,,,,,,,,,,,
,,,,,44,2020-07-03_17h46.30.137,retriever_ti,2020.1.3,Win32,60,Chrome,1536,864,,,,,,,,,,,,,,,,,3,,,,,,,,,,,,,,,,,,,,,,,,,,,815.75031,159,left,1.175335,holdfast    ,7,4,5,1,3,815.78503,815.78503,818.28303,0,4,4,4,1,159,7,2,holdfast    ,hat           ,html/resources/sequences_IDs/B/04_holdfast.jpg,html/resources/sequences_IDs/A/08_hat.jpg,4,8,2,1,3,2,3,7,0,44,,,,,,,,,,,,,,,,,,,,
,,,,,44,2020-07-03_17h46.30.137,retriever_ti,2020.1.3,Win32,60,Chrome,1536,864,,,,,,,,,,,,,,,,,3,,,,,,,,,,,,,,,,,,,,,,,,,,,818.88457,160,right,1.074435,phone       ,5,9,-1,0,0,818.91783,818.91783,821.417715,0,5,5,5,1,160,6,5,peacock       ,phone       ,html/resources/sequences_IDs/A/05_peacock.jpg,html/resources/sequences_IDs/B/09_phone.jpg,5,9,2,1,4,2,4,8,0,44,,,,,,,,,,,,,,,,,,,,
,,,,,44,2020-07-03_17h46.30.137,retriever_ti,2020.1.3,Win32,60,Chrome,1536,864,,,,,,,,,,,,,,,,,3,,,,,,,,,,,,,,,,,,,,,,,,,,,822.51878,161,left,1.536725,holdfast    ,7,4,1,1,1,822.53642,822.53642,825.035765,0,6,6,6,1,161,7,6,holdfast    ,peacock       ,html/resources/sequences_IDs/B/04_holdfast.jpg,html/resources/sequences_IDs/A/05_peacock.jpg,4,5,2,1,2,1,3,4,0,44,,,,,,,,,,,,,,,,,,,,
,,,,,44,2020-07-03_17h46.30.137,retriever_ti,2020.1.3,Win32,60,Chrome,1536,864,,,,,,,,,,,,,,,,,3,,,,,,,,,,,,,,,,,,,,,,,,,,,826.136875,162,right,1.18197,phone       ,5,9,4,1,3,826.15337,826.15337,828.653895,0,7,7,7,1,162,1,5,sport_tshirt,phone       ,html/resources/sequences_IDs/B/07_sport_tshirt.jpg,html/resources/sequences_IDs/B/09_phone.jpg,7,9,3,2,4,2,6,8,0,44,,,,,,,,,,,,,,,,,,,,
,,,,,44,2020-07-03_17h46.30.137,retriever_ti,2020.1.3,Win32,60,Chrome,1536,864,,,,,,,,,,,,,,,,,3,,,,,,,,,,,,,,,,,,,,,,,,,,,829.27112,163,left,0.76846,wolf          ,4,1,-4,0,3,829.29655,829.29655,831.788385,0,8,8,8,1,163,4,8,wolf          ,scarf         ,html/resources/sequences_IDs/A/01_wolf.jpg,html/resources/sequences_IDs/A/06_scarf.jpg,1,6,1,1,3,2,1,5,0,44,,,,,,,,,,,,,,,,,,,,
,,,,,44,2020-07-03_17h46.30.137,retriever_ti,2020.1.3,Win32,60,Chrome,1536,864,,,,,,,,,,,,,,,,,3,,,,,,,,,,,,,,,,,,,,,,,,,,,832.389675,164,left,1.069245,giraffe     ,3,3,1,1,1,832.407105,832.407105,834.90633,0,9,9,9,1,164,3,2,giraffe     ,hat           ,html/resources/sequences_IDs/B/03_giraffe.jpg,html/resources/sequences_IDs/A/08_hat.jpg,3,8,1,1,3,2,2,7,0,44,,,,,,,,,,,,,,,,,,,,
,,,,,44,2020-07-03_17h46.30.137,retriever_ti,2020.1.3,Win32,60,Chrome,1536,864,,,,,,,,,,,,,,,,,3,,,,,,,,,,,,,,,,,,,,,,,,,,,836.00713,165,right,0.821225,scarf         ,8,6,1,1,1,836.02474,836.02474,838.52439,0,10,10,10,1,165,7,8,holdfast    ,scarf         ,html/resources/sequences_IDs/B/04_holdfast.jpg,html/resources/sequences_IDs/A/06_scarf.jpg,4,6,2,1,3,2,3,5,0,44,,,,,,,,,,,,,,,,,,,,
,,,,,44,2020-07-03_17h46.30.137,retriever_ti,2020.1.3,Win32,60,Chrome,1536,864,,,,,,,,,,,,,,,,,3,,,,,,,,,,,,,,,,,,,,,,,,,,,839.625975,166,left,0.768,hat           ,2,8,1,1,1,839.64317,839.64317,842.14238,0,11,11,11,1,166,2,1,hat           ,sport_tshirt,html/resources/sequences_IDs/A/08_hat.jpg,html/resources/sequences_IDs/B/07_sport_tshirt.jpg,8,7,3,2,3,2,7,6,0,44,,,,,,,,,,,,,,,,,,,,
,,,,,44,2020-07-03_17h46.30.137,retriever_ti,2020.1.3,Win32,60,Chrome,1536,864,,,,,,,,,,,,,,,,,3,,,,,,,,,,,,,,,,,,,,,,,,,,,843.24359,167,right,0.785625,scarf         ,8,6,3,1,3,843.26065,843.26065,845.76044,0,12,12,12,1,167,5,8,phone       ,scarf         ,html/resources/sequences_IDs/B/09_phone.jpg,html/resources/sequences_IDs/A/06_scarf.jpg,9,6,4,2,3,2,8,5,0,44,,,,,,,,,,,,,,,,,,,,
,,,,,44,2020-07-03_17h46.30.137,retriever_ti,2020.1.3,Win32,60,Chrome,1536,864,,,,,,,,,,,,,,,,,3,,,,,,,,,,,,,,,,,,,,,,,,,,,846.361985,168,right,1.016045,holdfast    ,7,4,6,1,3,846.395935,846.395935,848.895415,0,13,13,13,1,168,1,7,sport_tshirt,holdfast    ,html/resources/sequences_IDs/B/07_sport_tshirt.jpg,html/resources/sequences_IDs/B/04_holdfast.jpg,7,4,3,2,2,1,6,3,0,44,,,,,,,,,,,,,,,,,,,,
,,,,,44,2020-07-03_17h46.30.137,retriever_ti,2020.1.3,Win32,60,Chrome,1536,864,,,,,,,,,,,,,,,,,3,,,,,,,,,,,,,,,,,,,,,,,,,,,849.513905,169,left,0.74288,holdfast    ,7,4,4,1,3,849.549665,849.549665,852.04631,0,14,14,14,1,169,7,3,holdfast    ,giraffe     ,html/resources/sequences_IDs/B/04_holdfast.jpg,html/resources/sequences_IDs/B/03_giraffe.jpg,4,3,2,1,1,1,3,2,0,44,,,,,,,,,,,,,,,,,,,,
,,,,,44,2020-07-03_17h46.30.137,retriever_ti,2020.1.3,Win32,60,Chrome,1536,864,,,,,,,,,,,,,,,,,3,,,,,,,,,,,,,,,,,,,,,,,,,,,852.66426,170,left,1.29909,giraffe     ,3,3,-1,0,0,852.681185,852.681185,855.180565,0,15,15,15,1,170,3,4,giraffe     ,wolf          ,html/resources/sequences_IDs/B/03_giraffe.jpg,html/resources/sequences_IDs/A/01_wolf.jpg,3,1,1,1,1,1,2,1,0,44,,,,,,,,,,,,,,,,,,,,
,,,,,44,2020-07-03_17h46.30.137,retriever_ti,2020.1.3,Win32,60,Chrome,1536,864,,,,,,,,,,,,,,,,,3,,,,,,,,,,,,,,,,,,,,,,,,,,,856.281475,171,right,0.902605,hat           ,2,8,1,1,1,856.315735,856.315735,858.815405,0,16,16,16,1,171,1,2,sport_tshirt,hat           ,html/resources/sequences_IDs/B/07_sport_tshirt.jpg,html/resources/sequences_IDs/A/08_hat.jpg,7,8,3,2,3,2,6,7,0,44,,,,,,,,,,,,,,,,,,,,
,,,,,44,2020-07-03_17h46.30.137,retriever_ti,2020.1.3,Win32,60,Chrome,1536,864,,,,,,,,,,,,,,,,,3,,,,,,,,,,,,,,,,,,,,,,,,,,,859.917255,172,right,0.615745,hat           ,2,8,1,1,1,859.95092,859.95092,862.450155,0,17,17,17,1,172,1,2,sport_tshirt,hat           ,html/resources/sequences_IDs/B/07_sport_tshirt.jpg,html/resources/sequences_IDs/A/08_hat.jpg,7,8,3,2,3,2,6,7,0,44,,,,,,,,,,,,,,,,,,,,
,,,,,44,2020-07-03_17h46.30.137,retriever_ti,2020.1.3,Win32,60,Chrome,1536,864,,,,,,,,,,,,,,,,,3,,,,,,,,,,,,,,,,,,,,,,,,,,,863.550915,173,right,1.172805,phone       ,5,9,2,1,3,863.58507,863.58507,866.08483,0,18,18,18,1,173,3,5,giraffe     ,phone       ,html/resources/sequences_IDs/B/03_giraffe.jpg,html/resources/sequences_IDs/B/09_phone.jpg,3,9,1,1,4,2,2,8,0,44,,,,,,,,,,,,,,,,,,,,
,,,,,44,2020-07-03_17h46.30.137,retriever_ti,2020.1.3,Win32,60,Chrome,1536,864,,,,,,,,,,,,,,,,,3,,,,,,,,,,,,,,,,,,,,,,,,,,,866.686435,174,right,0.64471,wolf          ,4,1,2,1,3,866.702825,866.702825,869.20314,0,19,19,19,1,174,2,4,hat           ,wolf          ,html/resources/sequences_IDs/A/08_hat.jpg,html/resources/sequences_IDs/A/01_wolf.jpg,8,1,3,2,1,1,7,1,0,44,,,,,,,,,,,,,,,,,,,,
,,,,,44,2020-07-03_17h46.30.137,retriever_ti,2020.1.3,Win32,60,Chrome,1536,864,,,,,,,,,,,,,,,,,3,,,,,,,,,,,,,,,,,,,,,,,,,,,869.821935,175,right,0.72626,holdfast    ,7,4,1,1,0,869.839805,869.839805,872.33723,0,20,20,20,1,175,6,7,peacock       ,holdfast    ,html/resources/sequences_IDs/A/05_peacock.jpg,html/resources/sequences_IDs/B/04_holdfast.jpg,5,4,2,1,2,1,4,3,1,44,,,,,,,,,,,,,,,,,,,,
,,,,,44,2020-07-03_17h46.30.137,retriever_ti,2020.1.3,Win32,60,Chrome,1536,864,,,,,,,,,,,,,,,,,3,,,,,,,,,,,,,,,,,,,,,,,,,,,873.438885,176,left,0.916185,peacock       ,6,5,4,1,3,873.46583,873.46583,875.95503,0,21,21,21,1,176,6,2,peacock       ,hat           ,html/resources/sequences_IDs/A/05_peacock.jpg,html/resources/sequences_IDs/A/08_hat.jpg,5,8,2,1,3,2,4,7,0,44,,,,,,,,,,,,,,,,,,,,
,,,,,44,2020-07-03_17h46.30.137,retriever_ti,2020.1.3,Win32,60,Chrome,1536,864,,,,,,,,,,,,,,,,,3,,,,,,,,,,,,,,,,,,,,,,,,,,,876.55612,177,left,1.10586,wolf          ,4,1,1,1,1,876.590615,876.590615,879.089765,0,22,22,22,1,177,4,3,wolf          ,giraffe     ,html/resources/sequences_IDs/A/01_wolf.jpg,html/resources/sequences_IDs/B/03_giraffe.jpg,1,3,1,1,1,1,1,2,0,44,,,,,,,,,,,,,,,,,,,,
,,,,,44,2020-07-03_17h46.30.137,retriever_ti,2020.1.3,Win32,60,Chrome,1536,864,,,,,,,,,,,,,,,,,3,,,,,,,,,,,,,,,,,,,,,,,,,,,880.193375,178,right,1.28888,hat           ,2,8,-1,0,0,880.20973,880.20973,882.708005,0,23,23,23,1,178,3,2,giraffe     ,hat           ,html/resources/sequences_IDs/B/03_giraffe.jpg,html/resources/sequences_IDs/A/08_hat.jpg,3,8,1,1,3,2,2,7,0,44,,,,,,,,,,,,,,,,,,,,
,,,,,44,2020-07-03_17h46.30.137,retriever_ti,2020.1.3,Win32,60,Chrome,1536,864,,,,,,,,,,,,,,,,,3,,,,,,,,,,,,,,,,,,,,,,,,,,,883.808935,179,left,1.541115,wolf          ,4,1,1,1,1,883.843085,883.843085,886.342565,0,24,24,24,1,179,4,3,wolf          ,giraffe     ,html/resources/sequences_IDs/A/01_wolf.jpg,html/resources/sequences_IDs/B/03_giraffe.jpg,1,3,1,1,1,1,1,2,0,44,,,,,,,,,,,,,,,,,,,,
,,,,,44,2020-07-03_17h46.30.137,retriever_ti,2020.1.3,Win32,60,Chrome,1536,864,,,,,,,,,,,,,,,,,3,,,,,,,,,,,,,,,,,,,,,,,,,,,887.451125,180,left,0.901675,scarf         ,8,6,2,1,3,887.46242,887.46242,889.96051,0,25,25,25,1,180,8,6,scarf         ,peacock       ,html/resources/sequences_IDs/A/06_scarf.jpg,html/resources/sequences_IDs/A/05_peacock.jpg,6,5,3,2,2,1,5,4,0,44,,,,,,,,,,,,,,,,,,,,
,,,,,44,2020-07-03_17h46.30.137,retriever_ti,2020.1.3,Win32,60,Chrome,1536,864,,,,,,,,,,,,,,,,,3,,,,,,,,,,,,,,,,,,,,,,,,,,,890.561565,181,right,1.02189,holdfast    ,7,4,2,1,3,890.578585,890.578585,893.078515,0,26,26,26,1,181,5,7,phone       ,holdfast    ,html/resources/sequences_IDs/B/09_phone.jpg,html/resources/sequences_IDs/B/04_holdfast.jpg,9,4,4,2,2,1,8,3,0,44,,,,,,,,,,,,,,,,,,,,
,,,,,44,2020-07-03_17h46.30.137,retriever_ti,2020.1.3,Win32,60,Chrome,1536,864,,,,,,,,,,,,,,,,,3,,,,,,,,,,,,,,,,,,,,,,,,,,,893.680085,182,left,1.20054,wolf          ,4,1,-2,0,3,893.69627,893.69627,896.19616,0,27,27,27,1,182,4,6,wolf          ,peacock       ,html/resources/sequences_IDs/A/01_wolf.jpg,html/resources/sequences_IDs/A/05_peacock.jpg,1,5,1,1,2,1,1,4,0,44,,,,,,,,,,,,,,,,,,,,
,,,,,44,2020-07-03_17h46.30.137,retriever_ti,2020.1.3,Win32,60,Chrome,1536,864,,,,,,,,,,,,,,,,,3,,,,,,,,,,,,,,,,,,,,,,,,,,,896.797805,183,right,1.09354,peacock       ,6,5,5,1,3,896.817775,896.817775,899.31413,0,28,28,28,1,183,1,6,sport_tshirt,peacock       ,html/resources/sequences_IDs/B/07_sport_tshirt.jpg,html/resources/sequences_IDs/A/05_peacock.jpg,7,5,3,2,2,1,6,4,0,44,,,,,,,,,,,,,,,,,,,,
,,,,,44,2020-07-03_17h46.30.137,retriever_ti,2020.1.3,Win32,60,Chrome,1536,864,,,,,,,,,,,,,,,,,3,,,,,,,,,,,,,,,,,,,,,,,,,,,899.91588,184,left,0.840075,holdfast    ,7,4,1,1,1,899.93251,899.93251,902.43218,0,29,29,29,1,184,7,6,holdfast    ,peacock       ,html/resources/sequences_IDs/B/04_holdfast.jpg,html/resources/sequences_IDs/A/05_peacock.jpg,4,5,2,1,2,1,3,4,0,44,,,,,,,,,,,,,,,,,,,,
,,,,,44,2020-07-03_17h46.30.137,retriever_ti,2020.1.3,Win32,60,Chrome,1536,864,,,,,,,,,,,,,,,,,3,,,,,,,,,,,,,,,,,,,,,,,,,,,903.53296,185,right,1.686705,wolf          ,4,1,1,1,0,903.550405,903.550405,906.04986,0,30,30,30,1,185,3,4,giraffe     ,wolf          ,html/resources/sequences_IDs/B/03_giraffe.jpg,html/resources/sequences_IDs/A/01_wolf.jpg,3,1,1,1,1,1,2,1,1,44,,,,,,,,,,,,,,,,,,,,
,,,,,44,2020-07-03_17h46.30.137,retriever_ti,2020.1.3,Win32,60,Chrome,1536,864,,,,,,,,,,,,,,,,,3,,,,,,,,,,,,,,,,,,,,,,,,,,,907.15158,186,right,1.101505,giraffe     ,3,3,2,1,3,907.168325,907.168325,909.668165,0,31,31,31,1,186,1,3,sport_tshirt,giraffe     ,html/resources/sequences_IDs/B/07_sport_tshirt.jpg,html/resources/sequences_IDs/B/03_giraffe.jpg,7,3,3,2,1,1,6,2,0,44,,,,,,,,,,,,,,,,,,,,
,,,,,44,2020-07-03_17h46.30.137,retriever_ti,2020.1.3,Win32,60,Chrome,1536,864,,,,,,,,,,,,,,,,,3,,,,,,,,,,,,,,,,,,,,,,,,,,,910.268975,187,left,1.451715,scarf         ,8,6,4,1,3,910.303025,910.303025,912.80258,0,32,32,32,1,187,8,4,scarf         ,wolf          ,html/resources/sequences_IDs/A/06_scarf.jpg,html/resources/sequences_IDs/A/01_wolf.jpg,6,1,3,2,1,1,5,1,0,44,,,,,,,,,,,,,,,,,,,,
,,,,,44,2020-07-03_17h46.30.137,retriever_ti,2020.1.3,Win32,60,Chrome,1536,864,,,,,,,,,,,,,,,,,3,,,,,,,,,,,,,,,,,,,,,,,,,,,913.403805,188,right,0.85058,holdfast    ,7,4,5,1,3,913.420565,913.420565,915.920595,0,33,33,33,1,188,2,7,hat           ,holdfast    ,html/resources/sequences_IDs/A/08_hat.jpg,html/resources/sequences_IDs/B/04_holdfast.jpg,8,4,3,2,2,1,7,3,0,44,,,,,,,,,,,,,,,,,,,,
,,,,,44,2020-07-03_17h46.30.137,retriever_ti,2020.1.3,Win32,60,Chrome,1536,864,,,,,,,,,,,,,,,,,3,,,,,,,,,,,,,,,,,,,,,,,,,,,916.521255,189,right,1.24088,holdfast    ,7,4,-1,0,0,916.55508,916.55508,919.05492,0,34,34,34,1,189,8,7,scarf         ,holdfast    ,html/resources/sequences_IDs/A/06_scarf.jpg,html/resources/sequences_IDs/B/04_holdfast.jpg,6,4,3,2,2,1,5,3,0,44,,,,,,,,,,,,,,,,,,,,
,,,,,44,2020-07-03_17h46.30.137,retriever_ti,2020.1.3,Win32,60,Chrome,1536,864,,,,,,,,,,,,,,,,,3,,,,,,,,,,,,,,,,,,,,,,,,,,,920.15651,190,left,1.0291,hat           ,2,8,-4,0,3,920.173365,920.173365,922.67297,0,35,35,35,1,190,2,6,hat           ,peacock       ,html/resources/sequences_IDs/A/08_hat.jpg,html/resources/sequences_IDs/A/05_peacock.jpg,8,5,3,2,2,1,7,4,0,44,,,,,,,,,,,,,,,,,,,,
,,,,,44,2020-07-03_17h46.30.137,retriever_ti,2020.1.3,Win32,60,Chrome,1536,864,,,,,,,,,,,,,,,,,3,,,,,,,,,,,,,,,,,,,,,,,,,,,923.27825,191,left,0.782045,hat           ,2,8,-3,0,3,923.30814,923.30814,925.807485,0,36,36,36,1,191,2,5,hat           ,phone       ,html/resources/sequences_IDs/A/08_hat.jpg,html/resources/sequences_IDs/B/09_phone.jpg,8,9,3,2,4,2,7,8,0,44,,,,,,,,,,,,,,,,,,,,
,,,,,44,2020-07-03_17h46.30.137,retriever_ti,2020.1.3,Win32,60,Chrome,1536,864,,,,,,,,,,,,,,,,,3,,,,,,,,,,,,,,,,,,,,,,,,,,,926.408865,192,left,0.98803,holdfast    ,7,4,6,1,3,926.42546,926.42546,928.925325,0,37,37,37,1,192,7,1,holdfast    ,sport_tshirt,html/resources/sequences_IDs/B/04_holdfast.jpg,html/resources/sequences_IDs/B/07_sport_tshirt.jpg,4,7,2,1,3,2,3,6,0,44,,,,,,,,,,,,,,,,,,,,
,,,,,44,2020-07-03_17h46.30.137,retriever_ti,2020.1.3,Win32,60,Chrome,1536,864,,,,,,,,,,,,,,,,,3,,,,,,,,,,,,,,,,,,,,,,,,,,,929.525755,193,right,1.12486,wolf          ,4,1,-3,0,3,929.543055,929.543055,932.04335,0,38,38,38,1,193,7,4,holdfast    ,wolf          ,html/resources/sequences_IDs/B/04_holdfast.jpg,html/resources/sequences_IDs/A/01_wolf.jpg,4,1,2,1,1,1,3,1,0,44,,,,,,,,,,,,,,,,,,,,
,,,,,44,2020-07-03_17h46.30.137,retriever_ti,2020.1.3,Win32,60,Chrome,1536,864,,,,,,,,,,,,,,,,,3,,,,,,,,,,,,,,,,,,,,,,,,,,,932.6447,194,right,1.326505,wolf          ,4,1,-2,0,3,932.66129,932.66129,935.16125,0,39,39,39,1,194,6,4,peacock       ,wolf          ,html/resources/sequences_IDs/A/05_peacock.jpg,html/resources/sequences_IDs/A/01_wolf.jpg,5,1,2,1,1,1,4,1,0,44,,,,,,,,,,,,,,,,,,,,
,,,,,44,2020-07-03_17h46.30.137,retriever_ti,2020.1.3,Win32,60,Chrome,1536,864,,,,,,,,,,,,,,,,,3,,,,,,,,,,,,,,,,,,,,,,,,,,,935.76184,195,left,1.440905,phone       ,5,9,-1,0,0,935.77942,935.77942,938.278855,0,40,40,40,1,195,5,6,phone       ,peacock       ,html/resources/sequences_IDs/B/09_phone.jpg,html/resources/sequences_IDs/A/05_peacock.jpg,9,5,4,2,2,1,8,4,0,44,,,,,,,,,,,,,,,,,,,,
,,,,,44,2020-07-03_17h46.30.137,retriever_ti,2020.1.3,Win32,60,Chrome,1536,864,,,,,,,,,,,,,,,,,3,,,,,,,,,,,,,,,,,,,,,,,,,,,939.380405,196,left,1.53859,phone       ,5,9,2,1,3,939.4142,939.4142,941.913665,0,41,41,41,1,196,5,3,phone       ,giraffe     ,html/resources/sequences_IDs/B/09_phone.jpg,html/resources/sequences_IDs/B/03_giraffe.jpg,9,3,4,2,1,1,8,2,0,44,,,,,,,,,,,,,,,,,,,,
,,,,,44,2020-07-03_17h46.30.137,retriever_ti,2020.1.3,Win32,60,Chrome,1536,864,,,,,,,,,,,,,,,,,3,,,,,,,,,,,,,,,,,,,,,,,,,,,942.514945,197,left,0.72233,scarf         ,8,6,7,1,3,942.53194,942.53194,945.031435,0,42,42,42,1,197,8,1,scarf         ,sport_tshirt,html/resources/sequences_IDs/A/06_scarf.jpg,html/resources/sequences_IDs/B/07_sport_tshirt.jpg,6,7,3,2,3,2,5,6,0,44,,,,,,,,,,,,,,,,,,,,
,,,,,44,2020-07-03_17h46.30.137,retriever_ti,2020.1.3,Win32,60,Chrome,1536,864,,,,,,,,,,,,,,,,,3,,,,,,,,,,,,,,,,,,,,,,,,,,,945.63317,198,left,1.240685,peacock       ,6,5,1,1,1,945.666505,945.666505,948.165965,0,43,43,43,1,198,6,5,peacock       ,phone       ,html/resources/sequences_IDs/A/05_peacock.jpg,html/resources/sequences_IDs/B/09_phone.jpg,5,9,2,1,4,2,4,8,0,44,,,,,,,,,,,,,,,,,,,,
,,,,,44,2020-07-03_17h46.30.137,retriever_ti,2020.1.3,Win32,60,Chrome,1536,864,,,,,,,,,,,,,,,,,3,,,,,,,,,,,,,,,,,,,,,,,,,,,949.26721,199,right,0.906195,scarf         ,8,6,6,1,3,949.2862,949.2862,951.784025,0,44,44,44,1,199,2,8,hat           ,scarf         ,html/resources/sequences_IDs/A/08_hat.jpg,html/resources/sequences_IDs/A/06_scarf.jpg,8,6,3,2,3,2,7,5,0,44,,,,,,,,,,,,,,,,,,,,
,,,,,44,2020-07-03_17h46.30.137,retriever_ti,2020.1.3,Win32,60,Chrome,1536,864,,,,,,,,,,,,,,,,,3,,,,,,,,,,,,,,,,,,,,,,,,,,,952.385405,200,left,0.704365,scarf         ,8,6,3,1,3,952.40244,952.40244,954.90217,0,45,45,45,1,200,8,5,scarf         ,phone       ,html/resources/sequences_IDs/A/06_scarf.jpg,html/resources/sequences_IDs/B/09_phone.jpg,6,9,3,2,4,2,5,8,0,44,,,,,,,,,,,,,,,,,,,,
,,,,,44,2020-07-03_17h46.30.137,retriever_ti,2020.1.3,Win32,60,Chrome,1536,864,,,,,,,,,,,,,,,,,3,,,,,,,,,,,,,,,,,,,,,,,,,,,955.51933,201,left,0.60915,scarf         ,8,6,6,1,3,955.55328,955.55328,958.05305,0,46,46,46,1,201,8,2,scarf         ,hat           ,html/resources/sequences_IDs/A/06_scarf.jpg,html/resources/sequences_IDs/A/08_hat.jpg,6,8,3,2,3,2,5,7,0,44,,,,,,,,,,,,,,,,,,,,
,,,,,44,2020-07-03_17h46.30.137,retriever_ti,2020.1.3,Win32,60,Chrome,1536,864,,,,,,,,,,,,,,,,,3,,,,,,,,,,,,,,,,,,,,,,,,,,,958.654405,202,right,0.661465,scarf         ,8,6,7,1,3,958.67141,958.67141,961.171385,0,47,47,47,1,202,1,8,sport_tshirt,scarf         ,html/resources/sequences_IDs/B/07_sport_tshirt.jpg,html/resources/sequences_IDs/A/06_scarf.jpg,7,6,3,2,3,2,6,5,0,44,,,,,,,,,,,,,,,,,,,,
,,,,,44,2020-07-03_17h46.30.137,retriever_ti,2020.1.3,Win32,60,Chrome,1536,864,,,,,,,,,,,,,,,,,3,,,,,,,,,,,,,,,,,,,,,,,,,,,961.788075,203,left,0.76465,phone       ,5,9,4,1,3,961.805335,961.805335,964.30549,0,48,48,48,1,203,5,1,phone       ,sport_tshirt,html/resources/sequences_IDs/B/09_phone.jpg,html/resources/sequences_IDs/B/07_sport_tshirt.jpg,9,7,4,2,3,2,8,6,0,44,,,,,,,,,,,,,,,,,,,,
,,,,,44,2020-07-03_17h46.30.137,retriever_ti,2020.1.3,Win32,60,Chrome,1536,864,,,,,,,,,,,,,,,,,3,,,,,,,,,,,,,,,,,,,,,,,,,,,964.906815,204,left,0.646505,hat           ,2,8,1,1,0,964.92347,964.92347,967.42332,0,49,49,49,1,204,2,1,hat           ,sport_tshirt,html/resources/sequences_IDs/A/08_hat.jpg,html/resources/sequences_IDs/B/07_sport_tshirt.jpg,8,7,3,2,3,2,7,6,1,44,,,,,,,,,,,,,,,,,,,,
,,,,,44,2020-07-03_17h46.30.137,retriever_ti,2020.1.3,Win32,60,Chrome,1536,864,,,,,,,,,,,,,,,,,3,,,,,,,,,,,,,,,,,,,,,,,,,,,968.528835,205,right,1.30776,holdfast    ,7,4,1,1,1,968.55866,968.55866,971.057925,0,50,50,50,1,205,6,7,peacock       ,holdfast    ,html/resources/sequences_IDs/A/05_peacock.jpg,html/resources/sequences_IDs/B/04_holdfast.jpg,5,4,2,1,2,1,4,3,0,44,,,,,,,,,,,,,,,,,,,,
,,,,,44,2020-07-03_17h46.30.137,retriever_ti,2020.1.3,Win32,60,Chrome,1536,864,,,,,,,,,,,,,,,,,3,,,,,,,,,,,,,,,,,,,,,,,,,,,972.15966,206,right,1.505985,wolf          ,4,1,-1,0,0,972.17632,972.17632,974.67645,0,51,51,51,1,206,5,4,phone       ,wolf          ,html/resources/sequences_IDs/B/09_phone.jpg,html/resources/sequences_IDs/A/01_wolf.jpg,9,1,4,2,1,1,8,1,0,44,,,,,,,,,,,,,,,,,,,,
,,,,,44,2020-07-03_17h46.30.137,retriever_ti,2020.1.3,Win32,60,Chrome,1536,864,,,,,,,,,,,,,,,,,3,,,,,,,,,,,,,,,,,,,,,,,,,,,975.77708,207,left,1.0895,phone       ,5,9,1,1,1,975.81116,975.81116,978.310685,0,52,52,52,1,207,5,4,phone       ,wolf          ,html/resources/sequences_IDs/B/09_phone.jpg,html/resources/sequences_IDs/A/01_wolf.jpg,9,1,4,2,1,1,8,1,0,44,,,,,,,,,,,,,,,,,,,,
,,,,,44,2020-07-03_17h46.30.137,retriever_ti,2020.1.3,Win32,60,Chrome,1536,864,,,,,,,,,,,,,,,,,3,,,,,,,,,,,,,,,,,,,,,,,,,,,979.412415,208,left,1.227525,peacock       ,6,5,3,1,3,979.44605,979.44605,981.94668,0,53,53,53,1,208,6,3,peacock       ,giraffe     ,html/resources/sequences_IDs/A/05_peacock.jpg,html/resources/sequences_IDs/B/03_giraffe.jpg,5,3,2,1,1,1,4,2,0,44,,,,,,,,,,,,,,,,,,,,
,,,,,44,2020-07-03_17h46.30.137,retriever_ti,2020.1.3,Win32,60,Chrome,1536,864,,,,,,,,,,,,,,,,,3,,,,,,,,,,,,,,,,,,,,,,,,,,,982.563195,209,left,1.617425,scarf         ,8,6,1,1,0,982.59691,982.59691,985.096575,0,54,54,54,1,209,8,7,scarf         ,holdfast    ,html/resources/sequences_IDs/A/06_scarf.jpg,html/resources/sequences_IDs/B/04_holdfast.jpg,6,4,3,2,2,1,5,3,1,44,,,,,,,,,,,,,,,,,,,,
,,,,,44,2020-07-03_17h46.30.137,retriever_ti,2020.1.3,Win32,60,Chrome,1536,864,,,,,,,,,,,,,,,,,3,,,,,,,,,,,,,,,,,,,,,,,,,,,986.19819,210,right,0.513135,holdfast    ,7,4,-1,0,0,986.215245,986.215245,988.714825,0,55,55,55,1,210,8,7,scarf         ,holdfast    ,html/resources/sequences_IDs/A/06_scarf.jpg,html/resources/sequences_IDs/B/04_holdfast.jpg,6,4,3,2,2,1,5,3,0,44,,,,,,,,,,,,,,,,,,,,
,,,,,44,2020-07-03_17h46.30.137,retriever_ti,2020.1.3,Win32,60,Chrome,1536,864,,,,,,,,,,,,,,,,,3,,,,,,,,,,,,,,,,,,,,,,,,,,,989.81583,211,left,0.97122,scarf         ,8,6,5,1,3,989.83377,989.83377,992.33296,0,56,56,56,1,211,8,3,scarf         ,giraffe     ,html/resources/sequences_IDs/A/06_scarf.jpg,html/resources/sequences_IDs/B/03_giraffe.jpg,6,3,3,2,1,1,5,2,0,44,,,,,,,,,,,,,,,,,,,,
,,,,,44,2020-07-03_17h46.30.137,retriever_ti,2020.1.3,Win32,60,Chrome,1536,864,,,,,,,,,,,,,,,,,3,,,,,,,,,,,,,,,,,,,,,,,,,,,992.9342,212,left,1.154555,phone       ,5,9,-1,0,0,992.95103,992.95103,995.45083,0,57,57,57,1,212,5,6,phone       ,peacock       ,html/resources/sequences_IDs/B/09_phone.jpg,html/resources/sequences_IDs/A/05_peacock.jpg,9,5,4,2,2,1,8,4,0,44,,,,,,,,,,,,,,,,,,,,
,,,,,44,2020-07-03_17h46.30.137,retriever_ti,2020.1.3,Win32,60,Chrome,1536,864,,,,,,,,,,,,,,,,,3,,,,,,,,,,,,,,,,,,,,,,,,,,,996.551355,213,left,0.787855,wolf          ,4,1,-1,0,0,996.58563,996.58563,999.08538,0,58,58,58,1,213,4,5,wolf          ,phone       ,html/resources/sequences_IDs/A/01_wolf.jpg,html/resources/sequences_IDs/B/09_phone.jpg,1,9,1,1,4,2,1,8,0,44,,,,,,,,,,,,,,,,,,,,
,,,,,44,2020-07-03_17h46.30.137,retriever_ti,2020.1.3,Win32,60,Chrome,1536,864,,,,,,,,,,,,,,,,,3,,,,,,,,,,,,,,,,,,,,,,,,,,,1000.18692,214,right,1.111385,holdfast    ,7,4,4,1,3,1000.203895,1000.203895,1002.703565,0,59,59,59,1,214,3,7,giraffe     ,holdfast    ,html/resources/sequences_IDs/B/03_giraffe.jpg,html/resources/sequences_IDs/B/04_holdfast.jpg,3,4,1,1,2,1,2,3,0,44,,,,,,,,,,,,,,,,,,,,
,,,,,44,2020-07-03_17h46.30.137,retriever_ti,2020.1.3,Win32,60,Chrome,1536,864,,,,,,,,,,,,,,,,,3,,,,,,,,,,,,,,,,,,,,,,,,,,,1003.30426,215,right,1.862955,wolf          ,4,1,3,1,3,1003.32147,1003.32147,1005.82146,0,60,60,60,1,215,1,4,sport_tshirt,wolf          ,html/resources/sequences_IDs/B/07_sport_tshirt.jpg,html/resources/sequences_IDs/A/01_wolf.jpg,7,1,3,2,1,1,6,1,0,44,,,,,,,,,,,,,,,,,,,,
,,,,,44,2020-07-03_17h46.30.137,retriever_ti,2020.1.3,Win32,60,Chrome,1536,864,,,,,,,,,,,,,,,,,3,,,,,,,,,,,,,,,,,,,,,,,,,,,1006.42281,216,left,0.966735,phone       ,5,9,-1,0,1,1006.456345,1006.456345,1008.95601,0,61,61,61,1,216,5,6,phone       ,peacock       ,html/resources/sequences_IDs/B/09_phone.jpg,html/resources/sequences_IDs/A/05_peacock.jpg,9,5,4,2,2,1,8,4,1,44,,,,,,,,,,,,,,,,,,,,
,,,,,44,2020-07-03_17h46.30.137,retriever_ti,2020.1.3,Win32,60,Chrome,1536,864,,,,,,,,,,,,,,,,,3,,,,,,,,,,,,,,,,,,,,,,,,,,,1010.056545,217,left,1.1076,hat           ,2,8,-1,0,0,1010.073825,1010.073825,1012.573825,0,62,62,62,1,217,2,3,hat           ,giraffe     ,html/resources/sequences_IDs/A/08_hat.jpg,html/resources/sequences_IDs/B/03_giraffe.jpg,8,3,3,2,1,1,7,2,0,44,,,,,,,,,,,,,,,,,,,,
,,,,,44,2020-07-03_17h46.30.137,retriever_ti,2020.1.3,Win32,60,Chrome,1536,864,,,,,,,,,,,,,,,,,3,,,,,,,,,,,,,,,,,,,,,,,,,,,1013.6757,218,right,0.56356,giraffe     ,3,3,1,1,1,1013.70239,1013.70239,1016.191875,0,63,63,63,1,218,2,3,hat           ,giraffe     ,html/resources/sequences_IDs/A/08_hat.jpg,html/resources/sequences_IDs/B/03_giraffe.jpg,8,3,3,2,1,1,7,2,0,44,,,,,,,,,,,,,,,,,,,,
,,,,,44,2020-07-03_17h46.30.137,retriever_ti,2020.1.3,Win32,60,Chrome,1536,864,,,,,,,,,,,,,,,,,3,,,,,,,,,,,,,,,,,,,,,,,,,,,1017.29281,219,left,0.717845,giraffe     ,3,3,-3,0,3,1017.31022,1017.31022,1019.81004,0,64,64,64,1,219,3,6,giraffe     ,peacock       ,html/resources/sequences_IDs/B/03_giraffe.jpg,html/resources/sequences_IDs/A/05_peacock.jpg,3,5,1,1,2,1,2,4,0,44,,,,,,,,,,,,,,,,,,,,
,,,,,44,2020-07-03_17h46.30.137,retriever_ti,2020.1.3,Win32,60,Chrome,1536,864,,,,,,,,,,,,,,,,,3,,,,,,,,,,,,,,,,,,,,,,,,,,,1020.411605,220,left,0.618565,giraffe     ,3,3,2,1,3,1020.42811,1020.42811,1022.92796,0,65,65,65,1,220,3,1,giraffe     ,sport_tshirt,html/resources/sequences_IDs/B/03_giraffe.jpg,html/resources/sequences_IDs/B/07_sport_tshirt.jpg,3,7,1,1,3,2,2,6,0,44,,,,,,,,,,,,,,,,,,,,
,,,,,44,2020-07-03_17h46.30.137,retriever_ti,2020.1.3,Win32,60,Chrome,1536,864,,,,,,,,,,,,,,,,,3,,,,,,,,,,,,,,,,,,,,,,,,,,,1023.528605,221,right,1.48445,scarf         ,8,6,5,1,3,1023.562815,1023.562815,1026.062555,0,66,66,66,1,221,3,8,giraffe     ,scarf         ,html/resources/sequences_IDs/B/03_giraffe.jpg,html/resources/sequences_IDs/A/06_scarf.jpg,3,6,1,1,3,2,2,5,0,44,,,,,,,,,,,,,,,,,,,,
,,,,,44,2020-07-03_17h46.30.137,retriever_ti,2020.1.3,Win32,60,Chrome,1536,864,,,,,,,,,,,,,,,,,3,,,,,,,,,,,,,,,,,,,,,,,,,,,1026.66399,222,right,1.366785,wolf          ,4,1,-1,0,1,1026.70693,1026.70693,1029.19693,0,67,67,67,1,222,5,4,phone       ,wolf          ,html/resources/sequences_IDs/B/09_phone.jpg,html/resources/sequences_IDs/A/01_wolf.jpg,9,1,4,2,1,1,8,1,1,44,,,,,,,,,,,,,,,,,,,,
,,,,,44,2020-07-03_17h46.30.137,retriever_ti,2020.1.3,Win32,60,Chrome,1536,864,,,,,,,,,,,,,,,,,3,,,,,,,,,,,,,,,,,,,,,,,,,,,1030.297775,223,right,0.866825,scarf         ,8,6,2,1,3,1030.33173,1030.33173,1032.83189,0,68,68,68,1,223,6,8,peacock       ,scarf         ,html/resources/sequences_IDs/A/05_peacock.jpg,html/resources/sequences_IDs/A/06_scarf.jpg,5,6,2,1,3,2,4,5,0,44,,,,,,,,,,,,,,,,,,,,
,,,,,44,2020-07-03_17h46.30.137,retriever_ti,2020.1.3,Win32,60,Chrome,1536,864,,,,,,,,,,,,,,,,,3,,,,,,,,,,,,,,,,,,,,,,,,,,,1033.433255,224,left,1.137335,wolf          ,4,1,-1,0,0,1033.449545,1033.449545,1035.94958,0,69,69,69,1,224,4,5,wolf          ,phone       ,html/resources/sequences_IDs/A/01_wolf.jpg,html/resources/sequences_IDs/B/09_phone.jpg,1,9,1,1,4,2,1,8,0,44,,,,,,,,,,,,,,,,,,,,
