instructionsLoop.thisRepN,instructionsLoop.thisTrialN,instructionsLoop.thisN,instructionsLoop.thisIndex,instructionsLoop.ran,participant,date,expName,psychopyVersion,OS,frameRate,browser,xResolution,yResolution,fix_onset,tprac,practiceKey.keys,practiceKey.rt,pracitem_chosen_name,acc_practice,P1_onsetPrac,P2_onsetPrac,onsetFeedbPrac,practiceTrials.thisRepN,practiceTrials.thisTrialN,practiceTrials.thisN,practiceTrials.thisIndex,practiceTrials.ran,P1,P2,Block,LocItem1,LocItem2,NameItem1,NameItem2,key_respAC_prac.keys,key_respAC_prac.corr,key_respAC_prac.rt,AC_acc,Attentions.thisRepN,Attentions.thisTrialN,Attentions.thisN,Attentions.thisIndex,Attentions.ran,Stim,Loc1,Loc2,Loc3,Loc4,CorrAns,keyDisturbed.keys,keyDisturbed.rt,repPractice.thisRepN,repPractice.thisTrialN,repPractice.thisN,repPractice.thisIndex,repPractice.ran,fixcross_onsetMain,trialNumber,key_resp.keys,key_resp.rt,item_chosen_name,item_chosen_value,item_chosen_ID,diff_chosen_minus_reject,acc_real,acc_feedback,P1_onset,P2_onset,feedb_onset,trials.thisRepN,trials.thisTrialN,trials.thisN,trials.thisIndex,trials.ran,Trial,ValueP1,ValueP2,P1name,P2name,P1Loc,P2Loc,P1id,P2id,Micro_categoryP1,Macro_categoryP1,Micro_categoryP2,Macro_categoryP2,ID_sequenceP1,ID_sequenceP2,InverseFb,pNumber,repBlocks.thisRepN,repBlocks.thisTrialN,repBlocks.thisN,repBlocks.thisIndex,repBlocks.ran,key_respAC.keys,key_respAC.corr,key_respAC.rt,trials_AC.thisRepN,trials_AC.thisTrialN,trials_AC.thisN,trials_AC.thisIndex,trials_AC.ran,Bonus,BonusLoop.thisRepN,BonusLoop.thisTrialN,BonusLoop.thisN,BonusLoop.thisIndex,BonusLoop.ran,comments
0,0,0,0,1,45,2020-07-04_14h47.55.317,retriever_ti,2020.1.3,Win32,60,Chrome,1920,1080,,,,,,,,,,,,,,,,,,,,,,,,,,,,,,,,,,,,,,,,,,,,,,,,,,,,,,,,,,,,,,,,,,,,,,,,,,,,,,,,,,,,,,,,,,,,,,,,,,
1,0,1,0,1,45,2020-07-04_14h47.55.317,retriever_ti,2020.1.3,Win32,60,Chrome,1920,1080,,,,,,,,,,,,,,,,,,,,,,,,,,,,,,,,,,,,,,,,,,,,,,,,,,,,,,,,,,,,,,,,,,,,,,,,,,,,,,,,,,,,,,,,,,,,,,,,,,
2,0,2,0,1,45,2020-07-04_14h47.55.317,retriever_ti,2020.1.3,Win32,60,Chrome,1920,1080,,,,,,,,,,,,,,,,,,,,,,,,,,,,,,,,,,,,,,,,,,,,,,,,,,,,,,,,,,,,,,,,,,,,,,,,,,,,,,,,,,,,,,,,,,,,,,,,,,
3,0,3,0,1,45,2020-07-04_14h47.55.317,retriever_ti,2020.1.3,Win32,60,Chrome,1920,1080,,,,,,,,,,,,,,,,,,,,,,,,,,,,,,,,,,,,,,,,,,,,,,,,,,,,,,,,,,,,,,,,,,,,,,,,,,,,,,,,,,,,,,,,,,,,,,,,,,
4,0,4,0,1,45,2020-07-04_14h47.55.317,retriever_ti,2020.1.3,Win32,60,Chrome,1920,1080,,,,,,,,,,,,,,,,,,,,,,,,,,,,,,,,,,,,,,,,,,,,,,,,,,,,,,,,,,,,,,,,,,,,,,,,,,,,,,,,,,,,,,,,,,,,,,,,,,
5,0,5,0,1,45,2020-07-04_14h47.55.317,retriever_ti,2020.1.3,Win32,60,Chrome,1920,1080,,,,,,,,,,,,,,,,,,,,,,,,,,,,,,,,,,,,,,,,,,,,,,,,,,,,,,,,,,,,,,,,,,,,,,,,,,,,,,,,,,,,,,,,,,,,,,,,,,
6,0,6,0,1,45,2020-07-04_14h47.55.317,retriever_ti,2020.1.3,Win32,60,Chrome,1920,1080,,,,,,,,,,,,,,,,,,,,,,,,,,,,,,,,,,,,,,,,,,,,,,,,,,,,,,,,,,,,,,,,,,,,,,,,,,,,,,,,,,,,,,,,,,,,,,,,,,
7,0,7,0,1,45,2020-07-04_14h47.55.317,retriever_ti,2020.1.3,Win32,60,Chrome,1920,1080,,,,,,,,,,,,,,,,,,,,,,,,,,,,,,,,,,,,,,,,,,,,,,,,,,,,,,,,,,,,,,,,,,,,,,,,,,,,,,,,,,,,,,,,,,,,,,,,,,
8,0,8,0,1,45,2020-07-04_14h47.55.317,retriever_ti,2020.1.3,Win32,60,Chrome,1920,1080,,,,,,,,,,,,,,,,,,,,,,,,,,,,,,,,,,,,,,,,,,,,,,,,,,,,,,,,,,,,,,,,,,,,,,,,,,,,,,,,,,,,,,,,,,,,,,,,,,
9,0,9,0,1,45,2020-07-04_14h47.55.317,retriever_ti,2020.1.3,Win32,60,Chrome,1920,1080,,,,,,,,,,,,,,,,,,,,,,,,,,,,,,,,,,,,,,,,,,,,,,,,,,,,,,,,,,,,,,,,,,,,,,,,,,,,,,,,,,,,,,,,,,,,,,,,,,
10,0,10,0,1,45,2020-07-04_14h47.55.317,retriever_ti,2020.1.3,Win32,60,Chrome,1920,1080,,,,,,,,,,,,,,,,,,,,,,,,,,,,,,,,,,,,,,,,,,,,,,,,,,,,,,,,,,,,,,,,,,,,,,,,,,,,,,,,,,,,,,,,,,,,,,,,,,
11,0,11,0,1,45,2020-07-04_14h47.55.317,retriever_ti,2020.1.3,Win32,60,Chrome,1920,1080,,,,,,,,,,,,,,,,,,,,,,,,,,,,,,,,,,,,,,,,,,,,,,,,,,,,,,,,,,,,,,,,,,,,,,,,,,,,,,,,,,,,,,,,,,,,,,,,,,
12,0,12,0,1,45,2020-07-04_14h47.55.317,retriever_ti,2020.1.3,Win32,60,Chrome,1920,1080,,,,,,,,,,,,,,,,,,,,,,,,,,,,,,,,,,,,,,,,,,,,,,,,,,,,,,,,,,,,,,,,,,,,,,,,,,,,,,,,,,,,,,,,,,,,,,,,,,
13,0,13,0,1,45,2020-07-04_14h47.55.317,retriever_ti,2020.1.3,Win32,60,Chrome,1920,1080,,,,,,,,,,,,,,,,,,,,,,,,,,,,,,,,,,,,,,,,,,,,,,,,,,,,,,,,,,,,,,,,,,,,,,,,,,,,,,,,,,,,,,,,,,,,,,,,,,
14,0,14,0,1,45,2020-07-04_14h47.55.317,retriever_ti,2020.1.3,Win32,60,Chrome,1920,1080,,,,,,,,,,,,,,,,,,,,,,,,,,,,,,,,,,,,,,,,,,,,,,,,,,,,,,,,,,,,,,,,,,,,,,,,,,,,,,,,,,,,,,,,,,,,,,,,,,
15,0,15,0,1,45,2020-07-04_14h47.55.317,retriever_ti,2020.1.3,Win32,60,Chrome,1920,1080,,,,,,,,,,,,,,,,,,,,,,,,,,,,,,,,,,,,,,,,,,,,,,,,,,,,,,,,,,,,,,,,,,,,,,,,,,,,,,,,,,,,,,,,,,,,,,,,,,
16,0,16,0,1,45,2020-07-04_14h47.55.317,retriever_ti,2020.1.3,Win32,60,Chrome,1920,1080,,,,,,,,,,,,,,,,,,,,,,,,,,,,,,,,,,,,,,,,,,,,,,,,,,,,,,,,,,,,,,,,,,,,,,,,,,,,,,,,,,,,,,,,,,,,,,,,,,
,,,,,45,2020-07-04_14h47.55.317,retriever_ti,2020.1.3,Win32,60,Chrome,1920,1080,466.7192,1,right,1.47181,canary,1,466.730935,466.730935,469.224635,0,0,0,0,1,2,5,1,html/resources/stimuli_practice_decision/04_beetle.jpg,html/resources/stimuli_practice_decision/02_canary.jpg,beetle,canary,,,,,,,,,,,,,,,,,,,,,,,,,,,,,,,,,,,,,,,,,,,,,,,,,,,,,,,,,,,,,,,,,,,,,,,,,,,,,
,,,,,45,2020-07-04_14h47.55.317,retriever_ti,2020.1.3,Win32,60,Chrome,1920,1080,469.745975,2,left,1.826335,rabbit,1,469.758485,469.758485,472.25128,0,1,1,1,1,4,3,1,html/resources/stimuli_practice_decision/01_rabbit.jpg,html/resources/stimuli_practice_decision/07_sock.jpg,rabbit,sock,,,,,,,,,,,,,,,,,,,,,,,,,,,,,,,,,,,,,,,,,,,,,,,,,,,,,,,,,,,,,,,,,,,,,,,,,,,,,
,,,,,45,2020-07-04_14h47.55.317,retriever_ti,2020.1.3,Win32,60,Chrome,1920,1080,473.24692,3,left,2.04796,pullover,1,473.260805,473.260805,475.750905,0,2,2,2,1,6,2,1,html/resources/stimuli_practice_decision/06_pullover.jpg,html/resources/stimuli_practice_decision/04_beetle.jpg,pullover,beetle,,,,,,,,,,,,,,,,,,,,,,,,,,,,,,,,,,,,,,,,,,,,,,,,,,,,,,,,,,,,,,,,,,,,,,,,,,,,,
,,,,,45,2020-07-04_14h47.55.317,retriever_ti,2020.1.3,Win32,60,Chrome,1920,1080,476.25199,4,right,1.55253,handmixer,0,476.266945,476.266945,478.758005,0,3,3,3,1,7,1,1,html/resources/stimuli_practice_decision/05_glasses.jpg,html/resources/stimuli_practice_decision/08_handmixer.jpg,glasses,handmixer,,,,,,,,,,,,,,,,,,,,,,,,,,,,,,,,,,,,,,,,,,,,,,,,,,,,,,,,,,,,,,,,,,,,,,,,,,,,,
,,,,,45,2020-07-04_14h47.55.317,retriever_ti,2020.1.3,Win32,60,Chrome,1920,1080,479.26576,5,right,2.04432,pullover,0,479.27966,479.27966,481.771855,0,4,4,4,1,7,6,1,html/resources/stimuli_practice_decision/05_glasses.jpg,html/resources/stimuli_practice_decision/06_pullover.jpg,glasses,pullover,,,,,,,,,,,,,,,,,,,,,,,,,,,,,,,,,,,,,,,,,,,,,,,,,,,,,,,,,,,,,,,,,,,,,,,,,,,,,
,,,,,45,2020-07-04_14h47.55.317,retriever_ti,2020.1.3,Win32,60,Chrome,1920,1080,482.76736,6,NaN,NaN,No_response,2,482.77439,482.77439,485.2649,0,5,5,5,1,4,7,1,html/resources/stimuli_practice_decision/01_rabbit.jpg,html/resources/stimuli_practice_decision/05_glasses.jpg,rabbit,glasses,,,,,,,,,,,,,,,,,,,,,,,,,,,,,,,,,,,,,,,,,,,,,,,,,,,,,,,,,,,,,,,,,,,,,,,,,,,,,
,,,,,45,2020-07-04_14h47.55.317,retriever_ti,2020.1.3,Win32,60,Chrome,1920,1080,486.258385,7,left,1.20655,handmixer,0,486.26596,486.26596,488.75792,0,6,6,6,1,1,2,1,html/resources/stimuli_practice_decision/08_handmixer.jpg,html/resources/stimuli_practice_decision/04_beetle.jpg,handmixer,beetle,,,,,,,,,,,,,,,,,,,,,,,,,,,,,,,,,,,,,,,,,,,,,,,,,,,,,,,,,,,,,,,,,,,,,,,,,,,,,
,,,,,45,2020-07-04_14h47.55.317,retriever_ti,2020.1.3,Win32,60,Chrome,1920,1080,489.7515,8,right,1.43387,sock,0,489.75854,489.75854,492.250745,0,7,7,7,1,4,3,1,html/resources/stimuli_practice_decision/01_rabbit.jpg,html/resources/stimuli_practice_decision/07_sock.jpg,rabbit,sock,,,,,,,,,,,,,,,,,,,,,,,,,,,,,,,,,,,,,,,,,,,,,,,,,,,,,,,,,,,,,,,,,,,,,,,,,,,,,
,,,,,45,2020-07-04_14h47.55.317,retriever_ti,2020.1.3,Win32,60,Chrome,1920,1080,,,,,,,,,,,,,,,,,,,,,,up,1,1.509675,1,0,0,0,0,1,html/resources/sequences_IDs/circle.png,circle ↑,square →,triangle ↓,← star ,up,,,,,,,,,,,,,,,,,,,,,,,,,,,,,,,,,,,,,,,,,,,,,,,,,,,,,,,,,,,,,,
,,,,,45,2020-07-04_14h47.55.317,retriever_ti,2020.1.3,Win32,60,Chrome,1920,1080,,,,,,,,,,,,,,,,,,,,,,down,1,1.69733,1,0,1,1,1,1,html/resources/sequences_IDs/star.png,square ↑,circle →,star ↓,← triangle,down,,,,,,,,,,,,,,,,,,,,,,,,,,,,,,,,,,,,,,,,,,,,,,,,,,,,,,,,,,,,,,
,,,,,45,2020-07-04_14h47.55.317,retriever_ti,2020.1.3,Win32,60,Chrome,1920,1080,,,,,,,,,,,,,,,,,,,,,,left,1,2.022345,1,0,2,2,2,1,html/resources/sequences_IDs/square1.png,star ↑,triangle →,circle ↓,← square,left,,,,,,,,,,,,,,,,,,,,,,,,,,,,,,,,,,,,,,,,,,,,,,,,,,,,,,,,,,,,,,
,,,,,45,2020-07-04_14h47.55.317,retriever_ti,2020.1.3,Win32,60,Chrome,1920,1080,,,,,,,,,,,,,,,,,,,,,,down,1,1.784425,1,0,3,3,3,1,html/resources/sequences_IDs/triangle.png,star ↑,square →,triangle ↓,← circle,down,,,,,,,,,,,,,,,,,,,,,,,,,,,,,,,,,,,,,,,,,,,,,,,,,,,,,,,,,,,,,,
,,,,,45,2020-07-04_14h47.55.317,retriever_ti,2020.1.3,Win32,60,Chrome,1920,1080,,,,,,,,,,,,,,,,,,,,,,,,,,,,,,,,,,,,,0,88.266585,0,0,0,0,1,,,,,,,,,,,,,,,,,,,,,,,,,,,,,,,,,,,,,,,,,,,,,,,,,,,,,,,
,,,,,45,2020-07-04_14h47.55.317,retriever_ti,2020.1.3,Win32,60,Chrome,1920,1080,600.634235,9,left,1.056165,pullover,0,600.63845,600.63845,603.131285,0,0,0,0,1,6,7,1,html/resources/stimuli_practice_decision/06_pullover.jpg,html/resources/stimuli_practice_decision/05_glasses.jpg,pullover,glasses,,,,,,,,,,,,,,,,,,,,,,,,,,,,,,,,,,,,,,,,,,,,,,,,,,,,,,,,,,,,,,,,,,,,,,,,,,,,,
,,,,,45,2020-07-04_14h47.55.317,retriever_ti,2020.1.3,Win32,60,Chrome,1920,1080,604.124895,10,left,1.47137,pullover,1,604.139365,604.139365,606.63104,0,1,1,1,1,6,2,1,html/resources/stimuli_practice_decision/06_pullover.jpg,html/resources/stimuli_practice_decision/04_beetle.jpg,pullover,beetle,,,,,,,,,,,,,,,,,,,,,,,,,,,,,,,,,,,,,,,,,,,,,,,,,,,,,,,,,,,,,,,,,,,,,,,,,,,,,
,,,,,45,2020-07-04_14h47.55.317,retriever_ti,2020.1.3,Win32,60,Chrome,1920,1080,607.13356,11,left,1.77445,canary,0,607.140555,607.140555,609.63096,0,2,2,2,1,5,6,1,html/resources/stimuli_practice_decision/02_canary.jpg,html/resources/stimuli_practice_decision/06_pullover.jpg,canary,pullover,,,,,,,,,,,,,,,,,,,,,,,,,,,,,,,,,,,,,,,,,,,,,,,,,,,,,,,,,,,,,,,,,,,,,,,,,,,,,
,,,,,45,2020-07-04_14h47.55.317,retriever_ti,2020.1.3,Win32,60,Chrome,1920,1080,610.624315,12,left,1.71332,squirrel,1,610.63868,610.63868,613.130985,0,3,3,3,1,8,7,1,html/resources/stimuli_practice_decision/03_squirrel.jpg,html/resources/stimuli_practice_decision/05_glasses.jpg,squirrel,glasses,,,,,,,,,,,,,,,,,,,,,,,,,,,,,,,,,,,,,,,,,,,,,,,,,,,,,,,,,,,,,,,,,,,,,,,,,,,,,
,,,,,45,2020-07-04_14h47.55.317,retriever_ti,2020.1.3,Win32,60,Chrome,1920,1080,614.12408,13,right,2.012315,sock,0,614.131265,614.131265,616.62397,0,4,4,4,1,5,3,1,html/resources/stimuli_practice_decision/02_canary.jpg,html/resources/stimuli_practice_decision/07_sock.jpg,canary,sock,,,,,,,,,,,,,,,,,,,,,,,,,,,,,,,,,,,,,,,,,,,,,,,,,,,,,,,,,,,,,,,,,,,,,,,,,,,,,
,,,,,45,2020-07-04_14h47.55.317,retriever_ti,2020.1.3,Win32,60,Chrome,1920,1080,617.126495,14,right,2.0114,squirrel,1,617.14042,617.14042,619.63099,0,5,5,5,1,7,8,1,html/resources/stimuli_practice_decision/05_glasses.jpg,html/resources/stimuli_practice_decision/03_squirrel.jpg,glasses,squirrel,,,,,,,,,,,,,,,,,,,,,,,,,,,,,,,,,,,,,,,,,,,,,,,,,,,,,,,,,,,,,,,,,,,,,,,,,,,,,
,,,,,45,2020-07-04_14h47.55.317,retriever_ti,2020.1.3,Win32,60,Chrome,1920,1080,620.625045,15,left,1.88285,canary,1,620.633365,620.633365,623.123895,0,6,6,6,1,5,4,1,html/resources/stimuli_practice_decision/02_canary.jpg,html/resources/stimuli_practice_decision/01_rabbit.jpg,canary,rabbit,,,,,,,,,,,,,,,,,,,,,,,,,,,,,,,,,,,,,,,,,,,,,,,,,,,,,,,,,,,,,,,,,,,,,,,,,,,,,
,,,,,45,2020-07-04_14h47.55.317,retriever_ti,2020.1.3,Win32,60,Chrome,1920,1080,624.118165,16,right,2.06448,sock,0,624.12528,624.12528,626.616885,0,7,7,7,1,5,3,1,html/resources/stimuli_practice_decision/02_canary.jpg,html/resources/stimuli_practice_decision/07_sock.jpg,canary,sock,,,,,,,,,,,,,,,,,,,,,,,,,,,,,,,,,,,,,,,,,,,,,,,,,,,,,,,,,,,,,,,,,,,,,,,,,,,,,
,,,,,45,2020-07-04_14h47.55.317,retriever_ti,2020.1.3,Win32,60,Chrome,1920,1080,,,,,,,,,,,,,,,,,,,,,,down,1,2.14794,1,0,0,0,1,1,html/resources/sequences_IDs/star.png,square ↑,circle →,star ↓,← triangle,down,,,,,,,,,,,,,,,,,,,,,,,,,,,,,,,,,,,,,,,,,,,,,,,,,,,,,,,,,,,,,,
,,,,,45,2020-07-04_14h47.55.317,retriever_ti,2020.1.3,Win32,60,Chrome,1920,1080,,,,,,,,,,,,,,,,,,,,,,up,1,1.29907,1,0,1,1,0,1,html/resources/sequences_IDs/circle.png,circle ↑,square →,triangle ↓,← star ,up,,,,,,,,,,,,,,,,,,,,,,,,,,,,,,,,,,,,,,,,,,,,,,,,,,,,,,,,,,,,,,
,,,,,45,2020-07-04_14h47.55.317,retriever_ti,2020.1.3,Win32,60,Chrome,1920,1080,,,,,,,,,,,,,,,,,,,,,,down,1,1.75719,1,0,2,2,3,1,html/resources/sequences_IDs/triangle.png,star ↑,square →,triangle ↓,← circle,down,,,,,,,,,,,,,,,,,,,,,,,,,,,,,,,,,,,,,,,,,,,,,,,,,,,,,,,,,,,,,,
,,,,,45,2020-07-04_14h47.55.317,retriever_ti,2020.1.3,Win32,60,Chrome,1920,1080,,,,,,,,,,,,,,,,,,,,,,left,1,2.568625,1,0,3,3,2,1,html/resources/sequences_IDs/square1.png,star ↑,triangle →,circle ↓,← square,left,,,,,,,,,,,,,,,,,,,,,,,,,,,,,,,,,,,,,,,,,,,,,,,,,,,,,,,,,,,,,,
,,,,,45,2020-07-04_14h47.55.317,retriever_ti,2020.1.3,Win32,60,Chrome,1920,1080,,,,,,,,,,,,,,,,,,,,,,,,,,,,,,,,,,,,,0,4.18544,1,0,1,0,1,,,,,,,,,,,,,,,,,,,,,,,,,,,,,,,,,,,,,,,,,,,,,,,,,,,,,,,
,,,,,45,2020-07-04_14h47.55.317,retriever_ti,2020.1.3,Win32,60,Chrome,1920,1080,,,,,,,,,,,,,,,,,1,,,,,,,,,,,,,,,,,,,,,,,,,,,660.7018,1,left,0.944645,gloves      ,1,6,-1,0,0,660.70718,660.70718,663.20047,0,0,0,0,1,1,1,2,gloves      ,dress         ,html/resources/sequences_IDs/B/06_gloves.jpg,html/resources/sequences_IDs/A/07_dress.jpg,6,7,3,2,3,2,5,6,0,45,,,,,,,,,,,,,,,,,,,,
,,,,,45,2020-07-04_14h47.55.317,retriever_ti,2020.1.3,Win32,60,Chrome,1920,1080,,,,,,,,,,,,,,,,,1,,,,,,,,,,,,,,,,,,,,,,,,,,,664.291255,2,right,1.35302,satellite_dish,6,10,1,1,1,664.298885,664.298885,666.78999,0,1,1,1,1,2,5,6,parrot      ,satellite_dish,html/resources/sequences_IDs/B/05_parrot.jpg,html/resources/sequences_IDs/A/10_satellite_dish.jpg,5,10,2,1,4,2,4,8,0,45,,,,,,,,,,,,,,,,,,,,
,,,,,45,2020-07-04_14h47.55.317,retriever_ti,2020.1.3,Win32,60,Chrome,1920,1080,,,,,,,,,,,,,,,,,1,,,,,,,,,,,,,,,,,,,,,,,,,,,667.881895,3,right,0.754235,satellite_dish,6,10,1,1,1,667.888965,667.888965,670.380025,0,2,2,2,1,3,5,6,parrot      ,satellite_dish,html/resources/sequences_IDs/B/05_parrot.jpg,html/resources/sequences_IDs/A/10_satellite_dish.jpg,5,10,2,1,4,2,4,8,0,45,,,,,,,,,,,,,,,,,,,,
,,,,,45,2020-07-04_14h47.55.317,retriever_ti,2020.1.3,Win32,60,Chrome,1920,1080,,,,,,,,,,,,,,,,,1,,,,,,,,,,,,,,,,,,,,,,,,,,,671.471605,4,right,1.38135,satellite_dish,6,10,-1,0,0,671.485495,671.485495,673.977585,0,3,3,3,1,4,7,6,redfox      ,satellite_dish,html/resources/sequences_IDs/B/01_redfox.jpg,html/resources/sequences_IDs/A/10_satellite_dish.jpg,1,10,1,1,4,2,1,8,0,45,,,,,,,,,,,,,,,,,,,,
,,,,,45,2020-07-04_14h47.55.317,retriever_ti,2020.1.3,Win32,60,Chrome,1920,1080,,,,,,,,,,,,,,,,,1,,,,,,,,,,,,,,,,,,,,,,,,,,,675.06944,5,left,1.10514,redfox      ,7,1,2,1,3,675.076725,675.076725,677.567555,0,4,4,4,1,5,7,5,redfox      ,parrot      ,html/resources/sequences_IDs/B/01_redfox.jpg,html/resources/sequences_IDs/B/05_parrot.jpg,1,5,1,1,2,1,1,4,0,45,,,,,,,,,,,,,,,,,,,,
,,,,,45,2020-07-04_14h47.55.317,retriever_ti,2020.1.3,Win32,60,Chrome,1920,1080,,,,,,,,,,,,,,,,,1,,,,,,,,,,,,,,,,,,,,,,,,,,,678.17219,6,right,1.175795,gloves      ,1,6,-1,0,0,678.185925,678.185925,680.678575,0,5,5,5,1,6,2,1,dress         ,gloves      ,html/resources/sequences_IDs/A/07_dress.jpg,html/resources/sequences_IDs/B/06_gloves.jpg,7,6,3,2,3,2,6,5,0,45,,,,,,,,,,,,,,,,,,,,
,,,,,45,2020-07-04_14h47.55.317,retriever_ti,2020.1.3,Win32,60,Chrome,1920,1080,,,,,,,,,,,,,,,,,1,,,,,,,,,,,,,,,,,,,,,,,,,,,681.770715,7,left,1.70926,dolphin     ,3,2,1,1,1,681.777665,681.777665,684.26913,0,6,6,6,1,7,3,2,dolphin     ,dress         ,html/resources/sequences_IDs/B/02_dolphin.jpg,html/resources/sequences_IDs/A/07_dress.jpg,2,7,1,1,3,2,2,6,0,45,,,,,,,,,,,,,,,,,,,,
,,,,,45,2020-07-04_14h47.55.317,retriever_ti,2020.1.3,Win32,60,Chrome,1920,1080,,,,,,,,,,,,,,,,,1,,,,,,,,,,,,,,,,,,,,,,,,,,,685.36102,8,left,1.89817,dress         ,2,7,-6,0,3,685.374965,685.374965,687.86611,0,7,7,7,1,8,2,8,dress         ,calculator    ,html/resources/sequences_IDs/A/07_dress.jpg,html/resources/sequences_IDs/A/09_calculator.jpg,7,9,3,2,4,2,6,7,0,45,,,,,,,,,,,,,,,,,,,,
,,,,,45,2020-07-04_14h47.55.317,retriever_ti,2020.1.3,Win32,60,Chrome,1920,1080,,,,,,,,,,,,,,,,,1,,,,,,,,,,,,,,,,,,,,,,,,,,,688.471395,9,right,1.188485,redfox      ,7,1,3,1,3,688.48664,688.48664,690.97726,0,8,8,8,1,9,4,7,camel         ,redfox      ,html/resources/sequences_IDs/A/03_camel.jpg,html/resources/sequences_IDs/B/01_redfox.jpg,3,1,1,1,1,1,3,1,0,45,,,,,,,,,,,,,,,,,,,,
,,,,,45,2020-07-04_14h47.55.317,retriever_ti,2020.1.3,Win32,60,Chrome,1920,1080,,,,,,,,,,,,,,,,,1,,,,,,,,,,,,,,,,,,,,,,,,,,,691.58225,10,left,2.154185,satellite_dish,6,10,2,1,3,691.59617,691.59617,694.08857,0,9,9,9,1,10,6,4,satellite_dish,camel         ,html/resources/sequences_IDs/A/10_satellite_dish.jpg,html/resources/sequences_IDs/A/03_camel.jpg,10,3,4,2,1,1,8,3,0,45,,,,,,,,,,,,,,,,,,,,
,,,,,45,2020-07-04_14h47.55.317,retriever_ti,2020.1.3,Win32,60,Chrome,1920,1080,,,,,,,,,,,,,,,,,1,,,,,,,,,,,,,,,,,,,,,,,,,,,694.69316,11,right,1.356675,redfox      ,7,1,5,1,3,694.707065,694.707065,697.199155,0,10,10,10,1,11,2,7,dress         ,redfox      ,html/resources/sequences_IDs/A/07_dress.jpg,html/resources/sequences_IDs/B/01_redfox.jpg,7,1,3,2,1,1,6,1,0,45,,,,,,,,,,,,,,,,,,,,
,,,,,45,2020-07-04_14h47.55.317,retriever_ti,2020.1.3,Win32,60,Chrome,1920,1080,,,,,,,,,,,,,,,,,1,,,,,,,,,,,,,,,,,,,,,,,,,,,697.8035,12,right,1.22091,camel         ,4,3,1,1,1,697.817695,697.817695,700.310555,0,11,11,11,1,12,3,4,dolphin     ,camel         ,html/resources/sequences_IDs/B/02_dolphin.jpg,html/resources/sequences_IDs/A/03_camel.jpg,2,3,1,1,1,1,2,3,0,45,,,,,,,,,,,,,,,,,,,,
,,,,,45,2020-07-04_14h47.55.317,retriever_ti,2020.1.3,Win32,60,Chrome,1920,1080,,,,,,,,,,,,,,,,,1,,,,,,,,,,,,,,,,,,,,,,,,,,,701.401605,13,left,1.220295,redfox      ,7,1,4,1,3,701.41554,701.41554,703.907635,0,12,12,12,1,13,7,3,redfox      ,dolphin     ,html/resources/sequences_IDs/B/01_redfox.jpg,html/resources/sequences_IDs/B/02_dolphin.jpg,1,2,1,1,1,1,1,2,0,45,,,,,,,,,,,,,,,,,,,,
,,,,,45,2020-07-04_14h47.55.317,retriever_ti,2020.1.3,Win32,60,Chrome,1920,1080,,,,,,,,,,,,,,,,,1,,,,,,,,,,,,,,,,,,,,,,,,,,,704.51209,14,right,1.572045,camel         ,4,3,-4,0,3,704.52672,704.52672,707.018455,0,13,13,13,1,14,8,4,calculator    ,camel         ,html/resources/sequences_IDs/A/09_calculator.jpg,html/resources/sequences_IDs/A/03_camel.jpg,9,3,4,2,1,1,7,3,0,45,,,,,,,,,,,,,,,,,,,,
,,,,,45,2020-07-04_14h47.55.317,retriever_ti,2020.1.3,Win32,60,Chrome,1920,1080,,,,,,,,,,,,,,,,,1,,,,,,,,,,,,,,,,,,,,,,,,,,,707.623125,15,right,1.13161,redfox      ,7,1,2,1,3,707.630055,707.630055,710.1229,0,14,14,14,1,15,5,7,parrot      ,redfox      ,html/resources/sequences_IDs/B/05_parrot.jpg,html/resources/sequences_IDs/B/01_redfox.jpg,5,1,2,1,1,1,4,1,0,45,,,,,,,,,,,,,,,,,,,,
,,,,,45,2020-07-04_14h47.55.317,retriever_ti,2020.1.3,Win32,60,Chrome,1920,1080,,,,,,,,,,,,,,,,,1,,,,,,,,,,,,,,,,,,,,,,,,,,,710.727245,16,left,1.462805,dress         ,2,7,-1,0,1,710.74128,710.74128,713.23359,0,15,15,15,1,16,2,3,dress         ,dolphin     ,html/resources/sequences_IDs/A/07_dress.jpg,html/resources/sequences_IDs/B/02_dolphin.jpg,7,2,3,2,1,1,6,2,1,45,,,,,,,,,,,,,,,,,,,,
,,,,,45,2020-07-04_14h47.55.317,retriever_ti,2020.1.3,Win32,60,Chrome,1920,1080,,,,,,,,,,,,,,,,,1,,,,,,,,,,,,,,,,,,,,,,,,,,,714.32402,17,right,1.353005,redfox      ,7,1,1,1,1,714.340395,714.340395,716.83111,0,16,16,16,1,17,6,7,satellite_dish,redfox      ,html/resources/sequences_IDs/A/10_satellite_dish.jpg,html/resources/sequences_IDs/B/01_redfox.jpg,10,1,4,2,1,1,8,1,0,45,,,,,,,,,,,,,,,,,,,,
,,,,,45,2020-07-04_14h47.55.317,retriever_ti,2020.1.3,Win32,60,Chrome,1920,1080,,,,,,,,,,,,,,,,,1,,,,,,,,,,,,,,,,,,,,,,,,,,,717.922515,18,left,1.434095,camel         ,4,3,1,1,0,717.929455,717.929455,720.421575,0,17,17,17,1,18,4,3,camel         ,dolphin     ,html/resources/sequences_IDs/A/03_camel.jpg,html/resources/sequences_IDs/B/02_dolphin.jpg,3,2,1,1,1,1,3,2,1,45,,,,,,,,,,,,,,,,,,,,
,,,,,45,2020-07-04_14h47.55.317,retriever_ti,2020.1.3,Win32,60,Chrome,1920,1080,,,,,,,,,,,,,,,,,1,,,,,,,,,,,,,,,,,,,,,,,,,,,721.513035,19,right,1.83667,parrot      ,5,5,-1,0,1,721.526915,721.526915,724.01811,0,18,18,18,1,19,6,5,satellite_dish,parrot      ,html/resources/sequences_IDs/A/10_satellite_dish.jpg,html/resources/sequences_IDs/B/05_parrot.jpg,10,5,4,2,2,1,8,4,1,45,,,,,,,,,,,,,,,,,,,,
,,,,,45,2020-07-04_14h47.55.317,retriever_ti,2020.1.3,Win32,60,Chrome,1920,1080,,,,,,,,,,,,,,,,,1,,,,,,,,,,,,,,,,,,,,,,,,,,,725.10966,20,left,1.101,redfox      ,7,1,1,1,1,725.123585,725.123585,727.61535,0,19,19,19,1,20,7,6,redfox      ,satellite_dish,html/resources/sequences_IDs/B/01_redfox.jpg,html/resources/sequences_IDs/A/10_satellite_dish.jpg,1,10,1,1,4,2,1,8,0,45,,,,,,,,,,,,,,,,,,,,
,,,,,45,2020-07-04_14h47.55.317,retriever_ti,2020.1.3,Win32,60,Chrome,1920,1080,,,,,,,,,,,,,,,,,1,,,,,,,,,,,,,,,,,,,,,,,,,,,728.706145,21,right,0.938545,redfox      ,7,1,-1,0,0,728.713145,728.713145,731.206125,0,20,20,20,1,21,8,7,calculator    ,redfox      ,html/resources/sequences_IDs/A/09_calculator.jpg,html/resources/sequences_IDs/B/01_redfox.jpg,9,1,4,2,1,1,7,1,0,45,,,,,,,,,,,,,,,,,,,,
,,,,,45,2020-07-04_14h47.55.317,retriever_ti,2020.1.3,Win32,60,Chrome,1920,1080,,,,,,,,,,,,,,,,,1,,,,,,,,,,,,,,,,,,,,,,,,,,,732.29635,22,left,2.11844,gloves      ,1,6,-5,0,3,732.30391,732.30391,734.79582,0,21,21,21,1,22,1,6,gloves      ,satellite_dish,html/resources/sequences_IDs/B/06_gloves.jpg,html/resources/sequences_IDs/A/10_satellite_dish.jpg,6,10,3,2,4,2,5,8,0,45,,,,,,,,,,,,,,,,,,,,
,,,,,45,2020-07-04_14h47.55.317,retriever_ti,2020.1.3,Win32,60,Chrome,1920,1080,,,,,,,,,,,,,,,,,1,,,,,,,,,,,,,,,,,,,,,,,,,,,735.401935,23,left,1.130155,dress         ,2,7,1,1,0,735.40866,735.40866,737.90013,0,22,22,22,1,23,2,1,dress         ,gloves      ,html/resources/sequences_IDs/A/07_dress.jpg,html/resources/sequences_IDs/B/06_gloves.jpg,7,6,3,2,3,2,6,5,1,45,,,,,,,,,,,,,,,,,,,,
,,,,,45,2020-07-04_14h47.55.317,retriever_ti,2020.1.3,Win32,60,Chrome,1920,1080,,,,,,,,,,,,,,,,,1,,,,,,,,,,,,,,,,,,,,,,,,,,,738.991625,24,right,1.62854,parrot      ,5,5,3,1,3,739.005555,739.005555,741.49723,0,23,23,23,1,24,2,5,dress         ,parrot      ,html/resources/sequences_IDs/A/07_dress.jpg,html/resources/sequences_IDs/B/05_parrot.jpg,7,5,3,2,2,1,6,4,0,45,,,,,,,,,,,,,,,,,,,,
,,,,,45,2020-07-04_14h47.55.317,retriever_ti,2020.1.3,Win32,60,Chrome,1920,1080,,,,,,,,,,,,,,,,,1,,,,,,,,,,,,,,,,,,,,,,,,,,,742.101825,25,right,1.43524,dolphin     ,3,2,-1,0,0,742.116365,742.116365,744.608215,0,24,24,24,1,25,4,3,camel         ,dolphin     ,html/resources/sequences_IDs/A/03_camel.jpg,html/resources/sequences_IDs/B/02_dolphin.jpg,3,2,1,1,1,1,3,2,0,45,,,,,,,,,,,,,,,,,,,,
,,,,,45,2020-07-04_14h47.55.317,retriever_ti,2020.1.3,Win32,60,Chrome,1920,1080,,,,,,,,,,,,,,,,,1,,,,,,,,,,,,,,,,,,,,,,,,,,,745.70021,26,left,1.604265,calculator    ,8,9,1,1,1,745.714085,745.714085,748.20529,0,25,25,25,1,26,8,7,calculator    ,redfox      ,html/resources/sequences_IDs/A/09_calculator.jpg,html/resources/sequences_IDs/B/01_redfox.jpg,9,1,4,2,1,1,7,1,0,45,,,,,,,,,,,,,,,,,,,,
,,,,,45,2020-07-04_14h47.55.317,retriever_ti,2020.1.3,Win32,60,Chrome,1920,1080,,,,,,,,,,,,,,,,,1,,,,,,,,,,,,,,,,,,,,,,,,,,,749.29592,27,right,1.6298,satellite_dish,6,10,3,1,3,749.303165,749.303165,751.79565,0,26,26,26,1,27,3,6,dolphin     ,satellite_dish,html/resources/sequences_IDs/B/02_dolphin.jpg,html/resources/sequences_IDs/A/10_satellite_dish.jpg,2,10,1,1,4,2,2,8,0,45,,,,,,,,,,,,,,,,,,,,
,,,,,45,2020-07-04_14h47.55.317,retriever_ti,2020.1.3,Win32,60,Chrome,1920,1080,,,,,,,,,,,,,,,,,1,,,,,,,,,,,,,,,,,,,,,,,,,,,752.400385,28,right,1.24115,calculator    ,8,9,2,1,3,752.41497,752.41497,754.906725,0,27,27,27,1,28,6,8,satellite_dish,calculator    ,html/resources/sequences_IDs/A/10_satellite_dish.jpg,html/resources/sequences_IDs/A/09_calculator.jpg,10,9,4,2,4,2,8,7,0,45,,,,,,,,,,,,,,,,,,,,
,,,,,45,2020-07-04_14h47.55.317,retriever_ti,2020.1.3,Win32,60,Chrome,1920,1080,,,,,,,,,,,,,,,,,1,,,,,,,,,,,,,,,,,,,,,,,,,,,755.51197,29,right,1.65727,parrot      ,5,5,1,1,1,755.518945,755.518945,758.010745,0,28,28,28,1,29,4,5,camel         ,parrot      ,html/resources/sequences_IDs/A/03_camel.jpg,html/resources/sequences_IDs/B/05_parrot.jpg,3,5,1,1,2,1,3,4,0,45,,,,,,,,,,,,,,,,,,,,
,,,,,45,2020-07-04_14h47.55.317,retriever_ti,2020.1.3,Win32,60,Chrome,1920,1080,,,,,,,,,,,,,,,,,1,,,,,,,,,,,,,,,,,,,,,,,,,,,759.10368,30,right,1.301805,dress         ,2,7,-1,0,0,759.11748,759.11748,761.608015,0,29,29,29,1,30,3,2,dolphin     ,dress         ,html/resources/sequences_IDs/B/02_dolphin.jpg,html/resources/sequences_IDs/A/07_dress.jpg,2,7,1,1,3,2,2,6,0,45,,,,,,,,,,,,,,,,,,,,
,,,,,45,2020-07-04_14h47.55.317,retriever_ti,2020.1.3,Win32,60,Chrome,1920,1080,,,,,,,,,,,,,,,,,1,,,,,,,,,,,,,,,,,,,,,,,,,,,762.69914,31,left,0.963855,calculator    ,8,9,5,1,3,762.706115,762.706115,765.19814,0,30,30,30,1,31,8,3,calculator    ,dolphin     ,html/resources/sequences_IDs/A/09_calculator.jpg,html/resources/sequences_IDs/B/02_dolphin.jpg,9,2,4,2,1,1,7,2,0,45,,,,,,,,,,,,,,,,,,,,
,,,,,45,2020-07-04_14h47.55.317,retriever_ti,2020.1.3,Win32,60,Chrome,1920,1080,,,,,,,,,,,,,,,,,1,,,,,,,,,,,,,,,,,,,,,,,,,,,765.803235,32,left,1.449545,dolphin     ,3,2,2,1,3,765.8181,765.8181,768.309335,0,31,31,31,1,32,3,1,dolphin     ,gloves      ,html/resources/sequences_IDs/B/02_dolphin.jpg,html/resources/sequences_IDs/B/06_gloves.jpg,2,6,1,1,3,2,2,5,0,45,,,,,,,,,,,,,,,,,,,,
,,,,,45,2020-07-04_14h47.55.317,retriever_ti,2020.1.3,Win32,60,Chrome,1920,1080,,,,,,,,,,,,,,,,,1,,,,,,,,,,,,,,,,,,,,,,,,,,,768.914495,33,left,1.51231,gloves      ,1,6,-3,0,3,768.92142,768.92142,771.413535,0,32,32,32,1,33,1,4,gloves      ,camel         ,html/resources/sequences_IDs/B/06_gloves.jpg,html/resources/sequences_IDs/A/03_camel.jpg,6,3,3,2,1,1,5,3,0,45,,,,,,,,,,,,,,,,,,,,
,,,,,45,2020-07-04_14h47.55.317,retriever_ti,2020.1.3,Win32,60,Chrome,1920,1080,,,,,,,,,,,,,,,,,1,,,,,,,,,,,,,,,,,,,,,,,,,,,772.019015,34,left,0.986035,parrot      ,5,5,1,1,0,772.03401,772.03401,774.524285,0,33,33,33,1,34,5,4,parrot      ,camel         ,html/resources/sequences_IDs/B/05_parrot.jpg,html/resources/sequences_IDs/A/03_camel.jpg,5,3,2,1,1,1,4,3,1,45,,,,,,,,,,,,,,,,,,,,
,,,,,45,2020-07-04_14h47.55.317,retriever_ti,2020.1.3,Win32,60,Chrome,1920,1080,,,,,,,,,,,,,,,,,1,,,,,,,,,,,,,,,,,,,,,,,,,,,775.61515,35,right,2.12477,camel         ,4,3,1,1,1,775.6221,775.6221,778.1148,0,34,34,34,1,35,3,4,dolphin     ,camel         ,html/resources/sequences_IDs/B/02_dolphin.jpg,html/resources/sequences_IDs/A/03_camel.jpg,2,3,1,1,1,1,2,3,0,45,,,,,,,,,,,,,,,,,,,,
,,,,,45,2020-07-04_14h47.55.317,retriever_ti,2020.1.3,Win32,60,Chrome,1920,1080,,,,,,,,,,,,,,,,,1,,,,,,,,,,,,,,,,,,,,,,,,,,,779.206825,36,left,1.131005,calculator    ,8,9,6,1,3,779.220785,779.220785,781.71179,0,35,35,35,1,36,8,2,calculator    ,dress         ,html/resources/sequences_IDs/A/09_calculator.jpg,html/resources/sequences_IDs/A/07_dress.jpg,9,7,4,2,3,2,7,6,0,45,,,,,,,,,,,,,,,,,,,,
,,,,,45,2020-07-04_14h47.55.317,retriever_ti,2020.1.3,Win32,60,Chrome,1920,1080,,,,,,,,,,,,,,,,,1,,,,,,,,,,,,,,,,,,,,,,,,,,,782.316805,37,left,1.04167,redfox      ,7,1,6,1,3,782.33167,782.33167,784.822975,0,36,36,36,1,37,7,1,redfox      ,gloves      ,html/resources/sequences_IDs/B/01_redfox.jpg,html/resources/sequences_IDs/B/06_gloves.jpg,1,6,1,1,3,2,1,5,0,45,,,,,,,,,,,,,,,,,,,,
,,,,,45,2020-07-04_14h47.55.317,retriever_ti,2020.1.3,Win32,60,Chrome,1920,1080,,,,,,,,,,,,,,,,,1,,,,,,,,,,,,,,,,,,,,,,,,,,,785.429675,38,left,1.27749,parrot      ,5,5,2,1,3,785.436695,785.436695,787.9271,0,37,37,37,1,38,5,3,parrot      ,dolphin     ,html/resources/sequences_IDs/B/05_parrot.jpg,html/resources/sequences_IDs/B/02_dolphin.jpg,5,2,2,1,1,1,4,2,0,45,,,,,,,,,,,,,,,,,,,,
,,,,,45,2020-07-04_14h47.55.317,retriever_ti,2020.1.3,Win32,60,Chrome,1920,1080,,,,,,,,,,,,,,,,,1,,,,,,,,,,,,,,,,,,,,,,,,,,,788.53216,39,right,1.06986,dress         ,2,7,1,1,1,788.54007,788.54007,791.03099,0,38,38,38,1,39,1,2,gloves      ,dress         ,html/resources/sequences_IDs/B/06_gloves.jpg,html/resources/sequences_IDs/A/07_dress.jpg,6,7,3,2,3,2,5,6,0,45,,,,,,,,,,,,,,,,,,,,
,,,,,45,2020-07-04_14h47.55.317,retriever_ti,2020.1.3,Win32,60,Chrome,1920,1080,,,,,,,,,,,,,,,,,1,,,,,,,,,,,,,,,,,,,,,,,,,,,792.122125,40,left,1.778625,dress         ,2,7,-1,0,0,792.136015,792.136015,794.62818,0,39,39,39,1,40,2,3,dress         ,dolphin     ,html/resources/sequences_IDs/A/07_dress.jpg,html/resources/sequences_IDs/B/02_dolphin.jpg,7,2,3,2,1,1,6,2,0,45,,,,,,,,,,,,,,,,,,,,
,,,,,45,2020-07-04_14h47.55.317,retriever_ti,2020.1.3,Win32,60,Chrome,1920,1080,,,,,,,,,,,,,,,,,1,,,,,,,,,,,,,,,,,,,,,,,,,,,795.721145,41,right,1.118645,parrot      ,5,5,-1,0,0,795.72832,795.72832,798.2189,0,40,40,40,1,41,6,5,satellite_dish,parrot      ,html/resources/sequences_IDs/A/10_satellite_dish.jpg,html/resources/sequences_IDs/B/05_parrot.jpg,10,5,4,2,2,1,8,4,0,45,,,,,,,,,,,,,,,,,,,,
,,,,,45,2020-07-04_14h47.55.317,retriever_ti,2020.1.3,Win32,60,Chrome,1920,1080,,,,,,,,,,,,,,,,,1,,,,,,,,,,,,,,,,,,,,,,,,,,,799.31051,42,right,0.94909,redfox      ,7,1,4,1,3,799.31748,799.31748,801.808845,0,41,41,41,1,42,3,7,dolphin     ,redfox      ,html/resources/sequences_IDs/B/02_dolphin.jpg,html/resources/sequences_IDs/B/01_redfox.jpg,2,1,1,1,1,1,2,1,0,45,,,,,,,,,,,,,,,,,,,,
,,,,,45,2020-07-04_14h47.55.317,retriever_ti,2020.1.3,Win32,60,Chrome,1920,1080,,,,,,,,,,,,,,,,,1,,,,,,,,,,,,,,,,,,,,,,,,,,,802.413475,43,left,1.474325,dress         ,2,7,-4,0,3,802.427985,802.427985,804.9201,0,42,42,42,1,43,2,6,dress         ,satellite_dish,html/resources/sequences_IDs/A/07_dress.jpg,html/resources/sequences_IDs/A/10_satellite_dish.jpg,7,10,3,2,4,2,6,8,0,45,,,,,,,,,,,,,,,,,,,,
,,,,,45,2020-07-04_14h47.55.317,retriever_ti,2020.1.3,Win32,60,Chrome,1920,1080,,,,,,,,,,,,,,,,,1,,,,,,,,,,,,,,,,,,,,,,,,,,,805.525665,44,left,0.807555,calculator    ,8,9,2,1,3,805.539595,805.539595,808.03115,0,43,43,43,1,44,8,6,calculator    ,satellite_dish,html/resources/sequences_IDs/A/09_calculator.jpg,html/resources/sequences_IDs/A/10_satellite_dish.jpg,9,10,4,2,4,2,7,8,0,45,,,,,,,,,,,,,,,,,,,,
,,,,,45,2020-07-04_14h47.55.317,retriever_ti,2020.1.3,Win32,60,Chrome,1920,1080,,,,,,,,,,,,,,,,,1,,,,,,,,,,,,,,,,,,,,,,,,,,,808.635785,45,right,1.014905,calculator    ,8,9,7,1,3,808.650285,808.650285,811.142255,0,44,44,44,1,45,1,8,gloves      ,calculator    ,html/resources/sequences_IDs/B/06_gloves.jpg,html/resources/sequences_IDs/A/09_calculator.jpg,6,9,3,2,4,2,5,7,0,45,,,,,,,,,,,,,,,,,,,,
,,,,,45,2020-07-04_14h47.55.317,retriever_ti,2020.1.3,Win32,60,Chrome,1920,1080,,,,,,,,,,,,,,,,,1,,,,,,,,,,,,,,,,,,,,,,,,,,,811.74754,46,left,1.109045,parrot      ,5,5,4,1,3,811.754495,811.754495,814.246175,0,45,45,45,1,46,5,1,parrot      ,gloves      ,html/resources/sequences_IDs/B/05_parrot.jpg,html/resources/sequences_IDs/B/06_gloves.jpg,5,6,2,1,3,2,4,5,0,45,,,,,,,,,,,,,,,,,,,,
,,,,,45,2020-07-04_14h47.55.317,retriever_ti,2020.1.3,Win32,60,Chrome,1920,1080,,,,,,,,,,,,,,,,,1,,,,,,,,,,,,,,,,,,,,,,,,,,,814.85282,47,left,1.056955,dress         ,2,7,1,1,1,814.85967,814.85967,817.35074,0,46,46,46,1,47,2,1,dress         ,gloves      ,html/resources/sequences_IDs/A/07_dress.jpg,html/resources/sequences_IDs/B/06_gloves.jpg,7,6,3,2,3,2,6,5,0,45,,,,,,,,,,,,,,,,,,,,
,,,,,45,2020-07-04_14h47.55.317,retriever_ti,2020.1.3,Win32,60,Chrome,1920,1080,,,,,,,,,,,,,,,,,1,,,,,,,,,,,,,,,,,,,,,,,,,,,818.44147,48,right,0.866485,redfox      ,7,1,6,1,3,818.45627,818.45627,820.94746,0,47,47,47,1,48,1,7,gloves      ,redfox      ,html/resources/sequences_IDs/B/06_gloves.jpg,html/resources/sequences_IDs/B/01_redfox.jpg,6,1,3,2,1,1,5,1,0,45,,,,,,,,,,,,,,,,,,,,
,,,,,45,2020-07-04_14h47.55.317,retriever_ti,2020.1.3,Win32,60,Chrome,1920,1080,,,,,,,,,,,,,,,,,1,,,,,,,,,,,,,,,,,,,,,,,,,,,821.553415,49,right,0.954575,parrot      ,5,5,4,1,3,821.560385,821.560385,824.051555,0,48,48,48,1,49,1,5,gloves      ,parrot      ,html/resources/sequences_IDs/B/06_gloves.jpg,html/resources/sequences_IDs/B/05_parrot.jpg,6,5,3,2,2,1,5,4,0,45,,,,,,,,,,,,,,,,,,,,
,,,,,45,2020-07-04_14h47.55.317,retriever_ti,2020.1.3,Win32,60,Chrome,1920,1080,,,,,,,,,,,,,,,,,1,,,,,,,,,,,,,,,,,,,,,,,,,,,824.655935,50,right,0.865885,redfox      ,7,1,-1,0,1,824.663615,824.663615,827.15572,0,49,49,49,1,50,8,7,calculator    ,redfox      ,html/resources/sequences_IDs/A/09_calculator.jpg,html/resources/sequences_IDs/B/01_redfox.jpg,9,1,4,2,1,1,7,1,1,45,,,,,,,,,,,,,,,,,,,,
,,,,,45,2020-07-04_14h47.55.317,retriever_ti,2020.1.3,Win32,60,Chrome,1920,1080,,,,,,,,,,,,,,,,,1,,,,,,,,,,,,,,,,,,,,,,,,,,,828.24702,51,left,1.5017,camel         ,4,3,3,1,3,828.26094,828.26094,830.75289,0,50,50,50,1,51,4,1,camel         ,gloves      ,html/resources/sequences_IDs/A/03_camel.jpg,html/resources/sequences_IDs/B/06_gloves.jpg,3,6,1,1,3,2,3,5,0,45,,,,,,,,,,,,,,,,,,,,
,,,,,45,2020-07-04_14h47.55.317,retriever_ti,2020.1.3,Win32,60,Chrome,1920,1080,,,,,,,,,,,,,,,,,1,,,,,,,,,,,,,,,,,,,,,,,,,,,831.357235,52,right,0.955125,parrot      ,5,5,1,1,1,831.36427,831.36427,833.857415,0,51,51,51,1,52,4,5,camel         ,parrot      ,html/resources/sequences_IDs/A/03_camel.jpg,html/resources/sequences_IDs/B/05_parrot.jpg,3,5,1,1,2,1,3,4,0,45,,,,,,,,,,,,,,,,,,,,
,,,,,45,2020-07-04_14h47.55.317,retriever_ti,2020.1.3,Win32,60,Chrome,1920,1080,,,,,,,,,,,,,,,,,1,,,,,,,,,,,,,,,,,,,,,,,,,,,834.94972,53,left,1.17174,parrot      ,5,5,1,1,1,834.95662,834.95662,837.44704,0,52,52,52,1,53,5,4,parrot      ,camel         ,html/resources/sequences_IDs/B/05_parrot.jpg,html/resources/sequences_IDs/A/03_camel.jpg,5,3,2,1,1,1,4,3,0,45,,,,,,,,,,,,,,,,,,,,
,,,,,45,2020-07-04_14h47.55.317,retriever_ti,2020.1.3,Win32,60,Chrome,1920,1080,,,,,,,,,,,,,,,,,1,,,,,,,,,,,,,,,,,,,,,,,,,,,838.5387,54,left,1.02563,camel         ,4,3,-2,0,3,838.546875,838.546875,841.03743,0,53,53,53,1,54,4,6,camel         ,satellite_dish,html/resources/sequences_IDs/A/03_camel.jpg,html/resources/sequences_IDs/A/10_satellite_dish.jpg,3,10,1,1,4,2,3,8,0,45,,,,,,,,,,,,,,,,,,,,
,,,,,45,2020-07-04_14h47.55.317,retriever_ti,2020.1.3,Win32,60,Chrome,1920,1080,,,,,,,,,,,,,,,,,1,,,,,,,,,,,,,,,,,,,,,,,,,,,841.64293,55,right,1.375175,dolphin     ,3,2,-1,0,0,841.649875,841.649875,844.141505,0,54,54,54,1,55,4,3,camel         ,dolphin     ,html/resources/sequences_IDs/A/03_camel.jpg,html/resources/sequences_IDs/B/02_dolphin.jpg,3,2,1,1,1,1,3,2,0,45,,,,,,,,,,,,,,,,,,,,
,,,,,45,2020-07-04_14h47.55.317,retriever_ti,2020.1.3,Win32,60,Chrome,1920,1080,,,,,,,,,,,,,,,,,1,,,,,,,,,,,,,,,,,,,,,,,,,,,845.233185,56,left,1.37542,satellite_dish,6,10,3,1,3,845.246885,845.246885,847.73855,0,55,55,55,1,56,6,3,satellite_dish,dolphin     ,html/resources/sequences_IDs/A/10_satellite_dish.jpg,html/resources/sequences_IDs/B/02_dolphin.jpg,10,2,4,2,1,1,8,2,0,45,,,,,,,,,,,,,,,,,,,,
,,,,,45,2020-07-04_14h47.55.317,retriever_ti,2020.1.3,Win32,60,Chrome,1920,1080,,,,,,,,,,,,,,,,,1,,,,,,,,,,,,,,,,,,,,,,,,,,,848.343285,57,left,1.10261,dress         ,2,7,-2,0,3,848.357905,848.357905,850.849695,0,56,56,56,1,57,2,4,dress         ,camel         ,html/resources/sequences_IDs/A/07_dress.jpg,html/resources/sequences_IDs/A/03_camel.jpg,7,3,3,2,1,1,6,3,0,45,,,,,,,,,,,,,,,,,,,,
,,,,,45,2020-07-04_14h47.55.317,retriever_ti,2020.1.3,Win32,60,Chrome,1920,1080,,,,,,,,,,,,,,,,,1,,,,,,,,,,,,,,,,,,,,,,,,,,,851.454965,58,left,1.433135,dress         ,2,7,-1,0,0,851.468865,851.468865,853.960775,0,57,57,57,1,58,2,3,dress         ,dolphin     ,html/resources/sequences_IDs/A/07_dress.jpg,html/resources/sequences_IDs/B/02_dolphin.jpg,7,2,3,2,1,1,6,2,0,45,,,,,,,,,,,,,,,,,,,,
,,,,,45,2020-07-04_14h47.55.317,retriever_ti,2020.1.3,Win32,60,Chrome,1920,1080,,,,,,,,,,,,,,,,,1,,,,,,,,,,,,,,,,,,,,,,,,,,,855.051335,59,right,0.74917,redfox      ,7,1,1,1,1,855.06527,855.06527,857.557845,0,58,58,58,1,59,6,7,satellite_dish,redfox      ,html/resources/sequences_IDs/A/10_satellite_dish.jpg,html/resources/sequences_IDs/B/01_redfox.jpg,10,1,4,2,1,1,8,1,0,45,,,,,,,,,,,,,,,,,,,,
,,,,,45,2020-07-04_14h47.55.317,retriever_ti,2020.1.3,Win32,60,Chrome,1920,1080,,,,,,,,,,,,,,,,,1,,,,,,,,,,,,,,,,,,,,,,,,,,,858.64956,60,right,0.75898,redfox      ,7,1,1,1,0,858.66381,858.66381,861.154995,0,59,59,59,1,60,6,7,satellite_dish,redfox      ,html/resources/sequences_IDs/A/10_satellite_dish.jpg,html/resources/sequences_IDs/B/01_redfox.jpg,10,1,4,2,1,1,8,1,1,45,,,,,,,,,,,,,,,,,,,,
,,,,,45,2020-07-04_14h47.55.317,retriever_ti,2020.1.3,Win32,60,Chrome,1920,1080,,,,,,,,,,,,,,,,,1,,,,,,,,,,,,,,,,,,,,,,,,,,,862.24656,61,right,0.822045,calculator    ,8,9,1,1,1,862.26045,862.26045,864.752855,0,60,60,60,1,61,7,8,redfox      ,calculator    ,html/resources/sequences_IDs/B/01_redfox.jpg,html/resources/sequences_IDs/A/09_calculator.jpg,1,9,1,1,4,2,1,7,0,45,,,,,,,,,,,,,,,,,,,,
,,,,,45,2020-07-04_14h47.55.317,retriever_ti,2020.1.3,Win32,60,Chrome,1920,1080,,,,,,,,,,,,,,,,,1,,,,,,,,,,,,,,,,,,,,,,,,,,,865.843565,62,right,1.34619,dress         ,2,7,-4,0,3,865.857425,865.857425,868.349495,0,61,61,61,1,62,6,2,satellite_dish,dress         ,html/resources/sequences_IDs/A/10_satellite_dish.jpg,html/resources/sequences_IDs/A/07_dress.jpg,10,7,4,2,3,2,8,6,0,45,,,,,,,,,,,,,,,,,,,,
,,,,,45,2020-07-04_14h47.55.317,retriever_ti,2020.1.3,Win32,60,Chrome,1920,1080,,,,,,,,,,,,,,,,,1,,,,,,,,,,,,,,,,,,,,,,,,,,,868.956255,63,right,1.299025,dress         ,2,7,-2,0,3,868.962215,868.962215,871.45359,0,62,62,62,1,63,4,2,camel         ,dress         ,html/resources/sequences_IDs/A/03_camel.jpg,html/resources/sequences_IDs/A/07_dress.jpg,3,7,1,1,3,2,3,6,0,45,,,,,,,,,,,,,,,,,,,,
,,,,,45,2020-07-04_14h47.55.317,retriever_ti,2020.1.3,Win32,60,Chrome,1920,1080,,,,,,,,,,,,,,,,,1,,,,,,,,,,,,,,,,,,,,,,,,,,,872.05904,64,left,1.075985,calculator    ,8,9,7,1,3,872.07425,872.07425,874.5651,0,63,63,63,1,64,8,1,calculator    ,gloves      ,html/resources/sequences_IDs/A/09_calculator.jpg,html/resources/sequences_IDs/B/06_gloves.jpg,9,6,4,2,3,2,7,5,0,45,,,,,,,,,,,,,,,,,,,,
,,,,,45,2020-07-04_14h47.55.317,retriever_ti,2020.1.3,Win32,60,Chrome,1920,1080,,,,,,,,,,,,,,,,,1,,,,,,,,,,,,,,,,,,,,,,,,,,,875.169925,65,left,1.052485,redfox      ,7,1,3,1,3,875.176845,875.176845,877.66864,0,64,64,64,1,65,7,4,redfox      ,camel         ,html/resources/sequences_IDs/B/01_redfox.jpg,html/resources/sequences_IDs/A/03_camel.jpg,1,3,1,1,1,1,1,3,0,45,,,,,,,,,,,,,,,,,,,,
,,,,,45,2020-07-04_14h47.55.317,retriever_ti,2020.1.3,Win32,60,Chrome,1920,1080,,,,,,,,,,,,,,,,,1,,,,,,,,,,,,,,,,,,,,,,,,,,,878.274235,66,left,1.074275,calculator    ,8,9,3,1,3,878.289445,878.289445,880.78003,0,65,65,65,1,66,8,5,calculator    ,parrot      ,html/resources/sequences_IDs/A/09_calculator.jpg,html/resources/sequences_IDs/B/05_parrot.jpg,9,5,4,2,2,1,7,4,0,45,,,,,,,,,,,,,,,,,,,,
,,,,,45,2020-07-04_14h47.55.317,retriever_ti,2020.1.3,Win32,60,Chrome,1920,1080,,,,,,,,,,,,,,,,,1,,,,,,,,,,,,,,,,,,,,,,,,,,,881.386065,67,right,1.13692,parrot      ,5,5,2,1,3,881.3929,881.3929,883.884035,0,66,66,66,1,67,3,5,dolphin     ,parrot      ,html/resources/sequences_IDs/B/02_dolphin.jpg,html/resources/sequences_IDs/B/05_parrot.jpg,2,5,1,1,2,1,2,4,0,45,,,,,,,,,,,,,,,,,,,,
,,,,,45,2020-07-04_14h47.55.317,retriever_ti,2020.1.3,Win32,60,Chrome,1920,1080,,,,,,,,,,,,,,,,,1,,,,,,,,,,,,,,,,,,,,,,,,,,,884.48879,68,right,1.09264,parrot      ,5,5,-1,0,0,884.496515,884.496515,886.98819,0,67,67,67,1,68,6,5,satellite_dish,parrot      ,html/resources/sequences_IDs/A/10_satellite_dish.jpg,html/resources/sequences_IDs/B/05_parrot.jpg,10,5,4,2,2,1,8,4,0,45,,,,,,,,,,,,,,,,,,,,
,,,,,45,2020-07-04_14h47.55.317,retriever_ti,2020.1.3,Win32,60,Chrome,1920,1080,,,,,,,,,,,,,,,,,1,,,,,,,,,,,,,,,,,,,,,,,,,,,888.07944,69,right,1.83929,dolphin     ,3,2,2,1,3,888.08637,888.08637,890.578395,0,68,68,68,1,69,1,3,gloves      ,dolphin     ,html/resources/sequences_IDs/B/06_gloves.jpg,html/resources/sequences_IDs/B/02_dolphin.jpg,6,2,3,2,1,1,5,2,0,45,,,,,,,,,,,,,,,,,,,,
,,,,,45,2020-07-04_14h47.55.317,retriever_ti,2020.1.3,Win32,60,Chrome,1920,1080,,,,,,,,,,,,,,,,,1,,,,,,,,,,,,,,,,,,,,,,,,,,,891.18277,70,right,1.137755,calculator    ,8,9,4,1,3,891.196695,891.196695,893.68962,0,69,69,69,1,70,4,8,camel         ,calculator    ,html/resources/sequences_IDs/A/03_camel.jpg,html/resources/sequences_IDs/A/09_calculator.jpg,3,9,1,1,4,2,3,7,0,45,,,,,,,,,,,,,,,,,,,,
,,,,,45,2020-07-04_14h47.55.317,retriever_ti,2020.1.3,Win32,60,Chrome,1920,1080,,,,,,,,,,,,,,,,,1,,,,,,,,,,,,,,,,,,,,,,,,,,,894.29437,71,right,1.097205,calculator    ,8,9,1,1,1,894.30916,894.30916,896.80055,0,70,70,70,1,71,7,8,redfox      ,calculator    ,html/resources/sequences_IDs/B/01_redfox.jpg,html/resources/sequences_IDs/A/09_calculator.jpg,1,9,1,1,4,2,1,7,0,45,,,,,,,,,,,,,,,,,,,,
,,,,,45,2020-07-04_14h47.55.317,retriever_ti,2020.1.3,Win32,60,Chrome,1920,1080,,,,,,,,,,,,,,,,,1,,,,,,,,,,,,,,,,,,,,,,,,,,,897.891945,72,left,1.05956,redfox      ,7,1,5,1,3,897.9059,897.9059,900.39752,0,71,71,71,1,72,7,2,redfox      ,dress         ,html/resources/sequences_IDs/B/01_redfox.jpg,html/resources/sequences_IDs/A/07_dress.jpg,1,7,1,1,3,2,1,6,0,45,,,,,,,,,,,,,,,,,,,,
,,,,,45,2020-07-04_14h47.55.317,retriever_ti,2020.1.3,Win32,60,Chrome,1920,1080,,,,,,,,,,,,,,,,,1,,,,,,,,,,,,,,,,,,,,,,,,,,,901.003155,73,left,1.53277,satellite_dish,6,10,5,1,3,901.01009,901.01009,903.502,0,72,72,72,1,73,6,1,satellite_dish,gloves      ,html/resources/sequences_IDs/A/10_satellite_dish.jpg,html/resources/sequences_IDs/B/06_gloves.jpg,10,6,4,2,3,2,8,5,0,45,,,,,,,,,,,,,,,,,,,,
,,,,,45,2020-07-04_14h47.55.317,retriever_ti,2020.1.3,Win32,60,Chrome,1920,1080,,,,,,,,,,,,,,,,,1,,,,,,,,,,,,,,,,,,,,,,,,,,,904.10714,74,right,0.63526,calculator    ,8,9,3,1,3,904.12246,904.12246,906.61286,0,73,73,73,1,74,5,8,parrot      ,calculator    ,html/resources/sequences_IDs/B/05_parrot.jpg,html/resources/sequences_IDs/A/09_calculator.jpg,5,9,2,1,4,2,4,7,0,45,,,,,,,,,,,,,,,,,,,,
,,,,,45,2020-07-04_14h47.55.317,retriever_ti,2020.1.3,Win32,60,Chrome,1920,1080,,,,,,,,,,,,,,,,,1,,,,,,,,,,,,,,,,,,,,,,,,,,,907.21716,75,right,0.808505,calculator    ,8,9,5,1,3,907.2241,907.2241,909.716915,0,74,74,74,1,75,3,8,dolphin     ,calculator    ,html/resources/sequences_IDs/B/02_dolphin.jpg,html/resources/sequences_IDs/A/09_calculator.jpg,2,9,1,1,4,2,2,7,0,45,,,,,,,,,,,,,,,,,,,,
,,,,,45,2020-07-04_14h47.55.317,retriever_ti,2020.1.3,Win32,60,Chrome,1920,1080,,,,,,,,,,,,,,,,,1,,,,,,,,,,,,,,,,,,,,,,,,,,,910.321595,76,left,0.82884,parrot      ,5,5,3,1,3,910.33686,910.33686,912.82781,0,75,75,75,1,76,5,2,parrot      ,dress         ,html/resources/sequences_IDs/B/05_parrot.jpg,html/resources/sequences_IDs/A/07_dress.jpg,5,7,2,1,3,2,4,6,0,45,,,,,,,,,,,,,,,,,,,,
,,,,,45,2020-07-04_14h47.55.317,retriever_ti,2020.1.3,Win32,60,Chrome,1920,1080,,,,,,,,,,,,,,,,,1,,,,,,,,,,,,,,,,,,,,,,,,,,,913.434665,77,left,1.363445,parrot      ,5,5,1,1,1,913.448575,913.448575,915.939215,0,76,76,76,1,77,5,4,parrot      ,camel         ,html/resources/sequences_IDs/B/05_parrot.jpg,html/resources/sequences_IDs/A/03_camel.jpg,5,3,2,1,1,1,4,3,0,45,,,,,,,,,,,,,,,,,,,,
,,,,,45,2020-07-04_14h47.55.317,retriever_ti,2020.1.3,Win32,60,Chrome,1920,1080,,,,,,,,,,,,,,,,,,,,,,,,,,,,,,,,,,,,,0,7.681315,,,,,,,,,,,,,,,,,,,,,,,,,,,,,,,,,,,,,,,,,0,0,0,0,1,,,,,,,,,,,,,,,
,,,,,45,2020-07-04_14h47.55.317,retriever_ti,2020.1.3,Win32,60,Chrome,1920,1080,,,,,,,,,,,,,,,,,2,,,,,,,,,,,,,,,,,,,,,,,,,,,950.414505,78,left,1.230815,redfox      ,7,1,2,1,3,950.419965,950.419965,952.91074,0,0,0,0,1,78,7,5,redfox      ,parrot      ,html/resources/sequences_IDs/B/01_redfox.jpg,html/resources/sequences_IDs/B/05_parrot.jpg,1,5,1,1,2,1,1,4,0,45,,,,,,,,,,,,,,,,,,,,
,,,,,45,2020-07-04_14h47.55.317,retriever_ti,2020.1.3,Win32,60,Chrome,1920,1080,,,,,,,,,,,,,,,,,2,,,,,,,,,,,,,,,,,,,,,,,,,,,953.515475,79,right,1.058105,parrot      ,5,5,3,1,3,953.529865,953.529865,956.021825,0,1,1,1,1,79,2,5,dress         ,parrot      ,html/resources/sequences_IDs/A/07_dress.jpg,html/resources/sequences_IDs/B/05_parrot.jpg,7,5,3,2,2,1,6,4,0,45,,,,,,,,,,,,,,,,,,,,
,,,,,45,2020-07-04_14h47.55.317,retriever_ti,2020.1.3,Win32,60,Chrome,1920,1080,,,,,,,,,,,,,,,,,2,,,,,,,,,,,,,,,,,,,,,,,,,,,956.627115,80,left,1.231645,dress         ,2,7,1,1,1,956.641055,956.641055,959.132845,0,2,2,2,1,80,2,1,dress         ,gloves      ,html/resources/sequences_IDs/A/07_dress.jpg,html/resources/sequences_IDs/B/06_gloves.jpg,7,6,3,2,3,2,6,5,0,45,,,,,,,,,,,,,,,,,,,,
,,,,,45,2020-07-04_14h47.55.317,retriever_ti,2020.1.3,Win32,60,Chrome,1920,1080,,,,,,,,,,,,,,,,,2,,,,,,,,,,,,,,,,,,,,,,,,,,,960.225025,81,right,1.500495,parrot      ,5,5,-1,0,0,960.23198,960.23198,962.72307,0,3,3,3,1,81,6,5,satellite_dish,parrot      ,html/resources/sequences_IDs/A/10_satellite_dish.jpg,html/resources/sequences_IDs/B/05_parrot.jpg,10,5,4,2,2,1,8,4,0,45,,,,,,,,,,,,,,,,,,,,
,,,,,45,2020-07-04_14h47.55.317,retriever_ti,2020.1.3,Win32,60,Chrome,1920,1080,,,,,,,,,,,,,,,,,2,,,,,,,,,,,,,,,,,,,,,,,,,,,963.814215,82,right,0.939805,calculator    ,8,9,1,1,1,963.82123,963.82123,966.3133,0,4,4,4,1,82,7,8,redfox      ,calculator    ,html/resources/sequences_IDs/B/01_redfox.jpg,html/resources/sequences_IDs/A/09_calculator.jpg,1,9,1,1,4,2,1,7,0,45,,,,,,,,,,,,,,,,,,,,
,,,,,45,2020-07-04_14h47.55.317,retriever_ti,2020.1.3,Win32,60,Chrome,1920,1080,,,,,,,,,,,,,,,,,2,,,,,,,,,,,,,,,,,,,,,,,,,,,967.404085,83,right,1.252725,dress         ,2,7,-2,0,3,967.418625,967.418625,969.91075,0,5,5,5,1,83,4,2,camel         ,dress         ,html/resources/sequences_IDs/A/03_camel.jpg,html/resources/sequences_IDs/A/07_dress.jpg,3,7,1,1,3,2,3,6,0,45,,,,,,,,,,,,,,,,,,,,
,,,,,45,2020-07-04_14h47.55.317,retriever_ti,2020.1.3,Win32,60,Chrome,1920,1080,,,,,,,,,,,,,,,,,2,,,,,,,,,,,,,,,,,,,,,,,,,,,970.515805,84,right,0.672555,calculator    ,8,9,6,1,3,970.52285,970.52285,973.01475,0,6,6,6,1,84,2,8,dress         ,calculator    ,html/resources/sequences_IDs/A/07_dress.jpg,html/resources/sequences_IDs/A/09_calculator.jpg,7,9,3,2,4,2,6,7,0,45,,,,,,,,,,,,,,,,,,,,
,,,,,45,2020-07-04_14h47.55.317,retriever_ti,2020.1.3,Win32,60,Chrome,1920,1080,,,,,,,,,,,,,,,,,2,,,,,,,,,,,,,,,,,,,,,,,,,,,973.619175,85,right,1.10828,dress         ,2,7,1,1,1,973.626825,973.626825,976.11898,0,7,7,7,1,85,1,2,gloves      ,dress         ,html/resources/sequences_IDs/B/06_gloves.jpg,html/resources/sequences_IDs/A/07_dress.jpg,6,7,3,2,3,2,5,6,0,45,,,,,,,,,,,,,,,,,,,,
,,,,,45,2020-07-04_14h47.55.317,retriever_ti,2020.1.3,Win32,60,Chrome,1920,1080,,,,,,,,,,,,,,,,,2,,,,,,,,,,,,,,,,,,,,,,,,,,,977.211855,86,left,1.29455,calculator    ,8,9,4,1,3,977.218465,977.218465,979.70899,0,8,8,8,1,86,8,4,calculator    ,camel         ,html/resources/sequences_IDs/A/09_calculator.jpg,html/resources/sequences_IDs/A/03_camel.jpg,9,3,4,2,1,1,7,3,0,45,,,,,,,,,,,,,,,,,,,,
,,,,,45,2020-07-04_14h47.55.317,retriever_ti,2020.1.3,Win32,60,Chrome,1920,1080,,,,,,,,,,,,,,,,,2,,,,,,,,,,,,,,,,,,,,,,,,,,,980.3143,87,right,1.636865,parrot      ,5,5,1,1,1,980.32123,980.32123,982.813605,0,9,9,9,1,87,4,5,camel         ,parrot      ,html/resources/sequences_IDs/A/03_camel.jpg,html/resources/sequences_IDs/B/05_parrot.jpg,3,5,1,1,2,1,3,4,0,45,,,,,,,,,,,,,,,,,,,,
,,,,,45,2020-07-04_14h47.55.317,retriever_ti,2020.1.3,Win32,60,Chrome,1920,1080,,,,,,,,,,,,,,,,,2,,,,,,,,,,,,,,,,,,,,,,,,,,,983.9059,88,left,0.730545,calculator    ,8,9,6,1,3,983.919725,983.919725,986.41052,0,10,10,10,1,88,8,2,calculator    ,dress         ,html/resources/sequences_IDs/A/09_calculator.jpg,html/resources/sequences_IDs/A/07_dress.jpg,9,7,4,2,3,2,7,6,0,45,,,,,,,,,,,,,,,,,,,,
,,,,,45,2020-07-04_14h47.55.317,retriever_ti,2020.1.3,Win32,60,Chrome,1920,1080,,,,,,,,,,,,,,,,,2,,,,,,,,,,,,,,,,,,,,,,,,,,,987.014595,89,left,1.323285,dolphin     ,3,2,2,1,3,987.028915,987.028915,989.52119,0,11,11,11,1,89,3,1,dolphin     ,gloves      ,html/resources/sequences_IDs/B/02_dolphin.jpg,html/resources/sequences_IDs/B/06_gloves.jpg,2,6,1,1,3,2,2,5,0,45,,,,,,,,,,,,,,,,,,,,
,,,,,45,2020-07-04_14h47.55.317,retriever_ti,2020.1.3,Win32,60,Chrome,1920,1080,,,,,,,,,,,,,,,,,2,,,,,,,,,,,,,,,,,,,,,,,,,,,990.127895,90,left,0.936705,calculator    ,8,9,1,1,1,990.13321,990.13321,992.625435,0,12,12,12,1,90,8,7,calculator    ,redfox      ,html/resources/sequences_IDs/A/09_calculator.jpg,html/resources/sequences_IDs/B/01_redfox.jpg,9,1,4,2,1,1,7,1,0,45,,,,,,,,,,,,,,,,,,,,
,,,,,45,2020-07-04_14h47.55.317,retriever_ti,2020.1.3,Win32,60,Chrome,1920,1080,,,,,,,,,,,,,,,,,2,,,,,,,,,,,,,,,,,,,,,,,,,,,993.71711,91,left,1.197945,dolphin     ,3,2,1,1,1,993.72521,993.72521,996.216135,0,13,13,13,1,91,3,2,dolphin     ,dress         ,html/resources/sequences_IDs/B/02_dolphin.jpg,html/resources/sequences_IDs/A/07_dress.jpg,2,7,1,1,3,2,2,6,0,45,,,,,,,,,,,,,,,,,,,,
,,,,,45,2020-07-04_14h47.55.317,retriever_ti,2020.1.3,Win32,60,Chrome,1920,1080,,,,,,,,,,,,,,,,,2,,,,,,,,,,,,,,,,,,,,,,,,,,,997.30675,92,left,1.20943,camel         ,4,3,3,1,3,997.32081,997.32081,999.81487,0,14,14,14,1,92,4,1,camel         ,gloves      ,html/resources/sequences_IDs/A/03_camel.jpg,html/resources/sequences_IDs/B/06_gloves.jpg,3,6,1,1,3,2,3,5,0,45,,,,,,,,,,,,,,,,,,,,
,,,,,45,2020-07-04_14h47.55.317,retriever_ti,2020.1.3,Win32,60,Chrome,1920,1080,,,,,,,,,,,,,,,,,2,,,,,,,,,,,,,,,,,,,,,,,,,,,1000.4184,93,right,0.81605,calculator    ,8,9,7,1,3,1000.42538,1000.42538,1002.916985,0,15,15,15,1,93,1,8,gloves      ,calculator    ,html/resources/sequences_IDs/B/06_gloves.jpg,html/resources/sequences_IDs/A/09_calculator.jpg,6,9,3,2,4,2,5,7,0,45,,,,,,,,,,,,,,,,,,,,
,,,,,45,2020-07-04_14h47.55.317,retriever_ti,2020.1.3,Win32,60,Chrome,1920,1080,,,,,,,,,,,,,,,,,2,,,,,,,,,,,,,,,,,,,,,,,,,,,1003.52173,94,left,0.601315,redfox      ,7,1,-1,0,0,1003.53618,1003.53618,1006.02857,0,16,16,16,1,94,7,8,redfox      ,calculator    ,html/resources/sequences_IDs/B/01_redfox.jpg,html/resources/sequences_IDs/A/09_calculator.jpg,1,9,1,1,4,2,1,7,0,45,,,,,,,,,,,,,,,,,,,,
,,,,,45,2020-07-04_14h47.55.317,retriever_ti,2020.1.3,Win32,60,Chrome,1920,1080,,,,,,,,,,,,,,,,,2,,,,,,,,,,,,,,,,,,,,,,,,,,,1007.12019,95,right,0.94942,dress         ,2,7,1,1,0,1007.13427,1007.13427,1009.62525,0,17,17,17,1,95,1,2,gloves      ,dress         ,html/resources/sequences_IDs/B/06_gloves.jpg,html/resources/sequences_IDs/A/07_dress.jpg,6,7,3,2,3,2,5,6,1,45,,,,,,,,,,,,,,,,,,,,
,,,,,45,2020-07-04_14h47.55.317,retriever_ti,2020.1.3,Win32,60,Chrome,1920,1080,,,,,,,,,,,,,,,,,2,,,,,,,,,,,,,,,,,,,,,,,,,,,1010.715745,96,right,0.86934,dress         ,2,7,-4,0,3,1010.729785,1010.729785,1013.22286,0,18,18,18,1,96,6,2,satellite_dish,dress         ,html/resources/sequences_IDs/A/10_satellite_dish.jpg,html/resources/sequences_IDs/A/07_dress.jpg,10,7,4,2,3,2,8,6,0,45,,,,,,,,,,,,,,,,,,,,
,,,,,45,2020-07-04_14h47.55.317,retriever_ti,2020.1.3,Win32,60,Chrome,1920,1080,,,,,,,,,,,,,,,,,2,,,,,,,,,,,,,,,,,,,,,,,,,,,1013.827755,97,left,0.94981,redfox      ,7,1,1,1,1,1013.834845,1013.834845,1016.326415,0,19,19,19,1,97,7,6,redfox      ,satellite_dish,html/resources/sequences_IDs/B/01_redfox.jpg,html/resources/sequences_IDs/A/10_satellite_dish.jpg,1,10,1,1,4,2,1,8,0,45,,,,,,,,,,,,,,,,,,,,
,,,,,45,2020-07-04_14h47.55.317,retriever_ti,2020.1.3,Win32,60,Chrome,1920,1080,,,,,,,,,,,,,,,,,2,,,,,,,,,,,,,,,,,,,,,,,,,,,1017.41795,98,left,0.706025,calculator    ,8,9,5,1,3,1017.42621,1017.42621,1019.91667,0,20,20,20,1,98,8,3,calculator    ,dolphin     ,html/resources/sequences_IDs/A/09_calculator.jpg,html/resources/sequences_IDs/B/02_dolphin.jpg,9,2,4,2,1,1,7,2,0,45,,,,,,,,,,,,,,,,,,,,
,,,,,45,2020-07-04_14h47.55.317,retriever_ti,2020.1.3,Win32,60,Chrome,1920,1080,,,,,,,,,,,,,,,,,2,,,,,,,,,,,,,,,,,,,,,,,,,,,1020.522745,99,right,0.98799,calculator    ,8,9,1,1,0,1020.529655,1020.529655,1023.02091,0,21,21,21,1,99,7,8,redfox      ,calculator    ,html/resources/sequences_IDs/B/01_redfox.jpg,html/resources/sequences_IDs/A/09_calculator.jpg,1,9,1,1,4,2,1,7,1,45,,,,,,,,,,,,,,,,,,,,
,,,,,45,2020-07-04_14h47.55.317,retriever_ti,2020.1.3,Win32,60,Chrome,1920,1080,,,,,,,,,,,,,,,,,2,,,,,,,,,,,,,,,,,,,,,,,,,,,1024.112955,100,left,1.69345,parrot      ,5,5,-1,0,0,1024.12024,1024.12024,1026.61102,0,22,22,22,1,100,5,6,parrot      ,satellite_dish,html/resources/sequences_IDs/B/05_parrot.jpg,html/resources/sequences_IDs/A/10_satellite_dish.jpg,5,10,2,1,4,2,4,8,0,45,,,,,,,,,,,,,,,,,,,,
,,,,,45,2020-07-04_14h47.55.317,retriever_ti,2020.1.3,Win32,60,Chrome,1920,1080,,,,,,,,,,,,,,,,,2,,,,,,,,,,,,,,,,,,,,,,,,,,,1027.701555,101,right,0.902525,redfox      ,7,1,6,1,3,1027.709085,1027.709085,1030.20114,0,23,23,23,1,101,1,7,gloves      ,redfox      ,html/resources/sequences_IDs/B/06_gloves.jpg,html/resources/sequences_IDs/B/01_redfox.jpg,6,1,3,2,1,1,5,1,0,45,,,,,,,,,,,,,,,,,,,,
,,,,,45,2020-07-04_14h47.55.317,retriever_ti,2020.1.3,Win32,60,Chrome,1920,1080,,,,,,,,,,,,,,,,,2,,,,,,,,,,,,,,,,,,,,,,,,,,,1030.807965,102,right,1.18018,satellite_dish,6,10,3,1,3,1030.821795,1030.821795,1033.312465,0,24,24,24,1,102,3,6,dolphin     ,satellite_dish,html/resources/sequences_IDs/B/02_dolphin.jpg,html/resources/sequences_IDs/A/10_satellite_dish.jpg,2,10,1,1,4,2,2,8,0,45,,,,,,,,,,,,,,,,,,,,
,,,,,45,2020-07-04_14h47.55.317,retriever_ti,2020.1.3,Win32,60,Chrome,1920,1080,,,,,,,,,,,,,,,,,2,,,,,,,,,,,,,,,,,,,,,,,,,,,1033.918375,103,right,1.523365,dolphin     ,3,2,-1,0,0,1033.93231,1033.93231,1036.42338,0,25,25,25,1,103,4,3,camel         ,dolphin     ,html/resources/sequences_IDs/A/03_camel.jpg,html/resources/sequences_IDs/B/02_dolphin.jpg,3,2,1,1,1,1,3,2,0,45,,,,,,,,,,,,,,,,,,,,
,,,,,45,2020-07-04_14h47.55.317,retriever_ti,2020.1.3,Win32,60,Chrome,1920,1080,,,,,,,,,,,,,,,,,2,,,,,,,,,,,,,,,,,,,,,,,,,,,1037.514185,104,right,0.80848,redfox      ,7,1,3,1,3,1037.52172,1037.52172,1040.013725,0,26,26,26,1,104,4,7,camel         ,redfox      ,html/resources/sequences_IDs/A/03_camel.jpg,html/resources/sequences_IDs/B/01_redfox.jpg,3,1,1,1,1,1,3,1,0,45,,,,,,,,,,,,,,,,,,,,
,,,,,45,2020-07-04_14h47.55.317,retriever_ti,2020.1.3,Win32,60,Chrome,1920,1080,,,,,,,,,,,,,,,,,2,,,,,,,,,,,,,,,,,,,,,,,,,,,1040.61835,105,left,0.848925,parrot      ,5,5,4,1,3,1040.625315,1040.625315,1043.117825,0,27,27,27,1,105,5,1,parrot      ,gloves      ,html/resources/sequences_IDs/B/05_parrot.jpg,html/resources/sequences_IDs/B/06_gloves.jpg,5,6,2,1,3,2,4,5,0,45,,,,,,,,,,,,,,,,,,,,
,,,,,45,2020-07-04_14h47.55.317,retriever_ti,2020.1.3,Win32,60,Chrome,1920,1080,,,,,,,,,,,,,,,,,2,,,,,,,,,,,,,,,,,,,,,,,,,,,1043.72315,106,left,0.736095,dress         ,2,7,1,1,1,1043.73806,1043.73806,1046.22879,0,28,28,28,1,106,2,1,dress         ,gloves      ,html/resources/sequences_IDs/A/07_dress.jpg,html/resources/sequences_IDs/B/06_gloves.jpg,7,6,3,2,3,2,6,5,0,45,,,,,,,,,,,,,,,,,,,,
,,,,,45,2020-07-04_14h47.55.317,retriever_ti,2020.1.3,Win32,60,Chrome,1920,1080,,,,,,,,,,,,,,,,,2,,,,,,,,,,,,,,,,,,,,,,,,,,,1047.320405,107,left,1.057365,dolphin     ,3,2,-1,0,0,1047.334355,1047.334355,1049.825845,0,29,29,29,1,107,3,4,dolphin     ,camel         ,html/resources/sequences_IDs/B/02_dolphin.jpg,html/resources/sequences_IDs/A/03_camel.jpg,2,3,1,1,1,1,2,3,0,45,,,,,,,,,,,,,,,,,,,,
,,,,,45,2020-07-04_14h47.55.317,retriever_ti,2020.1.3,Win32,60,Chrome,1920,1080,,,,,,,,,,,,,,,,,2,,,,,,,,,,,,,,,,,,,,,,,,,,,1050.91707,108,left,0.76747,redfox      ,7,1,4,1,3,1050.931195,1050.931195,1053.42343,0,30,30,30,1,108,7,3,redfox      ,dolphin     ,html/resources/sequences_IDs/B/01_redfox.jpg,html/resources/sequences_IDs/B/02_dolphin.jpg,1,2,1,1,1,1,1,2,0,45,,,,,,,,,,,,,,,,,,,,
,,,,,45,2020-07-04_14h47.55.317,retriever_ti,2020.1.3,Win32,60,Chrome,1920,1080,,,,,,,,,,,,,,,,,2,,,,,,,,,,,,,,,,,,,,,,,,,,,1054.028435,109,left,0.908995,calculator    ,8,9,2,1,3,1054.03535,1054.03535,1056.52725,0,31,31,31,1,109,8,6,calculator    ,satellite_dish,html/resources/sequences_IDs/A/09_calculator.jpg,html/resources/sequences_IDs/A/10_satellite_dish.jpg,9,10,4,2,4,2,7,8,0,45,,,,,,,,,,,,,,,,,,,,
,,,,,45,2020-07-04_14h47.55.317,retriever_ti,2020.1.3,Win32,60,Chrome,1920,1080,,,,,,,,,,,,,,,,,2,,,,,,,,,,,,,,,,,,,,,,,,,,,1057.1315,110,right,1.54435,dress         ,2,7,-1,0,1,1057.13865,1057.13865,1059.63139,0,32,32,32,1,110,3,2,dolphin     ,dress         ,html/resources/sequences_IDs/B/02_dolphin.jpg,html/resources/sequences_IDs/A/07_dress.jpg,2,7,1,1,3,2,2,6,1,45,,,,,,,,,,,,,,,,,,,,
,,,,,45,2020-07-04_14h47.55.317,retriever_ti,2020.1.3,Win32,60,Chrome,1920,1080,,,,,,,,,,,,,,,,,2,,,,,,,,,,,,,,,,,,,,,,,,,,,1060.722505,111,left,1.219135,parrot      ,5,5,1,1,1,1060.73634,1060.73634,1063.22862,0,33,33,33,1,111,5,4,parrot      ,camel         ,html/resources/sequences_IDs/B/05_parrot.jpg,html/resources/sequences_IDs/A/03_camel.jpg,5,3,2,1,1,1,4,3,0,45,,,,,,,,,,,,,,,,,,,,
,,,,,45,2020-07-04_14h47.55.317,retriever_ti,2020.1.3,Win32,60,Chrome,1920,1080,,,,,,,,,,,,,,,,,2,,,,,,,,,,,,,,,,,,,,,,,,,,,1064.320695,112,right,0.8381,calculator    ,8,9,5,1,3,1064.32761,1064.32761,1066.818945,0,34,34,34,1,112,3,8,dolphin     ,calculator    ,html/resources/sequences_IDs/B/02_dolphin.jpg,html/resources/sequences_IDs/A/09_calculator.jpg,2,9,1,1,4,2,2,7,0,45,,,,,,,,,,,,,,,,,,,,
,,,,,45,2020-07-04_14h47.55.317,retriever_ti,2020.1.3,Win32,60,Chrome,1920,1080,,,,,,,,,,,,,,,,,2,,,,,,,,,,,,,,,,,,,,,,,,,,,1067.42346,113,left,0.9774,redfox      ,7,1,6,1,3,1067.437995,1067.437995,1069.929735,0,35,35,35,1,113,7,1,redfox      ,gloves      ,html/resources/sequences_IDs/B/01_redfox.jpg,html/resources/sequences_IDs/B/06_gloves.jpg,1,6,1,1,3,2,1,5,0,45,,,,,,,,,,,,,,,,,,,,
,,,,,45,2020-07-04_14h47.55.317,retriever_ti,2020.1.3,Win32,60,Chrome,1920,1080,,,,,,,,,,,,,,,,,2,,,,,,,,,,,,,,,,,,,,,,,,,,,1070.53555,114,right,1.39387,redfox      ,7,1,1,1,1,1070.549305,1070.549305,1073.040805,0,36,36,36,1,114,6,7,satellite_dish,redfox      ,html/resources/sequences_IDs/A/10_satellite_dish.jpg,html/resources/sequences_IDs/B/01_redfox.jpg,10,1,4,2,1,1,8,1,0,45,,,,,,,,,,,,,,,,,,,,
,,,,,45,2020-07-04_14h47.55.317,retriever_ti,2020.1.3,Win32,60,Chrome,1920,1080,,,,,,,,,,,,,,,,,2,,,,,,,,,,,,,,,,,,,,,,,,,,,1074.132475,115,right,1.25398,parrot      ,5,5,1,1,0,1074.14627,1074.14627,1076.638085,0,37,37,37,1,115,4,5,camel         ,parrot      ,html/resources/sequences_IDs/A/03_camel.jpg,html/resources/sequences_IDs/B/05_parrot.jpg,3,5,1,1,2,1,3,4,1,45,,,,,,,,,,,,,,,,,,,,
,,,,,45,2020-07-04_14h47.55.317,retriever_ti,2020.1.3,Win32,60,Chrome,1920,1080,,,,,,,,,,,,,,,,,2,,,,,,,,,,,,,,,,,,,,,,,,,,,1077.72917,116,right,1.82,satellite_dish,6,10,4,1,3,1077.744215,1077.744215,1080.2353,0,38,38,38,1,116,2,6,dress         ,satellite_dish,html/resources/sequences_IDs/A/07_dress.jpg,html/resources/sequences_IDs/A/10_satellite_dish.jpg,7,10,3,2,4,2,6,8,0,45,,,,,,,,,,,,,,,,,,,,
,,,,,45,2020-07-04_14h47.55.317,retriever_ti,2020.1.3,Win32,60,Chrome,1920,1080,,,,,,,,,,,,,,,,,2,,,,,,,,,,,,,,,,,,,,,,,,,,,1080.84226,117,left,1.351725,gloves      ,1,6,-2,0,3,1080.85836,1080.85836,1083.34622,0,39,39,39,1,117,1,3,gloves      ,dolphin     ,html/resources/sequences_IDs/B/06_gloves.jpg,html/resources/sequences_IDs/B/02_dolphin.jpg,6,2,3,2,1,1,5,2,0,45,,,,,,,,,,,,,,,,,,,,
,,,,,45,2020-07-04_14h47.55.317,retriever_ti,2020.1.3,Win32,60,Chrome,1920,1080,,,,,,,,,,,,,,,,,2,,,,,,,,,,,,,,,,,,,,,,,,,,,1083.951855,118,left,0.772905,redfox      ,7,1,1,1,0,1083.9658,1083.9658,1086.45746,0,40,40,40,1,118,7,6,redfox      ,satellite_dish,html/resources/sequences_IDs/B/01_redfox.jpg,html/resources/sequences_IDs/A/10_satellite_dish.jpg,1,10,1,1,4,2,1,8,1,45,,,,,,,,,,,,,,,,,,,,
,,,,,45,2020-07-04_14h47.55.317,retriever_ti,2020.1.3,Win32,60,Chrome,1920,1080,,,,,,,,,,,,,,,,,2,,,,,,,,,,,,,,,,,,,,,,,,,,,1087.54841,119,right,1.49353,camel         ,4,3,3,1,3,1087.55627,1087.55627,1090.047675,0,41,41,41,1,119,1,4,gloves      ,camel         ,html/resources/sequences_IDs/B/06_gloves.jpg,html/resources/sequences_IDs/A/03_camel.jpg,6,3,3,2,1,1,5,3,0,45,,,,,,,,,,,,,,,,,,,,
,,,,,45,2020-07-04_14h47.55.317,retriever_ti,2020.1.3,Win32,60,Chrome,1920,1080,,,,,,,,,,,,,,,,,2,,,,,,,,,,,,,,,,,,,,,,,,,,,1090.652425,120,right,1.18647,satellite_dish,6,10,2,1,3,1090.666745,1090.666745,1093.15861,0,42,42,42,1,120,4,6,camel         ,satellite_dish,html/resources/sequences_IDs/A/03_camel.jpg,html/resources/sequences_IDs/A/10_satellite_dish.jpg,3,10,1,1,4,2,3,8,0,45,,,,,,,,,,,,,,,,,,,,
,,,,,45,2020-07-04_14h47.55.317,retriever_ti,2020.1.3,Win32,60,Chrome,1920,1080,,,,,,,,,,,,,,,,,2,,,,,,,,,,,,,,,,,,,,,,,,,,,1093.763325,121,left,1.16041,satellite_dish,6,10,3,1,3,1093.77729,1093.77729,1096.269815,0,43,43,43,1,121,6,3,satellite_dish,dolphin     ,html/resources/sequences_IDs/A/10_satellite_dish.jpg,html/resources/sequences_IDs/B/02_dolphin.jpg,10,2,4,2,1,1,8,2,0,45,,,,,,,,,,,,,,,,,,,,
,,,,,45,2020-07-04_14h47.55.317,retriever_ti,2020.1.3,Win32,60,Chrome,1920,1080,,,,,,,,,,,,,,,,,2,,,,,,,,,,,,,,,,,,,,,,,,,,,1096.87496,122,right,0.734555,redfox      ,7,1,1,1,1,1096.888835,1096.888835,1099.38095,0,44,44,44,1,122,6,7,satellite_dish,redfox      ,html/resources/sequences_IDs/A/10_satellite_dish.jpg,html/resources/sequences_IDs/B/01_redfox.jpg,10,1,4,2,1,1,8,1,0,45,,,,,,,,,,,,,,,,,,,,
,,,,,45,2020-07-04_14h47.55.317,retriever_ti,2020.1.3,Win32,60,Chrome,1920,1080,,,,,,,,,,,,,,,,,2,,,,,,,,,,,,,,,,,,,,,,,,,,,1100.472285,123,left,0.784285,redfox      ,7,1,1,1,1,1100.486055,1100.486055,1102.977935,0,45,45,45,1,123,7,6,redfox      ,satellite_dish,html/resources/sequences_IDs/B/01_redfox.jpg,html/resources/sequences_IDs/A/10_satellite_dish.jpg,1,10,1,1,4,2,1,8,0,45,,,,,,,,,,,,,,,,,,,,
,,,,,45,2020-07-04_14h47.55.317,retriever_ti,2020.1.3,Win32,60,Chrome,1920,1080,,,,,,,,,,,,,,,,,2,,,,,,,,,,,,,,,,,,,,,,,,,,,1104.070185,124,right,1.3264,camel         ,4,3,1,1,0,1104.076385,1104.076385,1106.56811,0,46,46,46,1,124,3,4,dolphin     ,camel         ,html/resources/sequences_IDs/B/02_dolphin.jpg,html/resources/sequences_IDs/A/03_camel.jpg,2,3,1,1,1,1,2,3,1,45,,,,,,,,,,,,,,,,,,,,
,,,,,45,2020-07-04_14h47.55.317,retriever_ti,2020.1.3,Win32,60,Chrome,1920,1080,,,,,,,,,,,,,,,,,2,,,,,,,,,,,,,,,,,,,,,,,,,,,1107.658605,125,right,1.0794,parrot      ,5,5,2,1,3,1107.66576,1107.66576,1110.15839,0,47,47,47,1,125,3,5,dolphin     ,parrot      ,html/resources/sequences_IDs/B/02_dolphin.jpg,html/resources/sequences_IDs/B/05_parrot.jpg,2,5,1,1,2,1,2,4,0,45,,,,,,,,,,,,,,,,,,,,
,,,,,45,2020-07-04_14h47.55.317,retriever_ti,2020.1.3,Win32,60,Chrome,1920,1080,,,,,,,,,,,,,,,,,2,,,,,,,,,,,,,,,,,,,,,,,,,,,1110.76367,126,right,1.234905,parrot      ,5,5,4,1,3,1110.770585,1110.770585,1113.26282,0,48,48,48,1,126,1,5,gloves      ,parrot      ,html/resources/sequences_IDs/B/06_gloves.jpg,html/resources/sequences_IDs/B/05_parrot.jpg,6,5,3,2,2,1,5,4,0,45,,,,,,,,,,,,,,,,,,,,
,,,,,45,2020-07-04_14h47.55.317,retriever_ti,2020.1.3,Win32,60,Chrome,1920,1080,,,,,,,,,,,,,,,,,2,,,,,,,,,,,,,,,,,,,,,,,,,,,1113.867375,127,right,1.020795,redfox      ,7,1,5,1,3,1113.87444,1113.87444,1116.366575,0,49,49,49,1,127,2,7,dress         ,redfox      ,html/resources/sequences_IDs/A/07_dress.jpg,html/resources/sequences_IDs/B/01_redfox.jpg,7,1,3,2,1,1,6,1,0,45,,,,,,,,,,,,,,,,,,,,
,,,,,45,2020-07-04_14h47.55.317,retriever_ti,2020.1.3,Win32,60,Chrome,1920,1080,,,,,,,,,,,,,,,,,2,,,,,,,,,,,,,,,,,,,,,,,,,,,1116.971385,128,left,1.71166,camel         ,4,3,1,1,1,1116.97909,1116.97909,1119.470725,0,50,50,50,1,128,4,3,camel         ,dolphin     ,html/resources/sequences_IDs/A/03_camel.jpg,html/resources/sequences_IDs/B/02_dolphin.jpg,3,2,1,1,1,1,3,2,0,45,,,,,,,,,,,,,,,,,,,,
,,,,,45,2020-07-04_14h47.55.317,retriever_ti,2020.1.3,Win32,60,Chrome,1920,1080,,,,,,,,,,,,,,,,,2,,,,,,,,,,,,,,,,,,,,,,,,,,,1120.563615,129,left,2.126975,satellite_dish,6,10,5,1,3,1120.57615,1120.57615,1123.06817,0,51,51,51,1,129,6,1,satellite_dish,gloves      ,html/resources/sequences_IDs/A/10_satellite_dish.jpg,html/resources/sequences_IDs/B/06_gloves.jpg,10,6,4,2,3,2,8,5,0,45,,,,,,,,,,,,,,,,,,,,
,,,,,45,2020-07-04_14h47.55.317,retriever_ti,2020.1.3,Win32,60,Chrome,1920,1080,,,,,,,,,,,,,,,,,2,,,,,,,,,,,,,,,,,,,,,,,,,,,1123.67321,130,left,0.936275,calculator    ,8,9,3,1,3,1123.681035,1123.681035,1126.171985,0,52,52,52,1,130,8,5,calculator    ,parrot      ,html/resources/sequences_IDs/A/09_calculator.jpg,html/resources/sequences_IDs/B/05_parrot.jpg,9,5,4,2,2,1,7,4,0,45,,,,,,,,,,,,,,,,,,,,
,,,,,45,2020-07-04_14h47.55.317,retriever_ti,2020.1.3,Win32,60,Chrome,1920,1080,,,,,,,,,,,,,,,,,2,,,,,,,,,,,,,,,,,,,,,,,,,,,1126.77835,131,right,0.793805,dress         ,2,7,1,1,1,1126.79231,1126.79231,1129.283245,0,53,53,53,1,131,1,2,gloves      ,dress         ,html/resources/sequences_IDs/B/06_gloves.jpg,html/resources/sequences_IDs/A/07_dress.jpg,6,7,3,2,3,2,5,6,0,45,,,,,,,,,,,,,,,,,,,,
,,,,,45,2020-07-04_14h47.55.317,retriever_ti,2020.1.3,Win32,60,Chrome,1920,1080,,,,,,,,,,,,,,,,,2,,,,,,,,,,,,,,,,,,,,,,,,,,,1130.37466,132,right,1.00219,calculator    ,8,9,3,1,3,1130.381575,1130.381575,1132.873645,0,54,54,54,1,132,5,8,parrot      ,calculator    ,html/resources/sequences_IDs/B/05_parrot.jpg,html/resources/sequences_IDs/A/09_calculator.jpg,5,9,2,1,4,2,4,7,0,45,,,,,,,,,,,,,,,,,,,,
,,,,,45,2020-07-04_14h47.55.317,retriever_ti,2020.1.3,Win32,60,Chrome,1920,1080,,,,,,,,,,,,,,,,,2,,,,,,,,,,,,,,,,,,,,,,,,,,,1133.47748,133,right,1.08574,redfox      ,7,1,4,1,3,1133.494035,1133.494035,1135.984405,0,55,55,55,1,133,3,7,dolphin     ,redfox      ,html/resources/sequences_IDs/B/02_dolphin.jpg,html/resources/sequences_IDs/B/01_redfox.jpg,2,1,1,1,1,1,2,1,0,45,,,,,,,,,,,,,,,,,,,,
,,,,,45,2020-07-04_14h47.55.317,retriever_ti,2020.1.3,Win32,60,Chrome,1920,1080,,,,,,,,,,,,,,,,,2,,,,,,,,,,,,,,,,,,,,,,,,,,,1136.588825,134,left,1.125455,parrot      ,5,5,-1,0,0,1136.602805,1136.602805,1139.095575,0,56,56,56,1,134,5,6,parrot      ,satellite_dish,html/resources/sequences_IDs/B/05_parrot.jpg,html/resources/sequences_IDs/A/10_satellite_dish.jpg,5,10,2,1,4,2,4,8,0,45,,,,,,,,,,,,,,,,,,,,
,,,,,45,2020-07-04_14h47.55.317,retriever_ti,2020.1.3,Win32,60,Chrome,1920,1080,,,,,,,,,,,,,,,,,2,,,,,,,,,,,,,,,,,,,,,,,,,,,1140.18615,135,right,1.15694,satellite_dish,6,10,5,1,3,1140.193085,1140.193085,1142.68556,0,57,57,57,1,135,1,6,gloves      ,satellite_dish,html/resources/sequences_IDs/B/06_gloves.jpg,html/resources/sequences_IDs/A/10_satellite_dish.jpg,6,10,3,2,4,2,5,8,0,45,,,,,,,,,,,,,,,,,,,,
,,,,,45,2020-07-04_14h47.55.317,retriever_ti,2020.1.3,Win32,60,Chrome,1920,1080,,,,,,,,,,,,,,,,,2,,,,,,,,,,,,,,,,,,,,,,,,,,,1143.29071,136,left,0.98828,dress         ,2,7,-2,0,3,1143.298675,1143.298675,1145.789755,0,58,58,58,1,136,2,4,dress         ,camel         ,html/resources/sequences_IDs/A/07_dress.jpg,html/resources/sequences_IDs/A/03_camel.jpg,7,3,3,2,1,1,6,3,0,45,,,,,,,,,,,,,,,,,,,,
,,,,,45,2020-07-04_14h47.55.317,retriever_ti,2020.1.3,Win32,60,Chrome,1920,1080,,,,,,,,,,,,,,,,,2,,,,,,,,,,,,,,,,,,,,,,,,,,,1146.39657,137,right,1.148155,parrot      ,5,5,-1,0,0,1146.40362,1146.40362,1148.89378,0,59,59,59,1,137,6,5,satellite_dish,parrot      ,html/resources/sequences_IDs/A/10_satellite_dish.jpg,html/resources/sequences_IDs/B/05_parrot.jpg,10,5,4,2,2,1,8,4,0,45,,,,,,,,,,,,,,,,,,,,
,,,,,45,2020-07-04_14h47.55.317,retriever_ti,2020.1.3,Win32,60,Chrome,1920,1080,,,,,,,,,,,,,,,,,2,,,,,,,,,,,,,,,,,,,,,,,,,,,1149.984865,138,right,1.891455,redfox      ,7,1,2,1,3,1149.991485,1149.991485,1152.4842,0,60,60,60,1,138,5,7,parrot      ,redfox      ,html/resources/sequences_IDs/B/05_parrot.jpg,html/resources/sequences_IDs/B/01_redfox.jpg,5,1,2,1,1,1,4,1,0,45,,,,,,,,,,,,,,,,,,,,
,,,,,45,2020-07-04_14h47.55.317,retriever_ti,2020.1.3,Win32,60,Chrome,1920,1080,,,,,,,,,,,,,,,,,2,,,,,,,,,,,,,,,,,,,,,,,,,,,1153.088695,139,left,1.40593,dress         ,2,7,-1,0,0,1153.09623,1153.09623,1155.588295,0,61,61,61,1,139,2,3,dress         ,dolphin     ,html/resources/sequences_IDs/A/07_dress.jpg,html/resources/sequences_IDs/B/02_dolphin.jpg,7,2,3,2,1,1,6,2,0,45,,,,,,,,,,,,,,,,,,,,
,,,,,45,2020-07-04_14h47.55.317,retriever_ti,2020.1.3,Win32,60,Chrome,1920,1080,,,,,,,,,,,,,,,,,2,,,,,,,,,,,,,,,,,,,,,,,,,,,1156.67958,140,right,1.09973,parrot      ,5,5,1,1,1,1156.69349,1156.69349,1159.185845,0,62,62,62,1,140,4,5,camel         ,parrot      ,html/resources/sequences_IDs/A/03_camel.jpg,html/resources/sequences_IDs/B/05_parrot.jpg,3,5,1,1,2,1,3,4,0,45,,,,,,,,,,,,,,,,,,,,
,,,,,45,2020-07-04_14h47.55.317,retriever_ti,2020.1.3,Win32,60,Chrome,1920,1080,,,,,,,,,,,,,,,,,2,,,,,,,,,,,,,,,,,,,,,,,,,,,1160.27678,141,left,0.993725,parrot      ,5,5,2,1,3,1160.283625,1160.283625,1162.775785,0,63,63,63,1,141,5,3,parrot      ,dolphin     ,html/resources/sequences_IDs/B/05_parrot.jpg,html/resources/sequences_IDs/B/02_dolphin.jpg,5,2,2,1,1,1,4,2,0,45,,,,,,,,,,,,,,,,,,,,
,,,,,45,2020-07-04_14h47.55.317,retriever_ti,2020.1.3,Win32,60,Chrome,1920,1080,,,,,,,,,,,,,,,,,2,,,,,,,,,,,,,,,,,,,,,,,,,,,1163.3803,142,left,0.770785,calculator    ,8,9,7,1,3,1163.39495,1163.39495,1165.8866,0,64,64,64,1,142,8,1,calculator    ,gloves      ,html/resources/sequences_IDs/A/09_calculator.jpg,html/resources/sequences_IDs/B/06_gloves.jpg,9,6,4,2,3,2,7,5,0,45,,,,,,,,,,,,,,,,,,,,
,,,,,45,2020-07-04_14h47.55.317,retriever_ti,2020.1.3,Win32,60,Chrome,1920,1080,,,,,,,,,,,,,,,,,2,,,,,,,,,,,,,,,,,,,,,,,,,,,1166.492025,143,right,1.30813,calculator    ,8,9,2,1,3,1166.505985,1166.505985,1168.99788,0,65,65,65,1,143,6,8,satellite_dish,calculator    ,html/resources/sequences_IDs/A/10_satellite_dish.jpg,html/resources/sequences_IDs/A/09_calculator.jpg,10,9,4,2,4,2,8,7,0,45,,,,,,,,,,,,,,,,,,,,
,,,,,45,2020-07-04_14h47.55.317,retriever_ti,2020.1.3,Win32,60,Chrome,1920,1080,,,,,,,,,,,,,,,,,2,,,,,,,,,,,,,,,,,,,,,,,,,,,1169.60219,144,left,2.310535,parrot      ,5,5,3,1,3,1169.616475,1169.616475,1172.108655,0,66,66,66,1,144,5,2,parrot      ,dress         ,html/resources/sequences_IDs/B/05_parrot.jpg,html/resources/sequences_IDs/A/07_dress.jpg,5,7,2,1,3,2,4,6,0,45,,,,,,,,,,,,,,,,,,,,
,,,,,45,2020-07-04_14h47.55.317,retriever_ti,2020.1.3,Win32,60,Chrome,1920,1080,,,,,,,,,,,,,,,,,2,,,,,,,,,,,,,,,,,,,,,,,,,,,1172.714755,145,right,1.82305,satellite_dish,6,10,1,1,0,1172.72867,1172.72867,1175.220455,0,67,67,67,1,145,5,6,parrot      ,satellite_dish,html/resources/sequences_IDs/B/05_parrot.jpg,html/resources/sequences_IDs/A/10_satellite_dish.jpg,5,10,2,1,4,2,4,8,1,45,,,,,,,,,,,,,,,,,,,,
,,,,,45,2020-07-04_14h47.55.317,retriever_ti,2020.1.3,Win32,60,Chrome,1920,1080,,,,,,,,,,,,,,,,,2,,,,,,,,,,,,,,,,,,,,,,,,,,,1176.312815,146,left,1.09869,dress         ,2,7,-1,0,0,1176.324935,1176.324935,1178.8176,0,68,68,68,1,146,2,3,dress         ,dolphin     ,html/resources/sequences_IDs/A/07_dress.jpg,html/resources/sequences_IDs/B/02_dolphin.jpg,7,2,3,2,1,1,6,2,0,45,,,,,,,,,,,,,,,,,,,,
,,,,,45,2020-07-04_14h47.55.317,retriever_ti,2020.1.3,Win32,60,Chrome,1920,1080,,,,,,,,,,,,,,,,,2,,,,,,,,,,,,,,,,,,,,,,,,,,,1179.90832,147,left,1.149015,parrot      ,5,5,1,1,1,1179.92232,1179.92232,1182.41451,0,69,69,69,1,147,5,4,parrot      ,camel         ,html/resources/sequences_IDs/B/05_parrot.jpg,html/resources/sequences_IDs/A/03_camel.jpg,5,3,2,1,1,1,4,3,0,45,,,,,,,,,,,,,,,,,,,,
,,,,,45,2020-07-04_14h47.55.317,retriever_ti,2020.1.3,Win32,60,Chrome,1920,1080,,,,,,,,,,,,,,,,,2,,,,,,,,,,,,,,,,,,,,,,,,,,,1183.505005,148,right,1.822185,dress         ,2,7,-1,0,0,1183.51953,1183.51953,1186.01129,0,70,70,70,1,148,3,2,dolphin     ,dress         ,html/resources/sequences_IDs/B/02_dolphin.jpg,html/resources/sequences_IDs/A/07_dress.jpg,2,7,1,1,3,2,2,6,0,45,,,,,,,,,,,,,,,,,,,,
,,,,,45,2020-07-04_14h47.55.317,retriever_ti,2020.1.3,Win32,60,Chrome,1920,1080,,,,,,,,,,,,,,,,,2,,,,,,,,,,,,,,,,,,,,,,,,,,,1187.1043,149,left,1.52334,satellite_dish,6,10,2,1,3,1187.110325,1187.110325,1189.60166,0,71,71,71,1,149,6,4,satellite_dish,camel         ,html/resources/sequences_IDs/A/10_satellite_dish.jpg,html/resources/sequences_IDs/A/03_camel.jpg,10,3,4,2,1,1,8,3,0,45,,,,,,,,,,,,,,,,,,,,
,,,,,45,2020-07-04_14h47.55.317,retriever_ti,2020.1.3,Win32,60,Chrome,1920,1080,,,,,,,,,,,,,,,,,2,,,,,,,,,,,,,,,,,,,,,,,,,,,1190.20645,150,right,1.76325,camel         ,4,3,1,1,1,1190.220415,1190.220415,1192.712975,0,72,72,72,1,150,3,4,dolphin     ,camel         ,html/resources/sequences_IDs/B/02_dolphin.jpg,html/resources/sequences_IDs/A/03_camel.jpg,2,3,1,1,1,1,2,3,0,45,,,,,,,,,,,,,,,,,,,,
,,,,,45,2020-07-04_14h47.55.317,retriever_ti,2020.1.3,Win32,60,Chrome,1920,1080,,,,,,,,,,,,,,,,,2,,,,,,,,,,,,,,,,,,,,,,,,,,,1193.803465,151,right,0.808905,calculator    ,8,9,4,1,3,1193.81808,1193.81808,1196.310105,0,73,73,73,1,151,4,8,camel         ,calculator    ,html/resources/sequences_IDs/A/03_camel.jpg,html/resources/sequences_IDs/A/09_calculator.jpg,3,9,1,1,4,2,3,7,0,45,,,,,,,,,,,,,,,,,,,,
,,,,,45,2020-07-04_14h47.55.317,retriever_ti,2020.1.3,Win32,60,Chrome,1920,1080,,,,,,,,,,,,,,,,,2,,,,,,,,,,,,,,,,,,,,,,,,,,,1196.915225,152,right,0.600075,redfox      ,7,1,-1,0,0,1196.92217,1196.92217,1199.414,0,74,74,74,1,152,8,7,calculator    ,redfox      ,html/resources/sequences_IDs/A/09_calculator.jpg,html/resources/sequences_IDs/B/01_redfox.jpg,9,1,4,2,1,1,7,1,0,45,,,,,,,,,,,,,,,,,,,,
,,,,,45,2020-07-04_14h47.55.317,retriever_ti,2020.1.3,Win32,60,Chrome,1920,1080,,,,,,,,,,,,,,,,,2,,,,,,,,,,,,,,,,,,,,,,,,,,,1200.505525,153,left,0.97708,redfox      ,7,1,5,1,3,1200.51946,1200.51946,1203.01109,0,75,75,75,1,153,7,2,redfox      ,dress         ,html/resources/sequences_IDs/B/01_redfox.jpg,html/resources/sequences_IDs/A/07_dress.jpg,1,7,1,1,3,2,1,6,0,45,,,,,,,,,,,,,,,,,,,,
,,,,,45,2020-07-04_14h47.55.317,retriever_ti,2020.1.3,Win32,60,Chrome,1920,1080,,,,,,,,,,,,,,,,,2,,,,,,,,,,,,,,,,,,,,,,,,,,,1203.6157,154,left,0.736445,redfox      ,7,1,3,1,3,1203.623145,1203.623145,1206.115585,0,76,76,76,1,154,7,4,redfox      ,camel         ,html/resources/sequences_IDs/B/01_redfox.jpg,html/resources/sequences_IDs/A/03_camel.jpg,1,3,1,1,1,1,1,3,0,45,,,,,,,,,,,,,,,,,,,,
,,,,,45,2020-07-04_14h47.55.317,retriever_ti,2020.1.3,Win32,60,Chrome,1920,1080,,,,,,,,,,,,,,,,,,,,,,,,,,,,,,,,,,,,,0,1.61335,,,,,,,,,,,,,,,,,,,,,,,,,,,,,,,,,,,,,,,,,1,0,1,0,1,,,,,,,,,,,,,,,
,,,,,45,2020-07-04_14h47.55.317,retriever_ti,2020.1.3,Win32,60,Chrome,1920,1080,,,,,,,,,,,,,,,,,3,,,,,,,,,,,,,,,,,,,,,,,,,,,1214.05717,155,right,1.00343,redfox      ,7,1,6,1,3,1214.067075,1214.067075,1216.55956,0,0,0,0,1,155,1,7,gloves      ,redfox      ,html/resources/sequences_IDs/B/06_gloves.jpg,html/resources/sequences_IDs/B/01_redfox.jpg,6,1,3,2,1,1,5,1,0,45,,,,,,,,,,,,,,,,,,,,
,,,,,45,2020-07-04_14h47.55.317,retriever_ti,2020.1.3,Win32,60,Chrome,1920,1080,,,,,,,,,,,,,,,,,3,,,,,,,,,,,,,,,,,,,,,,,,,,,1217.16503,156,left,1.138625,redfox      ,7,1,1,1,1,1217.17892,1217.17892,1219.670805,0,1,1,1,1,156,7,6,redfox      ,satellite_dish,html/resources/sequences_IDs/B/01_redfox.jpg,html/resources/sequences_IDs/A/10_satellite_dish.jpg,1,10,1,1,4,2,1,8,0,45,,,,,,,,,,,,,,,,,,,,
,,,,,45,2020-07-04_14h47.55.317,retriever_ti,2020.1.3,Win32,60,Chrome,1920,1080,,,,,,,,,,,,,,,,,3,,,,,,,,,,,,,,,,,,,,,,,,,,,1220.761305,157,right,1.10009,satellite_dish,6,10,4,1,3,1220.775335,1220.775335,1223.26797,0,2,2,2,1,157,2,6,dress         ,satellite_dish,html/resources/sequences_IDs/A/07_dress.jpg,html/resources/sequences_IDs/A/10_satellite_dish.jpg,7,10,3,2,4,2,6,8,0,45,,,,,,,,,,,,,,,,,,,,
,,,,,45,2020-07-04_14h47.55.317,retriever_ti,2020.1.3,Win32,60,Chrome,1920,1080,,,,,,,,,,,,,,,,,3,,,,,,,,,,,,,,,,,,,,,,,,,,,1223.871985,158,left,0.82252,dress         ,2,7,1,1,1,1223.886125,1223.886125,1226.37904,0,3,3,3,1,158,2,1,dress         ,gloves      ,html/resources/sequences_IDs/A/07_dress.jpg,html/resources/sequences_IDs/B/06_gloves.jpg,7,6,3,2,3,2,6,5,0,45,,,,,,,,,,,,,,,,,,,,
,,,,,45,2020-07-04_14h47.55.317,retriever_ti,2020.1.3,Win32,60,Chrome,1920,1080,,,,,,,,,,,,,,,,,3,,,,,,,,,,,,,,,,,,,,,,,,,,,1227.469435,159,left,1.63984,dolphin     ,3,2,1,1,0,1227.476415,1227.476415,1229.96965,0,4,4,4,1,159,3,2,dolphin     ,dress         ,html/resources/sequences_IDs/B/02_dolphin.jpg,html/resources/sequences_IDs/A/07_dress.jpg,2,7,1,1,3,2,2,6,1,45,,,,,,,,,,,,,,,,,,,,
,,,,,45,2020-07-04_14h47.55.317,retriever_ti,2020.1.3,Win32,60,Chrome,1920,1080,,,,,,,,,,,,,,,,,3,,,,,,,,,,,,,,,,,,,,,,,,,,,1231.0598,160,right,1.318485,satellite_dish,6,10,5,1,3,1231.074065,1231.074065,1233.56638,0,5,5,5,1,160,1,6,gloves      ,satellite_dish,html/resources/sequences_IDs/B/06_gloves.jpg,html/resources/sequences_IDs/A/10_satellite_dish.jpg,6,10,3,2,4,2,5,8,0,45,,,,,,,,,,,,,,,,,,,,
,,,,,45,2020-07-04_14h47.55.317,retriever_ti,2020.1.3,Win32,60,Chrome,1920,1080,,,,,,,,,,,,,,,,,3,,,,,,,,,,,,,,,,,,,,,,,,,,,1234.17131,161,right,0.593085,calculator    ,8,9,7,1,3,1234.179205,1234.179205,1236.670415,0,6,6,6,1,161,1,8,gloves      ,calculator    ,html/resources/sequences_IDs/B/06_gloves.jpg,html/resources/sequences_IDs/A/09_calculator.jpg,6,9,3,2,4,2,5,7,0,45,,,,,,,,,,,,,,,,,,,,
,,,,,45,2020-07-04_14h47.55.317,retriever_ti,2020.1.3,Win32,60,Chrome,1920,1080,,,,,,,,,,,,,,,,,3,,,,,,,,,,,,,,,,,,,,,,,,,,,1237.27563,162,left,1.24734,dolphin     ,3,2,-1,0,0,1237.28263,1237.28263,1239.775045,0,7,7,7,1,162,3,4,dolphin     ,camel         ,html/resources/sequences_IDs/B/02_dolphin.jpg,html/resources/sequences_IDs/A/03_camel.jpg,2,3,1,1,1,1,2,3,0,45,,,,,,,,,,,,,,,,,,,,
,,,,,45,2020-07-04_14h47.55.317,retriever_ti,2020.1.3,Win32,60,Chrome,1920,1080,,,,,,,,,,,,,,,,,3,,,,,,,,,,,,,,,,,,,,,,,,,,,1240.8658,163,left,0.70426,redfox      ,7,1,6,1,3,1240.8797,1240.8797,1243.37176,0,8,8,8,1,163,7,1,redfox      ,gloves      ,html/resources/sequences_IDs/B/01_redfox.jpg,html/resources/sequences_IDs/B/06_gloves.jpg,1,6,1,1,3,2,1,5,0,45,,,,,,,,,,,,,,,,,,,,
,,,,,45,2020-07-04_14h47.55.317,retriever_ti,2020.1.3,Win32,60,Chrome,1920,1080,,,,,,,,,,,,,,,,,3,,,,,,,,,,,,,,,,,,,,,,,,,,,1243.9768,164,left,1.666905,camel         ,4,3,-1,0,0,1243.99111,1243.99111,1246.483025,0,9,9,9,1,164,4,5,camel         ,parrot      ,html/resources/sequences_IDs/A/03_camel.jpg,html/resources/sequences_IDs/B/05_parrot.jpg,3,5,1,1,2,1,3,4,0,45,,,,,,,,,,,,,,,,,,,,
,,,,,45,2020-07-04_14h47.55.317,retriever_ti,2020.1.3,Win32,60,Chrome,1920,1080,,,,,,,,,,,,,,,,,3,,,,,,,,,,,,,,,,,,,,,,,,,,,1247.574355,165,right,0.94563,calculator    ,8,9,5,1,3,1247.58156,1247.58156,1250.072975,0,10,10,10,1,165,3,8,dolphin     ,calculator    ,html/resources/sequences_IDs/B/02_dolphin.jpg,html/resources/sequences_IDs/A/09_calculator.jpg,2,9,1,1,4,2,2,7,0,45,,,,,,,,,,,,,,,,,,,,
,,,,,45,2020-07-04_14h47.55.317,retriever_ti,2020.1.3,Win32,60,Chrome,1920,1080,,,,,,,,,,,,,,,,,3,,,,,,,,,,,,,,,,,,,,,,,,,,,1250.67843,166,left,0.67263,redfox      ,7,1,1,1,1,1250.69363,1250.69363,1253.18428,0,11,11,11,1,166,7,6,redfox      ,satellite_dish,html/resources/sequences_IDs/B/01_redfox.jpg,html/resources/sequences_IDs/A/10_satellite_dish.jpg,1,10,1,1,4,2,1,8,0,45,,,,,,,,,,,,,,,,,,,,
,,,,,45,2020-07-04_14h47.55.317,retriever_ti,2020.1.3,Win32,60,Chrome,1920,1080,,,,,,,,,,,,,,,,,3,,,,,,,,,,,,,,,,,,,,,,,,,,,1254.27582,167,right,1.724545,satellite_dish,6,10,1,1,1,1254.282705,1254.282705,1256.774165,0,12,12,12,1,167,5,6,parrot      ,satellite_dish,html/resources/sequences_IDs/B/05_parrot.jpg,html/resources/sequences_IDs/A/10_satellite_dish.jpg,5,10,2,1,4,2,4,8,0,45,,,,,,,,,,,,,,,,,,,,
,,,,,45,2020-07-04_14h47.55.317,retriever_ti,2020.1.3,Win32,60,Chrome,1920,1080,,,,,,,,,,,,,,,,,3,,,,,,,,,,,,,,,,,,,,,,,,,,,1257.867095,168,right,1.473985,calculator    ,8,9,6,1,3,1257.88098,1257.88098,1260.372045,0,13,13,13,1,168,2,8,dress         ,calculator    ,html/resources/sequences_IDs/A/07_dress.jpg,html/resources/sequences_IDs/A/09_calculator.jpg,7,9,3,2,4,2,6,7,0,45,,,,,,,,,,,,,,,,,,,,
,,,,,45,2020-07-04_14h47.55.317,retriever_ti,2020.1.3,Win32,60,Chrome,1920,1080,,,,,,,,,,,,,,,,,3,,,,,,,,,,,,,,,,,,,,,,,,,,,1260.97737,169,left,1.03771,satellite_dish,6,10,2,1,3,1260.984335,1260.984335,1263.47563,0,14,14,14,1,169,6,4,satellite_dish,camel         ,html/resources/sequences_IDs/A/10_satellite_dish.jpg,html/resources/sequences_IDs/A/03_camel.jpg,10,3,4,2,1,1,8,3,0,45,,,,,,,,,,,,,,,,,,,,
,,,,,45,2020-07-04_14h47.55.317,retriever_ti,2020.1.3,Win32,60,Chrome,1920,1080,,,,,,,,,,,,,,,,,3,,,,,,,,,,,,,,,,,,,,,,,,,,,1264.08025,170,right,1.0248,satellite_dish,6,10,3,1,3,1264.094855,1264.094855,1266.586575,0,15,15,15,1,170,3,6,dolphin     ,satellite_dish,html/resources/sequences_IDs/B/02_dolphin.jpg,html/resources/sequences_IDs/A/10_satellite_dish.jpg,2,10,1,1,4,2,2,8,0,45,,,,,,,,,,,,,,,,,,,,
,,,,,45,2020-07-04_14h47.55.317,retriever_ti,2020.1.3,Win32,60,Chrome,1920,1080,,,,,,,,,,,,,,,,,3,,,,,,,,,,,,,,,,,,,,,,,,,,,1267.19194,171,right,1.59702,dress         ,2,7,-2,0,3,1267.205885,1267.205885,1269.69774,0,16,16,16,1,171,4,2,camel         ,dress         ,html/resources/sequences_IDs/A/03_camel.jpg,html/resources/sequences_IDs/A/07_dress.jpg,3,7,1,1,3,2,3,6,0,45,,,,,,,,,,,,,,,,,,,,
,,,,,45,2020-07-04_14h47.55.317,retriever_ti,2020.1.3,Win32,60,Chrome,1920,1080,,,,,,,,,,,,,,,,,3,,,,,,,,,,,,,,,,,,,,,,,,,,,1270.302545,172,left,1.817885,gloves      ,1,6,-3,0,3,1270.310245,1270.310245,1272.80186,0,17,17,17,1,172,1,4,gloves      ,camel         ,html/resources/sequences_IDs/B/06_gloves.jpg,html/resources/sequences_IDs/A/03_camel.jpg,6,3,3,2,1,1,5,3,0,45,,,,,,,,,,,,,,,,,,,,
,,,,,45,2020-07-04_14h47.55.317,retriever_ti,2020.1.3,Win32,60,Chrome,1920,1080,,,,,,,,,,,,,,,,,3,,,,,,,,,,,,,,,,,,,,,,,,,,,1273.40645,173,right,0.753185,redfox      ,7,1,-1,0,0,1273.413565,1273.413565,1275.90589,0,18,18,18,1,173,8,7,calculator    ,redfox      ,html/resources/sequences_IDs/A/09_calculator.jpg,html/resources/sequences_IDs/B/01_redfox.jpg,9,1,4,2,1,1,7,1,0,45,,,,,,,,,,,,,,,,,,,,
,,,,,45,2020-07-04_14h47.55.317,retriever_ti,2020.1.3,Win32,60,Chrome,1920,1080,,,,,,,,,,,,,,,,,3,,,,,,,,,,,,,,,,,,,,,,,,,,,1276.997275,174,right,1.01271,dress         ,2,7,1,1,0,1277.004105,1277.004105,1279.49612,0,19,19,19,1,174,1,2,gloves      ,dress         ,html/resources/sequences_IDs/B/06_gloves.jpg,html/resources/sequences_IDs/A/07_dress.jpg,6,7,3,2,3,2,5,6,1,45,,,,,,,,,,,,,,,,,,,,
,,,,,45,2020-07-04_14h47.55.317,retriever_ti,2020.1.3,Win32,60,Chrome,1920,1080,,,,,,,,,,,,,,,,,3,,,,,,,,,,,,,,,,,,,,,,,,,,,1280.58683,175,left,1.55109,gloves      ,1,6,-2,0,3,1280.60122,1280.60122,1283.09321,0,20,20,20,1,175,1,3,gloves      ,dolphin     ,html/resources/sequences_IDs/B/06_gloves.jpg,html/resources/sequences_IDs/B/02_dolphin.jpg,6,2,3,2,1,1,5,2,0,45,,,,,,,,,,,,,,,,,,,,
,,,,,45,2020-07-04_14h47.55.317,retriever_ti,2020.1.3,Win32,60,Chrome,1920,1080,,,,,,,,,,,,,,,,,3,,,,,,,,,,,,,,,,,,,,,,,,,,,1283.698825,176,left,1.37595,satellite_dish,6,10,1,1,1,1283.705765,1283.705765,1286.19752,0,21,21,21,1,176,6,5,satellite_dish,parrot      ,html/resources/sequences_IDs/A/10_satellite_dish.jpg,html/resources/sequences_IDs/B/05_parrot.jpg,10,5,4,2,2,1,8,4,0,45,,,,,,,,,,,,,,,,,,,,
,,,,,45,2020-07-04_14h47.55.317,retriever_ti,2020.1.3,Win32,60,Chrome,1920,1080,,,,,,,,,,,,,,,,,3,,,,,,,,,,,,,,,,,,,,,,,,,,,1287.290295,177,right,1.305615,camel         ,4,3,1,1,1,1287.29721,1287.29721,1289.787805,0,22,22,22,1,177,3,4,dolphin     ,camel         ,html/resources/sequences_IDs/B/02_dolphin.jpg,html/resources/sequences_IDs/A/03_camel.jpg,2,3,1,1,1,1,2,3,0,45,,,,,,,,,,,,,,,,,,,,
,,,,,45,2020-07-04_14h47.55.317,retriever_ti,2020.1.3,Win32,60,Chrome,1920,1080,,,,,,,,,,,,,,,,,3,,,,,,,,,,,,,,,,,,,,,,,,,,,1290.879445,178,left,1.6576,dress         ,2,7,-1,0,0,1290.88628,1290.88628,1293.377785,0,23,23,23,1,178,2,3,dress         ,dolphin     ,html/resources/sequences_IDs/A/07_dress.jpg,html/resources/sequences_IDs/B/02_dolphin.jpg,7,2,3,2,1,1,6,2,0,45,,,,,,,,,,,,,,,,,,,,
,,,,,45,2020-07-04_14h47.55.317,retriever_ti,2020.1.3,Win32,60,Chrome,1920,1080,,,,,,,,,,,,,,,,,3,,,,,,,,,,,,,,,,,,,,,,,,,,,1294.468235,179,right,0.780405,calculator    ,8,9,2,1,3,1294.482555,1294.482555,1296.97535,0,24,24,24,1,179,6,8,satellite_dish,calculator    ,html/resources/sequences_IDs/A/10_satellite_dish.jpg,html/resources/sequences_IDs/A/09_calculator.jpg,10,9,4,2,4,2,8,7,0,45,,,,,,,,,,,,,,,,,,,,
,,,,,45,2020-07-04_14h47.55.317,retriever_ti,2020.1.3,Win32,60,Chrome,1920,1080,,,,,,,,,,,,,,,,,3,,,,,,,,,,,,,,,,,,,,,,,,,,,1297.580075,180,right,1.341925,satellite_dish,6,10,1,1,1,1297.59398,1297.59398,1300.08604,0,25,25,25,1,180,5,6,parrot      ,satellite_dish,html/resources/sequences_IDs/B/05_parrot.jpg,html/resources/sequences_IDs/A/10_satellite_dish.jpg,5,10,2,1,4,2,4,8,0,45,,,,,,,,,,,,,,,,,,,,
,,,,,45,2020-07-04_14h47.55.317,retriever_ti,2020.1.3,Win32,60,Chrome,1920,1080,,,,,,,,,,,,,,,,,3,,,,,,,,,,,,,,,,,,,,,,,,,,,1301.177795,181,right,2.149045,dolphin     ,3,2,-1,0,0,1301.191715,1301.191715,1303.68337,0,26,26,26,1,181,4,3,camel         ,dolphin     ,html/resources/sequences_IDs/A/03_camel.jpg,html/resources/sequences_IDs/B/02_dolphin.jpg,3,2,1,1,1,1,3,2,0,45,,,,,,,,,,,,,,,,,,,,
,,,,,45,2020-07-04_14h47.55.317,retriever_ti,2020.1.3,Win32,60,Chrome,1920,1080,,,,,,,,,,,,,,,,,3,,,,,,,,,,,,,,,,,,,,,,,,,,,1304.774655,182,left,2.13609,parrot      ,5,5,3,1,3,1304.78861,1304.78861,1307.280565,0,27,27,27,1,182,5,2,parrot      ,dress         ,html/resources/sequences_IDs/B/05_parrot.jpg,html/resources/sequences_IDs/A/07_dress.jpg,5,7,2,1,3,2,4,6,0,45,,,,,,,,,,,,,,,,,,,,
,,,,,45,2020-07-04_14h47.55.317,retriever_ti,2020.1.3,Win32,60,Chrome,1920,1080,,,,,,,,,,,,,,,,,3,,,,,,,,,,,,,,,,,,,,,,,,,,,1307.88479,183,left,2.03961,camel         ,4,3,1,1,1,1307.899525,1307.899525,1310.392,0,28,28,28,1,183,4,3,camel         ,dolphin     ,html/resources/sequences_IDs/A/03_camel.jpg,html/resources/sequences_IDs/B/02_dolphin.jpg,3,2,1,1,1,1,3,2,0,45,,,,,,,,,,,,,,,,,,,,
,,,,,45,2020-07-04_14h47.55.317,retriever_ti,2020.1.3,Win32,60,Chrome,1920,1080,,,,,,,,,,,,,,,,,3,,,,,,,,,,,,,,,,,,,,,,,,,,,1311.482475,184,left,0.80108,calculator    ,8,9,1,1,1,1311.496395,1311.496395,1313.98872,0,29,29,29,1,184,8,7,calculator    ,redfox      ,html/resources/sequences_IDs/A/09_calculator.jpg,html/resources/sequences_IDs/B/01_redfox.jpg,9,1,4,2,1,1,7,1,0,45,,,,,,,,,,,,,,,,,,,,
,,,,,45,2020-07-04_14h47.55.317,retriever_ti,2020.1.3,Win32,60,Chrome,1920,1080,,,,,,,,,,,,,,,,,3,,,,,,,,,,,,,,,,,,,,,,,,,,,1315.079775,185,right,1.59266,camel         ,4,3,1,1,0,1315.094795,1315.094795,1317.58589,0,30,30,30,1,185,3,4,dolphin     ,camel         ,html/resources/sequences_IDs/B/02_dolphin.jpg,html/resources/sequences_IDs/A/03_camel.jpg,2,3,1,1,1,1,2,3,1,45,,,,,,,,,,,,,,,,,,,,
,,,,,45,2020-07-04_14h47.55.317,retriever_ti,2020.1.3,Win32,60,Chrome,1920,1080,,,,,,,,,,,,,,,,,3,,,,,,,,,,,,,,,,,,,,,,,,,,,1318.676605,186,left,0.698365,redfox      ,7,1,4,1,3,1318.691245,1318.691245,1321.18303,0,31,31,31,1,186,7,3,redfox      ,dolphin     ,html/resources/sequences_IDs/B/01_redfox.jpg,html/resources/sequences_IDs/B/02_dolphin.jpg,1,2,1,1,1,1,1,2,0,45,,,,,,,,,,,,,,,,,,,,
,,,,,45,2020-07-04_14h47.55.317,retriever_ti,2020.1.3,Win32,60,Chrome,1920,1080,,,,,,,,,,,,,,,,,3,,,,,,,,,,,,,,,,,,,,,,,,,,,1321.78743,187,left,0.762715,redfox      ,7,1,2,1,3,1321.794525,1321.794525,1324.2871,0,32,32,32,1,187,7,5,redfox      ,parrot      ,html/resources/sequences_IDs/B/01_redfox.jpg,html/resources/sequences_IDs/B/05_parrot.jpg,1,5,1,1,2,1,1,4,0,45,,,,,,,,,,,,,,,,,,,,
,,,,,45,2020-07-04_14h47.55.317,retriever_ti,2020.1.3,Win32,60,Chrome,1920,1080,,,,,,,,,,,,,,,,,3,,,,,,,,,,,,,,,,,,,,,,,,,,,1324.89339,188,left,0.568025,calculator    ,8,9,5,1,3,1324.90718,1324.90718,1327.398205,0,33,33,33,1,188,8,3,calculator    ,dolphin     ,html/resources/sequences_IDs/A/09_calculator.jpg,html/resources/sequences_IDs/B/02_dolphin.jpg,9,2,4,2,1,1,7,2,0,45,,,,,,,,,,,,,,,,,,,,
,,,,,45,2020-07-04_14h47.55.317,retriever_ti,2020.1.3,Win32,60,Chrome,1920,1080,,,,,,,,,,,,,,,,,3,,,,,,,,,,,,,,,,,,,,,,,,,,,1328.00318,189,right,0.742635,calculator    ,8,9,1,1,0,1328.017985,1328.017985,1330.509265,0,34,34,34,1,189,7,8,redfox      ,calculator    ,html/resources/sequences_IDs/B/01_redfox.jpg,html/resources/sequences_IDs/A/09_calculator.jpg,1,9,1,1,4,2,1,7,1,45,,,,,,,,,,,,,,,,,,,,
,,,,,45,2020-07-04_14h47.55.317,retriever_ti,2020.1.3,Win32,60,Chrome,1920,1080,,,,,,,,,,,,,,,,,3,,,,,,,,,,,,,,,,,,,,,,,,,,,1331.600605,190,left,0.624715,calculator    ,8,9,7,1,3,1331.607635,1331.607635,1334.09958,0,35,35,35,1,190,8,1,calculator    ,gloves      ,html/resources/sequences_IDs/A/09_calculator.jpg,html/resources/sequences_IDs/B/06_gloves.jpg,9,6,4,2,3,2,7,5,0,45,,,,,,,,,,,,,,,,,,,,
,,,,,45,2020-07-04_14h47.55.317,retriever_ti,2020.1.3,Win32,60,Chrome,1920,1080,,,,,,,,,,,,,,,,,3,,,,,,,,,,,,,,,,,,,,,,,,,,,1334.704615,191,right,0.956125,dress         ,2,7,1,1,1,1334.71258,1334.71258,1337.203755,0,36,36,36,1,191,1,2,gloves      ,dress         ,html/resources/sequences_IDs/B/06_gloves.jpg,html/resources/sequences_IDs/A/07_dress.jpg,6,7,3,2,3,2,5,6,0,45,,,,,,,,,,,,,,,,,,,,
,,,,,45,2020-07-04_14h47.55.317,retriever_ti,2020.1.3,Win32,60,Chrome,1920,1080,,,,,,,,,,,,,,,,,3,,,,,,,,,,,,,,,,,,,,,,,,,,,1338.295555,192,right,1.14665,redfox      ,7,1,1,1,1,1338.309565,1338.309565,1340.800755,0,37,37,37,1,192,6,7,satellite_dish,redfox      ,html/resources/sequences_IDs/A/10_satellite_dish.jpg,html/resources/sequences_IDs/B/01_redfox.jpg,10,1,4,2,1,1,8,1,0,45,,,,,,,,,,,,,,,,,,,,
,,,,,45,2020-07-04_14h47.55.317,retriever_ti,2020.1.3,Win32,60,Chrome,1920,1080,,,,,,,,,,,,,,,,,3,,,,,,,,,,,,,,,,,,,,,,,,,,,1341.892135,193,right,0.72961,calculator    ,8,9,3,1,3,1341.906055,1341.906055,1344.39797,0,38,38,38,1,193,5,8,parrot      ,calculator    ,html/resources/sequences_IDs/B/05_parrot.jpg,html/resources/sequences_IDs/A/09_calculator.jpg,5,9,2,1,4,2,4,7,0,45,,,,,,,,,,,,,,,,,,,,
,,,,,45,2020-07-04_14h47.55.317,retriever_ti,2020.1.3,Win32,60,Chrome,1920,1080,,,,,,,,,,,,,,,,,3,,,,,,,,,,,,,,,,,,,,,,,,,,,1345.00329,194,left,0.687835,redfox      ,7,1,3,1,3,1345.010275,1345.010275,1347.502065,0,39,39,39,1,194,7,4,redfox      ,camel         ,html/resources/sequences_IDs/B/01_redfox.jpg,html/resources/sequences_IDs/A/03_camel.jpg,1,3,1,1,1,1,1,3,0,45,,,,,,,,,,,,,,,,,,,,
,,,,,45,2020-07-04_14h47.55.317,retriever_ti,2020.1.3,Win32,60,Chrome,1920,1080,,,,,,,,,,,,,,,,,3,,,,,,,,,,,,,,,,,,,,,,,,,,,1348.106805,195,right,1.06841,satellite_dish,6,10,1,1,0,1348.120995,1348.120995,1350.612945,0,40,40,40,1,195,5,6,parrot      ,satellite_dish,html/resources/sequences_IDs/B/05_parrot.jpg,html/resources/sequences_IDs/A/10_satellite_dish.jpg,5,10,2,1,4,2,4,8,1,45,,,,,,,,,,,,,,,,,,,,
,,,,,45,2020-07-04_14h47.55.317,retriever_ti,2020.1.3,Win32,60,Chrome,1920,1080,,,,,,,,,,,,,,,,,3,,,,,,,,,,,,,,,,,,,,,,,,,,,1351.704245,196,left,0.866965,parrot      ,5,5,1,1,1,1351.71994,1351.71994,1354.210395,0,41,41,41,1,196,5,4,parrot      ,camel         ,html/resources/sequences_IDs/B/05_parrot.jpg,html/resources/sequences_IDs/A/03_camel.jpg,5,3,2,1,1,1,4,3,0,45,,,,,,,,,,,,,,,,,,,,
,,,,,45,2020-07-04_14h47.55.317,retriever_ti,2020.1.3,Win32,60,Chrome,1920,1080,,,,,,,,,,,,,,,,,3,,,,,,,,,,,,,,,,,,,,,,,,,,,1355.301465,197,right,0.840465,redfox      ,7,1,5,1,3,1355.308405,1355.308405,1357.800545,0,42,42,42,1,197,2,7,dress         ,redfox      ,html/resources/sequences_IDs/A/07_dress.jpg,html/resources/sequences_IDs/B/01_redfox.jpg,7,1,3,2,1,1,6,1,0,45,,,,,,,,,,,,,,,,,,,,
,,,,,45,2020-07-04_14h47.55.317,retriever_ti,2020.1.3,Win32,60,Chrome,1920,1080,,,,,,,,,,,,,,,,,3,,,,,,,,,,,,,,,,,,,,,,,,,,,1358.40487,198,right,1.40501,dolphin     ,3,2,1,1,1,1358.41898,1358.41898,1360.91162,0,43,43,43,1,198,2,3,dress         ,dolphin     ,html/resources/sequences_IDs/A/07_dress.jpg,html/resources/sequences_IDs/B/02_dolphin.jpg,7,2,3,2,1,1,6,2,0,45,,,,,,,,,,,,,,,,,,,,
,,,,,45,2020-07-04_14h47.55.317,retriever_ti,2020.1.3,Win32,60,Chrome,1920,1080,,,,,,,,,,,,,,,,,3,,,,,,,,,,,,,,,,,,,,,,,,,,,1362.003065,199,left,1.38343,dolphin     ,3,2,2,1,3,1362.00993,1362.00993,1364.502185,0,44,44,44,1,199,3,1,dolphin     ,gloves      ,html/resources/sequences_IDs/B/02_dolphin.jpg,html/resources/sequences_IDs/B/06_gloves.jpg,2,6,1,1,3,2,2,5,0,45,,,,,,,,,,,,,,,,,,,,
,,,,,45,2020-07-04_14h47.55.317,retriever_ti,2020.1.3,Win32,60,Chrome,1920,1080,,,,,,,,,,,,,,,,,3,,,,,,,,,,,,,,,,,,,,,,,,,,,1365.10862,200,right,1.945995,gloves      ,1,6,-3,0,3,1365.12249,1365.12249,1367.612905,0,45,45,45,1,200,4,1,camel         ,gloves      ,html/resources/sequences_IDs/A/03_camel.jpg,html/resources/sequences_IDs/B/06_gloves.jpg,3,6,1,1,3,2,3,5,0,45,,,,,,,,,,,,,,,,,,,,
,,,,,45,2020-07-04_14h47.55.317,retriever_ti,2020.1.3,Win32,60,Chrome,1920,1080,,,,,,,,,,,,,,,,,3,,,,,,,,,,,,,,,,,,,,,,,,,,,1368.21836,201,left,1.3885,dolphin     ,3,2,1,1,1,1368.2335,1368.2335,1370.72382,0,46,46,46,1,201,3,2,dolphin     ,dress         ,html/resources/sequences_IDs/B/02_dolphin.jpg,html/resources/sequences_IDs/A/07_dress.jpg,2,7,1,1,3,2,2,6,0,45,,,,,,,,,,,,,,,,,,,,
,,,,,45,2020-07-04_14h47.55.317,retriever_ti,2020.1.3,Win32,60,Chrome,1920,1080,,,,,,,,,,,,,,,,,3,,,,,,,,,,,,,,,,,,,,,,,,,,,1371.81546,202,right,1.17221,parrot      ,5,5,1,1,0,1371.82947,1371.82947,1374.3212,0,47,47,47,1,202,4,5,camel         ,parrot      ,html/resources/sequences_IDs/A/03_camel.jpg,html/resources/sequences_IDs/B/05_parrot.jpg,3,5,1,1,2,1,3,4,1,45,,,,,,,,,,,,,,,,,,,,
,,,,,45,2020-07-04_14h47.55.317,retriever_ti,2020.1.3,Win32,60,Chrome,1920,1080,,,,,,,,,,,,,,,,,3,,,,,,,,,,,,,,,,,,,,,,,,,,,1375.411705,203,left,1.5108,satellite_dish,6,10,3,1,3,1375.42567,1375.42567,1377.91837,0,48,48,48,1,203,6,3,satellite_dish,dolphin     ,html/resources/sequences_IDs/A/10_satellite_dish.jpg,html/resources/sequences_IDs/B/02_dolphin.jpg,10,2,4,2,1,1,8,2,0,45,,,,,,,,,,,,,,,,,,,,
,,,,,45,2020-07-04_14h47.55.317,retriever_ti,2020.1.3,Win32,60,Chrome,1920,1080,,,,,,,,,,,,,,,,,3,,,,,,,,,,,,,,,,,,,,,,,,,,,1378.523825,204,left,1.266395,satellite_dish,6,10,1,1,1,1378.531965,1378.531965,1381.0225,0,49,49,49,1,204,6,5,satellite_dish,parrot      ,html/resources/sequences_IDs/A/10_satellite_dish.jpg,html/resources/sequences_IDs/B/05_parrot.jpg,10,5,4,2,2,1,8,4,0,45,,,,,,,,,,,,,,,,,,,,
,,,,,45,2020-07-04_14h47.55.317,retriever_ti,2020.1.3,Win32,60,Chrome,1920,1080,,,,,,,,,,,,,,,,,3,,,,,,,,,,,,,,,,,,,,,,,,,,,1382.11406,205,left,0.64853,calculator    ,8,9,3,1,3,1382.12782,1382.12782,1384.61955,0,50,50,50,1,205,8,5,calculator    ,parrot      ,html/resources/sequences_IDs/A/09_calculator.jpg,html/resources/sequences_IDs/B/05_parrot.jpg,9,5,4,2,2,1,7,4,0,45,,,,,,,,,,,,,,,,,,,,
,,,,,45,2020-07-04_14h47.55.317,retriever_ti,2020.1.3,Win32,60,Chrome,1920,1080,,,,,,,,,,,,,,,,,3,,,,,,,,,,,,,,,,,,,,,,,,,,,1385.224395,206,left,1.84717,dolphin     ,3,2,1,1,1,1385.23144,1385.23144,1387.7238,0,51,51,51,1,206,3,2,dolphin     ,dress         ,html/resources/sequences_IDs/B/02_dolphin.jpg,html/resources/sequences_IDs/A/07_dress.jpg,2,7,1,1,3,2,2,6,0,45,,,,,,,,,,,,,,,,,,,,
,,,,,45,2020-07-04_14h47.55.317,retriever_ti,2020.1.3,Win32,60,Chrome,1920,1080,,,,,,,,,,,,,,,,,3,,,,,,,,,,,,,,,,,,,,,,,,,,,1388.81499,207,right,0.954945,calculator    ,8,9,1,1,1,1388.828195,1388.828195,1391.320955,0,52,52,52,1,207,7,8,redfox      ,calculator    ,html/resources/sequences_IDs/B/01_redfox.jpg,html/resources/sequences_IDs/A/09_calculator.jpg,1,9,1,1,4,2,1,7,0,45,,,,,,,,,,,,,,,,,,,,
,,,,,45,2020-07-04_14h47.55.317,retriever_ti,2020.1.3,Win32,60,Chrome,1920,1080,,,,,,,,,,,,,,,,,3,,,,,,,,,,,,,,,,,,,,,,,,,,,1392.411185,208,left,1.187605,dress         ,2,7,1,1,1,1392.41832,1392.41832,1394.911115,0,53,53,53,1,208,2,1,dress         ,gloves      ,html/resources/sequences_IDs/A/07_dress.jpg,html/resources/sequences_IDs/B/06_gloves.jpg,7,6,3,2,3,2,6,5,0,45,,,,,,,,,,,,,,,,,,,,
,,,,,45,2020-07-04_14h47.55.317,retriever_ti,2020.1.3,Win32,60,Chrome,1920,1080,,,,,,,,,,,,,,,,,3,,,,,,,,,,,,,,,,,,,,,,,,,,,1396.043365,209,right,0.694895,redfox      ,7,1,4,1,3,1396.05084,1396.05084,1398.543025,0,54,54,54,1,209,3,7,dolphin     ,redfox      ,html/resources/sequences_IDs/B/02_dolphin.jpg,html/resources/sequences_IDs/B/01_redfox.jpg,2,1,1,1,1,1,2,1,0,45,,,,,,,,,,,,,,,,,,,,
,,,,,45,2020-07-04_14h47.55.317,retriever_ti,2020.1.3,Win32,60,Chrome,1920,1080,,,,,,,,,,,,,,,,,3,,,,,,,,,,,,,,,,,,,,,,,,,,,1399.148335,210,right,0.86931,calculator    ,8,9,4,1,3,1399.155315,1399.155315,1401.6471,0,55,55,55,1,210,4,8,camel         ,calculator    ,html/resources/sequences_IDs/A/03_camel.jpg,html/resources/sequences_IDs/A/09_calculator.jpg,3,9,1,1,4,2,3,7,0,45,,,,,,,,,,,,,,,,,,,,
,,,,,45,2020-07-04_14h47.55.317,retriever_ti,2020.1.3,Win32,60,Chrome,1920,1080,,,,,,,,,,,,,,,,,3,,,,,,,,,,,,,,,,,,,,,,,,,,,1402.25173,211,left,1.038985,redfox      ,7,1,5,1,3,1402.259315,1402.259315,1404.75125,0,56,56,56,1,211,7,2,redfox      ,dress         ,html/resources/sequences_IDs/B/01_redfox.jpg,html/resources/sequences_IDs/A/07_dress.jpg,1,7,1,1,3,2,1,6,0,45,,,,,,,,,,,,,,,,,,,,
,,,,,45,2020-07-04_14h47.55.317,retriever_ti,2020.1.3,Win32,60,Chrome,1920,1080,,,,,,,,,,,,,,,,,3,,,,,,,,,,,,,,,,,,,,,,,,,,,1405.35655,212,left,1.21528,dress         ,2,7,-2,0,3,1405.37051,1405.37051,1407.862405,0,57,57,57,1,212,2,4,dress         ,camel         ,html/resources/sequences_IDs/A/07_dress.jpg,html/resources/sequences_IDs/A/03_camel.jpg,7,3,3,2,1,1,6,3,0,45,,,,,,,,,,,,,,,,,,,,
,,,,,45,2020-07-04_14h47.55.317,retriever_ti,2020.1.3,Win32,60,Chrome,1920,1080,,,,,,,,,,,,,,,,,3,,,,,,,,,,,,,,,,,,,,,,,,,,,1408.466895,213,left,0.678415,calculator    ,8,9,4,1,3,1408.481365,1408.481365,1410.97358,0,58,58,58,1,213,8,4,calculator    ,camel         ,html/resources/sequences_IDs/A/09_calculator.jpg,html/resources/sequences_IDs/A/03_camel.jpg,9,3,4,2,1,1,7,3,0,45,,,,,,,,,,,,,,,,,,,,
,,,,,45,2020-07-04_14h47.55.317,retriever_ti,2020.1.3,Win32,60,Chrome,1920,1080,,,,,,,,,,,,,,,,,3,,,,,,,,,,,,,,,,,,,,,,,,,,,1411.578785,214,right,1.050515,parrot      ,5,5,3,1,3,1411.5849,1411.5849,1414.077525,0,59,59,59,1,214,2,5,dress         ,parrot      ,html/resources/sequences_IDs/A/07_dress.jpg,html/resources/sequences_IDs/B/05_parrot.jpg,7,5,3,2,2,1,6,4,0,45,,,,,,,,,,,,,,,,,,,,
,,,,,45,2020-07-04_14h47.55.317,retriever_ti,2020.1.3,Win32,60,Chrome,1920,1080,,,,,,,,,,,,,,,,,3,,,,,,,,,,,,,,,,,,,,,,,,,,,1414.6821,215,right,0.99237,parrot      ,5,5,1,1,1,1414.689665,1414.689665,1417.18162,0,60,60,60,1,215,4,5,camel         ,parrot      ,html/resources/sequences_IDs/A/03_camel.jpg,html/resources/sequences_IDs/B/05_parrot.jpg,3,5,1,1,2,1,3,4,0,45,,,,,,,,,,,,,,,,,,,,
,,,,,45,2020-07-04_14h47.55.317,retriever_ti,2020.1.3,Win32,60,Chrome,1920,1080,,,,,,,,,,,,,,,,,3,,,,,,,,,,,,,,,,,,,,,,,,,,,1418.27276,216,left,0.69509,satellite_dish,6,10,4,1,3,1418.279915,1418.279915,1420.771735,0,61,61,61,1,216,6,2,satellite_dish,dress         ,html/resources/sequences_IDs/A/10_satellite_dish.jpg,html/resources/sequences_IDs/A/07_dress.jpg,10,7,4,2,3,2,8,6,0,45,,,,,,,,,,,,,,,,,,,,
,,,,,45,2020-07-04_14h47.55.317,retriever_ti,2020.1.3,Win32,60,Chrome,1920,1080,,,,,,,,,,,,,,,,,3,,,,,,,,,,,,,,,,,,,,,,,,,,,1421.377205,217,left,0.82072,redfox      ,7,1,1,1,0,1421.39105,1421.39105,1423.88291,0,62,62,62,1,217,7,6,redfox      ,satellite_dish,html/resources/sequences_IDs/B/01_redfox.jpg,html/resources/sequences_IDs/A/10_satellite_dish.jpg,1,10,1,1,4,2,1,8,1,45,,,,,,,,,,,,,,,,,,,,
,,,,,45,2020-07-04_14h47.55.317,retriever_ti,2020.1.3,Win32,60,Chrome,1920,1080,,,,,,,,,,,,,,,,,3,,,,,,,,,,,,,,,,,,,,,,,,,,,1424.973515,218,left,1.573495,parrot      ,5,5,2,1,3,1424.98049,1424.98049,1427.47315,0,63,63,63,1,218,5,3,parrot      ,dolphin     ,html/resources/sequences_IDs/B/05_parrot.jpg,html/resources/sequences_IDs/B/02_dolphin.jpg,5,2,2,1,1,1,4,2,0,45,,,,,,,,,,,,,,,,,,,,
,,,,,45,2020-07-04_14h47.55.317,retriever_ti,2020.1.3,Win32,60,Chrome,1920,1080,,,,,,,,,,,,,,,,,3,,,,,,,,,,,,,,,,,,,,,,,,,,,1428.077855,219,left,0.82039,calculator    ,8,9,2,1,3,1428.092475,1428.092475,1430.584225,0,64,64,64,1,219,8,6,calculator    ,satellite_dish,html/resources/sequences_IDs/A/09_calculator.jpg,html/resources/sequences_IDs/A/10_satellite_dish.jpg,9,10,4,2,4,2,7,8,0,45,,,,,,,,,,,,,,,,,,,,
,,,,,45,2020-07-04_14h47.55.317,retriever_ti,2020.1.3,Win32,60,Chrome,1920,1080,,,,,,,,,,,,,,,,,3,,,,,,,,,,,,,,,,,,,,,,,,,,,1431.19092,220,right,1.19561,satellite_dish,6,10,2,1,3,1431.197865,1431.197865,1433.68902,0,65,65,65,1,220,4,6,camel         ,satellite_dish,html/resources/sequences_IDs/A/03_camel.jpg,html/resources/sequences_IDs/A/10_satellite_dish.jpg,3,10,1,1,4,2,3,8,0,45,,,,,,,,,,,,,,,,,,,,
