instructionsLoop.thisRepN,instructionsLoop.thisTrialN,instructionsLoop.thisN,instructionsLoop.thisIndex,instructionsLoop.ran,participant,date,expName,psychopyVersion,OS,frameRate,browser,xResolution,yResolution,fix_onset,tprac,practiceKey.keys,practiceKey.rt,pracitem_chosen_name,acc_practice,P1_onsetPrac,P2_onsetPrac,onsetFeedbPrac,practiceTrials.thisRepN,practiceTrials.thisTrialN,practiceTrials.thisN,practiceTrials.thisIndex,practiceTrials.ran,P1,P2,Block,LocItem1,LocItem2,NameItem1,NameItem2,key_respAC_prac.keys,key_respAC_prac.corr,key_respAC_prac.rt,AC_acc,Attentions.thisRepN,Attentions.thisTrialN,Attentions.thisN,Attentions.thisIndex,Attentions.ran,Stim,Loc1,Loc2,Loc3,Loc4,CorrAns,keyDisturbed.keys,keyDisturbed.rt,repPractice.thisRepN,repPractice.thisTrialN,repPractice.thisN,repPractice.thisIndex,repPractice.ran,fixcross_onsetMain,trialNumber,key_resp.keys,item_chosen_name,item_chosen_value,item_chosen_ID,diff_chosen_minus_reject,key_resp.rt,acc_real,acc_feedback,P1_onset,P2_onset,feedb_onset,trials.thisRepN,trials.thisTrialN,trials.thisN,trials.thisIndex,trials.ran,Trial,ValueP1,ValueP2,P1name,P2name,P1Loc,P2Loc,P1id,P2id,Micro_categoryP1,Macro_categoryP1,Micro_categoryP2,Macro_categoryP2,ID_sequenceP1,ID_sequenceP2,InverseFb,pNumber,repBlocks.thisRepN,repBlocks.thisTrialN,repBlocks.thisN,repBlocks.thisIndex,repBlocks.ran,key_respAC.keys,key_respAC.corr,key_respAC.rt,trials_AC.thisRepN,trials_AC.thisTrialN,trials_AC.thisN,trials_AC.thisIndex,trials_AC.ran,Bonus,BonusLoop.thisRepN,BonusLoop.thisTrialN,BonusLoop.thisN,BonusLoop.thisIndex,BonusLoop.ran,comments
0,0,0,0,1,46,2020-07-04_15h47.08.301,retriever_ti,2020.1.3,Win32,60,Chrome,1366,768,,,,,,,,,,,,,,,,,,,,,,,,,,,,,,,,,,,,,,,,,,,,,,,,,,,,,,,,,,,,,,,,,,,,,,,,,,,,,,,,,,,,,,,,,,,,,,,,,,
1,0,1,0,1,46,2020-07-04_15h47.08.301,retriever_ti,2020.1.3,Win32,60,Chrome,1366,768,,,,,,,,,,,,,,,,,,,,,,,,,,,,,,,,,,,,,,,,,,,,,,,,,,,,,,,,,,,,,,,,,,,,,,,,,,,,,,,,,,,,,,,,,,,,,,,,,,
2,0,2,0,1,46,2020-07-04_15h47.08.301,retriever_ti,2020.1.3,Win32,60,Chrome,1366,768,,,,,,,,,,,,,,,,,,,,,,,,,,,,,,,,,,,,,,,,,,,,,,,,,,,,,,,,,,,,,,,,,,,,,,,,,,,,,,,,,,,,,,,,,,,,,,,,,,
3,0,3,0,1,46,2020-07-04_15h47.08.301,retriever_ti,2020.1.3,Win32,60,Chrome,1366,768,,,,,,,,,,,,,,,,,,,,,,,,,,,,,,,,,,,,,,,,,,,,,,,,,,,,,,,,,,,,,,,,,,,,,,,,,,,,,,,,,,,,,,,,,,,,,,,,,,
4,0,4,0,1,46,2020-07-04_15h47.08.301,retriever_ti,2020.1.3,Win32,60,Chrome,1366,768,,,,,,,,,,,,,,,,,,,,,,,,,,,,,,,,,,,,,,,,,,,,,,,,,,,,,,,,,,,,,,,,,,,,,,,,,,,,,,,,,,,,,,,,,,,,,,,,,,
5,0,5,0,1,46,2020-07-04_15h47.08.301,retriever_ti,2020.1.3,Win32,60,Chrome,1366,768,,,,,,,,,,,,,,,,,,,,,,,,,,,,,,,,,,,,,,,,,,,,,,,,,,,,,,,,,,,,,,,,,,,,,,,,,,,,,,,,,,,,,,,,,,,,,,,,,,
6,0,6,0,1,46,2020-07-04_15h47.08.301,retriever_ti,2020.1.3,Win32,60,Chrome,1366,768,,,,,,,,,,,,,,,,,,,,,,,,,,,,,,,,,,,,,,,,,,,,,,,,,,,,,,,,,,,,,,,,,,,,,,,,,,,,,,,,,,,,,,,,,,,,,,,,,,
7,0,7,0,1,46,2020-07-04_15h47.08.301,retriever_ti,2020.1.3,Win32,60,Chrome,1366,768,,,,,,,,,,,,,,,,,,,,,,,,,,,,,,,,,,,,,,,,,,,,,,,,,,,,,,,,,,,,,,,,,,,,,,,,,,,,,,,,,,,,,,,,,,,,,,,,,,
8,0,8,0,1,46,2020-07-04_15h47.08.301,retriever_ti,2020.1.3,Win32,60,Chrome,1366,768,,,,,,,,,,,,,,,,,,,,,,,,,,,,,,,,,,,,,,,,,,,,,,,,,,,,,,,,,,,,,,,,,,,,,,,,,,,,,,,,,,,,,,,,,,,,,,,,,,
9,0,9,0,1,46,2020-07-04_15h47.08.301,retriever_ti,2020.1.3,Win32,60,Chrome,1366,768,,,,,,,,,,,,,,,,,,,,,,,,,,,,,,,,,,,,,,,,,,,,,,,,,,,,,,,,,,,,,,,,,,,,,,,,,,,,,,,,,,,,,,,,,,,,,,,,,,
10,0,10,0,1,46,2020-07-04_15h47.08.301,retriever_ti,2020.1.3,Win32,60,Chrome,1366,768,,,,,,,,,,,,,,,,,,,,,,,,,,,,,,,,,,,,,,,,,,,,,,,,,,,,,,,,,,,,,,,,,,,,,,,,,,,,,,,,,,,,,,,,,,,,,,,,,,
11,0,11,0,1,46,2020-07-04_15h47.08.301,retriever_ti,2020.1.3,Win32,60,Chrome,1366,768,,,,,,,,,,,,,,,,,,,,,,,,,,,,,,,,,,,,,,,,,,,,,,,,,,,,,,,,,,,,,,,,,,,,,,,,,,,,,,,,,,,,,,,,,,,,,,,,,,
12,0,12,0,1,46,2020-07-04_15h47.08.301,retriever_ti,2020.1.3,Win32,60,Chrome,1366,768,,,,,,,,,,,,,,,,,,,,,,,,,,,,,,,,,,,,,,,,,,,,,,,,,,,,,,,,,,,,,,,,,,,,,,,,,,,,,,,,,,,,,,,,,,,,,,,,,,
13,0,13,0,1,46,2020-07-04_15h47.08.301,retriever_ti,2020.1.3,Win32,60,Chrome,1366,768,,,,,,,,,,,,,,,,,,,,,,,,,,,,,,,,,,,,,,,,,,,,,,,,,,,,,,,,,,,,,,,,,,,,,,,,,,,,,,,,,,,,,,,,,,,,,,,,,,
14,0,14,0,1,46,2020-07-04_15h47.08.301,retriever_ti,2020.1.3,Win32,60,Chrome,1366,768,,,,,,,,,,,,,,,,,,,,,,,,,,,,,,,,,,,,,,,,,,,,,,,,,,,,,,,,,,,,,,,,,,,,,,,,,,,,,,,,,,,,,,,,,,,,,,,,,,
15,0,15,0,1,46,2020-07-04_15h47.08.301,retriever_ti,2020.1.3,Win32,60,Chrome,1366,768,,,,,,,,,,,,,,,,,,,,,,,,,,,,,,,,,,,,,,,,,,,,,,,,,,,,,,,,,,,,,,,,,,,,,,,,,,,,,,,,,,,,,,,,,,,,,,,,,,
16,0,16,0,1,46,2020-07-04_15h47.08.301,retriever_ti,2020.1.3,Win32,60,Chrome,1366,768,,,,,,,,,,,,,,,,,,,,,,,,,,,,,,,,,,,,,,,,,,,,,,,,,,,,,,,,,,,,,,,,,,,,,,,,,,,,,,,,,,,,,,,,,,,,,,,,,,
17,0,17,0,1,46,2020-07-04_15h47.08.301,retriever_ti,2020.1.3,Win32,60,Chrome,1366,768,,,,,,,,,,,,,,,,,,,,,,,,,,,,,,,,,,,,,,,,,,,,,,,,,,,,,,,,,,,,,,,,,,,,,,,,,,,,,,,,,,,,,,,,,,,,,,,,,,
18,0,18,0,1,46,2020-07-04_15h47.08.301,retriever_ti,2020.1.3,Win32,60,Chrome,1366,768,,,,,,,,,,,,,,,,,,,,,,,,,,,,,,,,,,,,,,,,,,,,,,,,,,,,,,,,,,,,,,,,,,,,,,,,,,,,,,,,,,,,,,,,,,,,,,,,,,
,,,,,46,2020-07-04_15h47.08.301,retriever_ti,2020.1.3,Win32,60,Chrome,1366,768,478.61443,1,right,1.290349999,canary,1,478.67598,478.67598,481.175895,0,0,0,0,1,2,5,1,html/resources/stimuli_practice_decision/04_beetle.jpg,html/resources/stimuli_practice_decision/02_canary.jpg,beetle,canary,,,,,,,,,,,,,,,,,,,,,,,,,,,,,,,,,,,,,,,,,,,,,,,,,,,,,,,,,,,,,,,,,,,,,,,,,,,,,
,,,,,46,2020-07-04_15h47.08.301,retriever_ti,2020.1.3,Win32,60,Chrome,1366,768,481.76791,2,left,1.65778,rabbit,1,481.79534,481.79534,484.293105,0,1,1,1,1,4,3,1,html/resources/stimuli_practice_decision/01_rabbit.jpg,html/resources/stimuli_practice_decision/07_sock.jpg,rabbit,sock,,,,,,,,,,,,,,,,,,,,,,,,,,,,,,,,,,,,,,,,,,,,,,,,,,,,,,,,,,,,,,,,,,,,,,,,,,,,,
,,,,,46,2020-07-04_15h47.08.301,retriever_ti,2020.1.3,Win32,60,Chrome,1366,768,485.29327,3,left,1.898689999,pullover,1,485.31212,485.31212,487.810325,0,2,2,2,1,6,2,1,html/resources/stimuli_practice_decision/06_pullover.jpg,html/resources/stimuli_practice_decision/04_beetle.jpg,pullover,beetle,,,,,,,,,,,,,,,,,,,,,,,,,,,,,,,,,,,,,,,,,,,,,,,,,,,,,,,,,,,,,,,,,,,,,,,,,,,,,
,,,,,46,2020-07-04_15h47.08.301,retriever_ti,2020.1.3,Win32,60,Chrome,1366,768,488.327645,4,right,1.56858,handmixer,0,488.34567,488.34567,490.84489,0,3,3,3,1,7,1,1,html/resources/stimuli_practice_decision/05_glasses.jpg,html/resources/stimuli_practice_decision/08_handmixer.jpg,glasses,handmixer,,,,,,,,,,,,,,,,,,,,,,,,,,,,,,,,,,,,,,,,,,,,,,,,,,,,,,,,,,,,,,,,,,,,,,,,,,,,,
,,,,,46,2020-07-04_15h47.08.301,retriever_ti,2020.1.3,Win32,60,Chrome,1366,768,491.36307,5,NaN,NaN,No_response,2,491.396405,491.396405,493.89567,0,4,4,4,1,7,6,1,html/resources/stimuli_practice_decision/05_glasses.jpg,html/resources/stimuli_practice_decision/06_pullover.jpg,glasses,pullover,,,,,,,,,,,,,,,,,,,,,,,,,,,,,,,,,,,,,,,,,,,,,,,,,,,,,,,,,,,,,,,,,,,,,,,,,,,,,
,,,,,46,2020-07-04_15h47.08.301,retriever_ti,2020.1.3,Win32,60,Chrome,1366,768,494.412155,6,left,0.94511,rabbit,0,494.429805,494.429805,496.930765,0,5,5,5,1,4,7,1,html/resources/stimuli_practice_decision/01_rabbit.jpg,html/resources/stimuli_practice_decision/05_glasses.jpg,rabbit,glasses,,,,,,,,,,,,,,,,,,,,,,,,,,,,,,,,,,,,,,,,,,,,,,,,,,,,,,,,,,,,,,,,,,,,,,,,,,,,,
,,,,,46,2020-07-04_15h47.08.301,retriever_ti,2020.1.3,Win32,60,Chrome,1366,768,497.433995,7,left,0.67725,handmixer,0,497.468965,497.468965,499.96901,0,6,6,6,1,1,2,1,html/resources/stimuli_practice_decision/08_handmixer.jpg,html/resources/stimuli_practice_decision/04_beetle.jpg,handmixer,beetle,,,,,,,,,,,,,,,,,,,,,,,,,,,,,,,,,,,,,,,,,,,,,,,,,,,,,,,,,,,,,,,,,,,,,,,,,,,,,
,,,,,46,2020-07-04_15h47.08.301,retriever_ti,2020.1.3,Win32,60,Chrome,1366,768,500.968985,8,left,0.629629999,rabbit,1,500.98799,500.98799,503.48737,0,7,7,7,1,4,3,1,html/resources/stimuli_practice_decision/01_rabbit.jpg,html/resources/stimuli_practice_decision/07_sock.jpg,rabbit,sock,,,,,,,,,,,,,,,,,,,,,,,,,,,,,,,,,,,,,,,,,,,,,,,,,,,,,,,,,,,,,,,,,,,,,,,,,,,,,
,,,,,46,2020-07-04_15h47.08.301,retriever_ti,2020.1.3,Win32,60,Chrome,1366,768,,,,,,,,,,,,,,,,,,,,,,up,1,7.28826,1,0,0,0,0,1,html/resources/sequences_IDs/circle.png,circle ↑,square →,triangle ↓,← star ,up,,,,,,,,,,,,,,,,,,,,,,,,,,,,,,,,,,,,,,,,,,,,,,,,,,,,,,,,,,,,,,
,,,,,46,2020-07-04_15h47.08.301,retriever_ti,2020.1.3,Win32,60,Chrome,1366,768,,,,,,,,,,,,,,,,,,,,,,down,1,2.822889999,1,0,1,1,1,1,html/resources/sequences_IDs/star.png,square ↑,circle →,star ↓,← triangle,down,,,,,,,,,,,,,,,,,,,,,,,,,,,,,,,,,,,,,,,,,,,,,,,,,,,,,,,,,,,,,,
,,,,,46,2020-07-04_15h47.08.301,retriever_ti,2020.1.3,Win32,60,Chrome,1366,768,,,,,,,,,,,,,,,,,,,,,,down,1,3.85114,1,0,2,2,3,1,html/resources/sequences_IDs/triangle.png,star ↑,square →,triangle ↓,← circle,down,,,,,,,,,,,,,,,,,,,,,,,,,,,,,,,,,,,,,,,,,,,,,,,,,,,,,,,,,,,,,,
,,,,,46,2020-07-04_15h47.08.301,retriever_ti,2020.1.3,Win32,60,Chrome,1366,768,,,,,,,,,,,,,,,,,,,,,,left,1,5.088854999,1,0,3,3,2,1,html/resources/sequences_IDs/square1.png,star ↑,triangle →,circle ↓,← square,left,,,,,,,,,,,,,,,,,,,,,,,,,,,,,,,,,,,,,,,,,,,,,,,,,,,,,,,,,,,,,,
,,,,,46,2020-07-04_15h47.08.301,retriever_ti,2020.1.3,Win32,60,Chrome,1366,768,,,,,,,,,,,,,,,,,,,,,,,,,,,,,,,,,,,,,0,10.39279,0,0,0,0,1,,,,,,,,,,,,,,,,,,,,,,,,,,,,,,,,,,,,,,,,,,,,,,,,,,,,,,,
,,,,,46,2020-07-04_15h47.08.301,retriever_ti,2020.1.3,Win32,60,Chrome,1366,768,539.740415,9,left,0.69826,pullover,0,539.761735,539.761735,542.261735,0,0,0,0,1,6,7,1,html/resources/stimuli_practice_decision/06_pullover.jpg,html/resources/stimuli_practice_decision/05_glasses.jpg,pullover,glasses,,,,,,,,,,,,,,,,,,,,,,,,,,,,,,,,,,,,,,,,,,,,,,,,,,,,,,,,,,,,,,,,,,,,,,,,,,,,,
,,,,,46,2020-07-04_15h47.08.301,retriever_ti,2020.1.3,Win32,60,Chrome,1366,768,543.26453,10,NaN,NaN,No_response,2,543.2983,543.2983,545.796275,0,1,1,1,1,6,2,1,html/resources/stimuli_practice_decision/06_pullover.jpg,html/resources/stimuli_practice_decision/04_beetle.jpg,pullover,beetle,,,,,,,,,,,,,,,,,,,,,,,,,,,,,,,,,,,,,,,,,,,,,,,,,,,,,,,,,,,,,,,,,,,,,,,,,,,,,
,,,,,46,2020-07-04_15h47.08.301,retriever_ti,2020.1.3,Win32,60,Chrome,1366,768,546.800335,11,right,0.677130001,pullover,1,546.832305,546.832305,549.33367,0,2,2,2,1,5,6,1,html/resources/stimuli_practice_decision/02_canary.jpg,html/resources/stimuli_practice_decision/06_pullover.jpg,canary,pullover,,,,,,,,,,,,,,,,,,,,,,,,,,,,,,,,,,,,,,,,,,,,,,,,,,,,,,,,,,,,,,,,,,,,,,,,,,,,,
,,,,,46,2020-07-04_15h47.08.301,retriever_ti,2020.1.3,Win32,60,Chrome,1366,768,550.334795,12,right,0.623035,glasses,0,550.353955,550.353955,552.849185,0,3,3,3,1,8,7,1,html/resources/stimuli_practice_decision/03_squirrel.jpg,html/resources/stimuli_practice_decision/05_glasses.jpg,squirrel,glasses,,,,,,,,,,,,,,,,,,,,,,,,,,,,,,,,,,,,,,,,,,,,,,,,,,,,,,,,,,,,,,,,,,,,,,,,,,,,,
,,,,,46,2020-07-04_15h47.08.301,retriever_ti,2020.1.3,Win32,60,Chrome,1366,768,553.85625,13,right,0.970205001,sock,0,553.882845,553.882845,556.38085,0,4,4,4,1,5,3,1,html/resources/stimuli_practice_decision/02_canary.jpg,html/resources/stimuli_practice_decision/07_sock.jpg,canary,sock,,,,,,,,,,,,,,,,,,,,,,,,,,,,,,,,,,,,,,,,,,,,,,,,,,,,,,,,,,,,,,,,,,,,,,,,,,,,,
,,,,,46,2020-07-04_15h47.08.301,retriever_ti,2020.1.3,Win32,60,Chrome,1366,768,556.883855,14,left,1.12508,glasses,0,556.90215,556.90215,559.40185,0,5,5,5,1,7,8,1,html/resources/stimuli_practice_decision/05_glasses.jpg,html/resources/stimuli_practice_decision/03_squirrel.jpg,glasses,squirrel,,,,,,,,,,,,,,,,,,,,,,,,,,,,,,,,,,,,,,,,,,,,,,,,,,,,,,,,,,,,,,,,,,,,,,,,,,,,,
,,,,,46,2020-07-04_15h47.08.301,retriever_ti,2020.1.3,Win32,60,Chrome,1366,768,560.41468,15,left,1.003275,canary,1,560.47044,560.47044,562.9637,0,6,6,6,1,5,4,1,html/resources/stimuli_practice_decision/02_canary.jpg,html/resources/stimuli_practice_decision/01_rabbit.jpg,canary,rabbit,,,,,,,,,,,,,,,,,,,,,,,,,,,,,,,,,,,,,,,,,,,,,,,,,,,,,,,,,,,,,,,,,,,,,,,,,,,,,
,,,,,46,2020-07-04_15h47.08.301,retriever_ti,2020.1.3,Win32,60,Chrome,1366,768,563.955305,16,left,0.695265,canary,1,563.987805,563.987805,566.486055,0,7,7,7,1,5,3,1,html/resources/stimuli_practice_decision/02_canary.jpg,html/resources/stimuli_practice_decision/07_sock.jpg,canary,sock,,,,,,,,,,,,,,,,,,,,,,,,,,,,,,,,,,,,,,,,,,,,,,,,,,,,,,,,,,,,,,,,,,,,,,,,,,,,,
,,,,,46,2020-07-04_15h47.08.301,retriever_ti,2020.1.3,Win32,60,Chrome,1366,768,,,,,,,,,,,,,,,,,,,,,,up,1,3.91211,1,0,0,0,0,1,html/resources/sequences_IDs/circle.png,circle ↑,square →,triangle ↓,← star ,up,,,,,,,,,,,,,,,,,,,,,,,,,,,,,,,,,,,,,,,,,,,,,,,,,,,,,,,,,,,,,,
,,,,,46,2020-07-04_15h47.08.301,retriever_ti,2020.1.3,Win32,60,Chrome,1366,768,,,,,,,,,,,,,,,,,,,,,,down,1,1.464895001,1,0,1,1,1,1,html/resources/sequences_IDs/star.png,square ↑,circle →,star ↓,← triangle,down,,,,,,,,,,,,,,,,,,,,,,,,,,,,,,,,,,,,,,,,,,,,,,,,,,,,,,,,,,,,,,
,,,,,46,2020-07-04_15h47.08.301,retriever_ti,2020.1.3,Win32,60,Chrome,1366,768,,,,,,,,,,,,,,,,,,,,,,down,1,1.87125,1,0,2,2,3,1,html/resources/sequences_IDs/triangle.png,star ↑,square →,triangle ↓,← circle,down,,,,,,,,,,,,,,,,,,,,,,,,,,,,,,,,,,,,,,,,,,,,,,,,,,,,,,,,,,,,,,
,,,,,46,2020-07-04_15h47.08.301,retriever_ti,2020.1.3,Win32,60,Chrome,1366,768,,,,,,,,,,,,,,,,,,,,,,left,1,2.869440001,1,0,3,3,2,1,html/resources/sequences_IDs/square1.png,star ↑,triangle →,circle ↓,← square,left,,,,,,,,,,,,,,,,,,,,,,,,,,,,,,,,,,,,,,,,,,,,,,,,,,,,,,,,,,,,,,
,,,,,46,2020-07-04_15h47.08.301,retriever_ti,2020.1.3,Win32,60,Chrome,1366,768,,,,,,,,,,,,,,,,,,,,,,,,,,,,,,,,,,,,,0,2.31267,1,0,1,0,1,,,,,,,,,,,,,,,,,,,,,,,,,,,,,,,,,,,,,,,,,,,,,,,,,,,,,,,
,,,,,46,2020-07-04_15h47.08.301,retriever_ti,2020.1.3,Win32,60,Chrome,1366,768,,,,,,,,,,,,,,,,,1,,,,,,,,,,,,,,,,,,,,,,,,,,,589.819325,1,NaN,No_response,NaN,NaN,NaN,NaN,2,2,589.84627,589.84627,593.00138,0,0,0,0,1,1,1,2,parrot      ,scarf         ,html/resources/sequences_IDs/B/05_parrot.jpg,html/resources/sequences_IDs/A/06_scarf.jpg,5,6,2,1,3,2,4,5,0,46,,,,,,,,,,,,,,,,,,,,
,,,,,46,2020-07-04_15h47.08.301,retriever_ti,2020.1.3,Win32,60,Chrome,1366,768,,,,,,,,,,,,,,,,,1,,,,,,,,,,,,,,,,,,,,,,,,,,,594.096395,2,left,sport_tshirt,5,7,4,0.30614,1,3,594.114005,594.114005,596.61444,0,1,1,1,1,2,5,1,sport_tshirt,parrot      ,html/resources/sequences_IDs/B/07_sport_tshirt.jpg,html/resources/sequences_IDs/B/05_parrot.jpg,7,5,3,2,2,1,6,4,0,46,,,,,,,,,,,,,,,,,,,,
,,,,,46,2020-07-04_15h47.08.301,retriever_ti,2020.1.3,Win32,60,Chrome,1366,768,,,,,,,,,,,,,,,,,1,,,,,,,,,,,,,,,,,,,,,,,,,,,597.34694,3,left,parrot      ,1,5,-6,0.52134,0,3,597.415235,597.415235,599.914145,0,2,2,2,1,3,1,7,parrot      ,phone       ,html/resources/sequences_IDs/B/05_parrot.jpg,html/resources/sequences_IDs/B/09_phone.jpg,5,9,2,1,4,2,4,7,0,46,,,,,,,,,,,,,,,,,,,,
,,,,,46,2020-07-04_15h47.08.301,retriever_ti,2020.1.3,Win32,60,Chrome,1366,768,,,,,,,,,,,,,,,,,1,,,,,,,,,,,,,,,,,,,,,,,,,,,600.51839,4,left,satellite_dish,4,10,-4,0.95818,0,3,600.53555,600.53555,603.031915,0,3,3,3,1,4,4,8,satellite_dish,camel         ,html/resources/sequences_IDs/A/10_satellite_dish.jpg,html/resources/sequences_IDs/A/03_camel.jpg,10,3,4,2,1,1,8,2,0,46,,,,,,,,,,,,,,,,,,,,
,,,,,46,2020-07-04_15h47.08.301,retriever_ti,2020.1.3,Win32,60,Chrome,1366,768,,,,,,,,,,,,,,,,,1,,,,,,,,,,,,,,,,,,,,,,,,,,,603.64931,5,right,satellite_dish,4,10,-4,1.14888,0,3,603.66747,603.66747,606.17432,0,4,4,4,1,5,8,4,camel         ,satellite_dish,html/resources/sequences_IDs/A/03_camel.jpg,html/resources/sequences_IDs/A/10_satellite_dish.jpg,3,10,1,1,4,2,2,8,0,46,,,,,,,,,,,,,,,,,,,,
,,,,,46,2020-07-04_15h47.08.301,retriever_ti,2020.1.3,Win32,60,Chrome,1366,768,,,,,,,,,,,,,,,,,1,,,,,,,,,,,,,,,,,,,,,,,,,,,606.783795,6,left,phone       ,7,9,5,0.884045,1,3,606.800915,606.800915,609.300615,0,5,5,5,1,6,7,2,phone       ,scarf         ,html/resources/sequences_IDs/B/09_phone.jpg,html/resources/sequences_IDs/A/06_scarf.jpg,9,6,4,2,3,2,7,5,0,46,,,,,,,,,,,,,,,,,,,,
,,,,,46,2020-07-04_15h47.08.301,retriever_ti,2020.1.3,Win32,60,Chrome,1366,768,,,,,,,,,,,,,,,,,1,,,,,,,,,,,,,,,,,,,,,,,,,,,609.902055,7,left,sport_tshirt,5,7,-1,0.886735,0,0,609.93801,609.93801,612.436275,0,6,6,6,1,7,5,6,sport_tshirt,clownfish     ,html/resources/sequences_IDs/B/07_sport_tshirt.jpg,html/resources/sequences_IDs/A/04_clownfish.jpg,7,4,3,2,2,1,6,3,0,46,,,,,,,,,,,,,,,,,,,,
,,,,,46,2020-07-04_15h47.08.301,retriever_ti,2020.1.3,Win32,60,Chrome,1366,768,,,,,,,,,,,,,,,,,1,,,,,,,,,,,,,,,,,,,,,,,,,,,613.53674,8,left,clownfish     ,6,4,-2,1.19224,0,3,613.569775,613.569775,616.19242,0,7,7,7,1,8,6,8,clownfish     ,camel         ,html/resources/sequences_IDs/A/04_clownfish.jpg,html/resources/sequences_IDs/A/03_camel.jpg,4,3,2,1,1,1,3,2,0,46,,,,,,,,,,,,,,,,,,,,
,,,,,46,2020-07-04_15h47.08.301,retriever_ti,2020.1.3,Win32,60,Chrome,1366,768,,,,,,,,,,,,,,,,,1,,,,,,,,,,,,,,,,,,,,,,,,,,,616.824395,9,NaN,No_response,NaN,NaN,NaN,NaN,2,2,616.862435,616.862435,619.49354,0,8,8,8,1,9,3,4,redfox      ,satellite_dish,html/resources/sequences_IDs/B/01_redfox.jpg,html/resources/sequences_IDs/A/10_satellite_dish.jpg,1,10,1,1,4,2,1,8,0,46,,,,,,,,,,,,,,,,,,,,
,,,,,46,2020-07-04_15h47.08.301,retriever_ti,2020.1.3,Win32,60,Chrome,1366,768,,,,,,,,,,,,,,,,,1,,,,,,,,,,,,,,,,,,,,,,,,,,,620.58877,10,left,redfox      ,3,1,2,0.694294999,1,3,620.62542,620.62542,623.138935,0,9,9,9,1,10,3,1,redfox      ,parrot      ,html/resources/sequences_IDs/B/01_redfox.jpg,html/resources/sequences_IDs/B/05_parrot.jpg,1,5,1,1,2,1,1,4,0,46,,,,,,,,,,,,,,,,,,,,
,,,,,46,2020-07-04_15h47.08.301,retriever_ti,2020.1.3,Win32,60,Chrome,1366,768,,,,,,,,,,,,,,,,,1,,,,,,,,,,,,,,,,,,,,,,,,,,,623.75739,11,right,camel         ,8,3,1,0.347725,1,1,623.79454,623.79454,626.28256,0,10,10,10,1,11,7,8,phone       ,camel         ,html/resources/sequences_IDs/B/09_phone.jpg,html/resources/sequences_IDs/A/03_camel.jpg,9,3,4,2,1,1,7,2,0,46,,,,,,,,,,,,,,,,,,,,
,,,,,46,2020-07-04_15h47.08.301,retriever_ti,2020.1.3,Win32,60,Chrome,1366,768,,,,,,,,,,,,,,,,,1,,,,,,,,,,,,,,,,,,,,,,,,,,,627.37529,12,left,scarf         ,2,6,1,0.42423,1,1,627.392505,627.392505,629.89461,0,11,11,11,1,12,2,1,scarf         ,parrot      ,html/resources/sequences_IDs/A/06_scarf.jpg,html/resources/sequences_IDs/B/05_parrot.jpg,6,5,3,2,2,1,5,4,0,46,,,,,,,,,,,,,,,,,,,,
,,,,,46,2020-07-04_15h47.08.301,retriever_ti,2020.1.3,Win32,60,Chrome,1366,768,,,,,,,,,,,,,,,,,1,,,,,,,,,,,,,,,,,,,,,,,,,,,630.992955,13,left,satellite_dish,4,10,-1,0.717915,0,1,631.02898,631.02898,633.52517,0,12,12,12,1,13,4,5,satellite_dish,sport_tshirt,html/resources/sequences_IDs/A/10_satellite_dish.jpg,html/resources/sequences_IDs/B/07_sport_tshirt.jpg,10,7,4,2,3,2,8,6,1,46,,,,,,,,,,,,,,,,,,,,
,,,,,46,2020-07-04_15h47.08.301,retriever_ti,2020.1.3,Win32,60,Chrome,1366,768,,,,,,,,,,,,,,,,,1,,,,,,,,,,,,,,,,,,,,,,,,,,,634.627295,14,right,clownfish     ,6,4,5,0.718935001,1,3,634.66042,634.66042,637.159825,0,13,13,13,1,14,1,6,parrot      ,clownfish     ,html/resources/sequences_IDs/B/05_parrot.jpg,html/resources/sequences_IDs/A/04_clownfish.jpg,5,4,2,1,2,1,4,3,0,46,,,,,,,,,,,,,,,,,,,,
,,,,,46,2020-07-04_15h47.08.301,retriever_ti,2020.1.3,Win32,60,Chrome,1366,768,,,,,,,,,,,,,,,,,1,,,,,,,,,,,,,,,,,,,,,,,,,,,637.76261,15,right,camel         ,8,3,5,0.905315,1,3,637.77937,637.77937,640.27752,0,14,14,14,1,15,3,8,redfox      ,camel         ,html/resources/sequences_IDs/B/01_redfox.jpg,html/resources/sequences_IDs/A/03_camel.jpg,1,3,1,1,1,1,1,2,0,46,,,,,,,,,,,,,,,,,,,,
,,,,,46,2020-07-04_15h47.08.301,retriever_ti,2020.1.3,Win32,60,Chrome,1366,768,,,,,,,,,,,,,,,,,1,,,,,,,,,,,,,,,,,,,,,,,,,,,640.89508,16,right,clownfish     ,6,4,1,0.65634,1,0,640.912575,640.912575,643.41192,0,15,15,15,1,16,5,6,sport_tshirt,clownfish     ,html/resources/sequences_IDs/B/07_sport_tshirt.jpg,html/resources/sequences_IDs/A/04_clownfish.jpg,7,4,3,2,2,1,6,3,1,46,,,,,,,,,,,,,,,,,,,,
,,,,,46,2020-07-04_15h47.08.301,retriever_ti,2020.1.3,Win32,60,Chrome,1366,768,,,,,,,,,,,,,,,,,1,,,,,,,,,,,,,,,,,,,,,,,,,,,644.51614,17,left,satellite_dish,4,10,1,0.6924,1,1,644.54802,644.54802,647.04629,0,16,16,16,1,17,4,3,satellite_dish,redfox      ,html/resources/sequences_IDs/A/10_satellite_dish.jpg,html/resources/sequences_IDs/B/01_redfox.jpg,10,1,4,2,1,1,8,1,0,46,,,,,,,,,,,,,,,,,,,,
,,,,,46,2020-07-04_15h47.08.301,retriever_ti,2020.1.3,Win32,60,Chrome,1366,768,,,,,,,,,,,,,,,,,1,,,,,,,,,,,,,,,,,,,,,,,,,,,648.14785,18,right,satellite_dish,4,10,-1,0.563255001,0,0,648.181525,648.181525,650.68107,0,17,17,17,1,18,5,4,sport_tshirt,satellite_dish,html/resources/sequences_IDs/B/07_sport_tshirt.jpg,html/resources/sequences_IDs/A/10_satellite_dish.jpg,7,10,3,2,4,2,6,8,0,46,,,,,,,,,,,,,,,,,,,,
,,,,,46,2020-07-04_15h47.08.301,retriever_ti,2020.1.3,Win32,60,Chrome,1366,768,,,,,,,,,,,,,,,,,1,,,,,,,,,,,,,,,,,,,,,,,,,,,651.782475,19,NaN,No_response,NaN,NaN,NaN,NaN,2,2,651.800155,651.800155,654.28984,0,18,18,18,1,19,3,2,redfox      ,scarf         ,html/resources/sequences_IDs/B/01_redfox.jpg,html/resources/sequences_IDs/A/06_scarf.jpg,1,6,1,1,3,2,1,5,0,46,,,,,,,,,,,,,,,,,,,,
,,,,,46,2020-07-04_15h47.08.301,retriever_ti,2020.1.3,Win32,60,Chrome,1366,768,,,,,,,,,,,,,,,,,1,,,,,,,,,,,,,,,,,,,,,,,,,,,655.38343,20,right,clownfish     ,6,4,-1,0.46974,0,1,655.41834,655.41834,657.91728,0,19,19,19,1,20,7,6,phone       ,clownfish     ,html/resources/sequences_IDs/B/09_phone.jpg,html/resources/sequences_IDs/A/04_clownfish.jpg,9,4,4,2,2,1,7,3,1,46,,,,,,,,,,,,,,,,,,,,
,,,,,46,2020-07-04_15h47.08.301,retriever_ti,2020.1.3,Win32,60,Chrome,1366,768,,,,,,,,,,,,,,,,,1,,,,,,,,,,,,,,,,,,,,,,,,,,,659.01888,21,left,phone       ,7,9,-1,0.745475,0,1,659.054045,659.054045,661.543765,0,20,20,20,1,21,7,8,phone       ,camel         ,html/resources/sequences_IDs/B/09_phone.jpg,html/resources/sequences_IDs/A/03_camel.jpg,9,3,4,2,1,1,7,2,1,46,,,,,,,,,,,,,,,,,,,,
,,,,,46,2020-07-04_15h47.08.301,retriever_ti,2020.1.3,Win32,60,Chrome,1366,768,,,,,,,,,,,,,,,,,1,,,,,,,,,,,,,,,,,,,,,,,,,,,662.63967,22,right,sport_tshirt,5,7,1,0.766574999,1,1,662.658045,662.658045,665.152975,0,21,21,21,1,22,4,5,satellite_dish,sport_tshirt,html/resources/sequences_IDs/A/10_satellite_dish.jpg,html/resources/sequences_IDs/B/07_sport_tshirt.jpg,10,7,4,2,3,2,8,6,0,46,,,,,,,,,,,,,,,,,,,,
,,,,,46,2020-07-04_15h47.08.301,retriever_ti,2020.1.3,Win32,60,Chrome,1366,768,,,,,,,,,,,,,,,,,1,,,,,,,,,,,,,,,,,,,,,,,,,,,666.27544,23,left,redfox      ,3,1,-1,1.026845,0,0,666.307105,666.307105,668.804785,0,22,22,22,1,23,3,4,redfox      ,satellite_dish,html/resources/sequences_IDs/B/01_redfox.jpg,html/resources/sequences_IDs/A/10_satellite_dish.jpg,1,10,1,1,4,2,1,8,0,46,,,,,,,,,,,,,,,,,,,,
,,,,,46,2020-07-04_15h47.08.301,retriever_ti,2020.1.3,Win32,60,Chrome,1366,768,,,,,,,,,,,,,,,,,1,,,,,,,,,,,,,,,,,,,,,,,,,,,669.907145,24,right,sport_tshirt,5,7,4,1.008415,1,3,669.941115,669.941115,672.438675,0,23,23,23,1,24,1,5,parrot      ,sport_tshirt,html/resources/sequences_IDs/B/05_parrot.jpg,html/resources/sequences_IDs/B/07_sport_tshirt.jpg,5,7,2,1,3,2,4,6,0,46,,,,,,,,,,,,,,,,,,,,
,,,,,46,2020-07-04_15h47.08.301,retriever_ti,2020.1.3,Win32,60,Chrome,1366,768,,,,,,,,,,,,,,,,,1,,,,,,,,,,,,,,,,,,,,,,,,,,,673.041895,25,left,phone       ,7,9,-1,0.79646,0,0,673.07492,673.07492,675.567135,0,24,24,24,1,25,7,8,phone       ,camel         ,html/resources/sequences_IDs/B/09_phone.jpg,html/resources/sequences_IDs/A/03_camel.jpg,9,3,4,2,1,1,7,2,0,46,,,,,,,,,,,,,,,,,,,,
,,,,,46,2020-07-04_15h47.08.301,retriever_ti,2020.1.3,Win32,60,Chrome,1366,768,,,,,,,,,,,,,,,,,1,,,,,,,,,,,,,,,,,,,,,,,,,,,676.664045,26,right,sport_tshirt,5,7,-3,0.706685,0,3,676.68669,676.68669,679.17425,0,25,25,25,1,26,8,5,camel         ,sport_tshirt,html/resources/sequences_IDs/A/03_camel.jpg,html/resources/sequences_IDs/B/07_sport_tshirt.jpg,3,7,1,1,3,2,2,6,0,46,,,,,,,,,,,,,,,,,,,,
,,,,,46,2020-07-04_15h47.08.301,retriever_ti,2020.1.3,Win32,60,Chrome,1366,768,,,,,,,,,,,,,,,,,1,,,,,,,,,,,,,,,,,,,,,,,,,,,679.775485,27,right,clownfish     ,6,4,4,0.70258,1,3,679.812725,679.812725,682.29202,0,26,26,26,1,27,2,6,scarf         ,clownfish     ,html/resources/sequences_IDs/A/06_scarf.jpg,html/resources/sequences_IDs/A/04_clownfish.jpg,6,4,3,2,2,1,5,3,0,46,,,,,,,,,,,,,,,,,,,,
,,,,,46,2020-07-04_15h47.08.301,retriever_ti,2020.1.3,Win32,60,Chrome,1366,768,,,,,,,,,,,,,,,,,1,,,,,,,,,,,,,,,,,,,,,,,,,,,682.910265,28,right,redfox      ,3,1,1,1.10689,1,1,682.94358,682.94358,685.447175,0,27,27,27,1,28,2,3,scarf         ,redfox      ,html/resources/sequences_IDs/A/06_scarf.jpg,html/resources/sequences_IDs/B/01_redfox.jpg,6,1,3,2,1,1,5,1,0,46,,,,,,,,,,,,,,,,,,,,
,,,,,46,2020-07-04_15h47.08.301,retriever_ti,2020.1.3,Win32,60,Chrome,1366,768,,,,,,,,,,,,,,,,,1,,,,,,,,,,,,,,,,,,,,,,,,,,,686.551095,29,left,sport_tshirt,5,7,-3,0.965365,0,3,686.57026,686.57026,689.06068,0,28,28,28,1,29,5,8,sport_tshirt,camel         ,html/resources/sequences_IDs/B/07_sport_tshirt.jpg,html/resources/sequences_IDs/A/03_camel.jpg,7,3,3,2,1,1,6,2,0,46,,,,,,,,,,,,,,,,,,,,
,,,,,46,2020-07-04_15h47.08.301,retriever_ti,2020.1.3,Win32,60,Chrome,1366,768,,,,,,,,,,,,,,,,,1,,,,,,,,,,,,,,,,,,,,,,,,,,,689.66298,30,left,clownfish     ,6,4,-1,0.661085,0,0,689.684155,689.684155,692.17817,0,29,29,29,1,30,6,7,clownfish     ,phone       ,html/resources/sequences_IDs/A/04_clownfish.jpg,html/resources/sequences_IDs/B/09_phone.jpg,4,9,2,1,4,2,3,7,0,46,,,,,,,,,,,,,,,,,,,,
,,,,,46,2020-07-04_15h47.08.301,retriever_ti,2020.1.3,Win32,60,Chrome,1366,768,,,,,,,,,,,,,,,,,1,,,,,,,,,,,,,,,,,,,,,,,,,,,693.28006,31,NaN,No_response,NaN,NaN,NaN,NaN,2,2,693.313005,693.313005,695.80314,0,30,30,30,1,31,6,5,clownfish     ,sport_tshirt,html/resources/sequences_IDs/A/04_clownfish.jpg,html/resources/sequences_IDs/B/07_sport_tshirt.jpg,4,7,2,1,3,2,3,6,0,46,,,,,,,,,,,,,,,,,,,,
,,,,,46,2020-07-04_15h47.08.301,retriever_ti,2020.1.3,Win32,60,Chrome,1366,768,,,,,,,,,,,,,,,,,1,,,,,,,,,,,,,,,,,,,,,,,,,,,696.903245,32,right,redfox      ,3,1,2,0.993410001,1,3,696.9204,696.9204,699.414225,0,31,31,31,1,32,1,3,parrot      ,redfox      ,html/resources/sequences_IDs/B/05_parrot.jpg,html/resources/sequences_IDs/B/01_redfox.jpg,5,1,2,1,1,1,4,1,0,46,,,,,,,,,,,,,,,,,,,,
,,,,,46,2020-07-04_15h47.08.301,retriever_ti,2020.1.3,Win32,60,Chrome,1366,768,,,,,,,,,,,,,,,,,1,,,,,,,,,,,,,,,,,,,,,,,,,,,700.01698,33,right,scarf         ,2,6,1,1.067635001,1,1,700.05081,700.05081,702.536465,0,32,32,32,1,33,1,2,parrot      ,scarf         ,html/resources/sequences_IDs/B/05_parrot.jpg,html/resources/sequences_IDs/A/06_scarf.jpg,5,6,2,1,3,2,4,5,0,46,,,,,,,,,,,,,,,,,,,,
,,,,,46,2020-07-04_15h47.08.301,retriever_ti,2020.1.3,Win32,60,Chrome,1366,768,,,,,,,,,,,,,,,,,1,,,,,,,,,,,,,,,,,,,,,,,,,,,703.63457,34,left,satellite_dish,4,10,1,0.895895,1,0,703.65401,703.65401,706.150055,0,33,33,33,1,34,4,3,satellite_dish,redfox      ,html/resources/sequences_IDs/A/10_satellite_dish.jpg,html/resources/sequences_IDs/B/01_redfox.jpg,10,1,4,2,1,1,8,1,1,46,,,,,,,,,,,,,,,,,,,,
,,,,,46,2020-07-04_15h47.08.301,retriever_ti,2020.1.3,Win32,60,Chrome,1366,768,,,,,,,,,,,,,,,,,1,,,,,,,,,,,,,,,,,,,,,,,,,,,707.252155,35,right,phone       ,7,9,3,0.547095,1,3,707.286545,707.286545,709.787445,0,34,34,34,1,35,4,7,satellite_dish,phone       ,html/resources/sequences_IDs/A/10_satellite_dish.jpg,html/resources/sequences_IDs/B/09_phone.jpg,10,9,4,2,4,2,8,7,0,46,,,,,,,,,,,,,,,,,,,,
,,,,,46,2020-07-04_15h47.08.301,retriever_ti,2020.1.3,Win32,60,Chrome,1366,768,,,,,,,,,,,,,,,,,1,,,,,,,,,,,,,,,,,,,,,,,,,,,710.405925,36,right,redfox      ,3,1,-1,0.696839999,0,0,710.421645,710.421645,715.09308,0,35,35,35,1,36,4,3,satellite_dish,redfox      ,html/resources/sequences_IDs/A/10_satellite_dish.jpg,html/resources/sequences_IDs/B/01_redfox.jpg,10,1,4,2,1,1,8,1,0,46,,,,,,,,,,,,,,,,,,,,
,,,,,46,2020-07-04_15h47.08.301,retriever_ti,2020.1.3,Win32,60,Chrome,1366,768,,,,,,,,,,,,,,,,,1,,,,,,,,,,,,,,,,,,,,,,,,,,,716.191435,37,left,scarf         ,2,6,1,0.947,1,0,716.231195,716.231195,718.74366,0,36,36,36,1,37,2,1,scarf         ,parrot      ,html/resources/sequences_IDs/A/06_scarf.jpg,html/resources/sequences_IDs/B/05_parrot.jpg,6,5,3,2,2,1,5,4,1,46,,,,,,,,,,,,,,,,,,,,
,,,,,46,2020-07-04_15h47.08.301,retriever_ti,2020.1.3,Win32,60,Chrome,1366,768,,,,,,,,,,,,,,,,,1,,,,,,,,,,,,,,,,,,,,,,,,,,,719.88904,38,NaN,No_response,NaN,NaN,NaN,NaN,2,2,719.91437,719.91437,722.436805,0,37,37,37,1,38,8,6,camel         ,clownfish     ,html/resources/sequences_IDs/A/03_camel.jpg,html/resources/sequences_IDs/A/04_clownfish.jpg,3,4,1,1,2,1,2,3,0,46,,,,,,,,,,,,,,,,,,,,
,,,,,46,2020-07-04_15h47.08.301,retriever_ti,2020.1.3,Win32,60,Chrome,1366,768,,,,,,,,,,,,,,,,,1,,,,,,,,,,,,,,,,,,,,,,,,,,,723.531965,39,left,clownfish     ,6,4,1,0.42287,1,1,723.547225,723.547225,726.040045,0,38,38,38,1,39,6,5,clownfish     ,sport_tshirt,html/resources/sequences_IDs/A/04_clownfish.jpg,html/resources/sequences_IDs/B/07_sport_tshirt.jpg,4,7,2,1,3,2,3,6,0,46,,,,,,,,,,,,,,,,,,,,
,,,,,46,2020-07-04_15h47.08.301,retriever_ti,2020.1.3,Win32,60,Chrome,1366,768,,,,,,,,,,,,,,,,,1,,,,,,,,,,,,,,,,,,,,,,,,,,,727.374925,40,right,phone       ,7,9,4,0.661395,1,3,727.67899,727.67899,730.17451,0,39,39,39,1,40,3,7,redfox      ,phone       ,html/resources/sequences_IDs/B/01_redfox.jpg,html/resources/sequences_IDs/B/09_phone.jpg,1,9,1,1,4,2,1,7,0,46,,,,,,,,,,,,,,,,,,,,
,,,,,46,2020-07-04_15h47.08.301,retriever_ti,2020.1.3,Win32,60,Chrome,1366,768,,,,,,,,,,,,,,,,,1,,,,,,,,,,,,,,,,,,,,,,,,,,,730.7927,41,right,camel         ,8,3,7,1.02147,1,3,730.80984,730.80984,733.35041,0,40,40,40,1,41,1,8,parrot      ,camel         ,html/resources/sequences_IDs/B/05_parrot.jpg,html/resources/sequences_IDs/A/03_camel.jpg,5,3,2,1,1,1,4,2,0,46,,,,,,,,,,,,,,,,,,,,
,,,,,46,2020-07-04_15h47.08.301,retriever_ti,2020.1.3,Win32,60,Chrome,1366,768,,,,,,,,,,,,,,,,,1,,,,,,,,,,,,,,,,,,,,,,,,,,,733.961635,42,right,scarf         ,2,6,-1,0.82798,0,0,734.12711,734.12711,736.7777,0,41,41,41,1,42,3,2,redfox      ,scarf         ,html/resources/sequences_IDs/B/01_redfox.jpg,html/resources/sequences_IDs/A/06_scarf.jpg,1,6,1,1,3,2,1,5,0,46,,,,,,,,,,,,,,,,,,,,
,,,,,46,2020-07-04_15h47.08.301,retriever_ti,2020.1.3,Win32,60,Chrome,1366,768,,,,,,,,,,,,,,,,,1,,,,,,,,,,,,,,,,,,,,,,,,,,,737.878325,43,left,phone       ,7,9,4,0.756785001,1,3,737.8955,737.8955,740.394695,0,42,42,42,1,43,7,3,phone       ,redfox      ,html/resources/sequences_IDs/B/09_phone.jpg,html/resources/sequences_IDs/B/01_redfox.jpg,9,1,4,2,1,1,7,1,0,46,,,,,,,,,,,,,,,,,,,,
,,,,,46,2020-07-04_15h47.08.301,retriever_ti,2020.1.3,Win32,60,Chrome,1366,768,,,,,,,,,,,,,,,,,1,,,,,,,,,,,,,,,,,,,,,,,,,,,741.013025,44,right,phone       ,7,9,5,1.247479999,1,3,741.04607,741.04607,743.54728,0,43,43,43,1,44,2,7,scarf         ,phone       ,html/resources/sequences_IDs/A/06_scarf.jpg,html/resources/sequences_IDs/B/09_phone.jpg,6,9,3,2,4,2,5,7,0,46,,,,,,,,,,,,,,,,,,,,
,,,,,46,2020-07-04_15h47.08.301,retriever_ti,2020.1.3,Win32,60,Chrome,1366,768,,,,,,,,,,,,,,,,,1,,,,,,,,,,,,,,,,,,,,,,,,,,,744.16447,45,left,clownfish     ,6,4,2,0.964064999,1,3,744.19785,744.19785,746.6846,0,44,44,44,1,45,6,4,clownfish     ,satellite_dish,html/resources/sequences_IDs/A/04_clownfish.jpg,html/resources/sequences_IDs/A/10_satellite_dish.jpg,4,10,2,1,4,2,3,8,0,46,,,,,,,,,,,,,,,,,,,,
,,,,,46,2020-07-04_15h47.08.301,retriever_ti,2020.1.3,Win32,60,Chrome,1366,768,,,,,,,,,,,,,,,,,1,,,,,,,,,,,,,,,,,,,,,,,,,,,747.449995,46,right,clownfish     ,6,4,2,0.522295,1,3,747.469835,747.469835,749.96778,0,45,45,45,1,46,4,6,satellite_dish,clownfish     ,html/resources/sequences_IDs/A/10_satellite_dish.jpg,html/resources/sequences_IDs/A/04_clownfish.jpg,10,4,4,2,2,1,8,3,0,46,,,,,,,,,,,,,,,,,,,,
,,,,,46,2020-07-04_15h47.08.301,retriever_ti,2020.1.3,Win32,60,Chrome,1366,768,,,,,,,,,,,,,,,,,1,,,,,,,,,,,,,,,,,,,,,,,,,,,750.583925,47,left,sport_tshirt,5,7,2,0.878755,1,3,750.623085,750.623085,753.11539,0,46,46,46,1,47,5,3,sport_tshirt,redfox      ,html/resources/sequences_IDs/B/07_sport_tshirt.jpg,html/resources/sequences_IDs/B/01_redfox.jpg,7,1,3,2,1,1,6,1,0,46,,,,,,,,,,,,,,,,,,,,
,,,,,46,2020-07-04_15h47.08.301,retriever_ti,2020.1.3,Win32,60,Chrome,1366,768,,,,,,,,,,,,,,,,,1,,,,,,,,,,,,,,,,,,,,,,,,,,,753.716835,48,right,clownfish     ,6,4,1,0.574965,1,1,753.75036,753.75036,756.25083,0,47,47,47,1,48,5,6,sport_tshirt,clownfish     ,html/resources/sequences_IDs/B/07_sport_tshirt.jpg,html/resources/sequences_IDs/A/04_clownfish.jpg,7,4,3,2,2,1,6,3,0,46,,,,,,,,,,,,,,,,,,,,
,,,,,46,2020-07-04_15h47.08.301,retriever_ti,2020.1.3,Win32,60,Chrome,1366,768,,,,,,,,,,,,,,,,,1,,,,,,,,,,,,,,,,,,,,,,,,,,,757.35257,49,right,clownfish     ,6,4,3,0.59653,1,3,757.38624,757.38624,759.88599,0,48,48,48,1,49,3,6,redfox      ,clownfish     ,html/resources/sequences_IDs/B/01_redfox.jpg,html/resources/sequences_IDs/A/04_clownfish.jpg,1,4,1,1,2,1,1,3,0,46,,,,,,,,,,,,,,,,,,,,
,,,,,46,2020-07-04_15h47.08.301,retriever_ti,2020.1.3,Win32,60,Chrome,1366,768,,,,,,,,,,,,,,,,,1,,,,,,,,,,,,,,,,,,,,,,,,,,,760.503185,50,right,parrot      ,1,5,-7,1.088289999,0,3,760.52154,760.52154,763.01667,0,49,49,49,1,50,8,1,camel         ,parrot      ,html/resources/sequences_IDs/A/03_camel.jpg,html/resources/sequences_IDs/B/05_parrot.jpg,3,5,1,1,2,1,2,4,0,46,,,,,,,,,,,,,,,,,,,,
,,,,,46,2020-07-04_15h47.08.301,retriever_ti,2020.1.3,Win32,60,Chrome,1366,768,,,,,,,,,,,,,,,,,1,,,,,,,,,,,,,,,,,,,,,,,,,,,763.6243,51,right,phone       ,7,9,1,0.95536,1,1,763.65901,763.65901,766.1533,0,50,50,50,1,51,6,7,clownfish     ,phone       ,html/resources/sequences_IDs/A/04_clownfish.jpg,html/resources/sequences_IDs/B/09_phone.jpg,4,9,2,1,4,2,3,7,0,46,,,,,,,,,,,,,,,,,,,,
,,,,,46,2020-07-04_15h47.08.301,retriever_ti,2020.1.3,Win32,60,Chrome,1366,768,,,,,,,,,,,,,,,,,1,,,,,,,,,,,,,,,,,,,,,,,,,,,767.255735,52,left,phone       ,7,9,1,1.10425,1,1,767.305515,767.305515,772.290635,0,51,51,51,1,52,7,6,phone       ,clownfish     ,html/resources/sequences_IDs/B/09_phone.jpg,html/resources/sequences_IDs/A/04_clownfish.jpg,9,4,4,2,2,1,7,3,0,46,,,,,,,,,,,,,,,,,,,,
,,,,,46,2020-07-04_15h47.08.301,retriever_ti,2020.1.3,Win32,60,Chrome,1366,768,,,,,,,,,,,,,,,,,1,,,,,,,,,,,,,,,,,,,,,,,,,,,775.3621,53,NaN,No_response,NaN,NaN,NaN,NaN,2,2,775.62949,775.62949,778.123805,0,52,52,52,1,53,1,4,parrot      ,satellite_dish,html/resources/sequences_IDs/B/05_parrot.jpg,html/resources/sequences_IDs/A/10_satellite_dish.jpg,5,10,2,1,4,2,4,8,0,46,,,,,,,,,,,,,,,,,,,,
,,,,,46,2020-07-04_15h47.08.301,retriever_ti,2020.1.3,Win32,60,Chrome,1366,768,,,,,,,,,,,,,,,,,1,,,,,,,,,,,,,,,,,,,,,,,,,,,779.246285,54,NaN,No_response,NaN,NaN,NaN,NaN,2,2,779.296225,779.296225,781.80221,0,53,53,53,1,54,4,5,satellite_dish,sport_tshirt,html/resources/sequences_IDs/A/10_satellite_dish.jpg,html/resources/sequences_IDs/B/07_sport_tshirt.jpg,10,7,4,2,3,2,8,6,0,46,,,,,,,,,,,,,,,,,,,,
,,,,,46,2020-07-04_15h47.08.301,retriever_ti,2020.1.3,Win32,60,Chrome,1366,768,,,,,,,,,,,,,,,,,1,,,,,,,,,,,,,,,,,,,,,,,,,,,783.00437,55,left,sport_tshirt,5,7,1,0.885574999,1,1,783.052,783.052,785.612135,0,54,54,54,1,55,5,4,sport_tshirt,satellite_dish,html/resources/sequences_IDs/B/07_sport_tshirt.jpg,html/resources/sequences_IDs/A/10_satellite_dish.jpg,7,10,3,2,4,2,6,8,0,46,,,,,,,,,,,,,,,,,,,,
,,,,,46,2020-07-04_15h47.08.301,retriever_ti,2020.1.3,Win32,60,Chrome,1366,768,,,,,,,,,,,,,,,,,1,,,,,,,,,,,,,,,,,,,,,,,,,,,786.719385,56,NaN,No_response,NaN,NaN,NaN,NaN,2,2,786.93951,786.93951,789.43287,0,55,55,55,1,56,3,5,redfox      ,sport_tshirt,html/resources/sequences_IDs/B/01_redfox.jpg,html/resources/sequences_IDs/B/07_sport_tshirt.jpg,1,7,1,1,3,2,1,6,0,46,,,,,,,,,,,,,,,,,,,,
,,,,,46,2020-07-04_15h47.08.301,retriever_ti,2020.1.3,Win32,60,Chrome,1366,768,,,,,,,,,,,,,,,,,1,,,,,,,,,,,,,,,,,,,,,,,,,,,790.536865,57,NaN,No_response,NaN,NaN,NaN,NaN,2,2,790.570925,790.570925,794.680035,0,56,56,56,1,57,4,2,satellite_dish,scarf         ,html/resources/sequences_IDs/A/10_satellite_dish.jpg,html/resources/sequences_IDs/A/06_scarf.jpg,10,6,4,2,3,2,8,5,0,46,,,,,,,,,,,,,,,,,,,,
,,,,,46,2020-07-04_15h47.08.301,retriever_ti,2020.1.3,Win32,60,Chrome,1366,768,,,,,,,,,,,,,,,,,1,,,,,,,,,,,,,,,,,,,,,,,,,,,795.782235,58,right,phone       ,7,9,2,1.321075001,1,3,795.817495,795.817495,798.314445,0,57,57,57,1,58,5,7,sport_tshirt,phone       ,html/resources/sequences_IDs/B/07_sport_tshirt.jpg,html/resources/sequences_IDs/B/09_phone.jpg,7,9,3,2,4,2,6,7,0,46,,,,,,,,,,,,,,,,,,,,
,,,,,46,2020-07-04_15h47.08.301,retriever_ti,2020.1.3,Win32,60,Chrome,1366,768,,,,,,,,,,,,,,,,,1,,,,,,,,,,,,,,,,,,,,,,,,,,,798.91734,59,left,clownfish     ,6,4,4,0.82563,1,3,798.95059,798.95059,801.448315,0,58,58,58,1,59,6,2,clownfish     ,scarf         ,html/resources/sequences_IDs/A/04_clownfish.jpg,html/resources/sequences_IDs/A/06_scarf.jpg,4,6,2,1,3,2,3,5,0,46,,,,,,,,,,,,,,,,,,,,
,,,,,46,2020-07-04_15h47.08.301,retriever_ti,2020.1.3,Win32,60,Chrome,1366,768,,,,,,,,,,,,,,,,,1,,,,,,,,,,,,,,,,,,,,,,,,,,,802.04977,60,right,parrot      ,1,5,-3,0.799665,0,3,802.083815,802.083815,804.586195,0,59,59,59,1,60,4,1,satellite_dish,parrot      ,html/resources/sequences_IDs/A/10_satellite_dish.jpg,html/resources/sequences_IDs/B/05_parrot.jpg,10,5,4,2,2,1,8,4,0,46,,,,,,,,,,,,,,,,,,,,
,,,,,46,2020-07-04_15h47.08.301,retriever_ti,2020.1.3,Win32,60,Chrome,1366,768,,,,,,,,,,,,,,,,,1,,,,,,,,,,,,,,,,,,,,,,,,,,,805.20121,61,NaN,No_response,NaN,NaN,NaN,NaN,2,2,805.21917,805.21917,808.17999,0,60,60,60,1,61,8,2,camel         ,scarf         ,html/resources/sequences_IDs/A/03_camel.jpg,html/resources/sequences_IDs/A/06_scarf.jpg,3,6,1,1,3,2,2,5,0,46,,,,,,,,,,,,,,,,,,,,
,,,,,46,2020-07-04_15h47.08.301,retriever_ti,2020.1.3,Win32,60,Chrome,1366,768,,,,,,,,,,,,,,,,,1,,,,,,,,,,,,,,,,,,,,,,,,,,,809.27044,62,NaN,No_response,NaN,NaN,NaN,NaN,2,2,809.28933,809.28933,814.062605,0,61,61,61,1,62,7,4,phone       ,satellite_dish,html/resources/sequences_IDs/B/09_phone.jpg,html/resources/sequences_IDs/A/10_satellite_dish.jpg,9,10,4,2,4,2,7,8,0,46,,,,,,,,,,,,,,,,,,,,
,,,,,46,2020-07-04_15h47.08.301,retriever_ti,2020.1.3,Win32,60,Chrome,1366,768,,,,,,,,,,,,,,,,,1,,,,,,,,,,,,,,,,,,,,,,,,,,,821.4575,63,NaN,No_response,NaN,NaN,NaN,NaN,2,2,821.524065,821.524065,827.050215,0,62,62,62,1,63,5,2,sport_tshirt,scarf         ,html/resources/sequences_IDs/B/07_sport_tshirt.jpg,html/resources/sequences_IDs/A/06_scarf.jpg,7,6,3,2,3,2,6,5,0,46,,,,,,,,,,,,,,,,,,,,
,,,,,46,2020-07-04_15h47.08.301,retriever_ti,2020.1.3,Win32,60,Chrome,1366,768,,,,,,,,,,,,,,,,,1,,,,,,,,,,,,,,,,,,,,,,,,,,,828.85273,64,NaN,No_response,NaN,NaN,NaN,NaN,2,2,829.76683,829.76683,835.28374,0,63,63,63,1,64,7,6,phone       ,clownfish     ,html/resources/sequences_IDs/B/09_phone.jpg,html/resources/sequences_IDs/A/04_clownfish.jpg,9,4,4,2,2,1,7,3,0,46,,,,,,,,,,,,,,,,,,,,
,,,,,46,2020-07-04_15h47.08.301,retriever_ti,2020.1.3,Win32,60,Chrome,1366,768,,,,,,,,,,,,,,,,,1,,,,,,,,,,,,,,,,,,,,,,,,,,,839.693305,65,NaN,No_response,NaN,NaN,NaN,NaN,2,2,843.79343,843.79343,847.697585,0,64,64,64,1,65,2,8,scarf         ,camel         ,html/resources/sequences_IDs/A/06_scarf.jpg,html/resources/sequences_IDs/A/03_camel.jpg,6,3,3,2,1,1,5,2,0,46,,,,,,,,,,,,,,,,,,,,
,,,,,46,2020-07-04_15h47.08.301,retriever_ti,2020.1.3,Win32,60,Chrome,1366,768,,,,,,,,,,,,,,,,,1,,,,,,,,,,,,,,,,,,,,,,,,,,,849.511395,66,NaN,No_response,NaN,NaN,NaN,NaN,2,2,849.80448,849.80448,853.42725,0,65,65,65,1,66,7,1,phone       ,parrot      ,html/resources/sequences_IDs/B/09_phone.jpg,html/resources/sequences_IDs/B/05_parrot.jpg,9,5,4,2,2,1,7,4,0,46,,,,,,,,,,,,,,,,,,,,
,,,,,46,2020-07-04_15h47.08.301,retriever_ti,2020.1.3,Win32,60,Chrome,1366,768,,,,,,,,,,,,,,,,,1,,,,,,,,,,,,,,,,,,,,,,,,,,,854.5203,67,NaN,No_response,NaN,NaN,NaN,NaN,2,2,854.554195,854.554195,857.04163,0,66,66,66,1,67,2,4,scarf         ,satellite_dish,html/resources/sequences_IDs/A/06_scarf.jpg,html/resources/sequences_IDs/A/10_satellite_dish.jpg,6,10,3,2,4,2,5,8,0,46,,,,,,,,,,,,,,,,,,,,
,,,,,46,2020-07-04_15h47.08.301,retriever_ti,2020.1.3,Win32,60,Chrome,1366,768,,,,,,,,,,,,,,,,,1,,,,,,,,,,,,,,,,,,,,,,,,,,,858.13523,68,NaN,No_response,NaN,NaN,NaN,NaN,2,2,858.16912,858.16912,860.722565,0,67,67,67,1,68,2,1,scarf         ,parrot      ,html/resources/sequences_IDs/A/06_scarf.jpg,html/resources/sequences_IDs/B/05_parrot.jpg,6,5,3,2,2,1,5,4,0,46,,,,,,,,,,,,,,,,,,,,
,,,,,46,2020-07-04_15h47.08.301,retriever_ti,2020.1.3,Win32,60,Chrome,1366,768,,,,,,,,,,,,,,,,,1,,,,,,,,,,,,,,,,,,,,,,,,,,,861.82364,69,NaN,No_response,NaN,NaN,NaN,NaN,2,2,861.83946,861.83946,864.529755,0,68,68,68,1,69,8,3,camel         ,redfox      ,html/resources/sequences_IDs/A/03_camel.jpg,html/resources/sequences_IDs/B/01_redfox.jpg,3,1,1,1,1,1,2,1,0,46,,,,,,,,,,,,,,,,,,,,
,,,,,46,2020-07-04_15h47.08.301,retriever_ti,2020.1.3,Win32,60,Chrome,1366,768,,,,,,,,,,,,,,,,,1,,,,,,,,,,,,,,,,,,,,,,,,,,,865.620745,70,left,clownfish     ,6,4,5,0.901500001,1,3,865.65734,865.65734,868.154405,0,69,69,69,1,70,6,1,clownfish     ,parrot      ,html/resources/sequences_IDs/A/04_clownfish.jpg,html/resources/sequences_IDs/B/05_parrot.jpg,4,5,2,1,2,1,3,4,0,46,,,,,,,,,,,,,,,,,,,,
,,,,,46,2020-07-04_15h47.08.301,retriever_ti,2020.1.3,Win32,60,Chrome,1366,768,,,,,,,,,,,,,,,,,1,,,,,,,,,,,,,,,,,,,,,,,,,,,868.755835,71,right,phone       ,7,9,-1,0.75053,0,0,868.79088,868.79088,871.289585,0,70,70,70,1,71,8,7,camel         ,phone       ,html/resources/sequences_IDs/A/03_camel.jpg,html/resources/sequences_IDs/B/09_phone.jpg,3,9,1,1,4,2,2,7,0,46,,,,,,,,,,,,,,,,,,,,
,,,,,46,2020-07-04_15h47.08.301,retriever_ti,2020.1.3,Win32,60,Chrome,1366,768,,,,,,,,,,,,,,,,,1,,,,,,,,,,,,,,,,,,,,,,,,,,,872.391425,72,right,sport_tshirt,5,7,3,0.95079,1,3,872.42656,872.42656,874.924075,0,71,71,71,1,72,2,5,scarf         ,sport_tshirt,html/resources/sequences_IDs/A/06_scarf.jpg,html/resources/sequences_IDs/B/07_sport_tshirt.jpg,6,7,3,2,3,2,5,6,0,46,,,,,,,,,,,,,,,,,,,,
,,,,,46,2020-07-04_15h47.08.301,retriever_ti,2020.1.3,Win32,60,Chrome,1366,768,,,,,,,,,,,,,,,,,1,,,,,,,,,,,,,,,,,,,,,,,,,,,875.54153,73,right,phone       ,7,9,-1,1.113475,0,0,875.580555,875.580555,878.07499,0,72,72,72,1,73,8,7,camel         ,phone       ,html/resources/sequences_IDs/A/03_camel.jpg,html/resources/sequences_IDs/B/09_phone.jpg,3,9,1,1,4,2,2,7,0,46,,,,,,,,,,,,,,,,,,,,
,,,,,46,2020-07-04_15h47.08.301,retriever_ti,2020.1.3,Win32,60,Chrome,1366,768,,,,,,,,,,,,,,,,,1,,,,,,,,,,,,,,,,,,,,,,,,,,,879.176795,74,left,scarf         ,2,6,-1,1.42612,0,1,879.208875,879.208875,881.70973,0,73,73,73,1,74,2,3,scarf         ,redfox      ,html/resources/sequences_IDs/A/06_scarf.jpg,html/resources/sequences_IDs/B/01_redfox.jpg,6,1,3,2,1,1,5,1,1,46,,,,,,,,,,,,,,,,,,,,
,,,,,46,2020-07-04_15h47.08.301,retriever_ti,2020.1.3,Win32,60,Chrome,1366,768,,,,,,,,,,,,,,,,,1,,,,,,,,,,,,,,,,,,,,,,,,,,,883.11269,75,right,sport_tshirt,5,7,-2,1.124,0,3,883.18112,883.18112,885.67749,0,74,74,74,1,75,7,5,phone       ,sport_tshirt,html/resources/sequences_IDs/B/09_phone.jpg,html/resources/sequences_IDs/B/07_sport_tshirt.jpg,9,7,4,2,3,2,7,6,0,46,,,,,,,,,,,,,,,,,,,,
,,,,,46,2020-07-04_15h47.08.301,retriever_ti,2020.1.3,Win32,60,Chrome,1366,768,,,,,,,,,,,,,,,,,1,,,,,,,,,,,,,,,,,,,,,,,,,,,886.29472,76,right,redfox      ,3,1,1,1.477855,1,1,886.31406,886.31406,888.81174,0,75,75,75,1,76,2,3,scarf         ,redfox      ,html/resources/sequences_IDs/A/06_scarf.jpg,html/resources/sequences_IDs/B/01_redfox.jpg,6,1,3,2,1,1,5,1,0,46,,,,,,,,,,,,,,,,,,,,
,,,,,46,2020-07-04_15h47.08.301,retriever_ti,2020.1.3,Win32,60,Chrome,1366,768,,,,,,,,,,,,,,,,,1,,,,,,,,,,,,,,,,,,,,,,,,,,,889.913075,77,left,clownfish     ,6,4,3,0.686685001,1,3,889.947575,889.947575,892.445905,0,76,76,76,1,77,6,3,clownfish     ,redfox      ,html/resources/sequences_IDs/A/04_clownfish.jpg,html/resources/sequences_IDs/B/01_redfox.jpg,4,1,2,1,1,1,3,1,0,46,,,,,,,,,,,,,,,,,,,,
,,,,,46,2020-07-04_15h47.08.301,retriever_ti,2020.1.3,Win32,60,Chrome,1366,768,,,,,,,,,,,,,,,,,,,,,,,,,,,,,,,,,,,,,1,8.953615,,,,,,,,,,,,,,,,,,,,,,,,,,,,,,,,,,,,,,,,,0,0,0,0,1,,,,,,,,,,,,,,,
,,,,,46,2020-07-04_15h47.08.301,retriever_ti,2020.1.3,Win32,60,Chrome,1366,768,,,,,,,,,,,,,,,,,2,,,,,,,,,,,,,,,,,,,,,,,,,,,920.45144,78,NaN,No_response,NaN,NaN,NaN,NaN,2,2,920.49387,920.49387,922.976855,0,0,0,0,1,78,3,2,redfox      ,scarf         ,html/resources/sequences_IDs/B/01_redfox.jpg,html/resources/sequences_IDs/A/06_scarf.jpg,1,6,1,1,3,2,1,5,0,46,,,,,,,,,,,,,,,,,,,,
,,,,,46,2020-07-04_15h47.08.301,retriever_ti,2020.1.3,Win32,60,Chrome,1366,768,,,,,,,,,,,,,,,,,2,,,,,,,,,,,,,,,,,,,,,,,,,,,924.07478,79,right,clownfish     ,6,4,1,0.436055,1,1,924.109015,924.109015,926.64285,0,1,1,1,1,79,5,6,sport_tshirt,clownfish     ,html/resources/sequences_IDs/B/07_sport_tshirt.jpg,html/resources/sequences_IDs/A/04_clownfish.jpg,7,4,3,2,2,1,6,3,0,46,,,,,,,,,,,,,,,,,,,,
,,,,,46,2020-07-04_15h47.08.301,retriever_ti,2020.1.3,Win32,60,Chrome,1366,768,,,,,,,,,,,,,,,,,2,,,,,,,,,,,,,,,,,,,,,,,,,,,927.74199,80,right,redfox      ,3,1,2,0.581415,1,3,927.777095,927.777095,930.274985,0,2,2,2,1,80,1,3,parrot      ,redfox      ,html/resources/sequences_IDs/B/05_parrot.jpg,html/resources/sequences_IDs/B/01_redfox.jpg,5,1,2,1,1,1,4,1,0,46,,,,,,,,,,,,,,,,,,,,
,,,,,46,2020-07-04_15h47.08.301,retriever_ti,2020.1.3,Win32,60,Chrome,1366,768,,,,,,,,,,,,,,,,,2,,,,,,,,,,,,,,,,,,,,,,,,,,,930.875775,81,left,scarf         ,2,6,-1,1.49109,0,0,930.893095,930.893095,933.393195,0,3,3,3,1,81,2,3,scarf         ,redfox      ,html/resources/sequences_IDs/A/06_scarf.jpg,html/resources/sequences_IDs/B/01_redfox.jpg,6,1,3,2,1,1,5,1,0,46,,,,,,,,,,,,,,,,,,,,
,,,,,46,2020-07-04_15h47.08.301,retriever_ti,2020.1.3,Win32,60,Chrome,1366,768,,,,,,,,,,,,,,,,,2,,,,,,,,,,,,,,,,,,,,,,,,,,,934.496315,82,right,redfox      ,3,1,-2,0.6062,0,3,934.52916,934.52916,937.028325,0,4,4,4,1,82,5,3,sport_tshirt,redfox      ,html/resources/sequences_IDs/B/07_sport_tshirt.jpg,html/resources/sequences_IDs/B/01_redfox.jpg,7,1,3,2,1,1,6,1,0,46,,,,,,,,,,,,,,,,,,,,
,,,,,46,2020-07-04_15h47.08.301,retriever_ti,2020.1.3,Win32,60,Chrome,1366,768,,,,,,,,,,,,,,,,,2,,,,,,,,,,,,,,,,,,,,,,,,,,,937.63048,83,left,sport_tshirt,5,7,3,1.08263,1,3,937.664165,937.664165,940.163355,0,5,5,5,1,83,5,2,sport_tshirt,scarf         ,html/resources/sequences_IDs/B/07_sport_tshirt.jpg,html/resources/sequences_IDs/A/06_scarf.jpg,7,6,3,2,3,2,6,5,0,46,,,,,,,,,,,,,,,,,,,,
,,,,,46,2020-07-04_15h47.08.301,retriever_ti,2020.1.3,Win32,60,Chrome,1366,768,,,,,,,,,,,,,,,,,2,,,,,,,,,,,,,,,,,,,,,,,,,,,940.78081,84,left,clownfish     ,6,4,1,0.492760001,1,1,940.8146,940.8146,943.31273,0,6,6,6,1,84,6,5,clownfish     ,sport_tshirt,html/resources/sequences_IDs/A/04_clownfish.jpg,html/resources/sequences_IDs/B/07_sport_tshirt.jpg,4,7,2,1,3,2,3,6,0,46,,,,,,,,,,,,,,,,,,,,
,,,,,46,2020-07-04_15h47.08.301,retriever_ti,2020.1.3,Win32,60,Chrome,1366,768,,,,,,,,,,,,,,,,,2,,,,,,,,,,,,,,,,,,,,,,,,,,,944.414735,85,right,scarf         ,2,6,1,0.816474999,1,1,944.448285,944.448285,946.94746,0,7,7,7,1,85,1,2,parrot      ,scarf         ,html/resources/sequences_IDs/B/05_parrot.jpg,html/resources/sequences_IDs/A/06_scarf.jpg,5,6,2,1,3,2,4,5,0,46,,,,,,,,,,,,,,,,,,,,
,,,,,46,2020-07-04_15h47.08.301,retriever_ti,2020.1.3,Win32,60,Chrome,1366,768,,,,,,,,,,,,,,,,,2,,,,,,,,,,,,,,,,,,,,,,,,,,,948.049905,86,left,scarf         ,2,6,-6,0.765585001,0,3,948.083255,948.083255,950.582715,0,8,8,8,1,86,2,8,scarf         ,camel         ,html/resources/sequences_IDs/A/06_scarf.jpg,html/resources/sequences_IDs/A/03_camel.jpg,6,3,3,2,1,1,5,2,0,46,,,,,,,,,,,,,,,,,,,,
,,,,,46,2020-07-04_15h47.08.301,retriever_ti,2020.1.3,Win32,60,Chrome,1366,768,,,,,,,,,,,,,,,,,2,,,,,,,,,,,,,,,,,,,,,,,,,,,951.20064,87,left,scarf         ,2,6,-2,0.822755,0,3,951.234375,951.234375,953.734445,0,9,9,9,1,87,2,4,scarf         ,satellite_dish,html/resources/sequences_IDs/A/06_scarf.jpg,html/resources/sequences_IDs/A/10_satellite_dish.jpg,6,10,3,2,4,2,5,8,0,46,,,,,,,,,,,,,,,,,,,,
,,,,,46,2020-07-04_15h47.08.301,retriever_ti,2020.1.3,Win32,60,Chrome,1366,768,,,,,,,,,,,,,,,,,2,,,,,,,,,,,,,,,,,,,,,,,,,,,954.35234,88,left,scarf         ,2,6,1,0.976905,1,1,954.369085,954.369085,956.867435,0,10,10,10,1,88,2,1,scarf         ,parrot      ,html/resources/sequences_IDs/A/06_scarf.jpg,html/resources/sequences_IDs/B/05_parrot.jpg,6,5,3,2,2,1,5,4,0,46,,,,,,,,,,,,,,,,,,,,
,,,,,46,2020-07-04_15h47.08.301,retriever_ti,2020.1.3,Win32,60,Chrome,1366,768,,,,,,,,,,,,,,,,,2,,,,,,,,,,,,,,,,,,,,,,,,,,,957.971525,89,right,redfox      ,3,1,-1,0.91407,0,0,957.98737,957.98737,960.485625,0,11,11,11,1,89,4,3,satellite_dish,redfox      ,html/resources/sequences_IDs/A/10_satellite_dish.jpg,html/resources/sequences_IDs/B/01_redfox.jpg,10,1,4,2,1,1,8,1,0,46,,,,,,,,,,,,,,,,,,,,
,,,,,46,2020-07-04_15h47.08.301,retriever_ti,2020.1.3,Win32,60,Chrome,1366,768,,,,,,,,,,,,,,,,,2,,,,,,,,,,,,,,,,,,,,,,,,,,,961.58772,90,left,clownfish     ,6,4,-2,0.56916,0,3,961.622225,961.622225,965.10704,0,12,12,12,1,90,6,8,clownfish     ,camel         ,html/resources/sequences_IDs/A/04_clownfish.jpg,html/resources/sequences_IDs/A/03_camel.jpg,4,3,2,1,1,1,3,2,0,46,,,,,,,,,,,,,,,,,,,,
,,,,,46,2020-07-04_15h47.08.301,retriever_ti,2020.1.3,Win32,60,Chrome,1366,768,,,,,,,,,,,,,,,,,2,,,,,,,,,,,,,,,,,,,,,,,,,,,966.093355,91,right,parrot      ,1,5,-2,0.681385,0,3,966.61097,966.61097,968.63726,0,13,13,13,1,91,3,1,redfox      ,parrot      ,html/resources/sequences_IDs/B/01_redfox.jpg,html/resources/sequences_IDs/B/05_parrot.jpg,1,5,1,1,2,1,1,4,0,46,,,,,,,,,,,,,,,,,,,,
,,,,,46,2020-07-04_15h47.08.301,retriever_ti,2020.1.3,Win32,60,Chrome,1366,768,,,,,,,,,,,,,,,,,2,,,,,,,,,,,,,,,,,,,,,,,,,,,969.2401,92,left,scarf         ,2,6,1,0.654045001,1,1,969.25887,969.25887,971.840295,0,14,14,14,1,92,2,1,scarf         ,parrot      ,html/resources/sequences_IDs/A/06_scarf.jpg,html/resources/sequences_IDs/B/05_parrot.jpg,6,5,3,2,2,1,5,4,0,46,,,,,,,,,,,,,,,,,,,,
,,,,,46,2020-07-04_15h47.08.301,retriever_ti,2020.1.3,Win32,60,Chrome,1366,768,,,,,,,,,,,,,,,,,2,,,,,,,,,,,,,,,,,,,,,,,,,,,972.94051,93,right,scarf         ,2,6,1,0.671925,1,1,972.976415,972.976415,975.47548,0,15,15,15,1,93,1,2,parrot      ,scarf         ,html/resources/sequences_IDs/B/05_parrot.jpg,html/resources/sequences_IDs/A/06_scarf.jpg,5,6,2,1,3,2,4,5,0,46,,,,,,,,,,,,,,,,,,,,
,,,,,46,2020-07-04_15h47.08.301,retriever_ti,2020.1.3,Win32,60,Chrome,1366,768,,,,,,,,,,,,,,,,,2,,,,,,,,,,,,,,,,,,,,,,,,,,,976.5759,94,left,clownfish     ,6,4,2,0.62929,1,3,976.59264,976.59264,979.092105,0,16,16,16,1,94,6,4,clownfish     ,satellite_dish,html/resources/sequences_IDs/A/04_clownfish.jpg,html/resources/sequences_IDs/A/10_satellite_dish.jpg,4,10,2,1,4,2,3,8,0,46,,,,,,,,,,,,,,,,,,,,
,,,,,46,2020-07-04_15h47.08.301,retriever_ti,2020.1.3,Win32,60,Chrome,1366,768,,,,,,,,,,,,,,,,,2,,,,,,,,,,,,,,,,,,,,,,,,,,,979.710045,95,right,satellite_dish,4,10,1,0.81833,1,1,979.743465,979.743465,982.242975,0,17,17,17,1,95,3,4,redfox      ,satellite_dish,html/resources/sequences_IDs/B/01_redfox.jpg,html/resources/sequences_IDs/A/10_satellite_dish.jpg,1,10,1,1,4,2,1,8,0,46,,,,,,,,,,,,,,,,,,,,
,,,,,46,2020-07-04_15h47.08.301,retriever_ti,2020.1.3,Win32,60,Chrome,1366,768,,,,,,,,,,,,,,,,,2,,,,,,,,,,,,,,,,,,,,,,,,,,,983.34407,96,left,satellite_dish,4,10,1,0.600254999,1,1,983.3609,983.3609,985.857065,0,18,18,18,1,96,4,3,satellite_dish,redfox      ,html/resources/sequences_IDs/A/10_satellite_dish.jpg,html/resources/sequences_IDs/B/01_redfox.jpg,10,1,4,2,1,1,8,1,0,46,,,,,,,,,,,,,,,,,,,,
,,,,,46,2020-07-04_15h47.08.301,retriever_ti,2020.1.3,Win32,60,Chrome,1366,768,,,,,,,,,,,,,,,,,2,,,,,,,,,,,,,,,,,,,,,,,,,,,986.95013,97,left,scarf         ,2,6,-1,1.124605,0,0,986.96752,986.96752,989.46258,0,19,19,19,1,97,2,3,scarf         ,redfox      ,html/resources/sequences_IDs/A/06_scarf.jpg,html/resources/sequences_IDs/B/01_redfox.jpg,6,1,3,2,1,1,5,1,0,46,,,,,,,,,,,,,,,,,,,,
,,,,,46,2020-07-04_15h47.08.301,retriever_ti,2020.1.3,Win32,60,Chrome,1366,768,,,,,,,,,,,,,,,,,2,,,,,,,,,,,,,,,,,,,,,,,,,,,990.563675,98,left,phone       ,7,9,-1,1.062059999,0,0,990.582005,990.582005,993.067305,0,20,20,20,1,98,7,8,phone       ,camel         ,html/resources/sequences_IDs/B/09_phone.jpg,html/resources/sequences_IDs/A/03_camel.jpg,9,3,4,2,1,1,7,2,0,46,,,,,,,,,,,,,,,,,,,,
,,,,,46,2020-07-04_15h47.08.301,retriever_ti,2020.1.3,Win32,60,Chrome,1366,768,,,,,,,,,,,,,,,,,2,,,,,,,,,,,,,,,,,,,,,,,,,,,994.164775,99,left,parrot      ,1,5,-6,0.608465,0,3,994.198455,994.198455,996.697785,0,21,21,21,1,99,1,7,parrot      ,phone       ,html/resources/sequences_IDs/B/05_parrot.jpg,html/resources/sequences_IDs/B/09_phone.jpg,5,9,2,1,4,2,4,7,0,46,,,,,,,,,,,,,,,,,,,,
,,,,,46,2020-07-04_15h47.08.301,retriever_ti,2020.1.3,Win32,60,Chrome,1366,768,,,,,,,,,,,,,,,,,2,,,,,,,,,,,,,,,,,,,,,,,,,,,997.2992,100,right,satellite_dish,4,10,-3,0.821685,0,3,997.335025,997.335025,999.836035,0,22,22,22,1,100,7,4,phone       ,satellite_dish,html/resources/sequences_IDs/B/09_phone.jpg,html/resources/sequences_IDs/A/10_satellite_dish.jpg,9,10,4,2,4,2,7,8,0,46,,,,,,,,,,,,,,,,,,,,
,,,,,46,2020-07-04_15h47.08.301,retriever_ti,2020.1.3,Win32,60,Chrome,1366,768,,,,,,,,,,,,,,,,,2,,,,,,,,,,,,,,,,,,,,,,,,,,,1000.450205,101,left,clownfish     ,6,4,4,0.789965,1,3,1000.468245,1000.468245,1002.95431,0,23,23,23,1,101,6,2,clownfish     ,scarf         ,html/resources/sequences_IDs/A/04_clownfish.jpg,html/resources/sequences_IDs/A/06_scarf.jpg,4,6,2,1,3,2,3,5,0,46,,,,,,,,,,,,,,,,,,,,
,,,,,46,2020-07-04_15h47.08.301,retriever_ti,2020.1.3,Win32,60,Chrome,1366,768,,,,,,,,,,,,,,,,,2,,,,,,,,,,,,,,,,,,,,,,,,,,,1003.57272,102,right,scarf         ,2,6,1,1.21742,1,0,1003.58865,1003.58865,1006.084065,0,24,24,24,1,102,1,2,parrot      ,scarf         ,html/resources/sequences_IDs/B/05_parrot.jpg,html/resources/sequences_IDs/A/06_scarf.jpg,5,6,2,1,3,2,4,5,1,46,,,,,,,,,,,,,,,,,,,,
,,,,,46,2020-07-04_15h47.08.301,retriever_ti,2020.1.3,Win32,60,Chrome,1366,768,,,,,,,,,,,,,,,,,2,,,,,,,,,,,,,,,,,,,,,,,,,,,1007.184675,103,right,clownfish     ,6,4,3,0.515245,1,3,1007.21909,1007.21909,1009.707425,0,25,25,25,1,103,3,6,redfox      ,clownfish     ,html/resources/sequences_IDs/B/01_redfox.jpg,html/resources/sequences_IDs/A/04_clownfish.jpg,1,4,1,1,2,1,1,3,0,46,,,,,,,,,,,,,,,,,,,,
,,,,,46,2020-07-04_15h47.08.301,retriever_ti,2020.1.3,Win32,60,Chrome,1366,768,,,,,,,,,,,,,,,,,2,,,,,,,,,,,,,,,,,,,,,,,,,,,1010.323655,104,right,camel         ,8,3,1,1.20759,1,1,1010.35868,1010.35868,1012.857135,0,26,26,26,1,104,7,8,phone       ,camel         ,html/resources/sequences_IDs/B/09_phone.jpg,html/resources/sequences_IDs/A/03_camel.jpg,9,3,4,2,1,1,7,2,0,46,,,,,,,,,,,,,,,,,,,,
,,,,,46,2020-07-04_15h47.08.301,retriever_ti,2020.1.3,Win32,60,Chrome,1366,768,,,,,,,,,,,,,,,,,2,,,,,,,,,,,,,,,,,,,,,,,,,,,1013.957525,105,left,parrot      ,1,5,-4,0.713505,0,3,1013.976,1013.976,1016.50649,0,27,27,27,1,105,1,5,parrot      ,sport_tshirt,html/resources/sequences_IDs/B/05_parrot.jpg,html/resources/sequences_IDs/B/07_sport_tshirt.jpg,5,7,2,1,3,2,4,6,0,46,,,,,,,,,,,,,,,,,,,,
,,,,,46,2020-07-04_15h47.08.301,retriever_ti,2020.1.3,Win32,60,Chrome,1366,768,,,,,,,,,,,,,,,,,2,,,,,,,,,,,,,,,,,,,,,,,,,,,1017.12508,106,right,clownfish     ,6,4,1,0.594835,1,1,1017.1429,1017.1429,1019.639665,0,28,28,28,1,106,5,6,sport_tshirt,clownfish     ,html/resources/sequences_IDs/B/07_sport_tshirt.jpg,html/resources/sequences_IDs/A/04_clownfish.jpg,7,4,3,2,2,1,6,3,0,46,,,,,,,,,,,,,,,,,,,,
,,,,,46,2020-07-04_15h47.08.301,retriever_ti,2020.1.3,Win32,60,Chrome,1366,768,,,,,,,,,,,,,,,,,2,,,,,,,,,,,,,,,,,,,,,,,,,,,1020.753015,107,left,sport_tshirt,5,7,1,0.870735001,1,1,1021.034255,1021.034255,1023.345565,0,29,29,29,1,107,5,4,sport_tshirt,satellite_dish,html/resources/sequences_IDs/B/07_sport_tshirt.jpg,html/resources/sequences_IDs/A/10_satellite_dish.jpg,7,10,3,2,4,2,6,8,0,46,,,,,,,,,,,,,,,,,,,,
,,,,,46,2020-07-04_15h47.08.301,retriever_ti,2020.1.3,Win32,60,Chrome,1366,768,,,,,,,,,,,,,,,,,2,,,,,,,,,,,,,,,,,,,,,,,,,,,1024.447395,108,right,camel         ,8,3,4,1.281515,1,3,1024.48523,1024.48523,1026.97684,0,30,30,30,1,108,4,8,satellite_dish,camel         ,html/resources/sequences_IDs/A/10_satellite_dish.jpg,html/resources/sequences_IDs/A/03_camel.jpg,10,3,4,2,1,1,8,2,0,46,,,,,,,,,,,,,,,,,,,,
,,,,,46,2020-07-04_15h47.08.301,retriever_ti,2020.1.3,Win32,60,Chrome,1366,768,,,,,,,,,,,,,,,,,2,,,,,,,,,,,,,,,,,,,,,,,,,,,1027.59158,109,left,camel         ,8,3,6,0.989435,1,3,1027.625775,1027.625775,1030.12617,0,31,31,31,1,109,8,2,camel         ,scarf         ,html/resources/sequences_IDs/A/03_camel.jpg,html/resources/sequences_IDs/A/06_scarf.jpg,3,6,1,1,3,2,2,5,0,46,,,,,,,,,,,,,,,,,,,,
,,,,,46,2020-07-04_15h47.08.301,retriever_ti,2020.1.3,Win32,60,Chrome,1366,768,,,,,,,,,,,,,,,,,2,,,,,,,,,,,,,,,,,,,,,,,,,,,1030.74466,110,left,sport_tshirt,5,7,4,0.826455,1,3,1030.761545,1030.761545,1033.26047,0,32,32,32,1,110,5,1,sport_tshirt,parrot      ,html/resources/sequences_IDs/B/07_sport_tshirt.jpg,html/resources/sequences_IDs/B/05_parrot.jpg,7,5,3,2,2,1,6,4,0,46,,,,,,,,,,,,,,,,,,,,
,,,,,46,2020-07-04_15h47.08.301,retriever_ti,2020.1.3,Win32,60,Chrome,1366,768,,,,,,,,,,,,,,,,,2,,,,,,,,,,,,,,,,,,,,,,,,,,,1033.877375,111,left,phone       ,7,9,5,1.140325001,1,3,1033.91118,1033.91118,1036.4149,0,33,33,33,1,111,7,2,phone       ,scarf         ,html/resources/sequences_IDs/B/09_phone.jpg,html/resources/sequences_IDs/A/06_scarf.jpg,9,6,4,2,3,2,7,5,0,46,,,,,,,,,,,,,,,,,,,,
,,,,,46,2020-07-04_15h47.08.301,retriever_ti,2020.1.3,Win32,60,Chrome,1366,768,,,,,,,,,,,,,,,,,2,,,,,,,,,,,,,,,,,,,,,,,,,,,1037.03327,112,left,camel         ,8,3,7,1.678365,1,3,1037.050915,1037.050915,1039.545285,0,34,34,34,1,112,8,1,camel         ,parrot      ,html/resources/sequences_IDs/A/03_camel.jpg,html/resources/sequences_IDs/B/05_parrot.jpg,3,5,1,1,2,1,2,4,0,46,,,,,,,,,,,,,,,,,,,,
,,,,,46,2020-07-04_15h47.08.301,retriever_ti,2020.1.3,Win32,60,Chrome,1366,768,,,,,,,,,,,,,,,,,2,,,,,,,,,,,,,,,,,,,,,,,,,,,1040.159045,113,right,satellite_dish,4,10,-1,1.0151,0,0,1040.6855,1040.6855,1043.20586,0,35,35,35,1,113,5,4,sport_tshirt,satellite_dish,html/resources/sequences_IDs/B/07_sport_tshirt.jpg,html/resources/sequences_IDs/A/10_satellite_dish.jpg,7,10,3,2,4,2,6,8,0,46,,,,,,,,,,,,,,,,,,,,
,,,,,46,2020-07-04_15h47.08.301,retriever_ti,2020.1.3,Win32,60,Chrome,1366,768,,,,,,,,,,,,,,,,,2,,,,,,,,,,,,,,,,,,,,,,,,,,,1044.304895,114,NaN,No_response,NaN,NaN,NaN,NaN,2,2,1045.988665,1045.988665,1048.624625,0,36,36,36,1,114,3,2,redfox      ,scarf         ,html/resources/sequences_IDs/B/01_redfox.jpg,html/resources/sequences_IDs/A/06_scarf.jpg,1,6,1,1,3,2,1,5,0,46,,,,,,,,,,,,,,,,,,,,
,,,,,46,2020-07-04_15h47.08.301,retriever_ti,2020.1.3,Win32,60,Chrome,1366,768,,,,,,,,,,,,,,,,,2,,,,,,,,,,,,,,,,,,,,,,,,,,,1049.719295,115,left,clownfish     ,6,4,-1,0.85854,0,0,1049.753675,1049.753675,1052.25287,0,37,37,37,1,115,6,7,clownfish     ,phone       ,html/resources/sequences_IDs/A/04_clownfish.jpg,html/resources/sequences_IDs/B/09_phone.jpg,4,9,2,1,4,2,3,7,0,46,,,,,,,,,,,,,,,,,,,,
,,,,,46,2020-07-04_15h47.08.301,retriever_ti,2020.1.3,Win32,60,Chrome,1366,768,,,,,,,,,,,,,,,,,2,,,,,,,,,,,,,,,,,,,,,,,,,,,1053.351695,116,left,clownfish     ,6,4,3,0.695555001,1,3,1053.368795,1053.368795,1055.867345,0,38,38,38,1,116,6,3,clownfish     ,redfox      ,html/resources/sequences_IDs/A/04_clownfish.jpg,html/resources/sequences_IDs/B/01_redfox.jpg,4,1,2,1,1,1,3,1,0,46,,,,,,,,,,,,,,,,,,,,
,,,,,46,2020-07-04_15h47.08.301,retriever_ti,2020.1.3,Win32,60,Chrome,1366,768,,,,,,,,,,,,,,,,,2,,,,,,,,,,,,,,,,,,,,,,,,,,,1056.47231,117,right,satellite_dish,4,10,1,1.111845,1,0,1056.504085,1056.504085,1058.99749,0,39,39,39,1,117,3,4,redfox      ,satellite_dish,html/resources/sequences_IDs/B/01_redfox.jpg,html/resources/sequences_IDs/A/10_satellite_dish.jpg,1,10,1,1,4,2,1,8,1,46,,,,,,,,,,,,,,,,,,,,
,,,,,46,2020-07-04_15h47.08.301,retriever_ti,2020.1.3,Win32,60,Chrome,1366,768,,,,,,,,,,,,,,,,,2,,,,,,,,,,,,,,,,,,,,,,,,,,,1060.086875,118,right,clownfish     ,6,4,2,0.588445,1,3,1060.120205,1060.120205,1063.60429,0,40,40,40,1,118,4,6,satellite_dish,clownfish     ,html/resources/sequences_IDs/A/10_satellite_dish.jpg,html/resources/sequences_IDs/A/04_clownfish.jpg,10,4,4,2,2,1,8,3,0,46,,,,,,,,,,,,,,,,,,,,
,,,,,46,2020-07-04_15h47.08.301,retriever_ti,2020.1.3,Win32,60,Chrome,1366,768,,,,,,,,,,,,,,,,,2,,,,,,,,,,,,,,,,,,,,,,,,,,,1071.45786,119,NaN,No_response,NaN,NaN,NaN,NaN,2,2,1071.7082,1071.7082,1081.069655,0,41,41,41,1,119,1,6,parrot      ,clownfish     ,html/resources/sequences_IDs/B/05_parrot.jpg,html/resources/sequences_IDs/A/04_clownfish.jpg,5,4,2,1,2,1,4,3,0,46,,,,,,,,,,,,,,,,,,,,
,,,,,46,2020-07-04_15h47.08.301,retriever_ti,2020.1.3,Win32,60,Chrome,1366,768,,,,,,,,,,,,,,,,,2,,,,,,,,,,,,,,,,,,,,,,,,,,,1082.16169,120,right,sport_tshirt,5,7,1,1.197555,1,1,1082.181575,1082.181575,1084.67745,0,42,42,42,1,120,4,5,satellite_dish,sport_tshirt,html/resources/sequences_IDs/A/10_satellite_dish.jpg,html/resources/sequences_IDs/B/07_sport_tshirt.jpg,10,7,4,2,3,2,8,6,0,46,,,,,,,,,,,,,,,,,,,,
,,,,,46,2020-07-04_15h47.08.301,retriever_ti,2020.1.3,Win32,60,Chrome,1366,768,,,,,,,,,,,,,,,,,2,,,,,,,,,,,,,,,,,,,,,,,,,,,1085.780525,121,left,clownfish     ,6,4,-1,0.560710001,0,1,1085.816845,1085.816845,1088.313165,0,43,43,43,1,121,6,7,clownfish     ,phone       ,html/resources/sequences_IDs/A/04_clownfish.jpg,html/resources/sequences_IDs/B/09_phone.jpg,4,9,2,1,4,2,3,7,1,46,,,,,,,,,,,,,,,,,,,,
,,,,,46,2020-07-04_15h47.08.301,retriever_ti,2020.1.3,Win32,60,Chrome,1366,768,,,,,,,,,,,,,,,,,2,,,,,,,,,,,,,,,,,,,,,,,,,,,1089.41299,122,left,clownfish     ,6,4,-1,0.496615,0,0,1089.430795,1089.430795,1091.93,0,44,44,44,1,122,6,7,clownfish     ,phone       ,html/resources/sequences_IDs/A/04_clownfish.jpg,html/resources/sequences_IDs/B/09_phone.jpg,4,9,2,1,4,2,3,7,0,46,,,,,,,,,,,,,,,,,,,,
,,,,,46,2020-07-04_15h47.08.301,retriever_ti,2020.1.3,Win32,60,Chrome,1366,768,,,,,,,,,,,,,,,,,2,,,,,,,,,,,,,,,,,,,,,,,,,,,1093.031935,123,right,clownfish     ,6,4,4,0.584385,1,3,1093.068155,1093.068155,1095.56416,0,45,45,45,1,123,2,6,scarf         ,clownfish     ,html/resources/sequences_IDs/A/06_scarf.jpg,html/resources/sequences_IDs/A/04_clownfish.jpg,6,4,3,2,2,1,5,3,0,46,,,,,,,,,,,,,,,,,,,,
,,,,,46,2020-07-04_15h47.08.301,retriever_ti,2020.1.3,Win32,60,Chrome,1366,768,,,,,,,,,,,,,,,,,2,,,,,,,,,,,,,,,,,,,,,,,,,,,1096.168105,124,NaN,No_response,NaN,NaN,NaN,NaN,2,2,1096.200005,1096.200005,1099.41528,0,46,46,46,1,124,7,5,phone       ,sport_tshirt,html/resources/sequences_IDs/B/09_phone.jpg,html/resources/sequences_IDs/B/07_sport_tshirt.jpg,9,7,4,2,3,2,7,6,0,46,,,,,,,,,,,,,,,,,,,,
,,,,,46,2020-07-04_15h47.08.301,retriever_ti,2020.1.3,Win32,60,Chrome,1366,768,,,,,,,,,,,,,,,,,2,,,,,,,,,,,,,,,,,,,,,,,,,,,1100.519765,125,left,scarf         ,2,6,-5,1.00217,0,3,1100.553495,1100.553495,1103.04982,0,47,47,47,1,125,2,7,scarf         ,phone       ,html/resources/sequences_IDs/A/06_scarf.jpg,html/resources/sequences_IDs/B/09_phone.jpg,6,9,3,2,4,2,5,7,0,46,,,,,,,,,,,,,,,,,,,,
,,,,,46,2020-07-04_15h47.08.301,retriever_ti,2020.1.3,Win32,60,Chrome,1366,768,,,,,,,,,,,,,,,,,2,,,,,,,,,,,,,,,,,,,,,,,,,,,1103.652635,126,left,clownfish     ,6,4,5,0.64009,1,3,1103.69132,1103.69132,1106.18434,0,48,48,48,1,126,6,1,clownfish     ,parrot      ,html/resources/sequences_IDs/A/04_clownfish.jpg,html/resources/sequences_IDs/B/05_parrot.jpg,4,5,2,1,2,1,3,4,0,46,,,,,,,,,,,,,,,,,,,,
,,,,,46,2020-07-04_15h47.08.301,retriever_ti,2020.1.3,Win32,60,Chrome,1366,768,,,,,,,,,,,,,,,,,2,,,,,,,,,,,,,,,,,,,,,,,,,,,1106.989005,127,right,scarf         ,2,6,-2,0.735885,0,3,1107.039675,1107.039675,1109.525065,0,49,49,49,1,127,4,2,satellite_dish,scarf         ,html/resources/sequences_IDs/A/10_satellite_dish.jpg,html/resources/sequences_IDs/A/06_scarf.jpg,10,6,4,2,3,2,8,5,0,46,,,,,,,,,,,,,,,,,,,,
,,,,,46,2020-07-04_15h47.08.301,retriever_ti,2020.1.3,Win32,60,Chrome,1366,768,,,,,,,,,,,,,,,,,2,,,,,,,,,,,,,,,,,,,,,,,,,,,1110.13904,128,left,parrot      ,1,5,-3,1.07243,0,3,1110.167835,1110.167835,1112.658495,0,50,50,50,1,128,1,4,parrot      ,satellite_dish,html/resources/sequences_IDs/B/05_parrot.jpg,html/resources/sequences_IDs/A/10_satellite_dish.jpg,5,10,2,1,4,2,4,8,0,46,,,,,,,,,,,,,,,,,,,,
,,,,,46,2020-07-04_15h47.08.301,retriever_ti,2020.1.3,Win32,60,Chrome,1366,768,,,,,,,,,,,,,,,,,2,,,,,,,,,,,,,,,,,,,,,,,,,,,1113.275935,129,right,sport_tshirt,5,7,2,0.73156,1,3,1113.316495,1113.316495,1115.81564,0,51,51,51,1,129,3,5,redfox      ,sport_tshirt,html/resources/sequences_IDs/B/01_redfox.jpg,html/resources/sequences_IDs/B/07_sport_tshirt.jpg,1,7,1,1,3,2,1,6,0,46,,,,,,,,,,,,,,,,,,,,
,,,,,46,2020-07-04_15h47.08.301,retriever_ti,2020.1.3,Win32,60,Chrome,1366,768,,,,,,,,,,,,,,,,,2,,,,,,,,,,,,,,,,,,,,,,,,,,,1116.423195,130,right,sport_tshirt,5,7,-1,0.69648,0,1,1116.525505,1116.525505,1119.022575,0,52,52,52,1,130,6,5,clownfish     ,sport_tshirt,html/resources/sequences_IDs/A/04_clownfish.jpg,html/resources/sequences_IDs/B/07_sport_tshirt.jpg,4,7,2,1,3,2,3,6,1,46,,,,,,,,,,,,,,,,,,,,
,,,,,46,2020-07-04_15h47.08.301,retriever_ti,2020.1.3,Win32,60,Chrome,1366,768,,,,,,,,,,,,,,,,,2,,,,,,,,,,,,,,,,,,,,,,,,,,,1120.123945,131,right,parrot      ,1,5,-3,1.4085,0,3,1120.141275,1120.141275,1122.658645,0,53,53,53,1,131,4,1,satellite_dish,parrot      ,html/resources/sequences_IDs/A/10_satellite_dish.jpg,html/resources/sequences_IDs/B/05_parrot.jpg,10,5,4,2,2,1,8,4,0,46,,,,,,,,,,,,,,,,,,,,
,,,,,46,2020-07-04_15h47.08.301,retriever_ti,2020.1.3,Win32,60,Chrome,1366,768,,,,,,,,,,,,,,,,,2,,,,,,,,,,,,,,,,,,,,,,,,,,,1123.27477,132,right,redfox      ,3,1,-4,1.18609,0,3,1123.31054,1123.31054,1125.807725,0,54,54,54,1,132,7,3,phone       ,redfox      ,html/resources/sequences_IDs/B/09_phone.jpg,html/resources/sequences_IDs/B/01_redfox.jpg,9,1,4,2,1,1,7,1,0,46,,,,,,,,,,,,,,,,,,,,
,,,,,46,2020-07-04_15h47.08.301,retriever_ti,2020.1.3,Win32,60,Chrome,1366,768,,,,,,,,,,,,,,,,,2,,,,,,,,,,,,,,,,,,,,,,,,,,,1126.410305,133,left,camel         ,8,3,5,0.713275,1,3,1126.427435,1126.427435,1128.925405,0,55,55,55,1,133,8,3,camel         ,redfox      ,html/resources/sequences_IDs/A/03_camel.jpg,html/resources/sequences_IDs/B/01_redfox.jpg,3,1,1,1,1,1,2,1,0,46,,,,,,,,,,,,,,,,,,,,
,,,,,46,2020-07-04_15h47.08.301,retriever_ti,2020.1.3,Win32,60,Chrome,1366,768,,,,,,,,,,,,,,,,,2,,,,,,,,,,,,,,,,,,,,,,,,,,,1129.526985,134,right,phone       ,7,9,3,0.775280001,1,3,1129.54638,1129.54638,1132.04027,0,56,56,56,1,134,4,7,satellite_dish,phone       ,html/resources/sequences_IDs/A/10_satellite_dish.jpg,html/resources/sequences_IDs/B/09_phone.jpg,10,9,4,2,4,2,8,7,0,46,,,,,,,,,,,,,,,,,,,,
,,,,,46,2020-07-04_15h47.08.301,retriever_ti,2020.1.3,Win32,60,Chrome,1366,768,,,,,,,,,,,,,,,,,2,,,,,,,,,,,,,,,,,,,,,,,,,,,1132.64547,135,right,satellite_dish,4,10,1,0.547429999,1,1,1132.666275,1132.666275,1135.16169,0,57,57,57,1,135,3,4,redfox      ,satellite_dish,html/resources/sequences_IDs/B/01_redfox.jpg,html/resources/sequences_IDs/A/10_satellite_dish.jpg,1,10,1,1,4,2,1,8,0,46,,,,,,,,,,,,,,,,,,,,
,,,,,46,2020-07-04_15h47.08.301,retriever_ti,2020.1.3,Win32,60,Chrome,1366,768,,,,,,,,,,,,,,,,,2,,,,,,,,,,,,,,,,,,,,,,,,,,,1136.26468,136,right,camel         ,8,3,7,0.674735,1,3,1136.29763,1136.29763,1138.98008,0,58,58,58,1,136,1,8,parrot      ,camel         ,html/resources/sequences_IDs/B/05_parrot.jpg,html/resources/sequences_IDs/A/03_camel.jpg,5,3,2,1,1,1,4,2,0,46,,,,,,,,,,,,,,,,,,,,
,,,,,46,2020-07-04_15h47.08.301,retriever_ti,2020.1.3,Win32,60,Chrome,1366,768,,,,,,,,,,,,,,,,,2,,,,,,,,,,,,,,,,,,,,,,,,,,,1139.58396,137,right,satellite_dish,4,10,-1,1.193384999,0,1,1139.618955,1139.618955,1142.113205,0,59,59,59,1,137,5,4,sport_tshirt,satellite_dish,html/resources/sequences_IDs/B/07_sport_tshirt.jpg,html/resources/sequences_IDs/A/10_satellite_dish.jpg,7,10,3,2,4,2,6,8,1,46,,,,,,,,,,,,,,,,,,,,
,,,,,46,2020-07-04_15h47.08.301,retriever_ti,2020.1.3,Win32,60,Chrome,1366,768,,,,,,,,,,,,,,,,,2,,,,,,,,,,,,,,,,,,,,,,,,,,,1143.217465,138,left,redfox      ,3,1,-4,0.670905,0,3,1143.236055,1143.236055,1145.732055,0,60,60,60,1,138,3,7,redfox      ,phone       ,html/resources/sequences_IDs/B/01_redfox.jpg,html/resources/sequences_IDs/B/09_phone.jpg,1,9,1,1,4,2,1,7,0,46,,,,,,,,,,,,,,,,,,,,
,,,,,46,2020-07-04_15h47.08.301,retriever_ti,2020.1.3,Win32,60,Chrome,1366,768,,,,,,,,,,,,,,,,,2,,,,,,,,,,,,,,,,,,,,,,,,,,,1146.351375,139,left,phone       ,7,9,6,0.661774999,1,3,1146.36766,1146.36766,1148.866485,0,61,61,61,1,139,7,1,phone       ,parrot      ,html/resources/sequences_IDs/B/09_phone.jpg,html/resources/sequences_IDs/B/05_parrot.jpg,9,5,4,2,2,1,7,4,0,46,,,,,,,,,,,,,,,,,,,,
,,,,,46,2020-07-04_15h47.08.301,retriever_ti,2020.1.3,Win32,60,Chrome,1366,768,,,,,,,,,,,,,,,,,2,,,,,,,,,,,,,,,,,,,,,,,,,,,1149.48477,140,right,clownfish     ,6,4,-1,0.582900001,0,0,1149.504255,1149.504255,1152.00084,0,62,62,62,1,140,7,6,phone       ,clownfish     ,html/resources/sequences_IDs/B/09_phone.jpg,html/resources/sequences_IDs/A/04_clownfish.jpg,9,4,4,2,2,1,7,3,0,46,,,,,,,,,,,,,,,,,,,,
,,,,,46,2020-07-04_15h47.08.301,retriever_ti,2020.1.3,Win32,60,Chrome,1366,768,,,,,,,,,,,,,,,,,2,,,,,,,,,,,,,,,,,,,,,,,,,,,1153.10331,141,NaN,No_response,NaN,NaN,NaN,NaN,2,2,1153.122575,1153.122575,1158.562145,0,63,63,63,1,141,2,5,scarf         ,sport_tshirt,html/resources/sequences_IDs/A/06_scarf.jpg,html/resources/sequences_IDs/B/07_sport_tshirt.jpg,6,7,3,2,3,2,5,6,0,46,,,,,,,,,,,,,,,,,,,,
,,,,,46,2020-07-04_15h47.08.301,retriever_ti,2020.1.3,Win32,60,Chrome,1366,768,,,,,,,,,,,,,,,,,2,,,,,,,,,,,,,,,,,,,,,,,,,,,1160.263665,142,NaN,No_response,NaN,NaN,NaN,NaN,2,2,1162.39023,1162.39023,1164.87073,0,64,64,64,1,142,8,7,camel         ,phone       ,html/resources/sequences_IDs/A/03_camel.jpg,html/resources/sequences_IDs/B/09_phone.jpg,3,9,1,1,4,2,2,7,1,46,,,,,,,,,,,,,,,,,,,,
,,,,,46,2020-07-04_15h47.08.301,retriever_ti,2020.1.3,Win32,60,Chrome,1366,768,,,,,,,,,,,,,,,,,2,,,,,,,,,,,,,,,,,,,,,,,,,,,1166.79483,143,right,phone       ,7,9,-1,0.00354,0,0,1168.922835,1168.922835,1171.359365,0,65,65,65,1,143,8,7,camel         ,phone       ,html/resources/sequences_IDs/A/03_camel.jpg,html/resources/sequences_IDs/B/09_phone.jpg,3,9,1,1,4,2,2,7,0,46,,,,,,,,,,,,,,,,,,,,
,,,,,46,2020-07-04_15h47.08.301,retriever_ti,2020.1.3,Win32,60,Chrome,1366,768,,,,,,,,,,,,,,,,,2,,,,,,,,,,,,,,,,,,,,,,,,,,,1172.449535,144,NaN,No_response,NaN,NaN,NaN,NaN,2,2,1172.465775,1172.465775,1174.96536,0,66,66,66,1,144,4,5,satellite_dish,sport_tshirt,html/resources/sequences_IDs/A/10_satellite_dish.jpg,html/resources/sequences_IDs/B/07_sport_tshirt.jpg,10,7,4,2,3,2,8,6,0,46,,,,,,,,,,,,,,,,,,,,
,,,,,46,2020-07-04_15h47.08.301,retriever_ti,2020.1.3,Win32,60,Chrome,1366,768,,,,,,,,,,,,,,,,,2,,,,,,,,,,,,,,,,,,,,,,,,,,,1176.07751,145,right,camel         ,8,3,3,0.861695,1,3,1176.112215,1176.112215,1178.608985,0,67,67,67,1,145,5,8,sport_tshirt,camel         ,html/resources/sequences_IDs/B/07_sport_tshirt.jpg,html/resources/sequences_IDs/A/03_camel.jpg,7,3,3,2,1,1,6,2,0,46,,,,,,,,,,,,,,,,,,,,
,,,,,46,2020-07-04_15h47.08.301,retriever_ti,2020.1.3,Win32,60,Chrome,1366,768,,,,,,,,,,,,,,,,,2,,,,,,,,,,,,,,,,,,,,,,,,,,,1179.228345,146,NaN,No_response,NaN,NaN,NaN,NaN,2,2,1179.244095,1179.244095,1181.809855,0,68,68,68,1,146,3,2,redfox      ,scarf         ,html/resources/sequences_IDs/B/01_redfox.jpg,html/resources/sequences_IDs/A/06_scarf.jpg,1,6,1,1,3,2,1,5,1,46,,,,,,,,,,,,,,,,,,,,
,,,,,46,2020-07-04_15h47.08.301,retriever_ti,2020.1.3,Win32,60,Chrome,1366,768,,,,,,,,,,,,,,,,,2,,,,,,,,,,,,,,,,,,,,,,,,,,,1182.91124,147,right,clownfish     ,6,4,-1,0.40149,0,0,1182.947085,1182.947085,1185.444375,0,69,69,69,1,147,7,6,phone       ,clownfish     ,html/resources/sequences_IDs/B/09_phone.jpg,html/resources/sequences_IDs/A/04_clownfish.jpg,9,4,4,2,2,1,7,3,0,46,,,,,,,,,,,,,,,,,,,,
,,,,,46,2020-07-04_15h47.08.301,retriever_ti,2020.1.3,Win32,60,Chrome,1366,768,,,,,,,,,,,,,,,,,2,,,,,,,,,,,,,,,,,,,,,,,,,,,1186.57874,148,right,phone       ,7,9,2,0.52271,1,3,1186.618865,1186.618865,1189.112095,0,70,70,70,1,148,5,7,sport_tshirt,phone       ,html/resources/sequences_IDs/B/07_sport_tshirt.jpg,html/resources/sequences_IDs/B/09_phone.jpg,7,9,3,2,4,2,6,7,0,46,,,,,,,,,,,,,,,,,,,,
,,,,,46,2020-07-04_15h47.08.301,retriever_ti,2020.1.3,Win32,60,Chrome,1366,768,,,,,,,,,,,,,,,,,2,,,,,,,,,,,,,,,,,,,,,,,,,,,1189.71337,149,left,clownfish     ,6,4,1,0.984655,1,1,1189.731965,1189.731965,1192.23068,0,71,71,71,1,149,6,5,clownfish     ,sport_tshirt,html/resources/sequences_IDs/A/04_clownfish.jpg,html/resources/sequences_IDs/B/07_sport_tshirt.jpg,4,7,2,1,3,2,3,6,0,46,,,,,,,,,,,,,,,,,,,,
,,,,,46,2020-07-04_15h47.08.301,retriever_ti,2020.1.3,Win32,60,Chrome,1366,768,,,,,,,,,,,,,,,,,2,,,,,,,,,,,,,,,,,,,,,,,,,,,1193.33265,150,left,camel         ,8,3,3,0.937965,1,3,1193.367215,1193.367215,1195.86546,0,72,72,72,1,150,8,5,camel         ,sport_tshirt,html/resources/sequences_IDs/A/03_camel.jpg,html/resources/sequences_IDs/B/07_sport_tshirt.jpg,3,7,1,1,3,2,2,6,0,46,,,,,,,,,,,,,,,,,,,,
,,,,,46,2020-07-04_15h47.08.301,retriever_ti,2020.1.3,Win32,60,Chrome,1366,768,,,,,,,,,,,,,,,,,2,,,,,,,,,,,,,,,,,,,,,,,,,,,1196.48327,151,left,camel         ,8,3,1,0.580335001,1,1,1196.516715,1196.516715,1199.035905,0,73,73,73,1,151,8,7,camel         ,phone       ,html/resources/sequences_IDs/A/03_camel.jpg,html/resources/sequences_IDs/B/09_phone.jpg,3,9,1,1,4,2,2,7,0,46,,,,,,,,,,,,,,,,,,,,
,,,,,46,2020-07-04_15h47.08.301,retriever_ti,2020.1.3,Win32,60,Chrome,1366,768,,,,,,,,,,,,,,,,,2,,,,,,,,,,,,,,,,,,,,,,,,,,,1200.134765,152,left,camel         ,8,3,2,1.03374,1,3,1200.159525,1200.159525,1202.651015,0,74,74,74,1,152,8,6,camel         ,clownfish     ,html/resources/sequences_IDs/A/03_camel.jpg,html/resources/sequences_IDs/A/04_clownfish.jpg,3,4,1,1,2,1,2,3,0,46,,,,,,,,,,,,,,,,,,,,
,,,,,46,2020-07-04_15h47.08.301,retriever_ti,2020.1.3,Win32,60,Chrome,1366,768,,,,,,,,,,,,,,,,,2,,,,,,,,,,,,,,,,,,,,,,,,,,,1203.2689,153,left,camel         ,8,3,4,0.77357,1,3,1203.302255,1203.302255,1205.801435,0,75,75,75,1,153,8,4,camel         ,satellite_dish,html/resources/sequences_IDs/A/03_camel.jpg,html/resources/sequences_IDs/A/10_satellite_dish.jpg,3,10,1,1,4,2,2,8,0,46,,,,,,,,,,,,,,,,,,,,
,,,,,46,2020-07-04_15h47.08.301,retriever_ti,2020.1.3,Win32,60,Chrome,1366,768,,,,,,,,,,,,,,,,,2,,,,,,,,,,,,,,,,,,,,,,,,,,,1206.4187,154,right,camel         ,8,3,5,0.909295,1,3,1206.45486,1206.45486,1208.95343,0,76,76,76,1,154,3,8,redfox      ,camel         ,html/resources/sequences_IDs/B/01_redfox.jpg,html/resources/sequences_IDs/A/03_camel.jpg,1,3,1,1,1,1,1,2,0,46,,,,,,,,,,,,,,,,,,,,
,,,,,46,2020-07-04_15h47.08.301,retriever_ti,2020.1.3,Win32,60,Chrome,1366,768,,,,,,,,,,,,,,,,,,,,,,,,,,,,,,,,,,,,,0,5.486585,,,,,,,,,,,,,,,,,,,,,,,,,,,,,,,,,,,,,,,,,1,0,1,0,1,,,,,,,,,,,,,,,
,,,,,46,2020-07-04_15h47.08.301,retriever_ti,2020.1.3,Win32,60,Chrome,1366,768,,,,,,,,,,,,,,,,,3,,,,,,,,,,,,,,,,,,,,,,,,,,,1230.730875,155,NaN,No_response,NaN,NaN,NaN,NaN,2,2,1230.95787,1230.95787,1236.441975,0,0,0,0,1,155,8,1,camel         ,parrot      ,html/resources/sequences_IDs/A/03_camel.jpg,html/resources/sequences_IDs/B/05_parrot.jpg,3,5,1,1,2,1,2,4,0,46,,,,,,,,,,,,,,,,,,,,
,,,,,46,2020-07-04_15h47.08.301,retriever_ti,2020.1.3,Win32,60,Chrome,1366,768,,,,,,,,,,,,,,,,,3,,,,,,,,,,,,,,,,,,,,,,,,,,,1237.54048,156,left,camel         ,8,3,3,0.358535,1,3,1237.563635,1237.563635,1240.046315,0,1,1,1,1,156,8,5,camel         ,sport_tshirt,html/resources/sequences_IDs/A/03_camel.jpg,html/resources/sequences_IDs/B/07_sport_tshirt.jpg,3,7,1,1,3,2,2,6,0,46,,,,,,,,,,,,,,,,,,,,
,,,,,46,2020-07-04_15h47.08.301,retriever_ti,2020.1.3,Win32,60,Chrome,1366,768,,,,,,,,,,,,,,,,,3,,,,,,,,,,,,,,,,,,,,,,,,,,,1240.65043,157,left,camel         ,8,3,4,0.401734999,1,3,1240.66723,1240.66723,1243.16391,0,2,2,2,1,157,8,4,camel         ,satellite_dish,html/resources/sequences_IDs/A/03_camel.jpg,html/resources/sequences_IDs/A/10_satellite_dish.jpg,3,10,1,1,4,2,2,8,0,46,,,,,,,,,,,,,,,,,,,,
,,,,,46,2020-07-04_15h47.08.301,retriever_ti,2020.1.3,Win32,60,Chrome,1366,768,,,,,,,,,,,,,,,,,3,,,,,,,,,,,,,,,,,,,,,,,,,,,1243.78121,158,left,phone       ,7,9,4,0.928540001,1,3,1243.80014,1243.80014,1246.29891,0,3,3,3,1,158,7,3,phone       ,redfox      ,html/resources/sequences_IDs/B/09_phone.jpg,html/resources/sequences_IDs/B/01_redfox.jpg,9,1,4,2,1,1,7,1,0,46,,,,,,,,,,,,,,,,,,,,
,,,,,46,2020-07-04_15h47.08.301,retriever_ti,2020.1.3,Win32,60,Chrome,1366,768,,,,,,,,,,,,,,,,,3,,,,,,,,,,,,,,,,,,,,,,,,,,,1246.91691,159,right,sport_tshirt,5,7,1,1.400475,1,0,1246.935205,1246.935205,1249.43306,0,4,4,4,1,159,4,5,satellite_dish,sport_tshirt,html/resources/sequences_IDs/A/10_satellite_dish.jpg,html/resources/sequences_IDs/B/07_sport_tshirt.jpg,10,7,4,2,3,2,8,6,1,46,,,,,,,,,,,,,,,,,,,,
,,,,,46,2020-07-04_15h47.08.301,retriever_ti,2020.1.3,Win32,60,Chrome,1366,768,,,,,,,,,,,,,,,,,3,,,,,,,,,,,,,,,,,,,,,,,,,,,1250.53444,160,right,parrot      ,1,5,-2,0.864775,0,3,1250.551855,1250.551855,1253.050625,0,5,5,5,1,160,3,1,redfox      ,parrot      ,html/resources/sequences_IDs/B/01_redfox.jpg,html/resources/sequences_IDs/B/05_parrot.jpg,1,5,1,1,2,1,1,4,0,46,,,,,,,,,,,,,,,,,,,,
,,,,,46,2020-07-04_15h47.08.301,retriever_ti,2020.1.3,Win32,60,Chrome,1366,768,,,,,,,,,,,,,,,,,3,,,,,,,,,,,,,,,,,,,,,,,,,,,1253.65371,161,right,scarf         ,2,6,-3,0.914065001,0,3,1253.69235,1253.69235,1256.18595,0,6,6,6,1,161,5,2,sport_tshirt,scarf         ,html/resources/sequences_IDs/B/07_sport_tshirt.jpg,html/resources/sequences_IDs/A/06_scarf.jpg,7,6,3,2,3,2,6,5,0,46,,,,,,,,,,,,,,,,,,,,
,,,,,46,2020-07-04_15h47.08.301,retriever_ti,2020.1.3,Win32,60,Chrome,1366,768,,,,,,,,,,,,,,,,,3,,,,,,,,,,,,,,,,,,,,,,,,,,,1256.804625,162,right,phone       ,7,9,6,1.538539999,1,3,1256.823405,1256.823405,1259.31919,0,7,7,7,1,162,1,7,parrot      ,phone       ,html/resources/sequences_IDs/B/05_parrot.jpg,html/resources/sequences_IDs/B/09_phone.jpg,5,9,2,1,4,2,4,7,0,46,,,,,,,,,,,,,,,,,,,,
,,,,,46,2020-07-04_15h47.08.301,retriever_ti,2020.1.3,Win32,60,Chrome,1366,768,,,,,,,,,,,,,,,,,3,,,,,,,,,,,,,,,,,,,,,,,,,,,1259.92222,163,right,clownfish     ,6,4,3,0.723465,1,3,1259.959255,1259.959255,1262.454275,0,8,8,8,1,163,3,6,redfox      ,clownfish     ,html/resources/sequences_IDs/B/01_redfox.jpg,html/resources/sequences_IDs/A/04_clownfish.jpg,1,4,1,1,2,1,1,3,0,46,,,,,,,,,,,,,,,,,,,,
,,,,,46,2020-07-04_15h47.08.301,retriever_ti,2020.1.3,Win32,60,Chrome,1366,768,,,,,,,,,,,,,,,,,3,,,,,,,,,,,,,,,,,,,,,,,,,,,1263.05601,164,right,clownfish     ,6,4,1,0.56076,1,1,1263.07536,1263.07536,1265.57184,0,9,9,9,1,164,5,6,sport_tshirt,clownfish     ,html/resources/sequences_IDs/B/07_sport_tshirt.jpg,html/resources/sequences_IDs/A/04_clownfish.jpg,7,4,3,2,2,1,6,3,0,46,,,,,,,,,,,,,,,,,,,,
,,,,,46,2020-07-04_15h47.08.301,retriever_ti,2020.1.3,Win32,60,Chrome,1366,768,,,,,,,,,,,,,,,,,3,,,,,,,,,,,,,,,,,,,,,,,,,,,1266.674555,165,right,redfox      ,3,1,-1,1.311865,0,0,1266.71214,1266.71214,1269.206405,0,10,10,10,1,165,4,3,satellite_dish,redfox      ,html/resources/sequences_IDs/A/10_satellite_dish.jpg,html/resources/sequences_IDs/B/01_redfox.jpg,10,1,4,2,1,1,8,1,0,46,,,,,,,,,,,,,,,,,,,,
,,,,,46,2020-07-04_15h47.08.301,retriever_ti,2020.1.3,Win32,60,Chrome,1366,768,,,,,,,,,,,,,,,,,3,,,,,,,,,,,,,,,,,,,,,,,,,,,1270.308445,166,left,camel         ,8,3,1,0.984585,1,1,1270.342435,1270.342435,1272.83966,0,11,11,11,1,166,8,7,camel         ,phone       ,html/resources/sequences_IDs/A/03_camel.jpg,html/resources/sequences_IDs/B/09_phone.jpg,3,9,1,1,4,2,2,7,0,46,,,,,,,,,,,,,,,,,,,,
,,,,,46,2020-07-04_15h47.08.301,retriever_ti,2020.1.3,Win32,60,Chrome,1366,768,,,,,,,,,,,,,,,,,3,,,,,,,,,,,,,,,,,,,,,,,,,,,1273.941815,167,left,clownfish     ,6,4,2,0.871075,1,3,1273.9587,1273.9587,1276.45922,0,12,12,12,1,167,6,4,clownfish     ,satellite_dish,html/resources/sequences_IDs/A/04_clownfish.jpg,html/resources/sequences_IDs/A/10_satellite_dish.jpg,4,10,2,1,4,2,3,8,0,46,,,,,,,,,,,,,,,,,,,,
,,,,,46,2020-07-04_15h47.08.301,retriever_ti,2020.1.3,Win32,60,Chrome,1366,768,,,,,,,,,,,,,,,,,3,,,,,,,,,,,,,,,,,,,,,,,,,,,1277.076105,168,left,clownfish     ,6,4,-1,0.77898,0,0,1277.095375,1277.095375,1279.593715,0,13,13,13,1,168,6,7,clownfish     ,phone       ,html/resources/sequences_IDs/A/04_clownfish.jpg,html/resources/sequences_IDs/B/09_phone.jpg,4,9,2,1,4,2,3,7,0,46,,,,,,,,,,,,,,,,,,,,
,,,,,46,2020-07-04_15h47.08.301,retriever_ti,2020.1.3,Win32,60,Chrome,1366,768,,,,,,,,,,,,,,,,,3,,,,,,,,,,,,,,,,,,,,,,,,,,,1280.698005,169,right,camel         ,8,3,1,1.38885,1,0,1280.73137,1280.73137,1283.2277,0,14,14,14,1,169,7,8,phone       ,camel         ,html/resources/sequences_IDs/B/09_phone.jpg,html/resources/sequences_IDs/A/03_camel.jpg,9,3,4,2,1,1,7,2,1,46,,,,,,,,,,,,,,,,,,,,
,,,,,46,2020-07-04_15h47.08.301,retriever_ti,2020.1.3,Win32,60,Chrome,1366,768,,,,,,,,,,,,,,,,,3,,,,,,,,,,,,,,,,,,,,,,,,,,,1284.329655,170,right,satellite_dish,4,10,1,1.444585,1,1,1284.36485,1284.36485,1286.86278,0,15,15,15,1,170,3,4,redfox      ,satellite_dish,html/resources/sequences_IDs/B/01_redfox.jpg,html/resources/sequences_IDs/A/10_satellite_dish.jpg,1,10,1,1,4,2,1,8,0,46,,,,,,,,,,,,,,,,,,,,
,,,,,46,2020-07-04_15h47.08.301,retriever_ti,2020.1.3,Win32,60,Chrome,1366,768,,,,,,,,,,,,,,,,,3,,,,,,,,,,,,,,,,,,,,,,,,,,,1287.96381,171,left,satellite_dish,4,10,3,0.918275,1,3,1287.99939,1287.99939,1290.49715,0,16,16,16,1,171,4,1,satellite_dish,parrot      ,html/resources/sequences_IDs/A/10_satellite_dish.jpg,html/resources/sequences_IDs/B/05_parrot.jpg,10,5,4,2,2,1,8,4,0,46,,,,,,,,,,,,,,,,,,,,
,,,,,46,2020-07-04_15h47.08.301,retriever_ti,2020.1.3,Win32,60,Chrome,1366,768,,,,,,,,,,,,,,,,,3,,,,,,,,,,,,,,,,,,,,,,,,,,,1291.11483,172,left,camel         ,8,3,2,1.03836,1,3,1291.132165,1291.132165,1293.6309,0,17,17,17,1,172,8,6,camel         ,clownfish     ,html/resources/sequences_IDs/A/03_camel.jpg,html/resources/sequences_IDs/A/04_clownfish.jpg,3,4,1,1,2,1,2,3,0,46,,,,,,,,,,,,,,,,,,,,
,,,,,46,2020-07-04_15h47.08.301,retriever_ti,2020.1.3,Win32,60,Chrome,1366,768,,,,,,,,,,,,,,,,,3,,,,,,,,,,,,,,,,,,,,,,,,,,,1294.23404,173,right,camel         ,8,3,5,0.67724,1,3,1294.251815,1294.251815,1296.748965,0,18,18,18,1,173,3,8,redfox      ,camel         ,html/resources/sequences_IDs/B/01_redfox.jpg,html/resources/sequences_IDs/A/03_camel.jpg,1,3,1,1,1,1,1,2,0,46,,,,,,,,,,,,,,,,,,,,
,,,,,46,2020-07-04_15h47.08.301,retriever_ti,2020.1.3,Win32,60,Chrome,1366,768,,,,,,,,,,,,,,,,,3,,,,,,,,,,,,,,,,,,,,,,,,,,,1297.656295,174,left,sport_tshirt,5,7,-1,1.12621,0,1,1297.68404,1297.68404,1300.185455,0,19,19,19,1,174,5,6,sport_tshirt,clownfish     ,html/resources/sequences_IDs/B/07_sport_tshirt.jpg,html/resources/sequences_IDs/A/04_clownfish.jpg,7,4,3,2,2,1,6,3,1,46,,,,,,,,,,,,,,,,,,,,
,,,,,46,2020-07-04_15h47.08.301,retriever_ti,2020.1.3,Win32,60,Chrome,1366,768,,,,,,,,,,,,,,,,,3,,,,,,,,,,,,,,,,,,,,,,,,,,,1301.287575,175,right,satellite_dish,4,10,3,1.16312,1,3,1301.33571,1301.33571,1303.821225,0,20,20,20,1,175,1,4,parrot      ,satellite_dish,html/resources/sequences_IDs/B/05_parrot.jpg,html/resources/sequences_IDs/A/10_satellite_dish.jpg,5,10,2,1,4,2,4,8,0,46,,,,,,,,,,,,,,,,,,,,
,,,,,46,2020-07-04_15h47.08.301,retriever_ti,2020.1.3,Win32,60,Chrome,1366,768,,,,,,,,,,,,,,,,,3,,,,,,,,,,,,,,,,,,,,,,,,,,,1304.43933,176,left,phone       ,7,9,2,0.65709,1,3,1304.457375,1304.457375,1306.954305,0,21,21,21,1,176,7,5,phone       ,sport_tshirt,html/resources/sequences_IDs/B/09_phone.jpg,html/resources/sequences_IDs/B/07_sport_tshirt.jpg,9,7,4,2,3,2,7,6,0,46,,,,,,,,,,,,,,,,,,,,
,,,,,46,2020-07-04_15h47.08.301,retriever_ti,2020.1.3,Win32,60,Chrome,1366,768,,,,,,,,,,,,,,,,,3,,,,,,,,,,,,,,,,,,,,,,,,,,,1307.59395,177,left,sport_tshirt,5,7,1,0.743605,1,1,1307.607635,1307.607635,1310.091385,0,22,22,22,1,177,5,4,sport_tshirt,satellite_dish,html/resources/sequences_IDs/B/07_sport_tshirt.jpg,html/resources/sequences_IDs/A/10_satellite_dish.jpg,7,10,3,2,4,2,6,8,0,46,,,,,,,,,,,,,,,,,,,,
,,,,,46,2020-07-04_15h47.08.301,retriever_ti,2020.1.3,Win32,60,Chrome,1366,768,,,,,,,,,,,,,,,,,3,,,,,,,,,,,,,,,,,,,,,,,,,,,1311.1899,178,NaN,No_response,NaN,NaN,NaN,NaN,2,2,1311.22428,1311.22428,1314.21794,0,23,23,23,1,178,2,6,scarf         ,clownfish     ,html/resources/sequences_IDs/A/06_scarf.jpg,html/resources/sequences_IDs/A/04_clownfish.jpg,6,4,3,2,2,1,5,3,0,46,,,,,,,,,,,,,,,,,,,,
,,,,,46,2020-07-04_15h47.08.301,retriever_ti,2020.1.3,Win32,60,Chrome,1366,768,,,,,,,,,,,,,,,,,3,,,,,,,,,,,,,,,,,,,,,,,,,,,1315.32189,179,left,satellite_dish,4,10,1,0.66674,1,0,1315.355785,1315.355785,1317.855515,0,24,24,24,1,179,4,3,satellite_dish,redfox      ,html/resources/sequences_IDs/A/10_satellite_dish.jpg,html/resources/sequences_IDs/B/01_redfox.jpg,10,1,4,2,1,1,8,1,1,46,,,,,,,,,,,,,,,,,,,,
,,,,,46,2020-07-04_15h47.08.301,retriever_ti,2020.1.3,Win32,60,Chrome,1366,768,,,,,,,,,,,,,,,,,3,,,,,,,,,,,,,,,,,,,,,,,,,,,1318.95893,180,left,sport_tshirt,5,7,4,0.612165,1,3,1318.975465,1318.975465,1321.53068,0,25,25,25,1,180,5,1,sport_tshirt,parrot      ,html/resources/sequences_IDs/B/07_sport_tshirt.jpg,html/resources/sequences_IDs/B/05_parrot.jpg,7,5,3,2,2,1,6,4,0,46,,,,,,,,,,,,,,,,,,,,
,,,,,46,2020-07-04_15h47.08.301,retriever_ti,2020.1.3,Win32,60,Chrome,1366,768,,,,,,,,,,,,,,,,,3,,,,,,,,,,,,,,,,,,,,,,,,,,,1322.141485,181,left,phone       ,7,9,6,0.562934999,1,3,1322.184255,1322.184255,1324.67452,0,26,26,26,1,181,7,1,phone       ,parrot      ,html/resources/sequences_IDs/B/09_phone.jpg,html/resources/sequences_IDs/B/05_parrot.jpg,9,5,4,2,2,1,7,4,0,46,,,,,,,,,,,,,,,,,,,,
,,,,,46,2020-07-04_15h47.08.301,retriever_ti,2020.1.3,Win32,60,Chrome,1366,768,,,,,,,,,,,,,,,,,3,,,,,,,,,,,,,,,,,,,,,,,,,,,1325.276235,182,left,clownfish     ,6,4,-2,0.622485,0,3,1325.293595,1325.293595,1327.793395,0,27,27,27,1,182,6,8,clownfish     ,camel         ,html/resources/sequences_IDs/A/04_clownfish.jpg,html/resources/sequences_IDs/A/03_camel.jpg,4,3,2,1,1,1,3,2,0,46,,,,,,,,,,,,,,,,,,,,
,,,,,46,2020-07-04_15h47.08.301,retriever_ti,2020.1.3,Win32,60,Chrome,1366,768,,,,,,,,,,,,,,,,,3,,,,,,,,,,,,,,,,,,,,,,,,,,,1328.411495,183,left,parrot      ,1,5,-2,1.083405,0,3,1328.427705,1328.427705,1334.50653,0,28,28,28,1,183,1,3,parrot      ,redfox      ,html/resources/sequences_IDs/B/05_parrot.jpg,html/resources/sequences_IDs/B/01_redfox.jpg,5,1,2,1,1,1,4,1,0,46,,,,,,,,,,,,,,,,,,,,
,,,,,46,2020-07-04_15h47.08.301,retriever_ti,2020.1.3,Win32,60,Chrome,1366,768,,,,,,,,,,,,,,,,,3,,,,,,,,,,,,,,,,,,,,,,,,,,,1337.408135,184,NaN,No_response,NaN,NaN,NaN,NaN,2,2,1340.415045,1340.415045,1344.37716,0,29,29,29,1,184,1,8,parrot      ,camel         ,html/resources/sequences_IDs/B/05_parrot.jpg,html/resources/sequences_IDs/A/03_camel.jpg,5,3,2,1,1,1,4,2,0,46,,,,,,,,,,,,,,,,,,,,
,,,,,46,2020-07-04_15h47.08.301,retriever_ti,2020.1.3,Win32,60,Chrome,1366,768,,,,,,,,,,,,,,,,,3,,,,,,,,,,,,,,,,,,,,,,,,,,,1345.467675,185,left,redfox      ,3,1,-1,0.79858,0,0,1345.50483,1345.50483,1348.00037,0,30,30,30,1,185,3,4,redfox      ,satellite_dish,html/resources/sequences_IDs/B/01_redfox.jpg,html/resources/sequences_IDs/A/10_satellite_dish.jpg,1,10,1,1,4,2,1,8,0,46,,,,,,,,,,,,,,,,,,,,
,,,,,46,2020-07-04_15h47.08.301,retriever_ti,2020.1.3,Win32,60,Chrome,1366,768,,,,,,,,,,,,,,,,,3,,,,,,,,,,,,,,,,,,,,,,,,,,,1349.102995,186,left,clownfish     ,6,4,3,0.56553,1,3,1349.12078,1349.12078,1351.61689,0,31,31,31,1,186,6,3,clownfish     ,redfox      ,html/resources/sequences_IDs/A/04_clownfish.jpg,html/resources/sequences_IDs/B/01_redfox.jpg,4,1,2,1,1,1,3,1,0,46,,,,,,,,,,,,,,,,,,,,
,,,,,46,2020-07-04_15h47.08.301,retriever_ti,2020.1.3,Win32,60,Chrome,1366,768,,,,,,,,,,,,,,,,,3,,,,,,,,,,,,,,,,,,,,,,,,,,,1352.218035,187,right,camel         ,8,3,3,0.766555,1,3,1352.235245,1352.235245,1354.735285,0,32,32,32,1,187,5,8,sport_tshirt,camel         ,html/resources/sequences_IDs/B/07_sport_tshirt.jpg,html/resources/sequences_IDs/A/03_camel.jpg,7,3,3,2,1,1,6,2,0,46,,,,,,,,,,,,,,,,,,,,
,,,,,46,2020-07-04_15h47.08.301,retriever_ti,2020.1.3,Win32,60,Chrome,1366,768,,,,,,,,,,,,,,,,,3,,,,,,,,,,,,,,,,,,,,,,,,,,,1355.353515,188,left,sport_tshirt,5,7,2,0.772325,1,3,1355.369665,1355.369665,1357.869155,0,33,33,33,1,188,5,3,sport_tshirt,redfox      ,html/resources/sequences_IDs/B/07_sport_tshirt.jpg,html/resources/sequences_IDs/B/01_redfox.jpg,7,1,3,2,1,1,6,1,0,46,,,,,,,,,,,,,,,,,,,,
,,,,,46,2020-07-04_15h47.08.301,retriever_ti,2020.1.3,Win32,60,Chrome,1366,768,,,,,,,,,,,,,,,,,3,,,,,,,,,,,,,,,,,,,,,,,,,,,1358.47292,189,left,satellite_dish,4,10,1,0.84583,1,1,1358.510355,1358.510355,1361.00619,0,34,34,34,1,189,4,3,satellite_dish,redfox      ,html/resources/sequences_IDs/A/10_satellite_dish.jpg,html/resources/sequences_IDs/B/01_redfox.jpg,10,1,4,2,1,1,8,1,0,46,,,,,,,,,,,,,,,,,,,,
,,,,,46,2020-07-04_15h47.08.301,retriever_ti,2020.1.3,Win32,60,Chrome,1366,768,,,,,,,,,,,,,,,,,3,,,,,,,,,,,,,,,,,,,,,,,,,,,1362.10603,190,left,clownfish     ,6,4,5,0.73044,1,3,1362.142705,1362.142705,1364.63847,0,35,35,35,1,190,6,1,clownfish     ,parrot      ,html/resources/sequences_IDs/A/04_clownfish.jpg,html/resources/sequences_IDs/B/05_parrot.jpg,4,5,2,1,2,1,3,4,0,46,,,,,,,,,,,,,,,,,,,,
,,,,,46,2020-07-04_15h47.08.301,retriever_ti,2020.1.3,Win32,60,Chrome,1366,768,,,,,,,,,,,,,,,,,3,,,,,,,,,,,,,,,,,,,,,,,,,,,1365.310985,191,right,satellite_dish,4,10,-3,1.015825001,0,3,1365.34271,1365.34271,1367.840815,0,36,36,36,1,191,7,4,phone       ,satellite_dish,html/resources/sequences_IDs/B/09_phone.jpg,html/resources/sequences_IDs/A/10_satellite_dish.jpg,9,10,4,2,4,2,7,8,0,46,,,,,,,,,,,,,,,,,,,,
,,,,,46,2020-07-04_15h47.08.301,retriever_ti,2020.1.3,Win32,60,Chrome,1366,768,,,,,,,,,,,,,,,,,3,,,,,,,,,,,,,,,,,,,,,,,,,,,1368.45657,192,left,clownfish     ,6,4,1,1.386055,1,1,1368.47619,1368.47619,1370.99007,0,37,37,37,1,192,6,5,clownfish     ,sport_tshirt,html/resources/sequences_IDs/A/04_clownfish.jpg,html/resources/sequences_IDs/B/07_sport_tshirt.jpg,4,7,2,1,3,2,3,6,0,46,,,,,,,,,,,,,,,,,,,,
,,,,,46,2020-07-04_15h47.08.301,retriever_ti,2020.1.3,Win32,60,Chrome,1366,768,,,,,,,,,,,,,,,,,3,,,,,,,,,,,,,,,,,,,,,,,,,,,1372.095885,193,NaN,No_response,NaN,NaN,NaN,NaN,2,2,1372.116265,1372.116265,1374.60826,0,38,38,38,1,193,2,1,scarf         ,parrot      ,html/resources/sequences_IDs/A/06_scarf.jpg,html/resources/sequences_IDs/B/05_parrot.jpg,6,5,3,2,2,1,5,4,0,46,,,,,,,,,,,,,,,,,,,,
,,,,,46,2020-07-04_15h47.08.301,retriever_ti,2020.1.3,Win32,60,Chrome,1366,768,,,,,,,,,,,,,,,,,3,,,,,,,,,,,,,,,,,,,,,,,,,,,1375.70895,194,left,parrot      ,1,5,-1,0.43631,0,0,1375.729695,1375.729695,1378.22627,0,39,39,39,1,194,1,2,parrot      ,scarf         ,html/resources/sequences_IDs/B/05_parrot.jpg,html/resources/sequences_IDs/A/06_scarf.jpg,5,6,2,1,3,2,4,5,0,46,,,,,,,,,,,,,,,,,,,,
,,,,,46,2020-07-04_15h47.08.301,retriever_ti,2020.1.3,Win32,60,Chrome,1366,768,,,,,,,,,,,,,,,,,3,,,,,,,,,,,,,,,,,,,,,,,,,,,1379.329865,195,right,scarf         ,2,6,-1,0.773225,0,0,1379.35013,1379.35013,1381.850125,0,40,40,40,1,195,3,2,redfox      ,scarf         ,html/resources/sequences_IDs/B/01_redfox.jpg,html/resources/sequences_IDs/A/06_scarf.jpg,1,6,1,1,3,2,1,5,0,46,,,,,,,,,,,,,,,,,,,,
,,,,,46,2020-07-04_15h47.08.301,retriever_ti,2020.1.3,Win32,60,Chrome,1366,768,,,,,,,,,,,,,,,,,3,,,,,,,,,,,,,,,,,,,,,,,,,,,1382.95019,196,right,sport_tshirt,5,7,2,1.10893,1,3,1382.98902,1382.98902,1385.478595,0,41,41,41,1,196,3,5,redfox      ,sport_tshirt,html/resources/sequences_IDs/B/01_redfox.jpg,html/resources/sequences_IDs/B/07_sport_tshirt.jpg,1,7,1,1,3,2,1,6,0,46,,,,,,,,,,,,,,,,,,,,
,,,,,46,2020-07-04_15h47.08.301,retriever_ti,2020.1.3,Win32,60,Chrome,1366,768,,,,,,,,,,,,,,,,,3,,,,,,,,,,,,,,,,,,,,,,,,,,,1386.0813,197,right,sport_tshirt,5,7,4,1.41438,1,3,1386.098445,1386.098445,1388.61516,0,42,42,42,1,197,1,5,parrot      ,sport_tshirt,html/resources/sequences_IDs/B/05_parrot.jpg,html/resources/sequences_IDs/B/07_sport_tshirt.jpg,5,7,2,1,3,2,4,6,0,46,,,,,,,,,,,,,,,,,,,,
,,,,,46,2020-07-04_15h47.08.301,retriever_ti,2020.1.3,Win32,60,Chrome,1366,768,,,,,,,,,,,,,,,,,3,,,,,,,,,,,,,,,,,,,,,,,,,,,1389.230995,198,left,camel         ,8,3,6,0.816889999,1,3,1389.26581,1389.26581,1391.76446,0,43,43,43,1,198,8,2,camel         ,scarf         ,html/resources/sequences_IDs/A/03_camel.jpg,html/resources/sequences_IDs/A/06_scarf.jpg,3,6,1,1,3,2,2,5,0,46,,,,,,,,,,,,,,,,,,,,
,,,,,46,2020-07-04_15h47.08.301,retriever_ti,2020.1.3,Win32,60,Chrome,1366,768,,,,,,,,,,,,,,,,,3,,,,,,,,,,,,,,,,,,,,,,,,,,,1392.36771,199,right,sport_tshirt,5,7,3,1.018505001,1,3,1392.40265,1392.40265,1394.89051,0,44,44,44,1,199,2,5,scarf         ,sport_tshirt,html/resources/sequences_IDs/A/06_scarf.jpg,html/resources/sequences_IDs/B/07_sport_tshirt.jpg,6,7,3,2,3,2,5,6,0,46,,,,,,,,,,,,,,,,,,,,
,,,,,46,2020-07-04_15h47.08.301,retriever_ti,2020.1.3,Win32,60,Chrome,1366,768,,,,,,,,,,,,,,,,,3,,,,,,,,,,,,,,,,,,,,,,,,,,,1395.515325,200,left,camel         ,8,3,5,0.81028,1,3,1395.540805,1395.540805,1398.03305,0,45,45,45,1,200,8,3,camel         ,redfox      ,html/resources/sequences_IDs/A/03_camel.jpg,html/resources/sequences_IDs/B/01_redfox.jpg,3,1,1,1,1,1,2,1,0,46,,,,,,,,,,,,,,,,,,,,
,,,,,46,2020-07-04_15h47.08.301,retriever_ti,2020.1.3,Win32,60,Chrome,1366,768,,,,,,,,,,,,,,,,,3,,,,,,,,,,,,,,,,,,,,,,,,,,,1398.65415,201,right,clownfish     ,6,4,-1,0.553355,0,0,1398.670205,1398.670205,1401.16709,0,46,46,46,1,201,7,6,phone       ,clownfish     ,html/resources/sequences_IDs/B/09_phone.jpg,html/resources/sequences_IDs/A/04_clownfish.jpg,9,4,4,2,2,1,7,3,0,46,,,,,,,,,,,,,,,,,,,,
,,,,,46,2020-07-04_15h47.08.301,retriever_ti,2020.1.3,Win32,60,Chrome,1366,768,,,,,,,,,,,,,,,,,3,,,,,,,,,,,,,,,,,,,,,,,,,,,1402.268555,202,right,redfox      ,3,1,1,1.269665,1,1,1402.28564,1402.28564,1404.78498,0,47,47,47,1,202,2,3,scarf         ,redfox      ,html/resources/sequences_IDs/A/06_scarf.jpg,html/resources/sequences_IDs/B/01_redfox.jpg,6,1,3,2,1,1,5,1,0,46,,,,,,,,,,,,,,,,,,,,
,,,,,46,2020-07-04_15h47.08.301,retriever_ti,2020.1.3,Win32,60,Chrome,1366,768,,,,,,,,,,,,,,,,,3,,,,,,,,,,,,,,,,,,,,,,,,,,,1405.88693,203,right,clownfish     ,6,4,5,0.836560001,1,3,1405.906215,1405.906215,1408.40711,0,48,48,48,1,203,1,6,parrot      ,clownfish     ,html/resources/sequences_IDs/B/05_parrot.jpg,html/resources/sequences_IDs/A/04_clownfish.jpg,5,4,2,1,2,1,4,3,0,46,,,,,,,,,,,,,,,,,,,,
,,,,,46,2020-07-04_15h47.08.301,retriever_ti,2020.1.3,Win32,60,Chrome,1366,768,,,,,,,,,,,,,,,,,3,,,,,,,,,,,,,,,,,,,,,,,,,,,1409.02345,204,left,clownfish     ,6,4,1,0.86827,1,1,1409.038535,1409.038535,1411.531115,0,49,49,49,1,204,6,5,clownfish     ,sport_tshirt,html/resources/sequences_IDs/A/04_clownfish.jpg,html/resources/sequences_IDs/B/07_sport_tshirt.jpg,4,7,2,1,3,2,3,6,0,46,,,,,,,,,,,,,,,,,,,,
,,,,,46,2020-07-04_15h47.08.301,retriever_ti,2020.1.3,Win32,60,Chrome,1366,768,,,,,,,,,,,,,,,,,3,,,,,,,,,,,,,,,,,,,,,,,,,,,1412.6239,205,NaN,No_response,NaN,NaN,NaN,NaN,2,2,1412.64529,1412.64529,1427.75119,0,50,50,50,1,205,2,3,scarf         ,redfox      ,html/resources/sequences_IDs/A/06_scarf.jpg,html/resources/sequences_IDs/B/01_redfox.jpg,6,1,3,2,1,1,5,1,0,46,,,,,,,,,,,,,,,,,,,,
,,,,,46,2020-07-04_15h47.08.301,retriever_ti,2020.1.3,Win32,60,Chrome,1366,768,,,,,,,,,,,,,,,,,3,,,,,,,,,,,,,,,,,,,,,,,,,,,1428.84941,206,NaN,No_response,NaN,NaN,NaN,NaN,2,2,1429.173795,1429.173795,1431.380865,0,51,51,51,1,206,2,8,scarf         ,camel         ,html/resources/sequences_IDs/A/06_scarf.jpg,html/resources/sequences_IDs/A/03_camel.jpg,6,3,3,2,1,1,5,2,0,46,,,,,,,,,,,,,,,,,,,,
,,,,,46,2020-07-04_15h47.08.301,retriever_ti,2020.1.3,Win32,60,Chrome,1366,768,,,,,,,,,,,,,,,,,3,,,,,,,,,,,,,,,,,,,,,,,,,,,1432.54141,207,right,phone       ,7,9,2,0.59075,1,3,1432.58388,1432.58388,1435.35014,0,52,52,52,1,207,5,7,sport_tshirt,phone       ,html/resources/sequences_IDs/B/07_sport_tshirt.jpg,html/resources/sequences_IDs/B/09_phone.jpg,7,9,3,2,4,2,6,7,0,46,,,,,,,,,,,,,,,,,,,,
,,,,,46,2020-07-04_15h47.08.301,retriever_ti,2020.1.3,Win32,60,Chrome,1366,768,,,,,,,,,,,,,,,,,3,,,,,,,,,,,,,,,,,,,,,,,,,,,1435.970255,208,right,camel         ,8,3,4,0.829645,1,3,1436.051985,1436.051985,1438.546495,0,53,53,53,1,208,4,8,satellite_dish,camel         ,html/resources/sequences_IDs/A/10_satellite_dish.jpg,html/resources/sequences_IDs/A/03_camel.jpg,10,3,4,2,1,1,8,2,0,46,,,,,,,,,,,,,,,,,,,,
,,,,,46,2020-07-04_15h47.08.301,retriever_ti,2020.1.3,Win32,60,Chrome,1366,768,,,,,,,,,,,,,,,,,3,,,,,,,,,,,,,,,,,,,,,,,,,,,1439.153175,209,left,phone       ,7,9,-1,1.33751,0,0,1439.186245,1439.186245,1441.683585,0,54,54,54,1,209,7,8,phone       ,camel         ,html/resources/sequences_IDs/B/09_phone.jpg,html/resources/sequences_IDs/A/03_camel.jpg,9,3,4,2,1,1,7,2,0,46,,,,,,,,,,,,,,,,,,,,
,,,,,46,2020-07-04_15h47.08.301,retriever_ti,2020.1.3,Win32,60,Chrome,1366,768,,,,,,,,,,,,,,,,,3,,,,,,,,,,,,,,,,,,,,,,,,,,,1442.78253,210,NaN,No_response,NaN,NaN,NaN,NaN,2,2,1442.801385,1442.801385,1445.29845,0,55,55,55,1,210,2,1,scarf         ,parrot      ,html/resources/sequences_IDs/A/06_scarf.jpg,html/resources/sequences_IDs/B/05_parrot.jpg,6,5,3,2,2,1,5,4,0,46,,,,,,,,,,,,,,,,,,,,
,,,,,46,2020-07-04_15h47.08.301,retriever_ti,2020.1.3,Win32,60,Chrome,1366,768,,,,,,,,,,,,,,,,,3,,,,,,,,,,,,,,,,,,,,,,,,,,,1446.399705,211,right,scarf         ,2,6,-1,0.400775,0,0,1446.434445,1446.434445,1448.93797,0,56,56,56,1,211,3,2,redfox      ,scarf         ,html/resources/sequences_IDs/B/01_redfox.jpg,html/resources/sequences_IDs/A/06_scarf.jpg,1,6,1,1,3,2,1,5,0,46,,,,,,,,,,,,,,,,,,,,
,,,,,46,2020-07-04_15h47.08.301,retriever_ti,2020.1.3,Win32,60,Chrome,1366,768,,,,,,,,,,,,,,,,,3,,,,,,,,,,,,,,,,,,,,,,,,,,,1450.035365,212,left,satellite_dish,4,10,2,0.924335,1,3,1450.06792,1450.06792,1452.56834,0,57,57,57,1,212,4,2,satellite_dish,scarf         ,html/resources/sequences_IDs/A/10_satellite_dish.jpg,html/resources/sequences_IDs/A/06_scarf.jpg,10,6,4,2,3,2,8,5,0,46,,,,,,,,,,,,,,,,,,,,
,,,,,46,2020-07-04_15h47.08.301,retriever_ti,2020.1.3,Win32,60,Chrome,1366,768,,,,,,,,,,,,,,,,,3,,,,,,,,,,,,,,,,,,,,,,,,,,,1453.18709,213,left,satellite_dish,4,10,-3,1.56872,0,3,1453.275445,1453.275445,1455.76917,0,58,58,58,1,213,4,7,satellite_dish,phone       ,html/resources/sequences_IDs/A/10_satellite_dish.jpg,html/resources/sequences_IDs/B/09_phone.jpg,10,9,4,2,4,2,8,7,0,46,,,,,,,,,,,,,,,,,,,,
,,,,,46,2020-07-04_15h47.08.301,retriever_ti,2020.1.3,Win32,60,Chrome,1366,768,,,,,,,,,,,,,,,,,3,,,,,,,,,,,,,,,,,,,,,,,,,,,1456.38599,214,right,scarf         ,2,6,1,1.185804999,1,1,1456.42081,1456.42081,1458.941235,0,59,59,59,1,214,1,2,parrot      ,scarf         ,html/resources/sequences_IDs/B/05_parrot.jpg,html/resources/sequences_IDs/A/06_scarf.jpg,5,6,2,1,3,2,4,5,0,46,,,,,,,,,,,,,,,,,,,,
,,,,,46,2020-07-04_15h47.08.301,retriever_ti,2020.1.3,Win32,60,Chrome,1366,768,,,,,,,,,,,,,,,,,3,,,,,,,,,,,,,,,,,,,,,,,,,,,1460.042795,215,left,scarf         ,2,6,-1,0.905025,0,1,1460.0636,1460.0636,1463.38447,0,60,60,60,1,215,2,3,scarf         ,redfox      ,html/resources/sequences_IDs/A/06_scarf.jpg,html/resources/sequences_IDs/B/01_redfox.jpg,6,1,3,2,1,1,5,1,1,46,,,,,,,,,,,,,,,,,,,,
,,,,,46,2020-07-04_15h47.08.301,retriever_ti,2020.1.3,Win32,60,Chrome,1366,768,,,,,,,,,,,,,,,,,3,,,,,,,,,,,,,,,,,,,,,,,,,,,1464.552935,216,right,phone       ,7,9,1,1.029935,1,1,1464.650585,1464.650585,1467.108555,0,61,61,61,1,216,6,7,clownfish     ,phone       ,html/resources/sequences_IDs/A/04_clownfish.jpg,html/resources/sequences_IDs/B/09_phone.jpg,4,9,2,1,4,2,3,7,0,46,,,,,,,,,,,,,,,,,,,,
,,,,,46,2020-07-04_15h47.08.301,retriever_ti,2020.1.3,Win32,60,Chrome,1366,768,,,,,,,,,,,,,,,,,3,,,,,,,,,,,,,,,,,,,,,,,,,,,1468.220535,217,right,sport_tshirt,5,7,1,1.02458,1,1,1468.260205,1468.260205,1470.757185,0,62,62,62,1,217,4,5,satellite_dish,sport_tshirt,html/resources/sequences_IDs/A/10_satellite_dish.jpg,html/resources/sequences_IDs/B/07_sport_tshirt.jpg,10,7,4,2,3,2,8,6,0,46,,,,,,,,,,,,,,,,,,,,
,,,,,46,2020-07-04_15h47.08.301,retriever_ti,2020.1.3,Win32,60,Chrome,1366,768,,,,,,,,,,,,,,,,,3,,,,,,,,,,,,,,,,,,,,,,,,,,,1471.86058,218,left,scarf         ,2,6,-5,0.938625,0,3,1471.87892,1471.87892,1474.37532,0,63,63,63,1,218,2,7,scarf         ,phone       ,html/resources/sequences_IDs/A/06_scarf.jpg,html/resources/sequences_IDs/B/09_phone.jpg,6,9,3,2,4,2,5,7,0,46,,,,,,,,,,,,,,,,,,,,
,,,,,46,2020-07-04_15h47.08.301,retriever_ti,2020.1.3,Win32,60,Chrome,1366,768,,,,,,,,,,,,,,,,,3,,,,,,,,,,,,,,,,,,,,,,,,,,,1474.97758,219,right,camel         ,8,3,1,0.678805,1,1,1475.06429,1475.06429,1477.544795,0,64,64,64,1,219,7,8,phone       ,camel         ,html/resources/sequences_IDs/B/09_phone.jpg,html/resources/sequences_IDs/A/03_camel.jpg,9,3,4,2,1,1,7,2,0,46,,,,,,,,,,,,,,,,,,,,
