instructionsLoop.thisRepN,instructionsLoop.thisTrialN,instructionsLoop.thisN,instructionsLoop.thisIndex,instructionsLoop.ran,participant,date,expName,psychopyVersion,OS,frameRate,browser,xResolution,yResolution,fix_onset,tprac,practiceKey.keys,practiceKey.rt,pracitem_chosen_name,acc_practice,P1_onsetPrac,P2_onsetPrac,onsetFeedbPrac,practiceTrials.thisRepN,practiceTrials.thisTrialN,practiceTrials.thisN,practiceTrials.thisIndex,practiceTrials.ran,P1,P2,Block,LocItem1,LocItem2,NameItem1,NameItem2,key_respAC_prac.keys,key_respAC_prac.corr,key_respAC_prac.rt,AC_acc,Attentions.thisRepN,Attentions.thisTrialN,Attentions.thisN,Attentions.thisIndex,Attentions.ran,Stim,Loc1,Loc2,Loc3,Loc4,CorrAns,keyDisturbed.keys,keyDisturbed.rt,repPractice.thisRepN,repPractice.thisTrialN,repPractice.thisN,repPractice.thisIndex,repPractice.ran,fixcross_onsetMain,trialNumber,key_resp.keys,key_resp.rt,item_chosen_name,item_chosen_value,item_chosen_ID,diff_chosen_minus_reject,acc_real,acc_feedback,P1_onset,P2_onset,feedb_onset,trials.thisRepN,trials.thisTrialN,trials.thisN,trials.thisIndex,trials.ran,Trial,ValueP1,ValueP2,P1name,P2name,P1Loc,P2Loc,P1id,P2id,Micro_categoryP1,Macro_categoryP1,Micro_categoryP2,Macro_categoryP2,ID_sequenceP1,ID_sequenceP2,InverseFb,pNumber,repBlocks.thisRepN,repBlocks.thisTrialN,repBlocks.thisN,repBlocks.thisIndex,repBlocks.ran,key_respAC.keys,key_respAC.corr,key_respAC.rt,trials_AC.thisRepN,trials_AC.thisTrialN,trials_AC.thisN,trials_AC.thisIndex,trials_AC.ran,Bonus,BonusLoop.thisRepN,BonusLoop.thisTrialN,BonusLoop.thisN,BonusLoop.thisIndex,BonusLoop.ran,comments
0,0,0,0,1,47,2020-07-04_07h05.53.891,retriever_ti,2020.1.3,MacIntel,60,Safari,1440,900,,,,,,,,,,,,,,,,,,,,,,,,,,,,,,,,,,,,,,,,,,,,,,,,,,,,,,,,,,,,,,,,,,,,,,,,,,,,,,,,,,,,,,,,,,,,,,,,,,
1,0,1,0,1,47,2020-07-04_07h05.53.891,retriever_ti,2020.1.3,MacIntel,60,Safari,1440,900,,,,,,,,,,,,,,,,,,,,,,,,,,,,,,,,,,,,,,,,,,,,,,,,,,,,,,,,,,,,,,,,,,,,,,,,,,,,,,,,,,,,,,,,,,,,,,,,,,
2,0,2,0,1,47,2020-07-04_07h05.53.891,retriever_ti,2020.1.3,MacIntel,60,Safari,1440,900,,,,,,,,,,,,,,,,,,,,,,,,,,,,,,,,,,,,,,,,,,,,,,,,,,,,,,,,,,,,,,,,,,,,,,,,,,,,,,,,,,,,,,,,,,,,,,,,,,
3,0,3,0,1,47,2020-07-04_07h05.53.891,retriever_ti,2020.1.3,MacIntel,60,Safari,1440,900,,,,,,,,,,,,,,,,,,,,,,,,,,,,,,,,,,,,,,,,,,,,,,,,,,,,,,,,,,,,,,,,,,,,,,,,,,,,,,,,,,,,,,,,,,,,,,,,,,
4,0,4,0,1,47,2020-07-04_07h05.53.891,retriever_ti,2020.1.3,MacIntel,60,Safari,1440,900,,,,,,,,,,,,,,,,,,,,,,,,,,,,,,,,,,,,,,,,,,,,,,,,,,,,,,,,,,,,,,,,,,,,,,,,,,,,,,,,,,,,,,,,,,,,,,,,,,
5,0,5,0,1,47,2020-07-04_07h05.53.891,retriever_ti,2020.1.3,MacIntel,60,Safari,1440,900,,,,,,,,,,,,,,,,,,,,,,,,,,,,,,,,,,,,,,,,,,,,,,,,,,,,,,,,,,,,,,,,,,,,,,,,,,,,,,,,,,,,,,,,,,,,,,,,,,
6,0,6,0,1,47,2020-07-04_07h05.53.891,retriever_ti,2020.1.3,MacIntel,60,Safari,1440,900,,,,,,,,,,,,,,,,,,,,,,,,,,,,,,,,,,,,,,,,,,,,,,,,,,,,,,,,,,,,,,,,,,,,,,,,,,,,,,,,,,,,,,,,,,,,,,,,,,
7,0,7,0,1,47,2020-07-04_07h05.53.891,retriever_ti,2020.1.3,MacIntel,60,Safari,1440,900,,,,,,,,,,,,,,,,,,,,,,,,,,,,,,,,,,,,,,,,,,,,,,,,,,,,,,,,,,,,,,,,,,,,,,,,,,,,,,,,,,,,,,,,,,,,,,,,,,
8,0,8,0,1,47,2020-07-04_07h05.53.891,retriever_ti,2020.1.3,MacIntel,60,Safari,1440,900,,,,,,,,,,,,,,,,,,,,,,,,,,,,,,,,,,,,,,,,,,,,,,,,,,,,,,,,,,,,,,,,,,,,,,,,,,,,,,,,,,,,,,,,,,,,,,,,,,
9,0,9,0,1,47,2020-07-04_07h05.53.891,retriever_ti,2020.1.3,MacIntel,60,Safari,1440,900,,,,,,,,,,,,,,,,,,,,,,,,,,,,,,,,,,,,,,,,,,,,,,,,,,,,,,,,,,,,,,,,,,,,,,,,,,,,,,,,,,,,,,,,,,,,,,,,,,
10,0,10,0,1,47,2020-07-04_07h05.53.891,retriever_ti,2020.1.3,MacIntel,60,Safari,1440,900,,,,,,,,,,,,,,,,,,,,,,,,,,,,,,,,,,,,,,,,,,,,,,,,,,,,,,,,,,,,,,,,,,,,,,,,,,,,,,,,,,,,,,,,,,,,,,,,,,
11,0,11,0,1,47,2020-07-04_07h05.53.891,retriever_ti,2020.1.3,MacIntel,60,Safari,1440,900,,,,,,,,,,,,,,,,,,,,,,,,,,,,,,,,,,,,,,,,,,,,,,,,,,,,,,,,,,,,,,,,,,,,,,,,,,,,,,,,,,,,,,,,,,,,,,,,,,
12,0,12,0,1,47,2020-07-04_07h05.53.891,retriever_ti,2020.1.3,MacIntel,60,Safari,1440,900,,,,,,,,,,,,,,,,,,,,,,,,,,,,,,,,,,,,,,,,,,,,,,,,,,,,,,,,,,,,,,,,,,,,,,,,,,,,,,,,,,,,,,,,,,,,,,,,,,
13,0,13,0,1,47,2020-07-04_07h05.53.891,retriever_ti,2020.1.3,MacIntel,60,Safari,1440,900,,,,,,,,,,,,,,,,,,,,,,,,,,,,,,,,,,,,,,,,,,,,,,,,,,,,,,,,,,,,,,,,,,,,,,,,,,,,,,,,,,,,,,,,,,,,,,,,,,
14,0,14,0,1,47,2020-07-04_07h05.53.891,retriever_ti,2020.1.3,MacIntel,60,Safari,1440,900,,,,,,,,,,,,,,,,,,,,,,,,,,,,,,,,,,,,,,,,,,,,,,,,,,,,,,,,,,,,,,,,,,,,,,,,,,,,,,,,,,,,,,,,,,,,,,,,,,
15,0,15,0,1,47,2020-07-04_07h05.53.891,retriever_ti,2020.1.3,MacIntel,60,Safari,1440,900,,,,,,,,,,,,,,,,,,,,,,,,,,,,,,,,,,,,,,,,,,,,,,,,,,,,,,,,,,,,,,,,,,,,,,,,,,,,,,,,,,,,,,,,,,,,,,,,,,
16,0,16,0,1,47,2020-07-04_07h05.53.891,retriever_ti,2020.1.3,MacIntel,60,Safari,1440,900,,,,,,,,,,,,,,,,,,,,,,,,,,,,,,,,,,,,,,,,,,,,,,,,,,,,,,,,,,,,,,,,,,,,,,,,,,,,,,,,,,,,,,,,,,,,,,,,,,
,,,,,47,2020-07-04_07h05.53.891,retriever_ti,2020.1.3,MacIntel,60,Safari,1440,900,134.747,1,right,1.979,canary,1,134.782,134.782,137.272,0,0,0,0,1,2,5,1,html/resources/stimuli_practice_decision/04_beetle.jpg,html/resources/stimuli_practice_decision/02_canary.jpg,beetle,canary,,,,,,,,,,,,,,,,,,,,,,,,,,,,,,,,,,,,,,,,,,,,,,,,,,,,,,,,,,,,,,,,,,,,,,,,,,,,,
,,,,,47,2020-07-04_07h05.53.891,retriever_ti,2020.1.3,MacIntel,60,Safari,1440,900,137.802,2,left,0.965,rabbit,1,137.809,137.809,140.304,0,1,1,1,1,4,3,1,html/resources/stimuli_practice_decision/01_rabbit.jpg,html/resources/stimuli_practice_decision/07_sock.jpg,rabbit,sock,,,,,,,,,,,,,,,,,,,,,,,,,,,,,,,,,,,,,,,,,,,,,,,,,,,,,,,,,,,,,,,,,,,,,,,,,,,,,
,,,,,47,2020-07-04_07h05.53.891,retriever_ti,2020.1.3,MacIntel,60,Safari,1440,900,141.304,3,left,1.084,pullover,1,141.321,141.321,143.811,0,2,2,2,1,6,2,1,html/resources/stimuli_practice_decision/06_pullover.jpg,html/resources/stimuli_practice_decision/04_beetle.jpg,pullover,beetle,,,,,,,,,,,,,,,,,,,,,,,,,,,,,,,,,,,,,,,,,,,,,,,,,,,,,,,,,,,,,,,,,,,,,,,,,,,,,
,,,,,47,2020-07-04_07h05.53.891,retriever_ti,2020.1.3,MacIntel,60,Safari,1440,900,144.327,4,right,1.485,handmixer,0,144.361,144.361,146.861,0,3,3,3,1,7,1,1,html/resources/stimuli_practice_decision/05_glasses.jpg,html/resources/stimuli_practice_decision/08_handmixer.jpg,glasses,handmixer,,,,,,,,,,,,,,,,,,,,,,,,,,,,,,,,,,,,,,,,,,,,,,,,,,,,,,,,,,,,,,,,,,,,,,,,,,,,,
,,,,,47,2020-07-04_07h05.53.891,retriever_ti,2020.1.3,MacIntel,60,Safari,1440,900,147.369,5,left,1.317,glasses,1,147.387,147.387,149.885,0,4,4,4,1,7,6,1,html/resources/stimuli_practice_decision/05_glasses.jpg,html/resources/stimuli_practice_decision/06_pullover.jpg,glasses,pullover,,,,,,,,,,,,,,,,,,,,,,,,,,,,,,,,,,,,,,,,,,,,,,,,,,,,,,,,,,,,,,,,,,,,,,,,,,,,,
,,,,,47,2020-07-04_07h05.53.891,retriever_ti,2020.1.3,MacIntel,60,Safari,1440,900,150.885,6,right,1.084,glasses,1,150.902,150.902,153.393,0,5,5,5,1,4,7,1,html/resources/stimuli_practice_decision/01_rabbit.jpg,html/resources/stimuli_practice_decision/05_glasses.jpg,rabbit,glasses,,,,,,,,,,,,,,,,,,,,,,,,,,,,,,,,,,,,,,,,,,,,,,,,,,,,,,,,,,,,,,,,,,,,,,,,,,,,,
,,,,,47,2020-07-04_07h05.53.891,retriever_ti,2020.1.3,MacIntel,60,Safari,1440,900,153.91,7,left,0.88,handmixer,0,153.926,153.926,156.426,0,6,6,6,1,1,2,1,html/resources/stimuli_practice_decision/08_handmixer.jpg,html/resources/stimuli_practice_decision/04_beetle.jpg,handmixer,beetle,,,,,,,,,,,,,,,,,,,,,,,,,,,,,,,,,,,,,,,,,,,,,,,,,,,,,,,,,,,,,,,,,,,,,,,,,,,,,
,,,,,47,2020-07-04_07h05.53.891,retriever_ti,2020.1.3,MacIntel,60,Safari,1440,900,157.417,8,left,1.269,rabbit,1,157.451,157.451,159.95,0,7,7,7,1,4,3,1,html/resources/stimuli_practice_decision/01_rabbit.jpg,html/resources/stimuli_practice_decision/07_sock.jpg,rabbit,sock,,,,,,,,,,,,,,,,,,,,,,,,,,,,,,,,,,,,,,,,,,,,,,,,,,,,,,,,,,,,,,,,,,,,,,,,,,,,,
,,,,,47,2020-07-04_07h05.53.891,retriever_ti,2020.1.3,MacIntel,60,Safari,1440,900,,,,,,,,,,,,,,,,,,,,,,down,1,3.762,1,0,0,0,1,1,html/resources/sequences_IDs/star.png,square ↑,circle →,star ↓,← triangle,down,,,,,,,,,,,,,,,,,,,,,,,,,,,,,,,,,,,,,,,,,,,,,,,,,,,,,,,,,,,,,,
,,,,,47,2020-07-04_07h05.53.891,retriever_ti,2020.1.3,MacIntel,60,Safari,1440,900,,,,,,,,,,,,,,,,,,,,,,left,1,1.207,1,0,1,1,2,1,html/resources/sequences_IDs/square1.png,star ↑,triangle →,circle ↓,← square,left,,,,,,,,,,,,,,,,,,,,,,,,,,,,,,,,,,,,,,,,,,,,,,,,,,,,,,,,,,,,,,
,,,,,47,2020-07-04_07h05.53.891,retriever_ti,2020.1.3,MacIntel,60,Safari,1440,900,,,,,,,,,,,,,,,,,,,,,,up,1,1.688,1,0,2,2,0,1,html/resources/sequences_IDs/circle.png,circle ↑,square →,triangle ↓,← star ,up,,,,,,,,,,,,,,,,,,,,,,,,,,,,,,,,,,,,,,,,,,,,,,,,,,,,,,,,,,,,,,
,,,,,47,2020-07-04_07h05.53.891,retriever_ti,2020.1.3,MacIntel,60,Safari,1440,900,,,,,,,,,,,,,,,,,,,,,,down,1,1.425,1,0,3,3,3,1,html/resources/sequences_IDs/triangle.png,star ↑,square →,triangle ↓,← circle,down,,,,,,,,,,,,,,,,,,,,,,,,,,,,,,,,,,,,,,,,,,,,,,,,,,,,,,,,,,,,,,
,,,,,47,2020-07-04_07h05.53.891,retriever_ti,2020.1.3,MacIntel,60,Safari,1440,900,,,,,,,,,,,,,,,,,,,,,,,,,,,,,,,,,,,,,0,16.247,0,0,0,0,1,,,,,,,,,,,,,,,,,,,,,,,,,,,,,,,,,,,,,,,,,,,,,,,,,,,,,,,
,,,,,47,2020-07-04_07h05.53.891,retriever_ti,2020.1.3,MacIntel,60,Safari,1440,900,189.092,9,right,1.145,glasses,1,189.097,189.097,191.595,0,0,0,0,1,6,7,1,html/resources/stimuli_practice_decision/06_pullover.jpg,html/resources/stimuli_practice_decision/05_glasses.jpg,pullover,glasses,,,,,,,,,,,,,,,,,,,,,,,,,,,,,,,,,,,,,,,,,,,,,,,,,,,,,,,,,,,,,,,,,,,,,,,,,,,,,
,,,,,47,2020-07-04_07h05.53.891,retriever_ti,2020.1.3,MacIntel,60,Safari,1440,900,192.587,10,left,1.049,pullover,1,192.621,192.621,195.119,0,1,1,1,1,6,2,1,html/resources/stimuli_practice_decision/06_pullover.jpg,html/resources/stimuli_practice_decision/04_beetle.jpg,pullover,beetle,,,,,,,,,,,,,,,,,,,,,,,,,,,,,,,,,,,,,,,,,,,,,,,,,,,,,,,,,,,,,,,,,,,,,,,,,,,,,
,,,,,47,2020-07-04_07h05.53.891,retriever_ti,2020.1.3,MacIntel,60,Safari,1440,900,195.62,11,right,1.087,pullover,1,195.654,195.654,198.143,0,2,2,2,1,5,6,1,html/resources/stimuli_practice_decision/02_canary.jpg,html/resources/stimuli_practice_decision/06_pullover.jpg,canary,pullover,,,,,,,,,,,,,,,,,,,,,,,,,,,,,,,,,,,,,,,,,,,,,,,,,,,,,,,,,,,,,,,,,,,,,,,,,,,,,
,,,,,47,2020-07-04_07h05.53.891,retriever_ti,2020.1.3,MacIntel,60,Safari,1440,900,199.144,12,right,0.877,glasses,0,199.179,199.179,201.677,0,3,3,3,1,8,7,1,html/resources/stimuli_practice_decision/03_squirrel.jpg,html/resources/stimuli_practice_decision/05_glasses.jpg,squirrel,glasses,,,,,,,,,,,,,,,,,,,,,,,,,,,,,,,,,,,,,,,,,,,,,,,,,,,,,,,,,,,,,,,,,,,,,,,,,,,,,
,,,,,47,2020-07-04_07h05.53.891,retriever_ti,2020.1.3,MacIntel,60,Safari,1440,900,202.668,13,left,1.03,canary,1,202.702,202.702,205.201,0,4,4,4,1,5,3,1,html/resources/stimuli_practice_decision/02_canary.jpg,html/resources/stimuli_practice_decision/07_sock.jpg,canary,sock,,,,,,,,,,,,,,,,,,,,,,,,,,,,,,,,,,,,,,,,,,,,,,,,,,,,,,,,,,,,,,,,,,,,,,,,,,,,,
,,,,,47,2020-07-04_07h05.53.891,retriever_ti,2020.1.3,MacIntel,60,Safari,1440,900,205.718,14,left,1.187,glasses,0,205.735,205.735,208.224,0,5,5,5,1,7,8,1,html/resources/stimuli_practice_decision/05_glasses.jpg,html/resources/stimuli_practice_decision/03_squirrel.jpg,glasses,squirrel,,,,,,,,,,,,,,,,,,,,,,,,,,,,,,,,,,,,,,,,,,,,,,,,,,,,,,,,,,,,,,,,,,,,,,,,,,,,,
,,,,,47,2020-07-04_07h05.53.891,retriever_ti,2020.1.3,MacIntel,60,Safari,1440,900,209.225,15,left,1.549,canary,1,209.257,209.257,211.759,0,6,6,6,1,5,4,1,html/resources/stimuli_practice_decision/02_canary.jpg,html/resources/stimuli_practice_decision/01_rabbit.jpg,canary,rabbit,,,,,,,,,,,,,,,,,,,,,,,,,,,,,,,,,,,,,,,,,,,,,,,,,,,,,,,,,,,,,,,,,,,,,,,,,,,,,
,,,,,47,2020-07-04_07h05.53.891,retriever_ti,2020.1.3,MacIntel,60,Safari,1440,900,212.749,16,left,0.739,canary,1,212.766,212.766,215.267,0,7,7,7,1,5,3,1,html/resources/stimuli_practice_decision/02_canary.jpg,html/resources/stimuli_practice_decision/07_sock.jpg,canary,sock,,,,,,,,,,,,,,,,,,,,,,,,,,,,,,,,,,,,,,,,,,,,,,,,,,,,,,,,,,,,,,,,,,,,,,,,,,,,,
,,,,,47,2020-07-04_07h05.53.891,retriever_ti,2020.1.3,MacIntel,60,Safari,1440,900,,,,,,,,,,,,,,,,,,,,,,up,1,1.454,1,0,0,0,0,1,html/resources/sequences_IDs/circle.png,circle ↑,square →,triangle ↓,← star ,up,,,,,,,,,,,,,,,,,,,,,,,,,,,,,,,,,,,,,,,,,,,,,,,,,,,,,,,,,,,,,,
,,,,,47,2020-07-04_07h05.53.891,retriever_ti,2020.1.3,MacIntel,60,Safari,1440,900,,,,,,,,,,,,,,,,,,,,,,left,1,2.609,1,0,1,1,2,1,html/resources/sequences_IDs/square1.png,star ↑,triangle →,circle ↓,← square,left,,,,,,,,,,,,,,,,,,,,,,,,,,,,,,,,,,,,,,,,,,,,,,,,,,,,,,,,,,,,,,
,,,,,47,2020-07-04_07h05.53.891,retriever_ti,2020.1.3,MacIntel,60,Safari,1440,900,,,,,,,,,,,,,,,,,,,,,,down,1,1.867,1,0,2,2,1,1,html/resources/sequences_IDs/star.png,square ↑,circle →,star ↓,← triangle,down,,,,,,,,,,,,,,,,,,,,,,,,,,,,,,,,,,,,,,,,,,,,,,,,,,,,,,,,,,,,,,
,,,,,47,2020-07-04_07h05.53.891,retriever_ti,2020.1.3,MacIntel,60,Safari,1440,900,,,,,,,,,,,,,,,,,,,,,,down,1,1.329,1,0,3,3,3,1,html/resources/sequences_IDs/triangle.png,star ↑,square →,triangle ↓,← circle,down,,,,,,,,,,,,,,,,,,,,,,,,,,,,,,,,,,,,,,,,,,,,,,,,,,,,,,,,,,,,,,
,,,,,47,2020-07-04_07h05.53.891,retriever_ti,2020.1.3,MacIntel,60,Safari,1440,900,,,,,,,,,,,,,,,,,,,,,,,,,,,,,,,,,,,,,0,5.031,1,0,1,0,1,,,,,,,,,,,,,,,,,,,,,,,,,,,,,,,,,,,,,,,,,,,,,,,,,,,,,,,
,,,,,47,2020-07-04_07h05.53.891,retriever_ti,2020.1.3,MacIntel,60,Safari,1440,900,,,,,,,,,,,,,,,,,1,,,,,,,,,,,,,,,,,,,,,,,,,,,233.952,1,right,0.706,wolf          ,6,1,-1,0,0,233.959,233.959,236.464,0,0,0,0,1,1,7,6,gloves      ,wolf          ,html/resources/sequences_IDs/B/06_gloves.jpg,html/resources/sequences_IDs/A/01_wolf.jpg,6,1,3,2,1,1,5,1,0,47,,,,,,,,,,,,,,,,,,,,
,,,,,47,2020-07-04_07h05.53.891,retriever_ti,2020.1.3,MacIntel,60,Safari,1440,900,,,,,,,,,,,,,,,,,1,,,,,,,,,,,,,,,,,,,,,,,,,,,237.555,2,left,1.184,gloves      ,7,6,2,1,3,237.589,237.589,240.087,0,1,1,1,1,2,7,5,gloves      ,dolphin     ,html/resources/sequences_IDs/B/06_gloves.jpg,html/resources/sequences_IDs/B/02_dolphin.jpg,6,2,3,2,1,1,5,2,0,47,,,,,,,,,,,,,,,,,,,,
,,,,,47,2020-07-04_07h05.53.891,retriever_ti,2020.1.3,MacIntel,60,Safari,1440,900,,,,,,,,,,,,,,,,,1,,,,,,,,,,,,,,,,,,,,,,,,,,,240.688,3,left,1.52,holdfast    ,1,4,-1,0,1,240.722,240.722,243.213,0,2,2,2,1,3,1,2,holdfast    ,camel         ,html/resources/sequences_IDs/B/04_holdfast.jpg,html/resources/sequences_IDs/A/03_camel.jpg,4,3,2,1,1,1,4,3,1,47,,,,,,,,,,,,,,,,,,,,
,,,,,47,2020-07-04_07h05.53.891,retriever_ti,2020.1.3,MacIntel,60,Safari,1440,900,,,,,,,,,,,,,,,,,1,,,,,,,,,,,,,,,,,,,,,,,,,,,244.311,4,right,1.11,wolf          ,6,1,1,1,1,244.346,244.346,246.845,0,3,3,3,1,4,5,6,dolphin     ,wolf          ,html/resources/sequences_IDs/B/02_dolphin.jpg,html/resources/sequences_IDs/A/01_wolf.jpg,2,1,1,1,1,1,2,1,0,47,,,,,,,,,,,,,,,,,,,,
,,,,,47,2020-07-04_07h05.53.891,retriever_ti,2020.1.3,MacIntel,60,Safari,1440,900,,,,,,,,,,,,,,,,,1,,,,,,,,,,,,,,,,,,,,,,,,,,,247.936,5,left,2.134,calculator    ,4,9,-1,0,0,247.954,247.954,250.452,0,4,4,4,1,5,4,5,calculator    ,dolphin     ,html/resources/sequences_IDs/A/09_calculator.jpg,html/resources/sequences_IDs/B/02_dolphin.jpg,9,2,4,2,1,1,7,2,0,47,,,,,,,,,,,,,,,,,,,,
,,,,,47,2020-07-04_07h05.53.891,retriever_ti,2020.1.3,MacIntel,60,Safari,1440,900,,,,,,,,,,,,,,,,,1,,,,,,,,,,,,,,,,,,,,,,,,,,,251.552,6,right,1.412,gloves      ,7,6,-1,0,1,251.587,251.587,254.076,0,5,5,5,1,6,8,7,hat           ,gloves      ,html/resources/sequences_IDs/A/08_hat.jpg,html/resources/sequences_IDs/B/06_gloves.jpg,8,6,3,2,3,2,6,5,1,47,,,,,,,,,,,,,,,,,,,,
,,,,,47,2020-07-04_07h05.53.891,retriever_ti,2020.1.3,MacIntel,60,Safari,1440,900,,,,,,,,,,,,,,,,,1,,,,,,,,,,,,,,,,,,,,,,,,,,,255.177,7,left,1.224,dolphin     ,5,2,-3,0,3,255.211,255.211,257.7,0,6,6,6,1,7,5,8,dolphin     ,hat           ,html/resources/sequences_IDs/B/02_dolphin.jpg,html/resources/sequences_IDs/A/08_hat.jpg,2,8,1,1,3,2,2,6,0,47,,,,,,,,,,,,,,,,,,,,
,,,,,47,2020-07-04_07h05.53.891,retriever_ti,2020.1.3,MacIntel,60,Safari,1440,900,,,,,,,,,,,,,,,,,1,,,,,,,,,,,,,,,,,,,,,,,,,,,258.301,8,left,1.665,wolf          ,6,1,2,1,3,258.319,258.319,260.818,0,7,7,7,1,8,6,4,wolf          ,calculator    ,html/resources/sequences_IDs/A/01_wolf.jpg,html/resources/sequences_IDs/A/09_calculator.jpg,1,9,1,1,4,2,1,7,0,47,,,,,,,,,,,,,,,,,,,,
,,,,,47,2020-07-04_07h05.53.891,retriever_ti,2020.1.3,MacIntel,60,Safari,1440,900,,,,,,,,,,,,,,,,,1,,,,,,,,,,,,,,,,,,,,,,,,,,,261.434,9,right,0.895,calculator    ,4,9,-3,0,3,261.452,261.452,263.941,0,8,8,8,1,9,7,4,gloves      ,calculator    ,html/resources/sequences_IDs/B/06_gloves.jpg,html/resources/sequences_IDs/A/09_calculator.jpg,6,9,3,2,4,2,5,7,0,47,,,,,,,,,,,,,,,,,,,,
,,,,,47,2020-07-04_07h05.53.891,retriever_ti,2020.1.3,MacIntel,60,Safari,1440,900,,,,,,,,,,,,,,,,,1,,,,,,,,,,,,,,,,,,,,,,,,,,,264.557,10,left,0.979,radio       ,3,10,-1,0,0,264.576,264.576,267.076,0,9,9,9,1,10,3,4,radio       ,calculator    ,html/resources/sequences_IDs/B/10_radio.jpg,html/resources/sequences_IDs/A/09_calculator.jpg,10,9,4,2,4,2,8,7,0,47,,,,,,,,,,,,,,,,,,,,
,,,,,47,2020-07-04_07h05.53.891,retriever_ti,2020.1.3,MacIntel,60,Safari,1440,900,,,,,,,,,,,,,,,,,1,,,,,,,,,,,,,,,,,,,,,,,,,,,268.166,11,left,0.851,calculator    ,4,9,-4,0,3,268.182,268.182,270.682,0,10,10,10,1,11,4,8,calculator    ,hat           ,html/resources/sequences_IDs/A/09_calculator.jpg,html/resources/sequences_IDs/A/08_hat.jpg,9,8,4,2,3,2,7,6,0,47,,,,,,,,,,,,,,,,,,,,
,,,,,47,2020-07-04_07h05.53.891,retriever_ti,2020.1.3,MacIntel,60,Safari,1440,900,,,,,,,,,,,,,,,,,1,,,,,,,,,,,,,,,,,,,,,,,,,,,271.298,12,left,0.927,dolphin     ,5,2,-2,0,3,271.317,271.317,273.806,0,11,11,11,1,12,5,7,dolphin     ,gloves      ,html/resources/sequences_IDs/B/02_dolphin.jpg,html/resources/sequences_IDs/B/06_gloves.jpg,2,6,1,1,3,2,2,5,0,47,,,,,,,,,,,,,,,,,,,,
,,,,,47,2020-07-04_07h05.53.891,retriever_ti,2020.1.3,MacIntel,60,Safari,1440,900,,,,,,,,,,,,,,,,,1,,,,,,,,,,,,,,,,,,,,,,,,,,,274.423,13,right,1.057,dolphin     ,5,2,-3,0,3,274.456,274.456,276.956,0,12,12,12,1,13,8,5,hat           ,dolphin     ,html/resources/sequences_IDs/A/08_hat.jpg,html/resources/sequences_IDs/B/02_dolphin.jpg,8,2,3,2,1,1,6,2,0,47,,,,,,,,,,,,,,,,,,,,
,,,,,47,2020-07-04_07h05.53.891,retriever_ti,2020.1.3,MacIntel,60,Safari,1440,900,,,,,,,,,,,,,,,,,1,,,,,,,,,,,,,,,,,,,,,,,,,,,277.564,14,left,1.053,camel         ,2,3,1,1,1,277.581,277.581,280.08,0,13,13,13,1,14,2,1,camel         ,holdfast    ,html/resources/sequences_IDs/A/03_camel.jpg,html/resources/sequences_IDs/B/04_holdfast.jpg,3,4,1,1,2,1,3,4,0,47,,,,,,,,,,,,,,,,,,,,
,,,,,47,2020-07-04_07h05.53.891,retriever_ti,2020.1.3,MacIntel,60,Safari,1440,900,,,,,,,,,,,,,,,,,1,,,,,,,,,,,,,,,,,,,,,,,,,,,281.18,15,right,1.489,dolphin     ,5,2,4,1,3,281.213,281.213,283.704,0,14,14,14,1,15,1,5,holdfast    ,dolphin     ,html/resources/sequences_IDs/B/04_holdfast.jpg,html/resources/sequences_IDs/B/02_dolphin.jpg,4,2,2,1,1,1,4,2,0,47,,,,,,,,,,,,,,,,,,,,
,,,,,47,2020-07-04_07h05.53.891,retriever_ti,2020.1.3,MacIntel,60,Safari,1440,900,,,,,,,,,,,,,,,,,1,,,,,,,,,,,,,,,,,,,,,,,,,,,284.321,16,right,1.153,hat           ,8,8,7,1,3,284.355,284.355,286.853,0,15,15,15,1,16,1,8,holdfast    ,hat           ,html/resources/sequences_IDs/B/04_holdfast.jpg,html/resources/sequences_IDs/A/08_hat.jpg,4,8,2,1,3,2,4,6,0,47,,,,,,,,,,,,,,,,,,,,
,,,,,47,2020-07-04_07h05.53.891,retriever_ti,2020.1.3,MacIntel,60,Safari,1440,900,,,,,,,,,,,,,,,,,1,,,,,,,,,,,,,,,,,,,,,,,,,,,287.461,17,left,0.62,radio       ,3,10,1,1,0,287.497,287.497,289.995,0,16,16,16,1,17,3,2,radio       ,camel         ,html/resources/sequences_IDs/B/10_radio.jpg,html/resources/sequences_IDs/A/03_camel.jpg,10,3,4,2,1,1,8,3,1,47,,,,,,,,,,,,,,,,,,,,
,,,,,47,2020-07-04_07h05.53.891,retriever_ti,2020.1.3,MacIntel,60,Safari,1440,900,,,,,,,,,,,,,,,,,1,,,,,,,,,,,,,,,,,,,,,,,,,,,291.095,18,left,1.078,wolf          ,6,1,-1,0,0,291.13,291.13,293.619,0,17,17,17,1,18,6,7,wolf          ,gloves      ,html/resources/sequences_IDs/A/01_wolf.jpg,html/resources/sequences_IDs/B/06_gloves.jpg,1,6,1,1,3,2,1,5,0,47,,,,,,,,,,,,,,,,,,,,
,,,,,47,2020-07-04_07h05.53.891,retriever_ti,2020.1.3,MacIntel,60,Safari,1440,900,,,,,,,,,,,,,,,,,1,,,,,,,,,,,,,,,,,,,,,,,,,,,294.72,19,right,0.468,calculator    ,4,9,2,1,3,294.754,294.754,297.252,0,18,18,18,1,19,2,4,camel         ,calculator    ,html/resources/sequences_IDs/A/03_camel.jpg,html/resources/sequences_IDs/A/09_calculator.jpg,3,9,1,1,4,2,3,7,0,47,,,,,,,,,,,,,,,,,,,,
,,,,,47,2020-07-04_07h05.53.891,retriever_ti,2020.1.3,MacIntel,60,Safari,1440,900,,,,,,,,,,,,,,,,,1,,,,,,,,,,,,,,,,,,,,,,,,,,,297.859,20,left,0.524,calculator    ,4,9,-2,0,3,297.877,297.877,300.376,0,19,19,19,1,20,4,6,calculator    ,wolf          ,html/resources/sequences_IDs/A/09_calculator.jpg,html/resources/sequences_IDs/A/01_wolf.jpg,9,1,4,2,1,1,7,1,0,47,,,,,,,,,,,,,,,,,,,,
,,,,,47,2020-07-04_07h05.53.891,retriever_ti,2020.1.3,MacIntel,60,Safari,1440,900,,,,,,,,,,,,,,,,,1,,,,,,,,,,,,,,,,,,,,,,,,,,,300.993,21,right,0.935,camel         ,2,3,-6,0,3,301.011,301.011,303.5,0,20,20,20,1,21,8,2,hat           ,camel         ,html/resources/sequences_IDs/A/08_hat.jpg,html/resources/sequences_IDs/A/03_camel.jpg,8,3,3,2,1,1,6,3,0,47,,,,,,,,,,,,,,,,,,,,
,,,,,47,2020-07-04_07h05.53.891,retriever_ti,2020.1.3,MacIntel,60,Safari,1440,900,,,,,,,,,,,,,,,,,1,,,,,,,,,,,,,,,,,,,,,,,,,,,304.101,22,right,1.12,radio       ,3,10,-3,0,3,304.133,304.133,306.633,0,21,21,21,1,22,6,3,wolf          ,radio       ,html/resources/sequences_IDs/A/01_wolf.jpg,html/resources/sequences_IDs/B/10_radio.jpg,1,10,1,1,4,2,1,8,0,47,,,,,,,,,,,,,,,,,,,,
,,,,,47,2020-07-04_07h05.53.891,retriever_ti,2020.1.3,MacIntel,60,Safari,1440,900,,,,,,,,,,,,,,,,,1,,,,,,,,,,,,,,,,,,,,,,,,,,,307.251,23,left,0.912,wolf          ,6,1,-2,0,3,307.268,307.268,309.758,0,22,22,22,1,23,6,8,wolf          ,hat           ,html/resources/sequences_IDs/A/01_wolf.jpg,html/resources/sequences_IDs/A/08_hat.jpg,1,8,1,1,3,2,1,6,0,47,,,,,,,,,,,,,,,,,,,,
,,,,,47,2020-07-04_07h05.53.891,retriever_ti,2020.1.3,MacIntel,60,Safari,1440,900,,,,,,,,,,,,,,,,,1,,,,,,,,,,,,,,,,,,,,,,,,,,,310.359,24,left,1.022,dolphin     ,5,2,1,1,1,310.376,310.376,312.867,0,23,23,23,1,24,5,4,dolphin     ,calculator    ,html/resources/sequences_IDs/B/02_dolphin.jpg,html/resources/sequences_IDs/A/09_calculator.jpg,2,9,1,1,4,2,2,7,0,47,,,,,,,,,,,,,,,,,,,,
,,,,,47,2020-07-04_07h05.53.891,retriever_ti,2020.1.3,MacIntel,60,Safari,1440,900,,,,,,,,,,,,,,,,,1,,,,,,,,,,,,,,,,,,,,,,,,,,,313.966,25,left,1.194,camel         ,2,3,-3,0,3,313.999,313.999,316.499,0,24,24,24,1,25,2,5,camel         ,dolphin     ,html/resources/sequences_IDs/A/03_camel.jpg,html/resources/sequences_IDs/B/02_dolphin.jpg,3,2,1,1,1,1,3,2,0,47,,,,,,,,,,,,,,,,,,,,
,,,,,47,2020-07-04_07h05.53.891,retriever_ti,2020.1.3,MacIntel,60,Safari,1440,900,,,,,,,,,,,,,,,,,1,,,,,,,,,,,,,,,,,,,,,,,,,,,317.115,26,right,1.066,gloves      ,7,6,6,1,3,317.15,317.15,319.64,0,25,25,25,1,26,1,7,holdfast    ,gloves      ,html/resources/sequences_IDs/B/04_holdfast.jpg,html/resources/sequences_IDs/B/06_gloves.jpg,4,6,2,1,3,2,4,5,0,47,,,,,,,,,,,,,,,,,,,,
,,,,,47,2020-07-04_07h05.53.891,retriever_ti,2020.1.3,MacIntel,60,Safari,1440,900,,,,,,,,,,,,,,,,,1,,,,,,,,,,,,,,,,,,,,,,,,,,,320.24,27,left,1.178,dolphin     ,5,2,1,1,1,320.274,320.274,322.765,0,26,26,26,1,27,5,4,dolphin     ,calculator    ,html/resources/sequences_IDs/B/02_dolphin.jpg,html/resources/sequences_IDs/A/09_calculator.jpg,2,9,1,1,4,2,2,7,0,47,,,,,,,,,,,,,,,,,,,,
,,,,,47,2020-07-04_07h05.53.891,retriever_ti,2020.1.3,MacIntel,60,Safari,1440,900,,,,,,,,,,,,,,,,,1,,,,,,,,,,,,,,,,,,,,,,,,,,,323.865,28,left,1.026,radio       ,3,10,-1,0,1,323.883,323.883,326.381,0,27,27,27,1,28,3,4,radio       ,calculator    ,html/resources/sequences_IDs/B/10_radio.jpg,html/resources/sequences_IDs/A/09_calculator.jpg,10,9,4,2,4,2,8,7,1,47,,,,,,,,,,,,,,,,,,,,
,,,,,47,2020-07-04_07h05.53.891,retriever_ti,2020.1.3,MacIntel,60,Safari,1440,900,,,,,,,,,,,,,,,,,1,,,,,,,,,,,,,,,,,,,,,,,,,,,327.472,29,left,1.169,hat           ,8,8,1,1,1,327.49,327.49,329.988,0,28,28,28,1,29,8,7,hat           ,gloves      ,html/resources/sequences_IDs/A/08_hat.jpg,html/resources/sequences_IDs/B/06_gloves.jpg,8,6,3,2,3,2,6,5,0,47,,,,,,,,,,,,,,,,,,,,
,,,,,47,2020-07-04_07h05.53.891,retriever_ti,2020.1.3,MacIntel,60,Safari,1440,900,,,,,,,,,,,,,,,,,1,,,,,,,,,,,,,,,,,,,,,,,,,,,331.089,30,right,0.975,radio       ,3,10,-5,0,3,331.122,331.122,333.613,0,29,29,29,1,30,8,3,hat           ,radio       ,html/resources/sequences_IDs/A/08_hat.jpg,html/resources/sequences_IDs/B/10_radio.jpg,8,10,3,2,4,2,6,8,0,47,,,,,,,,,,,,,,,,,,,,
,,,,,47,2020-07-04_07h05.53.891,retriever_ti,2020.1.3,MacIntel,60,Safari,1440,900,,,,,,,,,,,,,,,,,1,,,,,,,,,,,,,,,,,,,,,,,,,,,334.229,31,left,0.952,wolf          ,6,1,5,1,3,334.264,334.264,336.763,0,30,30,30,1,31,6,1,wolf          ,holdfast    ,html/resources/sequences_IDs/A/01_wolf.jpg,html/resources/sequences_IDs/B/04_holdfast.jpg,1,4,1,1,2,1,1,4,0,47,,,,,,,,,,,,,,,,,,,,
,,,,,47,2020-07-04_07h05.53.891,retriever_ti,2020.1.3,MacIntel,60,Safari,1440,900,,,,,,,,,,,,,,,,,1,,,,,,,,,,,,,,,,,,,,,,,,,,,337.379,32,left,0.71,radio       ,3,10,-4,0,3,337.417,337.417,339.92,0,31,31,31,1,32,3,7,radio       ,gloves      ,html/resources/sequences_IDs/B/10_radio.jpg,html/resources/sequences_IDs/B/06_gloves.jpg,10,6,4,2,3,2,8,5,0,47,,,,,,,,,,,,,,,,,,,,
,,,,,47,2020-07-04_07h05.53.891,retriever_ti,2020.1.3,MacIntel,60,Safari,1440,900,,,,,,,,,,,,,,,,,1,,,,,,,,,,,,,,,,,,,,,,,,,,,340.542,33,right,1.374,holdfast    ,1,4,-6,0,3,340.553,340.553,343.044,0,32,32,32,1,33,7,1,gloves      ,holdfast    ,html/resources/sequences_IDs/B/06_gloves.jpg,html/resources/sequences_IDs/B/04_holdfast.jpg,6,4,3,2,2,1,5,4,0,47,,,,,,,,,,,,,,,,,,,,
,,,,,47,2020-07-04_07h05.53.891,retriever_ti,2020.1.3,MacIntel,60,Safari,1440,900,,,,,,,,,,,,,,,,,1,,,,,,,,,,,,,,,,,,,,,,,,,,,343.661,34,left,0.587,holdfast    ,1,4,-2,0,3,343.679,343.679,346.177,0,33,33,33,1,34,1,3,holdfast    ,radio       ,html/resources/sequences_IDs/B/04_holdfast.jpg,html/resources/sequences_IDs/B/10_radio.jpg,4,10,2,1,4,2,4,8,0,47,,,,,,,,,,,,,,,,,,,,
,,,,,47,2020-07-04_07h05.53.891,retriever_ti,2020.1.3,MacIntel,60,Safari,1440,900,,,,,,,,,,,,,,,,,1,,,,,,,,,,,,,,,,,,,,,,,,,,,346.795,35,left,0.851,dolphin     ,5,2,4,1,3,346.811,346.811,349.302,0,34,34,34,1,35,5,1,dolphin     ,holdfast    ,html/resources/sequences_IDs/B/02_dolphin.jpg,html/resources/sequences_IDs/B/04_holdfast.jpg,2,4,1,1,2,1,2,4,0,47,,,,,,,,,,,,,,,,,,,,
,,,,,47,2020-07-04_07h05.53.891,retriever_ti,2020.1.3,MacIntel,60,Safari,1440,900,,,,,,,,,,,,,,,,,1,,,,,,,,,,,,,,,,,,,,,,,,,,,349.919,36,left,1.506,wolf          ,6,1,1,1,1,349.952,349.952,352.458,0,35,35,35,1,36,6,5,wolf          ,dolphin     ,html/resources/sequences_IDs/A/01_wolf.jpg,html/resources/sequences_IDs/B/02_dolphin.jpg,1,2,1,1,1,1,1,2,0,47,,,,,,,,,,,,,,,,,,,,
,,,,,47,2020-07-04_07h05.53.891,retriever_ti,2020.1.3,MacIntel,60,Safari,1440,900,,,,,,,,,,,,,,,,,1,,,,,,,,,,,,,,,,,,,,,,,,,,,353.56,37,left,1.308,calculator    ,4,9,3,1,3,353.595,353.595,356.093,0,36,36,36,1,37,4,1,calculator    ,holdfast    ,html/resources/sequences_IDs/A/09_calculator.jpg,html/resources/sequences_IDs/B/04_holdfast.jpg,9,4,4,2,2,1,7,4,0,47,,,,,,,,,,,,,,,,,,,,
,,,,,47,2020-07-04_07h05.53.891,retriever_ti,2020.1.3,MacIntel,60,Safari,1440,900,,,,,,,,,,,,,,,,,1,,,,,,,,,,,,,,,,,,,,,,,,,,,356.71,38,left,1.015,camel         ,2,3,-4,0,3,356.743,356.743,359.236,0,37,37,37,1,38,2,6,camel         ,wolf          ,html/resources/sequences_IDs/A/03_camel.jpg,html/resources/sequences_IDs/A/01_wolf.jpg,3,1,1,1,1,1,3,1,0,47,,,,,,,,,,,,,,,,,,,,
,,,,,47,2020-07-04_07h05.53.891,retriever_ti,2020.1.3,MacIntel,60,Safari,1440,900,,,,,,,,,,,,,,,,,1,,,,,,,,,,,,,,,,,,,,,,,,,,,359.835,39,left,1.17,wolf          ,6,1,4,1,3,359.868,359.868,362.368,0,38,38,38,1,39,6,2,wolf          ,camel         ,html/resources/sequences_IDs/A/01_wolf.jpg,html/resources/sequences_IDs/A/03_camel.jpg,1,3,1,1,1,1,1,3,0,47,,,,,,,,,,,,,,,,,,,,
,,,,,47,2020-07-04_07h05.53.891,retriever_ti,2020.1.3,MacIntel,60,Safari,1440,900,,,,,,,,,,,,,,,,,1,,,,,,,,,,,,,,,,,,,,,,,,,,,362.976,40,left,0.956,calculator    ,4,9,-1,0,0,363.009,363.009,365.509,0,39,39,39,1,40,4,5,calculator    ,dolphin     ,html/resources/sequences_IDs/A/09_calculator.jpg,html/resources/sequences_IDs/B/02_dolphin.jpg,9,2,4,2,1,1,7,2,0,47,,,,,,,,,,,,,,,,,,,,
,,,,,47,2020-07-04_07h05.53.891,retriever_ti,2020.1.3,MacIntel,60,Safari,1440,900,,,,,,,,,,,,,,,,,1,,,,,,,,,,,,,,,,,,,,,,,,,,,366.611,41,right,0.934,holdfast    ,1,4,-7,0,3,366.627,366.627,369.118,0,40,40,40,1,41,8,1,hat           ,holdfast    ,html/resources/sequences_IDs/A/08_hat.jpg,html/resources/sequences_IDs/B/04_holdfast.jpg,8,4,3,2,2,1,6,4,0,47,,,,,,,,,,,,,,,,,,,,
,,,,,47,2020-07-04_07h05.53.891,retriever_ti,2020.1.3,MacIntel,60,Safari,1440,900,,,,,,,,,,,,,,,,,1,,,,,,,,,,,,,,,,,,,,,,,,,,,369.717,42,left,0.936,calculator    ,4,9,-1,0,1,369.733,369.733,372.233,0,41,41,41,1,42,4,5,calculator    ,dolphin     ,html/resources/sequences_IDs/A/09_calculator.jpg,html/resources/sequences_IDs/B/02_dolphin.jpg,9,2,4,2,1,1,7,2,1,47,,,,,,,,,,,,,,,,,,,,
,,,,,47,2020-07-04_07h05.53.891,retriever_ti,2020.1.3,MacIntel,60,Safari,1440,900,,,,,,,,,,,,,,,,,1,,,,,,,,,,,,,,,,,,,,,,,,,,,373.324,43,right,1.133,radio       ,3,10,-2,0,3,373.342,373.342,375.84,0,42,42,42,1,43,5,3,dolphin     ,radio       ,html/resources/sequences_IDs/B/02_dolphin.jpg,html/resources/sequences_IDs/B/10_radio.jpg,2,10,1,1,4,2,2,8,0,47,,,,,,,,,,,,,,,,,,,,
,,,,,47,2020-07-04_07h05.53.891,retriever_ti,2020.1.3,MacIntel,60,Safari,1440,900,,,,,,,,,,,,,,,,,1,,,,,,,,,,,,,,,,,,,,,,,,,,,376.458,44,right,0.952,radio       ,3,10,-1,0,0,376.475,376.475,378.964,0,43,43,43,1,44,4,3,calculator    ,radio       ,html/resources/sequences_IDs/A/09_calculator.jpg,html/resources/sequences_IDs/B/10_radio.jpg,9,10,4,2,4,2,7,8,0,47,,,,,,,,,,,,,,,,,,,,
,,,,,47,2020-07-04_07h05.53.891,retriever_ti,2020.1.3,MacIntel,60,Safari,1440,900,,,,,,,,,,,,,,,,,1,,,,,,,,,,,,,,,,,,,,,,,,,,,380.065,45,left,0.886,camel         ,2,3,-6,0,3,380.083,380.083,382.572,0,44,44,44,1,45,2,8,camel         ,hat           ,html/resources/sequences_IDs/A/03_camel.jpg,html/resources/sequences_IDs/A/08_hat.jpg,3,8,1,1,3,2,3,6,0,47,,,,,,,,,,,,,,,,,,,,
,,,,,47,2020-07-04_07h05.53.891,retriever_ti,2020.1.3,MacIntel,60,Safari,1440,900,,,,,,,,,,,,,,,,,1,,,,,,,,,,,,,,,,,,,,,,,,,,,383.188,46,right,0.676,radio       ,3,10,1,1,1,383.224,383.224,385.722,0,45,45,45,1,46,2,3,camel         ,radio       ,html/resources/sequences_IDs/A/03_camel.jpg,html/resources/sequences_IDs/B/10_radio.jpg,3,10,1,1,4,2,3,8,0,47,,,,,,,,,,,,,,,,,,,,
,,,,,47,2020-07-04_07h05.53.891,retriever_ti,2020.1.3,MacIntel,60,Safari,1440,900,,,,,,,,,,,,,,,,,1,,,,,,,,,,,,,,,,,,,,,,,,,,,386.822,47,left,0.868,camel         ,2,3,-5,0,3,386.839,386.839,389.33,0,46,46,46,1,47,2,7,camel         ,gloves      ,html/resources/sequences_IDs/A/03_camel.jpg,html/resources/sequences_IDs/B/06_gloves.jpg,3,6,1,1,3,2,3,5,0,47,,,,,,,,,,,,,,,,,,,,
,,,,,47,2020-07-04_07h05.53.891,retriever_ti,2020.1.3,MacIntel,60,Safari,1440,900,,,,,,,,,,,,,,,,,1,,,,,,,,,,,,,,,,,,,,,,,,,,,389.947,48,left,0.752,radio       ,3,10,2,1,3,389.981,389.981,392.48,0,47,47,47,1,48,3,1,radio       ,holdfast    ,html/resources/sequences_IDs/B/10_radio.jpg,html/resources/sequences_IDs/B/04_holdfast.jpg,10,4,4,2,2,1,8,4,0,47,,,,,,,,,,,,,,,,,,,,
,,,,,47,2020-07-04_07h05.53.891,retriever_ti,2020.1.3,MacIntel,60,Safari,1440,900,,,,,,,,,,,,,,,,,1,,,,,,,,,,,,,,,,,,,,,,,,,,,393.088,49,left,0.603,wolf          ,6,1,-1,0,0,393.106,393.106,395.604,0,48,48,48,1,49,6,7,wolf          ,gloves      ,html/resources/sequences_IDs/A/01_wolf.jpg,html/resources/sequences_IDs/B/06_gloves.jpg,1,6,1,1,3,2,1,5,0,47,,,,,,,,,,,,,,,,,,,,
,,,,,47,2020-07-04_07h05.53.891,retriever_ti,2020.1.3,MacIntel,60,Safari,1440,900,,,,,,,,,,,,,,,,,1,,,,,,,,,,,,,,,,,,,,,,,,,,,396.704,50,right,0.67,gloves      ,7,6,-1,0,0,396.722,396.722,399.211,0,49,49,49,1,50,8,7,hat           ,gloves      ,html/resources/sequences_IDs/A/08_hat.jpg,html/resources/sequences_IDs/B/06_gloves.jpg,8,6,3,2,3,2,6,5,0,47,,,,,,,,,,,,,,,,,,,,
,,,,,47,2020-07-04_07h05.53.891,retriever_ti,2020.1.3,MacIntel,60,Safari,1440,900,,,,,,,,,,,,,,,,,1,,,,,,,,,,,,,,,,,,,,,,,,,,,400.312,51,right,0.661,hat           ,8,8,1,1,1,400.33,400.33,402.819,0,50,50,50,1,51,7,8,gloves      ,hat           ,html/resources/sequences_IDs/B/06_gloves.jpg,html/resources/sequences_IDs/A/08_hat.jpg,6,8,3,2,3,2,5,6,0,47,,,,,,,,,,,,,,,,,,,,
,,,,,47,2020-07-04_07h05.53.891,retriever_ti,2020.1.3,MacIntel,60,Safari,1440,900,,,,,,,,,,,,,,,,,1,,,,,,,,,,,,,,,,,,,,,,,,,,,403.92,52,left,1.041,radio       ,3,10,1,1,1,403.953,403.953,406.453,0,51,51,51,1,52,3,2,radio       ,camel         ,html/resources/sequences_IDs/B/10_radio.jpg,html/resources/sequences_IDs/A/03_camel.jpg,10,3,4,2,1,1,8,3,0,47,,,,,,,,,,,,,,,,,,,,
,,,,,47,2020-07-04_07h05.53.891,retriever_ti,2020.1.3,MacIntel,60,Safari,1440,900,,,,,,,,,,,,,,,,,1,,,,,,,,,,,,,,,,,,,,,,,,,,,407.543,53,NaN,NaN,No_response,NaN,NaN,NaN,2,2,407.576,407.576,410.076,0,52,52,52,1,53,4,7,calculator    ,gloves      ,html/resources/sequences_IDs/A/09_calculator.jpg,html/resources/sequences_IDs/B/06_gloves.jpg,9,6,4,2,3,2,7,5,0,47,,,,,,,,,,,,,,,,,,,,
,,,,,47,2020-07-04_07h05.53.891,retriever_ti,2020.1.3,MacIntel,60,Safari,1440,900,,,,,,,,,,,,,,,,,1,,,,,,,,,,,,,,,,,,,,,,,,,,,411.176,54,left,0.49,radio       ,3,10,-5,0,3,411.194,411.194,413.684,0,53,53,53,1,54,3,8,radio       ,hat           ,html/resources/sequences_IDs/B/10_radio.jpg,html/resources/sequences_IDs/A/08_hat.jpg,10,8,4,2,3,2,8,6,0,47,,,,,,,,,,,,,,,,,,,,
,,,,,47,2020-07-04_07h05.53.891,retriever_ti,2020.1.3,MacIntel,60,Safari,1440,900,,,,,,,,,,,,,,,,,1,,,,,,,,,,,,,,,,,,,,,,,,,,,414.3,55,right,0.392,calculator    ,4,9,3,1,3,414.317,414.317,416.818,0,54,54,54,1,55,1,4,holdfast    ,calculator    ,html/resources/sequences_IDs/B/04_holdfast.jpg,html/resources/sequences_IDs/A/09_calculator.jpg,4,9,2,1,4,2,4,7,0,47,,,,,,,,,,,,,,,,,,,,
,,,,,47,2020-07-04_07h05.53.891,retriever_ti,2020.1.3,MacIntel,60,Safari,1440,900,,,,,,,,,,,,,,,,,1,,,,,,,,,,,,,,,,,,,,,,,,,,,417.436,56,left,0.426,radio       ,3,10,-2,0,3,417.469,417.469,419.959,0,55,55,55,1,56,3,5,radio       ,dolphin     ,html/resources/sequences_IDs/B/10_radio.jpg,html/resources/sequences_IDs/B/02_dolphin.jpg,10,2,4,2,1,1,8,2,0,47,,,,,,,,,,,,,,,,,,,,
,,,,,47,2020-07-04_07h05.53.891,retriever_ti,2020.1.3,MacIntel,60,Safari,1440,900,,,,,,,,,,,,,,,,,1,,,,,,,,,,,,,,,,,,,,,,,,,,,420.559,57,right,0.373,camel         ,2,3,-3,0,3,420.594,420.594,423.083,0,56,56,56,1,57,5,2,dolphin     ,camel         ,html/resources/sequences_IDs/B/02_dolphin.jpg,html/resources/sequences_IDs/A/03_camel.jpg,2,3,1,1,1,1,2,3,0,47,,,,,,,,,,,,,,,,,,,,
,,,,,47,2020-07-04_07h05.53.891,retriever_ti,2020.1.3,MacIntel,60,Safari,1440,900,,,,,,,,,,,,,,,,,1,,,,,,,,,,,,,,,,,,,,,,,,,,,423.7,58,right,0.435,wolf          ,6,1,5,1,3,423.733,423.733,426.233,0,57,57,57,1,58,1,6,holdfast    ,wolf          ,html/resources/sequences_IDs/B/04_holdfast.jpg,html/resources/sequences_IDs/A/01_wolf.jpg,4,1,2,1,1,1,4,1,0,47,,,,,,,,,,,,,,,,,,,,
,,,,,47,2020-07-04_07h05.53.891,retriever_ti,2020.1.3,MacIntel,60,Safari,1440,900,,,,,,,,,,,,,,,,,1,,,,,,,,,,,,,,,,,,,,,,,,,,,426.85,59,left,0.487,camel         ,2,3,1,1,1,426.883,426.883,429.373,0,58,58,58,1,59,2,1,camel         ,holdfast    ,html/resources/sequences_IDs/A/03_camel.jpg,html/resources/sequences_IDs/B/04_holdfast.jpg,3,4,1,1,2,1,3,4,0,47,,,,,,,,,,,,,,,,,,,,
,,,,,47,2020-07-04_07h05.53.891,retriever_ti,2020.1.3,MacIntel,60,Safari,1440,900,,,,,,,,,,,,,,,,,1,,,,,,,,,,,,,,,,,,,,,,,,,,,430.474,60,right,0.56,radio       ,3,10,-4,0,3,430.492,430.492,432.98,0,59,59,59,1,60,7,3,gloves      ,radio       ,html/resources/sequences_IDs/B/06_gloves.jpg,html/resources/sequences_IDs/B/10_radio.jpg,6,10,3,2,4,2,5,8,0,47,,,,,,,,,,,,,,,,,,,,
,,,,,47,2020-07-04_07h05.53.891,retriever_ti,2020.1.3,MacIntel,60,Safari,1440,900,,,,,,,,,,,,,,,,,1,,,,,,,,,,,,,,,,,,,,,,,,,,,433.597,61,left,0.432,holdfast    ,1,4,-1,0,0,433.615,433.615,436.113,0,60,60,60,1,61,1,2,holdfast    ,camel         ,html/resources/sequences_IDs/B/04_holdfast.jpg,html/resources/sequences_IDs/A/03_camel.jpg,4,3,2,1,1,1,4,3,0,47,,,,,,,,,,,,,,,,,,,,
,,,,,47,2020-07-04_07h05.53.891,retriever_ti,2020.1.3,MacIntel,60,Safari,1440,900,,,,,,,,,,,,,,,,,1,,,,,,,,,,,,,,,,,,,,,,,,,,,437.214,62,right,0.648,wolf          ,6,1,1,1,1,437.231,437.231,439.72,0,61,61,61,1,62,5,6,dolphin     ,wolf          ,html/resources/sequences_IDs/B/02_dolphin.jpg,html/resources/sequences_IDs/A/01_wolf.jpg,2,1,1,1,1,1,2,1,0,47,,,,,,,,,,,,,,,,,,,,
,,,,,47,2020-07-04_07h05.53.891,retriever_ti,2020.1.3,MacIntel,60,Safari,1440,900,,,,,,,,,,,,,,,,,1,,,,,,,,,,,,,,,,,,,,,,,,,,,440.821,63,right,0.475,radio       ,3,10,1,1,1,440.839,440.839,443.328,0,62,62,62,1,63,2,3,camel         ,radio       ,html/resources/sequences_IDs/A/03_camel.jpg,html/resources/sequences_IDs/B/10_radio.jpg,3,10,1,1,4,2,3,8,0,47,,,,,,,,,,,,,,,,,,,,
,,,,,47,2020-07-04_07h05.53.891,retriever_ti,2020.1.3,MacIntel,60,Safari,1440,900,,,,,,,,,,,,,,,,,1,,,,,,,,,,,,,,,,,,,,,,,,,,,444.427,64,left,0.369,radio       ,3,10,1,1,1,444.445,444.445,446.945,0,63,63,63,1,64,3,2,radio       ,camel         ,html/resources/sequences_IDs/B/10_radio.jpg,html/resources/sequences_IDs/A/03_camel.jpg,10,3,4,2,1,1,8,3,0,47,,,,,,,,,,,,,,,,,,,,
,,,,,47,2020-07-04_07h05.53.891,retriever_ti,2020.1.3,MacIntel,60,Safari,1440,900,,,,,,,,,,,,,,,,,1,,,,,,,,,,,,,,,,,,,,,,,,,,,448.037,65,right,0.579,camel         ,2,3,-5,0,3,448.071,448.071,450.569,0,64,64,64,1,65,7,2,gloves      ,camel         ,html/resources/sequences_IDs/B/06_gloves.jpg,html/resources/sequences_IDs/A/03_camel.jpg,6,3,3,2,1,1,5,3,0,47,,,,,,,,,,,,,,,,,,,,
,,,,,47,2020-07-04_07h05.53.891,retriever_ti,2020.1.3,MacIntel,60,Safari,1440,900,,,,,,,,,,,,,,,,,1,,,,,,,,,,,,,,,,,,,,,,,,,,,451.17,66,right,0.659,hat           ,8,8,1,1,1,451.187,451.187,453.677,0,65,65,65,1,66,7,8,gloves      ,hat           ,html/resources/sequences_IDs/B/06_gloves.jpg,html/resources/sequences_IDs/A/08_hat.jpg,6,8,3,2,3,2,5,6,0,47,,,,,,,,,,,,,,,,,,,,
,,,,,47,2020-07-04_07h05.53.891,retriever_ti,2020.1.3,MacIntel,60,Safari,1440,900,,,,,,,,,,,,,,,,,1,,,,,,,,,,,,,,,,,,,,,,,,,,,454.777,67,right,0.722,radio       ,3,10,-1,0,0,454.794,454.794,457.293,0,66,66,66,1,67,4,3,calculator    ,radio       ,html/resources/sequences_IDs/A/09_calculator.jpg,html/resources/sequences_IDs/B/10_radio.jpg,9,10,4,2,4,2,7,8,0,47,,,,,,,,,,,,,,,,,,,,
,,,,,47,2020-07-04_07h05.53.891,retriever_ti,2020.1.3,MacIntel,60,Safari,1440,900,,,,,,,,,,,,,,,,,1,,,,,,,,,,,,,,,,,,,,,,,,,,,458.385,68,right,0.703,wolf          ,6,1,-1,0,1,458.418,458.418,460.918,0,67,67,67,1,68,7,6,gloves      ,wolf          ,html/resources/sequences_IDs/B/06_gloves.jpg,html/resources/sequences_IDs/A/01_wolf.jpg,6,1,3,2,1,1,5,1,1,47,,,,,,,,,,,,,,,,,,,,
,,,,,47,2020-07-04_07h05.53.891,retriever_ti,2020.1.3,MacIntel,60,Safari,1440,900,,,,,,,,,,,,,,,,,1,,,,,,,,,,,,,,,,,,,,,,,,,,,462.017,69,left,0.631,wolf          ,6,1,1,1,1,462.052,462.052,464.542,0,68,68,68,1,69,6,5,wolf          ,dolphin     ,html/resources/sequences_IDs/A/01_wolf.jpg,html/resources/sequences_IDs/B/02_dolphin.jpg,1,2,1,1,1,1,1,2,0,47,,,,,,,,,,,,,,,,,,,,
,,,,,47,2020-07-04_07h05.53.891,retriever_ti,2020.1.3,MacIntel,60,Safari,1440,900,,,,,,,,,,,,,,,,,1,,,,,,,,,,,,,,,,,,,,,,,,,,,465.642,70,right,0.695,wolf          ,6,1,-1,0,0,465.66,465.66,468.149,0,69,69,69,1,70,7,6,gloves      ,wolf          ,html/resources/sequences_IDs/B/06_gloves.jpg,html/resources/sequences_IDs/A/01_wolf.jpg,6,1,3,2,1,1,5,1,0,47,,,,,,,,,,,,,,,,,,,,
,,,,,47,2020-07-04_07h05.53.891,retriever_ti,2020.1.3,MacIntel,60,Safari,1440,900,,,,,,,,,,,,,,,,,1,,,,,,,,,,,,,,,,,,,,,,,,,,,469.25,71,right,0.685,wolf          ,6,1,1,1,0,469.268,469.268,471.766,0,70,70,70,1,71,5,6,dolphin     ,wolf          ,html/resources/sequences_IDs/B/02_dolphin.jpg,html/resources/sequences_IDs/A/01_wolf.jpg,2,1,1,1,1,1,2,1,1,47,,,,,,,,,,,,,,,,,,,,
,,,,,47,2020-07-04_07h05.53.891,retriever_ti,2020.1.3,MacIntel,60,Safari,1440,900,,,,,,,,,,,,,,,,,1,,,,,,,,,,,,,,,,,,,,,,,,,,,472.857,72,left,0.977,hat           ,8,8,4,1,3,472.892,472.892,475.39,0,71,71,71,1,72,8,4,hat           ,calculator    ,html/resources/sequences_IDs/A/08_hat.jpg,html/resources/sequences_IDs/A/09_calculator.jpg,8,9,3,2,4,2,6,7,0,47,,,,,,,,,,,,,,,,,,,,
,,,,,47,2020-07-04_07h05.53.891,retriever_ti,2020.1.3,MacIntel,60,Safari,1440,900,,,,,,,,,,,,,,,,,1,,,,,,,,,,,,,,,,,,,,,,,,,,,476.007,73,left,0.527,radio       ,3,10,-3,0,3,476.024,476.024,478.514,0,72,72,72,1,73,3,6,radio       ,wolf          ,html/resources/sequences_IDs/B/10_radio.jpg,html/resources/sequences_IDs/A/01_wolf.jpg,10,1,4,2,1,1,8,1,0,47,,,,,,,,,,,,,,,,,,,,
,,,,,47,2020-07-04_07h05.53.891,retriever_ti,2020.1.3,MacIntel,60,Safari,1440,900,,,,,,,,,,,,,,,,,1,,,,,,,,,,,,,,,,,,,,,,,,,,,479.115,74,left,0.588,hat           ,8,8,2,1,3,479.131,479.131,481.63,0,73,73,73,1,74,8,6,hat           ,wolf          ,html/resources/sequences_IDs/A/08_hat.jpg,html/resources/sequences_IDs/A/01_wolf.jpg,8,1,3,2,1,1,6,1,0,47,,,,,,,,,,,,,,,,,,,,
,,,,,47,2020-07-04_07h05.53.891,retriever_ti,2020.1.3,MacIntel,60,Safari,1440,900,,,,,,,,,,,,,,,,,1,,,,,,,,,,,,,,,,,,,,,,,,,,,482.237,75,left,0.578,calculator    ,4,9,2,1,3,482.249,482.249,484.738,0,74,74,74,1,75,4,2,calculator    ,camel         ,html/resources/sequences_IDs/A/09_calculator.jpg,html/resources/sequences_IDs/A/03_camel.jpg,9,3,4,2,1,1,7,3,0,47,,,,,,,,,,,,,,,,,,,,
,,,,,47,2020-07-04_07h05.53.891,retriever_ti,2020.1.3,MacIntel,60,Safari,1440,900,,,,,,,,,,,,,,,,,1,,,,,,,,,,,,,,,,,,,,,,,,,,,485.356,76,right,0.632,camel         ,2,3,1,1,1,485.373,485.373,487.863,0,75,75,75,1,76,1,2,holdfast    ,camel         ,html/resources/sequences_IDs/B/04_holdfast.jpg,html/resources/sequences_IDs/A/03_camel.jpg,4,3,2,1,1,1,4,3,0,47,,,,,,,,,,,,,,,,,,,,
,,,,,47,2020-07-04_07h05.53.891,retriever_ti,2020.1.3,MacIntel,60,Safari,1440,900,,,,,,,,,,,,,,,,,1,,,,,,,,,,,,,,,,,,,,,,,,,,,488.963,77,right,0.911,calculator    ,4,9,1,1,1,488.995,488.995,491.496,0,76,76,76,1,77,3,4,radio       ,calculator    ,html/resources/sequences_IDs/B/10_radio.jpg,html/resources/sequences_IDs/A/09_calculator.jpg,10,9,4,2,4,2,8,7,0,47,,,,,,,,,,,,,,,,,,,,
,,,,,47,2020-07-04_07h05.53.891,retriever_ti,2020.1.3,MacIntel,60,Safari,1440,900,,,,,,,,,,,,,,,,,,,,,,,,,,,,,,,,,,,,,0,3.832,,,,,,,,,,,,,,,,,,,,,,,,,,,,,,,,,,,,,,,,,0,0,0,0,1,,,,,,,,,,,,,,,
,,,,,47,2020-07-04_07h05.53.891,retriever_ti,2020.1.3,MacIntel,60,Safari,1440,900,,,,,,,,,,,,,,,,,2,,,,,,,,,,,,,,,,,,,,,,,,,,,507.85,78,right,0.609,holdfast    ,1,4,-1,0,0,507.862,507.862,510.36,0,0,0,0,1,78,2,1,camel         ,holdfast    ,html/resources/sequences_IDs/A/03_camel.jpg,html/resources/sequences_IDs/B/04_holdfast.jpg,3,4,1,1,2,1,3,4,0,47,,,,,,,,,,,,,,,,,,,,
,,,,,47,2020-07-04_07h05.53.891,retriever_ti,2020.1.3,MacIntel,60,Safari,1440,900,,,,,,,,,,,,,,,,,2,,,,,,,,,,,,,,,,,,,,,,,,,,,511.462,79,left,0.756,wolf          ,6,1,-1,0,0,511.478,511.478,513.968,0,1,1,1,1,79,6,7,wolf          ,gloves      ,html/resources/sequences_IDs/A/01_wolf.jpg,html/resources/sequences_IDs/B/06_gloves.jpg,1,6,1,1,3,2,1,5,0,47,,,,,,,,,,,,,,,,,,,,
,,,,,47,2020-07-04_07h05.53.891,retriever_ti,2020.1.3,MacIntel,60,Safari,1440,900,,,,,,,,,,,,,,,,,2,,,,,,,,,,,,,,,,,,,,,,,,,,,515.068,80,right,1.104,radio       ,3,10,-4,0,3,515.101,515.101,517.601,0,2,2,2,1,80,7,3,gloves      ,radio       ,html/resources/sequences_IDs/B/06_gloves.jpg,html/resources/sequences_IDs/B/10_radio.jpg,6,10,3,2,4,2,5,8,0,47,,,,,,,,,,,,,,,,,,,,
,,,,,47,2020-07-04_07h05.53.891,retriever_ti,2020.1.3,MacIntel,60,Safari,1440,900,,,,,,,,,,,,,,,,,2,,,,,,,,,,,,,,,,,,,,,,,,,,,518.209,81,left,0.656,calculator    ,4,9,2,1,3,518.225,518.225,520.725,0,3,3,3,1,81,4,2,calculator    ,camel         ,html/resources/sequences_IDs/A/09_calculator.jpg,html/resources/sequences_IDs/A/03_camel.jpg,9,3,4,2,1,1,7,3,0,47,,,,,,,,,,,,,,,,,,,,
,,,,,47,2020-07-04_07h05.53.891,retriever_ti,2020.1.3,MacIntel,60,Safari,1440,900,,,,,,,,,,,,,,,,,2,,,,,,,,,,,,,,,,,,,,,,,,,,,521.342,82,left,0.485,camel         ,2,3,-1,0,1,521.36,521.36,523.849,0,4,4,4,1,82,2,3,camel         ,radio       ,html/resources/sequences_IDs/A/03_camel.jpg,html/resources/sequences_IDs/B/10_radio.jpg,3,10,1,1,4,2,3,8,1,47,,,,,,,,,,,,,,,,,,,,
,,,,,47,2020-07-04_07h05.53.891,retriever_ti,2020.1.3,MacIntel,60,Safari,1440,900,,,,,,,,,,,,,,,,,2,,,,,,,,,,,,,,,,,,,,,,,,,,,524.95,83,left,0.653,radio       ,3,10,-2,0,3,524.965,524.965,527.466,0,5,5,5,1,83,3,5,radio       ,dolphin     ,html/resources/sequences_IDs/B/10_radio.jpg,html/resources/sequences_IDs/B/02_dolphin.jpg,10,2,4,2,1,1,8,2,0,47,,,,,,,,,,,,,,,,,,,,
,,,,,47,2020-07-04_07h05.53.891,retriever_ti,2020.1.3,MacIntel,60,Safari,1440,900,,,,,,,,,,,,,,,,,2,,,,,,,,,,,,,,,,,,,,,,,,,,,528.074,84,right,0.794,dolphin     ,5,2,4,1,3,528.106,528.106,530.606,0,6,6,6,1,84,1,5,holdfast    ,dolphin     ,html/resources/sequences_IDs/B/04_holdfast.jpg,html/resources/sequences_IDs/B/02_dolphin.jpg,4,2,2,1,1,1,4,2,0,47,,,,,,,,,,,,,,,,,,,,
,,,,,47,2020-07-04_07h05.53.891,retriever_ti,2020.1.3,MacIntel,60,Safari,1440,900,,,,,,,,,,,,,,,,,2,,,,,,,,,,,,,,,,,,,,,,,,,,,531.207,85,left,0.707,dolphin     ,5,2,3,1,3,531.223,531.223,533.714,0,7,7,7,1,85,5,2,dolphin     ,camel         ,html/resources/sequences_IDs/B/02_dolphin.jpg,html/resources/sequences_IDs/A/03_camel.jpg,2,3,1,1,1,1,2,3,0,47,,,,,,,,,,,,,,,,,,,,
,,,,,47,2020-07-04_07h05.53.891,retriever_ti,2020.1.3,MacIntel,60,Safari,1440,900,,,,,,,,,,,,,,,,,2,,,,,,,,,,,,,,,,,,,,,,,,,,,534.33,86,left,0.776,calculator    ,4,9,1,1,0,534.349,534.349,536.847,0,8,8,8,1,86,4,3,calculator    ,radio       ,html/resources/sequences_IDs/A/09_calculator.jpg,html/resources/sequences_IDs/B/10_radio.jpg,9,10,4,2,4,2,7,8,1,47,,,,,,,,,,,,,,,,,,,,
,,,,,47,2020-07-04_07h05.53.891,retriever_ti,2020.1.3,MacIntel,60,Safari,1440,900,,,,,,,,,,,,,,,,,2,,,,,,,,,,,,,,,,,,,,,,,,,,,537.939,87,right,0.56,calculator    ,4,9,-2,0,3,537.955,537.955,540.455,0,9,9,9,1,87,6,4,wolf          ,calculator    ,html/resources/sequences_IDs/A/01_wolf.jpg,html/resources/sequences_IDs/A/09_calculator.jpg,1,9,1,1,4,2,1,7,0,47,,,,,,,,,,,,,,,,,,,,
,,,,,47,2020-07-04_07h05.53.891,retriever_ti,2020.1.3,MacIntel,60,Safari,1440,900,,,,,,,,,,,,,,,,,2,,,,,,,,,,,,,,,,,,,,,,,,,,,541.072,88,left,0.541,gloves      ,7,6,5,1,3,541.105,541.105,543.596,0,10,10,10,1,88,7,2,gloves      ,camel         ,html/resources/sequences_IDs/B/06_gloves.jpg,html/resources/sequences_IDs/A/03_camel.jpg,6,3,3,2,1,1,5,3,0,47,,,,,,,,,,,,,,,,,,,,
,,,,,47,2020-07-04_07h05.53.891,retriever_ti,2020.1.3,MacIntel,60,Safari,1440,900,,,,,,,,,,,,,,,,,2,,,,,,,,,,,,,,,,,,,,,,,,,,,544.213,89,left,0.522,hat           ,8,8,2,1,3,544.247,544.247,546.747,0,11,11,11,1,89,8,6,hat           ,wolf          ,html/resources/sequences_IDs/A/08_hat.jpg,html/resources/sequences_IDs/A/01_wolf.jpg,8,1,3,2,1,1,6,1,0,47,,,,,,,,,,,,,,,,,,,,
,,,,,47,2020-07-04_07h05.53.891,retriever_ti,2020.1.3,MacIntel,60,Safari,1440,900,,,,,,,,,,,,,,,,,2,,,,,,,,,,,,,,,,,,,,,,,,,,,547.346,90,left,0.564,wolf          ,6,1,-1,0,0,547.364,547.364,549.853,0,12,12,12,1,90,6,7,wolf          ,gloves      ,html/resources/sequences_IDs/A/01_wolf.jpg,html/resources/sequences_IDs/B/06_gloves.jpg,1,6,1,1,3,2,1,5,0,47,,,,,,,,,,,,,,,,,,,,
,,,,,47,2020-07-04_07h05.53.891,retriever_ti,2020.1.3,MacIntel,60,Safari,1440,900,,,,,,,,,,,,,,,,,2,,,,,,,,,,,,,,,,,,,,,,,,,,,550.953,91,left,0.608,gloves      ,7,6,-1,0,0,550.988,550.988,553.477,0,13,13,13,1,91,7,8,gloves      ,hat           ,html/resources/sequences_IDs/B/06_gloves.jpg,html/resources/sequences_IDs/A/08_hat.jpg,6,8,3,2,3,2,5,6,0,47,,,,,,,,,,,,,,,,,,,,
,,,,,47,2020-07-04_07h05.53.891,retriever_ti,2020.1.3,MacIntel,60,Safari,1440,900,,,,,,,,,,,,,,,,,2,,,,,,,,,,,,,,,,,,,,,,,,,,,554.578,92,right,0.589,holdfast    ,1,4,-1,0,0,554.596,554.596,557.094,0,14,14,14,1,92,2,1,camel         ,holdfast    ,html/resources/sequences_IDs/A/03_camel.jpg,html/resources/sequences_IDs/B/04_holdfast.jpg,3,4,1,1,2,1,3,4,0,47,,,,,,,,,,,,,,,,,,,,
,,,,,47,2020-07-04_07h05.53.891,retriever_ti,2020.1.3,MacIntel,60,Safari,1440,900,,,,,,,,,,,,,,,,,2,,,,,,,,,,,,,,,,,,,,,,,,,,,558.186,93,right,0.638,calculator    ,4,9,-1,0,1,558.204,558.204,560.702,0,15,15,15,1,93,5,4,dolphin     ,calculator    ,html/resources/sequences_IDs/B/02_dolphin.jpg,html/resources/sequences_IDs/A/09_calculator.jpg,2,9,1,1,4,2,2,7,1,47,,,,,,,,,,,,,,,,,,,,
,,,,,47,2020-07-04_07h05.53.891,retriever_ti,2020.1.3,MacIntel,60,Safari,1440,900,,,,,,,,,,,,,,,,,2,,,,,,,,,,,,,,,,,,,,,,,,,,,561.803,94,left,0.754,camel         ,2,3,-4,0,3,561.837,561.837,564.326,0,16,16,16,1,94,2,6,camel         ,wolf          ,html/resources/sequences_IDs/A/03_camel.jpg,html/resources/sequences_IDs/A/01_wolf.jpg,3,1,1,1,1,1,3,1,0,47,,,,,,,,,,,,,,,,,,,,
,,,,,47,2020-07-04_07h05.53.891,retriever_ti,2020.1.3,MacIntel,60,Safari,1440,900,,,,,,,,,,,,,,,,,2,,,,,,,,,,,,,,,,,,,,,,,,,,,564.942,95,left,0.706,hat           ,8,8,4,1,3,564.977,564.977,567.476,0,17,17,17,1,95,8,4,hat           ,calculator    ,html/resources/sequences_IDs/A/08_hat.jpg,html/resources/sequences_IDs/A/09_calculator.jpg,8,9,3,2,4,2,6,7,0,47,,,,,,,,,,,,,,,,,,,,
,,,,,47,2020-07-04_07h05.53.891,retriever_ti,2020.1.3,MacIntel,60,Safari,1440,900,,,,,,,,,,,,,,,,,2,,,,,,,,,,,,,,,,,,,,,,,,,,,568.084,96,left,0.821,holdfast    ,1,4,-5,0,3,568.117,568.117,570.617,0,18,18,18,1,96,1,6,holdfast    ,wolf          ,html/resources/sequences_IDs/B/04_holdfast.jpg,html/resources/sequences_IDs/A/01_wolf.jpg,4,1,2,1,1,1,4,1,0,47,,,,,,,,,,,,,,,,,,,,
,,,,,47,2020-07-04_07h05.53.891,retriever_ti,2020.1.3,MacIntel,60,Safari,1440,900,,,,,,,,,,,,,,,,,2,,,,,,,,,,,,,,,,,,,,,,,,,,,571.217,97,left,0.666,hat           ,8,8,3,1,3,571.233,571.233,573.725,0,19,19,19,1,97,8,5,hat           ,dolphin     ,html/resources/sequences_IDs/A/08_hat.jpg,html/resources/sequences_IDs/B/02_dolphin.jpg,8,2,3,2,1,1,6,2,0,47,,,,,,,,,,,,,,,,,,,,
,,,,,47,2020-07-04_07h05.53.891,retriever_ti,2020.1.3,MacIntel,60,Safari,1440,900,,,,,,,,,,,,,,,,,2,,,,,,,,,,,,,,,,,,,,,,,,,,,574.342,98,left,0.581,gloves      ,7,6,2,1,3,574.36,574.36,576.858,0,20,20,20,1,98,7,5,gloves      ,dolphin     ,html/resources/sequences_IDs/B/06_gloves.jpg,html/resources/sequences_IDs/B/02_dolphin.jpg,6,2,3,2,1,1,5,2,0,47,,,,,,,,,,,,,,,,,,,,
,,,,,47,2020-07-04_07h05.53.891,retriever_ti,2020.1.3,MacIntel,60,Safari,1440,900,,,,,,,,,,,,,,,,,2,,,,,,,,,,,,,,,,,,,,,,,,,,,577.476,99,right,0.608,radio       ,3,10,-5,0,3,577.51,577.51,579.999,0,21,21,21,1,99,8,3,hat           ,radio       ,html/resources/sequences_IDs/A/08_hat.jpg,html/resources/sequences_IDs/B/10_radio.jpg,8,10,3,2,4,2,6,8,0,47,,,,,,,,,,,,,,,,,,,,
,,,,,47,2020-07-04_07h05.53.891,retriever_ti,2020.1.3,MacIntel,60,Safari,1440,900,,,,,,,,,,,,,,,,,2,,,,,,,,,,,,,,,,,,,,,,,,,,,580.6,100,left,0.693,gloves      ,7,6,1,1,1,580.618,580.618,583.107,0,22,22,22,1,100,7,6,gloves      ,wolf          ,html/resources/sequences_IDs/B/06_gloves.jpg,html/resources/sequences_IDs/A/01_wolf.jpg,6,1,3,2,1,1,5,1,0,47,,,,,,,,,,,,,,,,,,,,
,,,,,47,2020-07-04_07h05.53.891,retriever_ti,2020.1.3,MacIntel,60,Safari,1440,900,,,,,,,,,,,,,,,,,2,,,,,,,,,,,,,,,,,,,,,,,,,,,584.207,101,right,0.772,gloves      ,7,6,-1,0,0,584.242,584.242,586.74,0,23,23,23,1,101,8,7,hat           ,gloves      ,html/resources/sequences_IDs/A/08_hat.jpg,html/resources/sequences_IDs/B/06_gloves.jpg,8,6,3,2,3,2,6,5,0,47,,,,,,,,,,,,,,,,,,,,
,,,,,47,2020-07-04_07h05.53.891,retriever_ti,2020.1.3,MacIntel,60,Safari,1440,900,,,,,,,,,,,,,,,,,2,,,,,,,,,,,,,,,,,,,,,,,,,,,587.844,102,right,0.911,gloves      ,7,6,6,1,3,587.864,587.864,590.364,0,24,24,24,1,102,1,7,holdfast    ,gloves      ,html/resources/sequences_IDs/B/04_holdfast.jpg,html/resources/sequences_IDs/B/06_gloves.jpg,4,6,2,1,3,2,4,5,0,47,,,,,,,,,,,,,,,,,,,,
,,,,,47,2020-07-04_07h05.53.891,retriever_ti,2020.1.3,MacIntel,60,Safari,1440,900,,,,,,,,,,,,,,,,,2,,,,,,,,,,,,,,,,,,,,,,,,,,,590.965,103,left,0.571,radio       ,3,10,-4,0,3,590.999,590.999,593.488,0,25,25,25,1,103,3,7,radio       ,gloves      ,html/resources/sequences_IDs/B/10_radio.jpg,html/resources/sequences_IDs/B/06_gloves.jpg,10,6,4,2,3,2,8,5,0,47,,,,,,,,,,,,,,,,,,,,
,,,,,47,2020-07-04_07h05.53.891,retriever_ti,2020.1.3,MacIntel,60,Safari,1440,900,,,,,,,,,,,,,,,,,2,,,,,,,,,,,,,,,,,,,,,,,,,,,594.105,104,right,0.629,calculator    ,4,9,-1,0,0,594.139,594.139,596.638,0,26,26,26,1,104,5,4,dolphin     ,calculator    ,html/resources/sequences_IDs/B/02_dolphin.jpg,html/resources/sequences_IDs/A/09_calculator.jpg,2,9,1,1,4,2,2,7,0,47,,,,,,,,,,,,,,,,,,,,
,,,,,47,2020-07-04_07h05.53.891,retriever_ti,2020.1.3,MacIntel,60,Safari,1440,900,,,,,,,,,,,,,,,,,2,,,,,,,,,,,,,,,,,,,,,,,,,,,597.739,105,left,0.507,dolphin     ,5,2,-2,0,3,597.755,597.755,600.246,0,27,27,27,1,105,5,7,dolphin     ,gloves      ,html/resources/sequences_IDs/B/02_dolphin.jpg,html/resources/sequences_IDs/B/06_gloves.jpg,2,6,1,1,3,2,2,5,0,47,,,,,,,,,,,,,,,,,,,,
,,,,,47,2020-07-04_07h05.53.891,retriever_ti,2020.1.3,MacIntel,60,Safari,1440,900,,,,,,,,,,,,,,,,,2,,,,,,,,,,,,,,,,,,,,,,,,,,,600.847,106,left,0.499,wolf          ,6,1,1,1,1,600.865,600.865,603.353,0,28,28,28,1,106,6,5,wolf          ,dolphin     ,html/resources/sequences_IDs/A/01_wolf.jpg,html/resources/sequences_IDs/B/02_dolphin.jpg,1,2,1,1,1,1,1,2,0,47,,,,,,,,,,,,,,,,,,,,
,,,,,47,2020-07-04_07h05.53.891,retriever_ti,2020.1.3,MacIntel,60,Safari,1440,900,,,,,,,,,,,,,,,,,2,,,,,,,,,,,,,,,,,,,,,,,,,,,604.453,107,right,0.592,wolf          ,6,1,-1,0,0,604.472,604.472,606.97,0,29,29,29,1,107,7,6,gloves      ,wolf          ,html/resources/sequences_IDs/B/06_gloves.jpg,html/resources/sequences_IDs/A/01_wolf.jpg,6,1,3,2,1,1,5,1,0,47,,,,,,,,,,,,,,,,,,,,
,,,,,47,2020-07-04_07h05.53.891,retriever_ti,2020.1.3,MacIntel,60,Safari,1440,900,,,,,,,,,,,,,,,,,2,,,,,,,,,,,,,,,,,,,,,,,,,,,608.062,108,left,0.624,wolf          ,6,1,1,1,0,608.095,608.095,610.596,0,30,30,30,1,108,6,5,wolf          ,dolphin     ,html/resources/sequences_IDs/A/01_wolf.jpg,html/resources/sequences_IDs/B/02_dolphin.jpg,1,2,1,1,1,1,1,2,1,47,,,,,,,,,,,,,,,,,,,,
,,,,,47,2020-07-04_07h05.53.891,retriever_ti,2020.1.3,MacIntel,60,Safari,1440,900,,,,,,,,,,,,,,,,,2,,,,,,,,,,,,,,,,,,,,,,,,,,,611.695,109,right,0.665,hat           ,8,8,2,1,3,611.713,611.713,614.202,0,31,31,31,1,109,6,8,wolf          ,hat           ,html/resources/sequences_IDs/A/01_wolf.jpg,html/resources/sequences_IDs/A/08_hat.jpg,1,8,1,1,3,2,1,6,0,47,,,,,,,,,,,,,,,,,,,,
,,,,,47,2020-07-04_07h05.53.891,retriever_ti,2020.1.3,MacIntel,60,Safari,1440,900,,,,,,,,,,,,,,,,,2,,,,,,,,,,,,,,,,,,,,,,,,,,,614.819,110,left,1.213,hat           ,8,8,1,1,1,614.852,614.852,617.352,0,32,32,32,1,110,8,7,hat           ,gloves      ,html/resources/sequences_IDs/A/08_hat.jpg,html/resources/sequences_IDs/B/06_gloves.jpg,8,6,3,2,3,2,6,5,0,47,,,,,,,,,,,,,,,,,,,,
,,,,,47,2020-07-04_07h05.53.891,retriever_ti,2020.1.3,MacIntel,60,Safari,1440,900,,,,,,,,,,,,,,,,,2,,,,,,,,,,,,,,,,,,,,,,,,,,,618.445,111,right,0.638,radio       ,3,10,-2,0,3,618.462,618.462,620.96,0,33,33,33,1,111,5,3,dolphin     ,radio       ,html/resources/sequences_IDs/B/02_dolphin.jpg,html/resources/sequences_IDs/B/10_radio.jpg,2,10,1,1,4,2,2,8,0,47,,,,,,,,,,,,,,,,,,,,
,,,,,47,2020-07-04_07h05.53.891,retriever_ti,2020.1.3,MacIntel,60,Safari,1440,900,,,,,,,,,,,,,,,,,2,,,,,,,,,,,,,,,,,,,,,,,,,,,621.577,112,left,0.986,camel         ,2,3,-3,0,3,621.609,621.609,624.099,0,34,34,34,1,112,2,5,camel         ,dolphin     ,html/resources/sequences_IDs/A/03_camel.jpg,html/resources/sequences_IDs/B/02_dolphin.jpg,3,2,1,1,1,1,3,2,0,47,,,,,,,,,,,,,,,,,,,,
,,,,,47,2020-07-04_07h05.53.891,retriever_ti,2020.1.3,MacIntel,60,Safari,1440,900,,,,,,,,,,,,,,,,,2,,,,,,,,,,,,,,,,,,,,,,,,,,,624.717,113,right,0.747,hat           ,8,8,1,1,0,624.75,624.75,627.249,0,35,35,35,1,113,7,8,gloves      ,hat           ,html/resources/sequences_IDs/B/06_gloves.jpg,html/resources/sequences_IDs/A/08_hat.jpg,6,8,3,2,3,2,5,6,1,47,,,,,,,,,,,,,,,,,,,,
,,,,,47,2020-07-04_07h05.53.891,retriever_ti,2020.1.3,MacIntel,60,Safari,1440,900,,,,,,,,,,,,,,,,,2,,,,,,,,,,,,,,,,,,,,,,,,,,,628.34,114,left,0.788,dolphin     ,5,2,-1,0,0,628.357,628.357,630.857,0,36,36,36,1,114,5,6,dolphin     ,wolf          ,html/resources/sequences_IDs/B/02_dolphin.jpg,html/resources/sequences_IDs/A/01_wolf.jpg,2,1,1,1,1,1,2,1,0,47,,,,,,,,,,,,,,,,,,,,
,,,,,47,2020-07-04_07h05.53.891,retriever_ti,2020.1.3,MacIntel,60,Safari,1440,900,,,,,,,,,,,,,,,,,2,,,,,,,,,,,,,,,,,,,,,,,,,,,631.957,115,left,0.91,wolf          ,6,1,3,1,3,631.975,631.975,634.467,0,37,37,37,1,115,6,3,wolf          ,radio       ,html/resources/sequences_IDs/A/01_wolf.jpg,html/resources/sequences_IDs/B/10_radio.jpg,1,10,1,1,4,2,1,8,0,47,,,,,,,,,,,,,,,,,,,,
,,,,,47,2020-07-04_07h05.53.891,retriever_ti,2020.1.3,MacIntel,60,Safari,1440,900,,,,,,,,,,,,,,,,,2,,,,,,,,,,,,,,,,,,,,,,,,,,,635.084,116,right,0.661,holdfast    ,1,4,-4,0,3,635.116,635.116,637.617,0,38,38,38,1,116,5,1,dolphin     ,holdfast    ,html/resources/sequences_IDs/B/02_dolphin.jpg,html/resources/sequences_IDs/B/04_holdfast.jpg,2,4,1,1,2,1,2,4,0,47,,,,,,,,,,,,,,,,,,,,
,,,,,47,2020-07-04_07h05.53.891,retriever_ti,2020.1.3,MacIntel,60,Safari,1440,900,,,,,,,,,,,,,,,,,2,,,,,,,,,,,,,,,,,,,,,,,,,,,638.224,117,left,1.124,calculator    ,4,9,1,1,1,638.257,638.257,640.758,0,39,39,39,1,117,4,3,calculator    ,radio       ,html/resources/sequences_IDs/A/09_calculator.jpg,html/resources/sequences_IDs/B/10_radio.jpg,9,10,4,2,4,2,7,8,0,47,,,,,,,,,,,,,,,,,,,,
,,,,,47,2020-07-04_07h05.53.891,retriever_ti,2020.1.3,MacIntel,60,Safari,1440,900,,,,,,,,,,,,,,,,,2,,,,,,,,,,,,,,,,,,,,,,,,,,,641.858,118,left,0.609,radio       ,3,10,-3,0,3,641.893,641.893,644.382,0,40,40,40,1,118,3,6,radio       ,wolf          ,html/resources/sequences_IDs/B/10_radio.jpg,html/resources/sequences_IDs/A/01_wolf.jpg,10,1,4,2,1,1,8,1,0,47,,,,,,,,,,,,,,,,,,,,
,,,,,47,2020-07-04_07h05.53.891,retriever_ti,2020.1.3,MacIntel,60,Safari,1440,900,,,,,,,,,,,,,,,,,2,,,,,,,,,,,,,,,,,,,,,,,,,,,644.999,119,left,0.534,radio       ,3,10,1,1,1,645.032,645.032,647.532,0,41,41,41,1,119,3,2,radio       ,camel         ,html/resources/sequences_IDs/B/10_radio.jpg,html/resources/sequences_IDs/A/03_camel.jpg,10,3,4,2,1,1,8,3,0,47,,,,,,,,,,,,,,,,,,,,
,,,,,47,2020-07-04_07h05.53.891,retriever_ti,2020.1.3,MacIntel,60,Safari,1440,900,,,,,,,,,,,,,,,,,2,,,,,,,,,,,,,,,,,,,,,,,,,,,648.623,120,right,0.926,holdfast    ,1,4,-7,0,3,648.657,648.657,651.156,0,42,42,42,1,120,8,1,hat           ,holdfast    ,html/resources/sequences_IDs/A/08_hat.jpg,html/resources/sequences_IDs/B/04_holdfast.jpg,8,4,3,2,2,1,6,4,0,47,,,,,,,,,,,,,,,,,,,,
,,,,,47,2020-07-04_07h05.53.891,retriever_ti,2020.1.3,MacIntel,60,Safari,1440,900,,,,,,,,,,,,,,,,,2,,,,,,,,,,,,,,,,,,,,,,,,,,,651.773,121,right,0.693,radio       ,3,10,2,1,3,651.79,651.79,654.28,0,43,43,43,1,121,1,3,holdfast    ,radio       ,html/resources/sequences_IDs/B/04_holdfast.jpg,html/resources/sequences_IDs/B/10_radio.jpg,4,10,2,1,4,2,4,8,0,47,,,,,,,,,,,,,,,,,,,,
,,,,,47,2020-07-04_07h05.53.891,retriever_ti,2020.1.3,MacIntel,60,Safari,1440,900,,,,,,,,,,,,,,,,,2,,,,,,,,,,,,,,,,,,,,,,,,,,,654.896,122,right,0.542,hat           ,8,8,1,1,1,654.931,654.931,657.429,0,44,44,44,1,122,7,8,gloves      ,hat           ,html/resources/sequences_IDs/B/06_gloves.jpg,html/resources/sequences_IDs/A/08_hat.jpg,6,8,3,2,3,2,5,6,0,47,,,,,,,,,,,,,,,,,,,,
,,,,,47,2020-07-04_07h05.53.891,retriever_ti,2020.1.3,MacIntel,60,Safari,1440,900,,,,,,,,,,,,,,,,,2,,,,,,,,,,,,,,,,,,,,,,,,,,,658.521,123,left,0.818,camel         ,2,3,-6,0,3,658.554,658.554,661.054,0,45,45,45,1,123,2,8,camel         ,hat           ,html/resources/sequences_IDs/A/03_camel.jpg,html/resources/sequences_IDs/A/08_hat.jpg,3,8,1,1,3,2,3,6,0,47,,,,,,,,,,,,,,,,,,,,
,,,,,47,2020-07-04_07h05.53.891,retriever_ti,2020.1.3,MacIntel,60,Safari,1440,900,,,,,,,,,,,,,,,,,2,,,,,,,,,,,,,,,,,,,,,,,,,,,661.654,124,left,0.527,camel         ,2,3,-1,0,0,661.672,661.672,664.161,0,46,46,46,1,124,2,3,camel         ,radio       ,html/resources/sequences_IDs/A/03_camel.jpg,html/resources/sequences_IDs/B/10_radio.jpg,3,10,1,1,4,2,3,8,0,47,,,,,,,,,,,,,,,,,,,,
,,,,,47,2020-07-04_07h05.53.891,retriever_ti,2020.1.3,MacIntel,60,Safari,1440,900,,,,,,,,,,,,,,,,,2,,,,,,,,,,,,,,,,,,,,,,,,,,,665.262,125,right,0.508,calculator    ,4,9,-1,0,0,665.296,665.296,667.795,0,47,47,47,1,125,5,4,dolphin     ,calculator    ,html/resources/sequences_IDs/B/02_dolphin.jpg,html/resources/sequences_IDs/A/09_calculator.jpg,2,9,1,1,4,2,2,7,0,47,,,,,,,,,,,,,,,,,,,,
,,,,,47,2020-07-04_07h05.53.891,retriever_ti,2020.1.3,MacIntel,60,Safari,1440,900,,,,,,,,,,,,,,,,,2,,,,,,,,,,,,,,,,,,,,,,,,,,,668.886,126,left,1.325,hat           ,8,8,6,1,3,668.919,668.919,671.419,0,48,48,48,1,126,8,2,hat           ,camel         ,html/resources/sequences_IDs/A/08_hat.jpg,html/resources/sequences_IDs/A/03_camel.jpg,8,3,3,2,1,1,6,3,0,47,,,,,,,,,,,,,,,,,,,,
,,,,,47,2020-07-04_07h05.53.891,retriever_ti,2020.1.3,MacIntel,60,Safari,1440,900,,,,,,,,,,,,,,,,,2,,,,,,,,,,,,,,,,,,,,,,,,,,,672.035,127,right,1.111,wolf          ,6,1,1,1,1,672.052,672.052,674.542,0,49,49,49,1,127,5,6,dolphin     ,wolf          ,html/resources/sequences_IDs/B/02_dolphin.jpg,html/resources/sequences_IDs/A/01_wolf.jpg,2,1,1,1,1,1,2,1,0,47,,,,,,,,,,,,,,,,,,,,
,,,,,47,2020-07-04_07h05.53.891,retriever_ti,2020.1.3,MacIntel,60,Safari,1440,900,,,,,,,,,,,,,,,,,2,,,,,,,,,,,,,,,,,,,,,,,,,,,675.642,128,left,0.919,holdfast    ,1,4,-3,0,3,675.66,675.66,678.149,0,50,50,50,1,128,1,4,holdfast    ,calculator    ,html/resources/sequences_IDs/B/04_holdfast.jpg,html/resources/sequences_IDs/A/09_calculator.jpg,4,9,2,1,4,2,4,7,0,47,,,,,,,,,,,,,,,,,,,,
,,,,,47,2020-07-04_07h05.53.891,retriever_ti,2020.1.3,MacIntel,60,Safari,1440,900,,,,,,,,,,,,,,,,,2,,,,,,,,,,,,,,,,,,,,,,,,,,,678.75,129,left,0.51,radio       ,3,10,1,1,1,678.767,678.767,681.266,0,51,51,51,1,129,3,2,radio       ,camel         ,html/resources/sequences_IDs/B/10_radio.jpg,html/resources/sequences_IDs/A/03_camel.jpg,10,3,4,2,1,1,8,3,0,47,,,,,,,,,,,,,,,,,,,,
,,,,,47,2020-07-04_07h05.53.891,retriever_ti,2020.1.3,MacIntel,60,Safari,1440,900,,,,,,,,,,,,,,,,,2,,,,,,,,,,,,,,,,,,,,,,,,,,,682.366,130,left,1.884,wolf          ,6,1,1,1,1,682.401,682.401,684.89,0,52,52,52,1,130,6,5,wolf          ,dolphin     ,html/resources/sequences_IDs/A/01_wolf.jpg,html/resources/sequences_IDs/B/02_dolphin.jpg,1,2,1,1,1,1,1,2,0,47,,,,,,,,,,,,,,,,,,,,
,,,,,47,2020-07-04_07h05.53.891,retriever_ti,2020.1.3,MacIntel,60,Safari,1440,900,,,,,,,,,,,,,,,,,2,,,,,,,,,,,,,,,,,,,,,,,,,,,685.991,131,right,0.933,calculator    ,4,9,1,1,1,686.007,686.007,688.497,0,53,53,53,1,131,3,4,radio       ,calculator    ,html/resources/sequences_IDs/B/10_radio.jpg,html/resources/sequences_IDs/A/09_calculator.jpg,10,9,4,2,4,2,8,7,0,47,,,,,,,,,,,,,,,,,,,,
,,,,,47,2020-07-04_07h05.53.891,retriever_ti,2020.1.3,MacIntel,60,Safari,1440,900,,,,,,,,,,,,,,,,,2,,,,,,,,,,,,,,,,,,,,,,,,,,,689.596,132,right,0.903,holdfast    ,1,4,-2,0,3,689.614,689.614,692.113,0,54,54,54,1,132,3,1,radio       ,holdfast    ,html/resources/sequences_IDs/B/10_radio.jpg,html/resources/sequences_IDs/B/04_holdfast.jpg,10,4,4,2,2,1,8,4,0,47,,,,,,,,,,,,,,,,,,,,
,,,,,47,2020-07-04_07h05.53.891,retriever_ti,2020.1.3,MacIntel,60,Safari,1440,900,,,,,,,,,,,,,,,,,2,,,,,,,,,,,,,,,,,,,,,,,,,,,692.73,133,right,1.418,hat           ,8,8,3,1,3,692.748,692.748,695.238,0,55,55,55,1,133,5,8,dolphin     ,hat           ,html/resources/sequences_IDs/B/02_dolphin.jpg,html/resources/sequences_IDs/A/08_hat.jpg,2,8,1,1,3,2,2,6,0,47,,,,,,,,,,,,,,,,,,,,
,,,,,47,2020-07-04_07h05.53.891,retriever_ti,2020.1.3,MacIntel,60,Safari,1440,900,,,,,,,,,,,,,,,,,2,,,,,,,,,,,,,,,,,,,,,,,,,,,695.855,134,left,1.02,calculator    ,4,9,-4,0,3,695.887,695.887,698.378,0,56,56,56,1,134,4,8,calculator    ,hat           ,html/resources/sequences_IDs/A/09_calculator.jpg,html/resources/sequences_IDs/A/08_hat.jpg,9,8,4,2,3,2,7,6,0,47,,,,,,,,,,,,,,,,,,,,
,,,,,47,2020-07-04_07h05.53.891,retriever_ti,2020.1.3,MacIntel,60,Safari,1440,900,,,,,,,,,,,,,,,,,2,,,,,,,,,,,,,,,,,,,,,,,,,,,698.979,135,left,0.936,holdfast    ,1,4,-1,0,0,699.011,699.011,701.512,0,57,57,57,1,135,1,2,holdfast    ,camel         ,html/resources/sequences_IDs/B/04_holdfast.jpg,html/resources/sequences_IDs/A/03_camel.jpg,4,3,2,1,1,1,4,3,0,47,,,,,,,,,,,,,,,,,,,,
,,,,,47,2020-07-04_07h05.53.891,retriever_ti,2020.1.3,MacIntel,60,Safari,1440,900,,,,,,,,,,,,,,,,,2,,,,,,,,,,,,,,,,,,,,,,,,,,,702.612,136,left,0.879,calculator    ,4,9,-3,0,3,702.645,702.645,705.136,0,58,58,58,1,136,4,7,calculator    ,gloves      ,html/resources/sequences_IDs/A/09_calculator.jpg,html/resources/sequences_IDs/B/06_gloves.jpg,9,6,4,2,3,2,7,5,0,47,,,,,,,,,,,,,,,,,,,,
,,,,,47,2020-07-04_07h05.53.891,retriever_ti,2020.1.3,MacIntel,60,Safari,1440,900,,,,,,,,,,,,,,,,,2,,,,,,,,,,,,,,,,,,,,,,,,,,,705.736,137,right,1.221,holdfast    ,1,4,-6,0,3,705.771,705.771,708.259,0,59,59,59,1,137,7,1,gloves      ,holdfast    ,html/resources/sequences_IDs/B/06_gloves.jpg,html/resources/sequences_IDs/B/04_holdfast.jpg,6,4,3,2,2,1,5,4,0,47,,,,,,,,,,,,,,,,,,,,
,,,,,47,2020-07-04_07h05.53.891,retriever_ti,2020.1.3,MacIntel,60,Safari,1440,900,,,,,,,,,,,,,,,,,2,,,,,,,,,,,,,,,,,,,,,,,,,,,708.86,138,left,1.155,gloves      ,7,6,3,1,3,708.878,708.878,711.378,0,60,60,60,1,138,7,4,gloves      ,calculator    ,html/resources/sequences_IDs/B/06_gloves.jpg,html/resources/sequences_IDs/A/09_calculator.jpg,6,9,3,2,4,2,5,7,0,47,,,,,,,,,,,,,,,,,,,,
,,,,,47,2020-07-04_07h05.53.891,retriever_ti,2020.1.3,MacIntel,60,Safari,1440,900,,,,,,,,,,,,,,,,,2,,,,,,,,,,,,,,,,,,,,,,,,,,,711.993,139,right,1.164,holdfast    ,1,4,-5,0,3,712.01,712.01,714.501,0,61,61,61,1,139,6,1,wolf          ,holdfast    ,html/resources/sequences_IDs/A/01_wolf.jpg,html/resources/sequences_IDs/B/04_holdfast.jpg,1,4,1,1,2,1,1,4,0,47,,,,,,,,,,,,,,,,,,,,
,,,,,47,2020-07-04_07h05.53.891,retriever_ti,2020.1.3,MacIntel,60,Safari,1440,900,,,,,,,,,,,,,,,,,2,,,,,,,,,,,,,,,,,,,,,,,,,,,715.117,140,left,1.175,calculator    ,4,9,-1,0,0,715.15,715.15,717.65,0,62,62,62,1,140,4,5,calculator    ,dolphin     ,html/resources/sequences_IDs/A/09_calculator.jpg,html/resources/sequences_IDs/B/02_dolphin.jpg,9,2,4,2,1,1,7,2,0,47,,,,,,,,,,,,,,,,,,,,
,,,,,47,2020-07-04_07h05.53.891,retriever_ti,2020.1.3,MacIntel,60,Safari,1440,900,,,,,,,,,,,,,,,,,2,,,,,,,,,,,,,,,,,,,,,,,,,,,718.742,141,left,1.169,wolf          ,6,1,-1,0,1,718.776,718.776,721.274,0,63,63,63,1,141,6,7,wolf          ,gloves      ,html/resources/sequences_IDs/A/01_wolf.jpg,html/resources/sequences_IDs/B/06_gloves.jpg,1,6,1,1,3,2,1,5,1,47,,,,,,,,,,,,,,,,,,,,
,,,,,47,2020-07-04_07h05.53.891,retriever_ti,2020.1.3,MacIntel,60,Safari,1440,900,,,,,,,,,,,,,,,,,2,,,,,,,,,,,,,,,,,,,,,,,,,,,722.375,142,right,1.31,wolf          ,6,1,2,1,3,722.408,722.408,724.9,0,64,64,64,1,142,4,6,calculator    ,wolf          ,html/resources/sequences_IDs/A/09_calculator.jpg,html/resources/sequences_IDs/A/01_wolf.jpg,9,1,4,2,1,1,7,1,0,47,,,,,,,,,,,,,,,,,,,,
,,,,,47,2020-07-04_07h05.53.891,retriever_ti,2020.1.3,MacIntel,60,Safari,1440,900,,,,,,,,,,,,,,,,,2,,,,,,,,,,,,,,,,,,,,,,,,,,,725.499,143,left,0.725,camel         ,2,3,-2,0,3,725.532,725.532,728.031,0,65,65,65,1,143,2,4,camel         ,calculator    ,html/resources/sequences_IDs/A/03_camel.jpg,html/resources/sequences_IDs/A/09_calculator.jpg,3,9,1,1,4,2,3,7,0,47,,,,,,,,,,,,,,,,,,,,
,,,,,47,2020-07-04_07h05.53.891,retriever_ti,2020.1.3,MacIntel,60,Safari,1440,900,,,,,,,,,,,,,,,,,2,,,,,,,,,,,,,,,,,,,,,,,,,,,728.64,144,left,0.877,camel         ,2,3,-1,0,0,728.675,728.675,731.173,0,66,66,66,1,144,2,3,camel         ,radio       ,html/resources/sequences_IDs/A/03_camel.jpg,html/resources/sequences_IDs/B/10_radio.jpg,3,10,1,1,4,2,3,8,0,47,,,,,,,,,,,,,,,,,,,,
,,,,,47,2020-07-04_07h05.53.891,retriever_ti,2020.1.3,MacIntel,60,Safari,1440,900,,,,,,,,,,,,,,,,,2,,,,,,,,,,,,,,,,,,,,,,,,,,,732.273,145,right,1.218,holdfast    ,1,4,-1,0,1,732.308,732.308,734.797,0,67,67,67,1,145,2,1,camel         ,holdfast    ,html/resources/sequences_IDs/A/03_camel.jpg,html/resources/sequences_IDs/B/04_holdfast.jpg,3,4,1,1,2,1,3,4,1,47,,,,,,,,,,,,,,,,,,,,
,,,,,47,2020-07-04_07h05.53.891,retriever_ti,2020.1.3,MacIntel,60,Safari,1440,900,,,,,,,,,,,,,,,,,2,,,,,,,,,,,,,,,,,,,,,,,,,,,735.898,146,right,1.434,dolphin     ,5,2,1,1,1,735.915,735.915,738.404,0,68,68,68,1,146,4,5,calculator    ,dolphin     ,html/resources/sequences_IDs/A/09_calculator.jpg,html/resources/sequences_IDs/B/02_dolphin.jpg,9,2,4,2,1,1,7,2,0,47,,,,,,,,,,,,,,,,,,,,
,,,,,47,2020-07-04_07h05.53.891,retriever_ti,2020.1.3,MacIntel,60,Safari,1440,900,,,,,,,,,,,,,,,,,2,,,,,,,,,,,,,,,,,,,,,,,,,,,739.506,147,right,1.334,holdfast    ,1,4,-3,0,3,739.539,739.539,742.037,0,69,69,69,1,147,4,1,calculator    ,holdfast    ,html/resources/sequences_IDs/A/09_calculator.jpg,html/resources/sequences_IDs/B/04_holdfast.jpg,9,4,4,2,2,1,7,4,0,47,,,,,,,,,,,,,,,,,,,,
,,,,,47,2020-07-04_07h05.53.891,retriever_ti,2020.1.3,MacIntel,60,Safari,1440,900,,,,,,,,,,,,,,,,,2,,,,,,,,,,,,,,,,,,,,,,,,,,,742.637,148,left,1.051,wolf          ,6,1,4,1,3,742.654,742.654,745.144,0,70,70,70,1,148,6,2,wolf          ,camel         ,html/resources/sequences_IDs/A/01_wolf.jpg,html/resources/sequences_IDs/A/03_camel.jpg,1,3,1,1,1,1,1,3,0,47,,,,,,,,,,,,,,,,,,,,
,,,,,47,2020-07-04_07h05.53.891,retriever_ti,2020.1.3,MacIntel,60,Safari,1440,900,,,,,,,,,,,,,,,,,2,,,,,,,,,,,,,,,,,,,,,,,,,,,745.745,149,right,0.769,hat           ,8,8,7,1,3,745.778,745.778,748.27,0,71,71,71,1,149,1,8,holdfast    ,hat           ,html/resources/sequences_IDs/B/04_holdfast.jpg,html/resources/sequences_IDs/A/08_hat.jpg,4,8,2,1,3,2,4,6,0,47,,,,,,,,,,,,,,,,,,,,
,,,,,47,2020-07-04_07h05.53.891,retriever_ti,2020.1.3,MacIntel,60,Safari,1440,900,,,,,,,,,,,,,,,,,2,,,,,,,,,,,,,,,,,,,,,,,,,,,748.887,150,left,0.501,holdfast    ,1,4,-1,0,0,748.92,748.92,751.419,0,72,72,72,1,150,1,2,holdfast    ,camel         ,html/resources/sequences_IDs/B/04_holdfast.jpg,html/resources/sequences_IDs/A/03_camel.jpg,4,3,2,1,1,1,4,3,0,47,,,,,,,,,,,,,,,,,,,,
,,,,,47,2020-07-04_07h05.53.891,retriever_ti,2020.1.3,MacIntel,60,Safari,1440,900,,,,,,,,,,,,,,,,,2,,,,,,,,,,,,,,,,,,,,,,,,,,,752.52,151,right,0.455,calculator    ,4,9,1,1,1,752.536,752.536,755.027,0,73,73,73,1,151,3,4,radio       ,calculator    ,html/resources/sequences_IDs/B/10_radio.jpg,html/resources/sequences_IDs/A/09_calculator.jpg,10,9,4,2,4,2,8,7,0,47,,,,,,,,,,,,,,,,,,,,
,,,,,47,2020-07-04_07h05.53.891,retriever_ti,2020.1.3,MacIntel,60,Safari,1440,900,,,,,,,,,,,,,,,,,2,,,,,,,,,,,,,,,,,,,,,,,,,,,756.127,152,right,0.625,gloves      ,7,6,5,1,3,756.145,756.145,758.634,0,74,74,74,1,152,2,7,camel         ,gloves      ,html/resources/sequences_IDs/A/03_camel.jpg,html/resources/sequences_IDs/B/06_gloves.jpg,3,6,1,1,3,2,3,5,0,47,,,,,,,,,,,,,,,,,,,,
,,,,,47,2020-07-04_07h05.53.891,retriever_ti,2020.1.3,MacIntel,60,Safari,1440,900,,,,,,,,,,,,,,,,,2,,,,,,,,,,,,,,,,,,,,,,,,,,,759.235,153,left,0.718,calculator    ,4,9,1,1,1,759.251,759.251,761.751,0,75,75,75,1,153,4,3,calculator    ,radio       ,html/resources/sequences_IDs/A/09_calculator.jpg,html/resources/sequences_IDs/B/10_radio.jpg,9,10,4,2,4,2,7,8,0,47,,,,,,,,,,,,,,,,,,,,
,,,,,47,2020-07-04_07h05.53.891,retriever_ti,2020.1.3,MacIntel,60,Safari,1440,900,,,,,,,,,,,,,,,,,2,,,,,,,,,,,,,,,,,,,,,,,,,,,762.851,154,right,0.931,hat           ,8,8,5,1,3,762.868,762.868,765.359,0,76,76,76,1,154,3,8,radio       ,hat           ,html/resources/sequences_IDs/B/10_radio.jpg,html/resources/sequences_IDs/A/08_hat.jpg,10,8,4,2,3,2,8,6,0,47,,,,,,,,,,,,,,,,,,,,
,,,,,47,2020-07-04_07h05.53.891,retriever_ti,2020.1.3,MacIntel,60,Safari,1440,900,,,,,,,,,,,,,,,,,,,,,,,,,,,,,,,,,,,,,0,1.809,,,,,,,,,,,,,,,,,,,,,,,,,,,,,,,,,,,,,,,,,1,0,1,0,1,,,,,,,,,,,,,,,
,,,,,47,2020-07-04_07h05.53.891,retriever_ti,2020.1.3,MacIntel,60,Safari,1440,900,,,,,,,,,,,,,,,,,3,,,,,,,,,,,,,,,,,,,,,,,,,,,772.927,155,right,1.141,gloves      ,7,6,2,1,3,772.932,772.932,775.425,0,0,0,0,1,155,5,7,dolphin     ,gloves      ,html/resources/sequences_IDs/B/02_dolphin.jpg,html/resources/sequences_IDs/B/06_gloves.jpg,2,6,1,1,3,2,2,5,0,47,,,,,,,,,,,,,,,,,,,,
,,,,,47,2020-07-04_07h05.53.891,retriever_ti,2020.1.3,MacIntel,60,Safari,1440,900,,,,,,,,,,,,,,,,,3,,,,,,,,,,,,,,,,,,,,,,,,,,,776.042,156,left,0.421,camel         ,2,3,-2,0,3,776.058,776.058,778.549,0,1,1,1,1,156,2,4,camel         ,calculator    ,html/resources/sequences_IDs/A/03_camel.jpg,html/resources/sequences_IDs/A/09_calculator.jpg,3,9,1,1,4,2,3,7,0,47,,,,,,,,,,,,,,,,,,,,
,,,,,47,2020-07-04_07h05.53.891,retriever_ti,2020.1.3,MacIntel,60,Safari,1440,900,,,,,,,,,,,,,,,,,3,,,,,,,,,,,,,,,,,,,,,,,,,,,779.166,157,left,0.418,wolf          ,6,1,-1,0,1,779.2,779.2,781.699,0,2,2,2,1,157,6,7,wolf          ,gloves      ,html/resources/sequences_IDs/A/01_wolf.jpg,html/resources/sequences_IDs/B/06_gloves.jpg,1,6,1,1,3,2,1,5,1,47,,,,,,,,,,,,,,,,,,,,
,,,,,47,2020-07-04_07h05.53.891,retriever_ti,2020.1.3,MacIntel,60,Safari,1440,900,,,,,,,,,,,,,,,,,3,,,,,,,,,,,,,,,,,,,,,,,,,,,782.799,158,left,0.477,radio       ,3,10,-3,0,3,782.832,782.832,785.323,0,3,3,3,1,158,3,6,radio       ,wolf          ,html/resources/sequences_IDs/B/10_radio.jpg,html/resources/sequences_IDs/A/01_wolf.jpg,10,1,4,2,1,1,8,1,0,47,,,,,,,,,,,,,,,,,,,,
,,,,,47,2020-07-04_07h05.53.891,retriever_ti,2020.1.3,MacIntel,60,Safari,1440,900,,,,,,,,,,,,,,,,,3,,,,,,,,,,,,,,,,,,,,,,,,,,,785.94,159,left,0.56,holdfast    ,1,4,-2,0,3,785.957,785.957,788.446,0,4,4,4,1,159,1,3,holdfast    ,radio       ,html/resources/sequences_IDs/B/04_holdfast.jpg,html/resources/sequences_IDs/B/10_radio.jpg,4,10,2,1,4,2,4,8,0,47,,,,,,,,,,,,,,,,,,,,
,,,,,47,2020-07-04_07h05.53.891,retriever_ti,2020.1.3,MacIntel,60,Safari,1440,900,,,,,,,,,,,,,,,,,3,,,,,,,,,,,,,,,,,,,,,,,,,,,789.047,160,right,0.606,camel         ,2,3,-1,0,0,789.081,789.081,791.579,0,5,5,5,1,160,3,2,radio       ,camel         ,html/resources/sequences_IDs/B/10_radio.jpg,html/resources/sequences_IDs/A/03_camel.jpg,10,3,4,2,1,1,8,3,0,47,,,,,,,,,,,,,,,,,,,,
,,,,,47,2020-07-04_07h05.53.891,retriever_ti,2020.1.3,MacIntel,60,Safari,1440,900,,,,,,,,,,,,,,,,,3,,,,,,,,,,,,,,,,,,,,,,,,,,,792.68,161,left,0.582,calculator    ,4,9,-3,0,3,792.713,792.713,795.205,0,6,6,6,1,161,4,7,calculator    ,gloves      ,html/resources/sequences_IDs/A/09_calculator.jpg,html/resources/sequences_IDs/B/06_gloves.jpg,9,6,4,2,3,2,7,5,0,47,,,,,,,,,,,,,,,,,,,,
,,,,,47,2020-07-04_07h05.53.891,retriever_ti,2020.1.3,MacIntel,60,Safari,1440,900,,,,,,,,,,,,,,,,,3,,,,,,,,,,,,,,,,,,,,,,,,,,,795.821,162,left,1.093,holdfast    ,1,4,-1,0,0,795.838,795.838,798.329,0,7,7,7,1,162,1,2,holdfast    ,camel         ,html/resources/sequences_IDs/B/04_holdfast.jpg,html/resources/sequences_IDs/A/03_camel.jpg,4,3,2,1,1,1,4,3,0,47,,,,,,,,,,,,,,,,,,,,
,,,,,47,2020-07-04_07h05.53.891,retriever_ti,2020.1.3,MacIntel,60,Safari,1440,900,,,,,,,,,,,,,,,,,3,,,,,,,,,,,,,,,,,,,,,,,,,,,799.429,163,right,0.288,calculator    ,4,9,-1,0,0,799.462,799.462,801.962,0,8,8,8,1,163,5,4,dolphin     ,calculator    ,html/resources/sequences_IDs/B/02_dolphin.jpg,html/resources/sequences_IDs/A/09_calculator.jpg,2,9,1,1,4,2,2,7,0,47,,,,,,,,,,,,,,,,,,,,
,,,,,47,2020-07-04_07h05.53.891,retriever_ti,2020.1.3,MacIntel,60,Safari,1440,900,,,,,,,,,,,,,,,,,3,,,,,,,,,,,,,,,,,,,,,,,,,,,803.061,164,right,1.175,radio       ,3,10,1,1,1,803.08,803.08,805.57,0,9,9,9,1,164,2,3,camel         ,radio       ,html/resources/sequences_IDs/A/03_camel.jpg,html/resources/sequences_IDs/B/10_radio.jpg,3,10,1,1,4,2,3,8,0,47,,,,,,,,,,,,,,,,,,,,
,,,,,47,2020-07-04_07h05.53.891,retriever_ti,2020.1.3,MacIntel,60,Safari,1440,900,,,,,,,,,,,,,,,,,3,,,,,,,,,,,,,,,,,,,,,,,,,,,806.67,165,left,0.758,hat           ,8,8,6,1,3,806.688,806.688,809.177,0,10,10,10,1,165,8,2,hat           ,camel         ,html/resources/sequences_IDs/A/08_hat.jpg,html/resources/sequences_IDs/A/03_camel.jpg,8,3,3,2,1,1,6,3,0,47,,,,,,,,,,,,,,,,,,,,
,,,,,47,2020-07-04_07h05.53.891,retriever_ti,2020.1.3,MacIntel,60,Safari,1440,900,,,,,,,,,,,,,,,,,3,,,,,,,,,,,,,,,,,,,,,,,,,,,809.794,166,right,0.25,holdfast    ,1,4,-1,0,1,809.812,809.812,812.31,0,11,11,11,1,166,2,1,camel         ,holdfast    ,html/resources/sequences_IDs/A/03_camel.jpg,html/resources/sequences_IDs/B/04_holdfast.jpg,3,4,1,1,2,1,3,4,1,47,,,,,,,,,,,,,,,,,,,,
,,,,,47,2020-07-04_07h05.53.891,retriever_ti,2020.1.3,MacIntel,60,Safari,1440,900,,,,,,,,,,,,,,,,,3,,,,,,,,,,,,,,,,,,,,,,,,,,,813.402,167,left,1.426,gloves      ,7,6,-1,0,1,813.42,813.42,815.918,0,12,12,12,1,167,7,8,gloves      ,hat           ,html/resources/sequences_IDs/B/06_gloves.jpg,html/resources/sequences_IDs/A/08_hat.jpg,6,8,3,2,3,2,5,6,1,47,,,,,,,,,,,,,,,,,,,,
,,,,,47,2020-07-04_07h05.53.891,retriever_ti,2020.1.3,MacIntel,60,Safari,1440,900,,,,,,,,,,,,,,,,,3,,,,,,,,,,,,,,,,,,,,,,,,,,,817.018,168,left,0.819,gloves      ,7,6,2,1,3,817.053,817.053,819.542,0,13,13,13,1,168,7,5,gloves      ,dolphin     ,html/resources/sequences_IDs/B/06_gloves.jpg,html/resources/sequences_IDs/B/02_dolphin.jpg,6,2,3,2,1,1,5,2,0,47,,,,,,,,,,,,,,,,,,,,
,,,,,47,2020-07-04_07h05.53.891,retriever_ti,2020.1.3,MacIntel,60,Safari,1440,900,,,,,,,,,,,,,,,,,3,,,,,,,,,,,,,,,,,,,,,,,,,,,820.158,169,right,1.414,dolphin     ,5,2,3,1,3,820.193,820.193,822.692,0,14,14,14,1,169,2,5,camel         ,dolphin     ,html/resources/sequences_IDs/A/03_camel.jpg,html/resources/sequences_IDs/B/02_dolphin.jpg,3,2,1,1,1,1,3,2,0,47,,,,,,,,,,,,,,,,,,,,
,,,,,47,2020-07-04_07h05.53.891,retriever_ti,2020.1.3,MacIntel,60,Safari,1440,900,,,,,,,,,,,,,,,,,3,,,,,,,,,,,,,,,,,,,,,,,,,,,823.3,170,left,2.066,hat           ,8,8,3,1,3,823.318,823.318,825.816,0,15,15,15,1,170,8,5,hat           ,dolphin     ,html/resources/sequences_IDs/A/08_hat.jpg,html/resources/sequences_IDs/B/02_dolphin.jpg,8,2,3,2,1,1,6,2,0,47,,,,,,,,,,,,,,,,,,,,
,,,,,47,2020-07-04_07h05.53.891,retriever_ti,2020.1.3,MacIntel,60,Safari,1440,900,,,,,,,,,,,,,,,,,3,,,,,,,,,,,,,,,,,,,,,,,,,,,826.433,171,right,1.655,dolphin     ,5,2,2,1,3,826.468,826.468,828.961,0,16,16,16,1,171,3,5,radio       ,dolphin     ,html/resources/sequences_IDs/B/10_radio.jpg,html/resources/sequences_IDs/B/02_dolphin.jpg,10,2,4,2,1,1,8,2,0,47,,,,,,,,,,,,,,,,,,,,
,,,,,47,2020-07-04_07h05.53.891,retriever_ti,2020.1.3,MacIntel,60,Safari,1440,900,,,,,,,,,,,,,,,,,3,,,,,,,,,,,,,,,,,,,,,,,,,,,829.578,172,left,2.407,gloves      ,7,6,3,1,3,829.611,829.611,832.111,0,17,17,17,1,172,7,4,gloves      ,calculator    ,html/resources/sequences_IDs/B/06_gloves.jpg,html/resources/sequences_IDs/A/09_calculator.jpg,6,9,3,2,4,2,5,7,0,47,,,,,,,,,,,,,,,,,,,,
,,,,,47,2020-07-04_07h05.53.891,retriever_ti,2020.1.3,MacIntel,60,Safari,1440,900,,,,,,,,,,,,,,,,,3,,,,,,,,,,,,,,,,,,,,,,,,,,,832.727,173,NaN,NaN,No_response,NaN,NaN,NaN,2,2,832.761,832.761,835.252,0,18,18,18,1,173,5,4,dolphin     ,calculator    ,html/resources/sequences_IDs/B/02_dolphin.jpg,html/resources/sequences_IDs/A/09_calculator.jpg,2,9,1,1,4,2,2,7,1,47,,,,,,,,,,,,,,,,,,,,
,,,,,47,2020-07-04_07h05.53.891,retriever_ti,2020.1.3,MacIntel,60,Safari,1440,900,,,,,,,,,,,,,,,,,3,,,,,,,,,,,,,,,,,,,,,,,,,,,836.352,174,NaN,NaN,No_response,NaN,NaN,NaN,2,2,836.369,836.369,838.859,0,19,19,19,1,174,3,4,radio       ,calculator    ,html/resources/sequences_IDs/B/10_radio.jpg,html/resources/sequences_IDs/A/09_calculator.jpg,10,9,4,2,4,2,8,7,0,47,,,,,,,,,,,,,,,,,,,,
,,,,,47,2020-07-04_07h05.53.891,retriever_ti,2020.1.3,MacIntel,60,Safari,1440,900,,,,,,,,,,,,,,,,,3,,,,,,,,,,,,,,,,,,,,,,,,,,,839.959,175,NaN,NaN,No_response,NaN,NaN,NaN,2,2,839.976,839.976,842.476,0,20,20,20,1,175,8,7,hat           ,gloves      ,html/resources/sequences_IDs/A/08_hat.jpg,html/resources/sequences_IDs/B/06_gloves.jpg,8,6,3,2,3,2,6,5,0,47,,,,,,,,,,,,,,,,,,,,
,,,,,47,2020-07-04_07h05.53.891,retriever_ti,2020.1.3,MacIntel,60,Safari,1440,900,,,,,,,,,,,,,,,,,3,,,,,,,,,,,,,,,,,,,,,,,,,,,843.565,176,right,0.585,wolf          ,6,1,1,1,1,843.583,843.583,846.083,0,21,21,21,1,176,5,6,dolphin     ,wolf          ,html/resources/sequences_IDs/B/02_dolphin.jpg,html/resources/sequences_IDs/A/01_wolf.jpg,2,1,1,1,1,1,2,1,0,47,,,,,,,,,,,,,,,,,,,,
,,,,,47,2020-07-04_07h05.53.891,retriever_ti,2020.1.3,MacIntel,60,Safari,1440,900,,,,,,,,,,,,,,,,,3,,,,,,,,,,,,,,,,,,,,,,,,,,,847.182,177,left,0.361,hat           ,8,8,5,1,3,847.216,847.216,849.707,0,22,22,22,1,177,8,3,hat           ,radio       ,html/resources/sequences_IDs/A/08_hat.jpg,html/resources/sequences_IDs/B/10_radio.jpg,8,10,3,2,4,2,6,8,0,47,,,,,,,,,,,,,,,,,,,,
,,,,,47,2020-07-04_07h05.53.891,retriever_ti,2020.1.3,MacIntel,60,Safari,1440,900,,,,,,,,,,,,,,,,,3,,,,,,,,,,,,,,,,,,,,,,,,,,,850.324,178,left,0.375,radio       ,3,10,2,1,3,850.357,850.357,852.857,0,23,23,23,1,178,3,1,radio       ,holdfast    ,html/resources/sequences_IDs/B/10_radio.jpg,html/resources/sequences_IDs/B/04_holdfast.jpg,10,4,4,2,2,1,8,4,0,47,,,,,,,,,,,,,,,,,,,,
,,,,,47,2020-07-04_07h05.53.891,retriever_ti,2020.1.3,MacIntel,60,Safari,1440,900,,,,,,,,,,,,,,,,,3,,,,,,,,,,,,,,,,,,,,,,,,,,,853.466,179,left,1.132,hat           ,8,8,4,1,3,853.498,853.498,855.997,0,24,24,24,1,179,8,4,hat           ,calculator    ,html/resources/sequences_IDs/A/08_hat.jpg,html/resources/sequences_IDs/A/09_calculator.jpg,8,9,3,2,4,2,6,7,0,47,,,,,,,,,,,,,,,,,,,,
,,,,,47,2020-07-04_07h05.53.891,retriever_ti,2020.1.3,MacIntel,60,Safari,1440,900,,,,,,,,,,,,,,,,,3,,,,,,,,,,,,,,,,,,,,,,,,,,,856.615,180,left,0.332,radio       ,3,10,-5,0,3,856.648,856.648,859.138,0,25,25,25,1,180,3,8,radio       ,hat           ,html/resources/sequences_IDs/B/10_radio.jpg,html/resources/sequences_IDs/A/08_hat.jpg,10,8,4,2,3,2,8,6,0,47,,,,,,,,,,,,,,,,,,,,
,,,,,47,2020-07-04_07h05.53.891,retriever_ti,2020.1.3,MacIntel,60,Safari,1440,900,,,,,,,,,,,,,,,,,3,,,,,,,,,,,,,,,,,,,,,,,,,,,859.739,181,right,0.141,holdfast    ,1,4,-5,0,3,859.772,859.772,862.271,0,26,26,26,1,181,6,1,wolf          ,holdfast    ,html/resources/sequences_IDs/A/01_wolf.jpg,html/resources/sequences_IDs/B/04_holdfast.jpg,1,4,1,1,2,1,1,4,0,47,,,,,,,,,,,,,,,,,,,,
,,,,,47,2020-07-04_07h05.53.891,retriever_ti,2020.1.3,MacIntel,60,Safari,1440,900,,,,,,,,,,,,,,,,,3,,,,,,,,,,,,,,,,,,,,,,,,,,,862.889,182,left,0.45,gloves      ,7,6,1,1,1,862.922,862.922,865.412,0,27,27,27,1,182,7,6,gloves      ,wolf          ,html/resources/sequences_IDs/B/06_gloves.jpg,html/resources/sequences_IDs/A/01_wolf.jpg,6,1,3,2,1,1,5,1,0,47,,,,,,,,,,,,,,,,,,,,
,,,,,47,2020-07-04_07h05.53.891,retriever_ti,2020.1.3,MacIntel,60,Safari,1440,900,,,,,,,,,,,,,,,,,3,,,,,,,,,,,,,,,,,,,,,,,,,,,866.513,183,left,0.33,wolf          ,6,1,1,1,1,866.53,866.53,869.02,0,28,28,28,1,183,6,5,wolf          ,dolphin     ,html/resources/sequences_IDs/A/01_wolf.jpg,html/resources/sequences_IDs/B/02_dolphin.jpg,1,2,1,1,1,1,1,2,0,47,,,,,,,,,,,,,,,,,,,,
,,,,,47,2020-07-04_07h05.53.891,retriever_ti,2020.1.3,MacIntel,60,Safari,1440,900,,,,,,,,,,,,,,,,,3,,,,,,,,,,,,,,,,,,,,,,,,,,,870.121,184,left,0.496,camel         ,2,3,-4,0,3,870.153,870.153,872.654,0,29,29,29,1,184,2,6,camel         ,wolf          ,html/resources/sequences_IDs/A/03_camel.jpg,html/resources/sequences_IDs/A/01_wolf.jpg,3,1,1,1,1,1,3,1,0,47,,,,,,,,,,,,,,,,,,,,
,,,,,47,2020-07-04_07h05.53.891,retriever_ti,2020.1.3,MacIntel,60,Safari,1440,900,,,,,,,,,,,,,,,,,3,,,,,,,,,,,,,,,,,,,,,,,,,,,873.254,185,right,0.683,radio       ,3,10,1,1,0,873.292,873.292,875.778,0,30,30,30,1,185,2,3,camel         ,radio       ,html/resources/sequences_IDs/A/03_camel.jpg,html/resources/sequences_IDs/B/10_radio.jpg,3,10,1,1,4,2,3,8,1,47,,,,,,,,,,,,,,,,,,,,
,,,,,47,2020-07-04_07h05.53.891,retriever_ti,2020.1.3,MacIntel,60,Safari,1440,900,,,,,,,,,,,,,,,,,3,,,,,,,,,,,,,,,,,,,,,,,,,,,876.878,186,left,0.841,dolphin     ,5,2,4,1,3,876.913,876.913,879.402,0,31,31,31,1,186,5,1,dolphin     ,holdfast    ,html/resources/sequences_IDs/B/02_dolphin.jpg,html/resources/sequences_IDs/B/04_holdfast.jpg,2,4,1,1,2,1,2,4,0,47,,,,,,,,,,,,,,,,,,,,
,,,,,47,2020-07-04_07h05.53.891,retriever_ti,2020.1.3,MacIntel,60,Safari,1440,900,,,,,,,,,,,,,,,,,3,,,,,,,,,,,,,,,,,,,,,,,,,,,880.003,187,left,0.442,holdfast    ,1,4,-5,0,3,880.019,880.019,882.519,0,32,32,32,1,187,1,6,holdfast    ,wolf          ,html/resources/sequences_IDs/B/04_holdfast.jpg,html/resources/sequences_IDs/A/01_wolf.jpg,4,1,2,1,1,1,4,1,0,47,,,,,,,,,,,,,,,,,,,,
,,,,,47,2020-07-04_07h05.53.891,retriever_ti,2020.1.3,MacIntel,60,Safari,1440,900,,,,,,,,,,,,,,,,,3,,,,,,,,,,,,,,,,,,,,,,,,,,,883.136,188,right,0.24,gloves      ,7,6,1,1,1,883.154,883.154,885.643,0,33,33,33,1,188,6,7,wolf          ,gloves      ,html/resources/sequences_IDs/A/01_wolf.jpg,html/resources/sequences_IDs/B/06_gloves.jpg,1,6,1,1,3,2,1,5,0,47,,,,,,,,,,,,,,,,,,,,
,,,,,47,2020-07-04_07h05.53.891,retriever_ti,2020.1.3,MacIntel,60,Safari,1440,900,,,,,,,,,,,,,,,,,3,,,,,,,,,,,,,,,,,,,,,,,,,,,886.743,189,left,0.48,camel         ,2,3,1,1,1,886.761,886.761,889.25,0,34,34,34,1,189,2,1,camel         ,holdfast    ,html/resources/sequences_IDs/A/03_camel.jpg,html/resources/sequences_IDs/B/04_holdfast.jpg,3,4,1,1,2,1,3,4,0,47,,,,,,,,,,,,,,,,,,,,
,,,,,47,2020-07-04_07h05.53.891,retriever_ti,2020.1.3,MacIntel,60,Safari,1440,900,,,,,,,,,,,,,,,,,3,,,,,,,,,,,,,,,,,,,,,,,,,,,890.35,190,left,0.514,wolf          ,6,1,4,1,3,890.368,890.368,892.865,0,35,35,35,1,190,6,2,wolf          ,camel         ,html/resources/sequences_IDs/A/01_wolf.jpg,html/resources/sequences_IDs/A/03_camel.jpg,1,3,1,1,1,1,1,3,0,47,,,,,,,,,,,,,,,,,,,,
,,,,,47,2020-07-04_07h05.53.891,retriever_ti,2020.1.3,MacIntel,60,Safari,1440,900,,,,,,,,,,,,,,,,,3,,,,,,,,,,,,,,,,,,,,,,,,,,,893.475,191,right,0.648,radio       ,3,10,-1,0,0,893.493,893.493,895.991,0,36,36,36,1,191,4,3,calculator    ,radio       ,html/resources/sequences_IDs/A/09_calculator.jpg,html/resources/sequences_IDs/B/10_radio.jpg,9,10,4,2,4,2,7,8,0,47,,,,,,,,,,,,,,,,,,,,
,,,,,47,2020-07-04_07h05.53.891,retriever_ti,2020.1.3,MacIntel,60,Safari,1440,900,,,,,,,,,,,,,,,,,3,,,,,,,,,,,,,,,,,,,,,,,,,,,897.092,192,left,0.473,calculator    ,4,9,-4,0,3,897.126,897.126,899.615,0,37,37,37,1,192,4,8,calculator    ,hat           ,html/resources/sequences_IDs/A/09_calculator.jpg,html/resources/sequences_IDs/A/08_hat.jpg,9,8,4,2,3,2,7,6,0,47,,,,,,,,,,,,,,,,,,,,
,,,,,47,2020-07-04_07h05.53.891,retriever_ti,2020.1.3,MacIntel,60,Safari,1440,900,,,,,,,,,,,,,,,,,3,,,,,,,,,,,,,,,,,,,,,,,,,,,900.216,193,left,0.808,gloves      ,7,6,6,1,3,900.232,900.232,902.732,0,38,38,38,1,193,7,1,gloves      ,holdfast    ,html/resources/sequences_IDs/B/06_gloves.jpg,html/resources/sequences_IDs/B/04_holdfast.jpg,6,4,3,2,2,1,5,4,0,47,,,,,,,,,,,,,,,,,,,,
,,,,,47,2020-07-04_07h05.53.891,retriever_ti,2020.1.3,MacIntel,60,Safari,1440,900,,,,,,,,,,,,,,,,,3,,,,,,,,,,,,,,,,,,,,,,,,,,,903.335,194,right,0.424,calculator    ,4,9,-1,0,0,903.356,903.356,905.856,0,39,39,39,1,194,5,4,dolphin     ,calculator    ,html/resources/sequences_IDs/B/02_dolphin.jpg,html/resources/sequences_IDs/A/09_calculator.jpg,2,9,1,1,4,2,2,7,0,47,,,,,,,,,,,,,,,,,,,,
,,,,,47,2020-07-04_07h05.53.891,retriever_ti,2020.1.3,MacIntel,60,Safari,1440,900,,,,,,,,,,,,,,,,,3,,,,,,,,,,,,,,,,,,,,,,,,,,,906.956,195,left,0.558,calculator    ,4,9,1,1,1,906.973,906.973,909.464,0,40,40,40,1,195,4,3,calculator    ,radio       ,html/resources/sequences_IDs/A/09_calculator.jpg,html/resources/sequences_IDs/B/10_radio.jpg,9,10,4,2,4,2,7,8,0,47,,,,,,,,,,,,,,,,,,,,
,,,,,47,2020-07-04_07h05.53.891,retriever_ti,2020.1.3,MacIntel,60,Safari,1440,900,,,,,,,,,,,,,,,,,3,,,,,,,,,,,,,,,,,,,,,,,,,,,910.565,196,right,0.634,wolf          ,6,1,2,1,3,910.599,910.599,913.097,0,41,41,41,1,196,4,6,calculator    ,wolf          ,html/resources/sequences_IDs/A/09_calculator.jpg,html/resources/sequences_IDs/A/01_wolf.jpg,9,1,4,2,1,1,7,1,0,47,,,,,,,,,,,,,,,,,,,,
,,,,,47,2020-07-04_07h05.53.891,retriever_ti,2020.1.3,MacIntel,60,Safari,1440,900,,,,,,,,,,,,,,,,,3,,,,,,,,,,,,,,,,,,,,,,,,,,,913.706,197,left,0.421,camel         ,2,3,1,1,1,913.738,913.738,916.238,0,42,42,42,1,197,2,1,camel         ,holdfast    ,html/resources/sequences_IDs/A/03_camel.jpg,html/resources/sequences_IDs/B/04_holdfast.jpg,3,4,1,1,2,1,3,4,0,47,,,,,,,,,,,,,,,,,,,,
,,,,,47,2020-07-04_07h05.53.891,retriever_ti,2020.1.3,MacIntel,60,Safari,1440,900,,,,,,,,,,,,,,,,,3,,,,,,,,,,,,,,,,,,,,,,,,,,,917.338,198,left,0.626,radio       ,3,10,1,1,1,917.372,917.372,919.863,0,43,43,43,1,198,3,2,radio       ,camel         ,html/resources/sequences_IDs/B/10_radio.jpg,html/resources/sequences_IDs/A/03_camel.jpg,10,3,4,2,1,1,8,3,0,47,,,,,,,,,,,,,,,,,,,,
,,,,,47,2020-07-04_07h05.53.891,retriever_ti,2020.1.3,MacIntel,60,Safari,1440,900,,,,,,,,,,,,,,,,,3,,,,,,,,,,,,,,,,,,,,,,,,,,,920.963,199,left,0.419,calculator    ,4,9,-1,0,0,920.996,920.996,923.487,0,44,44,44,1,199,4,5,calculator    ,dolphin     ,html/resources/sequences_IDs/A/09_calculator.jpg,html/resources/sequences_IDs/B/02_dolphin.jpg,9,2,4,2,1,1,7,2,0,47,,,,,,,,,,,,,,,,,,,,
,,,,,47,2020-07-04_07h05.53.891,retriever_ti,2020.1.3,MacIntel,60,Safari,1440,900,,,,,,,,,,,,,,,,,3,,,,,,,,,,,,,,,,,,,,,,,,,,,924.587,200,right,0.534,holdfast    ,1,4,-7,0,3,924.605,924.605,927.103,0,45,45,45,1,200,8,1,hat           ,holdfast    ,html/resources/sequences_IDs/A/08_hat.jpg,html/resources/sequences_IDs/B/04_holdfast.jpg,8,4,3,2,2,1,6,4,0,47,,,,,,,,,,,,,,,,,,,,
,,,,,47,2020-07-04_07h05.53.891,retriever_ti,2020.1.3,MacIntel,60,Safari,1440,900,,,,,,,,,,,,,,,,,3,,,,,,,,,,,,,,,,,,,,,,,,,,,927.72,201,left,0.482,holdfast    ,1,4,-4,0,3,927.738,927.738,930.227,0,46,46,46,1,201,1,5,holdfast    ,dolphin     ,html/resources/sequences_IDs/B/04_holdfast.jpg,html/resources/sequences_IDs/B/02_dolphin.jpg,4,2,2,1,1,1,4,2,0,47,,,,,,,,,,,,,,,,,,,,
,,,,,47,2020-07-04_07h05.53.891,retriever_ti,2020.1.3,MacIntel,60,Safari,1440,900,,,,,,,,,,,,,,,,,3,,,,,,,,,,,,,,,,,,,,,,,,,,,930.843,202,left,0.522,gloves      ,7,6,4,1,3,930.862,930.862,933.36,0,47,47,47,1,202,7,3,gloves      ,radio       ,html/resources/sequences_IDs/B/06_gloves.jpg,html/resources/sequences_IDs/B/10_radio.jpg,6,10,3,2,4,2,5,8,0,47,,,,,,,,,,,,,,,,,,,,
,,,,,47,2020-07-04_07h05.53.891,retriever_ti,2020.1.3,MacIntel,60,Safari,1440,900,,,,,,,,,,,,,,,,,3,,,,,,,,,,,,,,,,,,,,,,,,,,,933.968,203,right,0.384,calculator    ,4,9,-2,0,3,933.986,933.986,936.483,0,48,48,48,1,203,6,4,wolf          ,calculator    ,html/resources/sequences_IDs/A/01_wolf.jpg,html/resources/sequences_IDs/A/09_calculator.jpg,1,9,1,1,4,2,1,7,0,47,,,,,,,,,,,,,,,,,,,,
,,,,,47,2020-07-04_07h05.53.891,retriever_ti,2020.1.3,MacIntel,60,Safari,1440,900,,,,,,,,,,,,,,,,,3,,,,,,,,,,,,,,,,,,,,,,,,,,,937.102,204,left,0.522,hat           ,8,8,1,1,1,937.136,937.136,939.625,0,49,49,49,1,204,8,7,hat           ,gloves      ,html/resources/sequences_IDs/A/08_hat.jpg,html/resources/sequences_IDs/B/06_gloves.jpg,8,6,3,2,3,2,6,5,0,47,,,,,,,,,,,,,,,,,,,,
,,,,,47,2020-07-04_07h05.53.891,retriever_ti,2020.1.3,MacIntel,60,Safari,1440,900,,,,,,,,,,,,,,,,,3,,,,,,,,,,,,,,,,,,,,,,,,,,,940.725,205,left,0.296,dolphin     ,5,2,3,1,3,940.759,940.759,943.258,0,50,50,50,1,205,5,2,dolphin     ,camel         ,html/resources/sequences_IDs/B/02_dolphin.jpg,html/resources/sequences_IDs/A/03_camel.jpg,2,3,1,1,1,1,2,3,0,47,,,,,,,,,,,,,,,,,,,,
,,,,,47,2020-07-04_07h05.53.891,retriever_ti,2020.1.3,MacIntel,60,Safari,1440,900,,,,,,,,,,,,,,,,,3,,,,,,,,,,,,,,,,,,,,,,,,,,,943.865,206,right,0.373,gloves      ,7,6,6,1,3,943.884,943.884,946.382,0,51,51,51,1,206,1,7,holdfast    ,gloves      ,html/resources/sequences_IDs/B/04_holdfast.jpg,html/resources/sequences_IDs/B/06_gloves.jpg,4,6,2,1,3,2,4,5,0,47,,,,,,,,,,,,,,,,,,,,
,,,,,47,2020-07-04_07h05.53.891,retriever_ti,2020.1.3,MacIntel,60,Safari,1440,900,,,,,,,,,,,,,,,,,3,,,,,,,,,,,,,,,,,,,,,,,,,,,946.999,207,left,0.452,hat           ,8,8,2,1,3,947.017,947.017,949.506,0,52,52,52,1,207,8,6,hat           ,wolf          ,html/resources/sequences_IDs/A/08_hat.jpg,html/resources/sequences_IDs/A/01_wolf.jpg,8,1,3,2,1,1,6,1,0,47,,,,,,,,,,,,,,,,,,,,
,,,,,47,2020-07-04_07h05.53.891,retriever_ti,2020.1.3,MacIntel,60,Safari,1440,900,,,,,,,,,,,,,,,,,3,,,,,,,,,,,,,,,,,,,,,,,,,,,950.107,208,right,0.56,holdfast    ,1,4,-3,0,3,950.125,950.125,952.623,0,53,53,53,1,208,4,1,calculator    ,holdfast    ,html/resources/sequences_IDs/A/09_calculator.jpg,html/resources/sequences_IDs/B/04_holdfast.jpg,9,4,4,2,2,1,7,4,0,47,,,,,,,,,,,,,,,,,,,,
,,,,,47,2020-07-04_07h05.53.891,retriever_ti,2020.1.3,MacIntel,60,Safari,1440,900,,,,,,,,,,,,,,,,,3,,,,,,,,,,,,,,,,,,,,,,,,,,,953.224,209,left,0.277,gloves      ,7,6,-1,0,0,953.241,953.241,955.731,0,54,54,54,1,209,7,8,gloves      ,hat           ,html/resources/sequences_IDs/B/06_gloves.jpg,html/resources/sequences_IDs/A/08_hat.jpg,6,8,3,2,3,2,5,6,0,47,,,,,,,,,,,,,,,,,,,,
,,,,,47,2020-07-04_07h05.53.891,retriever_ti,2020.1.3,MacIntel,60,Safari,1440,900,,,,,,,,,,,,,,,,,3,,,,,,,,,,,,,,,,,,,,,,,,,,,956.832,210,right,0.445,hat           ,8,8,6,1,3,956.865,956.865,959.356,0,55,55,55,1,210,2,8,camel         ,hat           ,html/resources/sequences_IDs/A/03_camel.jpg,html/resources/sequences_IDs/A/08_hat.jpg,3,8,1,1,3,2,3,6,0,47,,,,,,,,,,,,,,,,,,,,
,,,,,47,2020-07-04_07h05.53.891,retriever_ti,2020.1.3,MacIntel,60,Safari,1440,900,,,,,,,,,,,,,,,,,3,,,,,,,,,,,,,,,,,,,,,,,,,,,959.956,211,left,0.478,wolf          ,6,1,-2,0,3,959.991,959.991,962.489,0,56,56,56,1,211,6,8,wolf          ,hat           ,html/resources/sequences_IDs/A/01_wolf.jpg,html/resources/sequences_IDs/A/08_hat.jpg,1,8,1,1,3,2,1,6,0,47,,,,,,,,,,,,,,,,,,,,
,,,,,47,2020-07-04_07h05.53.891,retriever_ti,2020.1.3,MacIntel,60,Safari,1440,900,,,,,,,,,,,,,,,,,3,,,,,,,,,,,,,,,,,,,,,,,,,,,963.106,212,right,0.604,dolphin     ,5,2,-1,0,1,963.14,963.14,965.629,0,57,57,57,1,212,6,5,wolf          ,dolphin     ,html/resources/sequences_IDs/A/01_wolf.jpg,html/resources/sequences_IDs/B/02_dolphin.jpg,1,2,1,1,1,1,1,2,1,47,,,,,,,,,,,,,,,,,,,,
,,,,,47,2020-07-04_07h05.53.891,retriever_ti,2020.1.3,MacIntel,60,Safari,1440,900,,,,,,,,,,,,,,,,,3,,,,,,,,,,,,,,,,,,,,,,,,,,,966.73,213,left,0.554,gloves      ,7,6,-1,0,0,966.748,966.748,969.238,0,58,58,58,1,213,7,8,gloves      ,hat           ,html/resources/sequences_IDs/B/06_gloves.jpg,html/resources/sequences_IDs/A/08_hat.jpg,6,8,3,2,3,2,5,6,0,47,,,,,,,,,,,,,,,,,,,,
,,,,,47,2020-07-04_07h05.53.891,retriever_ti,2020.1.3,MacIntel,60,Safari,1440,900,,,,,,,,,,,,,,,,,3,,,,,,,,,,,,,,,,,,,,,,,,,,,970.337,214,right,0.987,calculator    ,4,9,1,1,1,970.372,970.372,972.87,0,59,59,59,1,214,3,4,radio       ,calculator    ,html/resources/sequences_IDs/B/10_radio.jpg,html/resources/sequences_IDs/A/09_calculator.jpg,10,9,4,2,4,2,8,7,0,47,,,,,,,,,,,,,,,,,,,,
,,,,,47,2020-07-04_07h05.53.891,retriever_ti,2020.1.3,MacIntel,60,Safari,1440,900,,,,,,,,,,,,,,,,,3,,,,,,,,,,,,,,,,,,,,,,,,,,,973.962,215,left,0.489,gloves      ,7,6,5,1,3,973.979,973.979,976.478,0,60,60,60,1,215,7,2,gloves      ,camel         ,html/resources/sequences_IDs/B/06_gloves.jpg,html/resources/sequences_IDs/A/03_camel.jpg,6,3,3,2,1,1,5,3,0,47,,,,,,,,,,,,,,,,,,,,
,,,,,47,2020-07-04_07h05.53.891,retriever_ti,2020.1.3,MacIntel,60,Safari,1440,900,,,,,,,,,,,,,,,,,3,,,,,,,,,,,,,,,,,,,,,,,,,,,977.095,216,right,0.691,calculator    ,4,9,3,1,3,977.113,977.113,979.602,0,61,61,61,1,216,1,4,holdfast    ,calculator    ,html/resources/sequences_IDs/B/04_holdfast.jpg,html/resources/sequences_IDs/A/09_calculator.jpg,4,9,2,1,4,2,4,7,0,47,,,,,,,,,,,,,,,,,,,,
,,,,,47,2020-07-04_07h05.53.891,retriever_ti,2020.1.3,MacIntel,60,Safari,1440,900,,,,,,,,,,,,,,,,,3,,,,,,,,,,,,,,,,,,,,,,,,,,,980.219,217,right,0.571,camel         ,2,3,1,1,1,980.236,980.236,982.736,0,62,62,62,1,217,1,2,holdfast    ,camel         ,html/resources/sequences_IDs/B/04_holdfast.jpg,html/resources/sequences_IDs/A/03_camel.jpg,4,3,2,1,1,1,4,3,0,47,,,,,,,,,,,,,,,,,,,,
,,,,,47,2020-07-04_07h05.53.891,retriever_ti,2020.1.3,MacIntel,60,Safari,1440,900,,,,,,,,,,,,,,,,,3,,,,,,,,,,,,,,,,,,,,,,,,,,,983.827,218,left,0.804,wolf          ,6,1,-1,0,0,983.843,983.843,986.344,0,63,63,63,1,218,6,7,wolf          ,gloves      ,html/resources/sequences_IDs/A/01_wolf.jpg,html/resources/sequences_IDs/B/06_gloves.jpg,1,6,1,1,3,2,1,5,0,47,,,,,,,,,,,,,,,,,,,,
,,,,,47,2020-07-04_07h05.53.891,retriever_ti,2020.1.3,MacIntel,60,Safari,1440,900,,,,,,,,,,,,,,,,,3,,,,,,,,,,,,,,,,,,,,,,,,,,,987.444,219,left,0.567,calculator    ,4,9,-1,0,0,987.477,987.477,989.968,0,64,64,64,1,219,4,5,calculator    ,dolphin     ,html/resources/sequences_IDs/A/09_calculator.jpg,html/resources/sequences_IDs/B/02_dolphin.jpg,9,2,4,2,1,1,7,2,0,47,,,,,,,,,,,,,,,,,,,,
,,,,,47,2020-07-04_07h05.53.891,retriever_ti,2020.1.3,MacIntel,60,Safari,1440,900,,,,,,,,,,,,,,,,,3,,,,,,,,,,,,,,,,,,,,,,,,,,,991.068,220,right,0.668,gloves      ,7,6,5,1,3,991.085,991.085,993.575,0,65,65,65,1,220,2,7,camel         ,gloves      ,html/resources/sequences_IDs/A/03_camel.jpg,html/resources/sequences_IDs/B/06_gloves.jpg,3,6,1,1,3,2,3,5,0,47,,,,,,,,,,,,,,,,,,,,
,,,,,47,2020-07-04_07h05.53.891,retriever_ti,2020.1.3,MacIntel,60,Safari,1440,900,,,,,,,,,,,,,,,,,3,,,,,,,,,,,,,,,,,,,,,,,,,,,994.193,221,left,0.523,wolf          ,6,1,1,1,1,994.208,994.208,996.708,0,66,66,66,1,221,6,5,wolf          ,dolphin     ,html/resources/sequences_IDs/A/01_wolf.jpg,html/resources/sequences_IDs/B/02_dolphin.jpg,1,2,1,1,1,1,1,2,0,47,,,,,,,,,,,,,,,,,,,,
,,,,,47,2020-07-04_07h05.53.891,retriever_ti,2020.1.3,MacIntel,60,Safari,1440,900,,,,,,,,,,,,,,,,,3,,,,,,,,,,,,,,,,,,,,,,,,,,,997.808,222,left,0.693,dolphin     ,5,2,-3,0,3,997.827,997.827,1000.316,0,67,67,67,1,222,5,8,dolphin     ,hat           ,html/resources/sequences_IDs/B/02_dolphin.jpg,html/resources/sequences_IDs/A/08_hat.jpg,2,8,1,1,3,2,2,6,0,47,,,,,,,,,,,,,,,,,,,,
,,,,,47,2020-07-04_07h05.53.891,retriever_ti,2020.1.3,MacIntel,60,Safari,1440,900,,,,,,,,,,,,,,,,,3,,,,,,,,,,,,,,,,,,,,,,,,,,,1000.933,223,left,0.586,calculator    ,4,9,2,1,3,1000.952,1000.952,1003.449,0,68,68,68,1,223,4,2,calculator    ,camel         ,html/resources/sequences_IDs/A/09_calculator.jpg,html/resources/sequences_IDs/A/03_camel.jpg,9,3,4,2,1,1,7,3,0,47,,,,,,,,,,,,,,,,,,,,
,,,,,47,2020-07-04_07h05.53.891,retriever_ti,2020.1.3,MacIntel,60,Safari,1440,900,,,,,,,,,,,,,,,,,3,,,,,,,,,,,,,,,,,,,,,,,,,,,1004.057,224,right,0.487,radio       ,3,10,-3,0,3,1004.091,1004.091,1006.59,0,69,69,69,1,224,6,3,wolf          ,radio       ,html/resources/sequences_IDs/A/01_wolf.jpg,html/resources/sequences_IDs/B/10_radio.jpg,1,10,1,1,4,2,1,8,0,47,,,,,,,,,,,,,,,,,,,,
,,,,,47,2020-07-04_07h05.53.891,retriever_ti,2020.1.3,MacIntel,60,Safari,1440,900,,,,,,,,,,,,,,,,,3,,,,,,,,,,,,,,,,,,,,,,,,,,,1007.191,225,left,0.639,dolphin     ,5,2,2,1,3,1007.206,1007.206,1009.698,0,70,70,70,1,225,5,3,dolphin     ,radio       ,html/resources/sequences_IDs/B/02_dolphin.jpg,html/resources/sequences_IDs/B/10_radio.jpg,2,10,1,1,4,2,2,8,0,47,,,,,,,,,,,,,,,,,,,,
,,,,,47,2020-07-04_07h05.53.891,retriever_ti,2020.1.3,MacIntel,60,Safari,1440,900,,,,,,,,,,,,,,,,,3,,,,,,,,,,,,,,,,,,,,,,,,,,,1010.315,226,left,0.403,dolphin     ,5,2,-1,0,0,1010.349,1010.349,1012.847,0,71,71,71,1,226,5,6,dolphin     ,wolf          ,html/resources/sequences_IDs/B/02_dolphin.jpg,html/resources/sequences_IDs/A/01_wolf.jpg,2,1,1,1,1,1,2,1,0,47,,,,,,,,,,,,,,,,,,,,
,,,,,47,2020-07-04_07h05.53.891,retriever_ti,2020.1.3,MacIntel,60,Safari,1440,900,,,,,,,,,,,,,,,,,3,,,,,,,,,,,,,,,,,,,,,,,,,,,1013.94,227,left,0.685,holdfast    ,1,4,-7,0,3,1013.956,1013.956,1016.456,0,72,72,72,1,227,1,8,holdfast    ,hat           ,html/resources/sequences_IDs/B/04_holdfast.jpg,html/resources/sequences_IDs/A/08_hat.jpg,4,8,2,1,3,2,4,6,0,47,,,,,,,,,,,,,,,,,,,,
,,,,,47,2020-07-04_07h05.53.891,retriever_ti,2020.1.3,MacIntel,60,Safari,1440,900,,,,,,,,,,,,,,,,,3,,,,,,,,,,,,,,,,,,,,,,,,,,,1017.073,228,right,0.541,wolf          ,6,1,-1,0,0,1017.107,1017.107,1019.597,0,73,73,73,1,228,7,6,gloves      ,wolf          ,html/resources/sequences_IDs/B/06_gloves.jpg,html/resources/sequences_IDs/A/01_wolf.jpg,6,1,3,2,1,1,5,1,0,47,,,,,,,,,,,,,,,,,,,,
,,,,,47,2020-07-04_07h05.53.891,retriever_ti,2020.1.3,MacIntel,60,Safari,1440,900,,,,,,,,,,,,,,,,,3,,,,,,,,,,,,,,,,,,,,,,,,,,,1020.697,229,left,0.473,calculator    ,4,9,1,1,0,1020.715,1020.715,1023.214,0,74,74,74,1,229,4,3,calculator    ,radio       ,html/resources/sequences_IDs/A/09_calculator.jpg,html/resources/sequences_IDs/B/10_radio.jpg,9,10,4,2,4,2,7,8,1,47,,,,,,,,,,,,,,,,,,,,
