instructionsLoop.thisRepN,instructionsLoop.thisTrialN,instructionsLoop.thisN,instructionsLoop.thisIndex,instructionsLoop.ran,participant,date,expName,psychopyVersion,OS,frameRate,browser,xResolution,yResolution,fix_onset,tprac,practiceKey.keys,practiceKey.rt,pracitem_chosen_name,acc_practice,P1_onsetPrac,P2_onsetPrac,onsetFeedbPrac,practiceTrials.thisRepN,practiceTrials.thisTrialN,practiceTrials.thisN,practiceTrials.thisIndex,practiceTrials.ran,P1,P2,Block,LocItem1,LocItem2,NameItem1,NameItem2,key_respAC_prac.keys,key_respAC_prac.corr,key_respAC_prac.rt,AC_acc,Attentions.thisRepN,Attentions.thisTrialN,Attentions.thisN,Attentions.thisIndex,Attentions.ran,Stim,Loc1,Loc2,Loc3,Loc4,CorrAns,keyDisturbed.keys,keyDisturbed.rt,repPractice.thisRepN,repPractice.thisTrialN,repPractice.thisN,repPractice.thisIndex,repPractice.ran,fixcross_onsetMain,trialNumber,key_resp.keys,key_resp.rt,item_chosen_name,item_chosen_value,item_chosen_ID,diff_chosen_minus_reject,acc_real,acc_feedback,P1_onset,P2_onset,feedb_onset,trials.thisRepN,trials.thisTrialN,trials.thisN,trials.thisIndex,trials.ran,Trial,ValueP1,ValueP2,P1name,P2name,P1Loc,P2Loc,P1id,P2id,Micro_categoryP1,Macro_categoryP1,Micro_categoryP2,Macro_categoryP2,ID_sequenceP1,ID_sequenceP2,InverseFb,pNumber,repBlocks.thisRepN,repBlocks.thisTrialN,repBlocks.thisN,repBlocks.thisIndex,repBlocks.ran,key_respAC.keys,key_respAC.corr,key_respAC.rt,trials_AC.thisRepN,trials_AC.thisTrialN,trials_AC.thisN,trials_AC.thisIndex,trials_AC.ran,Bonus,BonusLoop.thisRepN,BonusLoop.thisTrialN,BonusLoop.thisN,BonusLoop.thisIndex,BonusLoop.ran,comments
0,0,0,0,1,48,2020-07-04_16h07.31.945,retriever_ti,2020.1.3,Win32,60,Chrome,1920,1080,,,,,,,,,,,,,,,,,,,,,,,,,,,,,,,,,,,,,,,,,,,,,,,,,,,,,,,,,,,,,,,,,,,,,,,,,,,,,,,,,,,,,,,,,,,,,,,,,,
1,0,1,0,1,48,2020-07-04_16h07.31.945,retriever_ti,2020.1.3,Win32,60,Chrome,1920,1080,,,,,,,,,,,,,,,,,,,,,,,,,,,,,,,,,,,,,,,,,,,,,,,,,,,,,,,,,,,,,,,,,,,,,,,,,,,,,,,,,,,,,,,,,,,,,,,,,,
2,0,2,0,1,48,2020-07-04_16h07.31.945,retriever_ti,2020.1.3,Win32,60,Chrome,1920,1080,,,,,,,,,,,,,,,,,,,,,,,,,,,,,,,,,,,,,,,,,,,,,,,,,,,,,,,,,,,,,,,,,,,,,,,,,,,,,,,,,,,,,,,,,,,,,,,,,,
3,0,3,0,1,48,2020-07-04_16h07.31.945,retriever_ti,2020.1.3,Win32,60,Chrome,1920,1080,,,,,,,,,,,,,,,,,,,,,,,,,,,,,,,,,,,,,,,,,,,,,,,,,,,,,,,,,,,,,,,,,,,,,,,,,,,,,,,,,,,,,,,,,,,,,,,,,,
4,0,4,0,1,48,2020-07-04_16h07.31.945,retriever_ti,2020.1.3,Win32,60,Chrome,1920,1080,,,,,,,,,,,,,,,,,,,,,,,,,,,,,,,,,,,,,,,,,,,,,,,,,,,,,,,,,,,,,,,,,,,,,,,,,,,,,,,,,,,,,,,,,,,,,,,,,,
5,0,5,0,1,48,2020-07-04_16h07.31.945,retriever_ti,2020.1.3,Win32,60,Chrome,1920,1080,,,,,,,,,,,,,,,,,,,,,,,,,,,,,,,,,,,,,,,,,,,,,,,,,,,,,,,,,,,,,,,,,,,,,,,,,,,,,,,,,,,,,,,,,,,,,,,,,,
6,0,6,0,1,48,2020-07-04_16h07.31.945,retriever_ti,2020.1.3,Win32,60,Chrome,1920,1080,,,,,,,,,,,,,,,,,,,,,,,,,,,,,,,,,,,,,,,,,,,,,,,,,,,,,,,,,,,,,,,,,,,,,,,,,,,,,,,,,,,,,,,,,,,,,,,,,,
7,0,7,0,1,48,2020-07-04_16h07.31.945,retriever_ti,2020.1.3,Win32,60,Chrome,1920,1080,,,,,,,,,,,,,,,,,,,,,,,,,,,,,,,,,,,,,,,,,,,,,,,,,,,,,,,,,,,,,,,,,,,,,,,,,,,,,,,,,,,,,,,,,,,,,,,,,,
8,0,8,0,1,48,2020-07-04_16h07.31.945,retriever_ti,2020.1.3,Win32,60,Chrome,1920,1080,,,,,,,,,,,,,,,,,,,,,,,,,,,,,,,,,,,,,,,,,,,,,,,,,,,,,,,,,,,,,,,,,,,,,,,,,,,,,,,,,,,,,,,,,,,,,,,,,,
9,0,9,0,1,48,2020-07-04_16h07.31.945,retriever_ti,2020.1.3,Win32,60,Chrome,1920,1080,,,,,,,,,,,,,,,,,,,,,,,,,,,,,,,,,,,,,,,,,,,,,,,,,,,,,,,,,,,,,,,,,,,,,,,,,,,,,,,,,,,,,,,,,,,,,,,,,,
10,0,10,0,1,48,2020-07-04_16h07.31.945,retriever_ti,2020.1.3,Win32,60,Chrome,1920,1080,,,,,,,,,,,,,,,,,,,,,,,,,,,,,,,,,,,,,,,,,,,,,,,,,,,,,,,,,,,,,,,,,,,,,,,,,,,,,,,,,,,,,,,,,,,,,,,,,,
11,0,11,0,1,48,2020-07-04_16h07.31.945,retriever_ti,2020.1.3,Win32,60,Chrome,1920,1080,,,,,,,,,,,,,,,,,,,,,,,,,,,,,,,,,,,,,,,,,,,,,,,,,,,,,,,,,,,,,,,,,,,,,,,,,,,,,,,,,,,,,,,,,,,,,,,,,,
12,0,12,0,1,48,2020-07-04_16h07.31.945,retriever_ti,2020.1.3,Win32,60,Chrome,1920,1080,,,,,,,,,,,,,,,,,,,,,,,,,,,,,,,,,,,,,,,,,,,,,,,,,,,,,,,,,,,,,,,,,,,,,,,,,,,,,,,,,,,,,,,,,,,,,,,,,,
13,0,13,0,1,48,2020-07-04_16h07.31.945,retriever_ti,2020.1.3,Win32,60,Chrome,1920,1080,,,,,,,,,,,,,,,,,,,,,,,,,,,,,,,,,,,,,,,,,,,,,,,,,,,,,,,,,,,,,,,,,,,,,,,,,,,,,,,,,,,,,,,,,,,,,,,,,,
14,0,14,0,1,48,2020-07-04_16h07.31.945,retriever_ti,2020.1.3,Win32,60,Chrome,1920,1080,,,,,,,,,,,,,,,,,,,,,,,,,,,,,,,,,,,,,,,,,,,,,,,,,,,,,,,,,,,,,,,,,,,,,,,,,,,,,,,,,,,,,,,,,,,,,,,,,,
15,0,15,0,1,48,2020-07-04_16h07.31.945,retriever_ti,2020.1.3,Win32,60,Chrome,1920,1080,,,,,,,,,,,,,,,,,,,,,,,,,,,,,,,,,,,,,,,,,,,,,,,,,,,,,,,,,,,,,,,,,,,,,,,,,,,,,,,,,,,,,,,,,,,,,,,,,,
,,,,,48,2020-07-04_16h07.31.945,retriever_ti,2020.1.3,Win32,60,Chrome,1920,1080,141.257385,1,NaN,NaN,No_response,2,141.27026,141.27026,143.76921,0,0,0,0,1,2,5,1,html/resources/stimuli_practice_decision/04_beetle.jpg,html/resources/stimuli_practice_decision/02_canary.jpg,beetle,canary,,,,,,,,,,,,,,,,,,,,,,,,,,,,,,,,,,,,,,,,,,,,,,,,,,,,,,,,,,,,,,,,,,,,,,,,,,,,,
,,,,,48,2020-07-04_16h07.31.945,retriever_ti,2020.1.3,Win32,60,Chrome,1920,1080,144.317745,2,left,0.75294,rabbit,1,144.352985,144.352985,146.85207,0,1,1,1,1,4,3,1,html/resources/stimuli_practice_decision/01_rabbit.jpg,html/resources/stimuli_practice_decision/07_sock.jpg,rabbit,sock,,,,,,,,,,,,,,,,,,,,,,,,,,,,,,,,,,,,,,,,,,,,,,,,,,,,,,,,,,,,,,,,,,,,,,,,,,,,,
,,,,,48,2020-07-04_16h07.31.945,retriever_ti,2020.1.3,Win32,60,Chrome,1920,1080,147.852615,3,left,1.06265,pullover,1,147.886845,147.886845,150.38532,0,2,2,2,1,6,2,1,html/resources/stimuli_practice_decision/06_pullover.jpg,html/resources/stimuli_practice_decision/04_beetle.jpg,pullover,beetle,,,,,,,,,,,,,,,,,,,,,,,,,,,,,,,,,,,,,,,,,,,,,,,,,,,,,,,,,,,,,,,,,,,,,,,,,,,,,
,,,,,48,2020-07-04_16h07.31.945,retriever_ti,2020.1.3,Win32,60,Chrome,1920,1080,150.902385,4,right,1.918945,handmixer,0,150.936245,150.936245,153.43531,0,3,3,3,1,7,1,1,html/resources/stimuli_practice_decision/05_glasses.jpg,html/resources/stimuli_practice_decision/08_handmixer.jpg,glasses,handmixer,,,,,,,,,,,,,,,,,,,,,,,,,,,,,,,,,,,,,,,,,,,,,,,,,,,,,,,,,,,,,,,,,,,,,,,,,,,,,
,,,,,48,2020-07-04_16h07.31.945,retriever_ti,2020.1.3,Win32,60,Chrome,1920,1080,153.93607,5,right,1.38849,pullover,0,153.96971,153.96971,156.46889,0,4,4,4,1,7,6,1,html/resources/stimuli_practice_decision/05_glasses.jpg,html/resources/stimuli_practice_decision/06_pullover.jpg,glasses,pullover,,,,,,,,,,,,,,,,,,,,,,,,,,,,,,,,,,,,,,,,,,,,,,,,,,,,,,,,,,,,,,,,,,,,,,,,,,,,,
,,,,,48,2020-07-04_16h07.31.945,retriever_ti,2020.1.3,Win32,60,Chrome,1920,1080,157.469435,6,right,1.699565,glasses,1,157.48651,157.48651,159.985425,0,5,5,5,1,4,7,1,html/resources/stimuli_practice_decision/01_rabbit.jpg,html/resources/stimuli_practice_decision/05_glasses.jpg,rabbit,glasses,,,,,,,,,,,,,,,,,,,,,,,,,,,,,,,,,,,,,,,,,,,,,,,,,,,,,,,,,,,,,,,,,,,,,,,,,,,,,
,,,,,48,2020-07-04_16h07.31.945,retriever_ti,2020.1.3,Win32,60,Chrome,1920,1080,160.502655,7,left,1.31734,handmixer,0,160.536235,160.536235,163.03525,0,6,6,6,1,1,2,1,html/resources/stimuli_practice_decision/08_handmixer.jpg,html/resources/stimuli_practice_decision/04_beetle.jpg,handmixer,beetle,,,,,,,,,,,,,,,,,,,,,,,,,,,,,,,,,,,,,,,,,,,,,,,,,,,,,,,,,,,,,,,,,,,,,,,,,,,,,
,,,,,48,2020-07-04_16h07.31.945,retriever_ti,2020.1.3,Win32,60,Chrome,1920,1080,164.0359,8,left,1.05598,rabbit,1,164.06985,164.06985,166.56873,0,7,7,7,1,4,3,1,html/resources/stimuli_practice_decision/01_rabbit.jpg,html/resources/stimuli_practice_decision/07_sock.jpg,rabbit,sock,,,,,,,,,,,,,,,,,,,,,,,,,,,,,,,,,,,,,,,,,,,,,,,,,,,,,,,,,,,,,,,,,,,,,,,,,,,,,
,,,,,48,2020-07-04_16h07.31.945,retriever_ti,2020.1.3,Win32,60,Chrome,1920,1080,,,,,,,,,,,,,,,,,,,,,,left,1,1.998095,1,0,0,0,2,1,html/resources/sequences_IDs/square1.png,star ↑,triangle →,circle ↓,← square,left,,,,,,,,,,,,,,,,,,,,,,,,,,,,,,,,,,,,,,,,,,,,,,,,,,,,,,,,,,,,,,
,,,,,48,2020-07-04_16h07.31.945,retriever_ti,2020.1.3,Win32,60,Chrome,1920,1080,,,,,,,,,,,,,,,,,,,,,,down,1,1.06418,1,0,1,1,3,1,html/resources/sequences_IDs/triangle.png,star ↑,square →,triangle ↓,← circle,down,,,,,,,,,,,,,,,,,,,,,,,,,,,,,,,,,,,,,,,,,,,,,,,,,,,,,,,,,,,,,,
,,,,,48,2020-07-04_16h07.31.945,retriever_ti,2020.1.3,Win32,60,Chrome,1920,1080,,,,,,,,,,,,,,,,,,,,,,down,1,2.136505,1,0,2,2,1,1,html/resources/sequences_IDs/star.png,square ↑,circle →,star ↓,← triangle,down,,,,,,,,,,,,,,,,,,,,,,,,,,,,,,,,,,,,,,,,,,,,,,,,,,,,,,,,,,,,,,
,,,,,48,2020-07-04_16h07.31.945,retriever_ti,2020.1.3,Win32,60,Chrome,1920,1080,,,,,,,,,,,,,,,,,,,,,,up,1,2.046575,1,0,3,3,0,1,html/resources/sequences_IDs/circle.png,circle ↑,square →,triangle ↓,← star ,up,,,,,,,,,,,,,,,,,,,,,,,,,,,,,,,,,,,,,,,,,,,,,,,,,,,,,,,,,,,,,,
,,,,,48,2020-07-04_16h07.31.945,retriever_ti,2020.1.3,Win32,60,Chrome,1920,1080,,,,,,,,,,,,,,,,,,,,,,,,,,,,,,,,,,,,,0,8.458865,0,0,0,0,1,,,,,,,,,,,,,,,,,,,,,,,,,,,,,,,,,,,,,,,,,,,,,,,,,,,,,,,
,,,,,48,2020-07-04_16h07.31.945,retriever_ti,2020.1.3,Win32,60,Chrome,1920,1080,186.666125,9,right,2.041485,glasses,1,186.66977,186.66977,189.168515,0,0,0,0,1,6,7,1,html/resources/stimuli_practice_decision/06_pullover.jpg,html/resources/stimuli_practice_decision/05_glasses.jpg,pullover,glasses,,,,,,,,,,,,,,,,,,,,,,,,,,,,,,,,,,,,,,,,,,,,,,,,,,,,,,,,,,,,,,,,,,,,,,,,,,,,,
,,,,,48,2020-07-04_16h07.31.945,retriever_ti,2020.1.3,Win32,60,Chrome,1920,1080,190.16923,10,left,1.01773,pullover,1,190.18602,190.18602,192.685095,0,1,1,1,1,6,2,1,html/resources/stimuli_practice_decision/06_pullover.jpg,html/resources/stimuli_practice_decision/04_beetle.jpg,pullover,beetle,,,,,,,,,,,,,,,,,,,,,,,,,,,,,,,,,,,,,,,,,,,,,,,,,,,,,,,,,,,,,,,,,,,,,,,,,,,,,
,,,,,48,2020-07-04_16h07.31.945,retriever_ti,2020.1.3,Win32,60,Chrome,1920,1080,193.202045,11,left,0.8276,canary,0,193.2192,193.2192,195.71845,0,2,2,2,1,5,6,1,html/resources/stimuli_practice_decision/02_canary.jpg,html/resources/stimuli_practice_decision/06_pullover.jpg,canary,pullover,,,,,,,,,,,,,,,,,,,,,,,,,,,,,,,,,,,,,,,,,,,,,,,,,,,,,,,,,,,,,,,,,,,,,,,,,,,,,
,,,,,48,2020-07-04_16h07.31.945,retriever_ti,2020.1.3,Win32,60,Chrome,1920,1080,196.71901,12,right,0.847865,glasses,0,196.753085,196.753085,199.25167,0,3,3,3,1,8,7,1,html/resources/stimuli_practice_decision/03_squirrel.jpg,html/resources/stimuli_practice_decision/05_glasses.jpg,squirrel,glasses,,,,,,,,,,,,,,,,,,,,,,,,,,,,,,,,,,,,,,,,,,,,,,,,,,,,,,,,,,,,,,,,,,,,,,,,,,,,,
,,,,,48,2020-07-04_16h07.31.945,retriever_ti,2020.1.3,Win32,60,Chrome,1920,1080,200.252895,13,left,0.86512,canary,1,200.28614,200.28614,202.78505,0,4,4,4,1,5,3,1,html/resources/stimuli_practice_decision/02_canary.jpg,html/resources/stimuli_practice_decision/07_sock.jpg,canary,sock,,,,,,,,,,,,,,,,,,,,,,,,,,,,,,,,,,,,,,,,,,,,,,,,,,,,,,,,,,,,,,,,,,,,,,,,,,,,,
,,,,,48,2020-07-04_16h07.31.945,retriever_ti,2020.1.3,Win32,60,Chrome,1920,1080,203.301875,14,left,2.20193,glasses,0,203.33578,203.33578,205.83492,0,5,5,5,1,7,8,1,html/resources/stimuli_practice_decision/05_glasses.jpg,html/resources/stimuli_practice_decision/03_squirrel.jpg,glasses,squirrel,,,,,,,,,,,,,,,,,,,,,,,,,,,,,,,,,,,,,,,,,,,,,,,,,,,,,,,,,,,,,,,,,,,,,,,,,,,,,
,,,,,48,2020-07-04_16h07.31.945,retriever_ti,2020.1.3,Win32,60,Chrome,1920,1080,206.83559,15,left,0.894985,canary,1,206.852615,206.852615,209.35162,0,6,6,6,1,5,4,1,html/resources/stimuli_practice_decision/02_canary.jpg,html/resources/stimuli_practice_decision/01_rabbit.jpg,canary,rabbit,,,,,,,,,,,,,,,,,,,,,,,,,,,,,,,,,,,,,,,,,,,,,,,,,,,,,,,,,,,,,,,,,,,,,,,,,,,,,
,,,,,48,2020-07-04_16h07.31.945,retriever_ti,2020.1.3,Win32,60,Chrome,1920,1080,210.3523,16,left,0.89133,canary,1,210.385745,210.385745,212.88487,0,7,7,7,1,5,3,1,html/resources/stimuli_practice_decision/02_canary.jpg,html/resources/stimuli_practice_decision/07_sock.jpg,canary,sock,,,,,,,,,,,,,,,,,,,,,,,,,,,,,,,,,,,,,,,,,,,,,,,,,,,,,,,,,,,,,,,,,,,,,,,,,,,,,
,,,,,48,2020-07-04_16h07.31.945,retriever_ti,2020.1.3,Win32,60,Chrome,1920,1080,,,,,,,,,,,,,,,,,,,,,,up,1,1.978745,1,0,0,0,0,1,html/resources/sequences_IDs/circle.png,circle ↑,square →,triangle ↓,← star ,up,,,,,,,,,,,,,,,,,,,,,,,,,,,,,,,,,,,,,,,,,,,,,,,,,,,,,,,,,,,,,,
,,,,,48,2020-07-04_16h07.31.945,retriever_ti,2020.1.3,Win32,60,Chrome,1920,1080,,,,,,,,,,,,,,,,,,,,,,down,1,1.34795,1,0,1,1,1,1,html/resources/sequences_IDs/star.png,square ↑,circle →,star ↓,← triangle,down,,,,,,,,,,,,,,,,,,,,,,,,,,,,,,,,,,,,,,,,,,,,,,,,,,,,,,,,,,,,,,
,,,,,48,2020-07-04_16h07.31.945,retriever_ti,2020.1.3,Win32,60,Chrome,1920,1080,,,,,,,,,,,,,,,,,,,,,,down,1,1.62832,1,0,2,2,3,1,html/resources/sequences_IDs/triangle.png,star ↑,square →,triangle ↓,← circle,down,,,,,,,,,,,,,,,,,,,,,,,,,,,,,,,,,,,,,,,,,,,,,,,,,,,,,,,,,,,,,,
,,,,,48,2020-07-04_16h07.31.945,retriever_ti,2020.1.3,Win32,60,Chrome,1920,1080,,,,,,,,,,,,,,,,,,,,,,left,1,1.421695,1,0,3,3,2,1,html/resources/sequences_IDs/square1.png,star ↑,triangle →,circle ↓,← square,left,,,,,,,,,,,,,,,,,,,,,,,,,,,,,,,,,,,,,,,,,,,,,,,,,,,,,,,,,,,,,,
,,,,,48,2020-07-04_16h07.31.945,retriever_ti,2020.1.3,Win32,60,Chrome,1920,1080,,,,,,,,,,,,,,,,,,,,,,,,,,,,,,,,,,,,,0,2.871735,1,0,1,0,1,,,,,,,,,,,,,,,,,,,,,,,,,,,,,,,,,,,,,,,,,,,,,,,,,,,,,,,
,,,,,48,2020-07-04_16h07.31.945,retriever_ti,2020.1.3,Win32,60,Chrome,1920,1080,,,,,,,,,,,,,,,,,1,,,,,,,,,,,,,,,,,,,,,,,,,,,229.964615,1,right,0.79651,slipper     ,3,8,-1,0,0,229.96954,229.96954,232.468785,0,0,0,0,1,1,4,3,scarf         ,slipper     ,html/resources/sequences_IDs/A/06_scarf.jpg,html/resources/sequences_IDs/B/08_slipper.jpg,6,8,3,2,3,2,5,7,0,48,,,,,,,,,,,,,,,,,,,,
,,,,,48,2020-07-04_16h07.31.945,retriever_ti,2020.1.3,Win32,60,Chrome,1920,1080,,,,,,,,,,,,,,,,,1,,,,,,,,,,,,,,,,,,,,,,,,,,,233.56923,2,left,0.877105,redfox      ,5,1,2,1,3,233.585585,233.585585,236.08478,0,1,1,1,1,2,5,3,redfox      ,slipper     ,html/resources/sequences_IDs/B/01_redfox.jpg,html/resources/sequences_IDs/B/08_slipper.jpg,1,8,1,1,3,2,1,7,0,48,,,,,,,,,,,,,,,,,,,,
,,,,,48,2020-07-04_16h07.31.945,retriever_ti,2020.1.3,Win32,60,Chrome,1920,1080,,,,,,,,,,,,,,,,,1,,,,,,,,,,,,,,,,,,,,,,,,,,,236.7021,3,right,1.011715,seaturtle     ,6,2,1,1,1,236.71916,236.71916,239.2181,0,2,2,2,1,3,5,6,redfox      ,seaturtle     ,html/resources/sequences_IDs/B/01_redfox.jpg,html/resources/sequences_IDs/A/02_seaturtle.jpg,1,2,1,1,2,1,1,2,0,48,,,,,,,,,,,,,,,,,,,,
,,,,,48,2020-07-04_16h07.31.945,retriever_ti,2020.1.3,Win32,60,Chrome,1920,1080,,,,,,,,,,,,,,,,,1,,,,,,,,,,,,,,,,,,,,,,,,,,,240.31855,4,left,2.024555,seaturtle     ,6,2,-1,0,1,240.33551,240.33551,242.834735,0,3,3,3,1,4,6,7,seaturtle     ,radio       ,html/resources/sequences_IDs/A/02_seaturtle.jpg,html/resources/sequences_IDs/B/10_radio.jpg,2,10,2,1,4,2,2,8,1,48,,,,,,,,,,,,,,,,,,,,
,,,,,48,2020-07-04_16h07.31.945,retriever_ti,2020.1.3,Win32,60,Chrome,1920,1080,,,,,,,,,,,,,,,,,1,,,,,,,,,,,,,,,,,,,,,,,,,,,243.93545,5,right,1.11938,scarf         ,4,6,1,1,1,243.9696,243.9696,246.4681,0,4,4,4,1,5,3,4,slipper     ,scarf         ,html/resources/sequences_IDs/B/08_slipper.jpg,html/resources/sequences_IDs/A/06_scarf.jpg,8,6,3,2,3,2,7,5,0,48,,,,,,,,,,,,,,,,,,,,
,,,,,48,2020-07-04_16h07.31.945,retriever_ti,2020.1.3,Win32,60,Chrome,1920,1080,,,,,,,,,,,,,,,,,1,,,,,,,,,,,,,,,,,,,,,,,,,,,247.56897,6,left,0.83733,seaturtle     ,6,2,-2,0,3,247.60356,247.60356,250.1013,0,5,5,5,1,6,6,8,seaturtle     ,dress         ,html/resources/sequences_IDs/A/02_seaturtle.jpg,html/resources/sequences_IDs/A/07_dress.jpg,2,7,2,1,3,2,2,6,0,48,,,,,,,,,,,,,,,,,,,,
,,,,,48,2020-07-04_16h07.31.945,retriever_ti,2020.1.3,Win32,60,Chrome,1920,1080,,,,,,,,,,,,,,,,,1,,,,,,,,,,,,,,,,,,,,,,,,,,,250.71883,7,left,1.437565,scarf         ,4,6,-2,0,3,250.751995,250.751995,253.25127,0,6,6,6,1,7,4,6,scarf         ,seaturtle     ,html/resources/sequences_IDs/A/06_scarf.jpg,html/resources/sequences_IDs/A/02_seaturtle.jpg,6,2,3,2,2,1,5,2,0,48,,,,,,,,,,,,,,,,,,,,
,,,,,48,2020-07-04_16h07.31.945,retriever_ti,2020.1.3,Win32,60,Chrome,1920,1080,,,,,,,,,,,,,,,,,1,,,,,,,,,,,,,,,,,,,,,,,,,,,253.86879,8,right,1.08418,redfox      ,5,1,4,1,3,253.902355,253.902355,256.401245,0,7,7,7,1,8,1,5,giraffe     ,redfox      ,html/resources/sequences_IDs/B/03_giraffe.jpg,html/resources/sequences_IDs/B/01_redfox.jpg,3,1,1,1,1,1,3,1,0,48,,,,,,,,,,,,,,,,,,,,
,,,,,48,2020-07-04_16h07.31.945,retriever_ti,2020.1.3,Win32,60,Chrome,1920,1080,,,,,,,,,,,,,,,,,1,,,,,,,,,,,,,,,,,,,,,,,,,,,257.002055,9,NaN,NaN,No_response,NaN,NaN,NaN,2,2,257.035885,257.035885,259.534605,0,8,8,8,1,9,3,8,slipper     ,dress         ,html/resources/sequences_IDs/B/08_slipper.jpg,html/resources/sequences_IDs/A/07_dress.jpg,8,7,3,2,3,2,7,6,0,48,,,,,,,,,,,,,,,,,,,,
,,,,,48,2020-07-04_16h07.31.945,retriever_ti,2020.1.3,Win32,60,Chrome,1920,1080,,,,,,,,,,,,,,,,,1,,,,,,,,,,,,,,,,,,,,,,,,,,,260.63542,10,left,0.64947,dress         ,8,7,3,1,3,260.668735,260.668735,263.16787,0,9,9,9,1,10,8,5,dress         ,redfox      ,html/resources/sequences_IDs/A/07_dress.jpg,html/resources/sequences_IDs/B/01_redfox.jpg,7,1,3,2,1,1,6,1,0,48,,,,,,,,,,,,,,,,,,,,
,,,,,48,2020-07-04_16h07.31.945,retriever_ti,2020.1.3,Win32,60,Chrome,1920,1080,,,,,,,,,,,,,,,,,1,,,,,,,,,,,,,,,,,,,,,,,,,,,263.785115,11,right,1.661905,clownfish     ,2,4,-3,0,3,263.80194,263.80194,266.301285,0,10,10,10,1,11,5,2,redfox      ,clownfish     ,html/resources/sequences_IDs/B/01_redfox.jpg,html/resources/sequences_IDs/A/04_clownfish.jpg,1,4,1,1,2,1,1,4,0,48,,,,,,,,,,,,,,,,,,,,
,,,,,48,2020-07-04_16h07.31.945,retriever_ti,2020.1.3,Win32,60,Chrome,1920,1080,,,,,,,,,,,,,,,,,1,,,,,,,,,,,,,,,,,,,,,,,,,,,266.91853,12,left,0.71098,clownfish     ,2,4,1,1,1,266.95222,266.95222,269.45119,0,11,11,11,1,12,2,1,clownfish     ,giraffe     ,html/resources/sequences_IDs/A/04_clownfish.jpg,html/resources/sequences_IDs/B/03_giraffe.jpg,4,3,2,1,1,1,4,3,0,48,,,,,,,,,,,,,,,,,,,,
,,,,,48,2020-07-04_16h07.31.945,retriever_ti,2020.1.3,Win32,60,Chrome,1920,1080,,,,,,,,,,,,,,,,,1,,,,,,,,,,,,,,,,,,,,,,,,,,,270.55169,13,left,1.00433,scarf         ,4,6,-1,0,0,270.568625,270.568625,273.06787,0,12,12,12,1,13,4,5,scarf         ,redfox      ,html/resources/sequences_IDs/A/06_scarf.jpg,html/resources/sequences_IDs/B/01_redfox.jpg,6,1,3,2,1,1,5,1,0,48,,,,,,,,,,,,,,,,,,,,
,,,,,48,2020-07-04_16h07.31.945,retriever_ti,2020.1.3,Win32,60,Chrome,1920,1080,,,,,,,,,,,,,,,,,1,,,,,,,,,,,,,,,,,,,,,,,,,,,274.16861,14,right,0.75109,dress         ,8,7,3,1,3,274.18525,274.18525,276.68446,0,13,13,13,1,14,5,8,redfox      ,dress         ,html/resources/sequences_IDs/B/01_redfox.jpg,html/resources/sequences_IDs/A/07_dress.jpg,1,7,1,1,3,2,1,6,0,48,,,,,,,,,,,,,,,,,,,,
,,,,,48,2020-07-04_16h07.31.945,retriever_ti,2020.1.3,Win32,60,Chrome,1920,1080,,,,,,,,,,,,,,,,,1,,,,,,,,,,,,,,,,,,,,,,,,,,,277.28607,15,left,1.012275,seaturtle     ,6,2,3,1,3,277.302765,277.302765,279.80114,0,14,14,14,1,15,6,3,seaturtle     ,slipper     ,html/resources/sequences_IDs/A/02_seaturtle.jpg,html/resources/sequences_IDs/B/08_slipper.jpg,2,8,2,1,3,2,2,7,0,48,,,,,,,,,,,,,,,,,,,,
,,,,,48,2020-07-04_16h07.31.945,retriever_ti,2020.1.3,Win32,60,Chrome,1920,1080,,,,,,,,,,,,,,,,,1,,,,,,,,,,,,,,,,,,,,,,,,,,,280.41804,16,left,2.320375,slipper     ,3,8,2,1,3,280.43519,280.43519,282.93451,0,15,15,15,1,16,3,1,slipper     ,giraffe     ,html/resources/sequences_IDs/B/08_slipper.jpg,html/resources/sequences_IDs/B/03_giraffe.jpg,8,3,3,2,1,1,7,3,0,48,,,,,,,,,,,,,,,,,,,,
,,,,,48,2020-07-04_16h07.31.945,retriever_ti,2020.1.3,Win32,60,Chrome,1920,1080,,,,,,,,,,,,,,,,,1,,,,,,,,,,,,,,,,,,,,,,,,,,,283.55163,17,right,0.88286,clownfish     ,2,4,-6,0,3,283.56848,283.56848,286.0679,0,16,16,16,1,17,8,2,dress         ,clownfish     ,html/resources/sequences_IDs/A/07_dress.jpg,html/resources/sequences_IDs/A/04_clownfish.jpg,7,4,3,2,2,1,6,4,0,48,,,,,,,,,,,,,,,,,,,,
,,,,,48,2020-07-04_16h07.31.945,retriever_ti,2020.1.3,Win32,60,Chrome,1920,1080,,,,,,,,,,,,,,,,,1,,,,,,,,,,,,,,,,,,,,,,,,,,,286.66989,18,right,0.764685,radio       ,7,10,-1,0,0,286.685465,286.685465,289.18442,0,17,17,17,1,18,8,7,dress         ,radio       ,html/resources/sequences_IDs/A/07_dress.jpg,html/resources/sequences_IDs/B/10_radio.jpg,7,10,3,2,4,2,6,8,0,48,,,,,,,,,,,,,,,,,,,,
,,,,,48,2020-07-04_16h07.31.945,retriever_ti,2020.1.3,Win32,60,Chrome,1920,1080,,,,,,,,,,,,,,,,,1,,,,,,,,,,,,,,,,,,,,,,,,,,,290.28478,19,right,0.821655,scarf         ,4,6,-1,0,0,290.302,290.302,292.80108,0,18,18,18,1,19,5,4,redfox      ,scarf         ,html/resources/sequences_IDs/B/01_redfox.jpg,html/resources/sequences_IDs/A/06_scarf.jpg,1,6,1,1,3,2,1,5,0,48,,,,,,,,,,,,,,,,,,,,
,,,,,48,2020-07-04_16h07.31.945,retriever_ti,2020.1.3,Win32,60,Chrome,1920,1080,,,,,,,,,,,,,,,,,1,,,,,,,,,,,,,,,,,,,,,,,,,,,293.901745,20,left,1.042235,dress         ,8,7,1,1,1,293.91849,293.91849,296.4177,0,19,19,19,1,20,8,7,dress         ,radio       ,html/resources/sequences_IDs/A/07_dress.jpg,html/resources/sequences_IDs/B/10_radio.jpg,7,10,3,2,4,2,6,8,0,48,,,,,,,,,,,,,,,,,,,,
,,,,,48,2020-07-04_16h07.31.945,retriever_ti,2020.1.3,Win32,60,Chrome,1920,1080,,,,,,,,,,,,,,,,,1,,,,,,,,,,,,,,,,,,,,,,,,,,,297.518515,21,left,2.247365,giraffe     ,1,3,-6,0,3,297.55226,297.55226,300.05096,0,20,20,20,1,21,1,7,giraffe     ,radio       ,html/resources/sequences_IDs/B/03_giraffe.jpg,html/resources/sequences_IDs/B/10_radio.jpg,3,10,1,1,4,2,3,8,0,48,,,,,,,,,,,,,,,,,,,,
,,,,,48,2020-07-04_16h07.31.945,retriever_ti,2020.1.3,Win32,60,Chrome,1920,1080,,,,,,,,,,,,,,,,,1,,,,,,,,,,,,,,,,,,,,,,,,,,,300.66982,22,right,1.333185,scarf         ,4,6,1,1,1,300.687145,300.687145,303.18431,0,21,21,21,1,22,3,4,slipper     ,scarf         ,html/resources/sequences_IDs/B/08_slipper.jpg,html/resources/sequences_IDs/A/06_scarf.jpg,8,6,3,2,3,2,7,5,0,48,,,,,,,,,,,,,,,,,,,,
,,,,,48,2020-07-04_16h07.31.945,retriever_ti,2020.1.3,Win32,60,Chrome,1920,1080,,,,,,,,,,,,,,,,,1,,,,,,,,,,,,,,,,,,,,,,,,,,,304.284575,23,right,1.63608,giraffe     ,1,3,-1,0,0,304.318545,304.318545,306.81761,0,22,22,22,1,23,2,1,clownfish     ,giraffe     ,html/resources/sequences_IDs/A/04_clownfish.jpg,html/resources/sequences_IDs/B/03_giraffe.jpg,4,3,2,1,1,1,4,3,0,48,,,,,,,,,,,,,,,,,,,,
,,,,,48,2020-07-04_16h07.31.945,retriever_ti,2020.1.3,Win32,60,Chrome,1920,1080,,,,,,,,,,,,,,,,,1,,,,,,,,,,,,,,,,,,,,,,,,,,,307.918255,24,left,0.983585,giraffe     ,1,3,-1,0,0,307.951735,307.951735,310.450815,0,23,23,23,1,24,1,2,giraffe     ,clownfish     ,html/resources/sequences_IDs/B/03_giraffe.jpg,html/resources/sequences_IDs/A/04_clownfish.jpg,3,4,1,1,2,1,3,4,0,48,,,,,,,,,,,,,,,,,,,,
,,,,,48,2020-07-04_16h07.31.945,retriever_ti,2020.1.3,Win32,60,Chrome,1920,1080,,,,,,,,,,,,,,,,,1,,,,,,,,,,,,,,,,,,,,,,,,,,,311.551535,25,right,0.934685,scarf         ,4,6,-1,0,1,311.56856,311.56856,314.06756,0,24,24,24,1,25,5,4,redfox      ,scarf         ,html/resources/sequences_IDs/B/01_redfox.jpg,html/resources/sequences_IDs/A/06_scarf.jpg,1,6,1,1,3,2,1,5,1,48,,,,,,,,,,,,,,,,,,,,
,,,,,48,2020-07-04_16h07.31.945,retriever_ti,2020.1.3,Win32,60,Chrome,1920,1080,,,,,,,,,,,,,,,,,1,,,,,,,,,,,,,,,,,,,,,,,,,,,315.168205,26,right,1.290335,clownfish     ,2,4,-1,0,0,315.201845,315.201845,317.701615,0,25,25,25,1,26,3,2,slipper     ,clownfish     ,html/resources/sequences_IDs/B/08_slipper.jpg,html/resources/sequences_IDs/A/04_clownfish.jpg,8,4,3,2,2,1,7,4,0,48,,,,,,,,,,,,,,,,,,,,
,,,,,48,2020-07-04_16h07.31.945,retriever_ti,2020.1.3,Win32,60,Chrome,1920,1080,,,,,,,,,,,,,,,,,1,,,,,,,,,,,,,,,,,,,,,,,,,,,318.801585,27,left,1.096965,clownfish     ,2,4,-1,0,0,318.819725,318.819725,321.31748,0,26,26,26,1,27,2,3,clownfish     ,slipper     ,html/resources/sequences_IDs/A/04_clownfish.jpg,html/resources/sequences_IDs/B/08_slipper.jpg,4,8,2,1,3,2,4,7,0,48,,,,,,,,,,,,,,,,,,,,
,,,,,48,2020-07-04_16h07.31.945,retriever_ti,2020.1.3,Win32,60,Chrome,1920,1080,,,,,,,,,,,,,,,,,1,,,,,,,,,,,,,,,,,,,,,,,,,,,322.417795,28,left,1.094085,redfox      ,5,1,4,1,3,322.451485,322.451485,324.95079,0,27,27,27,1,28,5,1,redfox      ,giraffe     ,html/resources/sequences_IDs/B/01_redfox.jpg,html/resources/sequences_IDs/B/03_giraffe.jpg,1,3,1,1,1,1,1,3,0,48,,,,,,,,,,,,,,,,,,,,
,,,,,48,2020-07-04_16h07.31.945,retriever_ti,2020.1.3,Win32,60,Chrome,1920,1080,,,,,,,,,,,,,,,,,1,,,,,,,,,,,,,,,,,,,,,,,,,,,325.568115,29,right,0.93156,radio       ,7,10,-1,0,1,325.601525,325.601525,328.10071,0,28,28,28,1,29,8,7,dress         ,radio       ,html/resources/sequences_IDs/A/07_dress.jpg,html/resources/sequences_IDs/B/10_radio.jpg,7,10,3,2,4,2,6,8,1,48,,,,,,,,,,,,,,,,,,,,
,,,,,48,2020-07-04_16h07.31.945,retriever_ti,2020.1.3,Win32,60,Chrome,1920,1080,,,,,,,,,,,,,,,,,1,,,,,,,,,,,,,,,,,,,,,,,,,,,329.20142,30,left,2.330235,clownfish     ,2,4,-3,0,3,329.21894,329.21894,331.717435,0,29,29,29,1,30,2,5,clownfish     ,redfox      ,html/resources/sequences_IDs/A/04_clownfish.jpg,html/resources/sequences_IDs/B/01_redfox.jpg,4,1,2,1,1,1,4,1,0,48,,,,,,,,,,,,,,,,,,,,
,,,,,48,2020-07-04_16h07.31.945,retriever_ti,2020.1.3,Win32,60,Chrome,1920,1080,,,,,,,,,,,,,,,,,1,,,,,,,,,,,,,,,,,,,,,,,,,,,332.317865,31,right,1.36804,scarf         ,4,6,-4,0,3,332.351435,332.351435,334.85077,0,30,30,30,1,31,8,4,dress         ,scarf         ,html/resources/sequences_IDs/A/07_dress.jpg,html/resources/sequences_IDs/A/06_scarf.jpg,7,6,3,2,3,2,6,5,0,48,,,,,,,,,,,,,,,,,,,,
,,,,,48,2020-07-04_16h07.31.945,retriever_ti,2020.1.3,Win32,60,Chrome,1920,1080,,,,,,,,,,,,,,,,,1,,,,,,,,,,,,,,,,,,,,,,,,,,,335.46819,32,right,1.03612,scarf         ,4,6,-3,0,3,335.502025,335.502025,338.0007,0,31,31,31,1,32,7,4,radio       ,scarf         ,html/resources/sequences_IDs/B/10_radio.jpg,html/resources/sequences_IDs/A/06_scarf.jpg,10,6,4,2,3,2,8,5,0,48,,,,,,,,,,,,,,,,,,,,
,,,,,48,2020-07-04_16h07.31.945,retriever_ti,2020.1.3,Win32,60,Chrome,1920,1080,,,,,,,,,,,,,,,,,1,,,,,,,,,,,,,,,,,,,,,,,,,,,338.61799,33,left,1.275205,giraffe     ,1,3,-2,0,3,338.65164,338.65164,341.15067,0,32,32,32,1,33,1,3,giraffe     ,slipper     ,html/resources/sequences_IDs/B/03_giraffe.jpg,html/resources/sequences_IDs/B/08_slipper.jpg,3,8,1,1,3,2,3,7,0,48,,,,,,,,,,,,,,,,,,,,
,,,,,48,2020-07-04_16h07.31.945,retriever_ti,2020.1.3,Win32,60,Chrome,1920,1080,,,,,,,,,,,,,,,,,1,,,,,,,,,,,,,,,,,,,,,,,,,,,341.767725,34,right,1.097925,dress         ,8,7,7,1,3,341.785465,341.785465,344.28409,0,33,33,33,1,34,1,8,giraffe     ,dress         ,html/resources/sequences_IDs/B/03_giraffe.jpg,html/resources/sequences_IDs/A/07_dress.jpg,3,7,1,1,3,2,3,6,0,48,,,,,,,,,,,,,,,,,,,,
,,,,,48,2020-07-04_16h07.31.945,retriever_ti,2020.1.3,Win32,60,Chrome,1920,1080,,,,,,,,,,,,,,,,,1,,,,,,,,,,,,,,,,,,,,,,,,,,,344.90161,35,left,0.925825,seaturtle     ,6,2,2,1,3,344.918805,344.918805,347.417215,0,34,34,34,1,35,6,4,seaturtle     ,scarf         ,html/resources/sequences_IDs/A/02_seaturtle.jpg,html/resources/sequences_IDs/A/06_scarf.jpg,2,6,2,1,3,2,2,5,0,48,,,,,,,,,,,,,,,,,,,,
,,,,,48,2020-07-04_16h07.31.945,retriever_ti,2020.1.3,Win32,60,Chrome,1920,1080,,,,,,,,,,,,,,,,,1,,,,,,,,,,,,,,,,,,,,,,,,,,,348.01761,36,left,1.335405,slipper     ,3,8,-2,0,3,348.034805,348.034805,350.53388,0,35,35,35,1,36,3,5,slipper     ,redfox      ,html/resources/sequences_IDs/B/08_slipper.jpg,html/resources/sequences_IDs/B/01_redfox.jpg,8,1,3,2,1,1,7,1,0,48,,,,,,,,,,,,,,,,,,,,
,,,,,48,2020-07-04_16h07.31.945,retriever_ti,2020.1.3,Win32,60,Chrome,1920,1080,,,,,,,,,,,,,,,,,1,,,,,,,,,,,,,,,,,,,,,,,,,,,351.134765,37,left,0.828435,seaturtle     ,6,2,1,1,1,351.16834,351.16834,353.667285,0,36,36,36,1,37,6,5,seaturtle     ,redfox      ,html/resources/sequences_IDs/A/02_seaturtle.jpg,html/resources/sequences_IDs/B/01_redfox.jpg,2,1,2,1,1,1,2,1,0,48,,,,,,,,,,,,,,,,,,,,
,,,,,48,2020-07-04_16h07.31.945,retriever_ti,2020.1.3,Win32,60,Chrome,1920,1080,,,,,,,,,,,,,,,,,1,,,,,,,,,,,,,,,,,,,,,,,,,,,354.76788,38,left,0.950235,scarf         ,4,6,1,1,0,354.80168,354.80168,357.30063,0,37,37,37,1,38,4,3,scarf         ,slipper     ,html/resources/sequences_IDs/A/06_scarf.jpg,html/resources/sequences_IDs/B/08_slipper.jpg,6,8,3,2,3,2,5,7,1,48,,,,,,,,,,,,,,,,,,,,
,,,,,48,2020-07-04_16h07.31.945,retriever_ti,2020.1.3,Win32,60,Chrome,1920,1080,,,,,,,,,,,,,,,,,1,,,,,,,,,,,,,,,,,,,,,,,,,,,358.40096,39,right,0.946955,clownfish     ,2,4,-5,0,3,358.418675,358.418675,360.91717,0,38,38,38,1,39,7,2,radio       ,clownfish     ,html/resources/sequences_IDs/B/10_radio.jpg,html/resources/sequences_IDs/A/04_clownfish.jpg,10,4,4,2,2,1,8,4,0,48,,,,,,,,,,,,,,,,,,,,
,,,,,48,2020-07-04_16h07.31.945,retriever_ti,2020.1.3,Win32,60,Chrome,1920,1080,,,,,,,,,,,,,,,,,1,,,,,,,,,,,,,,,,,,,,,,,,,,,361.517965,40,left,0.918195,scarf         ,4,6,-1,0,0,361.551685,361.551685,364.050485,0,39,39,39,1,40,4,5,scarf         ,redfox      ,html/resources/sequences_IDs/A/06_scarf.jpg,html/resources/sequences_IDs/B/01_redfox.jpg,6,1,3,2,1,1,5,1,0,48,,,,,,,,,,,,,,,,,,,,
,,,,,48,2020-07-04_16h07.31.945,retriever_ti,2020.1.3,Win32,60,Chrome,1920,1080,,,,,,,,,,,,,,,,,1,,,,,,,,,,,,,,,,,,,,,,,,,,,365.151115,41,right,0.933035,redfox      ,5,1,-2,0,3,365.184625,365.184625,367.68391,0,40,40,40,1,41,7,5,radio       ,redfox      ,html/resources/sequences_IDs/B/10_radio.jpg,html/resources/sequences_IDs/B/01_redfox.jpg,10,1,4,2,1,1,8,1,0,48,,,,,,,,,,,,,,,,,,,,
,,,,,48,2020-07-04_16h07.31.945,retriever_ti,2020.1.3,Win32,60,Chrome,1920,1080,,,,,,,,,,,,,,,,,1,,,,,,,,,,,,,,,,,,,,,,,,,,,368.30077,42,right,0.760005,clownfish     ,2,4,1,1,0,368.318,368.318,370.817085,0,41,41,41,1,42,1,2,giraffe     ,clownfish     ,html/resources/sequences_IDs/B/03_giraffe.jpg,html/resources/sequences_IDs/A/04_clownfish.jpg,3,4,1,1,2,1,3,4,1,48,,,,,,,,,,,,,,,,,,,,
,,,,,48,2020-07-04_16h07.31.945,retriever_ti,2020.1.3,Win32,60,Chrome,1920,1080,,,,,,,,,,,,,,,,,1,,,,,,,,,,,,,,,,,,,,,,,,,,,371.918005,43,left,0.34702,scarf         ,4,6,-3,0,3,371.951355,371.951355,374.450395,0,42,42,42,1,43,4,7,scarf         ,radio       ,html/resources/sequences_IDs/A/06_scarf.jpg,html/resources/sequences_IDs/B/10_radio.jpg,6,10,3,2,4,2,5,8,0,48,,,,,,,,,,,,,,,,,,,,
,,,,,48,2020-07-04_16h07.31.945,retriever_ti,2020.1.3,Win32,60,Chrome,1920,1080,,,,,,,,,,,,,,,,,1,,,,,,,,,,,,,,,,,,,,,,,,,,,375.06787,44,left,0.95556,seaturtle     ,6,2,-1,0,0,375.101145,375.101145,377.600375,0,43,43,43,1,44,6,7,seaturtle     ,radio       ,html/resources/sequences_IDs/A/02_seaturtle.jpg,html/resources/sequences_IDs/B/10_radio.jpg,2,10,2,1,4,2,2,8,0,48,,,,,,,,,,,,,,,,,,,,
,,,,,48,2020-07-04_16h07.31.945,retriever_ti,2020.1.3,Win32,60,Chrome,1920,1080,,,,,,,,,,,,,,,,,1,,,,,,,,,,,,,,,,,,,,,,,,,,,378.70102,45,right,2.27303,dress         ,8,7,1,1,1,378.717875,378.717875,381.217005,0,44,44,44,1,45,7,8,radio       ,dress         ,html/resources/sequences_IDs/B/10_radio.jpg,html/resources/sequences_IDs/A/07_dress.jpg,10,7,4,2,3,2,8,6,0,48,,,,,,,,,,,,,,,,,,,,
,,,,,48,2020-07-04_16h07.31.945,retriever_ti,2020.1.3,Win32,60,Chrome,1920,1080,,,,,,,,,,,,,,,,,1,,,,,,,,,,,,,,,,,,,,,,,,,,,382.317415,46,right,0.853935,giraffe     ,1,3,-6,0,3,382.33445,382.33445,384.83367,0,45,45,45,1,46,7,1,radio       ,giraffe     ,html/resources/sequences_IDs/B/10_radio.jpg,html/resources/sequences_IDs/B/03_giraffe.jpg,10,3,4,2,1,1,8,3,0,48,,,,,,,,,,,,,,,,,,,,
,,,,,48,2020-07-04_16h07.31.945,retriever_ti,2020.1.3,Win32,60,Chrome,1920,1080,,,,,,,,,,,,,,,,,1,,,,,,,,,,,,,,,,,,,,,,,,,,,385.45104,47,left,0.79126,seaturtle     ,6,2,5,1,3,385.4845,385.4845,387.983725,0,46,46,46,1,47,6,1,seaturtle     ,giraffe     ,html/resources/sequences_IDs/A/02_seaturtle.jpg,html/resources/sequences_IDs/B/03_giraffe.jpg,2,3,2,1,1,1,2,3,0,48,,,,,,,,,,,,,,,,,,,,
,,,,,48,2020-07-04_16h07.31.945,retriever_ti,2020.1.3,Win32,60,Chrome,1920,1080,,,,,,,,,,,,,,,,,1,,,,,,,,,,,,,,,,,,,,,,,,,,,388.601065,48,right,0.977125,clownfish     ,2,4,1,1,1,388.618435,388.618435,391.11705,0,47,47,47,1,48,1,2,giraffe     ,clownfish     ,html/resources/sequences_IDs/B/03_giraffe.jpg,html/resources/sequences_IDs/A/04_clownfish.jpg,3,4,1,1,2,1,3,4,0,48,,,,,,,,,,,,,,,,,,,,
,,,,,48,2020-07-04_16h07.31.945,retriever_ti,2020.1.3,Win32,60,Chrome,1920,1080,,,,,,,,,,,,,,,,,1,,,,,,,,,,,,,,,,,,,,,,,,,,,392.217365,49,left,0.91295,clownfish     ,2,4,-6,0,3,392.25116,392.25116,394.75024,0,48,48,48,1,49,2,8,clownfish     ,dress         ,html/resources/sequences_IDs/A/04_clownfish.jpg,html/resources/sequences_IDs/A/07_dress.jpg,4,7,2,1,3,2,4,6,0,48,,,,,,,,,,,,,,,,,,,,
,,,,,48,2020-07-04_16h07.31.945,retriever_ti,2020.1.3,Win32,60,Chrome,1920,1080,,,,,,,,,,,,,,,,,1,,,,,,,,,,,,,,,,,,,,,,,,,,,395.367785,50,right,1.22114,seaturtle     ,6,2,-2,0,3,395.400975,395.400975,397.900175,0,49,49,49,1,50,8,6,dress         ,seaturtle     ,html/resources/sequences_IDs/A/07_dress.jpg,html/resources/sequences_IDs/A/02_seaturtle.jpg,7,2,3,2,2,1,6,2,0,48,,,,,,,,,,,,,,,,,,,,
,,,,,48,2020-07-04_16h07.31.945,retriever_ti,2020.1.3,Win32,60,Chrome,1920,1080,,,,,,,,,,,,,,,,,1,,,,,,,,,,,,,,,,,,,,,,,,,,,398.5174,51,left,0.793505,clownfish     ,2,4,-1,0,0,398.55149,398.55149,401.050195,0,50,50,50,1,51,2,3,clownfish     ,slipper     ,html/resources/sequences_IDs/A/04_clownfish.jpg,html/resources/sequences_IDs/B/08_slipper.jpg,4,8,2,1,3,2,4,7,0,48,,,,,,,,,,,,,,,,,,,,
,,,,,48,2020-07-04_16h07.31.945,retriever_ti,2020.1.3,Win32,60,Chrome,1920,1080,,,,,,,,,,,,,,,,,1,,,,,,,,,,,,,,,,,,,,,,,,,,,402.150505,52,left,1.097,seaturtle     ,6,2,4,1,3,402.168855,402.168855,404.66688,0,51,51,51,1,52,6,2,seaturtle     ,clownfish     ,html/resources/sequences_IDs/A/02_seaturtle.jpg,html/resources/sequences_IDs/A/04_clownfish.jpg,2,4,2,1,2,1,2,4,0,48,,,,,,,,,,,,,,,,,,,,
,,,,,48,2020-07-04_16h07.31.945,retriever_ti,2020.1.3,Win32,60,Chrome,1920,1080,,,,,,,,,,,,,,,,,1,,,,,,,,,,,,,,,,,,,,,,,,,,,405.284135,53,right,1.977615,scarf         ,4,6,-1,0,0,405.3013,405.3013,407.800235,0,52,52,52,1,53,5,4,redfox      ,scarf         ,html/resources/sequences_IDs/B/01_redfox.jpg,html/resources/sequences_IDs/A/06_scarf.jpg,1,6,1,1,3,2,1,5,0,48,,,,,,,,,,,,,,,,,,,,
,,,,,48,2020-07-04_16h07.31.945,retriever_ti,2020.1.3,Win32,60,Chrome,1920,1080,,,,,,,,,,,,,,,,,1,,,,,,,,,,,,,,,,,,,,,,,,,,,408.900815,54,left,1.098745,dress         ,8,7,7,1,3,408.93471,408.93471,411.43344,0,53,53,53,1,54,8,1,dress         ,giraffe     ,html/resources/sequences_IDs/A/07_dress.jpg,html/resources/sequences_IDs/B/03_giraffe.jpg,7,3,3,2,1,1,6,3,0,48,,,,,,,,,,,,,,,,,,,,
,,,,,48,2020-07-04_16h07.31.945,retriever_ti,2020.1.3,Win32,60,Chrome,1920,1080,,,,,,,,,,,,,,,,,1,,,,,,,,,,,,,,,,,,,,,,,,,,,412.050515,55,right,0.841315,scarf         ,4,6,3,1,3,412.084685,412.084685,414.5834,0,54,54,54,1,55,1,4,giraffe     ,scarf         ,html/resources/sequences_IDs/B/03_giraffe.jpg,html/resources/sequences_IDs/A/06_scarf.jpg,3,6,1,1,3,2,3,5,0,48,,,,,,,,,,,,,,,,,,,,
,,,,,48,2020-07-04_16h07.31.945,retriever_ti,2020.1.3,Win32,60,Chrome,1920,1080,,,,,,,,,,,,,,,,,1,,,,,,,,,,,,,,,,,,,,,,,,,,,415.200795,56,left,1.102635,radio       ,7,10,4,1,3,415.218175,415.218175,417.71678,0,55,55,55,1,56,7,3,radio       ,slipper     ,html/resources/sequences_IDs/B/10_radio.jpg,html/resources/sequences_IDs/B/08_slipper.jpg,10,8,4,2,3,2,8,7,0,48,,,,,,,,,,,,,,,,,,,,
,,,,,48,2020-07-04_16h07.31.945,retriever_ti,2020.1.3,Win32,60,Chrome,1920,1080,,,,,,,,,,,,,,,,,1,,,,,,,,,,,,,,,,,,,,,,,,,,,418.33376,57,left,1.19667,scarf         ,4,6,1,1,1,418.35146,418.35146,420.850055,0,56,56,56,1,57,4,3,scarf         ,slipper     ,html/resources/sequences_IDs/A/06_scarf.jpg,html/resources/sequences_IDs/B/08_slipper.jpg,6,8,3,2,3,2,5,7,0,48,,,,,,,,,,,,,,,,,,,,
,,,,,48,2020-07-04_16h07.31.945,retriever_ti,2020.1.3,Win32,60,Chrome,1920,1080,,,,,,,,,,,,,,,,,1,,,,,,,,,,,,,,,,,,,,,,,,,,,421.9508,58,left,0.79312,scarf         ,4,6,3,1,3,421.96816,421.96816,424.466755,0,57,57,57,1,58,4,1,scarf         ,giraffe     ,html/resources/sequences_IDs/A/06_scarf.jpg,html/resources/sequences_IDs/B/03_giraffe.jpg,6,3,3,2,1,1,5,3,0,48,,,,,,,,,,,,,,,,,,,,
,,,,,48,2020-07-04_16h07.31.945,retriever_ti,2020.1.3,Win32,60,Chrome,1920,1080,,,,,,,,,,,,,,,,,1,,,,,,,,,,,,,,,,,,,,,,,,,,,425.084015,59,right,2.35211,radio       ,7,10,2,1,3,425.101365,425.101365,427.6,0,58,58,58,1,59,5,7,redfox      ,radio       ,html/resources/sequences_IDs/B/01_redfox.jpg,html/resources/sequences_IDs/B/10_radio.jpg,1,10,1,1,4,2,1,8,0,48,,,,,,,,,,,,,,,,,,,,
,,,,,48,2020-07-04_16h07.31.945,retriever_ti,2020.1.3,Win32,60,Chrome,1920,1080,,,,,,,,,,,,,,,,,1,,,,,,,,,,,,,,,,,,,,,,,,,,,428.200615,60,right,1.78661,scarf         ,4,6,2,1,3,428.218255,428.218255,430.71665,0,59,59,59,1,60,2,4,clownfish     ,scarf         ,html/resources/sequences_IDs/A/04_clownfish.jpg,html/resources/sequences_IDs/A/06_scarf.jpg,4,6,2,1,3,2,4,5,0,48,,,,,,,,,,,,,,,,,,,,
,,,,,48,2020-07-04_16h07.31.945,retriever_ti,2020.1.3,Win32,60,Chrome,1920,1080,,,,,,,,,,,,,,,,,1,,,,,,,,,,,,,,,,,,,,,,,,,,,431.333965,61,right,1.346055,seaturtle     ,6,2,1,1,0,431.36763,431.36763,433.86669,0,60,60,60,1,61,5,6,redfox      ,seaturtle     ,html/resources/sequences_IDs/B/01_redfox.jpg,html/resources/sequences_IDs/A/02_seaturtle.jpg,1,2,1,1,2,1,1,2,1,48,,,,,,,,,,,,,,,,,,,,
,,,,,48,2020-07-04_16h07.31.945,retriever_ti,2020.1.3,Win32,60,Chrome,1920,1080,,,,,,,,,,,,,,,,,1,,,,,,,,,,,,,,,,,,,,,,,,,,,434.967465,62,left,0.47315,clownfish     ,2,4,-4,0,3,435.0008,435.0008,437.49997,0,61,61,61,1,62,2,6,clownfish     ,seaturtle     ,html/resources/sequences_IDs/A/04_clownfish.jpg,html/resources/sequences_IDs/A/02_seaturtle.jpg,4,2,2,1,2,1,4,2,0,48,,,,,,,,,,,,,,,,,,,,
,,,,,48,2020-07-04_16h07.31.945,retriever_ti,2020.1.3,Win32,60,Chrome,1920,1080,,,,,,,,,,,,,,,,,1,,,,,,,,,,,,,,,,,,,,,,,,,,,438.11699,63,right,0.58283,seaturtle     ,6,2,5,1,3,438.15078,438.15078,440.649925,0,62,62,62,1,63,1,6,giraffe     ,seaturtle     ,html/resources/sequences_IDs/B/03_giraffe.jpg,html/resources/sequences_IDs/A/02_seaturtle.jpg,3,2,1,1,2,1,3,2,0,48,,,,,,,,,,,,,,,,,,,,
,,,,,48,2020-07-04_16h07.31.945,retriever_ti,2020.1.3,Win32,60,Chrome,1920,1080,,,,,,,,,,,,,,,,,1,,,,,,,,,,,,,,,,,,,,,,,,,,,441.267425,64,left,0.83976,dress         ,8,7,5,1,3,441.28411,441.28411,443.78322,0,63,63,63,1,64,8,3,dress         ,slipper     ,html/resources/sequences_IDs/A/07_dress.jpg,html/resources/sequences_IDs/B/08_slipper.jpg,7,8,3,2,3,2,6,7,0,48,,,,,,,,,,,,,,,,,,,,
,,,,,48,2020-07-04_16h07.31.945,retriever_ti,2020.1.3,Win32,60,Chrome,1920,1080,,,,,,,,,,,,,,,,,1,,,,,,,,,,,,,,,,,,,,,,,,,,,444.400215,65,right,0.553415,clownfish     ,2,4,-1,0,0,444.4343,444.4343,446.933175,0,64,64,64,1,65,3,2,slipper     ,clownfish     ,html/resources/sequences_IDs/B/08_slipper.jpg,html/resources/sequences_IDs/A/04_clownfish.jpg,8,4,3,2,2,1,7,4,0,48,,,,,,,,,,,,,,,,,,,,
,,,,,48,2020-07-04_16h07.31.945,retriever_ti,2020.1.3,Win32,60,Chrome,1920,1080,,,,,,,,,,,,,,,,,1,,,,,,,,,,,,,,,,,,,,,,,,,,,448.034005,66,right,2.257235,dress         ,8,7,4,1,3,448.067265,448.067265,450.5666,0,65,65,65,1,66,4,8,scarf         ,dress         ,html/resources/sequences_IDs/A/06_scarf.jpg,html/resources/sequences_IDs/A/07_dress.jpg,6,7,3,2,3,2,5,6,0,48,,,,,,,,,,,,,,,,,,,,
,,,,,48,2020-07-04_16h07.31.945,retriever_ti,2020.1.3,Win32,60,Chrome,1920,1080,,,,,,,,,,,,,,,,,1,,,,,,,,,,,,,,,,,,,,,,,,,,,451.183895,67,right,0.834745,radio       ,7,10,4,1,3,451.20134,451.20134,453.69986,0,66,66,66,1,67,3,7,slipper     ,radio       ,html/resources/sequences_IDs/B/08_slipper.jpg,html/resources/sequences_IDs/B/10_radio.jpg,8,10,3,2,4,2,7,8,0,48,,,,,,,,,,,,,,,,,,,,
,,,,,48,2020-07-04_16h07.31.945,retriever_ti,2020.1.3,Win32,60,Chrome,1920,1080,,,,,,,,,,,,,,,,,1,,,,,,,,,,,,,,,,,,,,,,,,,,,454.316745,68,left,1.06163,clownfish     ,2,4,-5,0,3,454.333915,454.333915,456.83309,0,67,67,67,1,68,2,7,clownfish     ,radio       ,html/resources/sequences_IDs/A/04_clownfish.jpg,html/resources/sequences_IDs/B/10_radio.jpg,4,10,2,1,4,2,4,8,0,48,,,,,,,,,,,,,,,,,,,,
,,,,,48,2020-07-04_16h07.31.945,retriever_ti,2020.1.3,Win32,60,Chrome,1920,1080,,,,,,,,,,,,,,,,,1,,,,,,,,,,,,,,,,,,,,,,,,,,,457.450505,69,left,1.060545,radio       ,7,10,-1,0,0,457.467745,457.467745,459.96639,0,68,68,68,1,69,7,8,radio       ,dress         ,html/resources/sequences_IDs/B/10_radio.jpg,html/resources/sequences_IDs/A/07_dress.jpg,10,7,4,2,3,2,8,6,0,48,,,,,,,,,,,,,,,,,,,,
,,,,,48,2020-07-04_16h07.31.945,retriever_ti,2020.1.3,Win32,60,Chrome,1920,1080,,,,,,,,,,,,,,,,,1,,,,,,,,,,,,,,,,,,,,,,,,,,,461.06703,70,right,1.209625,seaturtle     ,6,2,3,1,3,461.10111,461.10111,463.599735,0,69,69,69,1,70,3,6,slipper     ,seaturtle     ,html/resources/sequences_IDs/B/08_slipper.jpg,html/resources/sequences_IDs/A/02_seaturtle.jpg,8,2,3,2,2,1,7,2,0,48,,,,,,,,,,,,,,,,,,,,
,,,,,48,2020-07-04_16h07.31.945,retriever_ti,2020.1.3,Win32,60,Chrome,1920,1080,,,,,,,,,,,,,,,,,1,,,,,,,,,,,,,,,,,,,,,,,,,,,464.21682,71,right,0.94604,seaturtle     ,6,2,-1,0,0,464.2506,464.2506,466.74975,0,70,70,70,1,71,7,6,radio       ,seaturtle     ,html/resources/sequences_IDs/B/10_radio.jpg,html/resources/sequences_IDs/A/02_seaturtle.jpg,10,2,4,2,2,1,8,2,0,48,,,,,,,,,,,,,,,,,,,,
,,,,,48,2020-07-04_16h07.31.945,retriever_ti,2020.1.3,Win32,60,Chrome,1920,1080,,,,,,,,,,,,,,,,,1,,,,,,,,,,,,,,,,,,,,,,,,,,,467.85042,72,left,0.143395,seaturtle     ,6,2,-1,0,0,467.884585,467.884585,470.383015,0,71,71,71,1,72,6,7,seaturtle     ,radio       ,html/resources/sequences_IDs/A/02_seaturtle.jpg,html/resources/sequences_IDs/B/10_radio.jpg,2,10,2,1,4,2,2,8,0,48,,,,,,,,,,,,,,,,,,,,
,,,,,48,2020-07-04_16h07.31.945,retriever_ti,2020.1.3,Win32,60,Chrome,1920,1080,,,,,,,,,,,,,,,,,1,,,,,,,,,,,,,,,,,,,,,,,,,,,471.48374,73,left,1.475205,scarf         ,4,6,2,1,3,471.51784,471.51784,474.01647,0,72,72,72,1,73,4,2,scarf         ,clownfish     ,html/resources/sequences_IDs/A/06_scarf.jpg,html/resources/sequences_IDs/A/04_clownfish.jpg,6,4,3,2,2,1,5,4,0,48,,,,,,,,,,,,,,,,,,,,
,,,,,48,2020-07-04_16h07.31.945,retriever_ti,2020.1.3,Win32,60,Chrome,1920,1080,,,,,,,,,,,,,,,,,1,,,,,,,,,,,,,,,,,,,,,,,,,,,474.633955,74,left,2.26584,radio       ,7,10,1,1,1,474.65043,474.65043,477.14963,0,73,73,73,1,74,7,6,radio       ,seaturtle     ,html/resources/sequences_IDs/B/10_radio.jpg,html/resources/sequences_IDs/A/02_seaturtle.jpg,10,2,4,2,2,1,8,2,0,48,,,,,,,,,,,,,,,,,,,,
,,,,,48,2020-07-04_16h07.31.945,retriever_ti,2020.1.3,Win32,60,Chrome,1920,1080,,,,,,,,,,,,,,,,,1,,,,,,,,,,,,,,,,,,,,,,,,,,,478.250005,75,right,1.469545,seaturtle     ,6,2,1,1,1,478.267805,478.267805,480.76629,0,74,74,74,1,75,5,6,redfox      ,seaturtle     ,html/resources/sequences_IDs/B/01_redfox.jpg,html/resources/sequences_IDs/A/02_seaturtle.jpg,1,2,1,1,2,1,1,2,0,48,,,,,,,,,,,,,,,,,,,,
,,,,,48,2020-07-04_16h07.31.945,retriever_ti,2020.1.3,Win32,60,Chrome,1920,1080,,,,,,,,,,,,,,,,,1,,,,,,,,,,,,,,,,,,,,,,,,,,,481.867105,76,left,1.182115,seaturtle     ,6,2,1,1,1,481.9004,481.9004,484.399705,0,75,75,75,1,76,6,5,seaturtle     ,redfox      ,html/resources/sequences_IDs/A/02_seaturtle.jpg,html/resources/sequences_IDs/B/01_redfox.jpg,2,1,2,1,1,1,2,1,0,48,,,,,,,,,,,,,,,,,,,,
,,,,,48,2020-07-04_16h07.31.945,retriever_ti,2020.1.3,Win32,60,Chrome,1920,1080,,,,,,,,,,,,,,,,,1,,,,,,,,,,,,,,,,,,,,,,,,,,,485.500265,77,left,0.846465,clownfish     ,2,4,-1,0,1,485.51733,485.51733,488.016275,0,76,76,76,1,77,2,3,clownfish     ,slipper     ,html/resources/sequences_IDs/A/04_clownfish.jpg,html/resources/sequences_IDs/B/08_slipper.jpg,4,8,2,1,3,2,4,7,1,48,,,,,,,,,,,,,,,,,,,,
,,,,,48,2020-07-04_16h07.31.945,retriever_ti,2020.1.3,Win32,60,Chrome,1920,1080,,,,,,,,,,,,,,,,,,,,,,,,,,,,,,,,,,,,,0,1.6454,,,,,,,,,,,,,,,,,,,,,,,,,,,,,,,,,,,,,,,,,0,0,0,0,1,,,,,,,,,,,,,,,
,,,,,48,2020-07-04_16h07.31.945,retriever_ti,2020.1.3,Win32,60,Chrome,1920,1080,,,,,,,,,,,,,,,,,2,,,,,,,,,,,,,,,,,,,,,,,,,,,498.09703,78,left,1.608605,seaturtle     ,6,2,-2,0,3,498.10136,498.10136,500.59949,0,0,0,0,1,78,6,8,seaturtle     ,dress         ,html/resources/sequences_IDs/A/02_seaturtle.jpg,html/resources/sequences_IDs/A/07_dress.jpg,2,7,2,1,3,2,2,6,0,48,,,,,,,,,,,,,,,,,,,,
,,,,,48,2020-07-04_16h07.31.945,retriever_ti,2020.1.3,Win32,60,Chrome,1920,1080,,,,,,,,,,,,,,,,,2,,,,,,,,,,,,,,,,,,,,,,,,,,,501.216895,79,right,2.16425,clownfish     ,2,4,-3,0,3,501.2502,501.2502,503.74985,0,1,1,1,1,79,5,2,redfox      ,clownfish     ,html/resources/sequences_IDs/B/01_redfox.jpg,html/resources/sequences_IDs/A/04_clownfish.jpg,1,4,1,1,2,1,1,4,0,48,,,,,,,,,,,,,,,,,,,,
,,,,,48,2020-07-04_16h07.31.945,retriever_ti,2020.1.3,Win32,60,Chrome,1920,1080,,,,,,,,,,,,,,,,,2,,,,,,,,,,,,,,,,,,,,,,,,,,,504.366885,80,left,1.044785,radio       ,7,10,-1,0,0,504.3837,504.3837,506.8828,0,2,2,2,1,80,7,8,radio       ,dress         ,html/resources/sequences_IDs/B/10_radio.jpg,html/resources/sequences_IDs/A/07_dress.jpg,10,7,4,2,3,2,8,6,0,48,,,,,,,,,,,,,,,,,,,,
,,,,,48,2020-07-04_16h07.31.945,retriever_ti,2020.1.3,Win32,60,Chrome,1920,1080,,,,,,,,,,,,,,,,,2,,,,,,,,,,,,,,,,,,,,,,,,,,,507.98373,81,left,2.375195,giraffe     ,1,3,-3,0,3,508.000435,508.000435,510.499665,0,3,3,3,1,81,1,4,giraffe     ,scarf         ,html/resources/sequences_IDs/B/03_giraffe.jpg,html/resources/sequences_IDs/A/06_scarf.jpg,3,6,1,1,3,2,3,5,0,48,,,,,,,,,,,,,,,,,,,,
,,,,,48,2020-07-04_16h07.31.945,retriever_ti,2020.1.3,Win32,60,Chrome,1920,1080,,,,,,,,,,,,,,,,,2,,,,,,,,,,,,,,,,,,,,,,,,,,,511.11676,82,right,1.496935,redfox      ,5,1,-3,0,3,511.15237,511.15237,513.649445,0,4,4,4,1,82,8,5,dress         ,redfox      ,html/resources/sequences_IDs/A/07_dress.jpg,html/resources/sequences_IDs/B/01_redfox.jpg,7,1,3,2,1,1,6,1,0,48,,,,,,,,,,,,,,,,,,,,
,,,,,48,2020-07-04_16h07.31.945,retriever_ti,2020.1.3,Win32,60,Chrome,1920,1080,,,,,,,,,,,,,,,,,2,,,,,,,,,,,,,,,,,,,,,,,,,,,514.266715,83,right,0.917535,seaturtle     ,6,2,1,1,1,514.283645,514.283645,516.78288,0,5,5,5,1,83,5,6,redfox      ,seaturtle     ,html/resources/sequences_IDs/B/01_redfox.jpg,html/resources/sequences_IDs/A/02_seaturtle.jpg,1,2,1,1,2,1,1,2,0,48,,,,,,,,,,,,,,,,,,,,
,,,,,48,2020-07-04_16h07.31.945,retriever_ti,2020.1.3,Win32,60,Chrome,1920,1080,,,,,,,,,,,,,,,,,2,,,,,,,,,,,,,,,,,,,,,,,,,,,517.88342,84,right,1.828825,giraffe     ,1,3,-7,0,3,517.91702,517.91702,520.41603,0,6,6,6,1,84,8,1,dress         ,giraffe     ,html/resources/sequences_IDs/A/07_dress.jpg,html/resources/sequences_IDs/B/03_giraffe.jpg,7,3,3,2,1,1,6,3,0,48,,,,,,,,,,,,,,,,,,,,
,,,,,48,2020-07-04_16h07.31.945,retriever_ti,2020.1.3,Win32,60,Chrome,1920,1080,,,,,,,,,,,,,,,,,2,,,,,,,,,,,,,,,,,,,,,,,,,,,521.03379,85,right,0.768515,seaturtle     ,6,2,5,1,3,521.06761,521.06761,523.56601,0,7,7,7,1,85,1,6,giraffe     ,seaturtle     ,html/resources/sequences_IDs/B/03_giraffe.jpg,html/resources/sequences_IDs/A/02_seaturtle.jpg,3,2,1,1,2,1,3,2,0,48,,,,,,,,,,,,,,,,,,,,
,,,,,48,2020-07-04_16h07.31.945,retriever_ti,2020.1.3,Win32,60,Chrome,1920,1080,,,,,,,,,,,,,,,,,2,,,,,,,,,,,,,,,,,,,,,,,,,,,524.182965,86,right,0.826785,radio       ,7,10,-1,0,0,524.217005,524.217005,526.716035,0,8,8,8,1,86,8,7,dress         ,radio       ,html/resources/sequences_IDs/A/07_dress.jpg,html/resources/sequences_IDs/B/10_radio.jpg,7,10,3,2,4,2,6,8,0,48,,,,,,,,,,,,,,,,,,,,
,,,,,48,2020-07-04_16h07.31.945,retriever_ti,2020.1.3,Win32,60,Chrome,1920,1080,,,,,,,,,,,,,,,,,2,,,,,,,,,,,,,,,,,,,,,,,,,,,527.81659,87,right,0.92958,scarf         ,4,6,1,1,0,527.850665,527.850665,530.34933,0,9,9,9,1,87,3,4,slipper     ,scarf         ,html/resources/sequences_IDs/B/08_slipper.jpg,html/resources/sequences_IDs/A/06_scarf.jpg,8,6,3,2,3,2,7,5,1,48,,,,,,,,,,,,,,,,,,,,
,,,,,48,2020-07-04_16h07.31.945,retriever_ti,2020.1.3,Win32,60,Chrome,1920,1080,,,,,,,,,,,,,,,,,2,,,,,,,,,,,,,,,,,,,,,,,,,,,531.45011,88,left,0.747555,scarf         ,4,6,3,1,3,531.483415,531.483415,533.98259,0,10,10,10,1,88,4,1,scarf         ,giraffe     ,html/resources/sequences_IDs/A/06_scarf.jpg,html/resources/sequences_IDs/B/03_giraffe.jpg,6,3,3,2,1,1,5,3,0,48,,,,,,,,,,,,,,,,,,,,
,,,,,48,2020-07-04_16h07.31.945,retriever_ti,2020.1.3,Win32,60,Chrome,1920,1080,,,,,,,,,,,,,,,,,2,,,,,,,,,,,,,,,,,,,,,,,,,,,534.599535,89,left,0.836255,redfox      ,5,1,-3,0,3,534.61737,534.61737,537.11596,0,11,11,11,1,89,5,8,redfox      ,dress         ,html/resources/sequences_IDs/B/01_redfox.jpg,html/resources/sequences_IDs/A/07_dress.jpg,1,7,1,1,3,2,1,6,0,48,,,,,,,,,,,,,,,,,,,,
,,,,,48,2020-07-04_16h07.31.945,retriever_ti,2020.1.3,Win32,60,Chrome,1920,1080,,,,,,,,,,,,,,,,,2,,,,,,,,,,,,,,,,,,,,,,,,,,,537.73323,90,right,0.661405,clownfish     ,2,4,1,1,1,537.750525,537.750525,540.249265,0,12,12,12,1,90,1,2,giraffe     ,clownfish     ,html/resources/sequences_IDs/B/03_giraffe.jpg,html/resources/sequences_IDs/A/04_clownfish.jpg,3,4,1,1,2,1,3,4,0,48,,,,,,,,,,,,,,,,,,,,
,,,,,48,2020-07-04_16h07.31.945,retriever_ti,2020.1.3,Win32,60,Chrome,1920,1080,,,,,,,,,,,,,,,,,2,,,,,,,,,,,,,,,,,,,,,,,,,,,541.34981,91,right,0.802255,seaturtle     ,6,2,1,1,1,541.38398,541.38398,543.882515,0,13,13,13,1,91,5,6,redfox      ,seaturtle     ,html/resources/sequences_IDs/B/01_redfox.jpg,html/resources/sequences_IDs/A/02_seaturtle.jpg,1,2,1,1,2,1,1,2,0,48,,,,,,,,,,,,,,,,,,,,
,,,,,48,2020-07-04_16h07.31.945,retriever_ti,2020.1.3,Win32,60,Chrome,1920,1080,,,,,,,,,,,,,,,,,2,,,,,,,,,,,,,,,,,,,,,,,,,,,544.983135,92,left,0.770065,radio       ,7,10,-1,0,1,545.01743,545.01743,547.51612,0,14,14,14,1,92,7,8,radio       ,dress         ,html/resources/sequences_IDs/B/10_radio.jpg,html/resources/sequences_IDs/A/07_dress.jpg,10,7,4,2,3,2,8,6,1,48,,,,,,,,,,,,,,,,,,,,
,,,,,48,2020-07-04_16h07.31.945,retriever_ti,2020.1.3,Win32,60,Chrome,1920,1080,,,,,,,,,,,,,,,,,2,,,,,,,,,,,,,,,,,,,,,,,,,,,548.61615,93,left,0.703755,clownfish     ,2,4,1,1,1,548.633755,548.633755,551.1325,0,15,15,15,1,93,2,1,clownfish     ,giraffe     ,html/resources/sequences_IDs/A/04_clownfish.jpg,html/resources/sequences_IDs/B/03_giraffe.jpg,4,3,2,1,1,1,4,3,0,48,,,,,,,,,,,,,,,,,,,,
,,,,,48,2020-07-04_16h07.31.945,retriever_ti,2020.1.3,Win32,60,Chrome,1920,1080,,,,,,,,,,,,,,,,,2,,,,,,,,,,,,,,,,,,,,,,,,,,,552.233975,94,left,0.716005,giraffe     ,1,3,-4,0,3,552.249995,552.249995,554.749125,0,16,16,16,1,94,1,5,giraffe     ,redfox      ,html/resources/sequences_IDs/B/03_giraffe.jpg,html/resources/sequences_IDs/B/01_redfox.jpg,3,1,1,1,1,1,3,1,0,48,,,,,,,,,,,,,,,,,,,,
,,,,,48,2020-07-04_16h07.31.945,retriever_ti,2020.1.3,Win32,60,Chrome,1920,1080,,,,,,,,,,,,,,,,,2,,,,,,,,,,,,,,,,,,,,,,,,,,,555.366595,95,left,1.00868,scarf         ,4,6,1,1,1,555.400265,555.400265,557.899145,0,17,17,17,1,95,4,3,scarf         ,slipper     ,html/resources/sequences_IDs/A/06_scarf.jpg,html/resources/sequences_IDs/B/08_slipper.jpg,6,8,3,2,3,2,5,7,0,48,,,,,,,,,,,,,,,,,,,,
,,,,,48,2020-07-04_16h07.31.945,retriever_ti,2020.1.3,Win32,60,Chrome,1920,1080,,,,,,,,,,,,,,,,,2,,,,,,,,,,,,,,,,,,,,,,,,,,,558.999755,96,right,0.634505,scarf         ,4,6,-4,0,3,559.01693,559.01693,561.515735,0,18,18,18,1,96,8,4,dress         ,scarf         ,html/resources/sequences_IDs/A/07_dress.jpg,html/resources/sequences_IDs/A/06_scarf.jpg,7,6,3,2,3,2,6,5,0,48,,,,,,,,,,,,,,,,,,,,
,,,,,48,2020-07-04_16h07.31.945,retriever_ti,2020.1.3,Win32,60,Chrome,1920,1080,,,,,,,,,,,,,,,,,2,,,,,,,,,,,,,,,,,,,,,,,,,,,562.132865,97,left,0.95286,redfox      ,5,1,2,1,3,562.15066,562.15066,564.649085,0,19,19,19,1,97,5,3,redfox      ,slipper     ,html/resources/sequences_IDs/B/01_redfox.jpg,html/resources/sequences_IDs/B/08_slipper.jpg,1,8,1,1,3,2,1,7,0,48,,,,,,,,,,,,,,,,,,,,
,,,,,48,2020-07-04_16h07.31.945,retriever_ti,2020.1.3,Win32,60,Chrome,1920,1080,,,,,,,,,,,,,,,,,2,,,,,,,,,,,,,,,,,,,,,,,,,,,565.266525,98,left,0.84612,seaturtle     ,6,2,4,1,3,565.284445,565.284445,567.782385,0,20,20,20,1,98,6,2,seaturtle     ,clownfish     ,html/resources/sequences_IDs/A/02_seaturtle.jpg,html/resources/sequences_IDs/A/04_clownfish.jpg,2,4,2,1,2,1,2,4,0,48,,,,,,,,,,,,,,,,,,,,
,,,,,48,2020-07-04_16h07.31.945,retriever_ti,2020.1.3,Win32,60,Chrome,1920,1080,,,,,,,,,,,,,,,,,2,,,,,,,,,,,,,,,,,,,,,,,,,,,568.399395,99,right,1.385545,clownfish     ,2,4,-6,0,3,568.41696,568.41696,570.915655,0,21,21,21,1,99,8,2,dress         ,clownfish     ,html/resources/sequences_IDs/A/07_dress.jpg,html/resources/sequences_IDs/A/04_clownfish.jpg,7,4,3,2,2,1,6,4,0,48,,,,,,,,,,,,,,,,,,,,
,,,,,48,2020-07-04_16h07.31.945,retriever_ti,2020.1.3,Win32,60,Chrome,1920,1080,,,,,,,,,,,,,,,,,2,,,,,,,,,,,,,,,,,,,,,,,,,,,571.5331,100,right,0.64523,radio       ,7,10,1,1,1,571.566455,571.566455,574.065765,0,22,22,22,1,100,6,7,seaturtle     ,radio       ,html/resources/sequences_IDs/A/02_seaturtle.jpg,html/resources/sequences_IDs/B/10_radio.jpg,2,10,2,1,4,2,2,8,0,48,,,,,,,,,,,,,,,,,,,,
,,,,,48,2020-07-04_16h07.31.945,retriever_ti,2020.1.3,Win32,60,Chrome,1920,1080,,,,,,,,,,,,,,,,,2,,,,,,,,,,,,,,,,,,,,,,,,,,,575.16633,101,left,0.55745,radio       ,7,10,1,1,1,575.200225,575.200225,577.69924,0,23,23,23,1,101,7,6,radio       ,seaturtle     ,html/resources/sequences_IDs/B/10_radio.jpg,html/resources/sequences_IDs/A/02_seaturtle.jpg,10,2,4,2,2,1,8,2,0,48,,,,,,,,,,,,,,,,,,,,
,,,,,48,2020-07-04_16h07.31.945,retriever_ti,2020.1.3,Win32,60,Chrome,1920,1080,,,,,,,,,,,,,,,,,2,,,,,,,,,,,,,,,,,,,,,,,,,,,578.79977,102,right,0.72014,clownfish     ,2,4,1,1,1,578.833095,578.833095,581.33236,0,24,24,24,1,102,1,2,giraffe     ,clownfish     ,html/resources/sequences_IDs/B/03_giraffe.jpg,html/resources/sequences_IDs/A/04_clownfish.jpg,3,4,1,1,2,1,3,4,0,48,,,,,,,,,,,,,,,,,,,,
,,,,,48,2020-07-04_16h07.31.945,retriever_ti,2020.1.3,Win32,60,Chrome,1920,1080,,,,,,,,,,,,,,,,,2,,,,,,,,,,,,,,,,,,,,,,,,,,,582.432615,103,left,0.85925,seaturtle     ,6,2,-1,0,0,582.450235,582.450235,584.949045,0,25,25,25,1,103,6,7,seaturtle     ,radio       ,html/resources/sequences_IDs/A/02_seaturtle.jpg,html/resources/sequences_IDs/B/10_radio.jpg,2,10,2,1,4,2,2,8,0,48,,,,,,,,,,,,,,,,,,,,
,,,,,48,2020-07-04_16h07.31.945,retriever_ti,2020.1.3,Win32,60,Chrome,1920,1080,,,,,,,,,,,,,,,,,2,,,,,,,,,,,,,,,,,,,,,,,,,,,586.049785,104,left,1.14817,clownfish     ,2,4,-5,0,3,586.083215,586.083215,588.582175,0,26,26,26,1,104,2,7,clownfish     ,radio       ,html/resources/sequences_IDs/A/04_clownfish.jpg,html/resources/sequences_IDs/B/10_radio.jpg,4,10,2,1,4,2,4,8,0,48,,,,,,,,,,,,,,,,,,,,
,,,,,48,2020-07-04_16h07.31.945,retriever_ti,2020.1.3,Win32,60,Chrome,1920,1080,,,,,,,,,,,,,,,,,2,,,,,,,,,,,,,,,,,,,,,,,,,,,589.199735,105,right,1.805445,seaturtle     ,6,2,-1,0,1,589.232955,589.232955,591.73223,0,27,27,27,1,105,7,6,radio       ,seaturtle     ,html/resources/sequences_IDs/B/10_radio.jpg,html/resources/sequences_IDs/A/02_seaturtle.jpg,10,2,4,2,2,1,8,2,1,48,,,,,,,,,,,,,,,,,,,,
,,,,,48,2020-07-04_16h07.31.945,retriever_ti,2020.1.3,Win32,60,Chrome,1920,1080,,,,,,,,,,,,,,,,,2,,,,,,,,,,,,,,,,,,,,,,,,,,,592.83278,106,left,0.90082,clownfish     ,2,4,1,1,0,592.86634,592.86634,595.36549,0,28,28,28,1,106,2,1,clownfish     ,giraffe     ,html/resources/sequences_IDs/A/04_clownfish.jpg,html/resources/sequences_IDs/B/03_giraffe.jpg,4,3,2,1,1,1,4,3,1,48,,,,,,,,,,,,,,,,,,,,
,,,,,48,2020-07-04_16h07.31.945,retriever_ti,2020.1.3,Win32,60,Chrome,1920,1080,,,,,,,,,,,,,,,,,2,,,,,,,,,,,,,,,,,,,,,,,,,,,596.46578,107,right,0.74142,scarf         ,4,6,2,1,3,596.48388,596.48388,598.98212,0,29,29,29,1,107,2,4,clownfish     ,scarf         ,html/resources/sequences_IDs/A/04_clownfish.jpg,html/resources/sequences_IDs/A/06_scarf.jpg,4,6,2,1,3,2,4,5,0,48,,,,,,,,,,,,,,,,,,,,
,,,,,48,2020-07-04_16h07.31.945,retriever_ti,2020.1.3,Win32,60,Chrome,1920,1080,,,,,,,,,,,,,,,,,2,,,,,,,,,,,,,,,,,,,,,,,,,,,599.582975,108,left,0.69807,dress         ,8,7,5,1,3,599.616275,599.616275,602.115475,0,30,30,30,1,108,8,3,dress         ,slipper     ,html/resources/sequences_IDs/A/07_dress.jpg,html/resources/sequences_IDs/B/08_slipper.jpg,7,8,3,2,3,2,6,7,0,48,,,,,,,,,,,,,,,,,,,,
,,,,,48,2020-07-04_16h07.31.945,retriever_ti,2020.1.3,Win32,60,Chrome,1920,1080,,,,,,,,,,,,,,,,,2,,,,,,,,,,,,,,,,,,,,,,,,,,,602.733005,109,right,1.02284,dress         ,8,7,7,1,3,602.749615,602.749615,605.248815,0,31,31,31,1,109,1,8,giraffe     ,dress         ,html/resources/sequences_IDs/B/03_giraffe.jpg,html/resources/sequences_IDs/A/07_dress.jpg,3,7,1,1,3,2,3,6,0,48,,,,,,,,,,,,,,,,,,,,
,,,,,48,2020-07-04_16h07.31.945,retriever_ti,2020.1.3,Win32,60,Chrome,1920,1080,,,,,,,,,,,,,,,,,2,,,,,,,,,,,,,,,,,,,,,,,,,,,605.866015,110,right,1.079135,slipper     ,3,8,2,1,3,605.883475,605.883475,608.382085,0,32,32,32,1,110,1,3,giraffe     ,slipper     ,html/resources/sequences_IDs/B/03_giraffe.jpg,html/resources/sequences_IDs/B/08_slipper.jpg,3,8,1,1,3,2,3,7,0,48,,,,,,,,,,,,,,,,,,,,
,,,,,48,2020-07-04_16h07.31.945,retriever_ti,2020.1.3,Win32,60,Chrome,1920,1080,,,,,,,,,,,,,,,,,2,,,,,,,,,,,,,,,,,,,,,,,,,,,608.999515,111,right,0.744245,seaturtle     ,6,2,4,1,3,609.033345,609.033345,611.532055,0,33,33,33,1,111,2,6,clownfish     ,seaturtle     ,html/resources/sequences_IDs/A/04_clownfish.jpg,html/resources/sequences_IDs/A/02_seaturtle.jpg,4,2,2,1,2,1,4,2,0,48,,,,,,,,,,,,,,,,,,,,
,,,,,48,2020-07-04_16h07.31.945,retriever_ti,2020.1.3,Win32,60,Chrome,1920,1080,,,,,,,,,,,,,,,,,2,,,,,,,,,,,,,,,,,,,,,,,,,,,612.149085,112,right,1.133245,clownfish     ,2,4,-1,0,0,612.1668,612.1668,614.665355,0,34,34,34,1,112,3,2,slipper     ,clownfish     ,html/resources/sequences_IDs/B/08_slipper.jpg,html/resources/sequences_IDs/A/04_clownfish.jpg,8,4,3,2,2,1,7,4,0,48,,,,,,,,,,,,,,,,,,,,
,,,,,48,2020-07-04_16h07.31.945,retriever_ti,2020.1.3,Win32,60,Chrome,1920,1080,,,,,,,,,,,,,,,,,2,,,,,,,,,,,,,,,,,,,,,,,,,,,615.76613,113,left,0.687645,seaturtle     ,6,2,5,1,3,615.79965,615.79965,618.29875,0,35,35,35,1,113,6,1,seaturtle     ,giraffe     ,html/resources/sequences_IDs/A/02_seaturtle.jpg,html/resources/sequences_IDs/B/03_giraffe.jpg,2,3,2,1,1,1,2,3,0,48,,,,,,,,,,,,,,,,,,,,
,,,,,48,2020-07-04_16h07.31.945,retriever_ti,2020.1.3,Win32,60,Chrome,1920,1080,,,,,,,,,,,,,,,,,2,,,,,,,,,,,,,,,,,,,,,,,,,,,618.9164,114,right,0.73305,scarf         ,4,6,-1,0,0,618.932825,618.932825,621.43208,0,36,36,36,1,114,5,4,redfox      ,scarf         ,html/resources/sequences_IDs/B/01_redfox.jpg,html/resources/sequences_IDs/A/06_scarf.jpg,1,6,1,1,3,2,1,5,0,48,,,,,,,,,,,,,,,,,,,,
,,,,,48,2020-07-04_16h07.31.945,retriever_ti,2020.1.3,Win32,60,Chrome,1920,1080,,,,,,,,,,,,,,,,,2,,,,,,,,,,,,,,,,,,,,,,,,,,,622.532325,115,right,1.02388,radio       ,7,10,-1,0,0,622.566485,622.566485,625.065325,0,37,37,37,1,115,8,7,dress         ,radio       ,html/resources/sequences_IDs/A/07_dress.jpg,html/resources/sequences_IDs/B/10_radio.jpg,7,10,3,2,4,2,6,8,0,48,,,,,,,,,,,,,,,,,,,,
,,,,,48,2020-07-04_16h07.31.945,retriever_ti,2020.1.3,Win32,60,Chrome,1920,1080,,,,,,,,,,,,,,,,,2,,,,,,,,,,,,,,,,,,,,,,,,,,,626.16598,116,left,0.592925,slipper     ,3,8,-5,0,3,626.20016,626.20016,628.698575,0,38,38,38,1,116,3,8,slipper     ,dress         ,html/resources/sequences_IDs/B/08_slipper.jpg,html/resources/sequences_IDs/A/07_dress.jpg,8,7,3,2,3,2,7,6,0,48,,,,,,,,,,,,,,,,,,,,
,,,,,48,2020-07-04_16h07.31.945,retriever_ti,2020.1.3,Win32,60,Chrome,1920,1080,,,,,,,,,,,,,,,,,2,,,,,,,,,,,,,,,,,,,,,,,,,,,629.3159,117,right,0.5755,seaturtle     ,6,2,-2,0,3,629.349915,629.349915,631.84863,0,39,39,39,1,117,8,6,dress         ,seaturtle     ,html/resources/sequences_IDs/A/07_dress.jpg,html/resources/sequences_IDs/A/02_seaturtle.jpg,7,2,3,2,2,1,6,2,0,48,,,,,,,,,,,,,,,,,,,,
,,,,,48,2020-07-04_16h07.31.945,retriever_ti,2020.1.3,Win32,60,Chrome,1920,1080,,,,,,,,,,,,,,,,,2,,,,,,,,,,,,,,,,,,,,,,,,,,,632.465775,118,left,0.576095,scarf         ,4,6,1,1,1,632.48274,632.48274,634.982005,0,40,40,40,1,118,4,3,scarf         ,slipper     ,html/resources/sequences_IDs/A/06_scarf.jpg,html/resources/sequences_IDs/B/08_slipper.jpg,6,8,3,2,3,2,5,7,0,48,,,,,,,,,,,,,,,,,,,,
,,,,,48,2020-07-04_16h07.31.945,retriever_ti,2020.1.3,Win32,60,Chrome,1920,1080,,,,,,,,,,,,,,,,,2,,,,,,,,,,,,,,,,,,,,,,,,,,,636.08251,119,left,0.09696,slipper     ,3,8,-2,0,3,636.116085,636.116085,638.615205,0,41,41,41,1,119,3,5,slipper     ,redfox      ,html/resources/sequences_IDs/B/08_slipper.jpg,html/resources/sequences_IDs/B/01_redfox.jpg,8,1,3,2,1,1,7,1,0,48,,,,,,,,,,,,,,,,,,,,
,,,,,48,2020-07-04_16h07.31.945,retriever_ti,2020.1.3,Win32,60,Chrome,1920,1080,,,,,,,,,,,,,,,,,2,,,,,,,,,,,,,,,,,,,,,,,,,,,639.232625,120,right,0.83021,slipper     ,3,8,1,1,1,639.26671,639.26671,641.76511,0,42,42,42,1,120,2,3,clownfish     ,slipper     ,html/resources/sequences_IDs/A/04_clownfish.jpg,html/resources/sequences_IDs/B/08_slipper.jpg,4,8,2,1,3,2,4,7,0,48,,,,,,,,,,,,,,,,,,,,
,,,,,48,2020-07-04_16h07.31.945,retriever_ti,2020.1.3,Win32,60,Chrome,1920,1080,,,,,,,,,,,,,,,,,2,,,,,,,,,,,,,,,,,,,,,,,,,,,642.865975,121,right,0.62544,scarf         ,4,6,-2,0,3,642.900245,642.900245,645.398695,0,43,43,43,1,121,6,4,seaturtle     ,scarf         ,html/resources/sequences_IDs/A/02_seaturtle.jpg,html/resources/sequences_IDs/A/06_scarf.jpg,2,6,2,1,3,2,2,5,0,48,,,,,,,,,,,,,,,,,,,,
,,,,,48,2020-07-04_16h07.31.945,retriever_ti,2020.1.3,Win32,60,Chrome,1920,1080,,,,,,,,,,,,,,,,,2,,,,,,,,,,,,,,,,,,,,,,,,,,,646.015495,122,left,0.000965,seaturtle     ,6,2,1,1,1,646.032725,646.032725,648.531815,0,44,44,44,1,122,6,5,seaturtle     ,redfox      ,html/resources/sequences_IDs/A/02_seaturtle.jpg,html/resources/sequences_IDs/B/01_redfox.jpg,2,1,2,1,1,1,2,1,0,48,,,,,,,,,,,,,,,,,,,,
,,,,,48,2020-07-04_16h07.31.945,retriever_ti,2020.1.3,Win32,60,Chrome,1920,1080,,,,,,,,,,,,,,,,,2,,,,,,,,,,,,,,,,,,,,,,,,,,,649.632845,123,right,0.498715,radio       ,7,10,2,1,3,649.650115,649.650115,652.148435,0,45,45,45,1,123,5,7,redfox      ,radio       ,html/resources/sequences_IDs/B/01_redfox.jpg,html/resources/sequences_IDs/B/10_radio.jpg,1,10,1,1,4,2,1,8,0,48,,,,,,,,,,,,,,,,,,,,
,,,,,48,2020-07-04_16h07.31.945,retriever_ti,2020.1.3,Win32,60,Chrome,1920,1080,,,,,,,,,,,,,,,,,2,,,,,,,,,,,,,,,,,,,,,,,,,,,652.765805,124,left,0.59007,slipper     ,3,8,-1,0,0,652.78261,652.78261,655.2817,0,46,46,46,1,124,3,4,slipper     ,scarf         ,html/resources/sequences_IDs/B/08_slipper.jpg,html/resources/sequences_IDs/A/06_scarf.jpg,8,6,3,2,3,2,7,5,0,48,,,,,,,,,,,,,,,,,,,,
,,,,,48,2020-07-04_16h07.31.945,retriever_ti,2020.1.3,Win32,60,Chrome,1920,1080,,,,,,,,,,,,,,,,,2,,,,,,,,,,,,,,,,,,,,,,,,,,,656.38218,125,right,0.57975,scarf         ,4,6,-3,0,3,656.39944,656.39944,658.89855,0,47,47,47,1,125,7,4,radio       ,scarf         ,html/resources/sequences_IDs/B/10_radio.jpg,html/resources/sequences_IDs/A/06_scarf.jpg,10,6,4,2,3,2,8,5,0,48,,,,,,,,,,,,,,,,,,,,
,,,,,48,2020-07-04_16h07.31.945,retriever_ti,2020.1.3,Win32,60,Chrome,1920,1080,,,,,,,,,,,,,,,,,2,,,,,,,,,,,,,,,,,,,,,,,,,,,659.5158,126,right,0.266205,clownfish     ,2,4,-1,0,1,659.550085,659.550085,662.048445,0,48,48,48,1,126,3,2,slipper     ,clownfish     ,html/resources/sequences_IDs/B/08_slipper.jpg,html/resources/sequences_IDs/A/04_clownfish.jpg,8,4,3,2,2,1,7,4,1,48,,,,,,,,,,,,,,,,,,,,
,,,,,48,2020-07-04_16h07.31.945,retriever_ti,2020.1.3,Win32,60,Chrome,1920,1080,,,,,,,,,,,,,,,,,2,,,,,,,,,,,,,,,,,,,,,,,,,,,663.149305,127,left,0.59176,scarf         ,4,6,2,1,3,663.167105,663.167105,665.66501,0,49,49,49,1,127,4,2,scarf         ,clownfish     ,html/resources/sequences_IDs/A/06_scarf.jpg,html/resources/sequences_IDs/A/04_clownfish.jpg,6,4,3,2,2,1,5,4,0,48,,,,,,,,,,,,,,,,,,,,
,,,,,48,2020-07-04_16h07.31.945,retriever_ti,2020.1.3,Win32,60,Chrome,1920,1080,,,,,,,,,,,,,,,,,2,,,,,,,,,,,,,,,,,,,,,,,,,,,666.265525,128,NaN,NaN,No_response,NaN,NaN,NaN,2,2,666.30009,666.30009,668.798355,0,50,50,50,1,128,7,3,radio       ,slipper     ,html/resources/sequences_IDs/B/10_radio.jpg,html/resources/sequences_IDs/B/08_slipper.jpg,10,8,4,2,3,2,8,7,0,48,,,,,,,,,,,,,,,,,,,,
,,,,,48,2020-07-04_16h07.31.945,retriever_ti,2020.1.3,Win32,60,Chrome,1920,1080,,,,,,,,,,,,,,,,,2,,,,,,,,,,,,,,,,,,,,,,,,,,,669.89909,129,NaN,NaN,No_response,NaN,NaN,NaN,2,2,669.915795,669.915795,672.414965,0,51,51,51,1,129,7,5,radio       ,redfox      ,html/resources/sequences_IDs/B/10_radio.jpg,html/resources/sequences_IDs/B/01_redfox.jpg,10,1,4,2,1,1,8,1,0,48,,,,,,,,,,,,,,,,,,,,
,,,,,48,2020-07-04_16h07.31.945,retriever_ti,2020.1.3,Win32,60,Chrome,1920,1080,,,,,,,,,,,,,,,,,2,,,,,,,,,,,,,,,,,,,,,,,,,,,673.515795,130,right,1.531525,redfox      ,5,1,1,1,1,673.53264,673.53264,676.031575,0,52,52,52,1,130,4,5,scarf         ,redfox      ,html/resources/sequences_IDs/A/06_scarf.jpg,html/resources/sequences_IDs/B/01_redfox.jpg,6,1,3,2,1,1,5,1,0,48,,,,,,,,,,,,,,,,,,,,
,,,,,48,2020-07-04_16h07.31.945,retriever_ti,2020.1.3,Win32,60,Chrome,1920,1080,,,,,,,,,,,,,,,,,2,,,,,,,,,,,,,,,,,,,,,,,,,,,677.132235,131,right,0.47158,redfox      ,5,1,3,1,3,677.15049,677.15049,679.648235,0,53,53,53,1,131,2,5,clownfish     ,redfox      ,html/resources/sequences_IDs/A/04_clownfish.jpg,html/resources/sequences_IDs/B/01_redfox.jpg,4,1,2,1,1,1,4,1,0,48,,,,,,,,,,,,,,,,,,,,
,,,,,48,2020-07-04_16h07.31.945,retriever_ti,2020.1.3,Win32,60,Chrome,1920,1080,,,,,,,,,,,,,,,,,2,,,,,,,,,,,,,,,,,,,,,,,,,,,680.248735,132,left,0.556815,seaturtle     ,6,2,1,1,0,680.266655,680.266655,682.76496,0,54,54,54,1,132,6,5,seaturtle     ,redfox      ,html/resources/sequences_IDs/A/02_seaturtle.jpg,html/resources/sequences_IDs/B/01_redfox.jpg,2,1,2,1,1,1,2,1,1,48,,,,,,,,,,,,,,,,,,,,
,,,,,48,2020-07-04_16h07.31.945,retriever_ti,2020.1.3,Win32,60,Chrome,1920,1080,,,,,,,,,,,,,,,,,2,,,,,,,,,,,,,,,,,,,,,,,,,,,683.86555,133,right,0.513035,seaturtle     ,6,2,3,1,3,683.900275,683.900275,686.398195,0,55,55,55,1,133,3,6,slipper     ,seaturtle     ,html/resources/sequences_IDs/B/08_slipper.jpg,html/resources/sequences_IDs/A/02_seaturtle.jpg,8,2,3,2,2,1,7,2,0,48,,,,,,,,,,,,,,,,,,,,
,,,,,48,2020-07-04_16h07.31.945,retriever_ti,2020.1.3,Win32,60,Chrome,1920,1080,,,,,,,,,,,,,,,,,2,,,,,,,,,,,,,,,,,,,,,,,,,,,687.015555,134,left,0.601535,scarf         ,4,6,-1,0,1,687.049405,687.049405,689.548155,0,56,56,56,1,134,4,5,scarf         ,redfox      ,html/resources/sequences_IDs/A/06_scarf.jpg,html/resources/sequences_IDs/B/01_redfox.jpg,6,1,3,2,1,1,5,1,1,48,,,,,,,,,,,,,,,,,,,,
,,,,,48,2020-07-04_16h07.31.945,retriever_ti,2020.1.3,Win32,60,Chrome,1920,1080,,,,,,,,,,,,,,,,,2,,,,,,,,,,,,,,,,,,,,,,,,,,,690.649325,135,left,0.539145,seaturtle     ,6,2,1,1,1,690.66561,690.66561,693.164895,0,57,57,57,1,135,6,5,seaturtle     ,redfox      ,html/resources/sequences_IDs/A/02_seaturtle.jpg,html/resources/sequences_IDs/B/01_redfox.jpg,2,1,2,1,1,1,2,1,0,48,,,,,,,,,,,,,,,,,,,,
,,,,,48,2020-07-04_16h07.31.945,retriever_ti,2020.1.3,Win32,60,Chrome,1920,1080,,,,,,,,,,,,,,,,,2,,,,,,,,,,,,,,,,,,,,,,,,,,,694.26554,136,right,0.53568,clownfish     ,2,4,-1,0,0,694.298995,694.298995,696.79808,0,58,58,58,1,136,3,2,slipper     ,clownfish     ,html/resources/sequences_IDs/B/08_slipper.jpg,html/resources/sequences_IDs/A/04_clownfish.jpg,8,4,3,2,2,1,7,4,0,48,,,,,,,,,,,,,,,,,,,,
,,,,,48,2020-07-04_16h07.31.945,retriever_ti,2020.1.3,Win32,60,Chrome,1920,1080,,,,,,,,,,,,,,,,,2,,,,,,,,,,,,,,,,,,,,,,,,,,,697.898975,137,right,0.001135,slipper     ,3,8,-3,0,3,697.932255,697.932255,700.431565,0,59,59,59,1,137,6,3,seaturtle     ,slipper     ,html/resources/sequences_IDs/A/02_seaturtle.jpg,html/resources/sequences_IDs/B/08_slipper.jpg,2,8,2,1,3,2,2,7,0,48,,,,,,,,,,,,,,,,,,,,
,,,,,48,2020-07-04_16h07.31.945,retriever_ti,2020.1.3,Win32,60,Chrome,1920,1080,,,,,,,,,,,,,,,,,2,,,,,,,,,,,,,,,,,,,,,,,,,,,701.04904,138,right,0.59013,giraffe     ,1,3,-2,0,3,701.065555,701.065555,703.56478,0,60,60,60,1,138,3,1,slipper     ,giraffe     ,html/resources/sequences_IDs/B/08_slipper.jpg,html/resources/sequences_IDs/B/03_giraffe.jpg,8,3,3,2,1,1,7,3,0,48,,,,,,,,,,,,,,,,,,,,
,,,,,48,2020-07-04_16h07.31.945,retriever_ti,2020.1.3,Win32,60,Chrome,1920,1080,,,,,,,,,,,,,,,,,2,,,,,,,,,,,,,,,,,,,,,,,,,,,704.18168,139,right,0.47572,radio       ,7,10,6,1,3,704.19876,704.19876,706.698075,0,61,61,61,1,139,1,7,giraffe     ,radio       ,html/resources/sequences_IDs/B/03_giraffe.jpg,html/resources/sequences_IDs/B/10_radio.jpg,3,10,1,1,4,2,3,8,0,48,,,,,,,,,,,,,,,,,,,,
,,,,,48,2020-07-04_16h07.31.945,retriever_ti,2020.1.3,Win32,60,Chrome,1920,1080,,,,,,,,,,,,,,,,,2,,,,,,,,,,,,,,,,,,,,,,,,,,,707.3154,140,left,0.627665,radio       ,7,10,-1,0,0,707.34884,707.34884,709.84804,0,62,62,62,1,140,7,8,radio       ,dress         ,html/resources/sequences_IDs/B/10_radio.jpg,html/resources/sequences_IDs/A/07_dress.jpg,10,7,4,2,3,2,8,6,0,48,,,,,,,,,,,,,,,,,,,,
,,,,,48,2020-07-04_16h07.31.945,retriever_ti,2020.1.3,Win32,60,Chrome,1920,1080,,,,,,,,,,,,,,,,,2,,,,,,,,,,,,,,,,,,,,,,,,,,,710.94877,141,left,0.77829,scarf         ,4,6,-4,0,3,710.98214,710.98214,713.48141,0,63,63,63,1,141,4,8,scarf         ,dress         ,html/resources/sequences_IDs/A/06_scarf.jpg,html/resources/sequences_IDs/A/07_dress.jpg,6,7,3,2,3,2,5,6,0,48,,,,,,,,,,,,,,,,,,,,
,,,,,48,2020-07-04_16h07.31.945,retriever_ti,2020.1.3,Win32,60,Chrome,1920,1080,,,,,,,,,,,,,,,,,2,,,,,,,,,,,,,,,,,,,,,,,,,,,714.09846,142,left,0.511555,radio       ,7,10,1,1,1,714.1156,714.1156,716.61468,0,64,64,64,1,142,7,6,radio       ,seaturtle     ,html/resources/sequences_IDs/B/10_radio.jpg,html/resources/sequences_IDs/A/02_seaturtle.jpg,10,2,4,2,2,1,8,2,0,48,,,,,,,,,,,,,,,,,,,,
,,,,,48,2020-07-04_16h07.31.945,retriever_ti,2020.1.3,Win32,60,Chrome,1920,1080,,,,,,,,,,,,,,,,,2,,,,,,,,,,,,,,,,,,,,,,,,,,,717.71537,143,right,0.643695,scarf         ,4,6,-1,0,0,717.74878,717.74878,720.247995,0,65,65,65,1,143,5,4,redfox      ,scarf         ,html/resources/sequences_IDs/B/01_redfox.jpg,html/resources/sequences_IDs/A/06_scarf.jpg,1,6,1,1,3,2,1,5,0,48,,,,,,,,,,,,,,,,,,,,
,,,,,48,2020-07-04_16h07.31.945,retriever_ti,2020.1.3,Win32,60,Chrome,1920,1080,,,,,,,,,,,,,,,,,2,,,,,,,,,,,,,,,,,,,,,,,,,,,721.34894,144,left,0.72589,clownfish     ,2,4,-6,0,3,721.382425,721.382425,723.881285,0,66,66,66,1,144,2,8,clownfish     ,dress         ,html/resources/sequences_IDs/A/04_clownfish.jpg,html/resources/sequences_IDs/A/07_dress.jpg,4,7,2,1,3,2,4,6,0,48,,,,,,,,,,,,,,,,,,,,
,,,,,48,2020-07-04_16h07.31.945,retriever_ti,2020.1.3,Win32,60,Chrome,1920,1080,,,,,,,,,,,,,,,,,2,,,,,,,,,,,,,,,,,,,,,,,,,,,724.498255,145,left,0.59222,clownfish     ,2,4,-1,0,0,724.51588,724.51588,727.01458,0,67,67,67,1,145,2,3,clownfish     ,slipper     ,html/resources/sequences_IDs/A/04_clownfish.jpg,html/resources/sequences_IDs/B/08_slipper.jpg,4,8,2,1,3,2,4,7,0,48,,,,,,,,,,,,,,,,,,,,
,,,,,48,2020-07-04_16h07.31.945,retriever_ti,2020.1.3,Win32,60,Chrome,1920,1080,,,,,,,,,,,,,,,,,2,,,,,,,,,,,,,,,,,,,,,,,,,,,728.11533,146,left,0.65566,clownfish     ,2,4,1,1,1,728.132165,728.132165,730.631265,0,68,68,68,1,146,2,1,clownfish     ,giraffe     ,html/resources/sequences_IDs/A/04_clownfish.jpg,html/resources/sequences_IDs/B/03_giraffe.jpg,4,3,2,1,1,1,4,3,0,48,,,,,,,,,,,,,,,,,,,,
,,,,,48,2020-07-04_16h07.31.945,retriever_ti,2020.1.3,Win32,60,Chrome,1920,1080,,,,,,,,,,,,,,,,,2,,,,,,,,,,,,,,,,,,,,,,,,,,,731.732015,147,right,0.653605,radio       ,7,10,3,1,3,731.765895,731.765895,734.264505,0,69,69,69,1,147,4,7,scarf         ,radio       ,html/resources/sequences_IDs/A/06_scarf.jpg,html/resources/sequences_IDs/B/10_radio.jpg,6,10,3,2,4,2,5,8,0,48,,,,,,,,,,,,,,,,,,,,
,,,,,48,2020-07-04_16h07.31.945,retriever_ti,2020.1.3,Win32,60,Chrome,1920,1080,,,,,,,,,,,,,,,,,2,,,,,,,,,,,,,,,,,,,,,,,,,,,734.88178,148,right,0.60477,redfox      ,5,1,1,1,1,734.898705,734.898705,737.397765,0,70,70,70,1,148,4,5,scarf         ,redfox      ,html/resources/sequences_IDs/A/06_scarf.jpg,html/resources/sequences_IDs/B/01_redfox.jpg,6,1,3,2,1,1,5,1,0,48,,,,,,,,,,,,,,,,,,,,
,,,,,48,2020-07-04_16h07.31.945,retriever_ti,2020.1.3,Win32,60,Chrome,1920,1080,,,,,,,,,,,,,,,,,2,,,,,,,,,,,,,,,,,,,,,,,,,,,738.49826,149,left,0.662915,radio       ,7,10,5,1,3,738.53274,738.53274,741.031115,0,71,71,71,1,149,7,2,radio       ,clownfish     ,html/resources/sequences_IDs/B/10_radio.jpg,html/resources/sequences_IDs/A/04_clownfish.jpg,10,4,4,2,2,1,8,4,0,48,,,,,,,,,,,,,,,,,,,,
,,,,,48,2020-07-04_16h07.31.945,retriever_ti,2020.1.3,Win32,60,Chrome,1920,1080,,,,,,,,,,,,,,,,,2,,,,,,,,,,,,,,,,,,,,,,,,,,,741.63184,150,right,0.482475,radio       ,7,10,4,1,3,741.666345,741.666345,744.16446,0,72,72,72,1,150,3,7,slipper     ,radio       ,html/resources/sequences_IDs/B/08_slipper.jpg,html/resources/sequences_IDs/B/10_radio.jpg,8,10,3,2,4,2,7,8,0,48,,,,,,,,,,,,,,,,,,,,
,,,,,48,2020-07-04_16h07.31.945,retriever_ti,2020.1.3,Win32,60,Chrome,1920,1080,,,,,,,,,,,,,,,,,2,,,,,,,,,,,,,,,,,,,,,,,,,,,744.78177,151,left,0.68146,radio       ,7,10,6,1,3,744.799205,744.799205,747.297745,0,73,73,73,1,151,7,1,radio       ,giraffe     ,html/resources/sequences_IDs/B/10_radio.jpg,html/resources/sequences_IDs/B/03_giraffe.jpg,10,3,4,2,1,1,8,3,0,48,,,,,,,,,,,,,,,,,,,,
,,,,,48,2020-07-04_16h07.31.945,retriever_ti,2020.1.3,Win32,60,Chrome,1920,1080,,,,,,,,,,,,,,,,,2,,,,,,,,,,,,,,,,,,,,,,,,,,,747.91488,152,right,0.69683,scarf         ,4,6,1,1,1,747.94861,747.94861,750.447795,0,74,74,74,1,152,3,4,slipper     ,scarf         ,html/resources/sequences_IDs/B/08_slipper.jpg,html/resources/sequences_IDs/A/06_scarf.jpg,8,6,3,2,3,2,7,5,0,48,,,,,,,,,,,,,,,,,,,,
,,,,,48,2020-07-04_16h07.31.945,retriever_ti,2020.1.3,Win32,60,Chrome,1920,1080,,,,,,,,,,,,,,,,,2,,,,,,,,,,,,,,,,,,,,,,,,,,,751.548555,153,right,0.685915,seaturtle     ,6,2,2,1,3,751.58207,751.58207,754.081095,0,75,75,75,1,153,4,6,scarf         ,seaturtle     ,html/resources/sequences_IDs/A/06_scarf.jpg,html/resources/sequences_IDs/A/02_seaturtle.jpg,6,2,3,2,2,1,5,2,0,48,,,,,,,,,,,,,,,,,,,,
,,,,,48,2020-07-04_16h07.31.945,retriever_ti,2020.1.3,Win32,60,Chrome,1920,1080,,,,,,,,,,,,,,,,,2,,,,,,,,,,,,,,,,,,,,,,,,,,,754.698105,154,left,0.78232,redfox      ,5,1,4,1,3,754.71536,754.71536,757.2144,0,76,76,76,1,154,5,1,redfox      ,giraffe     ,html/resources/sequences_IDs/B/01_redfox.jpg,html/resources/sequences_IDs/B/03_giraffe.jpg,1,3,1,1,1,1,1,3,0,48,,,,,,,,,,,,,,,,,,,,
,,,,,48,2020-07-04_16h07.31.945,retriever_ti,2020.1.3,Win32,60,Chrome,1920,1080,,,,,,,,,,,,,,,,,,,,,,,,,,,,,,,,,,,,,0,1.59343,,,,,,,,,,,,,,,,,,,,,,,,,,,,,,,,,,,,,,,,,1,0,1,0,1,,,,,,,,,,,,,,,
,,,,,48,2020-07-04_16h07.31.945,retriever_ti,2020.1.3,Win32,60,Chrome,1920,1080,,,,,,,,,,,,,,,,,3,,,,,,,,,,,,,,,,,,,,,,,,,,,764.113035,155,left,0.59512,radio       ,7,10,-1,0,0,764.14884,764.14884,766.647775,0,0,0,0,1,155,7,8,radio       ,dress         ,html/resources/sequences_IDs/B/10_radio.jpg,html/resources/sequences_IDs/A/07_dress.jpg,10,7,4,2,3,2,8,6,0,48,,,,,,,,,,,,,,,,,,,,
,,,,,48,2020-07-04_16h07.31.945,retriever_ti,2020.1.3,Win32,60,Chrome,1920,1080,,,,,,,,,,,,,,,,,3,,,,,,,,,,,,,,,,,,,,,,,,,,,767.748285,156,left,1.226415,clownfish     ,2,4,1,1,1,767.782065,767.782065,770.28093,0,1,1,1,1,156,2,1,clownfish     ,giraffe     ,html/resources/sequences_IDs/A/04_clownfish.jpg,html/resources/sequences_IDs/B/03_giraffe.jpg,4,3,2,1,1,1,4,3,0,48,,,,,,,,,,,,,,,,,,,,
,,,,,48,2020-07-04_16h07.31.945,retriever_ti,2020.1.3,Win32,60,Chrome,1920,1080,,,,,,,,,,,,,,,,,3,,,,,,,,,,,,,,,,,,,,,,,,,,,771.381535,157,left,0.67884,radio       ,7,10,5,1,3,771.39879,771.39879,773.89914,0,2,2,2,1,157,7,2,radio       ,clownfish     ,html/resources/sequences_IDs/B/10_radio.jpg,html/resources/sequences_IDs/A/04_clownfish.jpg,10,4,4,2,2,1,8,4,0,48,,,,,,,,,,,,,,,,,,,,
,,,,,48,2020-07-04_16h07.31.945,retriever_ti,2020.1.3,Win32,60,Chrome,1920,1080,,,,,,,,,,,,,,,,,3,,,,,,,,,,,,,,,,,,,,,,,,,,,774.514745,158,right,0.625665,slipper     ,3,8,-5,0,3,774.548395,774.548395,777.047675,0,3,3,3,1,158,8,3,dress         ,slipper     ,html/resources/sequences_IDs/A/07_dress.jpg,html/resources/sequences_IDs/B/08_slipper.jpg,7,8,3,2,3,2,6,7,0,48,,,,,,,,,,,,,,,,,,,,
,,,,,48,2020-07-04_16h07.31.945,retriever_ti,2020.1.3,Win32,60,Chrome,1920,1080,,,,,,,,,,,,,,,,,3,,,,,,,,,,,,,,,,,,,,,,,,,,,777.66496,159,left,0.519525,giraffe     ,1,3,-7,0,3,777.69901,777.69901,780.19751,0,4,4,4,1,159,1,8,giraffe     ,dress         ,html/resources/sequences_IDs/B/03_giraffe.jpg,html/resources/sequences_IDs/A/07_dress.jpg,3,7,1,1,3,2,3,6,0,48,,,,,,,,,,,,,,,,,,,,
,,,,,48,2020-07-04_16h07.31.945,retriever_ti,2020.1.3,Win32,60,Chrome,1920,1080,,,,,,,,,,,,,,,,,3,,,,,,,,,,,,,,,,,,,,,,,,,,,780.81501,160,left,0.081935,redfox      ,5,1,-3,0,3,780.848305,780.848305,783.347515,0,5,5,5,1,160,5,8,redfox      ,dress         ,html/resources/sequences_IDs/B/01_redfox.jpg,html/resources/sequences_IDs/A/07_dress.jpg,1,7,1,1,3,2,1,6,0,48,,,,,,,,,,,,,,,,,,,,
,,,,,48,2020-07-04_16h07.31.945,retriever_ti,2020.1.3,Win32,60,Chrome,1920,1080,,,,,,,,,,,,,,,,,3,,,,,,,,,,,,,,,,,,,,,,,,,,,783.9645,161,left,0.14199,scarf         ,4,6,-4,0,3,783.982295,783.982295,786.480835,0,6,6,6,1,161,4,8,scarf         ,dress         ,html/resources/sequences_IDs/A/06_scarf.jpg,html/resources/sequences_IDs/A/07_dress.jpg,6,7,3,2,3,2,5,6,0,48,,,,,,,,,,,,,,,,,,,,
,,,,,48,2020-07-04_16h07.31.945,retriever_ti,2020.1.3,Win32,60,Chrome,1920,1080,,,,,,,,,,,,,,,,,3,,,,,,,,,,,,,,,,,,,,,,,,,,,787.09807,162,right,0.087455,slipper     ,3,8,-3,0,3,787.115355,787.115355,789.61413,0,7,7,7,1,162,6,3,seaturtle     ,slipper     ,html/resources/sequences_IDs/A/02_seaturtle.jpg,html/resources/sequences_IDs/B/08_slipper.jpg,2,8,2,1,3,2,2,7,0,48,,,,,,,,,,,,,,,,,,,,
,,,,,48,2020-07-04_16h07.31.945,retriever_ti,2020.1.3,Win32,60,Chrome,1920,1080,,,,,,,,,,,,,,,,,3,,,,,,,,,,,,,,,,,,,,,,,,,,,790.21475,163,right,0.528265,redfox      ,5,1,4,1,3,790.24898,790.24898,792.747455,0,8,8,8,1,163,1,5,giraffe     ,redfox      ,html/resources/sequences_IDs/B/03_giraffe.jpg,html/resources/sequences_IDs/B/01_redfox.jpg,3,1,1,1,1,1,3,1,0,48,,,,,,,,,,,,,,,,,,,,
,,,,,48,2020-07-04_16h07.31.945,retriever_ti,2020.1.3,Win32,60,Chrome,1920,1080,,,,,,,,,,,,,,,,,3,,,,,,,,,,,,,,,,,,,,,,,,,,,793.3649,164,left,0.520345,clownfish     ,2,4,1,1,1,793.38163,793.38163,795.880765,0,9,9,9,1,164,2,1,clownfish     ,giraffe     ,html/resources/sequences_IDs/A/04_clownfish.jpg,html/resources/sequences_IDs/B/03_giraffe.jpg,4,3,2,1,1,1,4,3,0,48,,,,,,,,,,,,,,,,,,,,
,,,,,48,2020-07-04_16h07.31.945,retriever_ti,2020.1.3,Win32,60,Chrome,1920,1080,,,,,,,,,,,,,,,,,3,,,,,,,,,,,,,,,,,,,,,,,,,,,796.981375,165,left,0.837965,clownfish     ,2,4,-6,0,3,797.014805,797.014805,799.514345,0,10,10,10,1,165,2,8,clownfish     ,dress         ,html/resources/sequences_IDs/A/04_clownfish.jpg,html/resources/sequences_IDs/A/07_dress.jpg,4,7,2,1,3,2,4,6,0,48,,,,,,,,,,,,,,,,,,,,
,,,,,48,2020-07-04_16h07.31.945,retriever_ti,2020.1.3,Win32,60,Chrome,1920,1080,,,,,,,,,,,,,,,,,3,,,,,,,,,,,,,,,,,,,,,,,,,,,800.13132,166,right,0.60111,seaturtle     ,6,2,-1,0,0,800.165865,800.165865,802.66403,0,11,11,11,1,166,7,6,radio       ,seaturtle     ,html/resources/sequences_IDs/B/10_radio.jpg,html/resources/sequences_IDs/A/02_seaturtle.jpg,10,2,4,2,2,1,8,2,0,48,,,,,,,,,,,,,,,,,,,,
,,,,,48,2020-07-04_16h07.31.945,retriever_ti,2020.1.3,Win32,60,Chrome,1920,1080,,,,,,,,,,,,,,,,,3,,,,,,,,,,,,,,,,,,,,,,,,,,,803.764735,167,left,0.515925,seaturtle     ,6,2,5,1,3,803.781655,803.781655,806.280685,0,12,12,12,1,167,6,1,seaturtle     ,giraffe     ,html/resources/sequences_IDs/A/02_seaturtle.jpg,html/resources/sequences_IDs/B/03_giraffe.jpg,2,3,2,1,1,1,2,3,0,48,,,,,,,,,,,,,,,,,,,,
,,,,,48,2020-07-04_16h07.31.945,retriever_ti,2020.1.3,Win32,60,Chrome,1920,1080,,,,,,,,,,,,,,,,,3,,,,,,,,,,,,,,,,,,,,,,,,,,,806.897955,168,left,0.41988,radio       ,7,10,3,1,3,806.914815,806.914815,809.414055,0,13,13,13,1,168,7,4,radio       ,scarf         ,html/resources/sequences_IDs/B/10_radio.jpg,html/resources/sequences_IDs/A/06_scarf.jpg,10,6,4,2,3,2,8,5,0,48,,,,,,,,,,,,,,,,,,,,
,,,,,48,2020-07-04_16h07.31.945,retriever_ti,2020.1.3,Win32,60,Chrome,1920,1080,,,,,,,,,,,,,,,,,3,,,,,,,,,,,,,,,,,,,,,,,,,,,810.031005,169,left,0.70414,scarf         ,4,6,1,1,1,810.06475,810.06475,812.56407,0,14,14,14,1,169,4,3,scarf         ,slipper     ,html/resources/sequences_IDs/A/06_scarf.jpg,html/resources/sequences_IDs/B/08_slipper.jpg,6,8,3,2,3,2,5,7,0,48,,,,,,,,,,,,,,,,,,,,
,,,,,48,2020-07-04_16h07.31.945,retriever_ti,2020.1.3,Win32,60,Chrome,1920,1080,,,,,,,,,,,,,,,,,3,,,,,,,,,,,,,,,,,,,,,,,,,,,813.664735,170,right,1.340015,seaturtle     ,6,2,1,1,0,813.698125,813.698125,816.19729,0,15,15,15,1,170,5,6,redfox      ,seaturtle     ,html/resources/sequences_IDs/B/01_redfox.jpg,html/resources/sequences_IDs/A/02_seaturtle.jpg,1,2,1,1,2,1,1,2,1,48,,,,,,,,,,,,,,,,,,,,
,,,,,48,2020-07-04_16h07.31.945,retriever_ti,2020.1.3,Win32,60,Chrome,1920,1080,,,,,,,,,,,,,,,,,3,,,,,,,,,,,,,,,,,,,,,,,,,,,817.29791,171,right,1.005365,radio       ,7,10,-1,0,1,817.331475,817.331475,819.830575,0,16,16,16,1,171,8,7,dress         ,radio       ,html/resources/sequences_IDs/A/07_dress.jpg,html/resources/sequences_IDs/B/10_radio.jpg,7,10,3,2,4,2,6,8,1,48,,,,,,,,,,,,,,,,,,,,
,,,,,48,2020-07-04_16h07.31.945,retriever_ti,2020.1.3,Win32,60,Chrome,1920,1080,,,,,,,,,,,,,,,,,3,,,,,,,,,,,,,,,,,,,,,,,,,,,820.93117,172,right,0.609405,seaturtle     ,6,2,-2,0,3,820.94829,820.94829,823.447265,0,17,17,17,1,172,8,6,dress         ,seaturtle     ,html/resources/sequences_IDs/A/07_dress.jpg,html/resources/sequences_IDs/A/02_seaturtle.jpg,7,2,3,2,2,1,6,2,0,48,,,,,,,,,,,,,,,,,,,,
,,,,,48,2020-07-04_16h07.31.945,retriever_ti,2020.1.3,Win32,60,Chrome,1920,1080,,,,,,,,,,,,,,,,,3,,,,,,,,,,,,,,,,,,,,,,,,,,,824.064545,173,right,2.249995,clownfish     ,2,4,1,1,1,824.098005,824.098005,826.59734,0,18,18,18,1,173,1,2,giraffe     ,clownfish     ,html/resources/sequences_IDs/B/03_giraffe.jpg,html/resources/sequences_IDs/A/04_clownfish.jpg,3,4,1,1,2,1,3,4,0,48,,,,,,,,,,,,,,,,,,,,
,,,,,48,2020-07-04_16h07.31.945,retriever_ti,2020.1.3,Win32,60,Chrome,1920,1080,,,,,,,,,,,,,,,,,3,,,,,,,,,,,,,,,,,,,,,,,,,,,827.69825,174,left,0.579425,radio       ,7,10,6,1,3,827.71474,827.71474,830.213935,0,19,19,19,1,174,7,1,radio       ,giraffe     ,html/resources/sequences_IDs/B/10_radio.jpg,html/resources/sequences_IDs/B/03_giraffe.jpg,10,3,4,2,1,1,8,3,0,48,,,,,,,,,,,,,,,,,,,,
,,,,,48,2020-07-04_16h07.31.945,retriever_ti,2020.1.3,Win32,60,Chrome,1920,1080,,,,,,,,,,,,,,,,,3,,,,,,,,,,,,,,,,,,,,,,,,,,,830.83121,175,right,0.39877,radio       ,7,10,5,1,3,830.84797,830.84797,833.347165,0,20,20,20,1,175,2,7,clownfish     ,radio       ,html/resources/sequences_IDs/A/04_clownfish.jpg,html/resources/sequences_IDs/B/10_radio.jpg,4,10,2,1,4,2,4,8,0,48,,,,,,,,,,,,,,,,,,,,
,,,,,48,2020-07-04_16h07.31.945,retriever_ti,2020.1.3,Win32,60,Chrome,1920,1080,,,,,,,,,,,,,,,,,3,,,,,,,,,,,,,,,,,,,,,,,,,,,833.964135,176,right,0.768445,slipper     ,3,8,1,1,1,833.99882,833.99882,836.497215,0,21,21,21,1,176,2,3,clownfish     ,slipper     ,html/resources/sequences_IDs/A/04_clownfish.jpg,html/resources/sequences_IDs/B/08_slipper.jpg,4,8,2,1,3,2,4,7,0,48,,,,,,,,,,,,,,,,,,,,
,,,,,48,2020-07-04_16h07.31.945,retriever_ti,2020.1.3,Win32,60,Chrome,1920,1080,,,,,,,,,,,,,,,,,3,,,,,,,,,,,,,,,,,,,,,,,,,,,837.59782,177,right,0.64768,scarf         ,4,6,2,1,3,837.631945,837.631945,840.13046,0,22,22,22,1,177,2,4,clownfish     ,scarf         ,html/resources/sequences_IDs/A/04_clownfish.jpg,html/resources/sequences_IDs/A/06_scarf.jpg,4,6,2,1,3,2,4,5,0,48,,,,,,,,,,,,,,,,,,,,
,,,,,48,2020-07-04_16h07.31.945,retriever_ti,2020.1.3,Win32,60,Chrome,1920,1080,,,,,,,,,,,,,,,,,3,,,,,,,,,,,,,,,,,,,,,,,,,,,840.74761,178,left,0.55539,scarf         ,4,6,-1,0,0,840.764585,840.764585,843.264035,0,23,23,23,1,178,4,5,scarf         ,redfox      ,html/resources/sequences_IDs/A/06_scarf.jpg,html/resources/sequences_IDs/B/01_redfox.jpg,6,1,3,2,1,1,5,1,0,48,,,,,,,,,,,,,,,,,,,,
,,,,,48,2020-07-04_16h07.31.945,retriever_ti,2020.1.3,Win32,60,Chrome,1920,1080,,,,,,,,,,,,,,,,,3,,,,,,,,,,,,,,,,,,,,,,,,,,,844.364605,179,right,0.42907,clownfish     ,2,4,-1,0,0,844.38181,844.38181,846.88046,0,24,24,24,1,179,3,2,slipper     ,clownfish     ,html/resources/sequences_IDs/B/08_slipper.jpg,html/resources/sequences_IDs/A/04_clownfish.jpg,8,4,3,2,2,1,7,4,0,48,,,,,,,,,,,,,,,,,,,,
,,,,,48,2020-07-04_16h07.31.945,retriever_ti,2020.1.3,Win32,60,Chrome,1920,1080,,,,,,,,,,,,,,,,,3,,,,,,,,,,,,,,,,,,,,,,,,,,,847.981015,180,left,0.61933,seaturtle     ,6,2,1,1,1,847.997875,847.997875,850.49704,0,25,25,25,1,180,6,5,seaturtle     ,redfox      ,html/resources/sequences_IDs/A/02_seaturtle.jpg,html/resources/sequences_IDs/B/01_redfox.jpg,2,1,2,1,1,1,2,1,0,48,,,,,,,,,,,,,,,,,,,,
,,,,,48,2020-07-04_16h07.31.945,retriever_ti,2020.1.3,Win32,60,Chrome,1920,1080,,,,,,,,,,,,,,,,,3,,,,,,,,,,,,,,,,,,,,,,,,,,,851.597765,181,left,0.531485,radio       ,7,10,1,1,1,851.631205,851.631205,854.130335,0,26,26,26,1,181,7,6,radio       ,seaturtle     ,html/resources/sequences_IDs/B/10_radio.jpg,html/resources/sequences_IDs/A/02_seaturtle.jpg,10,2,4,2,2,1,8,2,0,48,,,,,,,,,,,,,,,,,,,,
,,,,,48,2020-07-04_16h07.31.945,retriever_ti,2020.1.3,Win32,60,Chrome,1920,1080,,,,,,,,,,,,,,,,,3,,,,,,,,,,,,,,,,,,,,,,,,,,,855.231265,182,right,0.446345,radio       ,7,10,-1,0,0,855.247845,855.247845,857.747255,0,27,27,27,1,182,8,7,dress         ,radio       ,html/resources/sequences_IDs/A/07_dress.jpg,html/resources/sequences_IDs/B/10_radio.jpg,7,10,3,2,4,2,6,8,0,48,,,,,,,,,,,,,,,,,,,,
,,,,,48,2020-07-04_16h07.31.945,retriever_ti,2020.1.3,Win32,60,Chrome,1920,1080,,,,,,,,,,,,,,,,,3,,,,,,,,,,,,,,,,,,,,,,,,,,,858.84766,183,left,0.61559,scarf         ,4,6,1,1,0,858.86438,858.86438,861.363775,0,28,28,28,1,183,4,3,scarf         ,slipper     ,html/resources/sequences_IDs/A/06_scarf.jpg,html/resources/sequences_IDs/B/08_slipper.jpg,6,8,3,2,3,2,5,7,1,48,,,,,,,,,,,,,,,,,,,,
,,,,,48,2020-07-04_16h07.31.945,retriever_ti,2020.1.3,Win32,60,Chrome,1920,1080,,,,,,,,,,,,,,,,,3,,,,,,,,,,,,,,,,,,,,,,,,,,,862.464025,184,right,0.9036,redfox      ,5,1,2,1,3,862.497815,862.497815,864.997,0,29,29,29,1,184,3,5,slipper     ,redfox      ,html/resources/sequences_IDs/B/08_slipper.jpg,html/resources/sequences_IDs/B/01_redfox.jpg,8,1,3,2,1,1,7,1,0,48,,,,,,,,,,,,,,,,,,,,
,,,,,48,2020-07-04_16h07.31.945,retriever_ti,2020.1.3,Win32,60,Chrome,1920,1080,,,,,,,,,,,,,,,,,3,,,,,,,,,,,,,,,,,,,,,,,,,,,865.61443,185,left,0.5081,scarf         ,4,6,3,1,3,865.6311,865.6311,868.13024,0,30,30,30,1,185,4,1,scarf         ,giraffe     ,html/resources/sequences_IDs/A/06_scarf.jpg,html/resources/sequences_IDs/B/03_giraffe.jpg,6,3,3,2,1,1,5,3,0,48,,,,,,,,,,,,,,,,,,,,
,,,,,48,2020-07-04_16h07.31.945,retriever_ti,2020.1.3,Win32,60,Chrome,1920,1080,,,,,,,,,,,,,,,,,3,,,,,,,,,,,,,,,,,,,,,,,,,,,868.747455,186,right,0.767265,clownfish     ,2,4,-6,0,3,868.78175,868.78175,871.280305,0,31,31,31,1,186,8,2,dress         ,clownfish     ,html/resources/sequences_IDs/A/07_dress.jpg,html/resources/sequences_IDs/A/04_clownfish.jpg,7,4,3,2,2,1,6,4,0,48,,,,,,,,,,,,,,,,,,,,
,,,,,48,2020-07-04_16h07.31.945,retriever_ti,2020.1.3,Win32,60,Chrome,1920,1080,,,,,,,,,,,,,,,,,3,,,,,,,,,,,,,,,,,,,,,,,,,,,871.897555,187,right,0.70228,radio       ,7,10,4,1,3,871.915515,871.915515,874.413635,0,32,32,32,1,187,3,7,slipper     ,radio       ,html/resources/sequences_IDs/B/08_slipper.jpg,html/resources/sequences_IDs/B/10_radio.jpg,8,10,3,2,4,2,7,8,0,48,,,,,,,,,,,,,,,,,,,,
,,,,,48,2020-07-04_16h07.31.945,retriever_ti,2020.1.3,Win32,60,Chrome,1920,1080,,,,,,,,,,,,,,,,,3,,,,,,,,,,,,,,,,,,,,,,,,,,,875.03105,188,right,0.665855,seaturtle     ,6,2,1,1,1,875.064335,875.064335,877.56365,0,33,33,33,1,188,5,6,redfox      ,seaturtle     ,html/resources/sequences_IDs/B/01_redfox.jpg,html/resources/sequences_IDs/A/02_seaturtle.jpg,1,2,1,1,2,1,1,2,0,48,,,,,,,,,,,,,,,,,,,,
,,,,,48,2020-07-04_16h07.31.945,retriever_ti,2020.1.3,Win32,60,Chrome,1920,1080,,,,,,,,,,,,,,,,,3,,,,,,,,,,,,,,,,,,,,,,,,,,,878.66407,189,right,0.577055,slipper     ,3,8,1,1,1,878.69776,878.69776,881.196795,0,34,34,34,1,189,2,3,clownfish     ,slipper     ,html/resources/sequences_IDs/A/04_clownfish.jpg,html/resources/sequences_IDs/B/08_slipper.jpg,4,8,2,1,3,2,4,7,0,48,,,,,,,,,,,,,,,,,,,,
,,,,,48,2020-07-04_16h07.31.945,retriever_ti,2020.1.3,Win32,60,Chrome,1920,1080,,,,,,,,,,,,,,,,,3,,,,,,,,,,,,,,,,,,,,,,,,,,,882.29782,190,left,0.7784,seaturtle     ,6,2,-1,0,0,882.331755,882.331755,884.830095,0,35,35,35,1,190,6,7,seaturtle     ,radio       ,html/resources/sequences_IDs/A/02_seaturtle.jpg,html/resources/sequences_IDs/B/10_radio.jpg,2,10,2,1,4,2,2,8,0,48,,,,,,,,,,,,,,,,,,,,
,,,,,48,2020-07-04_16h07.31.945,retriever_ti,2020.1.3,Win32,60,Chrome,1920,1080,,,,,,,,,,,,,,,,,3,,,,,,,,,,,,,,,,,,,,,,,,,,,885.93106,191,left,0.649735,giraffe     ,1,3,-1,0,0,885.964595,885.964595,888.46344,0,36,36,36,1,191,1,2,giraffe     ,clownfish     ,html/resources/sequences_IDs/B/03_giraffe.jpg,html/resources/sequences_IDs/A/04_clownfish.jpg,3,4,1,1,2,1,3,4,0,48,,,,,,,,,,,,,,,,,,,,
,,,,,48,2020-07-04_16h07.31.945,retriever_ti,2020.1.3,Win32,60,Chrome,1920,1080,,,,,,,,,,,,,,,,,3,,,,,,,,,,,,,,,,,,,,,,,,,,,889.56406,192,left,0.606615,seaturtle     ,6,2,4,1,3,889.5809,889.5809,892.080085,0,37,37,37,1,192,6,2,seaturtle     ,clownfish     ,html/resources/sequences_IDs/A/02_seaturtle.jpg,html/resources/sequences_IDs/A/04_clownfish.jpg,2,4,2,1,2,1,2,4,0,48,,,,,,,,,,,,,,,,,,,,
,,,,,48,2020-07-04_16h07.31.945,retriever_ti,2020.1.3,Win32,60,Chrome,1920,1080,,,,,,,,,,,,,,,,,3,,,,,,,,,,,,,,,,,,,,,,,,,,,892.697285,193,right,0.463845,radio       ,7,10,1,1,1,892.71533,892.71533,895.213375,0,38,38,38,1,193,6,7,seaturtle     ,radio       ,html/resources/sequences_IDs/A/02_seaturtle.jpg,html/resources/sequences_IDs/B/10_radio.jpg,2,10,2,1,4,2,2,8,0,48,,,,,,,,,,,,,,,,,,,,
,,,,,48,2020-07-04_16h07.31.945,retriever_ti,2020.1.3,Win32,60,Chrome,1920,1080,,,,,,,,,,,,,,,,,3,,,,,,,,,,,,,,,,,,,,,,,,,,,896.314125,194,right,0.737985,scarf         ,4,6,1,1,1,896.33087,896.33087,898.830055,0,39,39,39,1,194,3,4,slipper     ,scarf         ,html/resources/sequences_IDs/B/08_slipper.jpg,html/resources/sequences_IDs/A/06_scarf.jpg,8,6,3,2,3,2,7,5,0,48,,,,,,,,,,,,,,,,,,,,
,,,,,48,2020-07-04_16h07.31.945,retriever_ti,2020.1.3,Win32,60,Chrome,1920,1080,,,,,,,,,,,,,,,,,3,,,,,,,,,,,,,,,,,,,,,,,,,,,899.93095,195,left,0.60709,redfox      ,5,1,4,1,3,899.94741,899.94741,902.446785,0,40,40,40,1,195,5,1,redfox      ,giraffe     ,html/resources/sequences_IDs/B/01_redfox.jpg,html/resources/sequences_IDs/B/03_giraffe.jpg,1,3,1,1,1,1,1,3,0,48,,,,,,,,,,,,,,,,,,,,
,,,,,48,2020-07-04_16h07.31.945,retriever_ti,2020.1.3,Win32,60,Chrome,1920,1080,,,,,,,,,,,,,,,,,3,,,,,,,,,,,,,,,,,,,,,,,,,,,903.06407,196,left,0.508995,giraffe     ,1,3,-1,0,1,903.09759,903.09759,905.59663,0,41,41,41,1,196,1,2,giraffe     ,clownfish     ,html/resources/sequences_IDs/B/03_giraffe.jpg,html/resources/sequences_IDs/A/04_clownfish.jpg,3,4,1,1,2,1,3,4,1,48,,,,,,,,,,,,,,,,,,,,
,,,,,48,2020-07-04_16h07.31.945,retriever_ti,2020.1.3,Win32,60,Chrome,1920,1080,,,,,,,,,,,,,,,,,3,,,,,,,,,,,,,,,,,,,,,,,,,,,906.697055,197,left,0.50203,clownfish     ,2,4,-1,0,1,906.71426,906.71426,909.213305,0,42,42,42,1,197,2,3,clownfish     ,slipper     ,html/resources/sequences_IDs/A/04_clownfish.jpg,html/resources/sequences_IDs/B/08_slipper.jpg,4,8,2,1,3,2,4,7,1,48,,,,,,,,,,,,,,,,,,,,
,,,,,48,2020-07-04_16h07.31.945,retriever_ti,2020.1.3,Win32,60,Chrome,1920,1080,,,,,,,,,,,,,,,,,3,,,,,,,,,,,,,,,,,,,,,,,,,,,910.313965,198,left,1.02743,scarf         ,4,6,-1,0,0,910.34743,910.34743,912.84679,0,43,43,43,1,198,4,5,scarf         ,redfox      ,html/resources/sequences_IDs/A/06_scarf.jpg,html/resources/sequences_IDs/B/01_redfox.jpg,6,1,3,2,1,1,5,1,0,48,,,,,,,,,,,,,,,,,,,,
,,,,,48,2020-07-04_16h07.31.945,retriever_ti,2020.1.3,Win32,60,Chrome,1920,1080,,,,,,,,,,,,,,,,,3,,,,,,,,,,,,,,,,,,,,,,,,,,,913.94751,199,right,0.585635,slipper     ,3,8,-1,0,0,913.96402,913.96402,916.463275,0,44,44,44,1,199,4,3,scarf         ,slipper     ,html/resources/sequences_IDs/A/06_scarf.jpg,html/resources/sequences_IDs/B/08_slipper.jpg,6,8,3,2,3,2,5,7,0,48,,,,,,,,,,,,,,,,,,,,
,,,,,48,2020-07-04_16h07.31.945,retriever_ti,2020.1.3,Win32,60,Chrome,1920,1080,,,,,,,,,,,,,,,,,3,,,,,,,,,,,,,,,,,,,,,,,,,,,917.563865,200,left,0.675085,seaturtle     ,6,2,2,1,3,917.59745,917.59745,920.096545,0,45,45,45,1,200,6,4,seaturtle     ,scarf         ,html/resources/sequences_IDs/A/02_seaturtle.jpg,html/resources/sequences_IDs/A/06_scarf.jpg,2,6,2,1,3,2,2,5,0,48,,,,,,,,,,,,,,,,,,,,
,,,,,48,2020-07-04_16h07.31.945,retriever_ti,2020.1.3,Win32,60,Chrome,1920,1080,,,,,,,,,,,,,,,,,3,,,,,,,,,,,,,,,,,,,,,,,,,,,920.71369,201,left,0.631395,radio       ,7,10,4,1,3,920.74809,920.74809,923.246565,0,46,46,46,1,201,7,3,radio       ,slipper     ,html/resources/sequences_IDs/B/10_radio.jpg,html/resources/sequences_IDs/B/08_slipper.jpg,10,8,4,2,3,2,8,7,0,48,,,,,,,,,,,,,,,,,,,,
,,,,,48,2020-07-04_16h07.31.945,retriever_ti,2020.1.3,Win32,60,Chrome,1920,1080,,,,,,,,,,,,,,,,,3,,,,,,,,,,,,,,,,,,,,,,,,,,,923.863835,202,right,0.646265,scarf         ,4,6,-4,0,3,923.881365,923.881365,926.379995,0,47,47,47,1,202,8,4,dress         ,scarf         ,html/resources/sequences_IDs/A/07_dress.jpg,html/resources/sequences_IDs/A/06_scarf.jpg,7,6,3,2,3,2,6,5,0,48,,,,,,,,,,,,,,,,,,,,
,,,,,48,2020-07-04_16h07.31.945,retriever_ti,2020.1.3,Win32,60,Chrome,1920,1080,,,,,,,,,,,,,,,,,3,,,,,,,,,,,,,,,,,,,,,,,,,,,926.997155,203,right,0.559205,dress         ,8,7,5,1,3,927.015295,927.015295,929.513115,0,48,48,48,1,203,3,8,slipper     ,dress         ,html/resources/sequences_IDs/B/08_slipper.jpg,html/resources/sequences_IDs/A/07_dress.jpg,8,7,3,2,3,2,7,6,0,48,,,,,,,,,,,,,,,,,,,,
,,,,,48,2020-07-04_16h07.31.945,retriever_ti,2020.1.3,Win32,60,Chrome,1920,1080,,,,,,,,,,,,,,,,,3,,,,,,,,,,,,,,,,,,,,,,,,,,,930.130265,204,right,0.557345,radio       ,7,10,2,1,3,930.164055,930.164055,932.66321,0,49,49,49,1,204,5,7,redfox      ,radio       ,html/resources/sequences_IDs/B/01_redfox.jpg,html/resources/sequences_IDs/B/10_radio.jpg,1,10,1,1,4,2,1,8,0,48,,,,,,,,,,,,,,,,,,,,
,,,,,48,2020-07-04_16h07.31.945,retriever_ti,2020.1.3,Win32,60,Chrome,1920,1080,,,,,,,,,,,,,,,,,3,,,,,,,,,,,,,,,,,,,,,,,,,,,933.280475,205,left,0.60921,dress         ,8,7,7,1,3,933.314365,933.314365,935.8132,0,50,50,50,1,205,8,1,dress         ,giraffe     ,html/resources/sequences_IDs/A/07_dress.jpg,html/resources/sequences_IDs/B/03_giraffe.jpg,7,3,3,2,1,1,6,3,0,48,,,,,,,,,,,,,,,,,,,,
,,,,,48,2020-07-04_16h07.31.945,retriever_ti,2020.1.3,Win32,60,Chrome,1920,1080,,,,,,,,,,,,,,,,,3,,,,,,,,,,,,,,,,,,,,,,,,,,,936.430305,206,left,0.50138,radio       ,7,10,-1,0,0,936.463985,936.463985,938.96322,0,51,51,51,1,206,7,8,radio       ,dress         ,html/resources/sequences_IDs/B/10_radio.jpg,html/resources/sequences_IDs/A/07_dress.jpg,10,7,4,2,3,2,8,6,0,48,,,,,,,,,,,,,,,,,,,,
,,,,,48,2020-07-04_16h07.31.945,retriever_ti,2020.1.3,Win32,60,Chrome,1920,1080,,,,,,,,,,,,,,,,,3,,,,,,,,,,,,,,,,,,,,,,,,,,,940.06388,207,left,0.46242,seaturtle     ,6,2,-2,0,3,940.097865,940.097865,942.59638,0,52,52,52,1,207,6,8,seaturtle     ,dress         ,html/resources/sequences_IDs/A/02_seaturtle.jpg,html/resources/sequences_IDs/A/07_dress.jpg,2,7,2,1,3,2,2,6,0,48,,,,,,,,,,,,,,,,,,,,
,,,,,48,2020-07-04_16h07.31.945,retriever_ti,2020.1.3,Win32,60,Chrome,1920,1080,,,,,,,,,,,,,,,,,3,,,,,,,,,,,,,,,,,,,,,,,,,,,943.2138,208,right,0.68774,seaturtle     ,6,2,5,1,3,943.23118,943.23118,945.729765,0,53,53,53,1,208,1,6,giraffe     ,seaturtle     ,html/resources/sequences_IDs/B/03_giraffe.jpg,html/resources/sequences_IDs/A/02_seaturtle.jpg,3,2,1,1,2,1,3,2,0,48,,,,,,,,,,,,,,,,,,,,
,,,,,48,2020-07-04_16h07.31.945,retriever_ti,2020.1.3,Win32,60,Chrome,1920,1080,,,,,,,,,,,,,,,,,3,,,,,,,,,,,,,,,,,,,,,,,,,,,946.34664,209,left,0.660625,radio       ,7,10,2,1,3,946.364715,946.364715,948.86305,0,54,54,54,1,209,7,5,radio       ,redfox      ,html/resources/sequences_IDs/B/10_radio.jpg,html/resources/sequences_IDs/B/01_redfox.jpg,10,1,4,2,1,1,8,1,0,48,,,,,,,,,,,,,,,,,,,,
,,,,,48,2020-07-04_16h07.31.945,retriever_ti,2020.1.3,Win32,60,Chrome,1920,1080,,,,,,,,,,,,,,,,,3,,,,,,,,,,,,,,,,,,,,,,,,,,,949.4804,210,right,0.599775,scarf         ,4,6,1,1,1,949.513815,949.513815,952.013095,0,55,55,55,1,210,3,4,slipper     ,scarf         ,html/resources/sequences_IDs/B/08_slipper.jpg,html/resources/sequences_IDs/A/06_scarf.jpg,8,6,3,2,3,2,7,5,0,48,,,,,,,,,,,,,,,,,,,,
,,,,,48,2020-07-04_16h07.31.945,retriever_ti,2020.1.3,Win32,60,Chrome,1920,1080,,,,,,,,,,,,,,,,,3,,,,,,,,,,,,,,,,,,,,,,,,,,,953.114025,211,left,0.460645,clownfish     ,2,4,-3,0,3,953.14711,953.14711,955.64633,0,56,56,56,1,211,2,5,clownfish     ,redfox      ,html/resources/sequences_IDs/A/04_clownfish.jpg,html/resources/sequences_IDs/B/01_redfox.jpg,4,1,2,1,1,1,4,1,0,48,,,,,,,,,,,,,,,,,,,,
,,,,,48,2020-07-04_16h07.31.945,retriever_ti,2020.1.3,Win32,60,Chrome,1920,1080,,,,,,,,,,,,,,,,,3,,,,,,,,,,,,,,,,,,,,,,,,,,,956.263305,212,right,0.67218,seaturtle     ,6,2,4,1,3,956.281005,956.281005,958.779695,0,57,57,57,1,212,2,6,clownfish     ,seaturtle     ,html/resources/sequences_IDs/A/04_clownfish.jpg,html/resources/sequences_IDs/A/02_seaturtle.jpg,4,2,2,1,2,1,4,2,0,48,,,,,,,,,,,,,,,,,,,,
,,,,,48,2020-07-04_16h07.31.945,retriever_ti,2020.1.3,Win32,60,Chrome,1920,1080,,,,,,,,,,,,,,,,,3,,,,,,,,,,,,,,,,,,,,,,,,,,,959.39702,213,right,1.492785,clownfish     ,2,4,-3,0,3,959.4149,959.4149,961.913005,0,58,58,58,1,213,5,2,redfox      ,clownfish     ,html/resources/sequences_IDs/B/01_redfox.jpg,html/resources/sequences_IDs/A/04_clownfish.jpg,1,4,1,1,2,1,1,4,0,48,,,,,,,,,,,,,,,,,,,,
,,,,,48,2020-07-04_16h07.31.945,retriever_ti,2020.1.3,Win32,60,Chrome,1920,1080,,,,,,,,,,,,,,,,,3,,,,,,,,,,,,,,,,,,,,,,,,,,,962.52991,214,left,0.630075,scarf         ,4,6,2,1,3,962.547985,962.547985,965.046205,0,59,59,59,1,214,4,2,scarf         ,clownfish     ,html/resources/sequences_IDs/A/06_scarf.jpg,html/resources/sequences_IDs/A/04_clownfish.jpg,6,4,3,2,2,1,5,4,0,48,,,,,,,,,,,,,,,,,,,,
,,,,,48,2020-07-04_16h07.31.945,retriever_ti,2020.1.3,Win32,60,Chrome,1920,1080,,,,,,,,,,,,,,,,,3,,,,,,,,,,,,,,,,,,,,,,,,,,,965.663655,215,left,0.6492,seaturtle     ,6,2,1,1,1,965.69714,965.69714,968.19626,0,60,60,60,1,215,6,5,seaturtle     ,redfox      ,html/resources/sequences_IDs/A/02_seaturtle.jpg,html/resources/sequences_IDs/B/01_redfox.jpg,2,1,2,1,1,1,2,1,0,48,,,,,,,,,,,,,,,,,,,,
,,,,,48,2020-07-04_16h07.31.945,retriever_ti,2020.1.3,Win32,60,Chrome,1920,1080,,,,,,,,,,,,,,,,,3,,,,,,,,,,,,,,,,,,,,,,,,,,,969.297105,216,right,1.3172,scarf         ,4,6,-1,0,0,969.313675,969.313675,971.812895,0,61,61,61,1,216,5,4,redfox      ,scarf         ,html/resources/sequences_IDs/B/01_redfox.jpg,html/resources/sequences_IDs/A/06_scarf.jpg,1,6,1,1,3,2,1,5,0,48,,,,,,,,,,,,,,,,,,,,
,,,,,48,2020-07-04_16h07.31.945,retriever_ti,2020.1.3,Win32,60,Chrome,1920,1080,,,,,,,,,,,,,,,,,3,,,,,,,,,,,,,,,,,,,,,,,,,,,972.913365,217,left,0.42216,giraffe     ,1,3,-2,0,3,972.93095,972.93095,975.429585,0,62,62,62,1,217,1,3,giraffe     ,slipper     ,html/resources/sequences_IDs/B/03_giraffe.jpg,html/resources/sequences_IDs/B/08_slipper.jpg,3,8,1,1,3,2,3,7,0,48,,,,,,,,,,,,,,,,,,,,
,,,,,48,2020-07-04_16h07.31.945,retriever_ti,2020.1.3,Win32,60,Chrome,1920,1080,,,,,,,,,,,,,,,,,3,,,,,,,,,,,,,,,,,,,,,,,,,,,976.04649,218,right,0.750645,clownfish     ,2,4,-1,0,0,976.06427,976.06427,978.562865,0,63,63,63,1,218,3,2,slipper     ,clownfish     ,html/resources/sequences_IDs/B/08_slipper.jpg,html/resources/sequences_IDs/A/04_clownfish.jpg,8,4,3,2,2,1,7,4,0,48,,,,,,,,,,,,,,,,,,,,
,,,,,48,2020-07-04_16h07.31.945,retriever_ti,2020.1.3,Win32,60,Chrome,1920,1080,,,,,,,,,,,,,,,,,3,,,,,,,,,,,,,,,,,,,,,,,,,,,979.66349,219,right,0.613165,giraffe     ,1,3,-2,0,3,979.6809,979.6809,982.179505,0,64,64,64,1,219,3,1,slipper     ,giraffe     ,html/resources/sequences_IDs/B/08_slipper.jpg,html/resources/sequences_IDs/B/03_giraffe.jpg,8,3,3,2,1,1,7,3,0,48,,,,,,,,,,,,,,,,,,,,
,,,,,48,2020-07-04_16h07.31.945,retriever_ti,2020.1.3,Win32,60,Chrome,1920,1080,,,,,,,,,,,,,,,,,3,,,,,,,,,,,,,,,,,,,,,,,,,,,982.79641,220,right,0.596095,redfox      ,5,1,-3,0,3,982.83033,982.83033,985.329395,0,65,65,65,1,220,8,5,dress         ,redfox      ,html/resources/sequences_IDs/A/07_dress.jpg,html/resources/sequences_IDs/B/01_redfox.jpg,7,1,3,2,1,1,6,1,0,48,,,,,,,,,,,,,,,,,,,,
,,,,,48,2020-07-04_16h07.31.945,retriever_ti,2020.1.3,Win32,60,Chrome,1920,1080,,,,,,,,,,,,,,,,,3,,,,,,,,,,,,,,,,,,,,,,,,,,,985.94693,221,right,0.69903,scarf         ,4,6,-1,0,0,985.98076,985.98076,988.479505,0,66,66,66,1,221,5,4,redfox      ,scarf         ,html/resources/sequences_IDs/B/01_redfox.jpg,html/resources/sequences_IDs/A/06_scarf.jpg,1,6,1,1,3,2,1,5,0,48,,,,,,,,,,,,,,,,,,,,
,,,,,48,2020-07-04_16h07.31.945,retriever_ti,2020.1.3,Win32,60,Chrome,1920,1080,,,,,,,,,,,,,,,,,3,,,,,,,,,,,,,,,,,,,,,,,,,,,989.580215,222,left,0.41234,redfox      ,5,1,1,1,0,989.614335,989.614335,992.11284,0,67,67,67,1,222,5,4,redfox      ,scarf         ,html/resources/sequences_IDs/B/01_redfox.jpg,html/resources/sequences_IDs/A/06_scarf.jpg,1,6,1,1,3,2,1,5,1,48,,,,,,,,,,,,,,,,,,,,
