instructionsLoop.thisRepN,instructionsLoop.thisTrialN,instructionsLoop.thisN,instructionsLoop.thisIndex,instructionsLoop.ran,participant,date,expName,psychopyVersion,OS,frameRate,browser,xResolution,yResolution,fix_onset,tprac,practiceKey.keys,practiceKey.rt,pracitem_chosen_name,acc_practice,P1_onsetPrac,P2_onsetPrac,onsetFeedbPrac,practiceTrials.thisRepN,practiceTrials.thisTrialN,practiceTrials.thisN,practiceTrials.thisIndex,practiceTrials.ran,P1,P2,Block,LocItem1,LocItem2,NameItem1,NameItem2,key_respAC_prac.keys,key_respAC_prac.corr,key_respAC_prac.rt,AC_acc,Attentions.thisRepN,Attentions.thisTrialN,Attentions.thisN,Attentions.thisIndex,Attentions.ran,Stim,Loc1,Loc2,Loc3,Loc4,CorrAns,keyDisturbed.keys,keyDisturbed.rt,repPractice.thisRepN,repPractice.thisTrialN,repPractice.thisN,repPractice.thisIndex,repPractice.ran,fixcross_onsetMain,trialNumber,key_resp.keys,key_resp.rt,item_chosen_name,item_chosen_value,item_chosen_ID,diff_chosen_minus_reject,acc_real,acc_feedback,P1_onset,P2_onset,feedb_onset,trials.thisRepN,trials.thisTrialN,trials.thisN,trials.thisIndex,trials.ran,Trial,ValueP1,ValueP2,P1name,P2name,P1Loc,P2Loc,P1id,P2id,Micro_categoryP1,Macro_categoryP1,Micro_categoryP2,Macro_categoryP2,ID_sequenceP1,ID_sequenceP2,InverseFb,pNumber,repBlocks.thisRepN,repBlocks.thisTrialN,repBlocks.thisN,repBlocks.thisIndex,repBlocks.ran,key_respAC.keys,key_respAC.corr,key_respAC.rt,trials_AC.thisRepN,trials_AC.thisTrialN,trials_AC.thisN,trials_AC.thisIndex,trials_AC.ran,Bonus,BonusLoop.thisRepN,BonusLoop.thisTrialN,BonusLoop.thisN,BonusLoop.thisIndex,BonusLoop.ran,comments
0,0,0,0,1,49,2020-07-04_15h09.35.751,retriever_ti,2020.1.3,Win32,60,Firefox,1536,864,,,,,,,,,,,,,,,,,,,,,,,,,,,,,,,,,,,,,,,,,,,,,,,,,,,,,,,,,,,,,,,,,,,,,,,,,,,,,,,,,,,,,,,,,,,,,,,,,,
1,0,1,0,1,49,2020-07-04_15h09.35.751,retriever_ti,2020.1.3,Win32,60,Firefox,1536,864,,,,,,,,,,,,,,,,,,,,,,,,,,,,,,,,,,,,,,,,,,,,,,,,,,,,,,,,,,,,,,,,,,,,,,,,,,,,,,,,,,,,,,,,,,,,,,,,,,
2,0,2,0,1,49,2020-07-04_15h09.35.751,retriever_ti,2020.1.3,Win32,60,Firefox,1536,864,,,,,,,,,,,,,,,,,,,,,,,,,,,,,,,,,,,,,,,,,,,,,,,,,,,,,,,,,,,,,,,,,,,,,,,,,,,,,,,,,,,,,,,,,,,,,,,,,,
3,0,3,0,1,49,2020-07-04_15h09.35.751,retriever_ti,2020.1.3,Win32,60,Firefox,1536,864,,,,,,,,,,,,,,,,,,,,,,,,,,,,,,,,,,,,,,,,,,,,,,,,,,,,,,,,,,,,,,,,,,,,,,,,,,,,,,,,,,,,,,,,,,,,,,,,,,
4,0,4,0,1,49,2020-07-04_15h09.35.751,retriever_ti,2020.1.3,Win32,60,Firefox,1536,864,,,,,,,,,,,,,,,,,,,,,,,,,,,,,,,,,,,,,,,,,,,,,,,,,,,,,,,,,,,,,,,,,,,,,,,,,,,,,,,,,,,,,,,,,,,,,,,,,,
5,0,5,0,1,49,2020-07-04_15h09.35.751,retriever_ti,2020.1.3,Win32,60,Firefox,1536,864,,,,,,,,,,,,,,,,,,,,,,,,,,,,,,,,,,,,,,,,,,,,,,,,,,,,,,,,,,,,,,,,,,,,,,,,,,,,,,,,,,,,,,,,,,,,,,,,,,
6,0,6,0,1,49,2020-07-04_15h09.35.751,retriever_ti,2020.1.3,Win32,60,Firefox,1536,864,,,,,,,,,,,,,,,,,,,,,,,,,,,,,,,,,,,,,,,,,,,,,,,,,,,,,,,,,,,,,,,,,,,,,,,,,,,,,,,,,,,,,,,,,,,,,,,,,,
7,0,7,0,1,49,2020-07-04_15h09.35.751,retriever_ti,2020.1.3,Win32,60,Firefox,1536,864,,,,,,,,,,,,,,,,,,,,,,,,,,,,,,,,,,,,,,,,,,,,,,,,,,,,,,,,,,,,,,,,,,,,,,,,,,,,,,,,,,,,,,,,,,,,,,,,,,
8,0,8,0,1,49,2020-07-04_15h09.35.751,retriever_ti,2020.1.3,Win32,60,Firefox,1536,864,,,,,,,,,,,,,,,,,,,,,,,,,,,,,,,,,,,,,,,,,,,,,,,,,,,,,,,,,,,,,,,,,,,,,,,,,,,,,,,,,,,,,,,,,,,,,,,,,,
9,0,9,0,1,49,2020-07-04_15h09.35.751,retriever_ti,2020.1.3,Win32,60,Firefox,1536,864,,,,,,,,,,,,,,,,,,,,,,,,,,,,,,,,,,,,,,,,,,,,,,,,,,,,,,,,,,,,,,,,,,,,,,,,,,,,,,,,,,,,,,,,,,,,,,,,,,
10,0,10,0,1,49,2020-07-04_15h09.35.751,retriever_ti,2020.1.3,Win32,60,Firefox,1536,864,,,,,,,,,,,,,,,,,,,,,,,,,,,,,,,,,,,,,,,,,,,,,,,,,,,,,,,,,,,,,,,,,,,,,,,,,,,,,,,,,,,,,,,,,,,,,,,,,,
11,0,11,0,1,49,2020-07-04_15h09.35.751,retriever_ti,2020.1.3,Win32,60,Firefox,1536,864,,,,,,,,,,,,,,,,,,,,,,,,,,,,,,,,,,,,,,,,,,,,,,,,,,,,,,,,,,,,,,,,,,,,,,,,,,,,,,,,,,,,,,,,,,,,,,,,,,
12,0,12,0,1,49,2020-07-04_15h09.35.751,retriever_ti,2020.1.3,Win32,60,Firefox,1536,864,,,,,,,,,,,,,,,,,,,,,,,,,,,,,,,,,,,,,,,,,,,,,,,,,,,,,,,,,,,,,,,,,,,,,,,,,,,,,,,,,,,,,,,,,,,,,,,,,,
13,0,13,0,1,49,2020-07-04_15h09.35.751,retriever_ti,2020.1.3,Win32,60,Firefox,1536,864,,,,,,,,,,,,,,,,,,,,,,,,,,,,,,,,,,,,,,,,,,,,,,,,,,,,,,,,,,,,,,,,,,,,,,,,,,,,,,,,,,,,,,,,,,,,,,,,,,
14,0,14,0,1,49,2020-07-04_15h09.35.751,retriever_ti,2020.1.3,Win32,60,Firefox,1536,864,,,,,,,,,,,,,,,,,,,,,,,,,,,,,,,,,,,,,,,,,,,,,,,,,,,,,,,,,,,,,,,,,,,,,,,,,,,,,,,,,,,,,,,,,,,,,,,,,,
,,,,,49,2020-07-04_15h09.35.751,retriever_ti,2020.1.3,Win32,60,Firefox,1536,864,206.172,1,right,1.118,canary,1,206.213,206.213,208.711,0,0,0,0,1,2,5,1,html/resources/stimuli_practice_decision/04_beetle.jpg,html/resources/stimuli_practice_decision/02_canary.jpg,beetle,canary,,,,,,,,,,,,,,,,,,,,,,,,,,,,,,,,,,,,,,,,,,,,,,,,,,,,,,,,,,,,,,,,,,,,,,,,,,,,,
,,,,,49,2020-07-04_15h09.35.751,retriever_ti,2020.1.3,Win32,60,Firefox,1536,864,209.238,2,left,1.93,rabbit,1,209.248,209.248,211.741,0,1,1,1,1,4,3,1,html/resources/stimuli_practice_decision/01_rabbit.jpg,html/resources/stimuli_practice_decision/07_sock.jpg,rabbit,sock,,,,,,,,,,,,,,,,,,,,,,,,,,,,,,,,,,,,,,,,,,,,,,,,,,,,,,,,,,,,,,,,,,,,,,,,,,,,,
,,,,,49,2020-07-04_15h09.35.751,retriever_ti,2020.1.3,Win32,60,Firefox,1536,864,212.743,3,left,1.671,pullover,1,212.778,212.778,215.274,0,2,2,2,1,6,2,1,html/resources/stimuli_practice_decision/06_pullover.jpg,html/resources/stimuli_practice_decision/04_beetle.jpg,pullover,beetle,,,,,,,,,,,,,,,,,,,,,,,,,,,,,,,,,,,,,,,,,,,,,,,,,,,,,,,,,,,,,,,,,,,,,,,,,,,,,
,,,,,49,2020-07-04_15h09.35.751,retriever_ti,2020.1.3,Win32,60,Firefox,1536,864,215.791,4,left,1.663,glasses,1,215.827,215.827,218.323,0,3,3,3,1,7,1,1,html/resources/stimuli_practice_decision/05_glasses.jpg,html/resources/stimuli_practice_decision/08_handmixer.jpg,glasses,handmixer,,,,,,,,,,,,,,,,,,,,,,,,,,,,,,,,,,,,,,,,,,,,,,,,,,,,,,,,,,,,,,,,,,,,,,,,,,,,,
,,,,,49,2020-07-04_15h09.35.751,retriever_ti,2020.1.3,Win32,60,Firefox,1536,864,218.84,5,left,1.941,glasses,1,218.874,218.874,221.372,0,4,4,4,1,7,6,1,html/resources/stimuli_practice_decision/05_glasses.jpg,html/resources/stimuli_practice_decision/06_pullover.jpg,glasses,pullover,,,,,,,,,,,,,,,,,,,,,,,,,,,,,,,,,,,,,,,,,,,,,,,,,,,,,,,,,,,,,,,,,,,,,,,,,,,,,
,,,,,49,2020-07-04_15h09.35.751,retriever_ti,2020.1.3,Win32,60,Firefox,1536,864,222.372,6,right,1.559,glasses,1,222.406,222.406,224.904,0,5,5,5,1,4,7,1,html/resources/stimuli_practice_decision/01_rabbit.jpg,html/resources/stimuli_practice_decision/05_glasses.jpg,rabbit,glasses,,,,,,,,,,,,,,,,,,,,,,,,,,,,,,,,,,,,,,,,,,,,,,,,,,,,,,,,,,,,,,,,,,,,,,,,,,,,,
,,,,,49,2020-07-04_15h09.35.751,retriever_ti,2020.1.3,Win32,60,Firefox,1536,864,225.422,7,left,1.816,handmixer,0,225.44,225.44,227.937,0,6,6,6,1,1,2,1,html/resources/stimuli_practice_decision/08_handmixer.jpg,html/resources/stimuli_practice_decision/04_beetle.jpg,handmixer,beetle,,,,,,,,,,,,,,,,,,,,,,,,,,,,,,,,,,,,,,,,,,,,,,,,,,,,,,,,,,,,,,,,,,,,,,,,,,,,,
,,,,,49,2020-07-04_15h09.35.751,retriever_ti,2020.1.3,Win32,60,Firefox,1536,864,228.938,8,left,1.841,rabbit,1,228.955,228.955,231.453,0,7,7,7,1,4,3,1,html/resources/stimuli_practice_decision/01_rabbit.jpg,html/resources/stimuli_practice_decision/07_sock.jpg,rabbit,sock,,,,,,,,,,,,,,,,,,,,,,,,,,,,,,,,,,,,,,,,,,,,,,,,,,,,,,,,,,,,,,,,,,,,,,,,,,,,,
,,,,,49,2020-07-04_15h09.35.751,retriever_ti,2020.1.3,Win32,60,Firefox,1536,864,,,,,,,,,,,,,,,,,,,,,,up,1,1.767,1,0,0,0,0,1,html/resources/sequences_IDs/circle.png,circle ↑,square →,triangle ↓,← star ,up,,,,,,,,,,,,,,,,,,,,,,,,,,,,,,,,,,,,,,,,,,,,,,,,,,,,,,,,,,,,,,
,,,,,49,2020-07-04_15h09.35.751,retriever_ti,2020.1.3,Win32,60,Firefox,1536,864,,,,,,,,,,,,,,,,,,,,,,down,1,2.616,1,0,1,1,3,1,html/resources/sequences_IDs/triangle.png,star ↑,square →,triangle ↓,← circle,down,,,,,,,,,,,,,,,,,,,,,,,,,,,,,,,,,,,,,,,,,,,,,,,,,,,,,,,,,,,,,,
,,,,,49,2020-07-04_15h09.35.751,retriever_ti,2020.1.3,Win32,60,Firefox,1536,864,,,,,,,,,,,,,,,,,,,,,,left,1,1.719,1,0,2,2,2,1,html/resources/sequences_IDs/square1.png,star ↑,triangle →,circle ↓,← square,left,,,,,,,,,,,,,,,,,,,,,,,,,,,,,,,,,,,,,,,,,,,,,,,,,,,,,,,,,,,,,,
,,,,,49,2020-07-04_15h09.35.751,retriever_ti,2020.1.3,Win32,60,Firefox,1536,864,,,,,,,,,,,,,,,,,,,,,,down,1,2.645,1,0,3,3,1,1,html/resources/sequences_IDs/star.png,square ↑,circle →,star ↓,← triangle,down,,,,,,,,,,,,,,,,,,,,,,,,,,,,,,,,,,,,,,,,,,,,,,,,,,,,,,,,,,,,,,
,,,,,49,2020-07-04_15h09.35.751,retriever_ti,2020.1.3,Win32,60,Firefox,1536,864,,,,,,,,,,,,,,,,,,,,,,,,,,,,,,,,,,,,,0,12.02,0,0,0,0,1,,,,,,,,,,,,,,,,,,,,,,,,,,,,,,,,,,,,,,,,,,,,,,,,,,,,,,,
,,,,,49,2020-07-04_15h09.35.751,retriever_ti,2020.1.3,Win32,60,Firefox,1536,864,258.441,9,NaN,NaN,No_response,2,258.465,258.465,260.962,0,0,0,0,1,6,7,1,html/resources/stimuli_practice_decision/06_pullover.jpg,html/resources/stimuli_practice_decision/05_glasses.jpg,pullover,glasses,,,,,,,,,,,,,,,,,,,,,,,,,,,,,,,,,,,,,,,,,,,,,,,,,,,,,,,,,,,,,,,,,,,,,,,,,,,,,
,,,,,49,2020-07-04_15h09.35.751,retriever_ti,2020.1.3,Win32,60,Firefox,1536,864,261.963,10,left,0.805,pullover,1,261.979,261.979,264.478,0,1,1,1,1,6,2,1,html/resources/stimuli_practice_decision/06_pullover.jpg,html/resources/stimuli_practice_decision/04_beetle.jpg,pullover,beetle,,,,,,,,,,,,,,,,,,,,,,,,,,,,,,,,,,,,,,,,,,,,,,,,,,,,,,,,,,,,,,,,,,,,,,,,,,,,,
,,,,,49,2020-07-04_15h09.35.751,retriever_ti,2020.1.3,Win32,60,Firefox,1536,864,264.996,11,right,1.066,pullover,1,265.03,265.03,267.528,0,2,2,2,1,5,6,1,html/resources/stimuli_practice_decision/02_canary.jpg,html/resources/stimuli_practice_decision/06_pullover.jpg,canary,pullover,,,,,,,,,,,,,,,,,,,,,,,,,,,,,,,,,,,,,,,,,,,,,,,,,,,,,,,,,,,,,,,,,,,,,,,,,,,,,
,,,,,49,2020-07-04_15h09.35.751,retriever_ti,2020.1.3,Win32,60,Firefox,1536,864,268.529,12,right,0.733,glasses,0,268.562,268.562,271.06,0,3,3,3,1,8,7,1,html/resources/stimuli_practice_decision/03_squirrel.jpg,html/resources/stimuli_practice_decision/05_glasses.jpg,squirrel,glasses,,,,,,,,,,,,,,,,,,,,,,,,,,,,,,,,,,,,,,,,,,,,,,,,,,,,,,,,,,,,,,,,,,,,,,,,,,,,,
,,,,,49,2020-07-04_15h09.35.751,retriever_ti,2020.1.3,Win32,60,Firefox,1536,864,272.06,13,right,1.145,sock,0,272.095,272.095,274.593,0,4,4,4,1,5,3,1,html/resources/stimuli_practice_decision/02_canary.jpg,html/resources/stimuli_practice_decision/07_sock.jpg,canary,sock,,,,,,,,,,,,,,,,,,,,,,,,,,,,,,,,,,,,,,,,,,,,,,,,,,,,,,,,,,,,,,,,,,,,,,,,,,,,,
,,,,,49,2020-07-04_15h09.35.751,retriever_ti,2020.1.3,Win32,60,Firefox,1536,864,275.11,14,left,1.006,glasses,0,275.128,275.128,277.625,0,5,5,5,1,7,8,1,html/resources/stimuli_practice_decision/05_glasses.jpg,html/resources/stimuli_practice_decision/03_squirrel.jpg,glasses,squirrel,,,,,,,,,,,,,,,,,,,,,,,,,,,,,,,,,,,,,,,,,,,,,,,,,,,,,,,,,,,,,,,,,,,,,,,,,,,,,
,,,,,49,2020-07-04_15h09.35.751,retriever_ti,2020.1.3,Win32,60,Firefox,1536,864,278.627,15,right,0.911,rabbit,0,278.66,278.66,281.158,0,6,6,6,1,5,4,1,html/resources/stimuli_practice_decision/02_canary.jpg,html/resources/stimuli_practice_decision/01_rabbit.jpg,canary,rabbit,,,,,,,,,,,,,,,,,,,,,,,,,,,,,,,,,,,,,,,,,,,,,,,,,,,,,,,,,,,,,,,,,,,,,,,,,,,,,
,,,,,49,2020-07-04_15h09.35.751,retriever_ti,2020.1.3,Win32,60,Firefox,1536,864,282.157,16,left,0.735,canary,1,282.192,282.192,284.69,0,7,7,7,1,5,3,1,html/resources/stimuli_practice_decision/02_canary.jpg,html/resources/stimuli_practice_decision/07_sock.jpg,canary,sock,,,,,,,,,,,,,,,,,,,,,,,,,,,,,,,,,,,,,,,,,,,,,,,,,,,,,,,,,,,,,,,,,,,,,,,,,,,,,
,,,,,49,2020-07-04_15h09.35.751,retriever_ti,2020.1.3,Win32,60,Firefox,1536,864,,,,,,,,,,,,,,,,,,,,,,down,1,1.601,1,0,0,0,3,1,html/resources/sequences_IDs/triangle.png,star ↑,square →,triangle ↓,← circle,down,,,,,,,,,,,,,,,,,,,,,,,,,,,,,,,,,,,,,,,,,,,,,,,,,,,,,,,,,,,,,,
,,,,,49,2020-07-04_15h09.35.751,retriever_ti,2020.1.3,Win32,60,Firefox,1536,864,,,,,,,,,,,,,,,,,,,,,,down,1,1.373,1,0,1,1,1,1,html/resources/sequences_IDs/star.png,square ↑,circle →,star ↓,← triangle,down,,,,,,,,,,,,,,,,,,,,,,,,,,,,,,,,,,,,,,,,,,,,,,,,,,,,,,,,,,,,,,
,,,,,49,2020-07-04_15h09.35.751,retriever_ti,2020.1.3,Win32,60,Firefox,1536,864,,,,,,,,,,,,,,,,,,,,,,up,1,1.08,1,0,2,2,0,1,html/resources/sequences_IDs/circle.png,circle ↑,square →,triangle ↓,← star ,up,,,,,,,,,,,,,,,,,,,,,,,,,,,,,,,,,,,,,,,,,,,,,,,,,,,,,,,,,,,,,,
,,,,,49,2020-07-04_15h09.35.751,retriever_ti,2020.1.3,Win32,60,Firefox,1536,864,,,,,,,,,,,,,,,,,,,,,,left,1,1.682,1,0,3,3,2,1,html/resources/sequences_IDs/square1.png,star ↑,triangle →,circle ↓,← square,left,,,,,,,,,,,,,,,,,,,,,,,,,,,,,,,,,,,,,,,,,,,,,,,,,,,,,,,,,,,,,,
,,,,,49,2020-07-04_15h09.35.751,retriever_ti,2020.1.3,Win32,60,Firefox,1536,864,,,,,,,,,,,,,,,,,,,,,,,,,,,,,,,,,,,,,0,4.762,1,0,1,0,1,,,,,,,,,,,,,,,,,,,,,,,,,,,,,,,,,,,,,,,,,,,,,,,,,,,,,,,
,,,,,49,2020-07-04_15h09.35.751,retriever_ti,2020.1.3,Win32,60,Firefox,1536,864,,,,,,,,,,,,,,,,,1,,,,,,,,,,,,,,,,,,,,,,,,,,,305.201,1,left,0.699,wolf          ,2,1,1,1,1,305.21,305.21,307.702,0,0,0,0,1,1,2,1,wolf          ,dolphin     ,html/resources/sequences_IDs/A/01_wolf.jpg,html/resources/sequences_IDs/B/02_dolphin.jpg,1,2,1,1,1,1,1,2,0,49,,,,,,,,,,,,,,,,,,,,
,,,,,49,2020-07-04_15h09.35.751,retriever_ti,2020.1.3,Win32,60,Firefox,1536,864,,,,,,,,,,,,,,,,,1,,,,,,,,,,,,,,,,,,,,,,,,,,,308.804,2,right,0.89,satellite_dish,8,10,3,1,3,308.82,308.82,311.317,0,1,1,1,1,2,5,8,gloves      ,satellite_dish,html/resources/sequences_IDs/B/06_gloves.jpg,html/resources/sequences_IDs/A/10_satellite_dish.jpg,6,10,3,2,4,2,5,8,0,49,,,,,,,,,,,,,,,,,,,,
,,,,,49,2020-07-04_15h09.35.751,retriever_ti,2020.1.3,Win32,60,Firefox,1536,864,,,,,,,,,,,,,,,,,1,,,,,,,,,,,,,,,,,,,,,,,,,,,311.934,3,left,1.095,hat           ,4,8,-1,0,0,311.954,311.954,314.45,0,2,2,2,1,3,4,5,hat           ,gloves      ,html/resources/sequences_IDs/A/08_hat.jpg,html/resources/sequences_IDs/B/06_gloves.jpg,8,6,3,2,3,2,7,5,0,49,,,,,,,,,,,,,,,,,,,,
,,,,,49,2020-07-04_15h09.35.751,retriever_ti,2020.1.3,Win32,60,Firefox,1536,864,,,,,,,,,,,,,,,,,1,,,,,,,,,,,,,,,,,,,,,,,,,,,315.552,4,right,0.833,wolf          ,2,1,1,1,1,315.585,315.585,318.082,0,3,3,3,1,4,1,2,dolphin     ,wolf          ,html/resources/sequences_IDs/B/02_dolphin.jpg,html/resources/sequences_IDs/A/01_wolf.jpg,2,1,1,1,1,1,2,1,0,49,,,,,,,,,,,,,,,,,,,,
,,,,,49,2020-07-04_15h09.35.751,retriever_ti,2020.1.3,Win32,60,Firefox,1536,864,,,,,,,,,,,,,,,,,1,,,,,,,,,,,,,,,,,,,,,,,,,,,319.184,5,left,0.676,gloves      ,5,6,3,1,3,319.201,319.201,321.698,0,4,4,4,1,5,5,2,gloves      ,wolf          ,html/resources/sequences_IDs/B/06_gloves.jpg,html/resources/sequences_IDs/A/01_wolf.jpg,6,1,3,2,1,1,5,1,0,49,,,,,,,,,,,,,,,,,,,,
,,,,,49,2020-07-04_15h09.35.751,retriever_ti,2020.1.3,Win32,60,Firefox,1536,864,,,,,,,,,,,,,,,,,1,,,,,,,,,,,,,,,,,,,,,,,,,,,322.315,6,right,0.636,satellite_dish,8,10,1,1,1,322.331,322.331,324.83,0,5,5,5,1,6,7,8,parrot      ,satellite_dish,html/resources/sequences_IDs/B/05_parrot.jpg,html/resources/sequences_IDs/A/10_satellite_dish.jpg,5,10,2,1,4,2,4,8,0,49,,,,,,,,,,,,,,,,,,,,
,,,,,49,2020-07-04_15h09.35.751,retriever_ti,2020.1.3,Win32,60,Firefox,1536,864,,,,,,,,,,,,,,,,,1,,,,,,,,,,,,,,,,,,,,,,,,,,,325.931,7,left,1.009,hat           ,4,8,-3,0,3,325.965,325.965,328.463,0,6,6,6,1,7,4,7,hat           ,parrot      ,html/resources/sequences_IDs/A/08_hat.jpg,html/resources/sequences_IDs/B/05_parrot.jpg,8,5,3,2,2,1,7,4,0,49,,,,,,,,,,,,,,,,,,,,
,,,,,49,2020-07-04_15h09.35.751,retriever_ti,2020.1.3,Win32,60,Firefox,1536,864,,,,,,,,,,,,,,,,,1,,,,,,,,,,,,,,,,,,,,,,,,,,,329.063,8,left,0.761,hat           ,4,8,1,1,1,329.081,329.081,331.579,0,7,7,7,1,8,4,3,hat           ,sport_tshirt,html/resources/sequences_IDs/A/08_hat.jpg,html/resources/sequences_IDs/B/07_sport_tshirt.jpg,8,7,3,2,3,2,7,6,0,49,,,,,,,,,,,,,,,,,,,,
,,,,,49,2020-07-04_15h09.35.751,retriever_ti,2020.1.3,Win32,60,Firefox,1536,864,,,,,,,,,,,,,,,,,1,,,,,,,,,,,,,,,,,,,,,,,,,,,332.681,9,left,0.728,wolf          ,2,1,1,1,0,332.712,332.712,335.212,0,8,8,8,1,9,2,1,wolf          ,dolphin     ,html/resources/sequences_IDs/A/01_wolf.jpg,html/resources/sequences_IDs/B/02_dolphin.jpg,1,2,1,1,1,1,1,2,1,49,,,,,,,,,,,,,,,,,,,,
,,,,,49,2020-07-04_15h09.35.751,retriever_ti,2020.1.3,Win32,60,Firefox,1536,864,,,,,,,,,,,,,,,,,1,,,,,,,,,,,,,,,,,,,,,,,,,,,336.314,10,right,0.815,gloves      ,5,6,-3,0,3,336.329,336.329,338.827,0,9,9,9,1,10,8,5,satellite_dish,gloves      ,html/resources/sequences_IDs/A/10_satellite_dish.jpg,html/resources/sequences_IDs/B/06_gloves.jpg,10,6,4,2,3,2,8,5,0,49,,,,,,,,,,,,,,,,,,,,
,,,,,49,2020-07-04_15h09.35.751,retriever_ti,2020.1.3,Win32,60,Firefox,1536,864,,,,,,,,,,,,,,,,,1,,,,,,,,,,,,,,,,,,,,,,,,,,,339.444,11,left,0.839,satellite_dish,8,10,2,1,3,339.479,339.479,341.976,0,10,10,10,1,11,8,6,satellite_dish,camel         ,html/resources/sequences_IDs/A/10_satellite_dish.jpg,html/resources/sequences_IDs/A/03_camel.jpg,10,3,4,2,1,1,8,3,0,49,,,,,,,,,,,,,,,,,,,,
,,,,,49,2020-07-04_15h09.35.751,retriever_ti,2020.1.3,Win32,60,Firefox,1536,864,,,,,,,,,,,,,,,,,1,,,,,,,,,,,,,,,,,,,,,,,,,,,342.594,12,right,0.94,camel         ,6,3,2,1,3,342.628,342.628,345.126,0,11,11,11,1,12,4,6,hat           ,camel         ,html/resources/sequences_IDs/A/08_hat.jpg,html/resources/sequences_IDs/A/03_camel.jpg,8,3,3,2,1,1,7,3,0,49,,,,,,,,,,,,,,,,,,,,
,,,,,49,2020-07-04_15h09.35.751,retriever_ti,2020.1.3,Win32,60,Firefox,1536,864,,,,,,,,,,,,,,,,,1,,,,,,,,,,,,,,,,,,,,,,,,,,,345.743,13,left,0.784,camel         ,6,3,-1,0,0,345.76,345.76,348.258,0,12,12,12,1,13,6,7,camel         ,parrot      ,html/resources/sequences_IDs/A/03_camel.jpg,html/resources/sequences_IDs/B/05_parrot.jpg,3,5,1,1,2,1,3,4,0,49,,,,,,,,,,,,,,,,,,,,
,,,,,49,2020-07-04_15h09.35.751,retriever_ti,2020.1.3,Win32,60,Firefox,1536,864,,,,,,,,,,,,,,,,,1,,,,,,,,,,,,,,,,,,,,,,,,,,,349.358,14,left,0.885,satellite_dish,8,10,7,1,3,349.391,349.391,351.89,0,13,13,13,1,14,8,1,satellite_dish,dolphin     ,html/resources/sequences_IDs/A/10_satellite_dish.jpg,html/resources/sequences_IDs/B/02_dolphin.jpg,10,2,4,2,1,1,8,2,0,49,,,,,,,,,,,,,,,,,,,,
,,,,,49,2020-07-04_15h09.35.751,retriever_ti,2020.1.3,Win32,60,Firefox,1536,864,,,,,,,,,,,,,,,,,1,,,,,,,,,,,,,,,,,,,,,,,,,,,352.508,15,left,0.841,wolf          ,2,1,-1,0,1,352.542,352.542,355.04,0,14,14,14,1,15,2,3,wolf          ,sport_tshirt,html/resources/sequences_IDs/A/01_wolf.jpg,html/resources/sequences_IDs/B/07_sport_tshirt.jpg,1,7,1,1,3,2,1,6,1,49,,,,,,,,,,,,,,,,,,,,
,,,,,49,2020-07-04_15h09.35.751,retriever_ti,2020.1.3,Win32,60,Firefox,1536,864,,,,,,,,,,,,,,,,,1,,,,,,,,,,,,,,,,,,,,,,,,,,,356.14,16,right,0.649,satellite_dish,8,10,1,1,0,356.16,356.16,358.655,0,15,15,15,1,16,7,8,parrot      ,satellite_dish,html/resources/sequences_IDs/B/05_parrot.jpg,html/resources/sequences_IDs/A/10_satellite_dish.jpg,5,10,2,1,4,2,4,8,1,49,,,,,,,,,,,,,,,,,,,,
,,,,,49,2020-07-04_15h09.35.751,retriever_ti,2020.1.3,Win32,60,Firefox,1536,864,,,,,,,,,,,,,,,,,1,,,,,,,,,,,,,,,,,,,,,,,,,,,359.756,17,right,0.498,parrot      ,7,5,-1,0,0,359.773,359.773,362.272,0,16,16,16,1,17,8,7,satellite_dish,parrot      ,html/resources/sequences_IDs/A/10_satellite_dish.jpg,html/resources/sequences_IDs/B/05_parrot.jpg,10,5,4,2,2,1,8,4,0,49,,,,,,,,,,,,,,,,,,,,
,,,,,49,2020-07-04_15h09.35.751,retriever_ti,2020.1.3,Win32,60,Firefox,1536,864,,,,,,,,,,,,,,,,,1,,,,,,,,,,,,,,,,,,,,,,,,,,,363.371,18,right,0.729,wolf          ,2,1,-1,0,0,363.39,363.39,365.887,0,17,17,17,1,18,3,2,sport_tshirt,wolf          ,html/resources/sequences_IDs/B/07_sport_tshirt.jpg,html/resources/sequences_IDs/A/01_wolf.jpg,7,1,3,2,1,1,6,1,0,49,,,,,,,,,,,,,,,,,,,,
,,,,,49,2020-07-04_15h09.35.751,retriever_ti,2020.1.3,Win32,60,Firefox,1536,864,,,,,,,,,,,,,,,,,1,,,,,,,,,,,,,,,,,,,,,,,,,,,366.988,19,right,0.908,parrot      ,7,5,5,1,3,367.007,367.007,369.503,0,18,18,18,1,19,2,7,wolf          ,parrot      ,html/resources/sequences_IDs/A/01_wolf.jpg,html/resources/sequences_IDs/B/05_parrot.jpg,1,5,1,1,2,1,1,4,0,49,,,,,,,,,,,,,,,,,,,,
,,,,,49,2020-07-04_15h09.35.751,retriever_ti,2020.1.3,Win32,60,Firefox,1536,864,,,,,,,,,,,,,,,,,1,,,,,,,,,,,,,,,,,,,,,,,,,,,370.12,20,left,0.912,gloves      ,5,6,1,1,1,370.14,370.14,372.635,0,19,19,19,1,20,5,4,gloves      ,hat           ,html/resources/sequences_IDs/B/06_gloves.jpg,html/resources/sequences_IDs/A/08_hat.jpg,6,8,3,2,3,2,5,7,0,49,,,,,,,,,,,,,,,,,,,,
,,,,,49,2020-07-04_15h09.35.751,retriever_ti,2020.1.3,Win32,60,Firefox,1536,864,,,,,,,,,,,,,,,,,1,,,,,,,,,,,,,,,,,,,,,,,,,,,373.736,21,left,0.839,camel         ,6,3,-1,0,1,373.774,373.774,376.268,0,20,20,20,1,21,6,7,camel         ,parrot      ,html/resources/sequences_IDs/A/03_camel.jpg,html/resources/sequences_IDs/B/05_parrot.jpg,3,5,1,1,2,1,3,4,1,49,,,,,,,,,,,,,,,,,,,,
,,,,,49,2020-07-04_15h09.35.751,retriever_ti,2020.1.3,Win32,60,Firefox,1536,864,,,,,,,,,,,,,,,,,1,,,,,,,,,,,,,,,,,,,,,,,,,,,377.368,22,left,0.764,wolf          ,2,1,-2,0,3,377.386,377.386,379.884,0,21,21,21,1,22,2,4,wolf          ,hat           ,html/resources/sequences_IDs/A/01_wolf.jpg,html/resources/sequences_IDs/A/08_hat.jpg,1,8,1,1,3,2,1,7,0,49,,,,,,,,,,,,,,,,,,,,
,,,,,49,2020-07-04_15h09.35.751,retriever_ti,2020.1.3,Win32,60,Firefox,1536,864,,,,,,,,,,,,,,,,,1,,,,,,,,,,,,,,,,,,,,,,,,,,,380.501,23,right,0.846,wolf          ,2,1,-2,0,3,380.518,380.518,383.016,0,22,22,22,1,23,4,2,hat           ,wolf          ,html/resources/sequences_IDs/A/08_hat.jpg,html/resources/sequences_IDs/A/01_wolf.jpg,8,1,3,2,1,1,7,1,0,49,,,,,,,,,,,,,,,,,,,,
,,,,,49,2020-07-04_15h09.35.751,retriever_ti,2020.1.3,Win32,60,Firefox,1536,864,,,,,,,,,,,,,,,,,1,,,,,,,,,,,,,,,,,,,,,,,,,,,383.617,24,left,0.798,dolphin     ,1,2,-1,0,0,383.651,383.651,386.149,0,23,23,23,1,24,1,2,dolphin     ,wolf          ,html/resources/sequences_IDs/B/02_dolphin.jpg,html/resources/sequences_IDs/A/01_wolf.jpg,2,1,1,1,1,1,2,1,0,49,,,,,,,,,,,,,,,,,,,,
,,,,,49,2020-07-04_15h09.35.751,retriever_ti,2020.1.3,Win32,60,Firefox,1536,864,,,,,,,,,,,,,,,,,1,,,,,,,,,,,,,,,,,,,,,,,,,,,387.249,25,left,0.85,camel         ,6,3,1,1,0,387.266,387.266,389.765,0,24,24,24,1,25,6,5,camel         ,gloves      ,html/resources/sequences_IDs/A/03_camel.jpg,html/resources/sequences_IDs/B/06_gloves.jpg,3,6,1,1,3,2,3,5,1,49,,,,,,,,,,,,,,,,,,,,
,,,,,49,2020-07-04_15h09.35.751,retriever_ti,2020.1.3,Win32,60,Firefox,1536,864,,,,,,,,,,,,,,,,,1,,,,,,,,,,,,,,,,,,,,,,,,,,,390.865,26,left,0.75,wolf          ,2,1,-6,0,3,390.9,390.9,393.397,0,25,25,25,1,26,2,8,wolf          ,satellite_dish,html/resources/sequences_IDs/A/01_wolf.jpg,html/resources/sequences_IDs/A/10_satellite_dish.jpg,1,10,1,1,4,2,1,8,0,49,,,,,,,,,,,,,,,,,,,,
,,,,,49,2020-07-04_15h09.35.751,retriever_ti,2020.1.3,Win32,60,Firefox,1536,864,,,,,,,,,,,,,,,,,1,,,,,,,,,,,,,,,,,,,,,,,,,,,394.014,27,right,0.699,dolphin     ,1,2,-6,0,3,394.049,394.049,396.547,0,26,26,26,1,27,7,1,parrot      ,dolphin     ,html/resources/sequences_IDs/B/05_parrot.jpg,html/resources/sequences_IDs/B/02_dolphin.jpg,5,2,2,1,1,1,4,2,0,49,,,,,,,,,,,,,,,,,,,,
,,,,,49,2020-07-04_15h09.35.751,retriever_ti,2020.1.3,Win32,60,Firefox,1536,864,,,,,,,,,,,,,,,,,1,,,,,,,,,,,,,,,,,,,,,,,,,,,397.163,28,left,0.838,camel         ,6,3,-1,0,0,397.198,397.198,399.696,0,27,27,27,1,28,6,7,camel         ,parrot      ,html/resources/sequences_IDs/A/03_camel.jpg,html/resources/sequences_IDs/B/05_parrot.jpg,3,5,1,1,2,1,3,4,0,49,,,,,,,,,,,,,,,,,,,,
,,,,,49,2020-07-04_15h09.35.751,retriever_ti,2020.1.3,Win32,60,Firefox,1536,864,,,,,,,,,,,,,,,,,1,,,,,,,,,,,,,,,,,,,,,,,,,,,400.796,29,left,0.73,camel         ,6,3,3,1,3,400.814,400.814,403.311,0,28,28,28,1,29,6,3,camel         ,sport_tshirt,html/resources/sequences_IDs/A/03_camel.jpg,html/resources/sequences_IDs/B/07_sport_tshirt.jpg,3,7,1,1,3,2,3,6,0,49,,,,,,,,,,,,,,,,,,,,
,,,,,49,2020-07-04_15h09.35.751,retriever_ti,2020.1.3,Win32,60,Firefox,1536,864,,,,,,,,,,,,,,,,,1,,,,,,,,,,,,,,,,,,,,,,,,,,,403.914,30,left,0.747,parrot      ,7,5,4,1,3,403.93,403.93,406.428,0,29,29,29,1,30,7,3,parrot      ,sport_tshirt,html/resources/sequences_IDs/B/05_parrot.jpg,html/resources/sequences_IDs/B/07_sport_tshirt.jpg,5,7,2,1,3,2,4,6,0,49,,,,,,,,,,,,,,,,,,,,
,,,,,49,2020-07-04_15h09.35.751,retriever_ti,2020.1.3,Win32,60,Firefox,1536,864,,,,,,,,,,,,,,,,,1,,,,,,,,,,,,,,,,,,,,,,,,,,,407.046,31,left,0.777,satellite_dish,8,10,4,1,3,407.079,407.079,409.577,0,30,30,30,1,31,8,4,satellite_dish,hat           ,html/resources/sequences_IDs/A/10_satellite_dish.jpg,html/resources/sequences_IDs/A/08_hat.jpg,10,8,4,2,3,2,8,7,0,49,,,,,,,,,,,,,,,,,,,,
,,,,,49,2020-07-04_15h09.35.751,retriever_ti,2020.1.3,Win32,60,Firefox,1536,864,,,,,,,,,,,,,,,,,1,,,,,,,,,,,,,,,,,,,,,,,,,,,410.193,32,left,0.866,wolf          ,2,1,1,1,1,410.213,410.213,412.709,0,31,31,31,1,32,2,1,wolf          ,dolphin     ,html/resources/sequences_IDs/A/01_wolf.jpg,html/resources/sequences_IDs/B/02_dolphin.jpg,1,2,1,1,1,1,1,2,0,49,,,,,,,,,,,,,,,,,,,,
,,,,,49,2020-07-04_15h09.35.751,retriever_ti,2020.1.3,Win32,60,Firefox,1536,864,,,,,,,,,,,,,,,,,1,,,,,,,,,,,,,,,,,,,,,,,,,,,413.81,33,left,0.662,parrot      ,7,5,-1,0,0,413.843,413.843,416.342,0,32,32,32,1,33,7,8,parrot      ,satellite_dish,html/resources/sequences_IDs/B/05_parrot.jpg,html/resources/sequences_IDs/A/10_satellite_dish.jpg,5,10,2,1,4,2,4,8,0,49,,,,,,,,,,,,,,,,,,,,
,,,,,49,2020-07-04_15h09.35.751,retriever_ti,2020.1.3,Win32,60,Firefox,1536,864,,,,,,,,,,,,,,,,,1,,,,,,,,,,,,,,,,,,,,,,,,,,,417.443,34,right,0.947,hat           ,4,8,-1,0,1,417.48,417.48,419.974,0,33,33,33,1,34,5,4,gloves      ,hat           ,html/resources/sequences_IDs/B/06_gloves.jpg,html/resources/sequences_IDs/A/08_hat.jpg,6,8,3,2,3,2,5,7,1,49,,,,,,,,,,,,,,,,,,,,
,,,,,49,2020-07-04_15h09.35.751,retriever_ti,2020.1.3,Win32,60,Firefox,1536,864,,,,,,,,,,,,,,,,,1,,,,,,,,,,,,,,,,,,,,,,,,,,,421.074,35,right,0.747,wolf          ,2,1,-1,0,0,421.093,421.093,423.59,0,34,34,34,1,35,3,2,sport_tshirt,wolf          ,html/resources/sequences_IDs/B/07_sport_tshirt.jpg,html/resources/sequences_IDs/A/01_wolf.jpg,7,1,3,2,1,1,6,1,0,49,,,,,,,,,,,,,,,,,,,,
,,,,,49,2020-07-04_15h09.35.751,retriever_ti,2020.1.3,Win32,60,Firefox,1536,864,,,,,,,,,,,,,,,,,1,,,,,,,,,,,,,,,,,,,,,,,,,,,424.69,36,left,0.781,sport_tshirt,3,7,-2,0,3,424.724,424.724,427.223,0,35,35,35,1,36,3,5,sport_tshirt,gloves      ,html/resources/sequences_IDs/B/07_sport_tshirt.jpg,html/resources/sequences_IDs/B/06_gloves.jpg,7,6,3,2,3,2,6,5,0,49,,,,,,,,,,,,,,,,,,,,
,,,,,49,2020-07-04_15h09.35.751,retriever_ti,2020.1.3,Win32,60,Firefox,1536,864,,,,,,,,,,,,,,,,,1,,,,,,,,,,,,,,,,,,,,,,,,,,,427.823,37,right,0.785,hat           ,4,8,3,1,3,427.856,427.856,430.355,0,36,36,36,1,37,1,4,dolphin     ,hat           ,html/resources/sequences_IDs/B/02_dolphin.jpg,html/resources/sequences_IDs/A/08_hat.jpg,2,8,1,1,3,2,2,7,0,49,,,,,,,,,,,,,,,,,,,,
,,,,,49,2020-07-04_15h09.35.751,retriever_ti,2020.1.3,Win32,60,Firefox,1536,864,,,,,,,,,,,,,,,,,1,,,,,,,,,,,,,,,,,,,,,,,,,,,430.972,38,left,0.919,wolf          ,2,1,-4,0,3,431.008,431.008,433.504,0,37,37,37,1,38,2,6,wolf          ,camel         ,html/resources/sequences_IDs/A/01_wolf.jpg,html/resources/sequences_IDs/A/03_camel.jpg,1,3,1,1,1,1,1,3,0,49,,,,,,,,,,,,,,,,,,,,
,,,,,49,2020-07-04_15h09.35.751,retriever_ti,2020.1.3,Win32,60,Firefox,1536,864,,,,,,,,,,,,,,,,,1,,,,,,,,,,,,,,,,,,,,,,,,,,,434.105,39,left,0.75,wolf          ,2,1,-3,0,3,434.141,434.141,436.637,0,38,38,38,1,39,2,5,wolf          ,gloves      ,html/resources/sequences_IDs/A/01_wolf.jpg,html/resources/sequences_IDs/B/06_gloves.jpg,1,6,1,1,3,2,1,5,0,49,,,,,,,,,,,,,,,,,,,,
,,,,,49,2020-07-04_15h09.35.751,retriever_ti,2020.1.3,Win32,60,Firefox,1536,864,,,,,,,,,,,,,,,,,1,,,,,,,,,,,,,,,,,,,,,,,,,,,437.254,40,left,0.797,gloves      ,5,6,-1,0,0,437.272,437.272,439.769,0,39,39,39,1,40,5,6,gloves      ,camel         ,html/resources/sequences_IDs/B/06_gloves.jpg,html/resources/sequences_IDs/A/03_camel.jpg,6,3,3,2,1,1,5,3,0,49,,,,,,,,,,,,,,,,,,,,
,,,,,49,2020-07-04_15h09.35.751,retriever_ti,2020.1.3,Win32,60,Firefox,1536,864,,,,,,,,,,,,,,,,,1,,,,,,,,,,,,,,,,,,,,,,,,,,,440.871,41,right,0.818,camel         ,6,3,-1,0,0,440.888,440.888,443.386,0,40,40,40,1,41,7,6,parrot      ,camel         ,html/resources/sequences_IDs/B/05_parrot.jpg,html/resources/sequences_IDs/A/03_camel.jpg,5,3,2,1,1,1,4,3,0,49,,,,,,,,,,,,,,,,,,,,
,,,,,49,2020-07-04_15h09.35.751,retriever_ti,2020.1.3,Win32,60,Firefox,1536,864,,,,,,,,,,,,,,,,,1,,,,,,,,,,,,,,,,,,,,,,,,,,,444.485,42,right,0.699,dolphin     ,1,2,-2,0,3,444.502,444.502,447,0,41,41,41,1,42,3,1,sport_tshirt,dolphin     ,html/resources/sequences_IDs/B/07_sport_tshirt.jpg,html/resources/sequences_IDs/B/02_dolphin.jpg,7,2,3,2,1,1,6,2,0,49,,,,,,,,,,,,,,,,,,,,
,,,,,49,2020-07-04_15h09.35.751,retriever_ti,2020.1.3,Win32,60,Firefox,1536,864,,,,,,,,,,,,,,,,,1,,,,,,,,,,,,,,,,,,,,,,,,,,,447.618,43,left,0.718,parrot      ,7,5,3,1,3,447.636,447.636,450.134,0,42,42,42,1,43,7,4,parrot      ,hat           ,html/resources/sequences_IDs/B/05_parrot.jpg,html/resources/sequences_IDs/A/08_hat.jpg,5,8,2,1,3,2,4,7,0,49,,,,,,,,,,,,,,,,,,,,
,,,,,49,2020-07-04_15h09.35.751,retriever_ti,2020.1.3,Win32,60,Firefox,1536,864,,,,,,,,,,,,,,,,,1,,,,,,,,,,,,,,,,,,,,,,,,,,,450.75,44,left,0.851,dolphin     ,1,2,-5,0,3,450.786,450.786,453.284,0,43,43,43,1,44,1,6,dolphin     ,camel         ,html/resources/sequences_IDs/B/02_dolphin.jpg,html/resources/sequences_IDs/A/03_camel.jpg,2,3,1,1,1,1,2,3,0,49,,,,,,,,,,,,,,,,,,,,
,,,,,49,2020-07-04_15h09.35.751,retriever_ti,2020.1.3,Win32,60,Firefox,1536,864,,,,,,,,,,,,,,,,,1,,,,,,,,,,,,,,,,,,,,,,,,,,,453.884,45,right,0.634,parrot      ,7,5,6,1,3,453.901,453.901,456.399,0,44,44,44,1,45,1,7,dolphin     ,parrot      ,html/resources/sequences_IDs/B/02_dolphin.jpg,html/resources/sequences_IDs/B/05_parrot.jpg,2,5,1,1,2,1,2,4,0,49,,,,,,,,,,,,,,,,,,,,
,,,,,49,2020-07-04_15h09.35.751,retriever_ti,2020.1.3,Win32,60,Firefox,1536,864,,,,,,,,,,,,,,,,,1,,,,,,,,,,,,,,,,,,,,,,,,,,,457.016,46,left,0.785,satellite_dish,8,10,5,1,3,457.052,457.052,459.548,0,45,45,45,1,46,8,3,satellite_dish,sport_tshirt,html/resources/sequences_IDs/A/10_satellite_dish.jpg,html/resources/sequences_IDs/B/07_sport_tshirt.jpg,10,7,4,2,3,2,8,6,0,49,,,,,,,,,,,,,,,,,,,,
,,,,,49,2020-07-04_15h09.35.751,retriever_ti,2020.1.3,Win32,60,Firefox,1536,864,,,,,,,,,,,,,,,,,1,,,,,,,,,,,,,,,,,,,,,,,,,,,460.165,47,right,0.827,parrot      ,7,5,4,1,3,460.183,460.183,462.681,0,46,46,46,1,47,3,7,sport_tshirt,parrot      ,html/resources/sequences_IDs/B/07_sport_tshirt.jpg,html/resources/sequences_IDs/B/05_parrot.jpg,7,5,3,2,2,1,6,4,0,49,,,,,,,,,,,,,,,,,,,,
,,,,,49,2020-07-04_15h09.35.751,retriever_ti,2020.1.3,Win32,60,Firefox,1536,864,,,,,,,,,,,,,,,,,1,,,,,,,,,,,,,,,,,,,,,,,,,,,463.297,48,left,0.632,parrot      ,7,5,1,1,1,463.332,463.332,465.83,0,47,47,47,1,48,7,6,parrot      ,camel         ,html/resources/sequences_IDs/B/05_parrot.jpg,html/resources/sequences_IDs/A/03_camel.jpg,5,3,2,1,1,1,4,3,0,49,,,,,,,,,,,,,,,,,,,,
,,,,,49,2020-07-04_15h09.35.751,retriever_ti,2020.1.3,Win32,60,Firefox,1536,864,,,,,,,,,,,,,,,,,1,,,,,,,,,,,,,,,,,,,,,,,,,,,466.93,49,left,0.579,parrot      ,7,5,2,1,3,466.95,466.95,469.446,0,48,48,48,1,49,7,5,parrot      ,gloves      ,html/resources/sequences_IDs/B/05_parrot.jpg,html/resources/sequences_IDs/B/06_gloves.jpg,5,6,2,1,3,2,4,5,0,49,,,,,,,,,,,,,,,,,,,,
,,,,,49,2020-07-04_15h09.35.751,retriever_ti,2020.1.3,Win32,60,Firefox,1536,864,,,,,,,,,,,,,,,,,1,,,,,,,,,,,,,,,,,,,,,,,,,,,470.063,50,right,0.585,hat           ,4,8,1,1,1,470.098,470.098,472.595,0,49,49,49,1,50,3,4,sport_tshirt,hat           ,html/resources/sequences_IDs/B/07_sport_tshirt.jpg,html/resources/sequences_IDs/A/08_hat.jpg,7,8,3,2,3,2,6,7,0,49,,,,,,,,,,,,,,,,,,,,
,,,,,49,2020-07-04_15h09.35.751,retriever_ti,2020.1.3,Win32,60,Firefox,1536,864,,,,,,,,,,,,,,,,,1,,,,,,,,,,,,,,,,,,,,,,,,,,,473.695,51,left,0.882,dolphin     ,1,2,-2,0,3,473.713,473.713,476.211,0,50,50,50,1,51,1,3,dolphin     ,sport_tshirt,html/resources/sequences_IDs/B/02_dolphin.jpg,html/resources/sequences_IDs/B/07_sport_tshirt.jpg,2,7,1,1,3,2,2,6,0,49,,,,,,,,,,,,,,,,,,,,
,,,,,49,2020-07-04_15h09.35.751,retriever_ti,2020.1.3,Win32,60,Firefox,1536,864,,,,,,,,,,,,,,,,,1,,,,,,,,,,,,,,,,,,,,,,,,,,,476.828,52,left,0.774,camel         ,6,3,2,1,3,476.845,476.845,479.343,0,51,51,51,1,52,6,4,camel         ,hat           ,html/resources/sequences_IDs/A/03_camel.jpg,html/resources/sequences_IDs/A/08_hat.jpg,3,8,1,1,3,2,3,7,0,49,,,,,,,,,,,,,,,,,,,,
,,,,,49,2020-07-04_15h09.35.751,retriever_ti,2020.1.3,Win32,60,Firefox,1536,864,,,,,,,,,,,,,,,,,1,,,,,,,,,,,,,,,,,,,,,,,,,,,479.961,53,right,0.851,parrot      ,7,5,2,1,3,479.979,479.979,482.476,0,52,52,52,1,53,5,7,gloves      ,parrot      ,html/resources/sequences_IDs/B/06_gloves.jpg,html/resources/sequences_IDs/B/05_parrot.jpg,6,5,3,2,2,1,5,4,0,49,,,,,,,,,,,,,,,,,,,,
,,,,,49,2020-07-04_15h09.35.751,retriever_ti,2020.1.3,Win32,60,Firefox,1536,864,,,,,,,,,,,,,,,,,1,,,,,,,,,,,,,,,,,,,,,,,,,,,483.093,54,right,0.802,camel         ,6,3,3,1,3,483.128,483.128,485.625,0,53,53,53,1,54,3,6,sport_tshirt,camel         ,html/resources/sequences_IDs/B/07_sport_tshirt.jpg,html/resources/sequences_IDs/A/03_camel.jpg,7,3,3,2,1,1,6,3,0,49,,,,,,,,,,,,,,,,,,,,
,,,,,49,2020-07-04_15h09.35.751,retriever_ti,2020.1.3,Win32,60,Firefox,1536,864,,,,,,,,,,,,,,,,,1,,,,,,,,,,,,,,,,,,,,,,,,,,,486.225,55,right,0.747,hat           ,4,8,1,1,0,486.245,486.245,488.741,0,54,54,54,1,55,3,4,sport_tshirt,hat           ,html/resources/sequences_IDs/B/07_sport_tshirt.jpg,html/resources/sequences_IDs/A/08_hat.jpg,7,8,3,2,3,2,6,7,1,49,,,,,,,,,,,,,,,,,,,,
,,,,,49,2020-07-04_15h09.35.751,retriever_ti,2020.1.3,Win32,60,Firefox,1536,864,,,,,,,,,,,,,,,,,1,,,,,,,,,,,,,,,,,,,,,,,,,,,489.842,56,right,0.736,dolphin     ,1,2,-4,0,3,489.861,489.861,492.356,0,55,55,55,1,56,5,1,gloves      ,dolphin     ,html/resources/sequences_IDs/B/06_gloves.jpg,html/resources/sequences_IDs/B/02_dolphin.jpg,6,2,3,2,1,1,5,2,0,49,,,,,,,,,,,,,,,,,,,,
,,,,,49,2020-07-04_15h09.35.751,retriever_ti,2020.1.3,Win32,60,Firefox,1536,864,,,,,,,,,,,,,,,,,1,,,,,,,,,,,,,,,,,,,,,,,,,,,492.958,57,left,0.884,dolphin     ,1,2,-4,0,3,492.992,492.992,495.49,0,56,56,56,1,57,1,5,dolphin     ,gloves      ,html/resources/sequences_IDs/B/02_dolphin.jpg,html/resources/sequences_IDs/B/06_gloves.jpg,2,6,1,1,3,2,2,5,0,49,,,,,,,,,,,,,,,,,,,,
,,,,,49,2020-07-04_15h09.35.751,retriever_ti,2020.1.3,Win32,60,Firefox,1536,864,,,,,,,,,,,,,,,,,1,,,,,,,,,,,,,,,,,,,,,,,,,,,496.107,58,right,0.626,dolphin     ,1,2,-5,0,3,496.141,496.141,498.639,0,57,57,57,1,58,6,1,camel         ,dolphin     ,html/resources/sequences_IDs/A/03_camel.jpg,html/resources/sequences_IDs/B/02_dolphin.jpg,3,2,1,1,1,1,3,2,0,49,,,,,,,,,,,,,,,,,,,,
,,,,,49,2020-07-04_15h09.35.751,retriever_ti,2020.1.3,Win32,60,Firefox,1536,864,,,,,,,,,,,,,,,,,1,,,,,,,,,,,,,,,,,,,,,,,,,,,499.256,59,left,0.982,hat           ,4,8,-1,0,0,499.289,499.289,501.788,0,58,58,58,1,59,4,5,hat           ,gloves      ,html/resources/sequences_IDs/A/08_hat.jpg,html/resources/sequences_IDs/B/06_gloves.jpg,8,6,3,2,3,2,7,5,0,49,,,,,,,,,,,,,,,,,,,,
,,,,,49,2020-07-04_15h09.35.751,retriever_ti,2020.1.3,Win32,60,Firefox,1536,864,,,,,,,,,,,,,,,,,1,,,,,,,,,,,,,,,,,,,,,,,,,,,502.888,60,right,0.762,wolf          ,2,1,-6,0,3,502.926,502.926,505.421,0,59,59,59,1,60,8,2,satellite_dish,wolf          ,html/resources/sequences_IDs/A/10_satellite_dish.jpg,html/resources/sequences_IDs/A/01_wolf.jpg,10,1,4,2,1,1,8,1,0,49,,,,,,,,,,,,,,,,,,,,
,,,,,49,2020-07-04_15h09.35.751,retriever_ti,2020.1.3,Win32,60,Firefox,1536,864,,,,,,,,,,,,,,,,,1,,,,,,,,,,,,,,,,,,,,,,,,,,,506.037,61,left,0.797,gloves      ,5,6,2,1,3,506.072,506.072,508.569,0,60,60,60,1,61,5,3,gloves      ,sport_tshirt,html/resources/sequences_IDs/B/06_gloves.jpg,html/resources/sequences_IDs/B/07_sport_tshirt.jpg,6,7,3,2,3,2,5,6,0,49,,,,,,,,,,,,,,,,,,,,
,,,,,49,2020-07-04_15h09.35.751,retriever_ti,2020.1.3,Win32,60,Firefox,1536,864,,,,,,,,,,,,,,,,,1,,,,,,,,,,,,,,,,,,,,,,,,,,,509.187,62,right,0.949,satellite_dish,8,10,5,1,3,509.221,509.221,511.719,0,61,61,61,1,62,3,8,sport_tshirt,satellite_dish,html/resources/sequences_IDs/B/07_sport_tshirt.jpg,html/resources/sequences_IDs/A/10_satellite_dish.jpg,7,10,3,2,4,2,6,8,0,49,,,,,,,,,,,,,,,,,,,,
,,,,,49,2020-07-04_15h09.35.751,retriever_ti,2020.1.3,Win32,60,Firefox,1536,864,,,,,,,,,,,,,,,,,1,,,,,,,,,,,,,,,,,,,,,,,,,,,512.336,63,right,0.525,satellite_dish,8,10,2,1,3,512.354,512.354,514.862,0,62,62,62,1,63,6,8,camel         ,satellite_dish,html/resources/sequences_IDs/A/03_camel.jpg,html/resources/sequences_IDs/A/10_satellite_dish.jpg,3,10,1,1,4,2,3,8,0,49,,,,,,,,,,,,,,,,,,,,
,,,,,49,2020-07-04_15h09.35.751,retriever_ti,2020.1.3,Win32,60,Firefox,1536,864,,,,,,,,,,,,,,,,,1,,,,,,,,,,,,,,,,,,,,,,,,,,,515.469,64,left,0.783,hat           ,4,8,1,1,1,515.503,515.503,518.001,0,63,63,63,1,64,4,3,hat           ,sport_tshirt,html/resources/sequences_IDs/A/08_hat.jpg,html/resources/sequences_IDs/B/07_sport_tshirt.jpg,8,7,3,2,3,2,7,6,0,49,,,,,,,,,,,,,,,,,,,,
,,,,,49,2020-07-04_15h09.35.751,retriever_ti,2020.1.3,Win32,60,Firefox,1536,864,,,,,,,,,,,,,,,,,1,,,,,,,,,,,,,,,,,,,,,,,,,,,519.101,65,right,0.679,satellite_dish,8,10,7,1,3,519.121,519.121,521.616,0,64,64,64,1,65,1,8,dolphin     ,satellite_dish,html/resources/sequences_IDs/B/02_dolphin.jpg,html/resources/sequences_IDs/A/10_satellite_dish.jpg,2,10,1,1,4,2,2,8,0,49,,,,,,,,,,,,,,,,,,,,
,,,,,49,2020-07-04_15h09.35.751,retriever_ti,2020.1.3,Win32,60,Firefox,1536,864,,,,,,,,,,,,,,,,,1,,,,,,,,,,,,,,,,,,,,,,,,,,,522.216,66,right,0.863,sport_tshirt,3,7,1,1,1,522.233,522.233,524.732,0,65,65,65,1,66,2,3,wolf          ,sport_tshirt,html/resources/sequences_IDs/A/01_wolf.jpg,html/resources/sequences_IDs/B/07_sport_tshirt.jpg,1,7,1,1,3,2,1,6,0,49,,,,,,,,,,,,,,,,,,,,
,,,,,49,2020-07-04_15h09.35.751,retriever_ti,2020.1.3,Win32,60,Firefox,1536,864,,,,,,,,,,,,,,,,,1,,,,,,,,,,,,,,,,,,,,,,,,,,,525.833,67,left,1.148,parrot      ,7,5,5,1,3,525.85,525.85,528.348,0,66,66,66,1,67,7,2,parrot      ,wolf          ,html/resources/sequences_IDs/B/05_parrot.jpg,html/resources/sequences_IDs/A/01_wolf.jpg,5,1,2,1,1,1,4,1,0,49,,,,,,,,,,,,,,,,,,,,
,,,,,49,2020-07-04_15h09.35.751,retriever_ti,2020.1.3,Win32,60,Firefox,1536,864,,,,,,,,,,,,,,,,,1,,,,,,,,,,,,,,,,,,,,,,,,,,,528.949,68,left,1.042,gloves      ,5,6,1,1,1,528.983,528.983,531.48,0,67,67,67,1,68,5,4,gloves      ,hat           ,html/resources/sequences_IDs/B/06_gloves.jpg,html/resources/sequences_IDs/A/08_hat.jpg,6,8,3,2,3,2,5,7,0,49,,,,,,,,,,,,,,,,,,,,
,,,,,49,2020-07-04_15h09.35.751,retriever_ti,2020.1.3,Win32,60,Firefox,1536,864,,,,,,,,,,,,,,,,,1,,,,,,,,,,,,,,,,,,,,,,,,,,,532.581,69,right,1.063,wolf          ,2,1,-4,0,3,532.614,532.614,535.114,0,68,68,68,1,69,6,2,camel         ,wolf          ,html/resources/sequences_IDs/A/03_camel.jpg,html/resources/sequences_IDs/A/01_wolf.jpg,3,1,1,1,1,1,3,1,0,49,,,,,,,,,,,,,,,,,,,,
,,,,,49,2020-07-04_15h09.35.751,retriever_ti,2020.1.3,Win32,60,Firefox,1536,864,,,,,,,,,,,,,,,,,1,,,,,,,,,,,,,,,,,,,,,,,,,,,535.73,70,left,0.868,gloves      ,5,6,-1,0,0,535.764,535.764,538.262,0,69,69,69,1,70,5,6,gloves      ,camel         ,html/resources/sequences_IDs/B/06_gloves.jpg,html/resources/sequences_IDs/A/03_camel.jpg,6,3,3,2,1,1,5,3,0,49,,,,,,,,,,,,,,,,,,,,
,,,,,49,2020-07-04_15h09.35.751,retriever_ti,2020.1.3,Win32,60,Firefox,1536,864,,,,,,,,,,,,,,,,,1,,,,,,,,,,,,,,,,,,,,,,,,,,,539.362,71,left,0.799,hat           ,4,8,-4,0,3,539.381,539.381,541.878,0,70,70,70,1,71,4,8,hat           ,satellite_dish,html/resources/sequences_IDs/A/08_hat.jpg,html/resources/sequences_IDs/A/10_satellite_dish.jpg,8,10,3,2,4,2,7,8,0,49,,,,,,,,,,,,,,,,,,,,
,,,,,49,2020-07-04_15h09.35.751,retriever_ti,2020.1.3,Win32,60,Firefox,1536,864,,,,,,,,,,,,,,,,,1,,,,,,,,,,,,,,,,,,,,,,,,,,,542.479,72,right,0.848,gloves      ,5,6,-1,0,0,542.512,542.512,545.011,0,71,71,71,1,72,6,5,camel         ,gloves      ,html/resources/sequences_IDs/A/03_camel.jpg,html/resources/sequences_IDs/B/06_gloves.jpg,3,6,1,1,3,2,3,5,0,49,,,,,,,,,,,,,,,,,,,,
,,,,,49,2020-07-04_15h09.35.751,retriever_ti,2020.1.3,Win32,60,Firefox,1536,864,,,,,,,,,,,,,,,,,1,,,,,,,,,,,,,,,,,,,,,,,,,,,546.111,73,left,0.942,wolf          ,2,1,-1,0,0,546.145,546.145,548.643,0,72,72,72,1,73,2,3,wolf          ,sport_tshirt,html/resources/sequences_IDs/A/01_wolf.jpg,html/resources/sequences_IDs/B/07_sport_tshirt.jpg,1,7,1,1,3,2,1,6,0,49,,,,,,,,,,,,,,,,,,,,
,,,,,49,2020-07-04_15h09.35.751,retriever_ti,2020.1.3,Win32,60,Firefox,1536,864,,,,,,,,,,,,,,,,,1,,,,,,,,,,,,,,,,,,,,,,,,,,,549.744,74,right,0.841,parrot      ,7,5,-1,0,0,549.778,549.778,552.276,0,73,73,73,1,74,8,7,satellite_dish,parrot      ,html/resources/sequences_IDs/A/10_satellite_dish.jpg,html/resources/sequences_IDs/B/05_parrot.jpg,10,5,4,2,2,1,8,4,0,49,,,,,,,,,,,,,,,,,,,,
,,,,,49,2020-07-04_15h09.35.751,retriever_ti,2020.1.3,Win32,60,Firefox,1536,864,,,,,,,,,,,,,,,,,1,,,,,,,,,,,,,,,,,,,,,,,,,,,553.376,75,right,1.134,hat           ,4,8,1,1,1,553.394,553.394,555.891,0,74,74,74,1,75,3,4,sport_tshirt,hat           ,html/resources/sequences_IDs/B/07_sport_tshirt.jpg,html/resources/sequences_IDs/A/08_hat.jpg,7,8,3,2,3,2,6,7,0,49,,,,,,,,,,,,,,,,,,,,
,,,,,49,2020-07-04_15h09.35.751,retriever_ti,2020.1.3,Win32,60,Firefox,1536,864,,,,,,,,,,,,,,,,,1,,,,,,,,,,,,,,,,,,,,,,,,,,,556.991,76,left,0.865,camel         ,6,3,1,1,1,557.011,557.011,559.508,0,75,75,75,1,76,6,5,camel         ,gloves      ,html/resources/sequences_IDs/A/03_camel.jpg,html/resources/sequences_IDs/B/06_gloves.jpg,3,6,1,1,3,2,3,5,0,49,,,,,,,,,,,,,,,,,,,,
,,,,,49,2020-07-04_15h09.35.751,retriever_ti,2020.1.3,Win32,60,Firefox,1536,864,,,,,,,,,,,,,,,,,1,,,,,,,,,,,,,,,,,,,,,,,,,,,560.608,77,left,0.914,hat           ,4,8,3,1,3,560.624,560.624,563.123,0,76,76,76,1,77,4,1,hat           ,dolphin     ,html/resources/sequences_IDs/A/08_hat.jpg,html/resources/sequences_IDs/B/02_dolphin.jpg,8,2,3,2,1,1,7,2,0,49,,,,,,,,,,,,,,,,,,,,
,,,,,49,2020-07-04_15h09.35.751,retriever_ti,2020.1.3,Win32,60,Firefox,1536,864,,,,,,,,,,,,,,,,,,,,,,,,,,,,,,,,,,,,,0,4.828,,,,,,,,,,,,,,,,,,,,,,,,,,,,,,,,,,,,,,,,,0,0,0,0,1,,,,,,,,,,,,,,,
,,,,,49,2020-07-04_15h09.35.751,retriever_ti,2020.1.3,Win32,60,Firefox,1536,864,,,,,,,,,,,,,,,,,2,,,,,,,,,,,,,,,,,,,,,,,,,,,603.744,78,left,0.902,hat           ,4,8,-2,0,3,603.751,603.751,606.246,0,0,0,0,1,78,4,6,hat           ,camel         ,html/resources/sequences_IDs/A/08_hat.jpg,html/resources/sequences_IDs/A/03_camel.jpg,8,3,3,2,1,1,7,3,0,49,,,,,,,,,,,,,,,,,,,,
,,,,,49,2020-07-04_15h09.35.751,retriever_ti,2020.1.3,Win32,60,Firefox,1536,864,,,,,,,,,,,,,,,,,2,,,,,,,,,,,,,,,,,,,,,,,,,,,606.847,79,left,0.726,sport_tshirt,3,7,1,1,1,606.865,606.865,609.362,0,1,1,1,1,79,3,2,sport_tshirt,wolf          ,html/resources/sequences_IDs/B/07_sport_tshirt.jpg,html/resources/sequences_IDs/A/01_wolf.jpg,7,1,3,2,1,1,6,1,0,49,,,,,,,,,,,,,,,,,,,,
,,,,,49,2020-07-04_15h09.35.751,retriever_ti,2020.1.3,Win32,60,Firefox,1536,864,,,,,,,,,,,,,,,,,2,,,,,,,,,,,,,,,,,,,,,,,,,,,610.462,80,left,1.3,dolphin     ,1,2,-4,0,3,610.499,610.499,612.994,0,2,2,2,1,80,1,5,dolphin     ,gloves      ,html/resources/sequences_IDs/B/02_dolphin.jpg,html/resources/sequences_IDs/B/06_gloves.jpg,2,6,1,1,3,2,2,5,0,49,,,,,,,,,,,,,,,,,,,,
,,,,,49,2020-07-04_15h09.35.751,retriever_ti,2020.1.3,Win32,60,Firefox,1536,864,,,,,,,,,,,,,,,,,2,,,,,,,,,,,,,,,,,,,,,,,,,,,613.611,81,left,1.011,hat           ,4,8,-3,0,3,613.628,613.628,616.127,0,3,3,3,1,81,4,7,hat           ,parrot      ,html/resources/sequences_IDs/A/08_hat.jpg,html/resources/sequences_IDs/B/05_parrot.jpg,8,5,3,2,2,1,7,4,0,49,,,,,,,,,,,,,,,,,,,,
,,,,,49,2020-07-04_15h09.35.751,retriever_ti,2020.1.3,Win32,60,Firefox,1536,864,,,,,,,,,,,,,,,,,2,,,,,,,,,,,,,,,,,,,,,,,,,,,616.727,82,right,1.152,sport_tshirt,3,7,1,1,1,616.746,616.746,619.243,0,4,4,4,1,82,2,3,wolf          ,sport_tshirt,html/resources/sequences_IDs/A/01_wolf.jpg,html/resources/sequences_IDs/B/07_sport_tshirt.jpg,1,7,1,1,3,2,1,6,0,49,,,,,,,,,,,,,,,,,,,,
,,,,,49,2020-07-04_15h09.35.751,retriever_ti,2020.1.3,Win32,60,Firefox,1536,864,,,,,,,,,,,,,,,,,2,,,,,,,,,,,,,,,,,,,,,,,,,,,620.344,83,left,0.767,wolf          ,2,1,-5,0,3,620.361,620.361,622.86,0,5,5,5,1,83,2,7,wolf          ,parrot      ,html/resources/sequences_IDs/A/01_wolf.jpg,html/resources/sequences_IDs/B/05_parrot.jpg,1,5,1,1,2,1,1,4,0,49,,,,,,,,,,,,,,,,,,,,
,,,,,49,2020-07-04_15h09.35.751,retriever_ti,2020.1.3,Win32,60,Firefox,1536,864,,,,,,,,,,,,,,,,,2,,,,,,,,,,,,,,,,,,,,,,,,,,,623.459,84,left,0.785,gloves      ,5,6,1,1,1,623.494,623.494,625.991,0,6,6,6,1,84,5,4,gloves      ,hat           ,html/resources/sequences_IDs/B/06_gloves.jpg,html/resources/sequences_IDs/A/08_hat.jpg,6,8,3,2,3,2,5,7,0,49,,,,,,,,,,,,,,,,,,,,
,,,,,49,2020-07-04_15h09.35.751,retriever_ti,2020.1.3,Win32,60,Firefox,1536,864,,,,,,,,,,,,,,,,,2,,,,,,,,,,,,,,,,,,,,,,,,,,,627.091,85,right,0.952,wolf          ,2,1,-5,0,3,627.11,627.11,629.609,0,7,7,7,1,85,7,2,parrot      ,wolf          ,html/resources/sequences_IDs/B/05_parrot.jpg,html/resources/sequences_IDs/A/01_wolf.jpg,5,1,2,1,1,1,4,1,0,49,,,,,,,,,,,,,,,,,,,,
,,,,,49,2020-07-04_15h09.35.751,retriever_ti,2020.1.3,Win32,60,Firefox,1536,864,,,,,,,,,,,,,,,,,2,,,,,,,,,,,,,,,,,,,,,,,,,,,630.224,86,left,1.103,wolf          ,2,1,-2,0,3,630.26,630.26,632.756,0,8,8,8,1,86,2,4,wolf          ,hat           ,html/resources/sequences_IDs/A/01_wolf.jpg,html/resources/sequences_IDs/A/08_hat.jpg,1,8,1,1,3,2,1,7,0,49,,,,,,,,,,,,,,,,,,,,
,,,,,49,2020-07-04_15h09.35.751,retriever_ti,2020.1.3,Win32,60,Firefox,1536,864,,,,,,,,,,,,,,,,,2,,,,,,,,,,,,,,,,,,,,,,,,,,,633.373,87,right,0.803,sport_tshirt,3,7,-2,0,3,633.39,633.39,635.889,0,9,9,9,1,87,5,3,gloves      ,sport_tshirt,html/resources/sequences_IDs/B/06_gloves.jpg,html/resources/sequences_IDs/B/07_sport_tshirt.jpg,6,7,3,2,3,2,5,6,0,49,,,,,,,,,,,,,,,,,,,,
,,,,,49,2020-07-04_15h09.35.751,retriever_ti,2020.1.3,Win32,60,Firefox,1536,864,,,,,,,,,,,,,,,,,2,,,,,,,,,,,,,,,,,,,,,,,,,,,636.489,88,left,0.615,sport_tshirt,3,7,-3,0,3,636.506,636.506,639.004,0,10,10,10,1,88,3,6,sport_tshirt,camel         ,html/resources/sequences_IDs/B/07_sport_tshirt.jpg,html/resources/sequences_IDs/A/03_camel.jpg,7,3,3,2,1,1,6,3,0,49,,,,,,,,,,,,,,,,,,,,
,,,,,49,2020-07-04_15h09.35.751,retriever_ti,2020.1.3,Win32,60,Firefox,1536,864,,,,,,,,,,,,,,,,,2,,,,,,,,,,,,,,,,,,,,,,,,,,,639.605,89,left,0.826,sport_tshirt,3,7,-1,0,1,639.641,639.641,642.138,0,11,11,11,1,89,3,4,sport_tshirt,hat           ,html/resources/sequences_IDs/B/07_sport_tshirt.jpg,html/resources/sequences_IDs/A/08_hat.jpg,7,8,3,2,3,2,6,7,1,49,,,,,,,,,,,,,,,,,,,,
,,,,,49,2020-07-04_15h09.35.751,retriever_ti,2020.1.3,Win32,60,Firefox,1536,864,,,,,,,,,,,,,,,,,2,,,,,,,,,,,,,,,,,,,,,,,,,,,643.238,90,right,0.867,wolf          ,2,1,-6,0,3,643.257,643.257,645.754,0,12,12,12,1,90,8,2,satellite_dish,wolf          ,html/resources/sequences_IDs/A/10_satellite_dish.jpg,html/resources/sequences_IDs/A/01_wolf.jpg,10,1,4,2,1,1,8,1,0,49,,,,,,,,,,,,,,,,,,,,
,,,,,49,2020-07-04_15h09.35.751,retriever_ti,2020.1.3,Win32,60,Firefox,1536,864,,,,,,,,,,,,,,,,,2,,,,,,,,,,,,,,,,,,,,,,,,,,,646.37,91,left,0.961,hat           ,4,8,2,1,3,646.389,646.389,648.886,0,13,13,13,1,91,4,2,hat           ,wolf          ,html/resources/sequences_IDs/A/08_hat.jpg,html/resources/sequences_IDs/A/01_wolf.jpg,8,1,3,2,1,1,7,1,0,49,,,,,,,,,,,,,,,,,,,,
,,,,,49,2020-07-04_15h09.35.751,retriever_ti,2020.1.3,Win32,60,Firefox,1536,864,,,,,,,,,,,,,,,,,2,,,,,,,,,,,,,,,,,,,,,,,,,,,649.503,92,right,1.297,parrot      ,7,5,6,1,3,649.538,649.538,652.035,0,14,14,14,1,92,1,7,dolphin     ,parrot      ,html/resources/sequences_IDs/B/02_dolphin.jpg,html/resources/sequences_IDs/B/05_parrot.jpg,2,5,1,1,2,1,2,4,0,49,,,,,,,,,,,,,,,,,,,,
,,,,,49,2020-07-04_15h09.35.751,retriever_ti,2020.1.3,Win32,60,Firefox,1536,864,,,,,,,,,,,,,,,,,2,,,,,,,,,,,,,,,,,,,,,,,,,,,652.652,93,left,0.738,parrot      ,7,5,-1,0,1,652.67,652.67,655.167,0,15,15,15,1,93,7,8,parrot      ,satellite_dish,html/resources/sequences_IDs/B/05_parrot.jpg,html/resources/sequences_IDs/A/10_satellite_dish.jpg,5,10,2,1,4,2,4,8,1,49,,,,,,,,,,,,,,,,,,,,
,,,,,49,2020-07-04_15h09.35.751,retriever_ti,2020.1.3,Win32,60,Firefox,1536,864,,,,,,,,,,,,,,,,,2,,,,,,,,,,,,,,,,,,,,,,,,,,,656.268,94,right,0.876,sport_tshirt,3,7,1,1,1,656.288,656.288,658.783,0,16,16,16,1,94,2,3,wolf          ,sport_tshirt,html/resources/sequences_IDs/A/01_wolf.jpg,html/resources/sequences_IDs/B/07_sport_tshirt.jpg,1,7,1,1,3,2,1,6,0,49,,,,,,,,,,,,,,,,,,,,
,,,,,49,2020-07-04_15h09.35.751,retriever_ti,2020.1.3,Win32,60,Firefox,1536,864,,,,,,,,,,,,,,,,,2,,,,,,,,,,,,,,,,,,,,,,,,,,,659.883,95,right,0.562,sport_tshirt,3,7,-5,0,3,659.903,659.903,662.399,0,17,17,17,1,95,8,3,satellite_dish,sport_tshirt,html/resources/sequences_IDs/A/10_satellite_dish.jpg,html/resources/sequences_IDs/B/07_sport_tshirt.jpg,10,7,4,2,3,2,8,6,0,49,,,,,,,,,,,,,,,,,,,,
,,,,,49,2020-07-04_15h09.35.751,retriever_ti,2020.1.3,Win32,60,Firefox,1536,864,,,,,,,,,,,,,,,,,2,,,,,,,,,,,,,,,,,,,,,,,,,,,662.999,96,left,0.962,gloves      ,5,6,1,1,1,663.018,663.018,665.515,0,18,18,18,1,96,5,4,gloves      ,hat           ,html/resources/sequences_IDs/B/06_gloves.jpg,html/resources/sequences_IDs/A/08_hat.jpg,6,8,3,2,3,2,5,7,0,49,,,,,,,,,,,,,,,,,,,,
,,,,,49,2020-07-04_15h09.35.751,retriever_ti,2020.1.3,Win32,60,Firefox,1536,864,,,,,,,,,,,,,,,,,2,,,,,,,,,,,,,,,,,,,,,,,,,,,666.615,97,left,1.195,wolf          ,2,1,1,1,1,666.65,666.65,669.148,0,19,19,19,1,97,2,1,wolf          ,dolphin     ,html/resources/sequences_IDs/A/01_wolf.jpg,html/resources/sequences_IDs/B/02_dolphin.jpg,1,2,1,1,1,1,1,2,0,49,,,,,,,,,,,,,,,,,,,,
,,,,,49,2020-07-04_15h09.35.751,retriever_ti,2020.1.3,Win32,60,Firefox,1536,864,,,,,,,,,,,,,,,,,2,,,,,,,,,,,,,,,,,,,,,,,,,,,670.247,98,left,0.857,parrot      ,7,5,-1,0,0,670.284,670.284,672.78,0,20,20,20,1,98,7,8,parrot      ,satellite_dish,html/resources/sequences_IDs/B/05_parrot.jpg,html/resources/sequences_IDs/A/10_satellite_dish.jpg,5,10,2,1,4,2,4,8,0,49,,,,,,,,,,,,,,,,,,,,
,,,,,49,2020-07-04_15h09.35.751,retriever_ti,2020.1.3,Win32,60,Firefox,1536,864,,,,,,,,,,,,,,,,,2,,,,,,,,,,,,,,,,,,,,,,,,,,,673.881,99,right,0.881,wolf          ,2,1,1,1,1,673.902,673.902,676.395,0,21,21,21,1,99,1,2,dolphin     ,wolf          ,html/resources/sequences_IDs/B/02_dolphin.jpg,html/resources/sequences_IDs/A/01_wolf.jpg,2,1,1,1,1,1,2,1,0,49,,,,,,,,,,,,,,,,,,,,
,,,,,49,2020-07-04_15h09.35.751,retriever_ti,2020.1.3,Win32,60,Firefox,1536,864,,,,,,,,,,,,,,,,,2,,,,,,,,,,,,,,,,,,,,,,,,,,,677.496,100,right,0.979,hat           ,4,8,-3,0,3,677.532,677.532,680.029,0,22,22,22,1,100,7,4,parrot      ,hat           ,html/resources/sequences_IDs/B/05_parrot.jpg,html/resources/sequences_IDs/A/08_hat.jpg,5,8,2,1,3,2,4,7,0,49,,,,,,,,,,,,,,,,,,,,
,,,,,49,2020-07-04_15h09.35.751,retriever_ti,2020.1.3,Win32,60,Firefox,1536,864,,,,,,,,,,,,,,,,,2,,,,,,,,,,,,,,,,,,,,,,,,,,,680.645,101,right,0.664,gloves      ,5,6,-1,0,1,680.663,680.663,683.161,0,23,23,23,1,101,6,5,camel         ,gloves      ,html/resources/sequences_IDs/A/03_camel.jpg,html/resources/sequences_IDs/B/06_gloves.jpg,3,6,1,1,3,2,3,5,1,49,,,,,,,,,,,,,,,,,,,,
,,,,,49,2020-07-04_15h09.35.751,retriever_ti,2020.1.3,Win32,60,Firefox,1536,864,,,,,,,,,,,,,,,,,2,,,,,,,,,,,,,,,,,,,,,,,,,,,684.261,102,right,1.103,satellite_dish,8,10,4,1,3,684.294,684.294,686.793,0,24,24,24,1,102,4,8,hat           ,satellite_dish,html/resources/sequences_IDs/A/08_hat.jpg,html/resources/sequences_IDs/A/10_satellite_dish.jpg,8,10,3,2,4,2,7,8,0,49,,,,,,,,,,,,,,,,,,,,
,,,,,49,2020-07-04_15h09.35.751,retriever_ti,2020.1.3,Win32,60,Firefox,1536,864,,,,,,,,,,,,,,,,,2,,,,,,,,,,,,,,,,,,,,,,,,,,,687.393,103,left,0.997,gloves      ,5,6,-3,0,3,687.412,687.412,689.911,0,25,25,25,1,103,5,8,gloves      ,satellite_dish,html/resources/sequences_IDs/B/06_gloves.jpg,html/resources/sequences_IDs/A/10_satellite_dish.jpg,6,10,3,2,4,2,5,8,0,49,,,,,,,,,,,,,,,,,,,,
,,,,,49,2020-07-04_15h09.35.751,retriever_ti,2020.1.3,Win32,60,Firefox,1536,864,,,,,,,,,,,,,,,,,2,,,,,,,,,,,,,,,,,,,,,,,,,,,690.51,104,right,0.73,satellite_dish,8,10,6,1,3,690.529,690.529,693.027,0,26,26,26,1,104,2,8,wolf          ,satellite_dish,html/resources/sequences_IDs/A/01_wolf.jpg,html/resources/sequences_IDs/A/10_satellite_dish.jpg,1,10,1,1,4,2,1,8,0,49,,,,,,,,,,,,,,,,,,,,
,,,,,49,2020-07-04_15h09.35.751,retriever_ti,2020.1.3,Win32,60,Firefox,1536,864,,,,,,,,,,,,,,,,,2,,,,,,,,,,,,,,,,,,,,,,,,,,,693.643,105,left,0.944,sport_tshirt,3,7,-4,0,3,693.677,693.677,696.175,0,27,27,27,1,105,3,7,sport_tshirt,parrot      ,html/resources/sequences_IDs/B/07_sport_tshirt.jpg,html/resources/sequences_IDs/B/05_parrot.jpg,7,5,3,2,2,1,6,4,0,49,,,,,,,,,,,,,,,,,,,,
,,,,,49,2020-07-04_15h09.35.751,retriever_ti,2020.1.3,Win32,60,Firefox,1536,864,,,,,,,,,,,,,,,,,2,,,,,,,,,,,,,,,,,,,,,,,,,,,696.792,106,left,1.146,parrot      ,7,5,1,1,1,696.808,696.808,699.307,0,28,28,28,1,106,7,6,parrot      ,camel         ,html/resources/sequences_IDs/B/05_parrot.jpg,html/resources/sequences_IDs/A/03_camel.jpg,5,3,2,1,1,1,4,3,0,49,,,,,,,,,,,,,,,,,,,,
,,,,,49,2020-07-04_15h09.35.751,retriever_ti,2020.1.3,Win32,60,Firefox,1536,864,,,,,,,,,,,,,,,,,2,,,,,,,,,,,,,,,,,,,,,,,,,,,700.407,107,right,1.079,gloves      ,5,6,1,1,1,700.442,700.442,702.939,0,29,29,29,1,107,4,5,hat           ,gloves      ,html/resources/sequences_IDs/A/08_hat.jpg,html/resources/sequences_IDs/B/06_gloves.jpg,8,6,3,2,3,2,7,5,0,49,,,,,,,,,,,,,,,,,,,,
,,,,,49,2020-07-04_15h09.35.751,retriever_ti,2020.1.3,Win32,60,Firefox,1536,864,,,,,,,,,,,,,,,,,2,,,,,,,,,,,,,,,,,,,,,,,,,,,704.041,108,right,0.615,sport_tshirt,3,7,2,1,3,704.074,704.074,706.572,0,30,30,30,1,108,1,3,dolphin     ,sport_tshirt,html/resources/sequences_IDs/B/02_dolphin.jpg,html/resources/sequences_IDs/B/07_sport_tshirt.jpg,2,7,1,1,3,2,2,6,0,49,,,,,,,,,,,,,,,,,,,,
,,,,,49,2020-07-04_15h09.35.751,retriever_ti,2020.1.3,Win32,60,Firefox,1536,864,,,,,,,,,,,,,,,,,2,,,,,,,,,,,,,,,,,,,,,,,,,,,707.173,109,left,0.694,gloves      ,5,6,4,1,3,707.207,707.207,709.705,0,31,31,31,1,109,5,1,gloves      ,dolphin     ,html/resources/sequences_IDs/B/06_gloves.jpg,html/resources/sequences_IDs/B/02_dolphin.jpg,6,2,3,2,1,1,5,2,0,49,,,,,,,,,,,,,,,,,,,,
,,,,,49,2020-07-04_15h09.35.751,retriever_ti,2020.1.3,Win32,60,Firefox,1536,864,,,,,,,,,,,,,,,,,2,,,,,,,,,,,,,,,,,,,,,,,,,,,710.322,110,right,0.866,satellite_dish,8,10,1,1,1,710.357,710.357,712.854,0,32,32,32,1,110,7,8,parrot      ,satellite_dish,html/resources/sequences_IDs/B/05_parrot.jpg,html/resources/sequences_IDs/A/10_satellite_dish.jpg,5,10,2,1,4,2,4,8,0,49,,,,,,,,,,,,,,,,,,,,
,,,,,49,2020-07-04_15h09.35.751,retriever_ti,2020.1.3,Win32,60,Firefox,1536,864,,,,,,,,,,,,,,,,,2,,,,,,,,,,,,,,,,,,,,,,,,,,,713.954,111,left,1.061,satellite_dish,8,10,2,1,3,713.972,713.972,716.47,0,33,33,33,1,111,8,6,satellite_dish,camel         ,html/resources/sequences_IDs/A/10_satellite_dish.jpg,html/resources/sequences_IDs/A/03_camel.jpg,10,3,4,2,1,1,8,3,0,49,,,,,,,,,,,,,,,,,,,,
,,,,,49,2020-07-04_15h09.35.751,retriever_ti,2020.1.3,Win32,60,Firefox,1536,864,,,,,,,,,,,,,,,,,2,,,,,,,,,,,,,,,,,,,,,,,,,,,717.092,112,right,0.867,gloves      ,5,6,-1,0,0,717.125,717.125,719.619,0,34,34,34,1,112,6,5,camel         ,gloves      ,html/resources/sequences_IDs/A/03_camel.jpg,html/resources/sequences_IDs/B/06_gloves.jpg,3,6,1,1,3,2,3,5,0,49,,,,,,,,,,,,,,,,,,,,
,,,,,49,2020-07-04_15h09.35.751,retriever_ti,2020.1.3,Win32,60,Firefox,1536,864,,,,,,,,,,,,,,,,,2,,,,,,,,,,,,,,,,,,,,,,,,,,,720.719,113,right,0.689,camel         ,6,3,-1,0,0,720.754,720.754,723.252,0,35,35,35,1,113,7,6,parrot      ,camel         ,html/resources/sequences_IDs/B/05_parrot.jpg,html/resources/sequences_IDs/A/03_camel.jpg,5,3,2,1,1,1,4,3,0,49,,,,,,,,,,,,,,,,,,,,
,,,,,49,2020-07-04_15h09.35.751,retriever_ti,2020.1.3,Win32,60,Firefox,1536,864,,,,,,,,,,,,,,,,,2,,,,,,,,,,,,,,,,,,,,,,,,,,,724.352,114,left,0.907,hat           ,4,8,3,1,3,724.37,724.37,726.867,0,36,36,36,1,114,4,1,hat           ,dolphin     ,html/resources/sequences_IDs/A/08_hat.jpg,html/resources/sequences_IDs/B/02_dolphin.jpg,8,2,3,2,1,1,7,2,0,49,,,,,,,,,,,,,,,,,,,,
,,,,,49,2020-07-04_15h09.35.751,retriever_ti,2020.1.3,Win32,60,Firefox,1536,864,,,,,,,,,,,,,,,,,2,,,,,,,,,,,,,,,,,,,,,,,,,,,727.484,115,left,0.843,sport_tshirt,3,7,2,1,3,727.502,727.502,730,0,37,37,37,1,115,3,1,sport_tshirt,dolphin     ,html/resources/sequences_IDs/B/07_sport_tshirt.jpg,html/resources/sequences_IDs/B/02_dolphin.jpg,7,2,3,2,1,1,6,2,0,49,,,,,,,,,,,,,,,,,,,,
,,,,,49,2020-07-04_15h09.35.751,retriever_ti,2020.1.3,Win32,60,Firefox,1536,864,,,,,,,,,,,,,,,,,2,,,,,,,,,,,,,,,,,,,,,,,,,,,730.617,116,left,1.329,camel         ,6,3,2,1,3,730.633,730.633,733.132,0,38,38,38,1,116,6,4,camel         ,hat           ,html/resources/sequences_IDs/A/03_camel.jpg,html/resources/sequences_IDs/A/08_hat.jpg,3,8,1,1,3,2,3,7,0,49,,,,,,,,,,,,,,,,,,,,
,,,,,49,2020-07-04_15h09.35.751,retriever_ti,2020.1.3,Win32,60,Firefox,1536,864,,,,,,,,,,,,,,,,,2,,,,,,,,,,,,,,,,,,,,,,,,,,,733.732,117,left,1.395,gloves      ,5,6,3,1,3,733.769,733.769,736.265,0,39,39,39,1,117,5,2,gloves      ,wolf          ,html/resources/sequences_IDs/B/06_gloves.jpg,html/resources/sequences_IDs/A/01_wolf.jpg,6,1,3,2,1,1,5,1,0,49,,,,,,,,,,,,,,,,,,,,
,,,,,49,2020-07-04_15h09.35.751,retriever_ti,2020.1.3,Win32,60,Firefox,1536,864,,,,,,,,,,,,,,,,,2,,,,,,,,,,,,,,,,,,,,,,,,,,,736.884,118,left,1.219,sport_tshirt,3,7,-2,0,3,736.918,736.918,739.414,0,40,40,40,1,118,3,5,sport_tshirt,gloves      ,html/resources/sequences_IDs/B/07_sport_tshirt.jpg,html/resources/sequences_IDs/B/06_gloves.jpg,7,6,3,2,3,2,6,5,0,49,,,,,,,,,,,,,,,,,,,,
,,,,,49,2020-07-04_15h09.35.751,retriever_ti,2020.1.3,Win32,60,Firefox,1536,864,,,,,,,,,,,,,,,,,2,,,,,,,,,,,,,,,,,,,,,,,,,,,740.014,119,right,0.765,parrot      ,7,5,-1,0,0,740.05,740.05,742.547,0,41,41,41,1,119,8,7,satellite_dish,parrot      ,html/resources/sequences_IDs/A/10_satellite_dish.jpg,html/resources/sequences_IDs/B/05_parrot.jpg,10,5,4,2,2,1,8,4,0,49,,,,,,,,,,,,,,,,,,,,
,,,,,49,2020-07-04_15h09.35.751,retriever_ti,2020.1.3,Win32,60,Firefox,1536,864,,,,,,,,,,,,,,,,,2,,,,,,,,,,,,,,,,,,,,,,,,,,,743.647,120,left,0.932,dolphin     ,1,2,-1,0,0,743.683,743.683,746.179,0,42,42,42,1,120,1,2,dolphin     ,wolf          ,html/resources/sequences_IDs/B/02_dolphin.jpg,html/resources/sequences_IDs/A/01_wolf.jpg,2,1,1,1,1,1,2,1,0,49,,,,,,,,,,,,,,,,,,,,
,,,,,49,2020-07-04_15h09.35.751,retriever_ti,2020.1.3,Win32,60,Firefox,1536,864,,,,,,,,,,,,,,,,,2,,,,,,,,,,,,,,,,,,,,,,,,,,,747.281,121,left,1.099,parrot      ,7,5,6,1,3,747.297,747.297,749.795,0,43,43,43,1,121,7,1,parrot      ,dolphin     ,html/resources/sequences_IDs/B/05_parrot.jpg,html/resources/sequences_IDs/B/02_dolphin.jpg,5,2,2,1,1,1,4,2,0,49,,,,,,,,,,,,,,,,,,,,
,,,,,49,2020-07-04_15h09.35.751,retriever_ti,2020.1.3,Win32,60,Firefox,1536,864,,,,,,,,,,,,,,,,,2,,,,,,,,,,,,,,,,,,,,,,,,,,,750.412,122,right,0.996,hat           ,4,8,-1,0,1,750.446,750.446,752.944,0,44,44,44,1,122,5,4,gloves      ,hat           ,html/resources/sequences_IDs/B/06_gloves.jpg,html/resources/sequences_IDs/A/08_hat.jpg,6,8,3,2,3,2,5,7,1,49,,,,,,,,,,,,,,,,,,,,
,,,,,49,2020-07-04_15h09.35.751,retriever_ti,2020.1.3,Win32,60,Firefox,1536,864,,,,,,,,,,,,,,,,,2,,,,,,,,,,,,,,,,,,,,,,,,,,,754.044,123,left,0.715,hat           ,4,8,1,1,1,754.079,754.079,756.577,0,45,45,45,1,123,4,3,hat           ,sport_tshirt,html/resources/sequences_IDs/A/08_hat.jpg,html/resources/sequences_IDs/B/07_sport_tshirt.jpg,8,7,3,2,3,2,7,6,0,49,,,,,,,,,,,,,,,,,,,,
,,,,,49,2020-07-04_15h09.35.751,retriever_ti,2020.1.3,Win32,60,Firefox,1536,864,,,,,,,,,,,,,,,,,2,,,,,,,,,,,,,,,,,,,,,,,,,,,757.677,124,right,0.897,satellite_dish,8,10,5,1,3,757.711,757.711,760.209,0,46,46,46,1,124,3,8,sport_tshirt,satellite_dish,html/resources/sequences_IDs/B/07_sport_tshirt.jpg,html/resources/sequences_IDs/A/10_satellite_dish.jpg,7,10,3,2,4,2,6,8,0,49,,,,,,,,,,,,,,,,,,,,
,,,,,49,2020-07-04_15h09.35.751,retriever_ti,2020.1.3,Win32,60,Firefox,1536,864,,,,,,,,,,,,,,,,,2,,,,,,,,,,,,,,,,,,,,,,,,,,,760.81,125,left,0.984,satellite_dish,8,10,3,1,3,760.844,760.844,763.342,0,47,47,47,1,125,8,5,satellite_dish,gloves      ,html/resources/sequences_IDs/A/10_satellite_dish.jpg,html/resources/sequences_IDs/B/06_gloves.jpg,10,6,4,2,3,2,8,5,0,49,,,,,,,,,,,,,,,,,,,,
,,,,,49,2020-07-04_15h09.35.751,retriever_ti,2020.1.3,Win32,60,Firefox,1536,864,,,,,,,,,,,,,,,,,2,,,,,,,,,,,,,,,,,,,,,,,,,,,763.959,126,right,0.897,wolf          ,2,1,-1,0,0,763.993,763.993,766.491,0,48,48,48,1,126,3,2,sport_tshirt,wolf          ,html/resources/sequences_IDs/B/07_sport_tshirt.jpg,html/resources/sequences_IDs/A/01_wolf.jpg,7,1,3,2,1,1,6,1,0,49,,,,,,,,,,,,,,,,,,,,
,,,,,49,2020-07-04_15h09.35.751,retriever_ti,2020.1.3,Win32,60,Firefox,1536,864,,,,,,,,,,,,,,,,,2,,,,,,,,,,,,,,,,,,,,,,,,,,,767.591,127,left,0.994,parrot      ,7,5,2,1,3,767.611,767.611,770.107,0,49,49,49,1,127,7,5,parrot      ,gloves      ,html/resources/sequences_IDs/B/05_parrot.jpg,html/resources/sequences_IDs/B/06_gloves.jpg,5,6,2,1,3,2,4,5,0,49,,,,,,,,,,,,,,,,,,,,
,,,,,49,2020-07-04_15h09.35.751,retriever_ti,2020.1.3,Win32,60,Firefox,1536,864,,,,,,,,,,,,,,,,,2,,,,,,,,,,,,,,,,,,,,,,,,,,,770.724,128,left,0.646,parrot      ,7,5,4,1,3,770.759,770.759,773.256,0,50,50,50,1,128,7,3,parrot      ,sport_tshirt,html/resources/sequences_IDs/B/05_parrot.jpg,html/resources/sequences_IDs/B/07_sport_tshirt.jpg,5,7,2,1,3,2,4,6,0,49,,,,,,,,,,,,,,,,,,,,
,,,,,49,2020-07-04_15h09.35.751,retriever_ti,2020.1.3,Win32,60,Firefox,1536,864,,,,,,,,,,,,,,,,,2,,,,,,,,,,,,,,,,,,,,,,,,,,,773.873,129,left,0.998,camel         ,6,3,4,1,3,773.899,773.899,776.388,0,51,51,51,1,129,6,2,camel         ,wolf          ,html/resources/sequences_IDs/A/03_camel.jpg,html/resources/sequences_IDs/A/01_wolf.jpg,3,1,1,1,1,1,3,1,0,49,,,,,,,,,,,,,,,,,,,,
,,,,,49,2020-07-04_15h09.35.751,retriever_ti,2020.1.3,Win32,60,Firefox,1536,864,,,,,,,,,,,,,,,,,2,,,,,,,,,,,,,,,,,,,,,,,,,,,776.989,130,left,1.181,gloves      ,5,6,-2,0,3,777.025,777.025,779.521,0,52,52,52,1,130,5,7,gloves      ,parrot      ,html/resources/sequences_IDs/B/06_gloves.jpg,html/resources/sequences_IDs/B/05_parrot.jpg,6,5,3,2,2,1,5,4,0,49,,,,,,,,,,,,,,,,,,,,
,,,,,49,2020-07-04_15h09.35.751,retriever_ti,2020.1.3,Win32,60,Firefox,1536,864,,,,,,,,,,,,,,,,,2,,,,,,,,,,,,,,,,,,,,,,,,,,,780.139,131,right,0.932,hat           ,4,8,-4,0,3,780.174,780.174,782.67,0,53,53,53,1,131,8,4,satellite_dish,hat           ,html/resources/sequences_IDs/A/10_satellite_dish.jpg,html/resources/sequences_IDs/A/08_hat.jpg,10,8,4,2,3,2,8,7,0,49,,,,,,,,,,,,,,,,,,,,
,,,,,49,2020-07-04_15h09.35.751,retriever_ti,2020.1.3,Win32,60,Firefox,1536,864,,,,,,,,,,,,,,,,,2,,,,,,,,,,,,,,,,,,,,,,,,,,,783.288,132,left,0.885,camel         ,6,3,3,1,3,783.306,783.306,785.803,0,54,54,54,1,132,6,3,camel         ,sport_tshirt,html/resources/sequences_IDs/A/03_camel.jpg,html/resources/sequences_IDs/B/07_sport_tshirt.jpg,3,7,1,1,3,2,3,6,0,49,,,,,,,,,,,,,,,,,,,,
,,,,,49,2020-07-04_15h09.35.751,retriever_ti,2020.1.3,Win32,60,Firefox,1536,864,,,,,,,,,,,,,,,,,2,,,,,,,,,,,,,,,,,,,,,,,,,,,786.405,133,left,0.927,wolf          ,2,1,1,1,0,786.438,786.438,788.935,0,55,55,55,1,133,2,1,wolf          ,dolphin     ,html/resources/sequences_IDs/A/01_wolf.jpg,html/resources/sequences_IDs/B/02_dolphin.jpg,1,2,1,1,1,1,1,2,1,49,,,,,,,,,,,,,,,,,,,,
,,,,,49,2020-07-04_15h09.35.751,retriever_ti,2020.1.3,Win32,60,Firefox,1536,864,,,,,,,,,,,,,,,,,2,,,,,,,,,,,,,,,,,,,,,,,,,,,790.036,134,left,0.511,dolphin     ,1,2,-3,0,3,790.054,790.054,792.551,0,56,56,56,1,134,1,4,dolphin     ,hat           ,html/resources/sequences_IDs/B/02_dolphin.jpg,html/resources/sequences_IDs/A/08_hat.jpg,2,8,1,1,3,2,2,7,0,49,,,,,,,,,,,,,,,,,,,,
,,,,,49,2020-07-04_15h09.35.751,retriever_ti,2020.1.3,Win32,60,Firefox,1536,864,,,,,,,,,,,,,,,,,2,,,,,,,,,,,,,,,,,,,,,,,,,,,793.152,135,right,0.927,parrot      ,7,5,-1,0,0,793.171,793.171,795.667,0,57,57,57,1,135,8,7,satellite_dish,parrot      ,html/resources/sequences_IDs/A/10_satellite_dish.jpg,html/resources/sequences_IDs/B/05_parrot.jpg,10,5,4,2,2,1,8,4,0,49,,,,,,,,,,,,,,,,,,,,
,,,,,49,2020-07-04_15h09.35.751,retriever_ti,2020.1.3,Win32,60,Firefox,1536,864,,,,,,,,,,,,,,,,,2,,,,,,,,,,,,,,,,,,,,,,,,,,,796.767,136,right,0.719,dolphin     ,1,2,-1,0,0,796.802,796.802,799.299,0,58,58,58,1,136,2,1,wolf          ,dolphin     ,html/resources/sequences_IDs/A/01_wolf.jpg,html/resources/sequences_IDs/B/02_dolphin.jpg,1,2,1,1,1,1,1,2,0,49,,,,,,,,,,,,,,,,,,,,
,,,,,49,2020-07-04_15h09.35.751,retriever_ti,2020.1.3,Win32,60,Firefox,1536,864,,,,,,,,,,,,,,,,,2,,,,,,,,,,,,,,,,,,,,,,,,,,,800.4,137,left,1.179,camel         ,6,3,-1,0,1,800.433,800.433,802.932,0,59,59,59,1,137,6,7,camel         ,parrot      ,html/resources/sequences_IDs/A/03_camel.jpg,html/resources/sequences_IDs/B/05_parrot.jpg,3,5,1,1,2,1,3,4,1,49,,,,,,,,,,,,,,,,,,,,
,,,,,49,2020-07-04_15h09.35.751,retriever_ti,2020.1.3,Win32,60,Firefox,1536,864,,,,,,,,,,,,,,,,,2,,,,,,,,,,,,,,,,,,,,,,,,,,,804.032,138,left,0.951,wolf          ,2,1,-3,0,3,804.052,804.052,806.548,0,60,60,60,1,138,2,5,wolf          ,gloves      ,html/resources/sequences_IDs/A/01_wolf.jpg,html/resources/sequences_IDs/B/06_gloves.jpg,1,6,1,1,3,2,1,5,0,49,,,,,,,,,,,,,,,,,,,,
,,,,,49,2020-07-04_15h09.35.751,retriever_ti,2020.1.3,Win32,60,Firefox,1536,864,,,,,,,,,,,,,,,,,2,,,,,,,,,,,,,,,,,,,,,,,,,,,807.165,139,right,0.986,sport_tshirt,3,7,-1,0,0,807.2,807.2,809.697,0,61,61,61,1,139,4,3,hat           ,sport_tshirt,html/resources/sequences_IDs/A/08_hat.jpg,html/resources/sequences_IDs/B/07_sport_tshirt.jpg,8,7,3,2,3,2,7,6,0,49,,,,,,,,,,,,,,,,,,,,
,,,,,49,2020-07-04_15h09.35.751,retriever_ti,2020.1.3,Win32,60,Firefox,1536,864,,,,,,,,,,,,,,,,,2,,,,,,,,,,,,,,,,,,,,,,,,,,,810.797,140,left,0.779,camel         ,6,3,5,1,3,810.834,810.834,813.329,0,62,62,62,1,140,6,1,camel         ,dolphin     ,html/resources/sequences_IDs/A/03_camel.jpg,html/resources/sequences_IDs/B/02_dolphin.jpg,3,2,1,1,1,1,3,2,0,49,,,,,,,,,,,,,,,,,,,,
,,,,,49,2020-07-04_15h09.35.751,retriever_ti,2020.1.3,Win32,60,Firefox,1536,864,,,,,,,,,,,,,,,,,2,,,,,,,,,,,,,,,,,,,,,,,,,,,813.929,141,left,0.715,wolf          ,2,1,-4,0,3,813.948,813.948,816.445,0,63,63,63,1,141,2,6,wolf          ,camel         ,html/resources/sequences_IDs/A/01_wolf.jpg,html/resources/sequences_IDs/A/03_camel.jpg,1,3,1,1,1,1,1,3,0,49,,,,,,,,,,,,,,,,,,,,
,,,,,49,2020-07-04_15h09.35.751,retriever_ti,2020.1.3,Win32,60,Firefox,1536,864,,,,,,,,,,,,,,,,,2,,,,,,,,,,,,,,,,,,,,,,,,,,,817.046,142,left,0.61,wolf          ,2,1,-1,0,1,817.062,817.062,819.561,0,64,64,64,1,142,2,3,wolf          ,sport_tshirt,html/resources/sequences_IDs/A/01_wolf.jpg,html/resources/sequences_IDs/B/07_sport_tshirt.jpg,1,7,1,1,3,2,1,6,1,49,,,,,,,,,,,,,,,,,,,,
,,,,,49,2020-07-04_15h09.35.751,retriever_ti,2020.1.3,Win32,60,Firefox,1536,864,,,,,,,,,,,,,,,,,2,,,,,,,,,,,,,,,,,,,,,,,,,,,820.663,143,left,0.901,camel         ,6,3,-2,0,3,820.68,820.68,823.177,0,65,65,65,1,143,6,8,camel         ,satellite_dish,html/resources/sequences_IDs/A/03_camel.jpg,html/resources/sequences_IDs/A/10_satellite_dish.jpg,3,10,1,1,4,2,3,8,0,49,,,,,,,,,,,,,,,,,,,,
,,,,,49,2020-07-04_15h09.35.751,retriever_ti,2020.1.3,Win32,60,Firefox,1536,864,,,,,,,,,,,,,,,,,2,,,,,,,,,,,,,,,,,,,,,,,,,,,823.794,144,right,0.983,gloves      ,5,6,1,1,1,823.811,823.811,826.31,0,66,66,66,1,144,4,5,hat           ,gloves      ,html/resources/sequences_IDs/A/08_hat.jpg,html/resources/sequences_IDs/B/06_gloves.jpg,8,6,3,2,3,2,7,5,0,49,,,,,,,,,,,,,,,,,,,,
,,,,,49,2020-07-04_15h09.35.751,retriever_ti,2020.1.3,Win32,60,Firefox,1536,864,,,,,,,,,,,,,,,,,2,,,,,,,,,,,,,,,,,,,,,,,,,,,827.41,145,right,0.48,gloves      ,5,6,-1,0,0,827.445,827.445,829.942,0,67,67,67,1,145,6,5,camel         ,gloves      ,html/resources/sequences_IDs/A/03_camel.jpg,html/resources/sequences_IDs/B/06_gloves.jpg,3,6,1,1,3,2,3,5,0,49,,,,,,,,,,,,,,,,,,,,
,,,,,49,2020-07-04_15h09.35.751,retriever_ti,2020.1.3,Win32,60,Firefox,1536,864,,,,,,,,,,,,,,,,,2,,,,,,,,,,,,,,,,,,,,,,,,,,,831.044,146,left,1.313,sport_tshirt,3,7,-1,0,0,831.062,831.062,833.559,0,68,68,68,1,146,3,4,sport_tshirt,hat           ,html/resources/sequences_IDs/B/07_sport_tshirt.jpg,html/resources/sequences_IDs/A/08_hat.jpg,7,8,3,2,3,2,6,7,0,49,,,,,,,,,,,,,,,,,,,,
,,,,,49,2020-07-04_15h09.35.751,retriever_ti,2020.1.3,Win32,60,Firefox,1536,864,,,,,,,,,,,,,,,,,2,,,,,,,,,,,,,,,,,,,,,,,,,,,834.658,147,right,0.841,camel         ,6,3,5,1,3,834.677,834.677,837.174,0,69,69,69,1,147,1,6,dolphin     ,camel         ,html/resources/sequences_IDs/B/02_dolphin.jpg,html/resources/sequences_IDs/A/03_camel.jpg,2,3,1,1,1,1,2,3,0,49,,,,,,,,,,,,,,,,,,,,
,,,,,49,2020-07-04_15h09.35.751,retriever_ti,2020.1.3,Win32,60,Firefox,1536,864,,,,,,,,,,,,,,,,,2,,,,,,,,,,,,,,,,,,,,,,,,,,,837.791,148,left,0.731,camel         ,6,3,-1,0,0,837.824,837.824,840.323,0,70,70,70,1,148,6,7,camel         ,parrot      ,html/resources/sequences_IDs/A/03_camel.jpg,html/resources/sequences_IDs/B/05_parrot.jpg,3,5,1,1,2,1,3,4,0,49,,,,,,,,,,,,,,,,,,,,
,,,,,49,2020-07-04_15h09.35.751,retriever_ti,2020.1.3,Win32,60,Firefox,1536,864,,,,,,,,,,,,,,,,,2,,,,,,,,,,,,,,,,,,,,,,,,,,,841.424,149,left,0.8,dolphin     ,1,2,-7,0,3,841.458,841.458,843.956,0,71,71,71,1,149,1,8,dolphin     ,satellite_dish,html/resources/sequences_IDs/B/02_dolphin.jpg,html/resources/sequences_IDs/A/10_satellite_dish.jpg,2,10,1,1,4,2,2,8,0,49,,,,,,,,,,,,,,,,,,,,
,,,,,49,2020-07-04_15h09.35.751,retriever_ti,2020.1.3,Win32,60,Firefox,1536,864,,,,,,,,,,,,,,,,,2,,,,,,,,,,,,,,,,,,,,,,,,,,,844.572,150,left,0.939,gloves      ,5,6,-1,0,0,844.607,844.607,847.105,0,72,72,72,1,150,5,6,gloves      ,camel         ,html/resources/sequences_IDs/B/06_gloves.jpg,html/resources/sequences_IDs/A/03_camel.jpg,6,3,3,2,1,1,5,3,0,49,,,,,,,,,,,,,,,,,,,,
,,,,,49,2020-07-04_15h09.35.751,retriever_ti,2020.1.3,Win32,60,Firefox,1536,864,,,,,,,,,,,,,,,,,2,,,,,,,,,,,,,,,,,,,,,,,,,,,848.205,151,right,0.988,dolphin     ,1,2,-7,0,3,848.223,848.223,850.72,0,73,73,73,1,151,8,1,satellite_dish,dolphin     ,html/resources/sequences_IDs/A/10_satellite_dish.jpg,html/resources/sequences_IDs/B/02_dolphin.jpg,10,2,4,2,1,1,8,2,0,49,,,,,,,,,,,,,,,,,,,,
,,,,,49,2020-07-04_15h09.35.751,retriever_ti,2020.1.3,Win32,60,Firefox,1536,864,,,,,,,,,,,,,,,,,2,,,,,,,,,,,,,,,,,,,,,,,,,,,851.321,152,right,0.697,hat           ,4,8,1,1,1,851.355,851.355,853.853,0,74,74,74,1,152,3,4,sport_tshirt,hat           ,html/resources/sequences_IDs/B/07_sport_tshirt.jpg,html/resources/sequences_IDs/A/08_hat.jpg,7,8,3,2,3,2,6,7,0,49,,,,,,,,,,,,,,,,,,,,
,,,,,49,2020-07-04_15h09.35.751,retriever_ti,2020.1.3,Win32,60,Firefox,1536,864,,,,,,,,,,,,,,,,,2,,,,,,,,,,,,,,,,,,,,,,,,,,,854.953,153,right,0.749,camel         ,6,3,1,1,1,854.973,854.973,857.469,0,75,75,75,1,153,5,6,gloves      ,camel         ,html/resources/sequences_IDs/B/06_gloves.jpg,html/resources/sequences_IDs/A/03_camel.jpg,6,3,3,2,1,1,5,3,0,49,,,,,,,,,,,,,,,,,,,,
,,,,,49,2020-07-04_15h09.35.751,retriever_ti,2020.1.3,Win32,60,Firefox,1536,864,,,,,,,,,,,,,,,,,2,,,,,,,,,,,,,,,,,,,,,,,,,,,858.569,154,left,0.766,camel         ,6,3,-1,0,0,858.602,858.602,861.102,0,76,76,76,1,154,6,7,camel         ,parrot      ,html/resources/sequences_IDs/A/03_camel.jpg,html/resources/sequences_IDs/B/05_parrot.jpg,3,5,1,1,2,1,3,4,0,49,,,,,,,,,,,,,,,,,,,,
,,,,,49,2020-07-04_15h09.35.751,retriever_ti,2020.1.3,Win32,60,Firefox,1536,864,,,,,,,,,,,,,,,,,,,,,,,,,,,,,,,,,,,,,0,2.496,,,,,,,,,,,,,,,,,,,,,,,,,,,,,,,,,,,,,,,,,1,0,1,0,1,,,,,,,,,,,,,,,
,,,,,49,2020-07-04_15h09.35.751,retriever_ti,2020.1.3,Win32,60,Firefox,1536,864,,,,,,,,,,,,,,,,,3,,,,,,,,,,,,,,,,,,,,,,,,,,,887.563,155,right,0.945,sport_tshirt,3,7,1,1,1,887.597,887.597,890.095,0,0,0,0,1,155,2,3,wolf          ,sport_tshirt,html/resources/sequences_IDs/A/01_wolf.jpg,html/resources/sequences_IDs/B/07_sport_tshirt.jpg,1,7,1,1,3,2,1,6,0,49,,,,,,,,,,,,,,,,,,,,
,,,,,49,2020-07-04_15h09.35.751,retriever_ti,2020.1.3,Win32,60,Firefox,1536,864,,,,,,,,,,,,,,,,,3,,,,,,,,,,,,,,,,,,,,,,,,,,,891.195,156,right,1.152,satellite_dish,8,10,7,1,3,891.213,891.213,893.711,0,1,1,1,1,156,1,8,dolphin     ,satellite_dish,html/resources/sequences_IDs/B/02_dolphin.jpg,html/resources/sequences_IDs/A/10_satellite_dish.jpg,2,10,1,1,4,2,2,8,0,49,,,,,,,,,,,,,,,,,,,,
,,,,,49,2020-07-04_15h09.35.751,retriever_ti,2020.1.3,Win32,60,Firefox,1536,864,,,,,,,,,,,,,,,,,3,,,,,,,,,,,,,,,,,,,,,,,,,,,894.328,157,right,0.851,gloves      ,5,6,-2,0,3,894.362,894.362,896.86,0,2,2,2,1,157,7,5,parrot      ,gloves      ,html/resources/sequences_IDs/B/05_parrot.jpg,html/resources/sequences_IDs/B/06_gloves.jpg,5,6,2,1,3,2,4,5,0,49,,,,,,,,,,,,,,,,,,,,
,,,,,49,2020-07-04_15h09.35.751,retriever_ti,2020.1.3,Win32,60,Firefox,1536,864,,,,,,,,,,,,,,,,,3,,,,,,,,,,,,,,,,,,,,,,,,,,,897.461,158,right,1.198,sport_tshirt,3,7,-1,0,0,897.478,897.478,899.976,0,3,3,3,1,158,4,3,hat           ,sport_tshirt,html/resources/sequences_IDs/A/08_hat.jpg,html/resources/sequences_IDs/B/07_sport_tshirt.jpg,8,7,3,2,3,2,7,6,0,49,,,,,,,,,,,,,,,,,,,,
,,,,,49,2020-07-04_15h09.35.751,retriever_ti,2020.1.3,Win32,60,Firefox,1536,864,,,,,,,,,,,,,,,,,3,,,,,,,,,,,,,,,,,,,,,,,,,,,901.076,159,left,1.095,camel         ,6,3,-1,0,0,901.111,901.111,903.608,0,4,4,4,1,159,6,7,camel         ,parrot      ,html/resources/sequences_IDs/A/03_camel.jpg,html/resources/sequences_IDs/B/05_parrot.jpg,3,5,1,1,2,1,3,4,0,49,,,,,,,,,,,,,,,,,,,,
,,,,,49,2020-07-04_15h09.35.751,retriever_ti,2020.1.3,Win32,60,Firefox,1536,864,,,,,,,,,,,,,,,,,3,,,,,,,,,,,,,,,,,,,,,,,,,,,904.708,160,right,1.062,gloves      ,5,6,-1,0,0,904.743,904.743,907.241,0,5,5,5,1,160,6,5,camel         ,gloves      ,html/resources/sequences_IDs/A/03_camel.jpg,html/resources/sequences_IDs/B/06_gloves.jpg,3,6,1,1,3,2,3,5,0,49,,,,,,,,,,,,,,,,,,,,
,,,,,49,2020-07-04_15h09.35.751,retriever_ti,2020.1.3,Win32,60,Firefox,1536,864,,,,,,,,,,,,,,,,,3,,,,,,,,,,,,,,,,,,,,,,,,,,,908.34,161,right,1.215,wolf          ,2,1,-5,0,3,908.359,908.359,910.856,0,6,6,6,1,161,7,2,parrot      ,wolf          ,html/resources/sequences_IDs/B/05_parrot.jpg,html/resources/sequences_IDs/A/01_wolf.jpg,5,1,2,1,1,1,4,1,0,49,,,,,,,,,,,,,,,,,,,,
,,,,,49,2020-07-04_15h09.35.751,retriever_ti,2020.1.3,Win32,60,Firefox,1536,864,,,,,,,,,,,,,,,,,3,,,,,,,,,,,,,,,,,,,,,,,,,,,911.457,162,right,0.815,wolf          ,2,1,-1,0,1,911.491,911.491,913.989,0,7,7,7,1,162,3,2,sport_tshirt,wolf          ,html/resources/sequences_IDs/B/07_sport_tshirt.jpg,html/resources/sequences_IDs/A/01_wolf.jpg,7,1,3,2,1,1,6,1,1,49,,,,,,,,,,,,,,,,,,,,
,,,,,49,2020-07-04_15h09.35.751,retriever_ti,2020.1.3,Win32,60,Firefox,1536,864,,,,,,,,,,,,,,,,,3,,,,,,,,,,,,,,,,,,,,,,,,,,,915.089,163,right,1.784,satellite_dish,8,10,4,1,3,915.125,915.125,917.622,0,8,8,8,1,163,4,8,hat           ,satellite_dish,html/resources/sequences_IDs/A/08_hat.jpg,html/resources/sequences_IDs/A/10_satellite_dish.jpg,8,10,3,2,4,2,7,8,0,49,,,,,,,,,,,,,,,,,,,,
,,,,,49,2020-07-04_15h09.35.751,retriever_ti,2020.1.3,Win32,60,Firefox,1536,864,,,,,,,,,,,,,,,,,3,,,,,,,,,,,,,,,,,,,,,,,,,,,918.239,164,right,1.559,parrot      ,7,5,6,1,3,918.275,918.275,920.771,0,9,9,9,1,164,1,7,dolphin     ,parrot      ,html/resources/sequences_IDs/B/02_dolphin.jpg,html/resources/sequences_IDs/B/05_parrot.jpg,2,5,1,1,2,1,2,4,0,49,,,,,,,,,,,,,,,,,,,,
,,,,,49,2020-07-04_15h09.35.751,retriever_ti,2020.1.3,Win32,60,Firefox,1536,864,,,,,,,,,,,,,,,,,3,,,,,,,,,,,,,,,,,,,,,,,,,,,921.387,165,left,1.661,gloves      ,5,6,-1,0,0,921.422,921.422,923.92,0,10,10,10,1,165,5,6,gloves      ,camel         ,html/resources/sequences_IDs/B/06_gloves.jpg,html/resources/sequences_IDs/A/03_camel.jpg,6,3,3,2,1,1,5,3,0,49,,,,,,,,,,,,,,,,,,,,
,,,,,49,2020-07-04_15h09.35.751,retriever_ti,2020.1.3,Win32,60,Firefox,1536,864,,,,,,,,,,,,,,,,,3,,,,,,,,,,,,,,,,,,,,,,,,,,,925.02,166,left,1.349,dolphin     ,1,2,-1,0,1,925.038,925.038,927.536,0,11,11,11,1,166,1,2,dolphin     ,wolf          ,html/resources/sequences_IDs/B/02_dolphin.jpg,html/resources/sequences_IDs/A/01_wolf.jpg,2,1,1,1,1,1,2,1,1,49,,,,,,,,,,,,,,,,,,,,
,,,,,49,2020-07-04_15h09.35.751,retriever_ti,2020.1.3,Win32,60,Firefox,1536,864,,,,,,,,,,,,,,,,,3,,,,,,,,,,,,,,,,,,,,,,,,,,,928.637,167,left,1.759,satellite_dish,8,10,5,1,3,928.657,928.657,931.153,0,12,12,12,1,167,8,3,satellite_dish,sport_tshirt,html/resources/sequences_IDs/A/10_satellite_dish.jpg,html/resources/sequences_IDs/B/07_sport_tshirt.jpg,10,7,4,2,3,2,8,6,0,49,,,,,,,,,,,,,,,,,,,,
,,,,,49,2020-07-04_15h09.35.751,retriever_ti,2020.1.3,Win32,60,Firefox,1536,864,,,,,,,,,,,,,,,,,3,,,,,,,,,,,,,,,,,,,,,,,,,,,931.752,168,left,1.882,gloves      ,5,6,1,1,1,931.773,931.773,934.268,0,13,13,13,1,168,5,4,gloves      ,hat           ,html/resources/sequences_IDs/B/06_gloves.jpg,html/resources/sequences_IDs/A/08_hat.jpg,6,8,3,2,3,2,5,7,0,49,,,,,,,,,,,,,,,,,,,,
,,,,,49,2020-07-04_15h09.35.751,retriever_ti,2020.1.3,Win32,60,Firefox,1536,864,,,,,,,,,,,,,,,,,3,,,,,,,,,,,,,,,,,,,,,,,,,,,935.368,169,right,0.869,gloves      ,5,6,3,1,3,935.402,935.402,937.902,0,14,14,14,1,169,2,5,wolf          ,gloves      ,html/resources/sequences_IDs/A/01_wolf.jpg,html/resources/sequences_IDs/B/06_gloves.jpg,1,6,1,1,3,2,1,5,0,49,,,,,,,,,,,,,,,,,,,,
,,,,,49,2020-07-04_15h09.35.751,retriever_ti,2020.1.3,Win32,60,Firefox,1536,864,,,,,,,,,,,,,,,,,3,,,,,,,,,,,,,,,,,,,,,,,,,,,938.518,170,right,0.971,hat           ,4,8,3,1,3,938.536,938.536,941.033,0,15,15,15,1,170,1,4,dolphin     ,hat           ,html/resources/sequences_IDs/B/02_dolphin.jpg,html/resources/sequences_IDs/A/08_hat.jpg,2,8,1,1,3,2,2,7,0,49,,,,,,,,,,,,,,,,,,,,
,,,,,49,2020-07-04_15h09.35.751,retriever_ti,2020.1.3,Win32,60,Firefox,1536,864,,,,,,,,,,,,,,,,,3,,,,,,,,,,,,,,,,,,,,,,,,,,,941.649,171,left,1.181,sport_tshirt,3,7,-4,0,3,941.667,941.667,944.165,0,16,16,16,1,171,3,7,sport_tshirt,parrot      ,html/resources/sequences_IDs/B/07_sport_tshirt.jpg,html/resources/sequences_IDs/B/05_parrot.jpg,7,5,3,2,2,1,6,4,0,49,,,,,,,,,,,,,,,,,,,,
,,,,,49,2020-07-04_15h09.35.751,retriever_ti,2020.1.3,Win32,60,Firefox,1536,864,,,,,,,,,,,,,,,,,3,,,,,,,,,,,,,,,,,,,,,,,,,,,944.782,172,left,1.043,wolf          ,2,1,-5,0,3,944.815,944.815,947.314,0,17,17,17,1,172,2,7,wolf          ,parrot      ,html/resources/sequences_IDs/A/01_wolf.jpg,html/resources/sequences_IDs/B/05_parrot.jpg,1,5,1,1,2,1,1,4,0,49,,,,,,,,,,,,,,,,,,,,
,,,,,49,2020-07-04_15h09.35.751,retriever_ti,2020.1.3,Win32,60,Firefox,1536,864,,,,,,,,,,,,,,,,,3,,,,,,,,,,,,,,,,,,,,,,,,,,,947.931,173,left,1.22,sport_tshirt,3,7,-3,0,3,947.967,947.967,950.464,0,18,18,18,1,173,3,6,sport_tshirt,camel         ,html/resources/sequences_IDs/B/07_sport_tshirt.jpg,html/resources/sequences_IDs/A/03_camel.jpg,7,3,3,2,1,1,6,3,0,49,,,,,,,,,,,,,,,,,,,,
,,,,,49,2020-07-04_15h09.35.751,retriever_ti,2020.1.3,Win32,60,Firefox,1536,864,,,,,,,,,,,,,,,,,3,,,,,,,,,,,,,,,,,,,,,,,,,,,951.08,174,left,1.142,sport_tshirt,3,7,-1,0,0,951.115,951.115,953.613,0,19,19,19,1,174,3,4,sport_tshirt,hat           ,html/resources/sequences_IDs/B/07_sport_tshirt.jpg,html/resources/sequences_IDs/A/08_hat.jpg,7,8,3,2,3,2,6,7,0,49,,,,,,,,,,,,,,,,,,,,
,,,,,49,2020-07-04_15h09.35.751,retriever_ti,2020.1.3,Win32,60,Firefox,1536,864,,,,,,,,,,,,,,,,,3,,,,,,,,,,,,,,,,,,,,,,,,,,,954.713,175,left,0.917,hat           ,4,8,-1,0,0,954.748,954.748,957.245,0,20,20,20,1,175,4,5,hat           ,gloves      ,html/resources/sequences_IDs/A/08_hat.jpg,html/resources/sequences_IDs/B/06_gloves.jpg,8,6,3,2,3,2,7,5,0,49,,,,,,,,,,,,,,,,,,,,
,,,,,49,2020-07-04_15h09.35.751,retriever_ti,2020.1.3,Win32,60,Firefox,1536,864,,,,,,,,,,,,,,,,,3,,,,,,,,,,,,,,,,,,,,,,,,,,,958.346,176,right,1.395,dolphin     ,1,2,-3,0,3,958.382,958.382,960.878,0,21,21,21,1,176,4,1,hat           ,dolphin     ,html/resources/sequences_IDs/A/08_hat.jpg,html/resources/sequences_IDs/B/02_dolphin.jpg,8,2,3,2,1,1,7,2,0,49,,,,,,,,,,,,,,,,,,,,
,,,,,49,2020-07-04_15h09.35.751,retriever_ti,2020.1.3,Win32,60,Firefox,1536,864,,,,,,,,,,,,,,,,,3,,,,,,,,,,,,,,,,,,,,,,,,,,,961.495,177,right,0.927,parrot      ,7,5,3,1,3,961.529,961.529,964.027,0,22,22,22,1,177,4,7,hat           ,parrot      ,html/resources/sequences_IDs/A/08_hat.jpg,html/resources/sequences_IDs/B/05_parrot.jpg,8,5,3,2,2,1,7,4,0,49,,,,,,,,,,,,,,,,,,,,
,,,,,49,2020-07-04_15h09.35.751,retriever_ti,2020.1.3,Win32,60,Firefox,1536,864,,,,,,,,,,,,,,,,,3,,,,,,,,,,,,,,,,,,,,,,,,,,,964.628,178,left,1.693,camel         ,6,3,3,1,3,964.661,964.661,967.159,0,23,23,23,1,178,6,3,camel         ,sport_tshirt,html/resources/sequences_IDs/A/03_camel.jpg,html/resources/sequences_IDs/B/07_sport_tshirt.jpg,3,7,1,1,3,2,3,6,0,49,,,,,,,,,,,,,,,,,,,,
,,,,,49,2020-07-04_15h09.35.751,retriever_ti,2020.1.3,Win32,60,Firefox,1536,864,,,,,,,,,,,,,,,,,3,,,,,,,,,,,,,,,,,,,,,,,,,,,967.76,179,right,1.098,camel         ,6,3,-2,0,3,967.777,967.777,970.275,0,24,24,24,1,179,8,6,satellite_dish,camel         ,html/resources/sequences_IDs/A/10_satellite_dish.jpg,html/resources/sequences_IDs/A/03_camel.jpg,10,3,4,2,1,1,8,3,0,49,,,,,,,,,,,,,,,,,,,,
,,,,,49,2020-07-04_15h09.35.751,retriever_ti,2020.1.3,Win32,60,Firefox,1536,864,,,,,,,,,,,,,,,,,3,,,,,,,,,,,,,,,,,,,,,,,,,,,970.892,180,right,0.734,camel         ,6,3,4,1,3,970.927,970.927,973.426,0,25,25,25,1,180,2,6,wolf          ,camel         ,html/resources/sequences_IDs/A/01_wolf.jpg,html/resources/sequences_IDs/A/03_camel.jpg,1,3,1,1,1,1,1,3,0,49,,,,,,,,,,,,,,,,,,,,
,,,,,49,2020-07-04_15h09.35.751,retriever_ti,2020.1.3,Win32,60,Firefox,1536,864,,,,,,,,,,,,,,,,,3,,,,,,,,,,,,,,,,,,,,,,,,,,,974.041,181,right,1.091,camel         ,6,3,1,1,1,974.076,974.076,976.574,0,26,26,26,1,181,5,6,gloves      ,camel         ,html/resources/sequences_IDs/B/06_gloves.jpg,html/resources/sequences_IDs/A/03_camel.jpg,6,3,3,2,1,1,5,3,0,49,,,,,,,,,,,,,,,,,,,,
,,,,,49,2020-07-04_15h09.35.751,retriever_ti,2020.1.3,Win32,60,Firefox,1536,864,,,,,,,,,,,,,,,,,3,,,,,,,,,,,,,,,,,,,,,,,,,,,977.674,182,left,1.396,camel         ,6,3,5,1,3,977.692,977.692,980.19,0,27,27,27,1,182,6,1,camel         ,dolphin     ,html/resources/sequences_IDs/A/03_camel.jpg,html/resources/sequences_IDs/B/02_dolphin.jpg,3,2,1,1,1,1,3,2,0,49,,,,,,,,,,,,,,,,,,,,
,,,,,49,2020-07-04_15h09.35.751,retriever_ti,2020.1.3,Win32,60,Firefox,1536,864,,,,,,,,,,,,,,,,,3,,,,,,,,,,,,,,,,,,,,,,,,,,,980.807,183,left,1.01,wolf          ,2,1,-1,0,0,980.841,980.841,983.339,0,28,28,28,1,183,2,3,wolf          ,sport_tshirt,html/resources/sequences_IDs/A/01_wolf.jpg,html/resources/sequences_IDs/B/07_sport_tshirt.jpg,1,7,1,1,3,2,1,6,0,49,,,,,,,,,,,,,,,,,,,,
,,,,,49,2020-07-04_15h09.35.751,retriever_ti,2020.1.3,Win32,60,Firefox,1536,864,,,,,,,,,,,,,,,,,3,,,,,,,,,,,,,,,,,,,,,,,,,,,984.439,184,left,1.456,camel         ,6,3,4,1,3,984.474,984.474,986.971,0,29,29,29,1,184,6,2,camel         ,wolf          ,html/resources/sequences_IDs/A/03_camel.jpg,html/resources/sequences_IDs/A/01_wolf.jpg,3,1,1,1,1,1,3,1,0,49,,,,,,,,,,,,,,,,,,,,
,,,,,49,2020-07-04_15h09.35.751,retriever_ti,2020.1.3,Win32,60,Firefox,1536,864,,,,,,,,,,,,,,,,,3,,,,,,,,,,,,,,,,,,,,,,,,,,,987.589,185,right,0.994,hat           ,4,8,-3,0,3,987.621,987.621,990.121,0,30,30,30,1,185,7,4,parrot      ,hat           ,html/resources/sequences_IDs/B/05_parrot.jpg,html/resources/sequences_IDs/A/08_hat.jpg,5,8,2,1,3,2,4,7,0,49,,,,,,,,,,,,,,,,,,,,
,,,,,49,2020-07-04_15h09.35.751,retriever_ti,2020.1.3,Win32,60,Firefox,1536,864,,,,,,,,,,,,,,,,,3,,,,,,,,,,,,,,,,,,,,,,,,,,,990.737,186,left,0.9,camel         ,6,3,-1,0,0,990.755,990.755,993.253,0,31,31,31,1,186,6,7,camel         ,parrot      ,html/resources/sequences_IDs/A/03_camel.jpg,html/resources/sequences_IDs/B/05_parrot.jpg,3,5,1,1,2,1,3,4,0,49,,,,,,,,,,,,,,,,,,,,
,,,,,49,2020-07-04_15h09.35.751,retriever_ti,2020.1.3,Win32,60,Firefox,1536,864,,,,,,,,,,,,,,,,,3,,,,,,,,,,,,,,,,,,,,,,,,,,,994.354,187,left,1.132,sport_tshirt,3,7,1,1,1,994.37,994.37,996.868,0,32,32,32,1,187,3,2,sport_tshirt,wolf          ,html/resources/sequences_IDs/B/07_sport_tshirt.jpg,html/resources/sequences_IDs/A/01_wolf.jpg,7,1,3,2,1,1,6,1,0,49,,,,,,,,,,,,,,,,,,,,
,,,,,49,2020-07-04_15h09.35.751,retriever_ti,2020.1.3,Win32,60,Firefox,1536,864,,,,,,,,,,,,,,,,,3,,,,,,,,,,,,,,,,,,,,,,,,,,,997.969,188,left,0.628,sport_tshirt,3,7,1,1,1,998.004,998.004,1000.502,0,33,33,33,1,188,3,2,sport_tshirt,wolf          ,html/resources/sequences_IDs/B/07_sport_tshirt.jpg,html/resources/sequences_IDs/A/01_wolf.jpg,7,1,3,2,1,1,6,1,0,49,,,,,,,,,,,,,,,,,,,,
,,,,,49,2020-07-04_15h09.35.751,retriever_ti,2020.1.3,Win32,60,Firefox,1536,864,,,,,,,,,,,,,,,,,3,,,,,,,,,,,,,,,,,,,,,,,,,,,1001.602,189,right,1.296,parrot      ,7,5,-1,0,0,1001.621,1001.621,1004.117,0,34,34,34,1,189,8,7,satellite_dish,parrot      ,html/resources/sequences_IDs/A/10_satellite_dish.jpg,html/resources/sequences_IDs/B/05_parrot.jpg,10,5,4,2,2,1,8,4,0,49,,,,,,,,,,,,,,,,,,,,
,,,,,49,2020-07-04_15h09.35.751,retriever_ti,2020.1.3,Win32,60,Firefox,1536,864,,,,,,,,,,,,,,,,,3,,,,,,,,,,,,,,,,,,,,,,,,,,,1005.218,190,left,1.093,dolphin     ,1,2,-4,0,3,1005.234,1005.234,1007.733,0,35,35,35,1,190,1,5,dolphin     ,gloves      ,html/resources/sequences_IDs/B/02_dolphin.jpg,html/resources/sequences_IDs/B/06_gloves.jpg,2,6,1,1,3,2,2,5,0,49,,,,,,,,,,,,,,,,,,,,
,,,,,49,2020-07-04_15h09.35.751,retriever_ti,2020.1.3,Win32,60,Firefox,1536,864,,,,,,,,,,,,,,,,,3,,,,,,,,,,,,,,,,,,,,,,,,,,,1008.35,191,right,0.948,parrot      ,7,5,2,1,3,1008.385,1008.385,1010.882,0,36,36,36,1,191,5,7,gloves      ,parrot      ,html/resources/sequences_IDs/B/06_gloves.jpg,html/resources/sequences_IDs/B/05_parrot.jpg,6,5,3,2,2,1,5,4,0,49,,,,,,,,,,,,,,,,,,,,
,,,,,49,2020-07-04_15h09.35.751,retriever_ti,2020.1.3,Win32,60,Firefox,1536,864,,,,,,,,,,,,,,,,,3,,,,,,,,,,,,,,,,,,,,,,,,,,,1011.482,192,right,1.113,wolf          ,2,1,1,1,1,1011.518,1011.518,1014.015,0,37,37,37,1,192,1,2,dolphin     ,wolf          ,html/resources/sequences_IDs/B/02_dolphin.jpg,html/resources/sequences_IDs/A/01_wolf.jpg,2,1,1,1,1,1,2,1,0,49,,,,,,,,,,,,,,,,,,,,
,,,,,49,2020-07-04_15h09.35.751,retriever_ti,2020.1.3,Win32,60,Firefox,1536,864,,,,,,,,,,,,,,,,,3,,,,,,,,,,,,,,,,,,,,,,,,,,,1015.115,193,right,0.912,wolf          ,2,1,-3,0,3,1015.148,1015.148,1017.649,0,38,38,38,1,193,5,2,gloves      ,wolf          ,html/resources/sequences_IDs/B/06_gloves.jpg,html/resources/sequences_IDs/A/01_wolf.jpg,6,1,3,2,1,1,5,1,0,49,,,,,,,,,,,,,,,,,,,,
,,,,,49,2020-07-04_15h09.35.751,retriever_ti,2020.1.3,Win32,60,Firefox,1536,864,,,,,,,,,,,,,,,,,3,,,,,,,,,,,,,,,,,,,,,,,,,,,1018.264,194,right,1.462,satellite_dish,8,10,3,1,3,1018.299,1018.299,1020.796,0,39,39,39,1,194,5,8,gloves      ,satellite_dish,html/resources/sequences_IDs/B/06_gloves.jpg,html/resources/sequences_IDs/A/10_satellite_dish.jpg,6,10,3,2,4,2,5,8,0,49,,,,,,,,,,,,,,,,,,,,
,,,,,49,2020-07-04_15h09.35.751,retriever_ti,2020.1.3,Win32,60,Firefox,1536,864,,,,,,,,,,,,,,,,,3,,,,,,,,,,,,,,,,,,,,,,,,,,,1021.397,195,left,1.149,satellite_dish,8,10,1,1,1,1021.43,1021.43,1023.929,0,40,40,40,1,195,8,7,satellite_dish,parrot      ,html/resources/sequences_IDs/A/10_satellite_dish.jpg,html/resources/sequences_IDs/B/05_parrot.jpg,10,5,4,2,2,1,8,4,0,49,,,,,,,,,,,,,,,,,,,,
,,,,,49,2020-07-04_15h09.35.751,retriever_ti,2020.1.3,Win32,60,Firefox,1536,864,,,,,,,,,,,,,,,,,3,,,,,,,,,,,,,,,,,,,,,,,,,,,1025.029,196,left,1.093,hat           ,4,8,-1,0,1,1025.049,1025.049,1027.545,0,41,41,41,1,196,4,5,hat           ,gloves      ,html/resources/sequences_IDs/A/08_hat.jpg,html/resources/sequences_IDs/B/06_gloves.jpg,8,6,3,2,3,2,7,5,1,49,,,,,,,,,,,,,,,,,,,,
,,,,,49,2020-07-04_15h09.35.751,retriever_ti,2020.1.3,Win32,60,Firefox,1536,864,,,,,,,,,,,,,,,,,3,,,,,,,,,,,,,,,,,,,,,,,,,,,1028.646,197,right,1.359,wolf          ,2,1,1,1,1,1028.68,1028.68,1031.178,0,42,42,42,1,197,1,2,dolphin     ,wolf          ,html/resources/sequences_IDs/B/02_dolphin.jpg,html/resources/sequences_IDs/A/01_wolf.jpg,2,1,1,1,1,1,2,1,0,49,,,,,,,,,,,,,,,,,,,,
,,,,,49,2020-07-04_15h09.35.751,retriever_ti,2020.1.3,Win32,60,Firefox,1536,864,,,,,,,,,,,,,,,,,3,,,,,,,,,,,,,,,,,,,,,,,,,,,1032.278,198,left,1.047,camel         ,6,3,2,1,3,1032.312,1032.312,1034.81,0,43,43,43,1,198,6,4,camel         ,hat           ,html/resources/sequences_IDs/A/03_camel.jpg,html/resources/sequences_IDs/A/08_hat.jpg,3,8,1,1,3,2,3,7,0,49,,,,,,,,,,,,,,,,,,,,
,,,,,49,2020-07-04_15h09.35.751,retriever_ti,2020.1.3,Win32,60,Firefox,1536,864,,,,,,,,,,,,,,,,,3,,,,,,,,,,,,,,,,,,,,,,,,,,,1035.427,199,left,1.064,parrot      ,7,5,1,1,0,1035.447,1035.447,1037.942,0,44,44,44,1,199,7,6,parrot      ,camel         ,html/resources/sequences_IDs/B/05_parrot.jpg,html/resources/sequences_IDs/A/03_camel.jpg,5,3,2,1,1,1,4,3,1,49,,,,,,,,,,,,,,,,,,,,
,,,,,49,2020-07-04_15h09.35.751,retriever_ti,2020.1.3,Win32,60,Firefox,1536,864,,,,,,,,,,,,,,,,,3,,,,,,,,,,,,,,,,,,,,,,,,,,,1039.043,200,left,1.079,satellite_dish,8,10,1,1,0,1039.079,1039.079,1041.575,0,45,45,45,1,200,8,7,satellite_dish,parrot      ,html/resources/sequences_IDs/A/10_satellite_dish.jpg,html/resources/sequences_IDs/B/05_parrot.jpg,10,5,4,2,2,1,8,4,1,49,,,,,,,,,,,,,,,,,,,,
,,,,,49,2020-07-04_15h09.35.751,retriever_ti,2020.1.3,Win32,60,Firefox,1536,864,,,,,,,,,,,,,,,,,3,,,,,,,,,,,,,,,,,,,,,,,,,,,1042.675,201,left,1.08,parrot      ,7,5,1,1,1,1042.694,1042.694,1045.191,0,46,46,46,1,201,7,6,parrot      ,camel         ,html/resources/sequences_IDs/B/05_parrot.jpg,html/resources/sequences_IDs/A/03_camel.jpg,5,3,2,1,1,1,4,3,0,49,,,,,,,,,,,,,,,,,,,,
,,,,,49,2020-07-04_15h09.35.751,retriever_ti,2020.1.3,Win32,60,Firefox,1536,864,,,,,,,,,,,,,,,,,3,,,,,,,,,,,,,,,,,,,,,,,,,,,1046.291,202,left,1.339,wolf          ,2,1,1,1,1,1046.327,1046.327,1048.823,0,47,47,47,1,202,2,1,wolf          ,dolphin     ,html/resources/sequences_IDs/A/01_wolf.jpg,html/resources/sequences_IDs/B/02_dolphin.jpg,1,2,1,1,1,1,1,2,0,49,,,,,,,,,,,,,,,,,,,,
,,,,,49,2020-07-04_15h09.35.751,retriever_ti,2020.1.3,Win32,60,Firefox,1536,864,,,,,,,,,,,,,,,,,3,,,,,,,,,,,,,,,,,,,,,,,,,,,1049.923,203,left,1.35,satellite_dish,8,10,3,1,3,1049.958,1049.958,1052.456,0,48,48,48,1,203,8,5,satellite_dish,gloves      ,html/resources/sequences_IDs/A/10_satellite_dish.jpg,html/resources/sequences_IDs/B/06_gloves.jpg,10,6,4,2,3,2,8,5,0,49,,,,,,,,,,,,,,,,,,,,
,,,,,49,2020-07-04_15h09.35.751,retriever_ti,2020.1.3,Win32,60,Firefox,1536,864,,,,,,,,,,,,,,,,,3,,,,,,,,,,,,,,,,,,,,,,,,,,,1053.072,204,left,1.614,dolphin     ,1,2,-2,0,3,1053.107,1053.107,1055.605,0,49,49,49,1,204,1,3,dolphin     ,sport_tshirt,html/resources/sequences_IDs/B/02_dolphin.jpg,html/resources/sequences_IDs/B/07_sport_tshirt.jpg,2,7,1,1,3,2,2,6,0,49,,,,,,,,,,,,,,,,,,,,
,,,,,49,2020-07-04_15h09.35.751,retriever_ti,2020.1.3,Win32,60,Firefox,1536,864,,,,,,,,,,,,,,,,,3,,,,,,,,,,,,,,,,,,,,,,,,,,,1056.222,205,left,1.38,parrot      ,7,5,-1,0,0,1056.238,1056.238,1058.738,0,50,50,50,1,205,7,8,parrot      ,satellite_dish,html/resources/sequences_IDs/B/05_parrot.jpg,html/resources/sequences_IDs/A/10_satellite_dish.jpg,5,10,2,1,4,2,4,8,0,49,,,,,,,,,,,,,,,,,,,,
,,,,,49,2020-07-04_15h09.35.751,retriever_ti,2020.1.3,Win32,60,Firefox,1536,864,,,,,,,,,,,,,,,,,3,,,,,,,,,,,,,,,,,,,,,,,,,,,1059.838,206,right,1.148,dolphin     ,1,2,-6,0,3,1059.872,1059.872,1062.371,0,51,51,51,1,206,7,1,parrot      ,dolphin     ,html/resources/sequences_IDs/B/05_parrot.jpg,html/resources/sequences_IDs/B/02_dolphin.jpg,5,2,2,1,1,1,4,2,0,49,,,,,,,,,,,,,,,,,,,,
,,,,,49,2020-07-04_15h09.35.751,retriever_ti,2020.1.3,Win32,60,Firefox,1536,864,,,,,,,,,,,,,,,,,3,,,,,,,,,,,,,,,,,,,,,,,,,,,1062.988,207,right,1.145,camel         ,6,3,2,1,3,1063.005,1063.005,1065.519,0,52,52,52,1,207,4,6,hat           ,camel         ,html/resources/sequences_IDs/A/08_hat.jpg,html/resources/sequences_IDs/A/03_camel.jpg,8,3,3,2,1,1,7,3,0,49,,,,,,,,,,,,,,,,,,,,
,,,,,49,2020-07-04_15h09.35.751,retriever_ti,2020.1.3,Win32,60,Firefox,1536,864,,,,,,,,,,,,,,,,,3,,,,,,,,,,,,,,,,,,,,,,,,,,,1066.136,208,right,1.146,hat           ,4,8,1,1,1,1066.169,1066.169,1068.67,0,53,53,53,1,208,3,4,sport_tshirt,hat           ,html/resources/sequences_IDs/B/07_sport_tshirt.jpg,html/resources/sequences_IDs/A/08_hat.jpg,7,8,3,2,3,2,6,7,0,49,,,,,,,,,,,,,,,,,,,,
,,,,,49,2020-07-04_15h09.35.751,retriever_ti,2020.1.3,Win32,60,Firefox,1536,864,,,,,,,,,,,,,,,,,3,,,,,,,,,,,,,,,,,,,,,,,,,,,1069.769,209,right,1.212,gloves      ,5,6,2,1,3,1069.785,1069.785,1072.284,0,54,54,54,1,209,3,5,sport_tshirt,gloves      ,html/resources/sequences_IDs/B/07_sport_tshirt.jpg,html/resources/sequences_IDs/B/06_gloves.jpg,7,6,3,2,3,2,6,5,0,49,,,,,,,,,,,,,,,,,,,,
,,,,,49,2020-07-04_15h09.35.751,retriever_ti,2020.1.3,Win32,60,Firefox,1536,864,,,,,,,,,,,,,,,,,3,,,,,,,,,,,,,,,,,,,,,,,,,,,1072.885,210,left,0.983,hat           ,4,8,1,1,1,1072.918,1072.918,1075.416,0,55,55,55,1,210,4,3,hat           ,sport_tshirt,html/resources/sequences_IDs/A/08_hat.jpg,html/resources/sequences_IDs/B/07_sport_tshirt.jpg,8,7,3,2,3,2,7,6,0,49,,,,,,,,,,,,,,,,,,,,
,,,,,49,2020-07-04_15h09.35.751,retriever_ti,2020.1.3,Win32,60,Firefox,1536,864,,,,,,,,,,,,,,,,,3,,,,,,,,,,,,,,,,,,,,,,,,,,,1076.517,211,right,1.21,dolphin     ,1,2,-4,0,3,1076.552,1076.552,1079.049,0,56,56,56,1,211,5,1,gloves      ,dolphin     ,html/resources/sequences_IDs/B/06_gloves.jpg,html/resources/sequences_IDs/B/02_dolphin.jpg,6,2,3,2,1,1,5,2,0,49,,,,,,,,,,,,,,,,,,,,
,,,,,49,2020-07-04_15h09.35.751,retriever_ti,2020.1.3,Win32,60,Firefox,1536,864,,,,,,,,,,,,,,,,,3,,,,,,,,,,,,,,,,,,,,,,,,,,,1079.666,212,right,0.864,dolphin     ,1,2,-2,0,3,1079.684,1079.684,1082.182,0,57,57,57,1,212,3,1,sport_tshirt,dolphin     ,html/resources/sequences_IDs/B/07_sport_tshirt.jpg,html/resources/sequences_IDs/B/02_dolphin.jpg,7,2,3,2,1,1,6,2,0,49,,,,,,,,,,,,,,,,,,,,
,,,,,49,2020-07-04_15h09.35.751,retriever_ti,2020.1.3,Win32,60,Firefox,1536,864,,,,,,,,,,,,,,,,,3,,,,,,,,,,,,,,,,,,,,,,,,,,,1082.799,213,left,1.08,gloves      ,5,6,2,1,3,1082.818,1082.818,1085.314,0,58,58,58,1,213,5,3,gloves      ,sport_tshirt,html/resources/sequences_IDs/B/06_gloves.jpg,html/resources/sequences_IDs/B/07_sport_tshirt.jpg,6,7,3,2,3,2,5,6,0,49,,,,,,,,,,,,,,,,,,,,
,,,,,49,2020-07-04_15h09.35.751,retriever_ti,2020.1.3,Win32,60,Firefox,1536,864,,,,,,,,,,,,,,,,,3,,,,,,,,,,,,,,,,,,,,,,,,,,,1085.916,214,left,1.281,camel         ,6,3,-2,0,3,1085.95,1085.95,1088.447,0,59,59,59,1,214,6,8,camel         ,satellite_dish,html/resources/sequences_IDs/A/03_camel.jpg,html/resources/sequences_IDs/A/10_satellite_dish.jpg,3,10,1,1,4,2,3,8,0,49,,,,,,,,,,,,,,,,,,,,
,,,,,49,2020-07-04_15h09.35.751,retriever_ti,2020.1.3,Win32,60,Firefox,1536,864,,,,,,,,,,,,,,,,,3,,,,,,,,,,,,,,,,,,,,,,,,,,,1089.05,215,right,1.126,sport_tshirt,3,7,-4,0,3,1089.08,1089.08,1091.58,0,60,60,60,1,215,7,3,parrot      ,sport_tshirt,html/resources/sequences_IDs/B/05_parrot.jpg,html/resources/sequences_IDs/B/07_sport_tshirt.jpg,5,7,2,1,3,2,4,6,0,49,,,,,,,,,,,,,,,,,,,,
,,,,,49,2020-07-04_15h09.35.751,retriever_ti,2020.1.3,Win32,60,Firefox,1536,864,,,,,,,,,,,,,,,,,3,,,,,,,,,,,,,,,,,,,,,,,,,,,1092.197,216,right,1.25,camel         ,6,3,-1,0,0,1092.231,1092.231,1094.728,0,61,61,61,1,216,7,6,parrot      ,camel         ,html/resources/sequences_IDs/B/05_parrot.jpg,html/resources/sequences_IDs/A/03_camel.jpg,5,3,2,1,1,1,4,3,0,49,,,,,,,,,,,,,,,,,,,,
,,,,,49,2020-07-04_15h09.35.751,retriever_ti,2020.1.3,Win32,60,Firefox,1536,864,,,,,,,,,,,,,,,,,3,,,,,,,,,,,,,,,,,,,,,,,,,,,1095.828,217,left,1.415,satellite_dish,8,10,7,1,3,1095.848,1095.848,1098.346,0,62,62,62,1,217,8,1,satellite_dish,dolphin     ,html/resources/sequences_IDs/A/10_satellite_dish.jpg,html/resources/sequences_IDs/B/02_dolphin.jpg,10,2,4,2,1,1,8,2,0,49,,,,,,,,,,,,,,,,,,,,
,,,,,49,2020-07-04_15h09.35.751,retriever_ti,2020.1.3,Win32,60,Firefox,1536,864,,,,,,,,,,,,,,,,,3,,,,,,,,,,,,,,,,,,,,,,,,,,,1098.962,218,right,0.781,wolf          ,2,1,-2,0,3,1098.998,1098.998,1101.494,0,63,63,63,1,218,4,2,hat           ,wolf          ,html/resources/sequences_IDs/A/08_hat.jpg,html/resources/sequences_IDs/A/01_wolf.jpg,8,1,3,2,1,1,7,1,0,49,,,,,,,,,,,,,,,,,,,,
,,,,,49,2020-07-04_15h09.35.751,retriever_ti,2020.1.3,Win32,60,Firefox,1536,864,,,,,,,,,,,,,,,,,3,,,,,,,,,,,,,,,,,,,,,,,,,,,1102.111,219,left,1.082,dolphin     ,1,2,-5,0,3,1102.146,1102.146,1104.643,0,64,64,64,1,219,1,6,dolphin     ,camel         ,html/resources/sequences_IDs/B/02_dolphin.jpg,html/resources/sequences_IDs/A/03_camel.jpg,2,3,1,1,1,1,2,3,0,49,,,,,,,,,,,,,,,,,,,,
,,,,,49,2020-07-04_15h09.35.751,retriever_ti,2020.1.3,Win32,60,Firefox,1536,864,,,,,,,,,,,,,,,,,3,,,,,,,,,,,,,,,,,,,,,,,,,,,1105.26,220,left,0.739,wolf          ,2,1,-6,0,3,1105.279,1105.279,1107.776,0,65,65,65,1,220,2,8,wolf          ,satellite_dish,html/resources/sequences_IDs/A/01_wolf.jpg,html/resources/sequences_IDs/A/10_satellite_dish.jpg,1,10,1,1,4,2,1,8,0,49,,,,,,,,,,,,,,,,,,,,
,,,,,49,2020-07-04_15h09.35.751,retriever_ti,2020.1.3,Win32,60,Firefox,1536,864,,,,,,,,,,,,,,,,,3,,,,,,,,,,,,,,,,,,,,,,,,,,,1108.394,221,left,1.083,gloves      ,5,6,-1,0,1,1108.411,1108.411,1110.908,0,66,66,66,1,221,5,6,gloves      ,camel         ,html/resources/sequences_IDs/B/06_gloves.jpg,html/resources/sequences_IDs/A/03_camel.jpg,6,3,3,2,1,1,5,3,1,49,,,,,,,,,,,,,,,,,,,,
,,,,,49,2020-07-04_15h09.35.751,retriever_ti,2020.1.3,Win32,60,Firefox,1536,864,,,,,,,,,,,,,,,,,3,,,,,,,,,,,,,,,,,,,,,,,,,,,1112.009,222,right,1.125,satellite_dish,8,10,1,1,1,1112.025,1112.025,1114.524,0,67,67,67,1,222,7,8,parrot      ,satellite_dish,html/resources/sequences_IDs/B/05_parrot.jpg,html/resources/sequences_IDs/A/10_satellite_dish.jpg,5,10,2,1,4,2,4,8,0,49,,,,,,,,,,,,,,,,,,,,
,,,,,49,2020-07-04_15h09.35.751,retriever_ti,2020.1.3,Win32,60,Firefox,1536,864,,,,,,,,,,,,,,,,,3,,,,,,,,,,,,,,,,,,,,,,,,,,,1115.624,223,left,1.125,satellite_dish,8,10,6,1,3,1115.642,1115.642,1118.139,0,68,68,68,1,223,8,2,satellite_dish,wolf          ,html/resources/sequences_IDs/A/10_satellite_dish.jpg,html/resources/sequences_IDs/A/01_wolf.jpg,10,1,4,2,1,1,8,1,0,49,,,,,,,,,,,,,,,,,,,,
,,,,,49,2020-07-04_15h09.35.751,retriever_ti,2020.1.3,Win32,60,Firefox,1536,864,,,,,,,,,,,,,,,,,3,,,,,,,,,,,,,,,,,,,,,,,,,,,1118.74,224,left,1.09,hat           ,4,8,-1,0,0,1118.76,1118.76,1121.257,0,69,69,69,1,224,4,5,hat           ,gloves      ,html/resources/sequences_IDs/A/08_hat.jpg,html/resources/sequences_IDs/B/06_gloves.jpg,8,6,3,2,3,2,7,5,0,49,,,,,,,,,,,,,,,,,,,,
,,,,,49,2020-07-04_15h09.35.751,retriever_ti,2020.1.3,Win32,60,Firefox,1536,864,,,,,,,,,,,,,,,,,3,,,,,,,,,,,,,,,,,,,,,,,,,,,1122.356,225,left,1.159,wolf          ,2,1,1,1,1,1122.391,1122.391,1124.888,0,70,70,70,1,225,2,1,wolf          ,dolphin     ,html/resources/sequences_IDs/A/01_wolf.jpg,html/resources/sequences_IDs/B/02_dolphin.jpg,1,2,1,1,1,1,1,2,0,49,,,,,,,,,,,,,,,,,,,,
,,,,,49,2020-07-04_15h09.35.751,retriever_ti,2020.1.3,Win32,60,Firefox,1536,864,,,,,,,,,,,,,,,,,3,,,,,,,,,,,,,,,,,,,,,,,,,,,1125.989,226,right,1.212,satellite_dish,8,10,5,1,3,1126.007,1126.007,1128.504,0,71,71,71,1,226,3,8,sport_tshirt,satellite_dish,html/resources/sequences_IDs/B/07_sport_tshirt.jpg,html/resources/sequences_IDs/A/10_satellite_dish.jpg,7,10,3,2,4,2,6,8,0,49,,,,,,,,,,,,,,,,,,,,
,,,,,49,2020-07-04_15h09.35.751,retriever_ti,2020.1.3,Win32,60,Firefox,1536,864,,,,,,,,,,,,,,,,,3,,,,,,,,,,,,,,,,,,,,,,,,,,,1129.121,227,left,1.146,hat           ,4,8,1,1,0,1129.157,1129.157,1131.654,0,72,72,72,1,227,4,3,hat           ,sport_tshirt,html/resources/sequences_IDs/A/08_hat.jpg,html/resources/sequences_IDs/B/07_sport_tshirt.jpg,8,7,3,2,3,2,7,6,1,49,,,,,,,,,,,,,,,,,,,,
,,,,,49,2020-07-04_15h09.35.751,retriever_ti,2020.1.3,Win32,60,Firefox,1536,864,,,,,,,,,,,,,,,,,3,,,,,,,,,,,,,,,,,,,,,,,,,,,1132.754,228,left,0.849,wolf          ,2,1,-2,0,3,1132.79,1132.79,1135.285,0,73,73,73,1,228,2,4,wolf          ,hat           ,html/resources/sequences_IDs/A/01_wolf.jpg,html/resources/sequences_IDs/A/08_hat.jpg,1,8,1,1,3,2,1,7,0,49,,,,,,,,,,,,,,,,,,,,
,,,,,49,2020-07-04_15h09.35.751,retriever_ti,2020.1.3,Win32,60,Firefox,1536,864,,,,,,,,,,,,,,,,,3,,,,,,,,,,,,,,,,,,,,,,,,,,,1135.886,229,left,1.16,camel         ,6,3,1,1,1,1135.902,1135.902,1138.402,0,74,74,74,1,229,6,5,camel         ,gloves      ,html/resources/sequences_IDs/A/03_camel.jpg,html/resources/sequences_IDs/B/06_gloves.jpg,3,6,1,1,3,2,3,5,0,49,,,,,,,,,,,,,,,,,,,,
,,,,,49,2020-07-04_15h09.35.751,retriever_ti,2020.1.3,Win32,60,Firefox,1536,864,,,,,,,,,,,,,,,,,3,,,,,,,,,,,,,,,,,,,,,,,,,,,1139.502,230,left,1.578,satellite_dish,8,10,4,1,3,1139.537,1139.537,1142.034,0,75,75,75,1,230,8,4,satellite_dish,hat           ,html/resources/sequences_IDs/A/10_satellite_dish.jpg,html/resources/sequences_IDs/A/08_hat.jpg,10,8,4,2,3,2,8,7,0,49,,,,,,,,,,,,,,,,,,,,
