instructionsLoop.thisRepN,instructionsLoop.thisTrialN,instructionsLoop.thisN,instructionsLoop.thisIndex,instructionsLoop.ran,participant,date,expName,psychopyVersion,OS,frameRate,browser,xResolution,yResolution,fix_onset,tprac,practiceKey.keys,practiceKey.rt,pracitem_chosen_name,acc_practice,P1_onsetPrac,P2_onsetPrac,onsetFeedbPrac,practiceTrials.thisRepN,practiceTrials.thisTrialN,practiceTrials.thisN,practiceTrials.thisIndex,practiceTrials.ran,P1,P2,Block,LocItem1,LocItem2,NameItem1,NameItem2,key_respAC_prac.keys,key_respAC_prac.corr,key_respAC_prac.rt,AC_acc,Attentions.thisRepN,Attentions.thisTrialN,Attentions.thisN,Attentions.thisIndex,Attentions.ran,Stim,Loc1,Loc2,Loc3,Loc4,CorrAns,keyDisturbed.keys,keyDisturbed.rt,repPractice.thisRepN,repPractice.thisTrialN,repPractice.thisN,repPractice.thisIndex,repPractice.ran,fixcross_onsetMain,trialNumber,key_resp.keys,key_resp.rt,item_chosen_name,item_chosen_value,item_chosen_ID,diff_chosen_minus_reject,acc_real,acc_feedback,P1_onset,P2_onset,feedb_onset,trials.thisRepN,trials.thisTrialN,trials.thisN,trials.thisIndex,trials.ran,Trial,ValueP1,ValueP2,P1name,P2name,P1Loc,P2Loc,P1id,P2id,Micro_categoryP1,Macro_categoryP1,Micro_categoryP2,Macro_categoryP2,ID_sequenceP1,ID_sequenceP2,InverseFb,pNumber,repBlocks.thisRepN,repBlocks.thisTrialN,repBlocks.thisN,repBlocks.thisIndex,repBlocks.ran,key_respAC.keys,key_respAC.corr,key_respAC.rt,trials_AC.thisRepN,trials_AC.thisTrialN,trials_AC.thisN,trials_AC.thisIndex,trials_AC.ran,Bonus,BonusLoop.thisRepN,BonusLoop.thisTrialN,BonusLoop.thisN,BonusLoop.thisIndex,BonusLoop.ran,comments
0,0,0,0,1,50,2020-07-04_10h11.16.900,retriever_ti,2020.1.3,Win32,60,Chrome,2560,1440,,,,,,,,,,,,,,,,,,,,,,,,,,,,,,,,,,,,,,,,,,,,,,,,,,,,,,,,,,,,,,,,,,,,,,,,,,,,,,,,,,,,,,,,,,,,,,,,,,
1,0,1,0,1,50,2020-07-04_10h11.16.900,retriever_ti,2020.1.3,Win32,60,Chrome,2560,1440,,,,,,,,,,,,,,,,,,,,,,,,,,,,,,,,,,,,,,,,,,,,,,,,,,,,,,,,,,,,,,,,,,,,,,,,,,,,,,,,,,,,,,,,,,,,,,,,,,
2,0,2,0,1,50,2020-07-04_10h11.16.900,retriever_ti,2020.1.3,Win32,60,Chrome,2560,1440,,,,,,,,,,,,,,,,,,,,,,,,,,,,,,,,,,,,,,,,,,,,,,,,,,,,,,,,,,,,,,,,,,,,,,,,,,,,,,,,,,,,,,,,,,,,,,,,,,
3,0,3,0,1,50,2020-07-04_10h11.16.900,retriever_ti,2020.1.3,Win32,60,Chrome,2560,1440,,,,,,,,,,,,,,,,,,,,,,,,,,,,,,,,,,,,,,,,,,,,,,,,,,,,,,,,,,,,,,,,,,,,,,,,,,,,,,,,,,,,,,,,,,,,,,,,,,
4,0,4,0,1,50,2020-07-04_10h11.16.900,retriever_ti,2020.1.3,Win32,60,Chrome,2560,1440,,,,,,,,,,,,,,,,,,,,,,,,,,,,,,,,,,,,,,,,,,,,,,,,,,,,,,,,,,,,,,,,,,,,,,,,,,,,,,,,,,,,,,,,,,,,,,,,,,
5,0,5,0,1,50,2020-07-04_10h11.16.900,retriever_ti,2020.1.3,Win32,60,Chrome,2560,1440,,,,,,,,,,,,,,,,,,,,,,,,,,,,,,,,,,,,,,,,,,,,,,,,,,,,,,,,,,,,,,,,,,,,,,,,,,,,,,,,,,,,,,,,,,,,,,,,,,
6,0,6,0,1,50,2020-07-04_10h11.16.900,retriever_ti,2020.1.3,Win32,60,Chrome,2560,1440,,,,,,,,,,,,,,,,,,,,,,,,,,,,,,,,,,,,,,,,,,,,,,,,,,,,,,,,,,,,,,,,,,,,,,,,,,,,,,,,,,,,,,,,,,,,,,,,,,
7,0,7,0,1,50,2020-07-04_10h11.16.900,retriever_ti,2020.1.3,Win32,60,Chrome,2560,1440,,,,,,,,,,,,,,,,,,,,,,,,,,,,,,,,,,,,,,,,,,,,,,,,,,,,,,,,,,,,,,,,,,,,,,,,,,,,,,,,,,,,,,,,,,,,,,,,,,
8,0,8,0,1,50,2020-07-04_10h11.16.900,retriever_ti,2020.1.3,Win32,60,Chrome,2560,1440,,,,,,,,,,,,,,,,,,,,,,,,,,,,,,,,,,,,,,,,,,,,,,,,,,,,,,,,,,,,,,,,,,,,,,,,,,,,,,,,,,,,,,,,,,,,,,,,,,
9,0,9,0,1,50,2020-07-04_10h11.16.900,retriever_ti,2020.1.3,Win32,60,Chrome,2560,1440,,,,,,,,,,,,,,,,,,,,,,,,,,,,,,,,,,,,,,,,,,,,,,,,,,,,,,,,,,,,,,,,,,,,,,,,,,,,,,,,,,,,,,,,,,,,,,,,,,
10,0,10,0,1,50,2020-07-04_10h11.16.900,retriever_ti,2020.1.3,Win32,60,Chrome,2560,1440,,,,,,,,,,,,,,,,,,,,,,,,,,,,,,,,,,,,,,,,,,,,,,,,,,,,,,,,,,,,,,,,,,,,,,,,,,,,,,,,,,,,,,,,,,,,,,,,,,
11,0,11,0,1,50,2020-07-04_10h11.16.900,retriever_ti,2020.1.3,Win32,60,Chrome,2560,1440,,,,,,,,,,,,,,,,,,,,,,,,,,,,,,,,,,,,,,,,,,,,,,,,,,,,,,,,,,,,,,,,,,,,,,,,,,,,,,,,,,,,,,,,,,,,,,,,,,
12,0,12,0,1,50,2020-07-04_10h11.16.900,retriever_ti,2020.1.3,Win32,60,Chrome,2560,1440,,,,,,,,,,,,,,,,,,,,,,,,,,,,,,,,,,,,,,,,,,,,,,,,,,,,,,,,,,,,,,,,,,,,,,,,,,,,,,,,,,,,,,,,,,,,,,,,,,
13,0,13,0,1,50,2020-07-04_10h11.16.900,retriever_ti,2020.1.3,Win32,60,Chrome,2560,1440,,,,,,,,,,,,,,,,,,,,,,,,,,,,,,,,,,,,,,,,,,,,,,,,,,,,,,,,,,,,,,,,,,,,,,,,,,,,,,,,,,,,,,,,,,,,,,,,,,
14,0,14,0,1,50,2020-07-04_10h11.16.900,retriever_ti,2020.1.3,Win32,60,Chrome,2560,1440,,,,,,,,,,,,,,,,,,,,,,,,,,,,,,,,,,,,,,,,,,,,,,,,,,,,,,,,,,,,,,,,,,,,,,,,,,,,,,,,,,,,,,,,,,,,,,,,,,
15,0,15,0,1,50,2020-07-04_10h11.16.900,retriever_ti,2020.1.3,Win32,60,Chrome,2560,1440,,,,,,,,,,,,,,,,,,,,,,,,,,,,,,,,,,,,,,,,,,,,,,,,,,,,,,,,,,,,,,,,,,,,,,,,,,,,,,,,,,,,,,,,,,,,,,,,,,
16,0,16,0,1,50,2020-07-04_10h11.16.900,retriever_ti,2020.1.3,Win32,60,Chrome,2560,1440,,,,,,,,,,,,,,,,,,,,,,,,,,,,,,,,,,,,,,,,,,,,,,,,,,,,,,,,,,,,,,,,,,,,,,,,,,,,,,,,,,,,,,,,,,,,,,,,,,
,,,,,50,2020-07-04_10h11.16.900,retriever_ti,2020.1.3,Win32,60,Chrome,2560,1440,126.08082,1,right,1.698135,canary,1,126.095085,126.095085,128.610175,0,0,0,0,1,2,5,1,html/resources/stimuli_practice_decision/04_beetle.jpg,html/resources/stimuli_practice_decision/02_canary.jpg,beetle,canary,,,,,,,,,,,,,,,,,,,,,,,,,,,,,,,,,,,,,,,,,,,,,,,,,,,,,,,,,,,,,,,,,,,,,,,,,,,,,
,,,,,50,2020-07-04_10h11.16.900,retriever_ti,2020.1.3,Win32,60,Chrome,2560,1440,129.127025,2,left,1.564415,rabbit,1,129.14216,129.14216,131.638285,0,1,1,1,1,4,3,1,html/resources/stimuli_practice_decision/01_rabbit.jpg,html/resources/stimuli_practice_decision/07_sock.jpg,rabbit,sock,,,,,,,,,,,,,,,,,,,,,,,,,,,,,,,,,,,,,,,,,,,,,,,,,,,,,,,,,,,,,,,,,,,,,,,,,,,,,
,,,,,50,2020-07-04_10h11.16.900,retriever_ti,2020.1.3,Win32,60,Chrome,2560,1440,132.641885,3,left,1.343355,pullover,1,132.665275,132.665275,135.15965,0,2,2,2,1,6,2,1,html/resources/stimuli_practice_decision/06_pullover.jpg,html/resources/stimuli_practice_decision/04_beetle.jpg,pullover,beetle,,,,,,,,,,,,,,,,,,,,,,,,,,,,,,,,,,,,,,,,,,,,,,,,,,,,,,,,,,,,,,,,,,,,,,,,,,,,,
,,,,,50,2020-07-04_10h11.16.900,retriever_ti,2020.1.3,Win32,60,Chrome,2560,1440,135.67527,4,NaN,NaN,No_response,2,135.71465,135.71465,138.21414,0,3,3,3,1,7,1,1,html/resources/stimuli_practice_decision/05_glasses.jpg,html/resources/stimuli_practice_decision/08_handmixer.jpg,glasses,handmixer,,,,,,,,,,,,,,,,,,,,,,,,,,,,,,,,,,,,,,,,,,,,,,,,,,,,,,,,,,,,,,,,,,,,,,,,,,,,,
,,,,,50,2020-07-04_10h11.16.900,retriever_ti,2020.1.3,Win32,60,Chrome,2560,1440,138.72409,5,left,1.09583,glasses,1,138.73645,138.73645,141.234575,0,4,4,4,1,7,6,1,html/resources/stimuli_practice_decision/05_glasses.jpg,html/resources/stimuli_practice_decision/06_pullover.jpg,glasses,pullover,,,,,,,,,,,,,,,,,,,,,,,,,,,,,,,,,,,,,,,,,,,,,,,,,,,,,,,,,,,,,,,,,,,,,,,,,,,,,
,,,,,50,2020-07-04_10h11.16.900,retriever_ti,2020.1.3,Win32,60,Chrome,2560,1440,142.230645,6,right,1.05004,glasses,1,142.249525,142.249525,144.738445,0,5,5,5,1,4,7,1,html/resources/stimuli_practice_decision/01_rabbit.jpg,html/resources/stimuli_practice_decision/05_glasses.jpg,rabbit,glasses,,,,,,,,,,,,,,,,,,,,,,,,,,,,,,,,,,,,,,,,,,,,,,,,,,,,,,,,,,,,,,,,,,,,,,,,,,,,,
,,,,,50,2020-07-04_10h11.16.900,retriever_ti,2020.1.3,Win32,60,Chrome,2560,1440,145.249635,7,left,1.428565,handmixer,0,145.28314,145.28314,147.773455,0,6,6,6,1,1,2,1,html/resources/stimuli_practice_decision/08_handmixer.jpg,html/resources/stimuli_practice_decision/04_beetle.jpg,handmixer,beetle,,,,,,,,,,,,,,,,,,,,,,,,,,,,,,,,,,,,,,,,,,,,,,,,,,,,,,,,,,,,,,,,,,,,,,,,,,,,,
,,,,,50,2020-07-04_10h11.16.900,retriever_ti,2020.1.3,Win32,60,Chrome,2560,1440,148.763915,8,left,2.06325,rabbit,1,148.7774,148.7774,151.278125,0,7,7,7,1,4,3,1,html/resources/stimuli_practice_decision/01_rabbit.jpg,html/resources/stimuli_practice_decision/07_sock.jpg,rabbit,sock,,,,,,,,,,,,,,,,,,,,,,,,,,,,,,,,,,,,,,,,,,,,,,,,,,,,,,,,,,,,,,,,,,,,,,,,,,,,,
,,,,,50,2020-07-04_10h11.16.900,retriever_ti,2020.1.3,Win32,60,Chrome,2560,1440,,,,,,,,,,,,,,,,,,,,,,up,1,1.331005,1,0,0,0,0,1,html/resources/sequences_IDs/circle.png,circle ↑,square →,triangle ↓,← star ,up,,,,,,,,,,,,,,,,,,,,,,,,,,,,,,,,,,,,,,,,,,,,,,,,,,,,,,,,,,,,,,
,,,,,50,2020-07-04_10h11.16.900,retriever_ti,2020.1.3,Win32,60,Chrome,2560,1440,,,,,,,,,,,,,,,,,,,,,,left,1,1.01299,1,0,1,1,2,1,html/resources/sequences_IDs/square1.png,star ↑,triangle →,circle ↓,← square,left,,,,,,,,,,,,,,,,,,,,,,,,,,,,,,,,,,,,,,,,,,,,,,,,,,,,,,,,,,,,,,
,,,,,50,2020-07-04_10h11.16.900,retriever_ti,2020.1.3,Win32,60,Chrome,2560,1440,,,,,,,,,,,,,,,,,,,,,,down,1,1.94382,1,0,2,2,1,1,html/resources/sequences_IDs/star.png,square ↑,circle →,star ↓,← triangle,down,,,,,,,,,,,,,,,,,,,,,,,,,,,,,,,,,,,,,,,,,,,,,,,,,,,,,,,,,,,,,,
,,,,,50,2020-07-04_10h11.16.900,retriever_ti,2020.1.3,Win32,60,Chrome,2560,1440,,,,,,,,,,,,,,,,,,,,,,down,1,1.562095,1,0,3,3,3,1,html/resources/sequences_IDs/triangle.png,star ↑,square →,triangle ↓,← circle,down,,,,,,,,,,,,,,,,,,,,,,,,,,,,,,,,,,,,,,,,,,,,,,,,,,,,,,,,,,,,,,
,,,,,50,2020-07-04_10h11.16.900,retriever_ti,2020.1.3,Win32,60,Chrome,2560,1440,,,,,,,,,,,,,,,,,,,,,,,,,,,,,,,,,,,,,0,7.73524,0,0,0,0,1,,,,,,,,,,,,,,,,,,,,,,,,,,,,,,,,,,,,,,,,,,,,,,,,,,,,,,,
,,,,,50,2020-07-04_10h11.16.900,retriever_ti,2020.1.3,Win32,60,Chrome,2560,1440,169.830475,9,right,0.997215,glasses,1,169.85052,169.85052,172.345155,0,0,0,0,1,6,7,1,html/resources/stimuli_practice_decision/06_pullover.jpg,html/resources/stimuli_practice_decision/05_glasses.jpg,pullover,glasses,,,,,,,,,,,,,,,,,,,,,,,,,,,,,,,,,,,,,,,,,,,,,,,,,,,,,,,,,,,,,,,,,,,,,,,,,,,,,
,,,,,50,2020-07-04_10h11.16.900,retriever_ti,2020.1.3,Win32,60,Chrome,2560,1440,173.342725,10,right,1.250955,beetle,0,173.37232,173.37232,175.86067,0,1,1,1,1,6,2,1,html/resources/stimuli_practice_decision/06_pullover.jpg,html/resources/stimuli_practice_decision/04_beetle.jpg,pullover,beetle,,,,,,,,,,,,,,,,,,,,,,,,,,,,,,,,,,,,,,,,,,,,,,,,,,,,,,,,,,,,,,,,,,,,,,,,,,,,,
,,,,,50,2020-07-04_10h11.16.900,retriever_ti,2020.1.3,Win32,60,Chrome,2560,1440,176.362485,11,right,1.64449,pullover,1,176.375215,176.375215,178.87329,0,2,2,2,1,5,6,1,html/resources/stimuli_practice_decision/02_canary.jpg,html/resources/stimuli_practice_decision/06_pullover.jpg,canary,pullover,,,,,,,,,,,,,,,,,,,,,,,,,,,,,,,,,,,,,,,,,,,,,,,,,,,,,,,,,,,,,,,,,,,,,,,,,,,,,
,,,,,50,2020-07-04_10h11.16.900,retriever_ti,2020.1.3,Win32,60,Chrome,2560,1440,179.86438,12,right,1.49326,glasses,0,179.905945,179.905945,182.400215,0,3,3,3,1,8,7,1,html/resources/stimuli_practice_decision/03_squirrel.jpg,html/resources/stimuli_practice_decision/05_glasses.jpg,squirrel,glasses,,,,,,,,,,,,,,,,,,,,,,,,,,,,,,,,,,,,,,,,,,,,,,,,,,,,,,,,,,,,,,,,,,,,,,,,,,,,,
,,,,,50,2020-07-04_10h11.16.900,retriever_ti,2020.1.3,Win32,60,Chrome,2560,1440,183.39392,13,left,1.496875,canary,1,183.406195,183.406195,185.899365,0,4,4,4,1,5,3,1,html/resources/stimuli_practice_decision/02_canary.jpg,html/resources/stimuli_practice_decision/07_sock.jpg,canary,sock,,,,,,,,,,,,,,,,,,,,,,,,,,,,,,,,,,,,,,,,,,,,,,,,,,,,,,,,,,,,,,,,,,,,,,,,,,,,,
,,,,,50,2020-07-04_10h11.16.900,retriever_ti,2020.1.3,Win32,60,Chrome,2560,1440,186.405245,14,right,1.26909,squirrel,1,186.429615,186.429615,188.930025,0,5,5,5,1,7,8,1,html/resources/stimuli_practice_decision/05_glasses.jpg,html/resources/stimuli_practice_decision/03_squirrel.jpg,glasses,squirrel,,,,,,,,,,,,,,,,,,,,,,,,,,,,,,,,,,,,,,,,,,,,,,,,,,,,,,,,,,,,,,,,,,,,,,,,,,,,,
,,,,,50,2020-07-04_10h11.16.900,retriever_ti,2020.1.3,Win32,60,Chrome,2560,1440,189.919825,15,left,1.14202,canary,1,189.95919,189.95919,192.47087,0,6,6,6,1,5,4,1,html/resources/stimuli_practice_decision/02_canary.jpg,html/resources/stimuli_practice_decision/01_rabbit.jpg,canary,rabbit,,,,,,,,,,,,,,,,,,,,,,,,,,,,,,,,,,,,,,,,,,,,,,,,,,,,,,,,,,,,,,,,,,,,,,,,,,,,,
,,,,,50,2020-07-04_10h11.16.900,retriever_ti,2020.1.3,Win32,60,Chrome,2560,1440,193.46776,16,left,0.98692,canary,1,193.481435,193.481435,195.9841,0,7,7,7,1,5,3,1,html/resources/stimuli_practice_decision/02_canary.jpg,html/resources/stimuli_practice_decision/07_sock.jpg,canary,sock,,,,,,,,,,,,,,,,,,,,,,,,,,,,,,,,,,,,,,,,,,,,,,,,,,,,,,,,,,,,,,,,,,,,,,,,,,,,,
,,,,,50,2020-07-04_10h11.16.900,retriever_ti,2020.1.3,Win32,60,Chrome,2560,1440,,,,,,,,,,,,,,,,,,,,,,down,1,1.37835,1,0,0,0,3,1,html/resources/sequences_IDs/triangle.png,star ↑,square →,triangle ↓,← circle,down,,,,,,,,,,,,,,,,,,,,,,,,,,,,,,,,,,,,,,,,,,,,,,,,,,,,,,,,,,,,,,
,,,,,50,2020-07-04_10h11.16.900,retriever_ti,2020.1.3,Win32,60,Chrome,2560,1440,,,,,,,,,,,,,,,,,,,,,,down,1,1.019125,1,0,1,1,1,1,html/resources/sequences_IDs/star.png,square ↑,circle →,star ↓,← triangle,down,,,,,,,,,,,,,,,,,,,,,,,,,,,,,,,,,,,,,,,,,,,,,,,,,,,,,,,,,,,,,,
,,,,,50,2020-07-04_10h11.16.900,retriever_ti,2020.1.3,Win32,60,Chrome,2560,1440,,,,,,,,,,,,,,,,,,,,,,up,1,1.037745,1,0,2,2,0,1,html/resources/sequences_IDs/circle.png,circle ↑,square →,triangle ↓,← star ,up,,,,,,,,,,,,,,,,,,,,,,,,,,,,,,,,,,,,,,,,,,,,,,,,,,,,,,,,,,,,,,
,,,,,50,2020-07-04_10h11.16.900,retriever_ti,2020.1.3,Win32,60,Chrome,2560,1440,,,,,,,,,,,,,,,,,,,,,,left,1,1.221625,1,0,3,3,2,1,html/resources/sequences_IDs/square1.png,star ↑,triangle →,circle ↓,← square,left,,,,,,,,,,,,,,,,,,,,,,,,,,,,,,,,,,,,,,,,,,,,,,,,,,,,,,,,,,,,,,
,,,,,50,2020-07-04_10h11.16.900,retriever_ti,2020.1.3,Win32,60,Chrome,2560,1440,,,,,,,,,,,,,,,,,,,,,,,,,,,,,,,,,,,,,0,2.410875,1,0,1,0,1,,,,,,,,,,,,,,,,,,,,,,,,,,,,,,,,,,,,,,,,,,,,,,,,,,,,,,,
,,,,,50,2020-07-04_10h11.16.900,retriever_ti,2020.1.3,Win32,60,Chrome,2560,1440,,,,,,,,,,,,,,,,,1,,,,,,,,,,,,,,,,,,,,,,,,,,,209.932245,1,left,1.157785,holdfast    ,5,4,4,1,3,209.941245,209.941245,212.440685,0,0,0,0,1,1,5,1,holdfast    ,redfox      ,html/resources/sequences_IDs/B/04_holdfast.jpg,html/resources/sequences_IDs/B/01_redfox.jpg,4,1,2,1,1,1,3,1,0,50,,,,,,,,,,,,,,,,,,,,
,,,,,50,2020-07-04_10h11.16.900,retriever_ti,2020.1.3,Win32,60,Chrome,2560,1440,,,,,,,,,,,,,,,,,1,,,,,,,,,,,,,,,,,,,,,,,,,,,213.049285,2,left,1.14077,gloves      ,3,6,-1,0,0,213.064285,213.064285,215.55674,0,1,1,1,1,2,3,4,gloves      ,dress         ,html/resources/sequences_IDs/B/06_gloves.jpg,html/resources/sequences_IDs/A/07_dress.jpg,6,7,3,2,3,2,5,6,0,50,,,,,,,,,,,,,,,,,,,,
,,,,,50,2020-07-04_10h11.16.900,retriever_ti,2020.1.3,Win32,60,Chrome,2560,1440,,,,,,,,,,,,,,,,,1,,,,,,,,,,,,,,,,,,,,,,,,,,,216.656615,3,left,1.074675,redfox      ,1,1,-5,0,3,216.687875,216.687875,219.19628,0,2,2,2,1,3,1,6,redfox      ,calculator    ,html/resources/sequences_IDs/B/01_redfox.jpg,html/resources/sequences_IDs/A/09_calculator.jpg,1,9,1,1,4,2,1,8,0,50,,,,,,,,,,,,,,,,,,,,
,,,,,50,2020-07-04_10h11.16.900,retriever_ti,2020.1.3,Win32,60,Chrome,2560,1440,,,,,,,,,,,,,,,,,1,,,,,,,,,,,,,,,,,,,,,,,,,,,219.807335,4,left,0.92298,holdfast    ,5,4,-1,0,0,219.828865,219.828865,222.321925,0,3,3,3,1,4,5,6,holdfast    ,calculator    ,html/resources/sequences_IDs/B/04_holdfast.jpg,html/resources/sequences_IDs/A/09_calculator.jpg,4,9,2,1,4,2,3,8,0,50,,,,,,,,,,,,,,,,,,,,
,,,,,50,2020-07-04_10h11.16.900,retriever_ti,2020.1.3,Win32,60,Chrome,2560,1440,,,,,,,,,,,,,,,,,1,,,,,,,,,,,,,,,,,,,,,,,,,,,223.417825,5,left,1.3509,holdfast    ,5,4,3,1,3,223.438315,223.438315,225.930145,0,4,4,4,1,5,5,2,holdfast    ,seaturtle     ,html/resources/sequences_IDs/B/04_holdfast.jpg,html/resources/sequences_IDs/A/02_seaturtle.jpg,4,2,2,1,2,1,3,2,0,50,,,,,,,,,,,,,,,,,,,,
,,,,,50,2020-07-04_10h11.16.900,retriever_ti,2020.1.3,Win32,60,Chrome,2560,1440,,,,,,,,,,,,,,,,,1,,,,,,,,,,,,,,,,,,,,,,,,,,,226.53302,6,right,1.114005,seaturtle     ,2,2,-6,0,3,226.57921,226.57921,229.070435,0,5,5,5,1,6,8,2,peacock       ,seaturtle     ,html/resources/sequences_IDs/A/05_peacock.jpg,html/resources/sequences_IDs/A/02_seaturtle.jpg,5,2,2,1,2,1,4,2,0,50,,,,,,,,,,,,,,,,,,,,
,,,,,50,2020-07-04_10h11.16.900,retriever_ti,2020.1.3,Win32,60,Chrome,2560,1440,,,,,,,,,,,,,,,,,1,,,,,,,,,,,,,,,,,,,,,,,,,,,229.67274,7,right,1.1783,redfox      ,1,1,-6,0,3,229.68695,229.68695,232.182165,0,6,6,6,1,7,7,1,slipper     ,redfox      ,html/resources/sequences_IDs/B/08_slipper.jpg,html/resources/sequences_IDs/B/01_redfox.jpg,8,1,3,2,1,1,7,1,0,50,,,,,,,,,,,,,,,,,,,,
,,,,,50,2020-07-04_10h11.16.900,retriever_ti,2020.1.3,Win32,60,Chrome,2560,1440,,,,,,,,,,,,,,,,,1,,,,,,,,,,,,,,,,,,,,,,,,,,,232.787555,8,left,0.78369,dress         ,4,7,-4,0,3,232.800925,232.800925,235.295485,0,7,7,7,1,8,4,8,dress         ,peacock       ,html/resources/sequences_IDs/A/07_dress.jpg,html/resources/sequences_IDs/A/05_peacock.jpg,7,5,3,2,2,1,6,4,0,50,,,,,,,,,,,,,,,,,,,,
,,,,,50,2020-07-04_10h11.16.900,retriever_ti,2020.1.3,Win32,60,Chrome,2560,1440,,,,,,,,,,,,,,,,,1,,,,,,,,,,,,,,,,,,,,,,,,,,,235.908455,9,left,1.16229,redfox      ,1,1,-6,0,3,235.927955,235.927955,238.421295,0,8,8,8,1,9,1,7,redfox      ,slipper     ,html/resources/sequences_IDs/B/01_redfox.jpg,html/resources/sequences_IDs/B/08_slipper.jpg,1,8,1,1,3,2,1,7,0,50,,,,,,,,,,,,,,,,,,,,
,,,,,50,2020-07-04_10h11.16.900,retriever_ti,2020.1.3,Win32,60,Chrome,2560,1440,,,,,,,,,,,,,,,,,1,,,,,,,,,,,,,,,,,,,,,,,,,,,239.03404,10,left,1.3801,peacock       ,8,5,1,1,1,239.04665,239.04665,241.54462,0,9,9,9,1,10,8,7,peacock       ,slipper     ,html/resources/sequences_IDs/A/05_peacock.jpg,html/resources/sequences_IDs/B/08_slipper.jpg,5,8,2,1,3,2,4,7,0,50,,,,,,,,,,,,,,,,,,,,
,,,,,50,2020-07-04_10h11.16.900,retriever_ti,2020.1.3,Win32,60,Chrome,2560,1440,,,,,,,,,,,,,,,,,1,,,,,,,,,,,,,,,,,,,,,,,,,,,242.639305,11,right,0.67801,peacock       ,8,5,7,1,3,242.65006,242.65006,245.15945,0,10,10,10,1,11,1,8,redfox      ,peacock       ,html/resources/sequences_IDs/B/01_redfox.jpg,html/resources/sequences_IDs/A/05_peacock.jpg,1,5,1,1,2,1,1,4,0,50,,,,,,,,,,,,,,,,,,,,
,,,,,50,2020-07-04_10h11.16.900,retriever_ti,2020.1.3,Win32,60,Chrome,2560,1440,,,,,,,,,,,,,,,,,1,,,,,,,,,,,,,,,,,,,,,,,,,,,245.762305,12,left,0.6474,redfox      ,1,1,-1,0,1,245.78697,245.78697,248.278585,0,11,11,11,1,12,1,2,redfox      ,seaturtle     ,html/resources/sequences_IDs/B/01_redfox.jpg,html/resources/sequences_IDs/A/02_seaturtle.jpg,1,2,1,1,2,1,1,2,1,50,,,,,,,,,,,,,,,,,,,,
,,,,,50,2020-07-04_10h11.16.900,retriever_ti,2020.1.3,Win32,60,Chrome,2560,1440,,,,,,,,,,,,,,,,,1,,,,,,,,,,,,,,,,,,,,,,,,,,,249.36943,13,left,0.544855,dress         ,4,7,-2,0,3,249.382785,249.382785,251.89499,0,12,12,12,1,13,4,6,dress         ,calculator    ,html/resources/sequences_IDs/A/07_dress.jpg,html/resources/sequences_IDs/A/09_calculator.jpg,7,9,3,2,4,2,6,8,0,50,,,,,,,,,,,,,,,,,,,,
,,,,,50,2020-07-04_10h11.16.900,retriever_ti,2020.1.3,Win32,60,Chrome,2560,1440,,,,,,,,,,,,,,,,,1,,,,,,,,,,,,,,,,,,,,,,,,,,,252.50596,14,left,0.48017,dress         ,4,7,-1,0,0,252.55601,252.55601,255.044615,0,13,13,13,1,14,4,5,dress         ,holdfast    ,html/resources/sequences_IDs/A/07_dress.jpg,html/resources/sequences_IDs/B/04_holdfast.jpg,7,4,3,2,2,1,6,3,0,50,,,,,,,,,,,,,,,,,,,,
,,,,,50,2020-07-04_10h11.16.900,retriever_ti,2020.1.3,Win32,60,Chrome,2560,1440,,,,,,,,,,,,,,,,,1,,,,,,,,,,,,,,,,,,,,,,,,,,,256.145835,15,left,1.122,redfox      ,1,1,-1,0,0,256.16079,256.16079,258.64908,0,14,14,14,1,15,1,2,redfox      ,seaturtle     ,html/resources/sequences_IDs/B/01_redfox.jpg,html/resources/sequences_IDs/A/02_seaturtle.jpg,1,2,1,1,2,1,1,2,0,50,,,,,,,,,,,,,,,,,,,,
,,,,,50,2020-07-04_10h11.16.900,retriever_ti,2020.1.3,Win32,60,Chrome,2560,1440,,,,,,,,,,,,,,,,,1,,,,,,,,,,,,,,,,,,,,,,,,,,,259.75567,16,right,0.95991,holdfast    ,5,4,-1,0,0,259.790055,259.790055,262.288155,0,15,15,15,1,16,6,5,calculator    ,holdfast    ,html/resources/sequences_IDs/A/09_calculator.jpg,html/resources/sequences_IDs/B/04_holdfast.jpg,9,4,4,2,2,1,8,3,0,50,,,,,,,,,,,,,,,,,,,,
,,,,,50,2020-07-04_10h11.16.900,retriever_ti,2020.1.3,Win32,60,Chrome,2560,1440,,,,,,,,,,,,,,,,,1,,,,,,,,,,,,,,,,,,,,,,,,,,,263.379605,17,right,1.8639,peacock       ,8,5,5,1,3,263.39928,263.39928,265.88869,0,16,16,16,1,17,3,8,gloves      ,peacock       ,html/resources/sequences_IDs/B/06_gloves.jpg,html/resources/sequences_IDs/A/05_peacock.jpg,6,5,3,2,2,1,5,4,0,50,,,,,,,,,,,,,,,,,,,,
,,,,,50,2020-07-04_10h11.16.900,retriever_ti,2020.1.3,Win32,60,Chrome,2560,1440,,,,,,,,,,,,,,,,,1,,,,,,,,,,,,,,,,,,,,,,,,,,,266.50295,18,left,1.0505,calculator    ,6,9,2,1,3,266.53307,266.53307,269.028525,0,17,17,17,1,18,6,4,calculator    ,dress         ,html/resources/sequences_IDs/A/09_calculator.jpg,html/resources/sequences_IDs/A/07_dress.jpg,9,7,4,2,3,2,8,6,0,50,,,,,,,,,,,,,,,,,,,,
,,,,,50,2020-07-04_10h11.16.900,retriever_ti,2020.1.3,Win32,60,Chrome,2560,1440,,,,,,,,,,,,,,,,,1,,,,,,,,,,,,,,,,,,,,,,,,,,,269.641045,19,left,0.875175,dress         ,4,7,1,1,1,269.684195,269.684195,272.19655,0,18,18,18,1,19,4,3,dress         ,gloves      ,html/resources/sequences_IDs/A/07_dress.jpg,html/resources/sequences_IDs/B/06_gloves.jpg,7,6,3,2,3,2,6,5,0,50,,,,,,,,,,,,,,,,,,,,
,,,,,50,2020-07-04_10h11.16.900,retriever_ti,2020.1.3,Win32,60,Chrome,2560,1440,,,,,,,,,,,,,,,,,1,,,,,,,,,,,,,,,,,,,,,,,,,,,273.28673,20,left,1.87584,dress         ,4,7,2,1,3,273.308745,273.308745,275.79728,0,19,19,19,1,20,4,2,dress         ,seaturtle     ,html/resources/sequences_IDs/A/07_dress.jpg,html/resources/sequences_IDs/A/02_seaturtle.jpg,7,2,3,2,2,1,6,2,0,50,,,,,,,,,,,,,,,,,,,,
,,,,,50,2020-07-04_10h11.16.900,retriever_ti,2020.1.3,Win32,60,Chrome,2560,1440,,,,,,,,,,,,,,,,,1,,,,,,,,,,,,,,,,,,,,,,,,,,,276.403045,21,right,0.99681,holdfast    ,5,4,2,1,3,276.42401,276.42401,278.920225,0,20,20,20,1,21,3,5,gloves      ,holdfast    ,html/resources/sequences_IDs/B/06_gloves.jpg,html/resources/sequences_IDs/B/04_holdfast.jpg,6,4,3,2,2,1,5,3,0,50,,,,,,,,,,,,,,,,,,,,
,,,,,50,2020-07-04_10h11.16.900,retriever_ti,2020.1.3,Win32,60,Chrome,2560,1440,,,,,,,,,,,,,,,,,1,,,,,,,,,,,,,,,,,,,,,,,,,,,279.530905,22,right,1.05102,peacock       ,8,5,6,1,3,279.554635,279.554635,282.052455,0,21,21,21,1,22,2,8,seaturtle     ,peacock       ,html/resources/sequences_IDs/A/02_seaturtle.jpg,html/resources/sequences_IDs/A/05_peacock.jpg,2,5,2,1,2,1,2,4,0,50,,,,,,,,,,,,,,,,,,,,
,,,,,50,2020-07-04_10h11.16.900,retriever_ti,2020.1.3,Win32,60,Chrome,2560,1440,,,,,,,,,,,,,,,,,1,,,,,,,,,,,,,,,,,,,,,,,,,,,282.653655,23,left,0.898065,seaturtle     ,2,2,-1,0,0,282.68858,282.68858,285.18454,0,22,22,22,1,23,2,3,seaturtle     ,gloves      ,html/resources/sequences_IDs/A/02_seaturtle.jpg,html/resources/sequences_IDs/B/06_gloves.jpg,2,6,2,1,3,2,2,5,0,50,,,,,,,,,,,,,,,,,,,,
,,,,,50,2020-07-04_10h11.16.900,retriever_ti,2020.1.3,Win32,60,Chrome,2560,1440,,,,,,,,,,,,,,,,,1,,,,,,,,,,,,,,,,,,,,,,,,,,,286.27854,24,left,1.42099,holdfast    ,5,4,1,1,1,286.31998,286.31998,288.820495,0,23,23,23,1,24,5,4,holdfast    ,dress         ,html/resources/sequences_IDs/B/04_holdfast.jpg,html/resources/sequences_IDs/A/07_dress.jpg,4,7,2,1,3,2,3,6,0,50,,,,,,,,,,,,,,,,,,,,
,,,,,50,2020-07-04_10h11.16.900,retriever_ti,2020.1.3,Win32,60,Chrome,2560,1440,,,,,,,,,,,,,,,,,1,,,,,,,,,,,,,,,,,,,,,,,,,,,289.91222,25,right,1.676105,seaturtle     ,2,2,1,1,1,289.945575,289.945575,292.441585,0,24,24,24,1,25,1,2,redfox      ,seaturtle     ,html/resources/sequences_IDs/B/01_redfox.jpg,html/resources/sequences_IDs/A/02_seaturtle.jpg,1,2,1,1,2,1,1,2,0,50,,,,,,,,,,,,,,,,,,,,
,,,,,50,2020-07-04_10h11.16.900,retriever_ti,2020.1.3,Win32,60,Chrome,2560,1440,,,,,,,,,,,,,,,,,1,,,,,,,,,,,,,,,,,,,,,,,,,,,293.531895,26,right,0.979565,peacock       ,8,5,1,1,1,293.5526,293.5526,296.03987,0,25,25,25,1,26,7,8,slipper     ,peacock       ,html/resources/sequences_IDs/B/08_slipper.jpg,html/resources/sequences_IDs/A/05_peacock.jpg,8,5,3,2,2,1,7,4,0,50,,,,,,,,,,,,,,,,,,,,
,,,,,50,2020-07-04_10h11.16.900,retriever_ti,2020.1.3,Win32,60,Chrome,2560,1440,,,,,,,,,,,,,,,,,1,,,,,,,,,,,,,,,,,,,,,,,,,,,297.1324,27,right,1.046795,gloves      ,3,6,-5,0,3,297.15147,297.15147,299.66629,0,26,26,26,1,27,8,3,peacock       ,gloves      ,html/resources/sequences_IDs/A/05_peacock.jpg,html/resources/sequences_IDs/B/06_gloves.jpg,5,6,2,1,3,2,4,5,0,50,,,,,,,,,,,,,,,,,,,,
,,,,,50,2020-07-04_10h11.16.900,retriever_ti,2020.1.3,Win32,60,Chrome,2560,1440,,,,,,,,,,,,,,,,,1,,,,,,,,,,,,,,,,,,,,,,,,,,,300.293235,28,right,1.47217,calculator    ,6,9,-1,0,0,300.317005,300.317005,302.81407,0,27,27,27,1,28,7,6,slipper     ,calculator    ,html/resources/sequences_IDs/B/08_slipper.jpg,html/resources/sequences_IDs/A/09_calculator.jpg,8,9,3,2,4,2,7,8,0,50,,,,,,,,,,,,,,,,,,,,
,,,,,50,2020-07-04_10h11.16.900,retriever_ti,2020.1.3,Win32,60,Chrome,2560,1440,,,,,,,,,,,,,,,,,1,,,,,,,,,,,,,,,,,,,,,,,,,,,303.90263,29,left,1.004915,gloves      ,3,6,-4,0,3,303.936195,303.936195,306.42548,0,28,28,28,1,29,3,7,gloves      ,slipper     ,html/resources/sequences_IDs/B/06_gloves.jpg,html/resources/sequences_IDs/B/08_slipper.jpg,6,8,3,2,3,2,5,7,0,50,,,,,,,,,,,,,,,,,,,,
,,,,,50,2020-07-04_10h11.16.900,retriever_ti,2020.1.3,Win32,60,Chrome,2560,1440,,,,,,,,,,,,,,,,,1,,,,,,,,,,,,,,,,,,,,,,,,,,,307.02638,30,right,1.06025,holdfast    ,5,4,-2,0,3,307.035875,307.035875,309.52256,0,29,29,29,1,30,7,5,slipper     ,holdfast    ,html/resources/sequences_IDs/B/08_slipper.jpg,html/resources/sequences_IDs/B/04_holdfast.jpg,8,4,3,2,2,1,7,3,0,50,,,,,,,,,,,,,,,,,,,,
,,,,,50,2020-07-04_10h11.16.900,retriever_ti,2020.1.3,Win32,60,Chrome,2560,1440,,,,,,,,,,,,,,,,,1,,,,,,,,,,,,,,,,,,,,,,,,,,,310.12451,31,right,1.108335,peacock       ,8,5,2,1,3,310.152425,310.152425,312.644225,0,30,30,30,1,31,6,8,calculator    ,peacock       ,html/resources/sequences_IDs/A/09_calculator.jpg,html/resources/sequences_IDs/A/05_peacock.jpg,9,5,4,2,2,1,8,4,0,50,,,,,,,,,,,,,,,,,,,,
,,,,,50,2020-07-04_10h11.16.900,retriever_ti,2020.1.3,Win32,60,Chrome,2560,1440,,,,,,,,,,,,,,,,,1,,,,,,,,,,,,,,,,,,,,,,,,,,,313.24834,32,left,0.78032,peacock       ,8,5,1,1,1,313.2937,313.2937,315.80725,0,31,31,31,1,32,8,7,peacock       ,slipper     ,html/resources/sequences_IDs/A/05_peacock.jpg,html/resources/sequences_IDs/B/08_slipper.jpg,5,8,2,1,3,2,4,7,0,50,,,,,,,,,,,,,,,,,,,,
,,,,,50,2020-07-04_10h11.16.900,retriever_ti,2020.1.3,Win32,60,Chrome,2560,1440,,,,,,,,,,,,,,,,,1,,,,,,,,,,,,,,,,,,,,,,,,,,,316.899515,33,left,1.015115,holdfast    ,5,4,-1,0,1,316.93997,316.93997,319.42943,0,32,32,32,1,33,5,6,holdfast    ,calculator    ,html/resources/sequences_IDs/B/04_holdfast.jpg,html/resources/sequences_IDs/A/09_calculator.jpg,4,9,2,1,4,2,3,8,1,50,,,,,,,,,,,,,,,,,,,,
,,,,,50,2020-07-04_10h11.16.900,retriever_ti,2020.1.3,Win32,60,Chrome,2560,1440,,,,,,,,,,,,,,,,,1,,,,,,,,,,,,,,,,,,,,,,,,,,,320.52088,34,right,1.914195,calculator    ,6,9,-1,0,0,320.555065,320.555065,323.05335,0,33,33,33,1,34,7,6,slipper     ,calculator    ,html/resources/sequences_IDs/B/08_slipper.jpg,html/resources/sequences_IDs/A/09_calculator.jpg,8,9,3,2,4,2,7,8,0,50,,,,,,,,,,,,,,,,,,,,
,,,,,50,2020-07-04_10h11.16.900,retriever_ti,2020.1.3,Win32,60,Chrome,2560,1440,,,,,,,,,,,,,,,,,1,,,,,,,,,,,,,,,,,,,,,,,,,,,324.146405,35,right,0.78183,gloves      ,3,6,-3,0,3,324.156575,324.156575,326.65355,0,34,34,34,1,35,6,3,calculator    ,gloves      ,html/resources/sequences_IDs/A/09_calculator.jpg,html/resources/sequences_IDs/B/06_gloves.jpg,9,6,4,2,3,2,8,5,0,50,,,,,,,,,,,,,,,,,,,,
,,,,,50,2020-07-04_10h11.16.900,retriever_ti,2020.1.3,Win32,60,Chrome,2560,1440,,,,,,,,,,,,,,,,,1,,,,,,,,,,,,,,,,,,,,,,,,,,,327.25824,36,right,1.03433,holdfast    ,5,4,1,1,1,327.2689,327.2689,329.765375,0,35,35,35,1,36,4,5,dress         ,holdfast    ,html/resources/sequences_IDs/A/07_dress.jpg,html/resources/sequences_IDs/B/04_holdfast.jpg,7,4,3,2,2,1,6,3,0,50,,,,,,,,,,,,,,,,,,,,
,,,,,50,2020-07-04_10h11.16.900,retriever_ti,2020.1.3,Win32,60,Chrome,2560,1440,,,,,,,,,,,,,,,,,1,,,,,,,,,,,,,,,,,,,,,,,,,,,330.85687,37,right,0.825165,holdfast    ,5,4,3,1,3,330.890655,330.890655,333.38041,0,36,36,36,1,37,2,5,seaturtle     ,holdfast    ,html/resources/sequences_IDs/A/02_seaturtle.jpg,html/resources/sequences_IDs/B/04_holdfast.jpg,2,4,2,1,2,1,2,3,0,50,,,,,,,,,,,,,,,,,,,,
,,,,,50,2020-07-04_10h11.16.900,retriever_ti,2020.1.3,Win32,60,Chrome,2560,1440,,,,,,,,,,,,,,,,,1,,,,,,,,,,,,,,,,,,,,,,,,,,,333.990695,38,right,1.34957,slipper     ,7,8,1,1,1,334.00739,334.00739,336.5074,0,37,37,37,1,38,6,7,calculator    ,slipper     ,html/resources/sequences_IDs/A/09_calculator.jpg,html/resources/sequences_IDs/B/08_slipper.jpg,9,8,4,2,3,2,8,7,0,50,,,,,,,,,,,,,,,,,,,,
,,,,,50,2020-07-04_10h11.16.900,retriever_ti,2020.1.3,Win32,60,Chrome,2560,1440,,,,,,,,,,,,,,,,,1,,,,,,,,,,,,,,,,,,,,,,,,,,,337.599815,39,right,1.032795,seaturtle     ,2,2,-5,0,3,337.638355,337.638355,340.126045,0,38,38,38,1,39,7,2,slipper     ,seaturtle     ,html/resources/sequences_IDs/B/08_slipper.jpg,html/resources/sequences_IDs/A/02_seaturtle.jpg,8,2,3,2,2,1,7,2,0,50,,,,,,,,,,,,,,,,,,,,
,,,,,50,2020-07-04_10h11.16.900,retriever_ti,2020.1.3,Win32,60,Chrome,2560,1440,,,,,,,,,,,,,,,,,1,,,,,,,,,,,,,,,,,,,,,,,,,,,340.7318,40,left,0.861525,peacock       ,8,5,4,1,3,340.764315,340.764315,343.261265,0,39,39,39,1,40,8,4,peacock       ,dress         ,html/resources/sequences_IDs/A/05_peacock.jpg,html/resources/sequences_IDs/A/07_dress.jpg,5,7,2,1,3,2,4,6,0,50,,,,,,,,,,,,,,,,,,,,
,,,,,50,2020-07-04_10h11.16.900,retriever_ti,2020.1.3,Win32,60,Chrome,2560,1440,,,,,,,,,,,,,,,,,1,,,,,,,,,,,,,,,,,,,,,,,,,,,343.88572,41,right,0.88903,seaturtle     ,2,2,-4,0,3,343.918865,343.918865,346.41145,0,40,40,40,1,41,6,2,calculator    ,seaturtle     ,html/resources/sequences_IDs/A/09_calculator.jpg,html/resources/sequences_IDs/A/02_seaturtle.jpg,9,2,4,2,2,1,8,2,0,50,,,,,,,,,,,,,,,,,,,,
,,,,,50,2020-07-04_10h11.16.900,retriever_ti,2020.1.3,Win32,60,Chrome,2560,1440,,,,,,,,,,,,,,,,,1,,,,,,,,,,,,,,,,,,,,,,,,,,,347.021955,42,left,1.522605,peacock       ,8,5,7,1,3,347.056665,347.056665,349.550205,0,41,41,41,1,42,8,1,peacock       ,redfox      ,html/resources/sequences_IDs/A/05_peacock.jpg,html/resources/sequences_IDs/B/01_redfox.jpg,5,1,2,1,1,1,4,1,0,50,,,,,,,,,,,,,,,,,,,,
,,,,,50,2020-07-04_10h11.16.900,retriever_ti,2020.1.3,Win32,60,Chrome,2560,1440,,,,,,,,,,,,,,,,,1,,,,,,,,,,,,,,,,,,,,,,,,,,,350.155955,43,left,0.707085,gloves      ,3,6,-1,0,1,350.177695,350.177695,352.682835,0,42,42,42,1,43,3,4,gloves      ,dress         ,html/resources/sequences_IDs/B/06_gloves.jpg,html/resources/sequences_IDs/A/07_dress.jpg,6,7,3,2,3,2,5,6,1,50,,,,,,,,,,,,,,,,,,,,
,,,,,50,2020-07-04_10h11.16.900,retriever_ti,2020.1.3,Win32,60,Chrome,2560,1440,,,,,,,,,,,,,,,,,1,,,,,,,,,,,,,,,,,,,,,,,,,,,353.77775,44,left,1.117385,gloves      ,3,6,1,1,1,353.788745,353.788745,356.28632,0,43,43,43,1,44,3,2,gloves      ,seaturtle     ,html/resources/sequences_IDs/B/06_gloves.jpg,html/resources/sequences_IDs/A/02_seaturtle.jpg,6,2,3,2,2,1,5,2,0,50,,,,,,,,,,,,,,,,,,,,
,,,,,50,2020-07-04_10h11.16.900,retriever_ti,2020.1.3,Win32,60,Chrome,2560,1440,,,,,,,,,,,,,,,,,1,,,,,,,,,,,,,,,,,,,,,,,,,,,357.377105,45,right,1.67894,slipper     ,7,8,1,1,1,357.389965,357.389965,359.883025,0,44,44,44,1,45,6,7,calculator    ,slipper     ,html/resources/sequences_IDs/A/09_calculator.jpg,html/resources/sequences_IDs/B/08_slipper.jpg,9,8,4,2,3,2,8,7,0,50,,,,,,,,,,,,,,,,,,,,
,,,,,50,2020-07-04_10h11.16.900,retriever_ti,2020.1.3,Win32,60,Chrome,2560,1440,,,,,,,,,,,,,,,,,1,,,,,,,,,,,,,,,,,,,,,,,,,,,360.983225,46,left,1.392915,dress         ,4,7,3,1,3,361.011135,361.011135,363.5139,0,45,45,45,1,46,4,1,dress         ,redfox      ,html/resources/sequences_IDs/A/07_dress.jpg,html/resources/sequences_IDs/B/01_redfox.jpg,7,1,3,2,1,1,6,1,0,50,,,,,,,,,,,,,,,,,,,,
,,,,,50,2020-07-04_10h11.16.900,retriever_ti,2020.1.3,Win32,60,Chrome,2560,1440,,,,,,,,,,,,,,,,,1,,,,,,,,,,,,,,,,,,,,,,,,,,,364.1213,47,left,1.6035,slipper     ,7,8,1,1,0,364.148595,364.148595,366.637895,0,46,46,46,1,47,7,6,slipper     ,calculator    ,html/resources/sequences_IDs/B/08_slipper.jpg,html/resources/sequences_IDs/A/09_calculator.jpg,8,9,3,2,4,2,7,8,1,50,,,,,,,,,,,,,,,,,,,,
,,,,,50,2020-07-04_10h11.16.900,retriever_ti,2020.1.3,Win32,60,Chrome,2560,1440,,,,,,,,,,,,,,,,,1,,,,,,,,,,,,,,,,,,,,,,,,,,,367.73269,48,left,0.85991,dress         ,4,7,-3,0,3,367.758425,367.758425,370.25604,0,47,47,47,1,48,4,7,dress         ,slipper     ,html/resources/sequences_IDs/A/07_dress.jpg,html/resources/sequences_IDs/B/08_slipper.jpg,7,8,3,2,3,2,6,7,0,50,,,,,,,,,,,,,,,,,,,,
,,,,,50,2020-07-04_10h11.16.900,retriever_ti,2020.1.3,Win32,60,Chrome,2560,1440,,,,,,,,,,,,,,,,,1,,,,,,,,,,,,,,,,,,,,,,,,,,,370.8667,49,right,0.750465,gloves      ,3,6,-4,0,3,370.89152,370.89152,373.386255,0,48,48,48,1,49,7,3,slipper     ,gloves      ,html/resources/sequences_IDs/B/08_slipper.jpg,html/resources/sequences_IDs/B/06_gloves.jpg,8,6,3,2,3,2,7,5,0,50,,,,,,,,,,,,,,,,,,,,
,,,,,50,2020-07-04_10h11.16.900,retriever_ti,2020.1.3,Win32,60,Chrome,2560,1440,,,,,,,,,,,,,,,,,1,,,,,,,,,,,,,,,,,,,,,,,,,,,373.9932,50,left,0.82019,gloves      ,3,6,2,1,3,374.006945,374.006945,376.49957,0,49,49,49,1,50,3,1,gloves      ,redfox      ,html/resources/sequences_IDs/B/06_gloves.jpg,html/resources/sequences_IDs/B/01_redfox.jpg,6,1,3,2,1,1,5,1,0,50,,,,,,,,,,,,,,,,,,,,
,,,,,50,2020-07-04_10h11.16.900,retriever_ti,2020.1.3,Win32,60,Chrome,2560,1440,,,,,,,,,,,,,,,,,1,,,,,,,,,,,,,,,,,,,,,,,,,,,377.118565,51,left,1.26634,holdfast    ,5,4,1,1,0,377.13094,377.13094,379.624695,0,50,50,50,1,51,5,4,holdfast    ,dress         ,html/resources/sequences_IDs/B/04_holdfast.jpg,html/resources/sequences_IDs/A/07_dress.jpg,4,7,2,1,3,2,3,6,1,50,,,,,,,,,,,,,,,,,,,,
,,,,,50,2020-07-04_10h11.16.900,retriever_ti,2020.1.3,Win32,60,Chrome,2560,1440,,,,,,,,,,,,,,,,,1,,,,,,,,,,,,,,,,,,,,,,,,,,,380.71387,52,right,1.11841,gloves      ,3,6,-2,0,3,380.72737,380.72737,383.222005,0,51,51,51,1,52,5,3,holdfast    ,gloves      ,html/resources/sequences_IDs/B/04_holdfast.jpg,html/resources/sequences_IDs/B/06_gloves.jpg,4,6,2,1,3,2,3,5,0,50,,,,,,,,,,,,,,,,,,,,
,,,,,50,2020-07-04_10h11.16.900,retriever_ti,2020.1.3,Win32,60,Chrome,2560,1440,,,,,,,,,,,,,,,,,1,,,,,,,,,,,,,,,,,,,,,,,,,,,383.830315,53,left,0.80648,gloves      ,3,6,-3,0,3,383.852005,383.852005,386.34672,0,52,52,52,1,53,3,6,gloves      ,calculator    ,html/resources/sequences_IDs/B/06_gloves.jpg,html/resources/sequences_IDs/A/09_calculator.jpg,6,9,3,2,4,2,5,8,0,50,,,,,,,,,,,,,,,,,,,,
,,,,,50,2020-07-04_10h11.16.900,retriever_ti,2020.1.3,Win32,60,Chrome,2560,1440,,,,,,,,,,,,,,,,,1,,,,,,,,,,,,,,,,,,,,,,,,,,,386.964855,54,right,1.618765,gloves      ,3,6,1,1,1,386.977965,386.977965,389.492915,0,53,53,53,1,54,2,3,seaturtle     ,gloves      ,html/resources/sequences_IDs/A/02_seaturtle.jpg,html/resources/sequences_IDs/B/06_gloves.jpg,2,6,2,1,3,2,2,5,0,50,,,,,,,,,,,,,,,,,,,,
,,,,,50,2020-07-04_10h11.16.900,retriever_ti,2020.1.3,Win32,60,Chrome,2560,1440,,,,,,,,,,,,,,,,,1,,,,,,,,,,,,,,,,,,,,,,,,,,,390.592565,55,right,0.979295,holdfast    ,5,4,-1,0,0,390.63268,390.63268,393.12321,0,54,54,54,1,55,6,5,calculator    ,holdfast    ,html/resources/sequences_IDs/A/09_calculator.jpg,html/resources/sequences_IDs/B/04_holdfast.jpg,9,4,4,2,2,1,8,3,0,50,,,,,,,,,,,,,,,,,,,,
,,,,,50,2020-07-04_10h11.16.900,retriever_ti,2020.1.3,Win32,60,Chrome,2560,1440,,,,,,,,,,,,,,,,,1,,,,,,,,,,,,,,,,,,,,,,,,,,,394.21504,56,right,1.272215,dress         ,4,7,3,1,3,394.250545,394.250545,396.739225,0,55,55,55,1,56,1,4,redfox      ,dress         ,html/resources/sequences_IDs/B/01_redfox.jpg,html/resources/sequences_IDs/A/07_dress.jpg,1,7,1,1,3,2,1,6,0,50,,,,,,,,,,,,,,,,,,,,
,,,,,50,2020-07-04_10h11.16.900,retriever_ti,2020.1.3,Win32,60,Chrome,2560,1440,,,,,,,,,,,,,,,,,1,,,,,,,,,,,,,,,,,,,,,,,,,,,397.33988,57,left,0.672465,gloves      ,3,6,1,1,1,397.35837,397.35837,399.86063,0,56,56,56,1,57,3,2,gloves      ,seaturtle     ,html/resources/sequences_IDs/B/06_gloves.jpg,html/resources/sequences_IDs/A/02_seaturtle.jpg,6,2,3,2,2,1,5,2,0,50,,,,,,,,,,,,,,,,,,,,
,,,,,50,2020-07-04_10h11.16.900,retriever_ti,2020.1.3,Win32,60,Chrome,2560,1440,,,,,,,,,,,,,,,,,1,,,,,,,,,,,,,,,,,,,,,,,,,,,400.94876,58,right,0.77308,dress         ,4,7,-3,0,3,400.96585,400.96585,403.461115,0,57,57,57,1,58,7,4,slipper     ,dress         ,html/resources/sequences_IDs/B/08_slipper.jpg,html/resources/sequences_IDs/A/07_dress.jpg,8,7,3,2,3,2,7,6,0,50,,,,,,,,,,,,,,,,,,,,
,,,,,50,2020-07-04_10h11.16.900,retriever_ti,2020.1.3,Win32,60,Chrome,2560,1440,,,,,,,,,,,,,,,,,1,,,,,,,,,,,,,,,,,,,,,,,,,,,404.07227,59,right,0.978845,gloves      ,3,6,2,1,3,404.09002,404.09002,406.589755,0,58,58,58,1,59,1,3,redfox      ,gloves      ,html/resources/sequences_IDs/B/01_redfox.jpg,html/resources/sequences_IDs/B/06_gloves.jpg,1,6,1,1,3,2,1,5,0,50,,,,,,,,,,,,,,,,,,,,
,,,,,50,2020-07-04_10h11.16.900,retriever_ti,2020.1.3,Win32,60,Chrome,2560,1440,,,,,,,,,,,,,,,,,1,,,,,,,,,,,,,,,,,,,,,,,,,,,407.19404,60,right,1.326695,gloves      ,3,6,1,1,0,407.206815,407.206815,409.71228,0,59,59,59,1,60,2,3,seaturtle     ,gloves      ,html/resources/sequences_IDs/A/02_seaturtle.jpg,html/resources/sequences_IDs/B/06_gloves.jpg,2,6,2,1,3,2,2,5,1,50,,,,,,,,,,,,,,,,,,,,
,,,,,50,2020-07-04_10h11.16.900,retriever_ti,2020.1.3,Win32,60,Chrome,2560,1440,,,,,,,,,,,,,,,,,1,,,,,,,,,,,,,,,,,,,,,,,,,,,410.80391,61,left,1.198955,holdfast    ,5,4,1,1,1,410.830315,410.830315,413.32329,0,60,60,60,1,61,5,4,holdfast    ,dress         ,html/resources/sequences_IDs/B/04_holdfast.jpg,html/resources/sequences_IDs/A/07_dress.jpg,4,7,2,1,3,2,3,6,0,50,,,,,,,,,,,,,,,,,,,,
,,,,,50,2020-07-04_10h11.16.900,retriever_ti,2020.1.3,Win32,60,Chrome,2560,1440,,,,,,,,,,,,,,,,,1,,,,,,,,,,,,,,,,,,,,,,,,,,,414.4139,62,left,0.761535,holdfast    ,5,4,-2,0,3,414.44106,414.44106,416.947395,0,61,61,61,1,62,5,7,holdfast    ,slipper     ,html/resources/sequences_IDs/B/04_holdfast.jpg,html/resources/sequences_IDs/B/08_slipper.jpg,4,8,2,1,3,2,3,7,0,50,,,,,,,,,,,,,,,,,,,,
,,,,,50,2020-07-04_10h11.16.900,retriever_ti,2020.1.3,Win32,60,Chrome,2560,1440,,,,,,,,,,,,,,,,,1,,,,,,,,,,,,,,,,,,,,,,,,,,,417.550765,63,left,0.77529,peacock       ,8,5,3,1,3,417.5752,417.5752,420.079955,0,62,62,62,1,63,8,5,peacock       ,holdfast    ,html/resources/sequences_IDs/A/05_peacock.jpg,html/resources/sequences_IDs/B/04_holdfast.jpg,5,4,2,1,2,1,4,3,0,50,,,,,,,,,,,,,,,,,,,,
,,,,,50,2020-07-04_10h11.16.900,retriever_ti,2020.1.3,Win32,60,Chrome,2560,1440,,,,,,,,,,,,,,,,,1,,,,,,,,,,,,,,,,,,,,,,,,,,,420.697845,64,right,0.769125,redfox      ,1,1,-5,0,3,420.709955,420.709955,423.200755,0,63,63,63,1,64,6,1,calculator    ,redfox      ,html/resources/sequences_IDs/A/09_calculator.jpg,html/resources/sequences_IDs/B/01_redfox.jpg,9,1,4,2,1,1,8,1,0,50,,,,,,,,,,,,,,,,,,,,
,,,,,50,2020-07-04_10h11.16.900,retriever_ti,2020.1.3,Win32,60,Chrome,2560,1440,,,,,,,,,,,,,,,,,1,,,,,,,,,,,,,,,,,,,,,,,,,,,423.81449,65,left,0.871955,peacock       ,8,5,1,1,0,423.8456,423.8456,426.34072,0,64,64,64,1,65,8,7,peacock       ,slipper     ,html/resources/sequences_IDs/A/05_peacock.jpg,html/resources/sequences_IDs/B/08_slipper.jpg,5,8,2,1,3,2,4,7,1,50,,,,,,,,,,,,,,,,,,,,
,,,,,50,2020-07-04_10h11.16.900,retriever_ti,2020.1.3,Win32,60,Chrome,2560,1440,,,,,,,,,,,,,,,,,1,,,,,,,,,,,,,,,,,,,,,,,,,,,427.433505,66,left,0.81856,holdfast    ,5,4,-3,0,3,427.46672,427.46672,429.97503,0,65,65,65,1,66,5,8,holdfast    ,peacock       ,html/resources/sequences_IDs/B/04_holdfast.jpg,html/resources/sequences_IDs/A/05_peacock.jpg,4,5,2,1,2,1,3,4,0,50,,,,,,,,,,,,,,,,,,,,
,,,,,50,2020-07-04_10h11.16.900,retriever_ti,2020.1.3,Win32,60,Chrome,2560,1440,,,,,,,,,,,,,,,,,1,,,,,,,,,,,,,,,,,,,,,,,,,,,430.588715,67,left,0.60447,peacock       ,8,5,2,1,3,430.609815,430.609815,433.09753,0,66,66,66,1,67,8,6,peacock       ,calculator    ,html/resources/sequences_IDs/A/05_peacock.jpg,html/resources/sequences_IDs/A/09_calculator.jpg,5,9,2,1,4,2,4,8,0,50,,,,,,,,,,,,,,,,,,,,
,,,,,50,2020-07-04_10h11.16.900,retriever_ti,2020.1.3,Win32,60,Chrome,2560,1440,,,,,,,,,,,,,,,,,1,,,,,,,,,,,,,,,,,,,,,,,,,,,433.70227,68,right,0.606935,redfox      ,1,1,-1,0,0,433.726125,433.726125,436.22226,0,67,67,67,1,68,2,1,seaturtle     ,redfox      ,html/resources/sequences_IDs/A/02_seaturtle.jpg,html/resources/sequences_IDs/B/01_redfox.jpg,2,1,2,1,1,1,2,1,0,50,,,,,,,,,,,,,,,,,,,,
,,,,,50,2020-07-04_10h11.16.900,retriever_ti,2020.1.3,Win32,60,Chrome,2560,1440,,,,,,,,,,,,,,,,,1,,,,,,,,,,,,,,,,,,,,,,,,,,,437.31365,69,right,0.69455,gloves      ,3,6,-1,0,0,437.327905,437.327905,439.819375,0,68,68,68,1,69,4,3,dress         ,gloves      ,html/resources/sequences_IDs/A/07_dress.jpg,html/resources/sequences_IDs/B/06_gloves.jpg,7,6,3,2,3,2,6,5,0,50,,,,,,,,,,,,,,,,,,,,
,,,,,50,2020-07-04_10h11.16.900,retriever_ti,2020.1.3,Win32,60,Chrome,2560,1440,,,,,,,,,,,,,,,,,1,,,,,,,,,,,,,,,,,,,,,,,,,,,440.928275,70,right,0.78535,peacock       ,8,5,1,1,1,440.941125,440.941125,443.433775,0,69,69,69,1,70,7,8,slipper     ,peacock       ,html/resources/sequences_IDs/B/08_slipper.jpg,html/resources/sequences_IDs/A/05_peacock.jpg,8,5,3,2,2,1,7,4,0,50,,,,,,,,,,,,,,,,,,,,
,,,,,50,2020-07-04_10h11.16.900,retriever_ti,2020.1.3,Win32,60,Chrome,2560,1440,,,,,,,,,,,,,,,,,1,,,,,,,,,,,,,,,,,,,,,,,,,,,444.53898,71,left,0.721655,seaturtle     ,2,2,-4,0,3,444.553425,444.553425,447.042215,0,70,70,70,1,71,2,6,seaturtle     ,calculator    ,html/resources/sequences_IDs/A/02_seaturtle.jpg,html/resources/sequences_IDs/A/09_calculator.jpg,2,9,2,1,4,2,2,8,0,50,,,,,,,,,,,,,,,,,,,,
,,,,,50,2020-07-04_10h11.16.900,retriever_ti,2020.1.3,Win32,60,Chrome,2560,1440,,,,,,,,,,,,,,,,,1,,,,,,,,,,,,,,,,,,,,,,,,,,,447.657835,72,left,1.302,seaturtle     ,2,2,-2,0,3,447.67254,447.67254,450.159565,0,71,71,71,1,72,2,4,seaturtle     ,dress         ,html/resources/sequences_IDs/A/02_seaturtle.jpg,html/resources/sequences_IDs/A/07_dress.jpg,2,7,2,1,3,2,2,6,0,50,,,,,,,,,,,,,,,,,,,,
,,,,,50,2020-07-04_10h11.16.900,retriever_ti,2020.1.3,Win32,60,Chrome,2560,1440,,,,,,,,,,,,,,,,,1,,,,,,,,,,,,,,,,,,,,,,,,,,,450.77602,73,left,0.64403,seaturtle     ,2,2,-5,0,3,450.799425,450.799425,453.30523,0,72,72,72,1,73,2,7,seaturtle     ,slipper     ,html/resources/sequences_IDs/A/02_seaturtle.jpg,html/resources/sequences_IDs/B/08_slipper.jpg,2,8,2,1,3,2,2,7,0,50,,,,,,,,,,,,,,,,,,,,
,,,,,50,2020-07-04_10h11.16.900,retriever_ti,2020.1.3,Win32,60,Chrome,2560,1440,,,,,,,,,,,,,,,,,1,,,,,,,,,,,,,,,,,,,,,,,,,,,453.9366,74,left,0.607765,seaturtle     ,2,2,1,1,1,453.946,453.946,456.43682,0,73,73,73,1,74,2,1,seaturtle     ,redfox      ,html/resources/sequences_IDs/A/02_seaturtle.jpg,html/resources/sequences_IDs/B/01_redfox.jpg,2,1,2,1,1,1,2,1,0,50,,,,,,,,,,,,,,,,,,,,
,,,,,50,2020-07-04_10h11.16.900,retriever_ti,2020.1.3,Win32,60,Chrome,2560,1440,,,,,,,,,,,,,,,,,1,,,,,,,,,,,,,,,,,,,,,,,,,,,457.547465,75,left,1.14899,gloves      ,3,6,-1,0,0,457.588505,457.588505,460.10075,0,74,74,74,1,75,3,4,gloves      ,dress         ,html/resources/sequences_IDs/B/06_gloves.jpg,html/resources/sequences_IDs/A/07_dress.jpg,6,7,3,2,3,2,5,6,0,50,,,,,,,,,,,,,,,,,,,,
,,,,,50,2020-07-04_10h11.16.900,retriever_ti,2020.1.3,Win32,60,Chrome,2560,1440,,,,,,,,,,,,,,,,,1,,,,,,,,,,,,,,,,,,,,,,,,,,,461.194145,76,right,2.31121,holdfast    ,5,4,4,1,3,461.20835,461.20835,463.710045,0,75,75,75,1,76,1,5,redfox      ,holdfast    ,html/resources/sequences_IDs/B/01_redfox.jpg,html/resources/sequences_IDs/B/04_holdfast.jpg,1,4,1,1,2,1,1,3,0,50,,,,,,,,,,,,,,,,,,,,
,,,,,50,2020-07-04_10h11.16.900,retriever_ti,2020.1.3,Win32,60,Chrome,2560,1440,,,,,,,,,,,,,,,,,1,,,,,,,,,,,,,,,,,,,,,,,,,,,464.32121,77,left,0.67733,holdfast    ,5,4,-1,0,0,464.336025,464.336025,466.825145,0,76,76,76,1,77,5,6,holdfast    ,calculator    ,html/resources/sequences_IDs/B/04_holdfast.jpg,html/resources/sequences_IDs/A/09_calculator.jpg,4,9,2,1,4,2,3,8,0,50,,,,,,,,,,,,,,,,,,,,
,,,,,50,2020-07-04_10h11.16.900,retriever_ti,2020.1.3,Win32,60,Chrome,2560,1440,,,,,,,,,,,,,,,,,,,,,,,,,,,,,,,,,,,,,0,2.40716,,,,,,,,,,,,,,,,,,,,,,,,,,,,,,,,,,,,,,,,,0,0,0,0,1,,,,,,,,,,,,,,,
,,,,,50,2020-07-04_10h11.16.900,retriever_ti,2020.1.3,Win32,60,Chrome,2560,1440,,,,,,,,,,,,,,,,,2,,,,,,,,,,,,,,,,,,,,,,,,,,,481.086555,78,right,2.01267,gloves      ,3,6,2,1,3,481.116665,481.116665,483.608525,0,0,0,0,1,78,1,3,redfox      ,gloves      ,html/resources/sequences_IDs/B/01_redfox.jpg,html/resources/sequences_IDs/B/06_gloves.jpg,1,6,1,1,3,2,1,5,0,50,,,,,,,,,,,,,,,,,,,,
,,,,,50,2020-07-04_10h11.16.900,retriever_ti,2020.1.3,Win32,60,Chrome,2560,1440,,,,,,,,,,,,,,,,,2,,,,,,,,,,,,,,,,,,,,,,,,,,,484.221355,79,left,0.6403,holdfast    ,5,4,-1,0,0,484.235675,484.235675,486.74577,0,1,1,1,1,79,5,6,holdfast    ,calculator    ,html/resources/sequences_IDs/B/04_holdfast.jpg,html/resources/sequences_IDs/A/09_calculator.jpg,4,9,2,1,4,2,3,8,0,50,,,,,,,,,,,,,,,,,,,,
,,,,,50,2020-07-04_10h11.16.900,retriever_ti,2020.1.3,Win32,60,Chrome,2560,1440,,,,,,,,,,,,,,,,,2,,,,,,,,,,,,,,,,,,,,,,,,,,,487.85656,80,left,1.06379,peacock       ,8,5,5,1,3,487.904495,487.904495,490.40161,0,2,2,2,1,80,8,3,peacock       ,gloves      ,html/resources/sequences_IDs/A/05_peacock.jpg,html/resources/sequences_IDs/B/06_gloves.jpg,5,6,2,1,3,2,4,5,0,50,,,,,,,,,,,,,,,,,,,,
,,,,,50,2020-07-04_10h11.16.900,retriever_ti,2020.1.3,Win32,60,Chrome,2560,1440,,,,,,,,,,,,,,,,,2,,,,,,,,,,,,,,,,,,,,,,,,,,,491.009425,81,right,1.72306,peacock       ,8,5,1,1,1,491.045995,491.045995,493.53859,0,3,3,3,1,81,7,8,slipper     ,peacock       ,html/resources/sequences_IDs/B/08_slipper.jpg,html/resources/sequences_IDs/A/05_peacock.jpg,8,5,3,2,2,1,7,4,0,50,,,,,,,,,,,,,,,,,,,,
,,,,,50,2020-07-04_10h11.16.900,retriever_ti,2020.1.3,Win32,60,Chrome,2560,1440,,,,,,,,,,,,,,,,,2,,,,,,,,,,,,,,,,,,,,,,,,,,,494.64035,82,right,2.457065,holdfast    ,5,4,1,1,1,494.667505,494.667505,497.16231,0,4,4,4,1,82,4,5,dress         ,holdfast    ,html/resources/sequences_IDs/A/07_dress.jpg,html/resources/sequences_IDs/B/04_holdfast.jpg,7,4,3,2,2,1,6,3,0,50,,,,,,,,,,,,,,,,,,,,
,,,,,50,2020-07-04_10h11.16.900,retriever_ti,2020.1.3,Win32,60,Chrome,2560,1440,,,,,,,,,,,,,,,,,2,,,,,,,,,,,,,,,,,,,,,,,,,,,498.259205,83,left,0.89042,holdfast    ,5,4,1,1,1,498.297065,498.297065,500.811245,0,5,5,5,1,83,5,4,holdfast    ,dress         ,html/resources/sequences_IDs/B/04_holdfast.jpg,html/resources/sequences_IDs/A/07_dress.jpg,4,7,2,1,3,2,3,6,0,50,,,,,,,,,,,,,,,,,,,,
,,,,,50,2020-07-04_10h11.16.900,retriever_ti,2020.1.3,Win32,60,Chrome,2560,1440,,,,,,,,,,,,,,,,,2,,,,,,,,,,,,,,,,,,,,,,,,,,,501.909975,84,right,1.326435,holdfast    ,5,4,-2,0,3,501.95277,501.95277,504.450875,0,6,6,6,1,84,7,5,slipper     ,holdfast    ,html/resources/sequences_IDs/B/08_slipper.jpg,html/resources/sequences_IDs/B/04_holdfast.jpg,8,4,3,2,2,1,7,3,0,50,,,,,,,,,,,,,,,,,,,,
,,,,,50,2020-07-04_10h11.16.900,retriever_ti,2020.1.3,Win32,60,Chrome,2560,1440,,,,,,,,,,,,,,,,,2,,,,,,,,,,,,,,,,,,,,,,,,,,,505.0746,85,left,1.10408,dress         ,4,7,1,1,1,505.08695,505.08695,507.577865,0,7,7,7,1,85,4,3,dress         ,gloves      ,html/resources/sequences_IDs/A/07_dress.jpg,html/resources/sequences_IDs/B/06_gloves.jpg,7,6,3,2,3,2,6,5,0,50,,,,,,,,,,,,,,,,,,,,
,,,,,50,2020-07-04_10h11.16.900,retriever_ti,2020.1.3,Win32,60,Chrome,2560,1440,,,,,,,,,,,,,,,,,2,,,,,,,,,,,,,,,,,,,,,,,,,,,508.677945,86,right,0.73258,holdfast    ,5,4,-1,0,1,508.718095,508.718095,511.215525,0,8,8,8,1,86,6,5,calculator    ,holdfast    ,html/resources/sequences_IDs/A/09_calculator.jpg,html/resources/sequences_IDs/B/04_holdfast.jpg,9,4,4,2,2,1,8,3,1,50,,,,,,,,,,,,,,,,,,,,
,,,,,50,2020-07-04_10h11.16.900,retriever_ti,2020.1.3,Win32,60,Chrome,2560,1440,,,,,,,,,,,,,,,,,2,,,,,,,,,,,,,,,,,,,,,,,,,,,512.320845,87,left,1.207605,gloves      ,3,6,-5,0,3,512.33542,512.33542,514.833185,0,9,9,9,1,87,3,8,gloves      ,peacock       ,html/resources/sequences_IDs/B/06_gloves.jpg,html/resources/sequences_IDs/A/05_peacock.jpg,6,5,3,2,2,1,5,4,0,50,,,,,,,,,,,,,,,,,,,,
,,,,,50,2020-07-04_10h11.16.900,retriever_ti,2020.1.3,Win32,60,Chrome,2560,1440,,,,,,,,,,,,,,,,,2,,,,,,,,,,,,,,,,,,,,,,,,,,,515.453465,88,left,2.41182,redfox      ,1,1,-6,0,3,515.466525,515.466525,517.956225,0,10,10,10,1,88,1,7,redfox      ,slipper     ,html/resources/sequences_IDs/B/01_redfox.jpg,html/resources/sequences_IDs/B/08_slipper.jpg,1,8,1,1,3,2,1,7,0,50,,,,,,,,,,,,,,,,,,,,
,,,,,50,2020-07-04_10h11.16.900,retriever_ti,2020.1.3,Win32,60,Chrome,2560,1440,,,,,,,,,,,,,,,,,2,,,,,,,,,,,,,,,,,,,,,,,,,,,518.557175,89,left,0.90877,redfox      ,1,1,-5,0,3,518.618655,518.618655,521.1132,0,11,11,11,1,89,1,6,redfox      ,calculator    ,html/resources/sequences_IDs/B/01_redfox.jpg,html/resources/sequences_IDs/A/09_calculator.jpg,1,9,1,1,4,2,1,8,0,50,,,,,,,,,,,,,,,,,,,,
,,,,,50,2020-07-04_10h11.16.900,retriever_ti,2020.1.3,Win32,60,Chrome,2560,1440,,,,,,,,,,,,,,,,,2,,,,,,,,,,,,,,,,,,,,,,,,,,,521.737515,90,right,1.87257,redfox      ,1,1,-4,0,3,521.768955,521.768955,524.26564,0,12,12,12,1,90,5,1,holdfast    ,redfox      ,html/resources/sequences_IDs/B/04_holdfast.jpg,html/resources/sequences_IDs/B/01_redfox.jpg,4,1,2,1,1,1,3,1,0,50,,,,,,,,,,,,,,,,,,,,
,,,,,50,2020-07-04_10h11.16.900,retriever_ti,2020.1.3,Win32,60,Chrome,2560,1440,,,,,,,,,,,,,,,,,2,,,,,,,,,,,,,,,,,,,,,,,,,,,524.87834,91,left,1.330565,holdfast    ,5,4,2,1,3,524.889155,524.889155,527.39408,0,13,13,13,1,91,5,3,holdfast    ,gloves      ,html/resources/sequences_IDs/B/04_holdfast.jpg,html/resources/sequences_IDs/B/06_gloves.jpg,4,6,2,1,3,2,3,5,0,50,,,,,,,,,,,,,,,,,,,,
,,,,,50,2020-07-04_10h11.16.900,retriever_ti,2020.1.3,Win32,60,Chrome,2560,1440,,,,,,,,,,,,,,,,,2,,,,,,,,,,,,,,,,,,,,,,,,,,,528.00348,92,NaN,NaN,No_response,NaN,NaN,NaN,2,2,528.02534,528.02534,530.52774,0,14,14,14,1,92,2,1,seaturtle     ,redfox      ,html/resources/sequences_IDs/A/02_seaturtle.jpg,html/resources/sequences_IDs/B/01_redfox.jpg,2,1,2,1,1,1,2,1,1,50,,,,,,,,,,,,,,,,,,,,
,,,,,50,2020-07-04_10h11.16.900,retriever_ti,2020.1.3,Win32,60,Chrome,2560,1440,,,,,,,,,,,,,,,,,2,,,,,,,,,,,,,,,,,,,,,,,,,,,531.64311,93,left,1.559985,gloves      ,3,6,-1,0,0,531.655935,531.655935,534.144875,0,15,15,15,1,93,3,4,gloves      ,dress         ,html/resources/sequences_IDs/B/06_gloves.jpg,html/resources/sequences_IDs/A/07_dress.jpg,6,7,3,2,3,2,5,6,0,50,,,,,,,,,,,,,,,,,,,,
,,,,,50,2020-07-04_10h11.16.900,retriever_ti,2020.1.3,Win32,60,Chrome,2560,1440,,,,,,,,,,,,,,,,,2,,,,,,,,,,,,,,,,,,,,,,,,,,,535.243935,94,left,1.19603,seaturtle     ,2,2,-3,0,3,535.27721,535.27721,537.775295,0,16,16,16,1,94,2,5,seaturtle     ,holdfast    ,html/resources/sequences_IDs/A/02_seaturtle.jpg,html/resources/sequences_IDs/B/04_holdfast.jpg,2,4,2,1,2,1,2,3,0,50,,,,,,,,,,,,,,,,,,,,
,,,,,50,2020-07-04_10h11.16.900,retriever_ti,2020.1.3,Win32,60,Chrome,2560,1440,,,,,,,,,,,,,,,,,2,,,,,,,,,,,,,,,,,,,,,,,,,,,538.37666,95,left,0.865075,redfox      ,1,1,-1,0,0,538.409495,538.409495,540.9078,0,17,17,17,1,95,1,2,redfox      ,seaturtle     ,html/resources/sequences_IDs/B/01_redfox.jpg,html/resources/sequences_IDs/A/02_seaturtle.jpg,1,2,1,1,2,1,1,2,0,50,,,,,,,,,,,,,,,,,,,,
,,,,,50,2020-07-04_10h11.16.900,retriever_ti,2020.1.3,Win32,60,Chrome,2560,1440,,,,,,,,,,,,,,,,,2,,,,,,,,,,,,,,,,,,,,,,,,,,,541.998195,96,left,0.91178,gloves      ,3,6,2,1,3,542.018975,542.018975,544.52669,0,18,18,18,1,96,3,1,gloves      ,redfox      ,html/resources/sequences_IDs/B/06_gloves.jpg,html/resources/sequences_IDs/B/01_redfox.jpg,6,1,3,2,1,1,5,1,0,50,,,,,,,,,,,,,,,,,,,,
,,,,,50,2020-07-04_10h11.16.900,retriever_ti,2020.1.3,Win32,60,Chrome,2560,1440,,,,,,,,,,,,,,,,,2,,,,,,,,,,,,,,,,,,,,,,,,,,,545.13483,97,left,0.7407,peacock       ,8,5,3,1,3,545.163585,545.163585,547.65249,0,19,19,19,1,97,8,5,peacock       ,holdfast    ,html/resources/sequences_IDs/A/05_peacock.jpg,html/resources/sequences_IDs/B/04_holdfast.jpg,5,4,2,1,2,1,4,3,0,50,,,,,,,,,,,,,,,,,,,,
,,,,,50,2020-07-04_10h11.16.900,retriever_ti,2020.1.3,Win32,60,Chrome,2560,1440,,,,,,,,,,,,,,,,,2,,,,,,,,,,,,,,,,,,,,,,,,,,,548.257125,98,left,1.180225,redfox      ,1,1,-3,0,3,548.28788,548.28788,550.786965,0,20,20,20,1,98,1,4,redfox      ,dress         ,html/resources/sequences_IDs/B/01_redfox.jpg,html/resources/sequences_IDs/A/07_dress.jpg,1,7,1,1,3,2,1,6,0,50,,,,,,,,,,,,,,,,,,,,
,,,,,50,2020-07-04_10h11.16.900,retriever_ti,2020.1.3,Win32,60,Chrome,2560,1440,,,,,,,,,,,,,,,,,2,,,,,,,,,,,,,,,,,,,,,,,,,,,551.39708,99,right,1.35072,holdfast    ,5,4,1,1,0,551.430055,551.430055,553.922785,0,21,21,21,1,99,4,5,dress         ,holdfast    ,html/resources/sequences_IDs/A/07_dress.jpg,html/resources/sequences_IDs/B/04_holdfast.jpg,7,4,3,2,2,1,6,3,1,50,,,,,,,,,,,,,,,,,,,,
,,,,,50,2020-07-04_10h11.16.900,retriever_ti,2020.1.3,Win32,60,Chrome,2560,1440,,,,,,,,,,,,,,,,,2,,,,,,,,,,,,,,,,,,,,,,,,,,,555.0255,100,right,0.99531,seaturtle     ,2,2,-5,0,3,555.04323,555.04323,557.533315,0,22,22,22,1,100,7,2,slipper     ,seaturtle     ,html/resources/sequences_IDs/B/08_slipper.jpg,html/resources/sequences_IDs/A/02_seaturtle.jpg,8,2,3,2,2,1,7,2,0,50,,,,,,,,,,,,,,,,,,,,
,,,,,50,2020-07-04_10h11.16.900,retriever_ti,2020.1.3,Win32,60,Chrome,2560,1440,,,,,,,,,,,,,,,,,2,,,,,,,,,,,,,,,,,,,,,,,,,,,558.137945,101,left,0.5668,peacock       ,8,5,7,1,3,558.16964,558.16964,560.66112,0,23,23,23,1,101,8,1,peacock       ,redfox      ,html/resources/sequences_IDs/A/05_peacock.jpg,html/resources/sequences_IDs/B/01_redfox.jpg,5,1,2,1,1,1,4,1,0,50,,,,,,,,,,,,,,,,,,,,
,,,,,50,2020-07-04_10h11.16.900,retriever_ti,2020.1.3,Win32,60,Chrome,2560,1440,,,,,,,,,,,,,,,,,2,,,,,,,,,,,,,,,,,,,,,,,,,,,561.263955,102,left,0.766505,slipper     ,7,8,1,1,1,561.273805,561.273805,563.78618,0,24,24,24,1,102,7,6,slipper     ,calculator    ,html/resources/sequences_IDs/B/08_slipper.jpg,html/resources/sequences_IDs/A/09_calculator.jpg,8,9,3,2,4,2,7,8,0,50,,,,,,,,,,,,,,,,,,,,
,,,,,50,2020-07-04_10h11.16.900,retriever_ti,2020.1.3,Win32,60,Chrome,2560,1440,,,,,,,,,,,,,,,,,2,,,,,,,,,,,,,,,,,,,,,,,,,,,564.89466,103,left,0.625495,holdfast    ,5,4,-1,0,0,564.918375,564.918375,567.418085,0,25,25,25,1,103,5,6,holdfast    ,calculator    ,html/resources/sequences_IDs/B/04_holdfast.jpg,html/resources/sequences_IDs/A/09_calculator.jpg,4,9,2,1,4,2,3,8,0,50,,,,,,,,,,,,,,,,,,,,
,,,,,50,2020-07-04_10h11.16.900,retriever_ti,2020.1.3,Win32,60,Chrome,2560,1440,,,,,,,,,,,,,,,,,2,,,,,,,,,,,,,,,,,,,,,,,,,,,568.51344,104,left,0.78622,gloves      ,3,6,1,1,0,568.53174,568.53174,571.04153,0,26,26,26,1,104,3,2,gloves      ,seaturtle     ,html/resources/sequences_IDs/B/06_gloves.jpg,html/resources/sequences_IDs/A/02_seaturtle.jpg,6,2,3,2,2,1,5,2,1,50,,,,,,,,,,,,,,,,,,,,
,,,,,50,2020-07-04_10h11.16.900,retriever_ti,2020.1.3,Win32,60,Chrome,2560,1440,,,,,,,,,,,,,,,,,2,,,,,,,,,,,,,,,,,,,,,,,,,,,572.138915,105,left,0.628335,peacock       ,8,5,1,1,1,572.175505,572.175505,574.690285,0,27,27,27,1,105,8,7,peacock       ,slipper     ,html/resources/sequences_IDs/A/05_peacock.jpg,html/resources/sequences_IDs/B/08_slipper.jpg,5,8,2,1,3,2,4,7,0,50,,,,,,,,,,,,,,,,,,,,
,,,,,50,2020-07-04_10h11.16.900,retriever_ti,2020.1.3,Win32,60,Chrome,2560,1440,,,,,,,,,,,,,,,,,2,,,,,,,,,,,,,,,,,,,,,,,,,,,575.791995,106,right,0.698015,peacock       ,8,5,7,1,3,575.82733,575.82733,578.32221,0,28,28,28,1,106,1,8,redfox      ,peacock       ,html/resources/sequences_IDs/B/01_redfox.jpg,html/resources/sequences_IDs/A/05_peacock.jpg,1,5,1,1,2,1,1,4,0,50,,,,,,,,,,,,,,,,,,,,
,,,,,50,2020-07-04_10h11.16.900,retriever_ti,2020.1.3,Win32,60,Chrome,2560,1440,,,,,,,,,,,,,,,,,2,,,,,,,,,,,,,,,,,,,,,,,,,,,578.927155,107,right,0.60741,holdfast    ,5,4,-1,0,0,578.956365,578.956365,581.45924,0,29,29,29,1,107,6,5,calculator    ,holdfast    ,html/resources/sequences_IDs/A/09_calculator.jpg,html/resources/sequences_IDs/B/04_holdfast.jpg,9,4,4,2,2,1,8,3,0,50,,,,,,,,,,,,,,,,,,,,
,,,,,50,2020-07-04_10h11.16.900,retriever_ti,2020.1.3,Win32,60,Chrome,2560,1440,,,,,,,,,,,,,,,,,2,,,,,,,,,,,,,,,,,,,,,,,,,,,582.548535,108,left,0.60775,holdfast    ,5,4,-2,0,3,582.561905,582.561905,585.06318,0,30,30,30,1,108,5,7,holdfast    ,slipper     ,html/resources/sequences_IDs/B/04_holdfast.jpg,html/resources/sequences_IDs/B/08_slipper.jpg,4,8,2,1,3,2,3,7,0,50,,,,,,,,,,,,,,,,,,,,
,,,,,50,2020-07-04_10h11.16.900,retriever_ti,2020.1.3,Win32,60,Chrome,2560,1440,,,,,,,,,,,,,,,,,2,,,,,,,,,,,,,,,,,,,,,,,,,,,585.666935,109,right,0.49731,redfox      ,1,1,-1,0,0,585.685745,585.685745,588.1905,0,31,31,31,1,109,2,1,seaturtle     ,redfox      ,html/resources/sequences_IDs/A/02_seaturtle.jpg,html/resources/sequences_IDs/B/01_redfox.jpg,2,1,2,1,1,1,2,1,0,50,,,,,,,,,,,,,,,,,,,,
,,,,,50,2020-07-04_10h11.16.900,retriever_ti,2020.1.3,Win32,60,Chrome,2560,1440,,,,,,,,,,,,,,,,,2,,,,,,,,,,,,,,,,,,,,,,,,,,,589.28718,110,right,0.943935,gloves      ,3,6,1,1,1,589.319755,589.319755,591.81887,0,32,32,32,1,110,2,3,seaturtle     ,gloves      ,html/resources/sequences_IDs/A/02_seaturtle.jpg,html/resources/sequences_IDs/B/06_gloves.jpg,2,6,2,1,3,2,2,5,0,50,,,,,,,,,,,,,,,,,,,,
,,,,,50,2020-07-04_10h11.16.900,retriever_ti,2020.1.3,Win32,60,Chrome,2560,1440,,,,,,,,,,,,,,,,,2,,,,,,,,,,,,,,,,,,,,,,,,,,,592.9177,111,left,0.5272,gloves      ,3,6,-2,0,3,592.939125,592.939125,595.43675,0,33,33,33,1,111,3,5,gloves      ,holdfast    ,html/resources/sequences_IDs/B/06_gloves.jpg,html/resources/sequences_IDs/B/04_holdfast.jpg,6,4,3,2,2,1,5,3,0,50,,,,,,,,,,,,,,,,,,,,
,,,,,50,2020-07-04_10h11.16.900,retriever_ti,2020.1.3,Win32,60,Chrome,2560,1440,,,,,,,,,,,,,,,,,2,,,,,,,,,,,,,,,,,,,,,,,,,,,596.07123,112,left,0.63567,dress         ,4,7,3,1,3,596.10226,596.10226,598.592065,0,34,34,34,1,112,4,1,dress         ,redfox      ,html/resources/sequences_IDs/A/07_dress.jpg,html/resources/sequences_IDs/B/01_redfox.jpg,7,1,3,2,1,1,6,1,0,50,,,,,,,,,,,,,,,,,,,,
,,,,,50,2020-07-04_10h11.16.900,retriever_ti,2020.1.3,Win32,60,Chrome,2560,1440,,,,,,,,,,,,,,,,,2,,,,,,,,,,,,,,,,,,,,,,,,,,,599.196775,113,left,0.773635,peacock       ,8,5,1,1,1,599.21076,599.21076,601.709685,0,35,35,35,1,113,8,7,peacock       ,slipper     ,html/resources/sequences_IDs/A/05_peacock.jpg,html/resources/sequences_IDs/B/08_slipper.jpg,5,8,2,1,3,2,4,7,0,50,,,,,,,,,,,,,,,,,,,,
,,,,,50,2020-07-04_10h11.16.900,retriever_ti,2020.1.3,Win32,60,Chrome,2560,1440,,,,,,,,,,,,,,,,,2,,,,,,,,,,,,,,,,,,,,,,,,,,,602.818825,114,right,0.421005,peacock       ,8,5,3,1,3,602.831845,602.831845,605.34143,0,36,36,36,1,114,5,8,holdfast    ,peacock       ,html/resources/sequences_IDs/B/04_holdfast.jpg,html/resources/sequences_IDs/A/05_peacock.jpg,4,5,2,1,2,1,3,4,0,50,,,,,,,,,,,,,,,,,,,,
,,,,,50,2020-07-04_10h11.16.900,retriever_ti,2020.1.3,Win32,60,Chrome,2560,1440,,,,,,,,,,,,,,,,,2,,,,,,,,,,,,,,,,,,,,,,,,,,,605.955765,115,right,0.89605,redfox      ,1,1,-1,0,0,605.97569,605.97569,608.47259,0,37,37,37,1,115,2,1,seaturtle     ,redfox      ,html/resources/sequences_IDs/A/02_seaturtle.jpg,html/resources/sequences_IDs/B/01_redfox.jpg,2,1,2,1,1,1,2,1,0,50,,,,,,,,,,,,,,,,,,,,
,,,,,50,2020-07-04_10h11.16.900,retriever_ti,2020.1.3,Win32,60,Chrome,2560,1440,,,,,,,,,,,,,,,,,2,,,,,,,,,,,,,,,,,,,,,,,,,,,609.56084,116,right,0.999605,dress         ,4,7,-3,0,3,609.58264,609.58264,612.071055,0,38,38,38,1,116,7,4,slipper     ,dress         ,html/resources/sequences_IDs/B/08_slipper.jpg,html/resources/sequences_IDs/A/07_dress.jpg,8,7,3,2,3,2,7,6,0,50,,,,,,,,,,,,,,,,,,,,
,,,,,50,2020-07-04_10h11.16.900,retriever_ti,2020.1.3,Win32,60,Chrome,2560,1440,,,,,,,,,,,,,,,,,2,,,,,,,,,,,,,,,,,,,,,,,,,,,612.69717,117,right,0.50641,dress         ,4,7,-2,0,3,612.70995,612.70995,615.20519,0,39,39,39,1,117,6,4,calculator    ,dress         ,html/resources/sequences_IDs/A/09_calculator.jpg,html/resources/sequences_IDs/A/07_dress.jpg,9,7,4,2,3,2,8,6,0,50,,,,,,,,,,,,,,,,,,,,
,,,,,50,2020-07-04_10h11.16.900,retriever_ti,2020.1.3,Win32,60,Chrome,2560,1440,,,,,,,,,,,,,,,,,2,,,,,,,,,,,,,,,,,,,,,,,,,,,615.80799,118,left,0.75048,gloves      ,3,6,-1,0,0,615.818825,615.818825,618.320655,0,40,40,40,1,118,3,4,gloves      ,dress         ,html/resources/sequences_IDs/B/06_gloves.jpg,html/resources/sequences_IDs/A/07_dress.jpg,6,7,3,2,3,2,5,6,0,50,,,,,,,,,,,,,,,,,,,,
,,,,,50,2020-07-04_10h11.16.900,retriever_ti,2020.1.3,Win32,60,Chrome,2560,1440,,,,,,,,,,,,,,,,,2,,,,,,,,,,,,,,,,,,,,,,,,,,,619.42235,119,right,0.664335,dress         ,4,7,2,1,3,619.43437,619.43437,621.93493,0,41,41,41,1,119,2,4,seaturtle     ,dress         ,html/resources/sequences_IDs/A/02_seaturtle.jpg,html/resources/sequences_IDs/A/07_dress.jpg,2,7,2,1,3,2,2,6,0,50,,,,,,,,,,,,,,,,,,,,
,,,,,50,2020-07-04_10h11.16.900,retriever_ti,2020.1.3,Win32,60,Chrome,2560,1440,,,,,,,,,,,,,,,,,2,,,,,,,,,,,,,,,,,,,,,,,,,,,622.547855,120,left,0.53855,dress         ,4,7,1,1,1,622.606705,622.606705,625.09928,0,42,42,42,1,120,4,3,dress         ,gloves      ,html/resources/sequences_IDs/A/07_dress.jpg,html/resources/sequences_IDs/B/06_gloves.jpg,7,6,3,2,3,2,6,5,0,50,,,,,,,,,,,,,,,,,,,,
,,,,,50,2020-07-04_10h11.16.900,retriever_ti,2020.1.3,Win32,60,Chrome,2560,1440,,,,,,,,,,,,,,,,,2,,,,,,,,,,,,,,,,,,,,,,,,,,,626.199985,121,left,0.820445,gloves      ,3,6,1,1,1,626.219185,626.219185,628.720775,0,43,43,43,1,121,3,2,gloves      ,seaturtle     ,html/resources/sequences_IDs/B/06_gloves.jpg,html/resources/sequences_IDs/A/02_seaturtle.jpg,6,2,3,2,2,1,5,2,0,50,,,,,,,,,,,,,,,,,,,,
,,,,,50,2020-07-04_10h11.16.900,retriever_ti,2020.1.3,Win32,60,Chrome,2560,1440,,,,,,,,,,,,,,,,,2,,,,,,,,,,,,,,,,,,,,,,,,,,,629.809025,122,right,1.912725,peacock       ,8,5,1,1,0,629.827405,629.827405,632.32647,0,44,44,44,1,122,7,8,slipper     ,peacock       ,html/resources/sequences_IDs/B/08_slipper.jpg,html/resources/sequences_IDs/A/05_peacock.jpg,8,5,3,2,2,1,7,4,1,50,,,,,,,,,,,,,,,,,,,,
,,,,,50,2020-07-04_10h11.16.900,retriever_ti,2020.1.3,Win32,60,Chrome,2560,1440,,,,,,,,,,,,,,,,,2,,,,,,,,,,,,,,,,,,,,,,,,,,,633.42347,123,right,1.85559,calculator    ,6,9,4,1,3,633.447445,633.447445,635.944445,0,45,45,45,1,123,2,6,seaturtle     ,calculator    ,html/resources/sequences_IDs/A/02_seaturtle.jpg,html/resources/sequences_IDs/A/09_calculator.jpg,2,9,2,1,4,2,2,8,0,50,,,,,,,,,,,,,,,,,,,,
,,,,,50,2020-07-04_10h11.16.900,retriever_ti,2020.1.3,Win32,60,Chrome,2560,1440,,,,,,,,,,,,,,,,,2,,,,,,,,,,,,,,,,,,,,,,,,,,,636.556345,124,left,0.609795,calculator    ,6,9,3,1,3,636.56979,636.56979,639.05716,0,46,46,46,1,124,6,3,calculator    ,gloves      ,html/resources/sequences_IDs/A/09_calculator.jpg,html/resources/sequences_IDs/B/06_gloves.jpg,9,6,4,2,3,2,8,5,0,50,,,,,,,,,,,,,,,,,,,,
,,,,,50,2020-07-04_10h11.16.900,retriever_ti,2020.1.3,Win32,60,Chrome,2560,1440,,,,,,,,,,,,,,,,,2,,,,,,,,,,,,,,,,,,,,,,,,,,,639.672315,125,left,0.90616,dress         ,4,7,-1,0,0,639.697405,639.697405,642.1984,0,47,47,47,1,125,4,5,dress         ,holdfast    ,html/resources/sequences_IDs/A/07_dress.jpg,html/resources/sequences_IDs/B/04_holdfast.jpg,7,4,3,2,2,1,6,3,0,50,,,,,,,,,,,,,,,,,,,,
,,,,,50,2020-07-04_10h11.16.900,retriever_ti,2020.1.3,Win32,60,Chrome,2560,1440,,,,,,,,,,,,,,,,,2,,,,,,,,,,,,,,,,,,,,,,,,,,,643.304625,126,left,0.69081,gloves      ,3,6,-4,0,3,643.32768,643.32768,645.814205,0,48,48,48,1,126,3,7,gloves      ,slipper     ,html/resources/sequences_IDs/B/06_gloves.jpg,html/resources/sequences_IDs/B/08_slipper.jpg,6,8,3,2,3,2,5,7,0,50,,,,,,,,,,,,,,,,,,,,
,,,,,50,2020-07-04_10h11.16.900,retriever_ti,2020.1.3,Win32,60,Chrome,2560,1440,,,,,,,,,,,,,,,,,2,,,,,,,,,,,,,,,,,,,,,,,,,,,646.42148,127,left,0.90156,peacock       ,8,5,2,1,3,646.461365,646.461365,648.956285,0,49,49,49,1,127,8,6,peacock       ,calculator    ,html/resources/sequences_IDs/A/05_peacock.jpg,html/resources/sequences_IDs/A/09_calculator.jpg,5,9,2,1,4,2,4,8,0,50,,,,,,,,,,,,,,,,,,,,
,,,,,50,2020-07-04_10h11.16.900,retriever_ti,2020.1.3,Win32,60,Chrome,2560,1440,,,,,,,,,,,,,,,,,2,,,,,,,,,,,,,,,,,,,,,,,,,,,649.581215,128,left,0.60629,calculator    ,6,9,5,1,3,649.59654,649.59654,652.093375,0,50,50,50,1,128,6,1,calculator    ,redfox      ,html/resources/sequences_IDs/A/09_calculator.jpg,html/resources/sequences_IDs/B/01_redfox.jpg,9,1,4,2,1,1,8,1,0,50,,,,,,,,,,,,,,,,,,,,
,,,,,50,2020-07-04_10h11.16.900,retriever_ti,2020.1.3,Win32,60,Chrome,2560,1440,,,,,,,,,,,,,,,,,2,,,,,,,,,,,,,,,,,,,,,,,,,,,652.69742,129,left,0.753505,calculator    ,6,9,1,1,1,652.71705,652.71705,655.204995,0,51,51,51,1,129,6,5,calculator    ,holdfast    ,html/resources/sequences_IDs/A/09_calculator.jpg,html/resources/sequences_IDs/B/04_holdfast.jpg,9,4,4,2,2,1,8,3,0,50,,,,,,,,,,,,,,,,,,,,
,,,,,50,2020-07-04_10h11.16.900,retriever_ti,2020.1.3,Win32,60,Chrome,2560,1440,,,,,,,,,,,,,,,,,2,,,,,,,,,,,,,,,,,,,,,,,,,,,656.30093,130,right,1.98297,gloves      ,3,6,1,1,1,656.343805,656.343805,658.840095,0,52,52,52,1,130,2,3,seaturtle     ,gloves      ,html/resources/sequences_IDs/A/02_seaturtle.jpg,html/resources/sequences_IDs/B/06_gloves.jpg,2,6,2,1,3,2,2,5,0,50,,,,,,,,,,,,,,,,,,,,
,,,,,50,2020-07-04_10h11.16.900,retriever_ti,2020.1.3,Win32,60,Chrome,2560,1440,,,,,,,,,,,,,,,,,2,,,,,,,,,,,,,,,,,,,,,,,,,,,659.939755,131,left,1.419825,redfox      ,1,1,-4,0,3,659.95299,659.95299,662.44067,0,53,53,53,1,131,1,5,redfox      ,holdfast    ,html/resources/sequences_IDs/B/01_redfox.jpg,html/resources/sequences_IDs/B/04_holdfast.jpg,1,4,1,1,2,1,1,3,0,50,,,,,,,,,,,,,,,,,,,,
,,,,,50,2020-07-04_10h11.16.900,retriever_ti,2020.1.3,Win32,60,Chrome,2560,1440,,,,,,,,,,,,,,,,,2,,,,,,,,,,,,,,,,,,,,,,,,,,,663.042405,132,right,0.98755,peacock       ,8,5,6,1,3,663.073185,663.073185,665.563655,0,54,54,54,1,132,2,8,seaturtle     ,peacock       ,html/resources/sequences_IDs/A/02_seaturtle.jpg,html/resources/sequences_IDs/A/05_peacock.jpg,2,5,2,1,2,1,2,4,0,50,,,,,,,,,,,,,,,,,,,,
,,,,,50,2020-07-04_10h11.16.900,retriever_ti,2020.1.3,Win32,60,Chrome,2560,1440,,,,,,,,,,,,,,,,,2,,,,,,,,,,,,,,,,,,,,,,,,,,,666.175845,133,right,0.81349,gloves      ,3,6,-1,0,1,666.195185,666.195185,668.684735,0,55,55,55,1,133,4,3,dress         ,gloves      ,html/resources/sequences_IDs/A/07_dress.jpg,html/resources/sequences_IDs/B/06_gloves.jpg,7,6,3,2,3,2,6,5,1,50,,,,,,,,,,,,,,,,,,,,
,,,,,50,2020-07-04_10h11.16.900,retriever_ti,2020.1.3,Win32,60,Chrome,2560,1440,,,,,,,,,,,,,,,,,2,,,,,,,,,,,,,,,,,,,,,,,,,,,669.780675,134,left,0.682715,calculator    ,6,9,-1,0,0,669.819715,669.819715,672.30712,0,56,56,56,1,134,6,7,calculator    ,slipper     ,html/resources/sequences_IDs/A/09_calculator.jpg,html/resources/sequences_IDs/B/08_slipper.jpg,9,8,4,2,3,2,8,7,0,50,,,,,,,,,,,,,,,,,,,,
,,,,,50,2020-07-04_10h11.16.900,retriever_ti,2020.1.3,Win32,60,Chrome,2560,1440,,,,,,,,,,,,,,,,,2,,,,,,,,,,,,,,,,,,,,,,,,,,,673.39822,135,right,0.714405,dress         ,4,7,-1,0,0,673.42702,673.42702,675.92085,0,57,57,57,1,135,5,4,holdfast    ,dress         ,html/resources/sequences_IDs/B/04_holdfast.jpg,html/resources/sequences_IDs/A/07_dress.jpg,4,7,2,1,3,2,3,6,0,50,,,,,,,,,,,,,,,,,,,,
,,,,,50,2020-07-04_10h11.16.900,retriever_ti,2020.1.3,Win32,60,Chrome,2560,1440,,,,,,,,,,,,,,,,,2,,,,,,,,,,,,,,,,,,,,,,,,,,,677.01841,136,left,1.818285,slipper     ,7,8,6,1,3,677.04107,677.04107,679.54269,0,58,58,58,1,136,7,1,slipper     ,redfox      ,html/resources/sequences_IDs/B/08_slipper.jpg,html/resources/sequences_IDs/B/01_redfox.jpg,8,1,3,2,1,1,7,1,0,50,,,,,,,,,,,,,,,,,,,,
,,,,,50,2020-07-04_10h11.16.900,retriever_ti,2020.1.3,Win32,60,Chrome,2560,1440,,,,,,,,,,,,,,,,,2,,,,,,,,,,,,,,,,,,,,,,,,,,,680.152715,137,left,0.999725,slipper     ,7,8,1,1,1,680.166015,680.166015,682.661525,0,59,59,59,1,137,7,6,slipper     ,calculator    ,html/resources/sequences_IDs/B/08_slipper.jpg,html/resources/sequences_IDs/A/09_calculator.jpg,8,9,3,2,4,2,7,8,0,50,,,,,,,,,,,,,,,,,,,,
,,,,,50,2020-07-04_10h11.16.900,retriever_ti,2020.1.3,Win32,60,Chrome,2560,1440,,,,,,,,,,,,,,,,,2,,,,,,,,,,,,,,,,,,,,,,,,,,,683.76934,138,left,1.036625,redfox      ,1,1,-1,0,0,683.782815,683.782815,686.287865,0,60,60,60,1,138,1,2,redfox      ,seaturtle     ,html/resources/sequences_IDs/B/01_redfox.jpg,html/resources/sequences_IDs/A/02_seaturtle.jpg,1,2,1,1,2,1,1,2,0,50,,,,,,,,,,,,,,,,,,,,
,,,,,50,2020-07-04_10h11.16.900,retriever_ti,2020.1.3,Win32,60,Chrome,2560,1440,,,,,,,,,,,,,,,,,2,,,,,,,,,,,,,,,,,,,,,,,,,,,687.392015,139,left,0.8625,calculator    ,6,9,-1,0,0,687.405155,687.405155,689.903255,0,61,61,61,1,139,6,7,calculator    ,slipper     ,html/resources/sequences_IDs/A/09_calculator.jpg,html/resources/sequences_IDs/B/08_slipper.jpg,9,8,4,2,3,2,8,7,0,50,,,,,,,,,,,,,,,,,,,,
,,,,,50,2020-07-04_10h11.16.900,retriever_ti,2020.1.3,Win32,60,Chrome,2560,1440,,,,,,,,,,,,,,,,,2,,,,,,,,,,,,,,,,,,,,,,,,,,,690.999755,140,left,1.006325,peacock       ,8,5,6,1,3,691.03356,691.03356,693.52735,0,62,62,62,1,140,8,2,peacock       ,seaturtle     ,html/resources/sequences_IDs/A/05_peacock.jpg,html/resources/sequences_IDs/A/02_seaturtle.jpg,5,2,2,1,2,1,4,2,0,50,,,,,,,,,,,,,,,,,,,,
,,,,,50,2020-07-04_10h11.16.900,retriever_ti,2020.1.3,Win32,60,Chrome,2560,1440,,,,,,,,,,,,,,,,,2,,,,,,,,,,,,,,,,,,,,,,,,,,,694.162645,141,left,1.445645,slipper     ,7,8,4,1,3,694.188985,694.188985,696.68675,0,63,63,63,1,141,7,3,slipper     ,gloves      ,html/resources/sequences_IDs/B/08_slipper.jpg,html/resources/sequences_IDs/B/06_gloves.jpg,8,6,3,2,3,2,7,5,0,50,,,,,,,,,,,,,,,,,,,,
,,,,,50,2020-07-04_10h11.16.900,retriever_ti,2020.1.3,Win32,60,Chrome,2560,1440,,,,,,,,,,,,,,,,,2,,,,,,,,,,,,,,,,,,,,,,,,,,,697.29932,142,left,0.838725,calculator    ,6,9,-2,0,3,697.31275,697.31275,699.802755,0,64,64,64,1,142,6,8,calculator    ,peacock       ,html/resources/sequences_IDs/A/09_calculator.jpg,html/resources/sequences_IDs/A/05_peacock.jpg,9,5,4,2,2,1,8,4,0,50,,,,,,,,,,,,,,,,,,,,
,,,,,50,2020-07-04_10h11.16.900,retriever_ti,2020.1.3,Win32,60,Chrome,2560,1440,,,,,,,,,,,,,,,,,2,,,,,,,,,,,,,,,,,,,,,,,,,,,700.41075,143,right,1.387475,slipper     ,7,8,5,1,3,700.423145,700.423145,702.9308,0,65,65,65,1,143,2,7,seaturtle     ,slipper     ,html/resources/sequences_IDs/A/02_seaturtle.jpg,html/resources/sequences_IDs/B/08_slipper.jpg,2,8,2,1,3,2,2,7,0,50,,,,,,,,,,,,,,,,,,,,
,,,,,50,2020-07-04_10h11.16.900,retriever_ti,2020.1.3,Win32,60,Chrome,2560,1440,,,,,,,,,,,,,,,,,2,,,,,,,,,,,,,,,,,,,,,,,,,,,703.53649,144,left,0.82256,calculator    ,6,9,-1,0,1,703.54666,703.54666,706.036155,0,66,66,66,1,144,6,7,calculator    ,slipper     ,html/resources/sequences_IDs/A/09_calculator.jpg,html/resources/sequences_IDs/B/08_slipper.jpg,9,8,4,2,3,2,8,7,1,50,,,,,,,,,,,,,,,,,,,,
,,,,,50,2020-07-04_10h11.16.900,retriever_ti,2020.1.3,Win32,60,Chrome,2560,1440,,,,,,,,,,,,,,,,,2,,,,,,,,,,,,,,,,,,,,,,,,,,,707.13707,145,NaN,NaN,No_response,NaN,NaN,NaN,2,2,707.17083,707.17083,709.66725,0,67,67,67,1,145,4,8,dress         ,peacock       ,html/resources/sequences_IDs/A/07_dress.jpg,html/resources/sequences_IDs/A/05_peacock.jpg,7,5,3,2,2,1,6,4,0,50,,,,,,,,,,,,,,,,,,,,
,,,,,50,2020-07-04_10h11.16.900,retriever_ti,2020.1.3,Win32,60,Chrome,2560,1440,,,,,,,,,,,,,,,,,2,,,,,,,,,,,,,,,,,,,,,,,,,,,710.758015,146,left,1.42309,dress         ,4,7,-3,0,3,710.77109,710.77109,713.26999,0,68,68,68,1,146,4,7,dress         ,slipper     ,html/resources/sequences_IDs/A/07_dress.jpg,html/resources/sequences_IDs/B/08_slipper.jpg,7,8,3,2,3,2,6,7,0,50,,,,,,,,,,,,,,,,,,,,
,,,,,50,2020-07-04_10h11.16.900,retriever_ti,2020.1.3,Win32,60,Chrome,2560,1440,,,,,,,,,,,,,,,,,2,,,,,,,,,,,,,,,,,,,,,,,,,,,713.873035,147,right,0.79184,peacock       ,8,5,1,1,1,713.91738,713.91738,716.411735,0,69,69,69,1,147,7,8,slipper     ,peacock       ,html/resources/sequences_IDs/B/08_slipper.jpg,html/resources/sequences_IDs/A/05_peacock.jpg,8,5,3,2,2,1,7,4,0,50,,,,,,,,,,,,,,,,,,,,
,,,,,50,2020-07-04_10h11.16.900,retriever_ti,2020.1.3,Win32,60,Chrome,2560,1440,,,,,,,,,,,,,,,,,2,,,,,,,,,,,,,,,,,,,,,,,,,,,717.503795,148,left,0.714275,calculator    ,6,9,4,1,3,717.54028,717.54028,720.042165,0,70,70,70,1,148,6,2,calculator    ,seaturtle     ,html/resources/sequences_IDs/A/09_calculator.jpg,html/resources/sequences_IDs/A/02_seaturtle.jpg,9,2,4,2,2,1,8,2,0,50,,,,,,,,,,,,,,,,,,,,
,,,,,50,2020-07-04_10h11.16.900,retriever_ti,2020.1.3,Win32,60,Chrome,2560,1440,,,,,,,,,,,,,,,,,2,,,,,,,,,,,,,,,,,,,,,,,,,,,720.644905,149,right,0.855085,seaturtle     ,2,2,-3,0,3,720.65995,720.65995,723.15739,0,71,71,71,1,149,5,2,holdfast    ,seaturtle     ,html/resources/sequences_IDs/B/04_holdfast.jpg,html/resources/sequences_IDs/A/02_seaturtle.jpg,4,2,2,1,2,1,3,2,0,50,,,,,,,,,,,,,,,,,,,,
,,,,,50,2020-07-04_10h11.16.900,retriever_ti,2020.1.3,Win32,60,Chrome,2560,1440,,,,,,,,,,,,,,,,,2,,,,,,,,,,,,,,,,,,,,,,,,,,,723.76132,150,left,0.684305,gloves      ,3,6,1,1,1,723.800535,723.800535,726.299755,0,72,72,72,1,150,3,2,gloves      ,seaturtle     ,html/resources/sequences_IDs/B/06_gloves.jpg,html/resources/sequences_IDs/A/02_seaturtle.jpg,6,2,3,2,2,1,5,2,0,50,,,,,,,,,,,,,,,,,,,,
,,,,,50,2020-07-04_10h11.16.900,retriever_ti,2020.1.3,Win32,60,Chrome,2560,1440,,,,,,,,,,,,,,,,,2,,,,,,,,,,,,,,,,,,,,,,,,,,,727.39443,151,right,0.66115,dress         ,4,7,-4,0,3,727.436975,727.436975,729.926245,0,73,73,73,1,151,8,4,peacock       ,dress         ,html/resources/sequences_IDs/A/05_peacock.jpg,html/resources/sequences_IDs/A/07_dress.jpg,5,7,2,1,3,2,4,6,0,50,,,,,,,,,,,,,,,,,,,,
,,,,,50,2020-07-04_10h11.16.900,retriever_ti,2020.1.3,Win32,60,Chrome,2560,1440,,,,,,,,,,,,,,,,,2,,,,,,,,,,,,,,,,,,,,,,,,,,,730.550085,152,left,0.548855,dress         ,4,7,2,1,3,730.56258,730.56258,733.053985,0,74,74,74,1,152,4,2,dress         ,seaturtle     ,html/resources/sequences_IDs/A/07_dress.jpg,html/resources/sequences_IDs/A/02_seaturtle.jpg,7,2,3,2,2,1,6,2,0,50,,,,,,,,,,,,,,,,,,,,
,,,,,50,2020-07-04_10h11.16.900,retriever_ti,2020.1.3,Win32,60,Chrome,2560,1440,,,,,,,,,,,,,,,,,2,,,,,,,,,,,,,,,,,,,,,,,,,,,733.66824,153,left,0.66314,gloves      ,3,6,-3,0,3,733.681345,733.681345,736.16902,0,75,75,75,1,153,3,6,gloves      ,calculator    ,html/resources/sequences_IDs/B/06_gloves.jpg,html/resources/sequences_IDs/A/09_calculator.jpg,6,9,3,2,4,2,5,8,0,50,,,,,,,,,,,,,,,,,,,,
,,,,,50,2020-07-04_10h11.16.900,retriever_ti,2020.1.3,Win32,60,Chrome,2560,1440,,,,,,,,,,,,,,,,,2,,,,,,,,,,,,,,,,,,,,,,,,,,,736.79297,154,right,1.051875,calculator    ,6,9,2,1,3,736.80837,736.80837,739.3224,0,76,76,76,1,154,4,6,dress         ,calculator    ,html/resources/sequences_IDs/A/07_dress.jpg,html/resources/sequences_IDs/A/09_calculator.jpg,7,9,3,2,4,2,6,8,0,50,,,,,,,,,,,,,,,,,,,,
,,,,,50,2020-07-04_10h11.16.900,retriever_ti,2020.1.3,Win32,60,Chrome,2560,1440,,,,,,,,,,,,,,,,,,,,,,,,,,,,,,,,,,,,,0,2.09552,,,,,,,,,,,,,,,,,,,,,,,,,,,,,,,,,,,,,,,,,1,0,1,0,1,,,,,,,,,,,,,,,
,,,,,50,2020-07-04_10h11.16.900,retriever_ti,2020.1.3,Win32,60,Chrome,2560,1440,,,,,,,,,,,,,,,,,3,,,,,,,,,,,,,,,,,,,,,,,,,,,753.028245,155,left,0.646505,calculator    ,6,9,-2,0,3,753.05615,753.05615,755.56561,0,0,0,0,1,155,6,8,calculator    ,peacock       ,html/resources/sequences_IDs/A/09_calculator.jpg,html/resources/sequences_IDs/A/05_peacock.jpg,9,5,4,2,2,1,8,4,0,50,,,,,,,,,,,,,,,,,,,,
,,,,,50,2020-07-04_10h11.16.900,retriever_ti,2020.1.3,Win32,60,Chrome,2560,1440,,,,,,,,,,,,,,,,,3,,,,,,,,,,,,,,,,,,,,,,,,,,,756.19419,156,left,0.917575,holdfast    ,5,4,3,1,3,756.232855,756.232855,758.74823,0,1,1,1,1,156,5,2,holdfast    ,seaturtle     ,html/resources/sequences_IDs/B/04_holdfast.jpg,html/resources/sequences_IDs/A/02_seaturtle.jpg,4,2,2,1,2,1,3,2,0,50,,,,,,,,,,,,,,,,,,,,
,,,,,50,2020-07-04_10h11.16.900,retriever_ti,2020.1.3,Win32,60,Chrome,2560,1440,,,,,,,,,,,,,,,,,3,,,,,,,,,,,,,,,,,,,,,,,,,,,759.36142,157,left,0.659205,peacock       ,8,5,3,1,3,759.39477,759.39477,761.90435,0,2,2,2,1,157,8,5,peacock       ,holdfast    ,html/resources/sequences_IDs/A/05_peacock.jpg,html/resources/sequences_IDs/B/04_holdfast.jpg,5,4,2,1,2,1,4,3,0,50,,,,,,,,,,,,,,,,,,,,
,,,,,50,2020-07-04_10h11.16.900,retriever_ti,2020.1.3,Win32,60,Chrome,2560,1440,,,,,,,,,,,,,,,,,3,,,,,,,,,,,,,,,,,,,,,,,,,,,762.50653,158,left,1.53353,gloves      ,3,6,-1,0,0,762.55888,762.55888,765.063265,0,3,3,3,1,158,3,4,gloves      ,dress         ,html/resources/sequences_IDs/B/06_gloves.jpg,html/resources/sequences_IDs/A/07_dress.jpg,6,7,3,2,3,2,5,6,0,50,,,,,,,,,,,,,,,,,,,,
,,,,,50,2020-07-04_10h11.16.900,retriever_ti,2020.1.3,Win32,60,Chrome,2560,1440,,,,,,,,,,,,,,,,,3,,,,,,,,,,,,,,,,,,,,,,,,,,,766.15722,159,left,0.93489,redfox      ,1,1,-2,0,3,766.187595,766.187595,768.68716,0,4,4,4,1,159,1,3,redfox      ,gloves      ,html/resources/sequences_IDs/B/01_redfox.jpg,html/resources/sequences_IDs/B/06_gloves.jpg,1,6,1,1,3,2,1,5,0,50,,,,,,,,,,,,,,,,,,,,
,,,,,50,2020-07-04_10h11.16.900,retriever_ti,2020.1.3,Win32,60,Chrome,2560,1440,,,,,,,,,,,,,,,,,3,,,,,,,,,,,,,,,,,,,,,,,,,,,769.29866,160,right,0.586005,dress         ,4,7,-1,0,0,769.312525,769.312525,771.80124,0,5,5,5,1,160,5,4,holdfast    ,dress         ,html/resources/sequences_IDs/B/04_holdfast.jpg,html/resources/sequences_IDs/A/07_dress.jpg,4,7,2,1,3,2,3,6,0,50,,,,,,,,,,,,,,,,,,,,
,,,,,50,2020-07-04_10h11.16.900,retriever_ti,2020.1.3,Win32,60,Chrome,2560,1440,,,,,,,,,,,,,,,,,3,,,,,,,,,,,,,,,,,,,,,,,,,,,772.895185,161,left,0.88488,slipper     ,7,8,1,1,1,772.9276,772.9276,775.425315,0,6,6,6,1,161,7,6,slipper     ,calculator    ,html/resources/sequences_IDs/B/08_slipper.jpg,html/resources/sequences_IDs/A/09_calculator.jpg,8,9,3,2,4,2,7,8,0,50,,,,,,,,,,,,,,,,,,,,
,,,,,50,2020-07-04_10h11.16.900,retriever_ti,2020.1.3,Win32,60,Chrome,2560,1440,,,,,,,,,,,,,,,,,3,,,,,,,,,,,,,,,,,,,,,,,,,,,776.51523,162,right,0.883265,calculator    ,6,9,4,1,3,776.54694,776.54694,779.043935,0,7,7,7,1,162,2,6,seaturtle     ,calculator    ,html/resources/sequences_IDs/A/02_seaturtle.jpg,html/resources/sequences_IDs/A/09_calculator.jpg,2,9,2,1,4,2,2,8,0,50,,,,,,,,,,,,,,,,,,,,
,,,,,50,2020-07-04_10h11.16.900,retriever_ti,2020.1.3,Win32,60,Chrome,2560,1440,,,,,,,,,,,,,,,,,3,,,,,,,,,,,,,,,,,,,,,,,,,,,779.65358,163,right,0.63092,holdfast    ,5,4,4,1,3,779.693075,779.693075,782.18932,0,8,8,8,1,163,1,5,redfox      ,holdfast    ,html/resources/sequences_IDs/B/01_redfox.jpg,html/resources/sequences_IDs/B/04_holdfast.jpg,1,4,1,1,2,1,1,3,0,50,,,,,,,,,,,,,,,,,,,,
,,,,,50,2020-07-04_10h11.16.900,retriever_ti,2020.1.3,Win32,60,Chrome,2560,1440,,,,,,,,,,,,,,,,,3,,,,,,,,,,,,,,,,,,,,,,,,,,,782.821235,164,right,2.392325,redfox      ,1,1,-7,0,3,782.85479,782.85479,785.34185,0,9,9,9,1,164,8,1,peacock       ,redfox      ,html/resources/sequences_IDs/A/05_peacock.jpg,html/resources/sequences_IDs/B/01_redfox.jpg,5,1,2,1,1,1,4,1,0,50,,,,,,,,,,,,,,,,,,,,
,,,,,50,2020-07-04_10h11.16.900,retriever_ti,2020.1.3,Win32,60,Chrome,2560,1440,,,,,,,,,,,,,,,,,3,,,,,,,,,,,,,,,,,,,,,,,,,,,785.94895,165,left,0.741985,redfox      ,1,1,-7,0,3,785.983665,785.983665,788.477915,0,10,10,10,1,165,1,8,redfox      ,peacock       ,html/resources/sequences_IDs/B/01_redfox.jpg,html/resources/sequences_IDs/A/05_peacock.jpg,1,5,1,1,2,1,1,4,0,50,,,,,,,,,,,,,,,,,,,,
,,,,,50,2020-07-04_10h11.16.900,retriever_ti,2020.1.3,Win32,60,Chrome,2560,1440,,,,,,,,,,,,,,,,,3,,,,,,,,,,,,,,,,,,,,,,,,,,,789.08244,166,left,1.17736,calculator    ,6,9,5,1,3,789.103555,789.103555,791.600205,0,11,11,11,1,166,6,1,calculator    ,redfox      ,html/resources/sequences_IDs/A/09_calculator.jpg,html/resources/sequences_IDs/B/01_redfox.jpg,9,1,4,2,1,1,8,1,0,50,,,,,,,,,,,,,,,,,,,,
,,,,,50,2020-07-04_10h11.16.900,retriever_ti,2020.1.3,Win32,60,Chrome,2560,1440,,,,,,,,,,,,,,,,,3,,,,,,,,,,,,,,,,,,,,,,,,,,,792.20925,167,right,0.81272,gloves      ,3,6,-4,0,3,792.23704,792.23704,794.732085,0,12,12,12,1,167,7,3,slipper     ,gloves      ,html/resources/sequences_IDs/B/08_slipper.jpg,html/resources/sequences_IDs/B/06_gloves.jpg,8,6,3,2,3,2,7,5,0,50,,,,,,,,,,,,,,,,,,,,
,,,,,50,2020-07-04_10h11.16.900,retriever_ti,2020.1.3,Win32,60,Chrome,2560,1440,,,,,,,,,,,,,,,,,3,,,,,,,,,,,,,,,,,,,,,,,,,,,795.3356,168,left,1.28363,calculator    ,6,9,1,1,1,795.348515,795.348515,797.846715,0,13,13,13,1,168,6,5,calculator    ,holdfast    ,html/resources/sequences_IDs/A/09_calculator.jpg,html/resources/sequences_IDs/B/04_holdfast.jpg,9,4,4,2,2,1,8,3,0,50,,,,,,,,,,,,,,,,,,,,
,,,,,50,2020-07-04_10h11.16.900,retriever_ti,2020.1.3,Win32,60,Chrome,2560,1440,,,,,,,,,,,,,,,,,3,,,,,,,,,,,,,,,,,,,,,,,,,,,798.94113,169,left,0.685315,peacock       ,8,5,1,1,1,798.954135,798.954135,801.45832,0,14,14,14,1,169,8,7,peacock       ,slipper     ,html/resources/sequences_IDs/A/05_peacock.jpg,html/resources/sequences_IDs/B/08_slipper.jpg,5,8,2,1,3,2,4,7,0,50,,,,,,,,,,,,,,,,,,,,
,,,,,50,2020-07-04_10h11.16.900,retriever_ti,2020.1.3,Win32,60,Chrome,2560,1440,,,,,,,,,,,,,,,,,3,,,,,,,,,,,,,,,,,,,,,,,,,,,802.552265,170,left,0.80204,gloves      ,3,6,-1,0,1,802.59795,802.59795,805.094325,0,15,15,15,1,170,3,4,gloves      ,dress         ,html/resources/sequences_IDs/B/06_gloves.jpg,html/resources/sequences_IDs/A/07_dress.jpg,6,7,3,2,3,2,5,6,1,50,,,,,,,,,,,,,,,,,,,,
,,,,,50,2020-07-04_10h11.16.900,retriever_ti,2020.1.3,Win32,60,Chrome,2560,1440,,,,,,,,,,,,,,,,,3,,,,,,,,,,,,,,,,,,,,,,,,,,,806.18508,171,right,0.65829,gloves      ,3,6,-1,0,0,806.22231,806.22231,808.7095,0,16,16,16,1,171,4,3,dress         ,gloves      ,html/resources/sequences_IDs/A/07_dress.jpg,html/resources/sequences_IDs/B/06_gloves.jpg,7,6,3,2,3,2,6,5,0,50,,,,,,,,,,,,,,,,,,,,
,,,,,50,2020-07-04_10h11.16.900,retriever_ti,2020.1.3,Win32,60,Chrome,2560,1440,,,,,,,,,,,,,,,,,3,,,,,,,,,,,,,,,,,,,,,,,,,,,809.80555,172,left,1.140665,peacock       ,8,5,2,1,3,809.828385,809.828385,812.32405,0,17,17,17,1,172,8,6,peacock       ,calculator    ,html/resources/sequences_IDs/A/05_peacock.jpg,html/resources/sequences_IDs/A/09_calculator.jpg,5,9,2,1,4,2,4,8,0,50,,,,,,,,,,,,,,,,,,,,
,,,,,50,2020-07-04_10h11.16.900,retriever_ti,2020.1.3,Win32,60,Chrome,2560,1440,,,,,,,,,,,,,,,,,3,,,,,,,,,,,,,,,,,,,,,,,,,,,812.949755,173,right,1.100935,calculator    ,6,9,5,1,3,812.96361,812.96361,815.45992,0,18,18,18,1,173,1,6,redfox      ,calculator    ,html/resources/sequences_IDs/B/01_redfox.jpg,html/resources/sequences_IDs/A/09_calculator.jpg,1,9,1,1,4,2,1,8,0,50,,,,,,,,,,,,,,,,,,,,
,,,,,50,2020-07-04_10h11.16.900,retriever_ti,2020.1.3,Win32,60,Chrome,2560,1440,,,,,,,,,,,,,,,,,3,,,,,,,,,,,,,,,,,,,,,,,,,,,816.084735,174,right,1.030005,gloves      ,3,6,1,1,1,816.114795,816.114795,818.606685,0,19,19,19,1,174,2,3,seaturtle     ,gloves      ,html/resources/sequences_IDs/A/02_seaturtle.jpg,html/resources/sequences_IDs/B/06_gloves.jpg,2,6,2,1,3,2,2,5,0,50,,,,,,,,,,,,,,,,,,,,
,,,,,50,2020-07-04_10h11.16.900,retriever_ti,2020.1.3,Win32,60,Chrome,2560,1440,,,,,,,,,,,,,,,,,3,,,,,,,,,,,,,,,,,,,,,,,,,,,819.705155,175,right,0.86523,seaturtle     ,2,2,-5,0,3,819.724015,819.724015,822.21829,0,20,20,20,1,175,7,2,slipper     ,seaturtle     ,html/resources/sequences_IDs/B/08_slipper.jpg,html/resources/sequences_IDs/A/02_seaturtle.jpg,8,2,3,2,2,1,7,2,0,50,,,,,,,,,,,,,,,,,,,,
,,,,,50,2020-07-04_10h11.16.900,retriever_ti,2020.1.3,Win32,60,Chrome,2560,1440,,,,,,,,,,,,,,,,,3,,,,,,,,,,,,,,,,,,,,,,,,,,,822.83006,176,left,1.00365,slipper     ,7,8,-1,0,0,822.850925,822.850925,825.348385,0,21,21,21,1,176,7,8,slipper     ,peacock       ,html/resources/sequences_IDs/B/08_slipper.jpg,html/resources/sequences_IDs/A/05_peacock.jpg,8,5,3,2,2,1,7,4,0,50,,,,,,,,,,,,,,,,,,,,
,,,,,50,2020-07-04_10h11.16.900,retriever_ti,2020.1.3,Win32,60,Chrome,2560,1440,,,,,,,,,,,,,,,,,3,,,,,,,,,,,,,,,,,,,,,,,,,,,826.44526,177,right,0.98582,slipper     ,7,8,2,1,3,826.460195,826.460195,828.95652,0,22,22,22,1,177,5,7,holdfast    ,slipper     ,html/resources/sequences_IDs/B/04_holdfast.jpg,html/resources/sequences_IDs/B/08_slipper.jpg,4,8,2,1,3,2,3,7,0,50,,,,,,,,,,,,,,,,,,,,
,,,,,50,2020-07-04_10h11.16.900,retriever_ti,2020.1.3,Win32,60,Chrome,2560,1440,,,,,,,,,,,,,,,,,3,,,,,,,,,,,,,,,,,,,,,,,,,,,829.570365,178,right,1.017235,seaturtle     ,2,2,1,1,1,829.580325,829.580325,832.0895,0,23,23,23,1,178,1,2,redfox      ,seaturtle     ,html/resources/sequences_IDs/B/01_redfox.jpg,html/resources/sequences_IDs/A/02_seaturtle.jpg,1,2,1,1,2,1,1,2,0,50,,,,,,,,,,,,,,,,,,,,
,,,,,50,2020-07-04_10h11.16.900,retriever_ti,2020.1.3,Win32,60,Chrome,2560,1440,,,,,,,,,,,,,,,,,3,,,,,,,,,,,,,,,,,,,,,,,,,,,833.18552,179,right,1.050835,gloves      ,3,6,-1,0,0,833.224415,833.224415,835.729995,0,24,24,24,1,179,4,3,dress         ,gloves      ,html/resources/sequences_IDs/A/07_dress.jpg,html/resources/sequences_IDs/B/06_gloves.jpg,7,6,3,2,3,2,6,5,0,50,,,,,,,,,,,,,,,,,,,,
,,,,,50,2020-07-04_10h11.16.900,retriever_ti,2020.1.3,Win32,60,Chrome,2560,1440,,,,,,,,,,,,,,,,,3,,,,,,,,,,,,,,,,,,,,,,,,,,,836.82355,180,left,0.545495,dress         ,4,7,-1,0,0,836.85389,836.85389,839.355805,0,25,25,25,1,180,4,5,dress         ,holdfast    ,html/resources/sequences_IDs/A/07_dress.jpg,html/resources/sequences_IDs/B/04_holdfast.jpg,7,4,3,2,2,1,6,3,0,50,,,,,,,,,,,,,,,,,,,,
,,,,,50,2020-07-04_10h11.16.900,retriever_ti,2020.1.3,Win32,60,Chrome,2560,1440,,,,,,,,,,,,,,,,,3,,,,,,,,,,,,,,,,,,,,,,,,,,,840.46897,181,left,0.989815,redfox      ,1,1,-6,0,3,840.510655,840.510655,843.00837,0,26,26,26,1,181,1,7,redfox      ,slipper     ,html/resources/sequences_IDs/B/01_redfox.jpg,html/resources/sequences_IDs/B/08_slipper.jpg,1,8,1,1,3,2,1,7,0,50,,,,,,,,,,,,,,,,,,,,
,,,,,50,2020-07-04_10h11.16.900,retriever_ti,2020.1.3,Win32,60,Chrome,2560,1440,,,,,,,,,,,,,,,,,3,,,,,,,,,,,,,,,,,,,,,,,,,,,843.634485,182,right,0.95889,dress         ,4,7,-1,0,1,843.660615,843.660615,846.163255,0,27,27,27,1,182,5,4,holdfast    ,dress         ,html/resources/sequences_IDs/B/04_holdfast.jpg,html/resources/sequences_IDs/A/07_dress.jpg,4,7,2,1,3,2,3,6,1,50,,,,,,,,,,,,,,,,,,,,
,,,,,50,2020-07-04_10h11.16.900,retriever_ti,2020.1.3,Win32,60,Chrome,2560,1440,,,,,,,,,,,,,,,,,3,,,,,,,,,,,,,,,,,,,,,,,,,,,847.257675,183,left,0.772975,gloves      ,3,6,-5,0,3,847.27124,847.27124,849.767815,0,28,28,28,1,183,3,8,gloves      ,peacock       ,html/resources/sequences_IDs/B/06_gloves.jpg,html/resources/sequences_IDs/A/05_peacock.jpg,6,5,3,2,2,1,5,4,0,50,,,,,,,,,,,,,,,,,,,,
,,,,,50,2020-07-04_10h11.16.900,retriever_ti,2020.1.3,Win32,60,Chrome,2560,1440,,,,,,,,,,,,,,,,,3,,,,,,,,,,,,,,,,,,,,,,,,,,,850.37303,184,left,0.82998,redfox      ,1,1,-1,0,1,850.38557,850.38557,852.882515,0,29,29,29,1,184,1,2,redfox      ,seaturtle     ,html/resources/sequences_IDs/B/01_redfox.jpg,html/resources/sequences_IDs/A/02_seaturtle.jpg,1,2,1,1,2,1,1,2,1,50,,,,,,,,,,,,,,,,,,,,
,,,,,50,2020-07-04_10h11.16.900,retriever_ti,2020.1.3,Win32,60,Chrome,2560,1440,,,,,,,,,,,,,,,,,3,,,,,,,,,,,,,,,,,,,,,,,,,,,853.98247,185,right,1.34247,dress         ,4,7,-1,0,0,854.01137,854.01137,856.505235,0,30,30,30,1,185,5,4,holdfast    ,dress         ,html/resources/sequences_IDs/B/04_holdfast.jpg,html/resources/sequences_IDs/A/07_dress.jpg,4,7,2,1,3,2,3,6,0,50,,,,,,,,,,,,,,,,,,,,
,,,,,50,2020-07-04_10h11.16.900,retriever_ti,2020.1.3,Win32,60,Chrome,2560,1440,,,,,,,,,,,,,,,,,3,,,,,,,,,,,,,,,,,,,,,,,,,,,857.603565,186,left,1.348235,gloves      ,3,6,-2,0,3,857.627505,857.627505,860.12071,0,31,31,31,1,186,3,5,gloves      ,holdfast    ,html/resources/sequences_IDs/B/06_gloves.jpg,html/resources/sequences_IDs/B/04_holdfast.jpg,6,4,3,2,2,1,5,3,0,50,,,,,,,,,,,,,,,,,,,,
,,,,,50,2020-07-04_10h11.16.900,retriever_ti,2020.1.3,Win32,60,Chrome,2560,1440,,,,,,,,,,,,,,,,,3,,,,,,,,,,,,,,,,,,,,,,,,,,,860.726365,187,left,0.745965,calculator    ,6,9,-1,0,0,860.739325,860.739325,863.230675,0,32,32,32,1,187,6,7,calculator    ,slipper     ,html/resources/sequences_IDs/A/09_calculator.jpg,html/resources/sequences_IDs/B/08_slipper.jpg,9,8,4,2,3,2,8,7,0,50,,,,,,,,,,,,,,,,,,,,
,,,,,50,2020-07-04_10h11.16.900,retriever_ti,2020.1.3,Win32,60,Chrome,2560,1440,,,,,,,,,,,,,,,,,3,,,,,,,,,,,,,,,,,,,,,,,,,,,864.320665,188,left,0.752875,dress         ,4,7,3,1,3,864.360045,864.360045,866.856445,0,33,33,33,1,188,4,1,dress         ,redfox      ,html/resources/sequences_IDs/A/07_dress.jpg,html/resources/sequences_IDs/B/01_redfox.jpg,7,1,3,2,1,1,6,1,0,50,,,,,,,,,,,,,,,,,,,,
,,,,,50,2020-07-04_10h11.16.900,retriever_ti,2020.1.3,Win32,60,Chrome,2560,1440,,,,,,,,,,,,,,,,,3,,,,,,,,,,,,,,,,,,,,,,,,,,,867.464375,189,left,0.81508,gloves      ,3,6,-4,0,3,867.475445,867.475445,869.96354,0,34,34,34,1,189,3,7,gloves      ,slipper     ,html/resources/sequences_IDs/B/06_gloves.jpg,html/resources/sequences_IDs/B/08_slipper.jpg,6,8,3,2,3,2,5,7,0,50,,,,,,,,,,,,,,,,,,,,
,,,,,50,2020-07-04_10h11.16.900,retriever_ti,2020.1.3,Win32,60,Chrome,2560,1440,,,,,,,,,,,,,,,,,3,,,,,,,,,,,,,,,,,,,,,,,,,,,870.5722,190,right,0.959765,peacock       ,8,5,3,1,3,870.61246,870.61246,873.10243,0,35,35,35,1,190,5,8,holdfast    ,peacock       ,html/resources/sequences_IDs/B/04_holdfast.jpg,html/resources/sequences_IDs/A/05_peacock.jpg,4,5,2,1,2,1,3,4,0,50,,,,,,,,,,,,,,,,,,,,
,,,,,50,2020-07-04_10h11.16.900,retriever_ti,2020.1.3,Win32,60,Chrome,2560,1440,,,,,,,,,,,,,,,,,3,,,,,,,,,,,,,,,,,,,,,,,,,,,873.72266,191,left,1.024205,peacock       ,8,5,1,1,1,873.74419,873.74419,876.23216,0,36,36,36,1,191,8,7,peacock       ,slipper     ,html/resources/sequences_IDs/A/05_peacock.jpg,html/resources/sequences_IDs/B/08_slipper.jpg,5,8,2,1,3,2,4,7,0,50,,,,,,,,,,,,,,,,,,,,
,,,,,50,2020-07-04_10h11.16.900,retriever_ti,2020.1.3,Win32,60,Chrome,2560,1440,,,,,,,,,,,,,,,,,3,,,,,,,,,,,,,,,,,,,,,,,,,,,877.323005,192,left,1.266105,gloves      ,3,6,-3,0,3,877.35269,877.35269,879.847875,0,37,37,37,1,192,3,6,gloves      ,calculator    ,html/resources/sequences_IDs/B/06_gloves.jpg,html/resources/sequences_IDs/A/09_calculator.jpg,6,9,3,2,4,2,5,8,0,50,,,,,,,,,,,,,,,,,,,,
,,,,,50,2020-07-04_10h11.16.900,retriever_ti,2020.1.3,Win32,60,Chrome,2560,1440,,,,,,,,,,,,,,,,,3,,,,,,,,,,,,,,,,,,,,,,,,,,,880.467835,193,left,1.44667,slipper     ,7,8,2,1,3,880.50359,880.50359,883.00095,0,38,38,38,1,193,7,5,slipper     ,holdfast    ,html/resources/sequences_IDs/B/08_slipper.jpg,html/resources/sequences_IDs/B/04_holdfast.jpg,8,4,3,2,2,1,7,3,0,50,,,,,,,,,,,,,,,,,,,,
,,,,,50,2020-07-04_10h11.16.900,retriever_ti,2020.1.3,Win32,60,Chrome,2560,1440,,,,,,,,,,,,,,,,,3,,,,,,,,,,,,,,,,,,,,,,,,,,,883.61582,194,left,0.909385,calculator    ,6,9,-1,0,0,883.65907,883.65907,886.153145,0,39,39,39,1,194,6,7,calculator    ,slipper     ,html/resources/sequences_IDs/A/09_calculator.jpg,html/resources/sequences_IDs/B/08_slipper.jpg,9,8,4,2,3,2,8,7,0,50,,,,,,,,,,,,,,,,,,,,
,,,,,50,2020-07-04_10h11.16.900,retriever_ti,2020.1.3,Win32,60,Chrome,2560,1440,,,,,,,,,,,,,,,,,3,,,,,,,,,,,,,,,,,,,,,,,,,,,887.24467,195,right,1.143425,calculator    ,6,9,2,1,3,887.263265,887.263265,889.75297,0,40,40,40,1,195,4,6,dress         ,calculator    ,html/resources/sequences_IDs/A/07_dress.jpg,html/resources/sequences_IDs/A/09_calculator.jpg,7,9,3,2,4,2,6,8,0,50,,,,,,,,,,,,,,,,,,,,
,,,,,50,2020-07-04_10h11.16.900,retriever_ti,2020.1.3,Win32,60,Chrome,2560,1440,,,,,,,,,,,,,,,,,3,,,,,,,,,,,,,,,,,,,,,,,,,,,890.364555,196,left,1.15246,seaturtle     ,2,2,1,1,1,890.391045,890.391045,892.88493,0,41,41,41,1,196,2,1,seaturtle     ,redfox      ,html/resources/sequences_IDs/A/02_seaturtle.jpg,html/resources/sequences_IDs/B/01_redfox.jpg,2,1,2,1,1,1,2,1,0,50,,,,,,,,,,,,,,,,,,,,
,,,,,50,2020-07-04_10h11.16.900,retriever_ti,2020.1.3,Win32,60,Chrome,2560,1440,,,,,,,,,,,,,,,,,3,,,,,,,,,,,,,,,,,,,,,,,,,,,893.97532,197,left,1.119605,redfox      ,1,1,-3,0,3,894.00266,894.00266,896.493065,0,42,42,42,1,197,1,4,redfox      ,dress         ,html/resources/sequences_IDs/B/01_redfox.jpg,html/resources/sequences_IDs/A/07_dress.jpg,1,7,1,1,3,2,1,6,0,50,,,,,,,,,,,,,,,,,,,,
,,,,,50,2020-07-04_10h11.16.900,retriever_ti,2020.1.3,Win32,60,Chrome,2560,1440,,,,,,,,,,,,,,,,,3,,,,,,,,,,,,,,,,,,,,,,,,,,,897.106,198,right,1.2872,holdfast    ,5,4,1,1,1,897.11844,897.11844,899.615155,0,43,43,43,1,198,4,5,dress         ,holdfast    ,html/resources/sequences_IDs/A/07_dress.jpg,html/resources/sequences_IDs/B/04_holdfast.jpg,7,4,3,2,2,1,6,3,0,50,,,,,,,,,,,,,,,,,,,,
,,,,,50,2020-07-04_10h11.16.900,retriever_ti,2020.1.3,Win32,60,Chrome,2560,1440,,,,,,,,,,,,,,,,,3,,,,,,,,,,,,,,,,,,,,,,,,,,,900.71223,199,left,1.22136,gloves      ,3,6,1,1,1,900.73878,900.73878,903.229555,0,44,44,44,1,199,3,2,gloves      ,seaturtle     ,html/resources/sequences_IDs/B/06_gloves.jpg,html/resources/sequences_IDs/A/02_seaturtle.jpg,6,2,3,2,2,1,5,2,0,50,,,,,,,,,,,,,,,,,,,,
,,,,,50,2020-07-04_10h11.16.900,retriever_ti,2020.1.3,Win32,60,Chrome,2560,1440,,,,,,,,,,,,,,,,,3,,,,,,,,,,,,,,,,,,,,,,,,,,,904.330505,200,right,0.968315,calculator    ,6,9,-1,0,1,904.34627,904.34627,906.8351,0,45,45,45,1,200,7,6,slipper     ,calculator    ,html/resources/sequences_IDs/B/08_slipper.jpg,html/resources/sequences_IDs/A/09_calculator.jpg,8,9,3,2,4,2,7,8,1,50,,,,,,,,,,,,,,,,,,,,
,,,,,50,2020-07-04_10h11.16.900,retriever_ti,2020.1.3,Win32,60,Chrome,2560,1440,,,,,,,,,,,,,,,,,3,,,,,,,,,,,,,,,,,,,,,,,,,,,907.93499,201,right,1.442345,gloves      ,3,6,-5,0,3,907.946275,907.946275,910.43606,0,46,46,46,1,201,8,3,peacock       ,gloves      ,html/resources/sequences_IDs/A/05_peacock.jpg,html/resources/sequences_IDs/B/06_gloves.jpg,5,6,2,1,3,2,4,5,0,50,,,,,,,,,,,,,,,,,,,,
,,,,,50,2020-07-04_10h11.16.900,retriever_ti,2020.1.3,Win32,60,Chrome,2560,1440,,,,,,,,,,,,,,,,,3,,,,,,,,,,,,,,,,,,,,,,,,,,,911.042145,202,right,0.927405,seaturtle     ,2,2,-2,0,3,911.074525,911.074525,913.570745,0,47,47,47,1,202,4,2,dress         ,seaturtle     ,html/resources/sequences_IDs/A/07_dress.jpg,html/resources/sequences_IDs/A/02_seaturtle.jpg,7,2,3,2,2,1,6,2,0,50,,,,,,,,,,,,,,,,,,,,
,,,,,50,2020-07-04_10h11.16.900,retriever_ti,2020.1.3,Win32,60,Chrome,2560,1440,,,,,,,,,,,,,,,,,3,,,,,,,,,,,,,,,,,,,,,,,,,,,914.18273,203,right,1.21929,slipper     ,7,8,5,1,3,914.21207,914.21207,916.710075,0,48,48,48,1,203,2,7,seaturtle     ,slipper     ,html/resources/sequences_IDs/A/02_seaturtle.jpg,html/resources/sequences_IDs/B/08_slipper.jpg,2,8,2,1,3,2,2,7,0,50,,,,,,,,,,,,,,,,,,,,
,,,,,50,2020-07-04_10h11.16.900,retriever_ti,2020.1.3,Win32,60,Chrome,2560,1440,,,,,,,,,,,,,,,,,3,,,,,,,,,,,,,,,,,,,,,,,,,,,917.31542,204,right,1.14887,gloves      ,3,6,-2,0,3,917.3367,917.3367,919.84418,0,49,49,49,1,204,5,3,holdfast    ,gloves      ,html/resources/sequences_IDs/B/04_holdfast.jpg,html/resources/sequences_IDs/B/06_gloves.jpg,4,6,2,1,3,2,3,5,0,50,,,,,,,,,,,,,,,,,,,,
,,,,,50,2020-07-04_10h11.16.900,retriever_ti,2020.1.3,Win32,60,Chrome,2560,1440,,,,,,,,,,,,,,,,,3,,,,,,,,,,,,,,,,,,,,,,,,,,,920.45655,205,right,1.267455,seaturtle     ,2,2,-1,0,0,920.48532,920.48532,922.98427,0,50,50,50,1,205,3,2,gloves      ,seaturtle     ,html/resources/sequences_IDs/B/06_gloves.jpg,html/resources/sequences_IDs/A/02_seaturtle.jpg,6,2,3,2,2,1,5,2,0,50,,,,,,,,,,,,,,,,,,,,
,,,,,50,2020-07-04_10h11.16.900,retriever_ti,2020.1.3,Win32,60,Chrome,2560,1440,,,,,,,,,,,,,,,,,3,,,,,,,,,,,,,,,,,,,,,,,,,,,924.07274,206,left,1.237595,redfox      ,1,1,-1,0,0,924.119475,924.119475,926.609135,0,51,51,51,1,206,1,2,redfox      ,seaturtle     ,html/resources/sequences_IDs/B/01_redfox.jpg,html/resources/sequences_IDs/A/02_seaturtle.jpg,1,2,1,1,2,1,1,2,0,50,,,,,,,,,,,,,,,,,,,,
,,,,,50,2020-07-04_10h11.16.900,retriever_ti,2020.1.3,Win32,60,Chrome,2560,1440,,,,,,,,,,,,,,,,,3,,,,,,,,,,,,,,,,,,,,,,,,,,,927.71122,207,right,1.339415,calculator    ,6,9,1,1,1,927.732825,927.732825,930.22609,0,52,52,52,1,207,5,6,holdfast    ,calculator    ,html/resources/sequences_IDs/B/04_holdfast.jpg,html/resources/sequences_IDs/A/09_calculator.jpg,4,9,2,1,4,2,3,8,0,50,,,,,,,,,,,,,,,,,,,,
,,,,,50,2020-07-04_10h11.16.900,retriever_ti,2020.1.3,Win32,60,Chrome,2560,1440,,,,,,,,,,,,,,,,,3,,,,,,,,,,,,,,,,,,,,,,,,,,,931.32743,208,left,1.753745,peacock       ,8,5,4,1,3,931.341145,931.341145,933.835895,0,53,53,53,1,208,8,4,peacock       ,dress         ,html/resources/sequences_IDs/A/05_peacock.jpg,html/resources/sequences_IDs/A/07_dress.jpg,5,7,2,1,3,2,4,6,0,50,,,,,,,,,,,,,,,,,,,,
,,,,,50,2020-07-04_10h11.16.900,retriever_ti,2020.1.3,Win32,60,Chrome,2560,1440,,,,,,,,,,,,,,,,,3,,,,,,,,,,,,,,,,,,,,,,,,,,,934.445735,209,right,1.74434,gloves      ,3,6,1,1,1,934.457845,934.457845,936.94509,0,54,54,54,1,209,2,3,seaturtle     ,gloves      ,html/resources/sequences_IDs/A/02_seaturtle.jpg,html/resources/sequences_IDs/B/06_gloves.jpg,2,6,2,1,3,2,2,5,0,50,,,,,,,,,,,,,,,,,,,,
,,,,,50,2020-07-04_10h11.16.900,retriever_ti,2020.1.3,Win32,60,Chrome,2560,1440,,,,,,,,,,,,,,,,,3,,,,,,,,,,,,,,,,,,,,,,,,,,,938.039915,210,left,0.688875,peacock       ,8,5,1,1,0,938.083145,938.083145,940.57991,0,55,55,55,1,210,8,7,peacock       ,slipper     ,html/resources/sequences_IDs/A/05_peacock.jpg,html/resources/sequences_IDs/B/08_slipper.jpg,5,8,2,1,3,2,4,7,1,50,,,,,,,,,,,,,,,,,,,,
,,,,,50,2020-07-04_10h11.16.900,retriever_ti,2020.1.3,Win32,60,Chrome,2560,1440,,,,,,,,,,,,,,,,,3,,,,,,,,,,,,,,,,,,,,,,,,,,,941.691755,211,left,0.63022,slipper     ,7,8,3,1,3,941.7384,941.7384,944.23743,0,56,56,56,1,211,7,4,slipper     ,dress         ,html/resources/sequences_IDs/B/08_slipper.jpg,html/resources/sequences_IDs/A/07_dress.jpg,8,7,3,2,3,2,7,6,0,50,,,,,,,,,,,,,,,,,,,,
,,,,,50,2020-07-04_10h11.16.900,retriever_ti,2020.1.3,Win32,60,Chrome,2560,1440,,,,,,,,,,,,,,,,,3,,,,,,,,,,,,,,,,,,,,,,,,,,,944.847815,212,right,0.48568,slipper     ,7,8,3,1,3,944.85808,944.85808,947.348265,0,57,57,57,1,212,4,7,dress         ,slipper     ,html/resources/sequences_IDs/A/07_dress.jpg,html/resources/sequences_IDs/B/08_slipper.jpg,7,8,3,2,3,2,6,7,0,50,,,,,,,,,,,,,,,,,,,,
,,,,,50,2020-07-04_10h11.16.900,retriever_ti,2020.1.3,Win32,60,Chrome,2560,1440,,,,,,,,,,,,,,,,,3,,,,,,,,,,,,,,,,,,,,,,,,,,,947.957645,213,right,1.197,gloves      ,3,6,-3,0,3,948.02128,948.02128,950.50915,0,58,58,58,1,213,6,3,calculator    ,gloves      ,html/resources/sequences_IDs/A/09_calculator.jpg,html/resources/sequences_IDs/B/06_gloves.jpg,9,6,4,2,3,2,8,5,0,50,,,,,,,,,,,,,,,,,,,,
,,,,,50,2020-07-04_10h11.16.900,retriever_ti,2020.1.3,Win32,60,Chrome,2560,1440,,,,,,,,,,,,,,,,,3,,,,,,,,,,,,,,,,,,,,,,,,,,,951.11367,214,left,0.455775,slipper     ,7,8,-1,0,0,951.14504,951.14504,953.641105,0,59,59,59,1,214,7,8,slipper     ,peacock       ,html/resources/sequences_IDs/B/08_slipper.jpg,html/resources/sequences_IDs/A/05_peacock.jpg,8,5,3,2,2,1,7,4,0,50,,,,,,,,,,,,,,,,,,,,
,,,,,50,2020-07-04_10h11.16.900,retriever_ti,2020.1.3,Win32,60,Chrome,2560,1440,,,,,,,,,,,,,,,,,3,,,,,,,,,,,,,,,,,,,,,,,,,,,954.731545,215,left,1.731875,holdfast    ,5,4,-1,0,0,954.745695,954.745695,957.23492,0,60,60,60,1,215,5,6,holdfast    ,calculator    ,html/resources/sequences_IDs/B/04_holdfast.jpg,html/resources/sequences_IDs/A/09_calculator.jpg,4,9,2,1,4,2,3,8,0,50,,,,,,,,,,,,,,,,,,,,
,,,,,50,2020-07-04_10h11.16.900,retriever_ti,2020.1.3,Win32,60,Chrome,2560,1440,,,,,,,,,,,,,,,,,3,,,,,,,,,,,,,,,,,,,,,,,,,,,958.33294,216,right,1.16739,peacock       ,8,5,4,1,3,958.34546,958.34546,960.85116,0,61,61,61,1,216,4,8,dress         ,peacock       ,html/resources/sequences_IDs/A/07_dress.jpg,html/resources/sequences_IDs/A/05_peacock.jpg,7,5,3,2,2,1,6,4,0,50,,,,,,,,,,,,,,,,,,,,
,,,,,50,2020-07-04_10h11.16.900,retriever_ti,2020.1.3,Win32,60,Chrome,2560,1440,,,,,,,,,,,,,,,,,3,,,,,,,,,,,,,,,,,,,,,,,,,,,961.453085,217,left,1.15055,slipper     ,7,8,6,1,3,961.502185,961.502185,963.99756,0,62,62,62,1,217,7,1,slipper     ,redfox      ,html/resources/sequences_IDs/B/08_slipper.jpg,html/resources/sequences_IDs/B/01_redfox.jpg,8,1,3,2,1,1,7,1,0,50,,,,,,,,,,,,,,,,,,,,
,,,,,50,2020-07-04_10h11.16.900,retriever_ti,2020.1.3,Win32,60,Chrome,2560,1440,,,,,,,,,,,,,,,,,3,,,,,,,,,,,,,,,,,,,,,,,,,,,964.604855,218,left,1.320095,seaturtle     ,2,2,-1,0,1,964.638815,964.638815,967.13691,0,63,63,63,1,218,2,3,seaturtle     ,gloves      ,html/resources/sequences_IDs/A/02_seaturtle.jpg,html/resources/sequences_IDs/B/06_gloves.jpg,2,6,2,1,3,2,2,5,1,50,,,,,,,,,,,,,,,,,,,,
,,,,,50,2020-07-04_10h11.16.900,retriever_ti,2020.1.3,Win32,60,Chrome,2560,1440,,,,,,,,,,,,,,,,,3,,,,,,,,,,,,,,,,,,,,,,,,,,,968.23471,219,left,0.928915,slipper     ,7,8,1,1,1,968.247935,968.247935,970.76873,0,64,64,64,1,219,7,6,slipper     ,calculator    ,html/resources/sequences_IDs/B/08_slipper.jpg,html/resources/sequences_IDs/A/09_calculator.jpg,8,9,3,2,4,2,7,8,0,50,,,,,,,,,,,,,,,,,,,,
,,,,,50,2020-07-04_10h11.16.900,retriever_ti,2020.1.3,Win32,60,Chrome,2560,1440,,,,,,,,,,,,,,,,,3,,,,,,,,,,,,,,,,,,,,,,,,,,,971.87149,220,right,1.34577,seaturtle     ,2,2,-4,0,3,971.913665,971.913665,974.403175,0,65,65,65,1,220,6,2,calculator    ,seaturtle     ,html/resources/sequences_IDs/A/09_calculator.jpg,html/resources/sequences_IDs/A/02_seaturtle.jpg,9,2,4,2,2,1,8,2,0,50,,,,,,,,,,,,,,,,,,,,
,,,,,50,2020-07-04_10h11.16.900,retriever_ti,2020.1.3,Win32,60,Chrome,2560,1440,,,,,,,,,,,,,,,,,3,,,,,,,,,,,,,,,,,,,,,,,,,,,975.02701,221,left,0.8617,seaturtle     ,2,2,-2,0,3,975.040075,975.040075,977.5432,0,66,66,66,1,221,2,4,seaturtle     ,dress         ,html/resources/sequences_IDs/A/02_seaturtle.jpg,html/resources/sequences_IDs/A/07_dress.jpg,2,7,2,1,3,2,2,6,0,50,,,,,,,,,,,,,,,,,,,,
,,,,,50,2020-07-04_10h11.16.900,retriever_ti,2020.1.3,Win32,60,Chrome,2560,1440,,,,,,,,,,,,,,,,,3,,,,,,,,,,,,,,,,,,,,,,,,,,,978.149405,222,left,1.15762,calculator    ,6,9,2,1,3,978.15922,978.15922,980.6487,0,67,67,67,1,222,6,4,calculator    ,dress         ,html/resources/sequences_IDs/A/09_calculator.jpg,html/resources/sequences_IDs/A/07_dress.jpg,9,7,4,2,3,2,8,6,0,50,,,,,,,,,,,,,,,,,,,,
