instructionsLoop.thisRepN,instructionsLoop.thisTrialN,instructionsLoop.thisN,instructionsLoop.thisIndex,instructionsLoop.ran,participant,date,expName,psychopyVersion,OS,frameRate,browser,xResolution,yResolution,fix_onset,tprac,practiceKey.keys,practiceKey.rt,pracitem_chosen_name,acc_practice,P1_onsetPrac,P2_onsetPrac,onsetFeedbPrac,practiceTrials.thisRepN,practiceTrials.thisTrialN,practiceTrials.thisN,practiceTrials.thisIndex,practiceTrials.ran,P1,P2,Block,LocItem1,LocItem2,NameItem1,NameItem2,key_respAC_prac.keys,key_respAC_prac.corr,key_respAC_prac.rt,AC_acc,Attentions.thisRepN,Attentions.thisTrialN,Attentions.thisN,Attentions.thisIndex,Attentions.ran,Stim,Loc1,Loc2,Loc3,Loc4,CorrAns,keyDisturbed.keys,keyDisturbed.rt,repPractice.thisRepN,repPractice.thisTrialN,repPractice.thisN,repPractice.thisIndex,repPractice.ran,fixcross_onsetMain,trialNumber,key_resp.keys,key_resp.rt,item_chosen_name,item_chosen_value,item_chosen_ID,diff_chosen_minus_reject,acc_real,acc_feedback,P1_onset,P2_onset,feedb_onset,trials.thisRepN,trials.thisTrialN,trials.thisN,trials.thisIndex,trials.ran,Trial,ValueP1,ValueP2,P1name,P2name,P1Loc,P2Loc,P1id,P2id,Micro_categoryP1,Macro_categoryP1,Micro_categoryP2,Macro_categoryP2,ID_sequenceP1,ID_sequenceP2,InverseFb,pNumber,repBlocks.thisRepN,repBlocks.thisTrialN,repBlocks.thisN,repBlocks.thisIndex,repBlocks.ran,key_respAC.keys,key_respAC.corr,key_respAC.rt,trials_AC.thisRepN,trials_AC.thisTrialN,trials_AC.thisN,trials_AC.thisIndex,trials_AC.ran,Bonus,BonusLoop.thisRepN,BonusLoop.thisTrialN,BonusLoop.thisN,BonusLoop.thisIndex,BonusLoop.ran,comments
0,0,0,0,1,51,2020-07-04_15h19.02.603,retriever_ti,2020.1.3,Win32,60,Chrome,1366,768,,,,,,,,,,,,,,,,,,,,,,,,,,,,,,,,,,,,,,,,,,,,,,,,,,,,,,,,,,,,,,,,,,,,,,,,,,,,,,,,,,,,,,,,,,,,,,,,,,
1,0,1,0,1,51,2020-07-04_15h19.02.603,retriever_ti,2020.1.3,Win32,60,Chrome,1366,768,,,,,,,,,,,,,,,,,,,,,,,,,,,,,,,,,,,,,,,,,,,,,,,,,,,,,,,,,,,,,,,,,,,,,,,,,,,,,,,,,,,,,,,,,,,,,,,,,,
2,0,2,0,1,51,2020-07-04_15h19.02.603,retriever_ti,2020.1.3,Win32,60,Chrome,1366,768,,,,,,,,,,,,,,,,,,,,,,,,,,,,,,,,,,,,,,,,,,,,,,,,,,,,,,,,,,,,,,,,,,,,,,,,,,,,,,,,,,,,,,,,,,,,,,,,,,
3,0,3,0,1,51,2020-07-04_15h19.02.603,retriever_ti,2020.1.3,Win32,60,Chrome,1366,768,,,,,,,,,,,,,,,,,,,,,,,,,,,,,,,,,,,,,,,,,,,,,,,,,,,,,,,,,,,,,,,,,,,,,,,,,,,,,,,,,,,,,,,,,,,,,,,,,,
4,0,4,0,1,51,2020-07-04_15h19.02.603,retriever_ti,2020.1.3,Win32,60,Chrome,1366,768,,,,,,,,,,,,,,,,,,,,,,,,,,,,,,,,,,,,,,,,,,,,,,,,,,,,,,,,,,,,,,,,,,,,,,,,,,,,,,,,,,,,,,,,,,,,,,,,,,
5,0,5,0,1,51,2020-07-04_15h19.02.603,retriever_ti,2020.1.3,Win32,60,Chrome,1366,768,,,,,,,,,,,,,,,,,,,,,,,,,,,,,,,,,,,,,,,,,,,,,,,,,,,,,,,,,,,,,,,,,,,,,,,,,,,,,,,,,,,,,,,,,,,,,,,,,,
6,0,6,0,1,51,2020-07-04_15h19.02.603,retriever_ti,2020.1.3,Win32,60,Chrome,1366,768,,,,,,,,,,,,,,,,,,,,,,,,,,,,,,,,,,,,,,,,,,,,,,,,,,,,,,,,,,,,,,,,,,,,,,,,,,,,,,,,,,,,,,,,,,,,,,,,,,
7,0,7,0,1,51,2020-07-04_15h19.02.603,retriever_ti,2020.1.3,Win32,60,Chrome,1366,768,,,,,,,,,,,,,,,,,,,,,,,,,,,,,,,,,,,,,,,,,,,,,,,,,,,,,,,,,,,,,,,,,,,,,,,,,,,,,,,,,,,,,,,,,,,,,,,,,,
8,0,8,0,1,51,2020-07-04_15h19.02.603,retriever_ti,2020.1.3,Win32,60,Chrome,1366,768,,,,,,,,,,,,,,,,,,,,,,,,,,,,,,,,,,,,,,,,,,,,,,,,,,,,,,,,,,,,,,,,,,,,,,,,,,,,,,,,,,,,,,,,,,,,,,,,,,
9,0,9,0,1,51,2020-07-04_15h19.02.603,retriever_ti,2020.1.3,Win32,60,Chrome,1366,768,,,,,,,,,,,,,,,,,,,,,,,,,,,,,,,,,,,,,,,,,,,,,,,,,,,,,,,,,,,,,,,,,,,,,,,,,,,,,,,,,,,,,,,,,,,,,,,,,,
10,0,10,0,1,51,2020-07-04_15h19.02.603,retriever_ti,2020.1.3,Win32,60,Chrome,1366,768,,,,,,,,,,,,,,,,,,,,,,,,,,,,,,,,,,,,,,,,,,,,,,,,,,,,,,,,,,,,,,,,,,,,,,,,,,,,,,,,,,,,,,,,,,,,,,,,,,
11,0,11,0,1,51,2020-07-04_15h19.02.603,retriever_ti,2020.1.3,Win32,60,Chrome,1366,768,,,,,,,,,,,,,,,,,,,,,,,,,,,,,,,,,,,,,,,,,,,,,,,,,,,,,,,,,,,,,,,,,,,,,,,,,,,,,,,,,,,,,,,,,,,,,,,,,,
12,0,12,0,1,51,2020-07-04_15h19.02.603,retriever_ti,2020.1.3,Win32,60,Chrome,1366,768,,,,,,,,,,,,,,,,,,,,,,,,,,,,,,,,,,,,,,,,,,,,,,,,,,,,,,,,,,,,,,,,,,,,,,,,,,,,,,,,,,,,,,,,,,,,,,,,,,
13,0,13,0,1,51,2020-07-04_15h19.02.603,retriever_ti,2020.1.3,Win32,60,Chrome,1366,768,,,,,,,,,,,,,,,,,,,,,,,,,,,,,,,,,,,,,,,,,,,,,,,,,,,,,,,,,,,,,,,,,,,,,,,,,,,,,,,,,,,,,,,,,,,,,,,,,,
14,0,14,0,1,51,2020-07-04_15h19.02.603,retriever_ti,2020.1.3,Win32,60,Chrome,1366,768,,,,,,,,,,,,,,,,,,,,,,,,,,,,,,,,,,,,,,,,,,,,,,,,,,,,,,,,,,,,,,,,,,,,,,,,,,,,,,,,,,,,,,,,,,,,,,,,,,
15,0,15,0,1,51,2020-07-04_15h19.02.603,retriever_ti,2020.1.3,Win32,60,Chrome,1366,768,,,,,,,,,,,,,,,,,,,,,,,,,,,,,,,,,,,,,,,,,,,,,,,,,,,,,,,,,,,,,,,,,,,,,,,,,,,,,,,,,,,,,,,,,,,,,,,,,,
16,0,16,0,1,51,2020-07-04_15h19.02.603,retriever_ti,2020.1.3,Win32,60,Chrome,1366,768,,,,,,,,,,,,,,,,,,,,,,,,,,,,,,,,,,,,,,,,,,,,,,,,,,,,,,,,,,,,,,,,,,,,,,,,,,,,,,,,,,,,,,,,,,,,,,,,,,
,,,,,51,2020-07-04_15h19.02.603,retriever_ti,2020.1.3,Win32,60,Chrome,1366,768,230.041735,1,right,1.74856,canary,1,230.071805,230.071805,232.558805,0,0,0,0,1,2,5,1,html/resources/stimuli_practice_decision/04_beetle.jpg,html/resources/stimuli_practice_decision/02_canary.jpg,beetle,canary,,,,,,,,,,,,,,,,,,,,,,,,,,,,,,,,,,,,,,,,,,,,,,,,,,,,,,,,,,,,,,,,,,,,,,,,,,,,,
,,,,,51,2020-07-04_15h19.02.603,retriever_ti,2020.1.3,Win32,60,Chrome,1366,768,233.367485,2,left,1.2303,rabbit,1,233.387195,233.387195,235.88384,0,1,1,1,1,4,3,1,html/resources/stimuli_practice_decision/01_rabbit.jpg,html/resources/stimuli_practice_decision/07_sock.jpg,rabbit,sock,,,,,,,,,,,,,,,,,,,,,,,,,,,,,,,,,,,,,,,,,,,,,,,,,,,,,,,,,,,,,,,,,,,,,,,,,,,,,
,,,,,51,2020-07-04_15h19.02.603,retriever_ti,2020.1.3,Win32,60,Chrome,1366,768,236.88488,3,left,1.91686,pullover,1,236.920155,236.920155,239.40548,0,2,2,2,1,6,2,1,html/resources/stimuli_practice_decision/06_pullover.jpg,html/resources/stimuli_practice_decision/04_beetle.jpg,pullover,beetle,,,,,,,,,,,,,,,,,,,,,,,,,,,,,,,,,,,,,,,,,,,,,,,,,,,,,,,,,,,,,,,,,,,,,,,,,,,,,
,,,,,51,2020-07-04_15h19.02.603,retriever_ti,2020.1.3,Win32,60,Chrome,1366,768,239.907295,4,left,1.854085,glasses,1,239.925485,239.925485,242.41336,0,3,3,3,1,7,1,1,html/resources/stimuli_practice_decision/05_glasses.jpg,html/resources/stimuli_practice_decision/08_handmixer.jpg,glasses,handmixer,,,,,,,,,,,,,,,,,,,,,,,,,,,,,,,,,,,,,,,,,,,,,,,,,,,,,,,,,,,,,,,,,,,,,,,,,,,,,
,,,,,51,2020-07-04_15h19.02.603,retriever_ti,2020.1.3,Win32,60,Chrome,1366,768,242.915685,5,left,1.293165,glasses,1,242.93333,242.93333,245.41925,0,4,4,4,1,7,6,1,html/resources/stimuli_practice_decision/05_glasses.jpg,html/resources/stimuli_practice_decision/06_pullover.jpg,glasses,pullover,,,,,,,,,,,,,,,,,,,,,,,,,,,,,,,,,,,,,,,,,,,,,,,,,,,,,,,,,,,,,,,,,,,,,,,,,,,,,
,,,,,51,2020-07-04_15h19.02.603,retriever_ti,2020.1.3,Win32,60,Chrome,1366,768,246.422705,6,right,1.025135,glasses,1,246.441085,246.441085,248.93152,0,5,5,5,1,4,7,1,html/resources/stimuli_practice_decision/01_rabbit.jpg,html/resources/stimuli_practice_decision/05_glasses.jpg,rabbit,glasses,,,,,,,,,,,,,,,,,,,,,,,,,,,,,,,,,,,,,,,,,,,,,,,,,,,,,,,,,,,,,,,,,,,,,,,,,,,,,
,,,,,51,2020-07-04_15h19.02.603,retriever_ti,2020.1.3,Win32,60,Chrome,1366,768,249.447715,7,left,0.78146,handmixer,0,249.483745,249.483745,251.966095,0,6,6,6,1,1,2,1,html/resources/stimuli_practice_decision/08_handmixer.jpg,html/resources/stimuli_practice_decision/04_beetle.jpg,handmixer,beetle,,,,,,,,,,,,,,,,,,,,,,,,,,,,,,,,,,,,,,,,,,,,,,,,,,,,,,,,,,,,,,,,,,,,,,,,,,,,,
,,,,,51,2020-07-04_15h19.02.603,retriever_ti,2020.1.3,Win32,60,Chrome,1366,768,252.969895,8,left,0.991595,rabbit,1,252.987125,252.987125,255.47425,0,7,7,7,1,4,3,1,html/resources/stimuli_practice_decision/01_rabbit.jpg,html/resources/stimuli_practice_decision/07_sock.jpg,rabbit,sock,,,,,,,,,,,,,,,,,,,,,,,,,,,,,,,,,,,,,,,,,,,,,,,,,,,,,,,,,,,,,,,,,,,,,,,,,,,,,
,,,,,51,2020-07-04_15h19.02.603,retriever_ti,2020.1.3,Win32,60,Chrome,1366,768,,,,,,,,,,,,,,,,,,,,,,left,1,2.83302,1,0,0,0,2,1,html/resources/sequences_IDs/square1.png,star ↑,triangle →,circle ↓,← square,left,,,,,,,,,,,,,,,,,,,,,,,,,,,,,,,,,,,,,,,,,,,,,,,,,,,,,,,,,,,,,,
,,,,,51,2020-07-04_15h19.02.603,retriever_ti,2020.1.3,Win32,60,Chrome,1366,768,,,,,,,,,,,,,,,,,,,,,,down,1,1.4973,1,0,1,1,3,1,html/resources/sequences_IDs/triangle.png,star ↑,square →,triangle ↓,← circle,down,,,,,,,,,,,,,,,,,,,,,,,,,,,,,,,,,,,,,,,,,,,,,,,,,,,,,,,,,,,,,,
,,,,,51,2020-07-04_15h19.02.603,retriever_ti,2020.1.3,Win32,60,Chrome,1366,768,,,,,,,,,,,,,,,,,,,,,,down,1,1.41906,1,0,2,2,1,1,html/resources/sequences_IDs/star.png,square ↑,circle →,star ↓,← triangle,down,,,,,,,,,,,,,,,,,,,,,,,,,,,,,,,,,,,,,,,,,,,,,,,,,,,,,,,,,,,,,,
,,,,,51,2020-07-04_15h19.02.603,retriever_ti,2020.1.3,Win32,60,Chrome,1366,768,,,,,,,,,,,,,,,,,,,,,,up,1,1.02096,1,0,3,3,0,1,html/resources/sequences_IDs/circle.png,circle ↑,square →,triangle ↓,← star ,up,,,,,,,,,,,,,,,,,,,,,,,,,,,,,,,,,,,,,,,,,,,,,,,,,,,,,,,,,,,,,,
,,,,,51,2020-07-04_15h19.02.603,retriever_ti,2020.1.3,Win32,60,Chrome,1366,768,,,,,,,,,,,,,,,,,,,,,,,,,,,,,,,,,,,,,0,11.24435,0,0,0,0,1,,,,,,,,,,,,,,,,,,,,,,,,,,,,,,,,,,,,,,,,,,,,,,,,,,,,,,,
,,,,,51,2020-07-04_15h19.02.603,retriever_ti,2020.1.3,Win32,60,Chrome,1366,768,281.104,9,right,1.3602,glasses,1,281.117315,281.117315,283.602945,0,0,0,0,1,6,7,1,html/resources/stimuli_practice_decision/06_pullover.jpg,html/resources/stimuli_practice_decision/05_glasses.jpg,pullover,glasses,,,,,,,,,,,,,,,,,,,,,,,,,,,,,,,,,,,,,,,,,,,,,,,,,,,,,,,,,,,,,,,,,,,,,,,,,,,,,
,,,,,51,2020-07-04_15h19.02.603,retriever_ti,2020.1.3,Win32,60,Chrome,1366,768,284.60579,10,left,0.88305,pullover,1,284.624005,284.624005,287.110515,0,1,1,1,1,6,2,1,html/resources/stimuli_practice_decision/06_pullover.jpg,html/resources/stimuli_practice_decision/04_beetle.jpg,pullover,beetle,,,,,,,,,,,,,,,,,,,,,,,,,,,,,,,,,,,,,,,,,,,,,,,,,,,,,,,,,,,,,,,,,,,,,,,,,,,,,
,,,,,51,2020-07-04_15h19.02.603,retriever_ti,2020.1.3,Win32,60,Chrome,1366,768,287.613335,11,left,2.04312,canary,0,287.64738,287.64738,290.13354,0,2,2,2,1,5,6,1,html/resources/stimuli_practice_decision/02_canary.jpg,html/resources/stimuli_practice_decision/06_pullover.jpg,canary,pullover,,,,,,,,,,,,,,,,,,,,,,,,,,,,,,,,,,,,,,,,,,,,,,,,,,,,,,,,,,,,,,,,,,,,,,,,,,,,,
,,,,,51,2020-07-04_15h19.02.603,retriever_ti,2020.1.3,Win32,60,Chrome,1366,768,291.18749,12,right,1.248275,glasses,0,291.221735,291.221735,293.70819,0,3,3,3,1,8,7,1,html/resources/stimuli_practice_decision/03_squirrel.jpg,html/resources/stimuli_practice_decision/05_glasses.jpg,squirrel,glasses,,,,,,,,,,,,,,,,,,,,,,,,,,,,,,,,,,,,,,,,,,,,,,,,,,,,,,,,,,,,,,,,,,,,,,,,,,,,,
,,,,,51,2020-07-04_15h19.02.603,retriever_ti,2020.1.3,Win32,60,Chrome,1366,768,294.711225,13,left,0.650375,canary,1,294.72945,294.72945,297.215835,0,4,4,4,1,5,3,1,html/resources/stimuli_practice_decision/02_canary.jpg,html/resources/stimuli_practice_decision/07_sock.jpg,canary,sock,,,,,,,,,,,,,,,,,,,,,,,,,,,,,,,,,,,,,,,,,,,,,,,,,,,,,,,,,,,,,,,,,,,,,,,,,,,,,
,,,,,51,2020-07-04_15h19.02.603,retriever_ti,2020.1.3,Win32,60,Chrome,1366,768,297.71851,14,right,1.115945,squirrel,1,297.7525,297.7525,300.24002,0,5,5,5,1,7,8,1,html/resources/stimuli_practice_decision/05_glasses.jpg,html/resources/stimuli_practice_decision/03_squirrel.jpg,glasses,squirrel,,,,,,,,,,,,,,,,,,,,,,,,,,,,,,,,,,,,,,,,,,,,,,,,,,,,,,,,,,,,,,,,,,,,,,,,,,,,,
,,,,,51,2020-07-04_15h19.02.603,retriever_ti,2020.1.3,Win32,60,Chrome,1366,768,301.243055,15,left,1.53642,canary,1,301.260255,301.260255,303.74674,0,6,6,6,1,5,4,1,html/resources/stimuli_practice_decision/02_canary.jpg,html/resources/stimuli_practice_decision/01_rabbit.jpg,canary,rabbit,,,,,,,,,,,,,,,,,,,,,,,,,,,,,,,,,,,,,,,,,,,,,,,,,,,,,,,,,,,,,,,,,,,,,,,,,,,,,
,,,,,51,2020-07-04_15h19.02.603,retriever_ti,2020.1.3,Win32,60,Chrome,1366,768,304.750515,16,left,0.9307,canary,1,304.769835,304.769835,307.307425,0,7,7,7,1,5,3,1,html/resources/stimuli_practice_decision/02_canary.jpg,html/resources/stimuli_practice_decision/07_sock.jpg,canary,sock,,,,,,,,,,,,,,,,,,,,,,,,,,,,,,,,,,,,,,,,,,,,,,,,,,,,,,,,,,,,,,,,,,,,,,,,,,,,,
,,,,,51,2020-07-04_15h19.02.603,retriever_ti,2020.1.3,Win32,60,Chrome,1366,768,,,,,,,,,,,,,,,,,,,,,,up,1,1.68802,1,0,0,0,0,1,html/resources/sequences_IDs/circle.png,circle ↑,square →,triangle ↓,← star ,up,,,,,,,,,,,,,,,,,,,,,,,,,,,,,,,,,,,,,,,,,,,,,,,,,,,,,,,,,,,,,,
,,,,,51,2020-07-04_15h19.02.603,retriever_ti,2020.1.3,Win32,60,Chrome,1366,768,,,,,,,,,,,,,,,,,,,,,,down,1,0.930565,1,0,1,1,1,1,html/resources/sequences_IDs/star.png,square ↑,circle →,star ↓,← triangle,down,,,,,,,,,,,,,,,,,,,,,,,,,,,,,,,,,,,,,,,,,,,,,,,,,,,,,,,,,,,,,,
,,,,,51,2020-07-04_15h19.02.603,retriever_ti,2020.1.3,Win32,60,Chrome,1366,768,,,,,,,,,,,,,,,,,,,,,,left,1,1.347335,1,0,2,2,2,1,html/resources/sequences_IDs/square1.png,star ↑,triangle →,circle ↓,← square,left,,,,,,,,,,,,,,,,,,,,,,,,,,,,,,,,,,,,,,,,,,,,,,,,,,,,,,,,,,,,,,
,,,,,51,2020-07-04_15h19.02.603,retriever_ti,2020.1.3,Win32,60,Chrome,1366,768,,,,,,,,,,,,,,,,,,,,,,down,1,6.520585,1,0,3,3,3,1,html/resources/sequences_IDs/triangle.png,star ↑,square →,triangle ↓,← circle,down,,,,,,,,,,,,,,,,,,,,,,,,,,,,,,,,,,,,,,,,,,,,,,,,,,,,,,,,,,,,,,
,,,,,51,2020-07-04_15h19.02.603,retriever_ti,2020.1.3,Win32,60,Chrome,1366,768,,,,,,,,,,,,,,,,,,,,,,,,,,,,,,,,,,,,,0,2.26675,1,0,1,0,1,,,,,,,,,,,,,,,,,,,,,,,,,,,,,,,,,,,,,,,,,,,,,,,,,,,,,,,
,,,,,51,2020-07-04_15h19.02.603,retriever_ti,2020.1.3,Win32,60,Chrome,1366,768,,,,,,,,,,,,,,,,,1,,,,,,,,,,,,,,,,,,,,,,,,,,,343.61168,1,left,1.021285,camel         ,7,3,3,1,3,343.681485,343.681485,346.183215,0,0,0,0,1,1,7,4,camel         ,holdfast    ,html/resources/sequences_IDs/A/03_camel.jpg,html/resources/sequences_IDs/B/04_holdfast.jpg,3,4,1,1,2,1,2,3,0,51,,,,,,,,,,,,,,,,,,,,
,,,,,51,2020-07-04_15h19.02.603,retriever_ti,2020.1.3,Win32,60,Chrome,1366,768,,,,,,,,,,,,,,,,,1,,,,,,,,,,,,,,,,,,,,,,,,,,,346.79391,2,NaN,NaN,No_response,NaN,NaN,NaN,2,2,346.827185,346.827185,349.313535,0,1,1,1,1,2,4,3,holdfast    ,peacock       ,html/resources/sequences_IDs/B/04_holdfast.jpg,html/resources/sequences_IDs/A/05_peacock.jpg,4,5,2,1,2,1,3,4,0,51,,,,,,,,,,,,,,,,,,,,
,,,,,51,2020-07-04_15h19.02.603,retriever_ti,2020.1.3,Win32,60,Chrome,1366,768,,,,,,,,,,,,,,,,,1,,,,,,,,,,,,,,,,,,,,,,,,,,,350.418735,3,right,1.38362,holdfast    ,4,4,-1,0,0,350.436725,350.436725,352.92368,0,2,2,2,1,3,5,4,hat           ,holdfast    ,html/resources/sequences_IDs/A/08_hat.jpg,html/resources/sequences_IDs/B/04_holdfast.jpg,8,4,3,2,2,1,6,3,0,51,,,,,,,,,,,,,,,,,,,,
,,,,,51,2020-07-04_15h19.02.603,retriever_ti,2020.1.3,Win32,60,Chrome,1366,768,,,,,,,,,,,,,,,,,1,,,,,,,,,,,,,,,,,,,,,,,,,,,354.026705,4,left,0.987525,camel         ,7,3,1,1,1,354.061885,354.061885,356.54597,0,3,3,3,1,4,7,6,camel         ,sport_tshirt,html/resources/sequences_IDs/A/03_camel.jpg,html/resources/sequences_IDs/B/07_sport_tshirt.jpg,3,7,1,1,3,2,2,5,0,51,,,,,,,,,,,,,,,,,,,,
,,,,,51,2020-07-04_15h19.02.603,retriever_ti,2020.1.3,Win32,60,Chrome,1366,768,,,,,,,,,,,,,,,,,1,,,,,,,,,,,,,,,,,,,,,,,,,,,357.651155,5,left,0.783725,satellite_dish,1,10,-1,0,0,357.668805,357.668805,360.1546,0,4,4,4,1,5,1,2,satellite_dish,phone       ,html/resources/sequences_IDs/A/10_satellite_dish.jpg,html/resources/sequences_IDs/B/09_phone.jpg,10,9,4,2,4,2,8,7,0,51,,,,,,,,,,,,,,,,,,,,
,,,,,51,2020-07-04_15h19.02.603,retriever_ti,2020.1.3,Win32,60,Chrome,1366,768,,,,,,,,,,,,,,,,,1,,,,,,,,,,,,,,,,,,,,,,,,,,,361.259495,6,left,1.26908,peacock       ,3,5,2,1,3,361.29358,361.29358,363.778425,0,5,5,5,1,6,3,1,peacock       ,satellite_dish,html/resources/sequences_IDs/A/05_peacock.jpg,html/resources/sequences_IDs/A/10_satellite_dish.jpg,5,10,2,1,4,2,4,8,0,51,,,,,,,,,,,,,,,,,,,,
,,,,,51,2020-07-04_15h19.02.603,retriever_ti,2020.1.3,Win32,60,Chrome,1366,768,,,,,,,,,,,,,,,,,1,,,,,,,,,,,,,,,,,,,,,,,,,,,364.380605,7,right,0.97296,dolphin     ,8,2,4,1,3,364.398735,364.398735,366.88506,0,6,6,6,1,7,4,8,holdfast    ,dolphin     ,html/resources/sequences_IDs/B/04_holdfast.jpg,html/resources/sequences_IDs/B/02_dolphin.jpg,4,2,2,1,1,1,3,1,0,51,,,,,,,,,,,,,,,,,,,,
,,,,,51,2020-07-04_15h19.02.603,retriever_ti,2020.1.3,Win32,60,Chrome,1366,768,,,,,,,,,,,,,,,,,1,,,,,,,,,,,,,,,,,,,,,,,,,,,367.48803,8,left,0.97215,holdfast    ,4,4,-2,0,3,367.50542,367.50542,369.99207,0,7,7,7,1,8,4,6,holdfast    ,sport_tshirt,html/resources/sequences_IDs/B/04_holdfast.jpg,html/resources/sequences_IDs/B/07_sport_tshirt.jpg,4,7,2,1,3,2,3,5,0,51,,,,,,,,,,,,,,,,,,,,
,,,,,51,2020-07-04_15h19.02.603,retriever_ti,2020.1.3,Win32,60,Chrome,1366,768,,,,,,,,,,,,,,,,,1,,,,,,,,,,,,,,,,,,,,,,,,,,,370.59406,9,left,0.617085,dolphin     ,8,2,3,1,3,370.62908,370.62908,373.116375,0,8,8,8,1,9,8,5,dolphin     ,hat           ,html/resources/sequences_IDs/B/02_dolphin.jpg,html/resources/sequences_IDs/A/08_hat.jpg,2,8,1,1,3,2,1,6,0,51,,,,,,,,,,,,,,,,,,,,
,,,,,51,2020-07-04_15h19.02.603,retriever_ti,2020.1.3,Win32,60,Chrome,1366,768,,,,,,,,,,,,,,,,,1,,,,,,,,,,,,,,,,,,,,,,,,,,,373.719555,10,left,0.780445,dolphin     ,8,2,4,1,3,373.75372,373.75372,376.238885,0,9,9,9,1,10,8,4,dolphin     ,holdfast    ,html/resources/sequences_IDs/B/02_dolphin.jpg,html/resources/sequences_IDs/B/04_holdfast.jpg,2,4,1,1,2,1,1,3,0,51,,,,,,,,,,,,,,,,,,,,
,,,,,51,2020-07-04_15h19.02.603,retriever_ti,2020.1.3,Win32,60,Chrome,1366,768,,,,,,,,,,,,,,,,,1,,,,,,,,,,,,,,,,,,,,,,,,,,,376.841095,11,right,1.756745,satellite_dish,1,10,-3,0,3,376.859295,376.859295,379.346635,0,10,10,10,1,11,4,1,holdfast    ,satellite_dish,html/resources/sequences_IDs/B/04_holdfast.jpg,html/resources/sequences_IDs/A/10_satellite_dish.jpg,4,10,2,1,4,2,3,8,0,51,,,,,,,,,,,,,,,,,,,,
,,,,,51,2020-07-04_15h19.02.603,retriever_ti,2020.1.3,Win32,60,Chrome,1366,768,,,,,,,,,,,,,,,,,1,,,,,,,,,,,,,,,,,,,,,,,,,,,379.94976,12,left,1.38121,peacock       ,3,5,1,1,1,379.98401,379.98401,382.469185,0,11,11,11,1,12,3,2,peacock       ,phone       ,html/resources/sequences_IDs/A/05_peacock.jpg,html/resources/sequences_IDs/B/09_phone.jpg,5,9,2,1,4,2,4,7,0,51,,,,,,,,,,,,,,,,,,,,
,,,,,51,2020-07-04_15h19.02.603,retriever_ti,2020.1.3,Win32,60,Chrome,1366,768,,,,,,,,,,,,,,,,,1,,,,,,,,,,,,,,,,,,,,,,,,,,,383.57422,13,right,1.466585,phone       ,2,9,1,1,1,383.59184,383.59184,386.077565,0,12,12,12,1,13,1,2,satellite_dish,phone       ,html/resources/sequences_IDs/A/10_satellite_dish.jpg,html/resources/sequences_IDs/B/09_phone.jpg,10,9,4,2,4,2,8,7,0,51,,,,,,,,,,,,,,,,,,,,
,,,,,51,2020-07-04_15h19.02.603,retriever_ti,2020.1.3,Win32,60,Chrome,1366,768,,,,,,,,,,,,,,,,,1,,,,,,,,,,,,,,,,,,,,,,,,,,,387.181255,14,right,1.27524,phone       ,2,9,-3,0,3,387.21648,387.21648,389.701945,0,13,13,13,1,14,5,2,hat           ,phone       ,html/resources/sequences_IDs/A/08_hat.jpg,html/resources/sequences_IDs/B/09_phone.jpg,8,9,3,2,4,2,6,7,0,51,,,,,,,,,,,,,,,,,,,,
,,,,,51,2020-07-04_15h19.02.603,retriever_ti,2020.1.3,Win32,60,Chrome,1366,768,,,,,,,,,,,,,,,,,1,,,,,,,,,,,,,,,,,,,,,,,,,,,390.304745,15,right,0.95927,holdfast    ,4,4,-1,0,0,390.338825,390.338825,392.825585,0,14,14,14,1,15,5,4,hat           ,holdfast    ,html/resources/sequences_IDs/A/08_hat.jpg,html/resources/sequences_IDs/B/04_holdfast.jpg,8,4,3,2,2,1,6,3,0,51,,,,,,,,,,,,,,,,,,,,
,,,,,51,2020-07-04_15h19.02.603,retriever_ti,2020.1.3,Win32,60,Chrome,1366,768,,,,,,,,,,,,,,,,,1,,,,,,,,,,,,,,,,,,,,,,,,,,,393.93172,16,right,0.70066,camel         ,7,3,1,1,1,393.948655,393.948655,396.432965,0,15,15,15,1,16,6,7,sport_tshirt,camel         ,html/resources/sequences_IDs/B/07_sport_tshirt.jpg,html/resources/sequences_IDs/A/03_camel.jpg,7,3,3,2,1,1,5,2,0,51,,,,,,,,,,,,,,,,,,,,
,,,,,51,2020-07-04_15h19.02.603,retriever_ti,2020.1.3,Win32,60,Chrome,1366,768,,,,,,,,,,,,,,,,,1,,,,,,,,,,,,,,,,,,,,,,,,,,,397.537025,17,left,1.3399,dolphin     ,8,2,6,1,3,397.57107,397.57107,400.05806,0,16,16,16,1,17,8,2,dolphin     ,phone       ,html/resources/sequences_IDs/B/02_dolphin.jpg,html/resources/sequences_IDs/B/09_phone.jpg,2,9,1,1,4,2,1,7,0,51,,,,,,,,,,,,,,,,,,,,
,,,,,51,2020-07-04_15h19.02.603,retriever_ti,2020.1.3,Win32,60,Chrome,1366,768,,,,,,,,,,,,,,,,,1,,,,,,,,,,,,,,,,,,,,,,,,,,,400.66032,18,right,0.80139,satellite_dish,1,10,-5,0,3,400.69568,400.69568,403.18113,0,17,17,17,1,18,6,1,sport_tshirt,satellite_dish,html/resources/sequences_IDs/B/07_sport_tshirt.jpg,html/resources/sequences_IDs/A/10_satellite_dish.jpg,7,10,3,2,4,2,5,8,0,51,,,,,,,,,,,,,,,,,,,,
,,,,,51,2020-07-04_15h19.02.603,retriever_ti,2020.1.3,Win32,60,Chrome,1366,768,,,,,,,,,,,,,,,,,1,,,,,,,,,,,,,,,,,,,,,,,,,,,403.783905,19,right,1.22884,camel         ,7,3,5,1,3,403.801595,403.801595,406.28816,0,18,18,18,1,19,2,7,phone       ,camel         ,html/resources/sequences_IDs/B/09_phone.jpg,html/resources/sequences_IDs/A/03_camel.jpg,9,3,4,2,1,1,7,2,0,51,,,,,,,,,,,,,,,,,,,,
,,,,,51,2020-07-04_15h19.02.603,retriever_ti,2020.1.3,Win32,60,Chrome,1366,768,,,,,,,,,,,,,,,,,1,,,,,,,,,,,,,,,,,,,,,,,,,,,406.890765,20,left,0.690775,camel         ,7,3,2,1,3,406.90937,406.90937,409.39447,0,19,19,19,1,20,7,5,camel         ,hat           ,html/resources/sequences_IDs/A/03_camel.jpg,html/resources/sequences_IDs/A/08_hat.jpg,3,8,1,1,3,2,2,6,0,51,,,,,,,,,,,,,,,,,,,,
,,,,,51,2020-07-04_15h19.02.603,retriever_ti,2020.1.3,Win32,60,Chrome,1366,768,,,,,,,,,,,,,,,,,1,,,,,,,,,,,,,,,,,,,,,,,,,,,409.997835,21,left,0.5853,dolphin     ,8,2,1,1,1,410.0146,410.0146,412.501125,0,20,20,20,1,21,8,7,dolphin     ,camel         ,html/resources/sequences_IDs/B/02_dolphin.jpg,html/resources/sequences_IDs/A/03_camel.jpg,2,3,1,1,1,1,1,2,0,51,,,,,,,,,,,,,,,,,,,,
,,,,,51,2020-07-04_15h19.02.603,retriever_ti,2020.1.3,Win32,60,Chrome,1366,768,,,,,,,,,,,,,,,,,1,,,,,,,,,,,,,,,,,,,,,,,,,,,413.60558,22,right,1.58227,camel         ,7,3,2,1,3,413.62311,413.62311,416.11007,0,21,21,21,1,22,5,7,hat           ,camel         ,html/resources/sequences_IDs/A/08_hat.jpg,html/resources/sequences_IDs/A/03_camel.jpg,8,3,3,2,1,1,6,2,0,51,,,,,,,,,,,,,,,,,,,,
,,,,,51,2020-07-04_15h19.02.603,retriever_ti,2020.1.3,Win32,60,Chrome,1366,768,,,,,,,,,,,,,,,,,1,,,,,,,,,,,,,,,,,,,,,,,,,,,416.711185,23,left,0.56042,dolphin     ,8,2,2,1,3,416.72925,416.72925,419.216995,0,22,22,22,1,23,8,6,dolphin     ,sport_tshirt,html/resources/sequences_IDs/B/02_dolphin.jpg,html/resources/sequences_IDs/B/07_sport_tshirt.jpg,2,7,1,1,3,2,1,5,0,51,,,,,,,,,,,,,,,,,,,,
,,,,,51,2020-07-04_15h19.02.603,retriever_ti,2020.1.3,Win32,60,Chrome,1366,768,,,,,,,,,,,,,,,,,1,,,,,,,,,,,,,,,,,,,,,,,,,,,419.82004,24,left,0.623665,phone       ,2,9,-1,0,1,419.83744,419.83744,422.32254,0,23,23,23,1,24,2,3,phone       ,peacock       ,html/resources/sequences_IDs/B/09_phone.jpg,html/resources/sequences_IDs/A/05_peacock.jpg,9,5,4,2,2,1,7,4,1,51,,,,,,,,,,,,,,,,,,,,
,,,,,51,2020-07-04_15h19.02.603,retriever_ti,2020.1.3,Win32,60,Chrome,1366,768,,,,,,,,,,,,,,,,,1,,,,,,,,,,,,,,,,,,,,,,,,,,,423.42587,25,right,0.96803,phone       ,2,9,-2,0,3,423.44387,423.44387,425.930375,0,24,24,24,1,25,4,2,holdfast    ,phone       ,html/resources/sequences_IDs/B/04_holdfast.jpg,html/resources/sequences_IDs/B/09_phone.jpg,4,9,2,1,4,2,3,7,0,51,,,,,,,,,,,,,,,,,,,,
,,,,,51,2020-07-04_15h19.02.603,retriever_ti,2020.1.3,Win32,60,Chrome,1366,768,,,,,,,,,,,,,,,,,1,,,,,,,,,,,,,,,,,,,,,,,,,,,426.533305,26,left,0.60298,camel         ,7,3,1,1,1,426.550585,426.550585,429.03814,0,25,25,25,1,26,7,6,camel         ,sport_tshirt,html/resources/sequences_IDs/A/03_camel.jpg,html/resources/sequences_IDs/B/07_sport_tshirt.jpg,3,7,1,1,3,2,2,5,0,51,,,,,,,,,,,,,,,,,,,,
,,,,,51,2020-07-04_15h19.02.603,retriever_ti,2020.1.3,Win32,60,Chrome,1366,768,,,,,,,,,,,,,,,,,1,,,,,,,,,,,,,,,,,,,,,,,,,,,430.143155,27,right,0.904765,dolphin     ,8,2,5,1,3,430.176705,430.176705,432.6616,0,26,26,26,1,27,3,8,peacock       ,dolphin     ,html/resources/sequences_IDs/A/05_peacock.jpg,html/resources/sequences_IDs/B/02_dolphin.jpg,5,2,2,1,1,1,4,1,0,51,,,,,,,,,,,,,,,,,,,,
,,,,,51,2020-07-04_15h19.02.603,retriever_ti,2020.1.3,Win32,60,Chrome,1366,768,,,,,,,,,,,,,,,,,1,,,,,,,,,,,,,,,,,,,,,,,,,,,433.263885,28,right,1.286015,peacock       ,3,5,2,1,3,433.29875,433.29875,435.785285,0,27,27,27,1,28,1,3,satellite_dish,peacock       ,html/resources/sequences_IDs/A/10_satellite_dish.jpg,html/resources/sequences_IDs/A/05_peacock.jpg,10,5,4,2,2,1,8,4,0,51,,,,,,,,,,,,,,,,,,,,
,,,,,51,2020-07-04_15h19.02.603,retriever_ti,2020.1.3,Win32,60,Chrome,1366,768,,,,,,,,,,,,,,,,,1,,,,,,,,,,,,,,,,,,,,,,,,,,,436.38832,29,left,0.793715,dolphin     ,8,2,7,1,3,436.405645,436.405645,438.89256,0,28,28,28,1,29,8,1,dolphin     ,satellite_dish,html/resources/sequences_IDs/B/02_dolphin.jpg,html/resources/sequences_IDs/A/10_satellite_dish.jpg,2,10,1,1,4,2,1,8,0,51,,,,,,,,,,,,,,,,,,,,
,,,,,51,2020-07-04_15h19.02.603,retriever_ti,2020.1.3,Win32,60,Chrome,1366,768,,,,,,,,,,,,,,,,,1,,,,,,,,,,,,,,,,,,,,,,,,,,,439.494955,30,left,0.91106,phone       ,2,9,1,1,1,439.530335,439.530335,442.01554,0,29,29,29,1,30,2,1,phone       ,satellite_dish,html/resources/sequences_IDs/B/09_phone.jpg,html/resources/sequences_IDs/A/10_satellite_dish.jpg,9,10,4,2,4,2,7,8,0,51,,,,,,,,,,,,,,,,,,,,
,,,,,51,2020-07-04_15h19.02.603,retriever_ti,2020.1.3,Win32,60,Chrome,1366,768,,,,,,,,,,,,,,,,,1,,,,,,,,,,,,,,,,,,,,,,,,,,,443.119385,31,right,0.718685,camel         ,7,3,1,1,1,443.15356,443.15356,445.640625,0,30,30,30,1,31,6,7,sport_tshirt,camel         ,html/resources/sequences_IDs/B/07_sport_tshirt.jpg,html/resources/sequences_IDs/A/03_camel.jpg,7,3,3,2,1,1,5,2,0,51,,,,,,,,,,,,,,,,,,,,
,,,,,51,2020-07-04_15h19.02.603,retriever_ti,2020.1.3,Win32,60,Chrome,1366,768,,,,,,,,,,,,,,,,,1,,,,,,,,,,,,,,,,,,,,,,,,,,,446.744135,32,left,1.30957,hat           ,5,8,4,1,3,446.778245,446.778245,449.28114,0,31,31,31,1,32,5,1,hat           ,satellite_dish,html/resources/sequences_IDs/A/08_hat.jpg,html/resources/sequences_IDs/A/10_satellite_dish.jpg,8,10,3,2,4,2,6,8,0,51,,,,,,,,,,,,,,,,,,,,
,,,,,51,2020-07-04_15h19.02.603,retriever_ti,2020.1.3,Win32,60,Chrome,1366,768,,,,,,,,,,,,,,,,,1,,,,,,,,,,,,,,,,,,,,,,,,,,,449.88445,33,left,0.83194,holdfast    ,4,4,-1,0,0,449.918445,449.918445,452.40464,0,32,32,32,1,33,4,5,holdfast    ,hat           ,html/resources/sequences_IDs/B/04_holdfast.jpg,html/resources/sequences_IDs/A/08_hat.jpg,4,8,2,1,3,2,3,6,0,51,,,,,,,,,,,,,,,,,,,,
,,,,,51,2020-07-04_15h19.02.603,retriever_ti,2020.1.3,Win32,60,Chrome,1366,768,,,,,,,,,,,,,,,,,1,,,,,,,,,,,,,,,,,,,,,,,,,,,453.507845,34,right,0.81317,dolphin     ,8,2,1,1,1,453.526025,453.526025,456.01241,0,33,33,33,1,34,7,8,camel         ,dolphin     ,html/resources/sequences_IDs/A/03_camel.jpg,html/resources/sequences_IDs/B/02_dolphin.jpg,3,2,1,1,1,1,2,1,0,51,,,,,,,,,,,,,,,,,,,,
,,,,,51,2020-07-04_15h19.02.603,retriever_ti,2020.1.3,Win32,60,Chrome,1366,768,,,,,,,,,,,,,,,,,1,,,,,,,,,,,,,,,,,,,,,,,,,,,457.11678,35,left,1.17572,holdfast    ,4,4,-1,0,0,457.15058,457.15058,459.63711,0,34,34,34,1,35,4,5,holdfast    ,hat           ,html/resources/sequences_IDs/B/04_holdfast.jpg,html/resources/sequences_IDs/A/08_hat.jpg,4,8,2,1,3,2,3,6,0,51,,,,,,,,,,,,,,,,,,,,
,,,,,51,2020-07-04_15h19.02.603,retriever_ti,2020.1.3,Win32,60,Chrome,1366,768,,,,,,,,,,,,,,,,,1,,,,,,,,,,,,,,,,,,,,,,,,,,,460.74209,36,left,0.886565,peacock       ,3,5,-3,0,3,460.759865,460.759865,463.245705,0,35,35,35,1,36,3,6,peacock       ,sport_tshirt,html/resources/sequences_IDs/A/05_peacock.jpg,html/resources/sequences_IDs/B/07_sport_tshirt.jpg,5,7,2,1,3,2,4,5,0,51,,,,,,,,,,,,,,,,,,,,
,,,,,51,2020-07-04_15h19.02.603,retriever_ti,2020.1.3,Win32,60,Chrome,1366,768,,,,,,,,,,,,,,,,,1,,,,,,,,,,,,,,,,,,,,,,,,,,,463.848915,37,left,2.12359,sport_tshirt,6,7,1,1,1,463.866635,463.866635,466.35157,0,36,36,36,1,37,6,5,sport_tshirt,hat           ,html/resources/sequences_IDs/B/07_sport_tshirt.jpg,html/resources/sequences_IDs/A/08_hat.jpg,7,8,3,2,3,2,5,6,0,51,,,,,,,,,,,,,,,,,,,,
,,,,,51,2020-07-04_15h19.02.603,retriever_ti,2020.1.3,Win32,60,Chrome,1366,768,,,,,,,,,,,,,,,,,1,,,,,,,,,,,,,,,,,,,,,,,,,,,467.45502,38,right,0.981125,peacock       ,3,5,-3,0,3,467.473225,467.473225,469.95943,0,37,37,37,1,38,6,3,sport_tshirt,peacock       ,html/resources/sequences_IDs/B/07_sport_tshirt.jpg,html/resources/sequences_IDs/A/05_peacock.jpg,7,5,3,2,2,1,5,4,0,51,,,,,,,,,,,,,,,,,,,,
,,,,,51,2020-07-04_15h19.02.603,retriever_ti,2020.1.3,Win32,60,Chrome,1366,768,,,,,,,,,,,,,,,,,1,,,,,,,,,,,,,,,,,,,,,,,,,,,470.56263,39,right,0.801935,dolphin     ,8,2,7,1,3,470.596495,470.596495,473.08291,0,38,38,38,1,39,1,8,satellite_dish,dolphin     ,html/resources/sequences_IDs/A/10_satellite_dish.jpg,html/resources/sequences_IDs/B/02_dolphin.jpg,10,2,4,2,1,1,8,1,0,51,,,,,,,,,,,,,,,,,,,,
,,,,,51,2020-07-04_15h19.02.603,retriever_ti,2020.1.3,Win32,60,Chrome,1366,768,,,,,,,,,,,,,,,,,1,,,,,,,,,,,,,,,,,,,,,,,,,,,473.68491,40,left,1.194115,peacock       ,3,5,-2,0,3,473.70357,473.70357,476.207875,0,39,39,39,1,40,3,5,peacock       ,hat           ,html/resources/sequences_IDs/A/05_peacock.jpg,html/resources/sequences_IDs/A/08_hat.jpg,5,8,2,1,3,2,4,6,0,51,,,,,,,,,,,,,,,,,,,,
,,,,,51,2020-07-04_15h19.02.603,retriever_ti,2020.1.3,Win32,60,Chrome,1366,768,,,,,,,,,,,,,,,,,1,,,,,,,,,,,,,,,,,,,,,,,,,,,476.826455,41,left,0.83337,phone       ,2,9,-3,0,3,476.84422,476.84422,479.32992,0,40,40,40,1,41,2,5,phone       ,hat           ,html/resources/sequences_IDs/B/09_phone.jpg,html/resources/sequences_IDs/A/08_hat.jpg,9,8,4,2,3,2,7,6,0,51,,,,,,,,,,,,,,,,,,,,
,,,,,51,2020-07-04_15h19.02.603,retriever_ti,2020.1.3,Win32,60,Chrome,1366,768,,,,,,,,,,,,,,,,,1,,,,,,,,,,,,,,,,,,,,,,,,,,,479.93274,42,left,2.06853,hat           ,5,8,2,1,3,479.950085,479.950085,482.436765,0,41,41,41,1,42,5,3,hat           ,peacock       ,html/resources/sequences_IDs/A/08_hat.jpg,html/resources/sequences_IDs/A/05_peacock.jpg,8,5,3,2,2,1,6,4,0,51,,,,,,,,,,,,,,,,,,,,
,,,,,51,2020-07-04_15h19.02.603,retriever_ti,2020.1.3,Win32,60,Chrome,1366,768,,,,,,,,,,,,,,,,,1,,,,,,,,,,,,,,,,,,,,,,,,,,,483.03922,43,right,0.674115,dolphin     ,8,2,2,1,3,483.073505,483.073505,485.560105,0,42,42,42,1,43,6,8,sport_tshirt,dolphin     ,html/resources/sequences_IDs/B/07_sport_tshirt.jpg,html/resources/sequences_IDs/B/02_dolphin.jpg,7,2,3,2,1,1,5,1,0,51,,,,,,,,,,,,,,,,,,,,
,,,,,51,2020-07-04_15h19.02.603,retriever_ti,2020.1.3,Win32,60,Chrome,1366,768,,,,,,,,,,,,,,,,,1,,,,,,,,,,,,,,,,,,,,,,,,,,,486.163375,44,left,0.498915,phone       ,2,9,1,1,1,486.23054,486.23054,488.71752,0,43,43,43,1,44,2,1,phone       ,satellite_dish,html/resources/sequences_IDs/B/09_phone.jpg,html/resources/sequences_IDs/A/10_satellite_dish.jpg,9,10,4,2,4,2,7,8,0,51,,,,,,,,,,,,,,,,,,,,
,,,,,51,2020-07-04_15h19.02.603,retriever_ti,2020.1.3,Win32,60,Chrome,1366,768,,,,,,,,,,,,,,,,,1,,,,,,,,,,,,,,,,,,,,,,,,,,,489.82114,45,left,1.070845,phone       ,2,9,-4,0,3,489.856665,489.856665,492.34158,0,44,44,44,1,45,2,6,phone       ,sport_tshirt,html/resources/sequences_IDs/B/09_phone.jpg,html/resources/sequences_IDs/B/07_sport_tshirt.jpg,9,7,4,2,3,2,7,5,0,51,,,,,,,,,,,,,,,,,,,,
,,,,,51,2020-07-04_15h19.02.603,retriever_ti,2020.1.3,Win32,60,Chrome,1366,768,,,,,,,,,,,,,,,,,1,,,,,,,,,,,,,,,,,,,,,,,,,,,492.944535,46,right,0.834155,holdfast    ,4,4,3,1,3,492.962,492.962,495.448895,0,45,45,45,1,46,1,4,satellite_dish,holdfast    ,html/resources/sequences_IDs/A/10_satellite_dish.jpg,html/resources/sequences_IDs/B/04_holdfast.jpg,10,4,4,2,2,1,8,3,0,51,,,,,,,,,,,,,,,,,,,,
,,,,,51,2020-07-04_15h19.02.603,retriever_ti,2020.1.3,Win32,60,Chrome,1366,768,,,,,,,,,,,,,,,,,1,,,,,,,,,,,,,,,,,,,,,,,,,,,496.05133,47,left,1.421825,peacock       ,3,5,-1,0,0,496.086585,496.086585,498.5717,0,46,46,46,1,47,3,4,peacock       ,holdfast    ,html/resources/sequences_IDs/A/05_peacock.jpg,html/resources/sequences_IDs/B/04_holdfast.jpg,5,4,2,1,2,1,4,3,0,51,,,,,,,,,,,,,,,,,,,,
,,,,,51,2020-07-04_15h19.02.603,retriever_ti,2020.1.3,Win32,60,Chrome,1366,768,,,,,,,,,,,,,,,,,1,,,,,,,,,,,,,,,,,,,,,,,,,,,499.67592,48,left,1.196675,holdfast    ,4,4,1,1,1,499.69335,499.69335,502.179485,0,47,47,47,1,48,4,3,holdfast    ,peacock       ,html/resources/sequences_IDs/B/04_holdfast.jpg,html/resources/sequences_IDs/A/05_peacock.jpg,4,5,2,1,2,1,3,4,0,51,,,,,,,,,,,,,,,,,,,,
,,,,,51,2020-07-04_15h19.02.603,retriever_ti,2020.1.3,Win32,60,Chrome,1366,768,,,,,,,,,,,,,,,,,1,,,,,,,,,,,,,,,,,,,,,,,,,,,503.28355,49,right,1.117195,holdfast    ,4,4,-2,0,3,503.30085,503.30085,506.472445,0,48,48,48,1,49,6,4,sport_tshirt,holdfast    ,html/resources/sequences_IDs/B/07_sport_tshirt.jpg,html/resources/sequences_IDs/B/04_holdfast.jpg,7,4,3,2,2,1,5,3,0,51,,,,,,,,,,,,,,,,,,,,
,,,,,51,2020-07-04_15h19.02.603,retriever_ti,2020.1.3,Win32,60,Chrome,1366,768,,,,,,,,,,,,,,,,,1,,,,,,,,,,,,,,,,,,,,,,,,,,,507.07562,50,right,1.156845,phone       ,2,9,-4,0,3,507.109305,507.109305,509.595545,0,49,49,49,1,50,6,2,sport_tshirt,phone       ,html/resources/sequences_IDs/B/07_sport_tshirt.jpg,html/resources/sequences_IDs/B/09_phone.jpg,7,9,3,2,4,2,5,7,0,51,,,,,,,,,,,,,,,,,,,,
,,,,,51,2020-07-04_15h19.02.603,retriever_ti,2020.1.3,Win32,60,Chrome,1366,768,,,,,,,,,,,,,,,,,1,,,,,,,,,,,,,,,,,,,,,,,,,,,510.19759,51,right,1.215875,camel         ,7,3,1,1,0,510.23247,510.23247,512.719105,0,50,50,50,1,51,6,7,sport_tshirt,camel         ,html/resources/sequences_IDs/B/07_sport_tshirt.jpg,html/resources/sequences_IDs/A/03_camel.jpg,7,3,3,2,1,1,5,2,1,51,,,,,,,,,,,,,,,,,,,,
,,,,,51,2020-07-04_15h19.02.603,retriever_ti,2020.1.3,Win32,60,Chrome,1366,768,,,,,,,,,,,,,,,,,1,,,,,,,,,,,,,,,,,,,,,,,,,,,513.823135,52,left,1.092645,dolphin     ,8,2,5,1,3,513.858445,513.858445,516.34378,0,51,51,51,1,52,8,3,dolphin     ,peacock       ,html/resources/sequences_IDs/B/02_dolphin.jpg,html/resources/sequences_IDs/A/05_peacock.jpg,2,5,1,1,2,1,1,4,0,51,,,,,,,,,,,,,,,,,,,,
,,,,,51,2020-07-04_15h19.02.603,retriever_ti,2020.1.3,Win32,60,Chrome,1366,768,,,,,,,,,,,,,,,,,1,,,,,,,,,,,,,,,,,,,,,,,,,,,516.94698,53,left,0.76394,phone       ,2,9,-2,0,3,516.96422,516.96422,519.450445,0,52,52,52,1,53,2,4,phone       ,holdfast    ,html/resources/sequences_IDs/B/09_phone.jpg,html/resources/sequences_IDs/B/04_holdfast.jpg,9,4,4,2,2,1,7,3,0,51,,,,,,,,,,,,,,,,,,,,
,,,,,51,2020-07-04_15h19.02.603,retriever_ti,2020.1.3,Win32,60,Chrome,1366,768,,,,,,,,,,,,,,,,,1,,,,,,,,,,,,,,,,,,,,,,,,,,,520.05246,54,right,1.31848,sport_tshirt,6,7,5,1,3,520.07079,520.07079,522.55704,0,53,53,53,1,54,1,6,satellite_dish,sport_tshirt,html/resources/sequences_IDs/A/10_satellite_dish.jpg,html/resources/sequences_IDs/B/07_sport_tshirt.jpg,10,7,4,2,3,2,8,5,0,51,,,,,,,,,,,,,,,,,,,,
,,,,,51,2020-07-04_15h19.02.603,retriever_ti,2020.1.3,Win32,60,Chrome,1366,768,,,,,,,,,,,,,,,,,1,,,,,,,,,,,,,,,,,,,,,,,,,,,523.16009,55,left,0.836295,peacock       ,3,5,-1,0,1,523.19405,523.19405,525.680815,0,54,54,54,1,55,3,4,peacock       ,holdfast    ,html/resources/sequences_IDs/A/05_peacock.jpg,html/resources/sequences_IDs/B/04_holdfast.jpg,5,4,2,1,2,1,4,3,1,51,,,,,,,,,,,,,,,,,,,,
,,,,,51,2020-07-04_15h19.02.603,retriever_ti,2020.1.3,Win32,60,Chrome,1366,768,,,,,,,,,,,,,,,,,1,,,,,,,,,,,,,,,,,,,,,,,,,,,526.78507,56,right,1.09649,dolphin     ,8,2,1,1,1,526.835525,526.835525,529.321845,0,55,55,55,1,56,7,8,camel         ,dolphin     ,html/resources/sequences_IDs/A/03_camel.jpg,html/resources/sequences_IDs/B/02_dolphin.jpg,3,2,1,1,1,1,2,1,0,51,,,,,,,,,,,,,,,,,,,,
,,,,,51,2020-07-04_15h19.02.603,retriever_ti,2020.1.3,Win32,60,Chrome,1366,768,,,,,,,,,,,,,,,,,1,,,,,,,,,,,,,,,,,,,,,,,,,,,530.425115,57,right,1.26406,dolphin     ,8,2,3,1,3,530.443505,530.443505,532.929825,0,56,56,56,1,57,5,8,hat           ,dolphin     ,html/resources/sequences_IDs/A/08_hat.jpg,html/resources/sequences_IDs/B/02_dolphin.jpg,8,2,3,2,1,1,6,1,0,51,,,,,,,,,,,,,,,,,,,,
,,,,,51,2020-07-04_15h19.02.603,retriever_ti,2020.1.3,Win32,60,Chrome,1366,768,,,,,,,,,,,,,,,,,1,,,,,,,,,,,,,,,,,,,,,,,,,,,533.532915,58,left,0.9528,hat           ,5,8,-1,0,1,533.5509,533.5509,536.03712,0,57,57,57,1,58,5,6,hat           ,sport_tshirt,html/resources/sequences_IDs/A/08_hat.jpg,html/resources/sequences_IDs/B/07_sport_tshirt.jpg,8,7,3,2,3,2,6,5,1,51,,,,,,,,,,,,,,,,,,,,
,,,,,51,2020-07-04_15h19.02.603,retriever_ti,2020.1.3,Win32,60,Chrome,1366,768,,,,,,,,,,,,,,,,,1,,,,,,,,,,,,,,,,,,,,,,,,,,,537.14113,59,left,0.90727,camel         ,7,3,6,1,3,537.17465,537.17465,539.66105,0,58,58,58,1,59,7,1,camel         ,satellite_dish,html/resources/sequences_IDs/A/03_camel.jpg,html/resources/sequences_IDs/A/10_satellite_dish.jpg,3,10,1,1,4,2,2,8,0,51,,,,,,,,,,,,,,,,,,,,
,,,,,51,2020-07-04_15h19.02.603,retriever_ti,2020.1.3,Win32,60,Chrome,1366,768,,,,,,,,,,,,,,,,,1,,,,,,,,,,,,,,,,,,,,,,,,,,,540.26317,60,left,1.445965,peacock       ,3,5,1,1,1,540.298215,540.298215,542.7848,0,59,59,59,1,60,3,2,peacock       ,phone       ,html/resources/sequences_IDs/A/05_peacock.jpg,html/resources/sequences_IDs/B/09_phone.jpg,5,9,2,1,4,2,4,7,0,51,,,,,,,,,,,,,,,,,,,,
,,,,,51,2020-07-04_15h19.02.603,retriever_ti,2020.1.3,Win32,60,Chrome,1366,768,,,,,,,,,,,,,,,,,1,,,,,,,,,,,,,,,,,,,,,,,,,,,543.888625,61,left,1.976135,hat           ,5,8,1,1,0,543.92363,543.92363,546.409345,0,60,60,60,1,61,5,4,hat           ,holdfast    ,html/resources/sequences_IDs/A/08_hat.jpg,html/resources/sequences_IDs/B/04_holdfast.jpg,8,4,3,2,2,1,6,3,1,51,,,,,,,,,,,,,,,,,,,,
,,,,,51,2020-07-04_15h19.02.603,retriever_ti,2020.1.3,Win32,60,Chrome,1366,768,,,,,,,,,,,,,,,,,1,,,,,,,,,,,,,,,,,,,,,,,,,,,547.513365,62,right,0.635795,phone       ,2,9,1,1,0,547.54728,547.54728,550.034355,0,61,61,61,1,62,1,2,satellite_dish,phone       ,html/resources/sequences_IDs/A/10_satellite_dish.jpg,html/resources/sequences_IDs/B/09_phone.jpg,10,9,4,2,4,2,8,7,1,51,,,,,,,,,,,,,,,,,,,,
,,,,,51,2020-07-04_15h19.02.603,retriever_ti,2020.1.3,Win32,60,Chrome,1366,768,,,,,,,,,,,,,,,,,1,,,,,,,,,,,,,,,,,,,,,,,,,,,551.13869,63,left,0.89304,hat           ,5,8,-1,0,0,551.15639,551.15639,553.64138,0,62,62,62,1,63,5,6,hat           ,sport_tshirt,html/resources/sequences_IDs/A/08_hat.jpg,html/resources/sequences_IDs/B/07_sport_tshirt.jpg,8,7,3,2,3,2,6,5,0,51,,,,,,,,,,,,,,,,,,,,
,,,,,51,2020-07-04_15h19.02.603,retriever_ti,2020.1.3,Win32,60,Chrome,1366,768,,,,,,,,,,,,,,,,,1,,,,,,,,,,,,,,,,,,,,,,,,,,,554.74544,64,right,0.65809,dolphin     ,8,2,1,1,0,554.763545,554.763545,557.250135,0,63,63,63,1,64,7,8,camel         ,dolphin     ,html/resources/sequences_IDs/A/03_camel.jpg,html/resources/sequences_IDs/B/02_dolphin.jpg,3,2,1,1,1,1,2,1,1,51,,,,,,,,,,,,,,,,,,,,
,,,,,51,2020-07-04_15h19.02.603,retriever_ti,2020.1.3,Win32,60,Chrome,1366,768,,,,,,,,,,,,,,,,,1,,,,,,,,,,,,,,,,,,,,,,,,,,,558.353295,65,right,1.417845,camel         ,7,3,-1,0,0,558.3721,558.3721,560.85734,0,64,64,64,1,65,8,7,dolphin     ,camel         ,html/resources/sequences_IDs/B/02_dolphin.jpg,html/resources/sequences_IDs/A/03_camel.jpg,2,3,1,1,1,1,1,2,0,51,,,,,,,,,,,,,,,,,,,,
,,,,,51,2020-07-04_15h19.02.603,retriever_ti,2020.1.3,Win32,60,Chrome,1366,768,,,,,,,,,,,,,,,,,1,,,,,,,,,,,,,,,,,,,,,,,,,,,561.96224,66,NaN,NaN,No_response,NaN,NaN,NaN,2,2,561.980065,561.980065,564.46499,0,65,65,65,1,66,7,2,camel         ,phone       ,html/resources/sequences_IDs/A/03_camel.jpg,html/resources/sequences_IDs/B/09_phone.jpg,3,9,1,1,4,2,2,7,0,51,,,,,,,,,,,,,,,,,,,,
,,,,,51,2020-07-04_15h19.02.603,retriever_ti,2020.1.3,Win32,60,Chrome,1366,768,,,,,,,,,,,,,,,,,1,,,,,,,,,,,,,,,,,,,,,,,,,,,565.569655,67,left,1.1109,phone       ,2,9,-1,0,0,565.586175,565.586175,568.07283,0,66,66,66,1,67,2,3,phone       ,peacock       ,html/resources/sequences_IDs/B/09_phone.jpg,html/resources/sequences_IDs/A/05_peacock.jpg,9,5,4,2,2,1,7,4,0,51,,,,,,,,,,,,,,,,,,,,
,,,,,51,2020-07-04_15h19.02.603,retriever_ti,2020.1.3,Win32,60,Chrome,1366,768,,,,,,,,,,,,,,,,,1,,,,,,,,,,,,,,,,,,,,,,,,,,,569.17713,68,right,0.47118,peacock       ,3,5,1,1,1,569.1944,569.1944,571.680645,0,67,67,67,1,68,2,3,phone       ,peacock       ,html/resources/sequences_IDs/B/09_phone.jpg,html/resources/sequences_IDs/A/05_peacock.jpg,9,5,4,2,2,1,7,4,0,51,,,,,,,,,,,,,,,,,,,,
,,,,,51,2020-07-04_15h19.02.603,retriever_ti,2020.1.3,Win32,60,Chrome,1366,768,,,,,,,,,,,,,,,,,1,,,,,,,,,,,,,,,,,,,,,,,,,,,572.78479,69,left,0.938505,holdfast    ,4,4,-3,0,3,572.818795,572.818795,575.306215,0,68,68,68,1,69,4,7,holdfast    ,camel         ,html/resources/sequences_IDs/B/04_holdfast.jpg,html/resources/sequences_IDs/A/03_camel.jpg,4,3,2,1,1,1,3,2,0,51,,,,,,,,,,,,,,,,,,,,
,,,,,51,2020-07-04_15h19.02.603,retriever_ti,2020.1.3,Win32,60,Chrome,1366,768,,,,,,,,,,,,,,,,,1,,,,,,,,,,,,,,,,,,,,,,,,,,,575.908335,70,left,1.091345,hat           ,5,8,-1,0,0,575.926915,575.926915,578.413615,0,69,69,69,1,70,5,6,hat           ,sport_tshirt,html/resources/sequences_IDs/A/08_hat.jpg,html/resources/sequences_IDs/B/07_sport_tshirt.jpg,8,7,3,2,3,2,6,5,0,51,,,,,,,,,,,,,,,,,,,,
,,,,,51,2020-07-04_15h19.02.603,retriever_ti,2020.1.3,Win32,60,Chrome,1366,768,,,,,,,,,,,,,,,,,1,,,,,,,,,,,,,,,,,,,,,,,,,,,579.517165,71,right,1.165395,holdfast    ,4,4,1,1,1,579.535245,579.535245,582.0198,0,70,70,70,1,71,3,4,peacock       ,holdfast    ,html/resources/sequences_IDs/A/05_peacock.jpg,html/resources/sequences_IDs/B/04_holdfast.jpg,5,4,2,1,2,1,4,3,0,51,,,,,,,,,,,,,,,,,,,,
,,,,,51,2020-07-04_15h19.02.603,retriever_ti,2020.1.3,Win32,60,Chrome,1366,768,,,,,,,,,,,,,,,,,1,,,,,,,,,,,,,,,,,,,,,,,,,,,583.12417,72,right,0.989915,dolphin     ,8,2,6,1,3,583.14175,583.14175,585.62781,0,71,71,71,1,72,2,8,phone       ,dolphin     ,html/resources/sequences_IDs/B/09_phone.jpg,html/resources/sequences_IDs/B/02_dolphin.jpg,9,2,4,2,1,1,7,1,0,51,,,,,,,,,,,,,,,,,,,,
,,,,,51,2020-07-04_15h19.02.603,retriever_ti,2020.1.3,Win32,60,Chrome,1366,768,,,,,,,,,,,,,,,,,1,,,,,,,,,,,,,,,,,,,,,,,,,,,586.232185,73,right,0.88141,camel         ,7,3,6,1,3,586.26643,586.26643,588.801385,0,72,72,72,1,73,1,7,satellite_dish,camel         ,html/resources/sequences_IDs/A/10_satellite_dish.jpg,html/resources/sequences_IDs/A/03_camel.jpg,10,3,4,2,1,1,8,2,0,51,,,,,,,,,,,,,,,,,,,,
,,,,,51,2020-07-04_15h19.02.603,retriever_ti,2020.1.3,Win32,60,Chrome,1366,768,,,,,,,,,,,,,,,,,1,,,,,,,,,,,,,,,,,,,,,,,,,,,589.404395,74,right,1.217715,hat           ,5,8,4,1,3,589.42159,589.42159,591.908185,0,73,73,73,1,74,1,5,satellite_dish,hat           ,html/resources/sequences_IDs/A/10_satellite_dish.jpg,html/resources/sequences_IDs/A/08_hat.jpg,10,8,4,2,3,2,8,6,0,51,,,,,,,,,,,,,,,,,,,,
,,,,,51,2020-07-04_15h19.02.603,retriever_ti,2020.1.3,Win32,60,Chrome,1366,768,,,,,,,,,,,,,,,,,1,,,,,,,,,,,,,,,,,,,,,,,,,,,592.510445,75,right,0.567085,hat           ,5,8,-1,0,0,592.545855,592.545855,595.0487,0,74,74,74,1,75,6,5,sport_tshirt,hat           ,html/resources/sequences_IDs/B/07_sport_tshirt.jpg,html/resources/sequences_IDs/A/08_hat.jpg,7,8,3,2,3,2,5,6,0,51,,,,,,,,,,,,,,,,,,,,
,,,,,51,2020-07-04_15h19.02.603,retriever_ti,2020.1.3,Win32,60,Chrome,1366,768,,,,,,,,,,,,,,,,,1,,,,,,,,,,,,,,,,,,,,,,,,,,,596.274315,76,right,1.366705,camel         ,7,3,4,1,3,596.28672,596.28672,598.773955,0,75,75,75,1,76,3,7,peacock       ,camel         ,html/resources/sequences_IDs/A/05_peacock.jpg,html/resources/sequences_IDs/A/03_camel.jpg,5,3,2,1,1,1,4,2,0,51,,,,,,,,,,,,,,,,,,,,
,,,,,51,2020-07-04_15h19.02.603,retriever_ti,2020.1.3,Win32,60,Chrome,1366,768,,,,,,,,,,,,,,,,,1,,,,,,,,,,,,,,,,,,,,,,,,,,,599.377035,77,right,0.771185,peacock       ,3,5,-4,0,3,599.39496,599.39496,601.879895,0,76,76,76,1,77,7,3,camel         ,peacock       ,html/resources/sequences_IDs/A/03_camel.jpg,html/resources/sequences_IDs/A/05_peacock.jpg,3,5,1,1,2,1,2,4,0,51,,,,,,,,,,,,,,,,,,,,
,,,,,51,2020-07-04_15h19.02.603,retriever_ti,2020.1.3,Win32,60,Chrome,1366,768,,,,,,,,,,,,,,,,,,,,,,,,,,,,,,,,,,,,,0,3.588265,,,,,,,,,,,,,,,,,,,,,,,,,,,,,,,,,,,,,,,,,0,0,0,0,1,,,,,,,,,,,,,,,
,,,,,51,2020-07-04_15h19.02.603,retriever_ti,2020.1.3,Win32,60,Chrome,1366,768,,,,,,,,,,,,,,,,,2,,,,,,,,,,,,,,,,,,,,,,,,,,,625.716595,78,right,1.047315,holdfast    ,4,4,1,1,1,625.751655,625.751655,628.238335,0,0,0,0,1,78,3,4,peacock       ,holdfast    ,html/resources/sequences_IDs/A/05_peacock.jpg,html/resources/sequences_IDs/B/04_holdfast.jpg,5,4,2,1,2,1,4,3,0,51,,,,,,,,,,,,,,,,,,,,
,,,,,51,2020-07-04_15h19.02.603,retriever_ti,2020.1.3,Win32,60,Chrome,1366,768,,,,,,,,,,,,,,,,,2,,,,,,,,,,,,,,,,,,,,,,,,,,,629.34142,79,left,0.938535,dolphin     ,8,2,5,1,3,629.359855,629.359855,631.846025,0,1,1,1,1,79,8,3,dolphin     ,peacock       ,html/resources/sequences_IDs/B/02_dolphin.jpg,html/resources/sequences_IDs/A/05_peacock.jpg,2,5,1,1,2,1,1,4,0,51,,,,,,,,,,,,,,,,,,,,
,,,,,51,2020-07-04_15h19.02.603,retriever_ti,2020.1.3,Win32,60,Chrome,1366,768,,,,,,,,,,,,,,,,,2,,,,,,,,,,,,,,,,,,,,,,,,,,,632.449295,80,right,1.362065,dolphin     ,8,2,1,1,1,632.46728,632.46728,634.953445,0,2,2,2,1,80,7,8,camel         ,dolphin     ,html/resources/sequences_IDs/A/03_camel.jpg,html/resources/sequences_IDs/B/02_dolphin.jpg,3,2,1,1,1,1,2,1,0,51,,,,,,,,,,,,,,,,,,,,
,,,,,51,2020-07-04_15h19.02.603,retriever_ti,2020.1.3,Win32,60,Chrome,1366,768,,,,,,,,,,,,,,,,,2,,,,,,,,,,,,,,,,,,,,,,,,,,,636.058015,81,right,1.75949,satellite_dish,1,10,-3,0,3,636.075665,636.075665,638.56094,0,3,3,3,1,81,4,1,holdfast    ,satellite_dish,html/resources/sequences_IDs/B/04_holdfast.jpg,html/resources/sequences_IDs/A/10_satellite_dish.jpg,4,10,2,1,4,2,3,8,0,51,,,,,,,,,,,,,,,,,,,,
,,,,,51,2020-07-04_15h19.02.603,retriever_ti,2020.1.3,Win32,60,Chrome,1366,768,,,,,,,,,,,,,,,,,2,,,,,,,,,,,,,,,,,,,,,,,,,,,639.16286,82,right,1.368085,camel         ,7,3,1,1,1,639.198025,639.198025,641.684325,0,4,4,4,1,82,6,7,sport_tshirt,camel         ,html/resources/sequences_IDs/B/07_sport_tshirt.jpg,html/resources/sequences_IDs/A/03_camel.jpg,7,3,3,2,1,1,5,2,0,51,,,,,,,,,,,,,,,,,,,,
,,,,,51,2020-07-04_15h19.02.603,retriever_ti,2020.1.3,Win32,60,Chrome,1366,768,,,,,,,,,,,,,,,,,2,,,,,,,,,,,,,,,,,,,,,,,,,,,642.78843,83,right,1.71568,holdfast    ,4,4,-1,0,0,642.822515,642.822515,645.308935,0,5,5,5,1,83,5,4,hat           ,holdfast    ,html/resources/sequences_IDs/A/08_hat.jpg,html/resources/sequences_IDs/B/04_holdfast.jpg,8,4,3,2,2,1,6,3,0,51,,,,,,,,,,,,,,,,,,,,
,,,,,51,2020-07-04_15h19.02.603,retriever_ti,2020.1.3,Win32,60,Chrome,1366,768,,,,,,,,,,,,,,,,,2,,,,,,,,,,,,,,,,,,,,,,,,,,,646.414245,84,left,0.910555,camel         ,7,3,4,1,3,646.43182,646.43182,648.91761,0,6,6,6,1,84,7,3,camel         ,peacock       ,html/resources/sequences_IDs/A/03_camel.jpg,html/resources/sequences_IDs/A/05_peacock.jpg,3,5,1,1,2,1,2,4,0,51,,,,,,,,,,,,,,,,,,,,
,,,,,51,2020-07-04_15h19.02.603,retriever_ti,2020.1.3,Win32,60,Chrome,1366,768,,,,,,,,,,,,,,,,,2,,,,,,,,,,,,,,,,,,,,,,,,,,,649.5197,85,right,1.02501,dolphin     ,8,2,7,1,3,649.53903,649.53903,652.023545,0,7,7,7,1,85,1,8,satellite_dish,dolphin     ,html/resources/sequences_IDs/A/10_satellite_dish.jpg,html/resources/sequences_IDs/B/02_dolphin.jpg,10,2,4,2,1,1,8,1,0,51,,,,,,,,,,,,,,,,,,,,
,,,,,51,2020-07-04_15h19.02.603,retriever_ti,2020.1.3,Win32,60,Chrome,1366,768,,,,,,,,,,,,,,,,,2,,,,,,,,,,,,,,,,,,,,,,,,,,,652.62656,86,left,0.86219,phone       ,2,9,-4,0,3,652.64379,652.64379,655.130465,0,8,8,8,1,86,2,6,phone       ,sport_tshirt,html/resources/sequences_IDs/B/09_phone.jpg,html/resources/sequences_IDs/B/07_sport_tshirt.jpg,9,7,4,2,3,2,7,5,0,51,,,,,,,,,,,,,,,,,,,,
,,,,,51,2020-07-04_15h19.02.603,retriever_ti,2020.1.3,Win32,60,Chrome,1366,768,,,,,,,,,,,,,,,,,2,,,,,,,,,,,,,,,,,,,,,,,,,,,655.7324,87,right,1.1043,phone       ,2,9,-1,0,0,655.75043,655.75043,658.23693,0,9,9,9,1,87,3,2,peacock       ,phone       ,html/resources/sequences_IDs/A/05_peacock.jpg,html/resources/sequences_IDs/B/09_phone.jpg,5,9,2,1,4,2,4,7,0,51,,,,,,,,,,,,,,,,,,,,
,,,,,51,2020-07-04_15h19.02.603,retriever_ti,2020.1.3,Win32,60,Chrome,1366,768,,,,,,,,,,,,,,,,,2,,,,,,,,,,,,,,,,,,,,,,,,,,,659.34205,88,left,0.645305,dolphin     ,8,2,7,1,3,659.376615,659.376615,661.86144,0,10,10,10,1,88,8,1,dolphin     ,satellite_dish,html/resources/sequences_IDs/B/02_dolphin.jpg,html/resources/sequences_IDs/A/10_satellite_dish.jpg,2,10,1,1,4,2,1,8,0,51,,,,,,,,,,,,,,,,,,,,
,,,,,51,2020-07-04_15h19.02.603,retriever_ti,2020.1.3,Win32,60,Chrome,1366,768,,,,,,,,,,,,,,,,,2,,,,,,,,,,,,,,,,,,,,,,,,,,,662.464375,89,right,1.274245,sport_tshirt,6,7,-1,0,1,662.49836,662.49836,664.98478,0,11,11,11,1,89,7,6,camel         ,sport_tshirt,html/resources/sequences_IDs/A/03_camel.jpg,html/resources/sequences_IDs/B/07_sport_tshirt.jpg,3,7,1,1,3,2,2,5,1,51,,,,,,,,,,,,,,,,,,,,
,,,,,51,2020-07-04_15h19.02.603,retriever_ti,2020.1.3,Win32,60,Chrome,1366,768,,,,,,,,,,,,,,,,,2,,,,,,,,,,,,,,,,,,,,,,,,,,,666.088925,90,right,0.76558,camel         ,7,3,6,1,3,666.12314,666.12314,668.609615,0,12,12,12,1,90,1,7,satellite_dish,camel         ,html/resources/sequences_IDs/A/10_satellite_dish.jpg,html/resources/sequences_IDs/A/03_camel.jpg,10,3,4,2,1,1,8,2,0,51,,,,,,,,,,,,,,,,,,,,
,,,,,51,2020-07-04_15h19.02.603,retriever_ti,2020.1.3,Win32,60,Chrome,1366,768,,,,,,,,,,,,,,,,,2,,,,,,,,,,,,,,,,,,,,,,,,,,,669.21169,91,right,0.75542,peacock       ,3,5,-2,0,3,669.24703,669.24703,671.73282,0,13,13,13,1,91,5,3,hat           ,peacock       ,html/resources/sequences_IDs/A/08_hat.jpg,html/resources/sequences_IDs/A/05_peacock.jpg,8,5,3,2,2,1,6,4,0,51,,,,,,,,,,,,,,,,,,,,
,,,,,51,2020-07-04_15h19.02.603,retriever_ti,2020.1.3,Win32,60,Chrome,1366,768,,,,,,,,,,,,,,,,,2,,,,,,,,,,,,,,,,,,,,,,,,,,,672.33579,92,left,0.99856,phone       ,2,9,1,1,1,672.3697,672.3697,674.85642,0,14,14,14,1,92,2,1,phone       ,satellite_dish,html/resources/sequences_IDs/B/09_phone.jpg,html/resources/sequences_IDs/A/10_satellite_dish.jpg,9,10,4,2,4,2,7,8,0,51,,,,,,,,,,,,,,,,,,,,
,,,,,51,2020-07-04_15h19.02.603,retriever_ti,2020.1.3,Win32,60,Chrome,1366,768,,,,,,,,,,,,,,,,,2,,,,,,,,,,,,,,,,,,,,,,,,,,,675.96148,93,right,0.90504,dolphin     ,8,2,5,1,3,675.97776,675.97776,678.464215,0,15,15,15,1,93,3,8,peacock       ,dolphin     ,html/resources/sequences_IDs/A/05_peacock.jpg,html/resources/sequences_IDs/B/02_dolphin.jpg,5,2,2,1,1,1,4,1,0,51,,,,,,,,,,,,,,,,,,,,
,,,,,51,2020-07-04_15h19.02.603,retriever_ti,2020.1.3,Win32,60,Chrome,1366,768,,,,,,,,,,,,,,,,,2,,,,,,,,,,,,,,,,,,,,,,,,,,,679.06838,94,right,0.7523,dolphin     ,8,2,2,1,3,679.085965,679.085965,681.5711,0,16,16,16,1,94,6,8,sport_tshirt,dolphin     ,html/resources/sequences_IDs/B/07_sport_tshirt.jpg,html/resources/sequences_IDs/B/02_dolphin.jpg,7,2,3,2,1,1,5,1,0,51,,,,,,,,,,,,,,,,,,,,
,,,,,51,2020-07-04_15h19.02.603,retriever_ti,2020.1.3,Win32,60,Chrome,1366,768,,,,,,,,,,,,,,,,,2,,,,,,,,,,,,,,,,,,,,,,,,,,,682.17347,95,left,1.085945,holdfast    ,4,4,2,1,3,682.208825,682.208825,684.69446,0,17,17,17,1,95,4,2,holdfast    ,phone       ,html/resources/sequences_IDs/B/04_holdfast.jpg,html/resources/sequences_IDs/B/09_phone.jpg,4,9,2,1,4,2,3,7,0,51,,,,,,,,,,,,,,,,,,,,
,,,,,51,2020-07-04_15h19.02.603,retriever_ti,2020.1.3,Win32,60,Chrome,1366,768,,,,,,,,,,,,,,,,,2,,,,,,,,,,,,,,,,,,,,,,,,,,,685.29738,96,right,1.58496,hat           ,5,8,-1,0,0,685.33138,685.33138,687.81882,0,18,18,18,1,96,6,5,sport_tshirt,hat           ,html/resources/sequences_IDs/B/07_sport_tshirt.jpg,html/resources/sequences_IDs/A/08_hat.jpg,7,8,3,2,3,2,5,6,0,51,,,,,,,,,,,,,,,,,,,,
,,,,,51,2020-07-04_15h19.02.603,retriever_ti,2020.1.3,Win32,60,Chrome,1366,768,,,,,,,,,,,,,,,,,2,,,,,,,,,,,,,,,,,,,,,,,,,,,688.923135,97,left,1.211785,camel         ,7,3,1,1,1,688.9577,688.9577,691.442555,0,19,19,19,1,97,7,6,camel         ,sport_tshirt,html/resources/sequences_IDs/A/03_camel.jpg,html/resources/sequences_IDs/B/07_sport_tshirt.jpg,3,7,1,1,3,2,2,5,0,51,,,,,,,,,,,,,,,,,,,,
,,,,,51,2020-07-04_15h19.02.603,retriever_ti,2020.1.3,Win32,60,Chrome,1366,768,,,,,,,,,,,,,,,,,2,,,,,,,,,,,,,,,,,,,,,,,,,,,692.546505,98,left,0.66687,peacock       ,3,5,1,1,1,692.56389,692.56389,695.050565,0,20,20,20,1,98,3,2,peacock       ,phone       ,html/resources/sequences_IDs/A/05_peacock.jpg,html/resources/sequences_IDs/B/09_phone.jpg,5,9,2,1,4,2,4,7,0,51,,,,,,,,,,,,,,,,,,,,
,,,,,51,2020-07-04_15h19.02.603,retriever_ti,2020.1.3,Win32,60,Chrome,1366,768,,,,,,,,,,,,,,,,,2,,,,,,,,,,,,,,,,,,,,,,,,,,,696.153515,99,left,1.360235,phone       ,2,9,1,1,1,696.17206,696.17206,698.658395,0,21,21,21,1,99,2,1,phone       ,satellite_dish,html/resources/sequences_IDs/B/09_phone.jpg,html/resources/sequences_IDs/A/10_satellite_dish.jpg,9,10,4,2,4,2,7,8,0,51,,,,,,,,,,,,,,,,,,,,
,,,,,51,2020-07-04_15h19.02.603,retriever_ti,2020.1.3,Win32,60,Chrome,1366,768,,,,,,,,,,,,,,,,,2,,,,,,,,,,,,,,,,,,,,,,,,,,,699.762935,100,left,1.581545,camel         ,7,3,3,1,3,699.78039,699.78039,702.26617,0,22,22,22,1,100,7,4,camel         ,holdfast    ,html/resources/sequences_IDs/A/03_camel.jpg,html/resources/sequences_IDs/B/04_holdfast.jpg,3,4,1,1,2,1,2,3,0,51,,,,,,,,,,,,,,,,,,,,
,,,,,51,2020-07-04_15h19.02.603,retriever_ti,2020.1.3,Win32,60,Chrome,1366,768,,,,,,,,,,,,,,,,,2,,,,,,,,,,,,,,,,,,,,,,,,,,,702.86919,101,right,0.80032,peacock       ,3,5,2,1,3,702.903285,702.903285,705.39055,0,23,23,23,1,101,1,3,satellite_dish,peacock       ,html/resources/sequences_IDs/A/10_satellite_dish.jpg,html/resources/sequences_IDs/A/05_peacock.jpg,10,5,4,2,2,1,8,4,0,51,,,,,,,,,,,,,,,,,,,,
,,,,,51,2020-07-04_15h19.02.603,retriever_ti,2020.1.3,Win32,60,Chrome,1366,768,,,,,,,,,,,,,,,,,2,,,,,,,,,,,,,,,,,,,,,,,,,,,705.992495,102,right,1.12554,hat           ,5,8,4,1,3,706.011365,706.011365,708.49627,0,24,24,24,1,102,1,5,satellite_dish,hat           ,html/resources/sequences_IDs/A/10_satellite_dish.jpg,html/resources/sequences_IDs/A/08_hat.jpg,10,8,4,2,3,2,8,6,0,51,,,,,,,,,,,,,,,,,,,,
,,,,,51,2020-07-04_15h19.02.603,retriever_ti,2020.1.3,Win32,60,Chrome,1366,768,,,,,,,,,,,,,,,,,2,,,,,,,,,,,,,,,,,,,,,,,,,,,709.099275,103,right,1.18183,camel         ,7,3,3,1,3,709.13329,709.13329,711.62057,0,25,25,25,1,103,4,7,holdfast    ,camel         ,html/resources/sequences_IDs/B/04_holdfast.jpg,html/resources/sequences_IDs/A/03_camel.jpg,4,3,2,1,1,1,3,2,0,51,,,,,,,,,,,,,,,,,,,,
,,,,,51,2020-07-04_15h19.02.603,retriever_ti,2020.1.3,Win32,60,Chrome,1366,768,,,,,,,,,,,,,,,,,2,,,,,,,,,,,,,,,,,,,,,,,,,,,712.222745,104,right,0.86309,camel         ,7,3,4,1,3,712.24139,712.24139,714.726475,0,26,26,26,1,104,3,7,peacock       ,camel         ,html/resources/sequences_IDs/A/05_peacock.jpg,html/resources/sequences_IDs/A/03_camel.jpg,5,3,2,1,1,1,4,2,0,51,,,,,,,,,,,,,,,,,,,,
,,,,,51,2020-07-04_15h19.02.603,retriever_ti,2020.1.3,Win32,60,Chrome,1366,768,,,,,,,,,,,,,,,,,2,,,,,,,,,,,,,,,,,,,,,,,,,,,715.333625,105,left,0.668035,dolphin     ,8,2,4,1,3,715.348395,715.348395,717.83332,0,27,27,27,1,105,8,4,dolphin     ,holdfast    ,html/resources/sequences_IDs/B/02_dolphin.jpg,html/resources/sequences_IDs/B/04_holdfast.jpg,2,4,1,1,2,1,1,3,0,51,,,,,,,,,,,,,,,,,,,,
,,,,,51,2020-07-04_15h19.02.603,retriever_ti,2020.1.3,Win32,60,Chrome,1366,768,,,,,,,,,,,,,,,,,2,,,,,,,,,,,,,,,,,,,,,,,,,,,718.435355,106,right,0.67699,sport_tshirt,6,7,5,1,3,718.47053,718.47053,720.956885,0,28,28,28,1,106,1,6,satellite_dish,sport_tshirt,html/resources/sequences_IDs/A/10_satellite_dish.jpg,html/resources/sequences_IDs/B/07_sport_tshirt.jpg,10,7,4,2,3,2,8,5,0,51,,,,,,,,,,,,,,,,,,,,
,,,,,51,2020-07-04_15h19.02.603,retriever_ti,2020.1.3,Win32,60,Chrome,1366,768,,,,,,,,,,,,,,,,,2,,,,,,,,,,,,,,,,,,,,,,,,,,,721.559995,107,right,0.6845,hat           ,5,8,-2,0,3,721.577305,721.577305,724.064235,0,29,29,29,1,107,7,5,camel         ,hat           ,html/resources/sequences_IDs/A/03_camel.jpg,html/resources/sequences_IDs/A/08_hat.jpg,3,8,1,1,3,2,2,6,0,51,,,,,,,,,,,,,,,,,,,,
,,,,,51,2020-07-04_15h19.02.603,retriever_ti,2020.1.3,Win32,60,Chrome,1366,768,,,,,,,,,,,,,,,,,2,,,,,,,,,,,,,,,,,,,,,,,,,,,724.66658,108,right,1.4079,sport_tshirt,6,7,1,1,1,724.68514,724.68514,727.17028,0,30,30,30,1,108,5,6,hat           ,sport_tshirt,html/resources/sequences_IDs/A/08_hat.jpg,html/resources/sequences_IDs/B/07_sport_tshirt.jpg,8,7,3,2,3,2,6,5,0,51,,,,,,,,,,,,,,,,,,,,
,,,,,51,2020-07-04_15h19.02.603,retriever_ti,2020.1.3,Win32,60,Chrome,1366,768,,,,,,,,,,,,,,,,,2,,,,,,,,,,,,,,,,,,,,,,,,,,,728.274685,109,left,0.623665,dolphin     ,8,2,2,1,3,728.30855,728.30855,730.79541,0,31,31,31,1,109,8,6,dolphin     ,sport_tshirt,html/resources/sequences_IDs/B/02_dolphin.jpg,html/resources/sequences_IDs/B/07_sport_tshirt.jpg,2,7,1,1,3,2,1,5,0,51,,,,,,,,,,,,,,,,,,,,
,,,,,51,2020-07-04_15h19.02.603,retriever_ti,2020.1.3,Win32,60,Chrome,1366,768,,,,,,,,,,,,,,,,,2,,,,,,,,,,,,,,,,,,,,,,,,,,,731.399025,110,left,0.84509,camel         ,7,3,5,1,3,731.416545,731.416545,733.90149,0,32,32,32,1,110,7,2,camel         ,phone       ,html/resources/sequences_IDs/A/03_camel.jpg,html/resources/sequences_IDs/B/09_phone.jpg,3,9,1,1,4,2,2,7,0,51,,,,,,,,,,,,,,,,,,,,
,,,,,51,2020-07-04_15h19.02.603,retriever_ti,2020.1.3,Win32,60,Chrome,1366,768,,,,,,,,,,,,,,,,,2,,,,,,,,,,,,,,,,,,,,,,,,,,,734.50384,111,right,0.730815,dolphin     ,8,2,1,1,1,734.52209,734.52209,737.00836,0,33,33,33,1,111,7,8,camel         ,dolphin     ,html/resources/sequences_IDs/A/03_camel.jpg,html/resources/sequences_IDs/B/02_dolphin.jpg,3,2,1,1,1,1,2,1,0,51,,,,,,,,,,,,,,,,,,,,
,,,,,51,2020-07-04_15h19.02.603,retriever_ti,2020.1.3,Win32,60,Chrome,1366,768,,,,,,,,,,,,,,,,,2,,,,,,,,,,,,,,,,,,,,,,,,,,,738.112795,112,right,0.622095,camel         ,7,3,5,1,3,738.13021,738.13021,740.616145,0,34,34,34,1,112,2,7,phone       ,camel         ,html/resources/sequences_IDs/B/09_phone.jpg,html/resources/sequences_IDs/A/03_camel.jpg,9,3,4,2,1,1,7,2,0,51,,,,,,,,,,,,,,,,,,,,
,,,,,51,2020-07-04_15h19.02.603,retriever_ti,2020.1.3,Win32,60,Chrome,1366,768,,,,,,,,,,,,,,,,,2,,,,,,,,,,,,,,,,,,,,,,,,,,,741.220045,113,right,0.895825,hat           ,5,8,1,1,0,741.25326,741.25326,743.739665,0,35,35,35,1,113,4,5,holdfast    ,hat           ,html/resources/sequences_IDs/B/04_holdfast.jpg,html/resources/sequences_IDs/A/08_hat.jpg,4,8,2,1,3,2,3,6,1,51,,,,,,,,,,,,,,,,,,,,
,,,,,51,2020-07-04_15h19.02.603,retriever_ti,2020.1.3,Win32,60,Chrome,1366,768,,,,,,,,,,,,,,,,,2,,,,,,,,,,,,,,,,,,,,,,,,,,,744.842765,114,left,0.58435,holdfast    ,4,4,-1,0,0,744.8779,744.8779,747.898885,0,36,36,36,1,114,4,5,holdfast    ,hat           ,html/resources/sequences_IDs/B/04_holdfast.jpg,html/resources/sequences_IDs/A/08_hat.jpg,4,8,2,1,3,2,3,6,0,51,,,,,,,,,,,,,,,,,,,,
,,,,,51,2020-07-04_15h19.02.603,retriever_ti,2020.1.3,Win32,60,Chrome,1366,768,,,,,,,,,,,,,,,,,2,,,,,,,,,,,,,,,,,,,,,,,,,,,749.00309,115,right,0.848055,peacock       ,3,5,1,1,1,749.036785,749.036785,751.523895,0,37,37,37,1,115,2,3,phone       ,peacock       ,html/resources/sequences_IDs/B/09_phone.jpg,html/resources/sequences_IDs/A/05_peacock.jpg,9,5,4,2,2,1,7,4,0,51,,,,,,,,,,,,,,,,,,,,
,,,,,51,2020-07-04_15h19.02.603,retriever_ti,2020.1.3,Win32,60,Chrome,1366,768,,,,,,,,,,,,,,,,,2,,,,,,,,,,,,,,,,,,,,,,,,,,,752.62816,116,left,0.710125,peacock       ,3,5,2,1,3,752.64591,752.64591,755.131575,0,38,38,38,1,116,3,1,peacock       ,satellite_dish,html/resources/sequences_IDs/A/05_peacock.jpg,html/resources/sequences_IDs/A/10_satellite_dish.jpg,5,10,2,1,4,2,4,8,0,51,,,,,,,,,,,,,,,,,,,,
,,,,,51,2020-07-04_15h19.02.603,retriever_ti,2020.1.3,Win32,60,Chrome,1366,768,,,,,,,,,,,,,,,,,2,,,,,,,,,,,,,,,,,,,,,,,,,,,755.733875,117,right,0.810085,sport_tshirt,6,7,2,1,3,755.771455,755.771455,758.271325,0,39,39,39,1,117,4,6,holdfast    ,sport_tshirt,html/resources/sequences_IDs/B/04_holdfast.jpg,html/resources/sequences_IDs/B/07_sport_tshirt.jpg,4,7,2,1,3,2,3,5,0,51,,,,,,,,,,,,,,,,,,,,
,,,,,51,2020-07-04_15h19.02.603,retriever_ti,2020.1.3,Win32,60,Chrome,1366,768,,,,,,,,,,,,,,,,,2,,,,,,,,,,,,,,,,,,,,,,,,,,,758.873965,118,right,0.87489,dolphin     ,8,2,4,1,3,758.892995,758.892995,761.37863,0,40,40,40,1,118,4,8,holdfast    ,dolphin     ,html/resources/sequences_IDs/B/04_holdfast.jpg,html/resources/sequences_IDs/B/02_dolphin.jpg,4,2,2,1,1,1,3,1,0,51,,,,,,,,,,,,,,,,,,,,
,,,,,51,2020-07-04_15h19.02.603,retriever_ti,2020.1.3,Win32,60,Chrome,1366,768,,,,,,,,,,,,,,,,,2,,,,,,,,,,,,,,,,,,,,,,,,,,,761.98098,119,left,0.70634,dolphin     ,8,2,1,1,1,761.999425,761.999425,764.484955,0,41,41,41,1,119,8,7,dolphin     ,camel         ,html/resources/sequences_IDs/B/02_dolphin.jpg,html/resources/sequences_IDs/A/03_camel.jpg,2,3,1,1,1,1,1,2,0,51,,,,,,,,,,,,,,,,,,,,
,,,,,51,2020-07-04_15h19.02.603,retriever_ti,2020.1.3,Win32,60,Chrome,1366,768,,,,,,,,,,,,,,,,,2,,,,,,,,,,,,,,,,,,,,,,,,,,,765.590765,120,right,0.647165,peacock       ,3,5,-1,0,0,765.607305,765.607305,768.09195,0,42,42,42,1,120,4,3,holdfast    ,peacock       ,html/resources/sequences_IDs/B/04_holdfast.jpg,html/resources/sequences_IDs/A/05_peacock.jpg,4,5,2,1,2,1,3,4,0,51,,,,,,,,,,,,,,,,,,,,
,,,,,51,2020-07-04_15h19.02.603,retriever_ti,2020.1.3,Win32,60,Chrome,1366,768,,,,,,,,,,,,,,,,,2,,,,,,,,,,,,,,,,,,,,,,,,,,,769.196065,121,left,0.75194,phone       ,2,9,1,1,0,769.213415,769.213415,771.699835,0,43,43,43,1,121,2,1,phone       ,satellite_dish,html/resources/sequences_IDs/B/09_phone.jpg,html/resources/sequences_IDs/A/10_satellite_dish.jpg,9,10,4,2,4,2,7,8,1,51,,,,,,,,,,,,,,,,,,,,
,,,,,51,2020-07-04_15h19.02.603,retriever_ti,2020.1.3,Win32,60,Chrome,1366,768,,,,,,,,,,,,,,,,,2,,,,,,,,,,,,,,,,,,,,,,,,,,,772.803805,122,left,1.52076,peacock       ,3,5,-2,0,3,772.83944,772.83944,775.324885,0,44,44,44,1,122,3,5,peacock       ,hat           ,html/resources/sequences_IDs/A/05_peacock.jpg,html/resources/sequences_IDs/A/08_hat.jpg,5,8,2,1,3,2,4,6,0,51,,,,,,,,,,,,,,,,,,,,
,,,,,51,2020-07-04_15h19.02.603,retriever_ti,2020.1.3,Win32,60,Chrome,1366,768,,,,,,,,,,,,,,,,,2,,,,,,,,,,,,,,,,,,,,,,,,,,,775.927535,123,right,0.91889,sport_tshirt,6,7,-1,0,0,775.96257,775.96257,778.44745,0,45,45,45,1,123,7,6,camel         ,sport_tshirt,html/resources/sequences_IDs/A/03_camel.jpg,html/resources/sequences_IDs/B/07_sport_tshirt.jpg,3,7,1,1,3,2,2,5,0,51,,,,,,,,,,,,,,,,,,,,
,,,,,51,2020-07-04_15h19.02.603,retriever_ti,2020.1.3,Win32,60,Chrome,1366,768,,,,,,,,,,,,,,,,,2,,,,,,,,,,,,,,,,,,,,,,,,,,,779.55169,124,right,0.619245,peacock       ,3,5,-1,0,1,779.585715,779.585715,782.072205,0,46,46,46,1,124,4,3,holdfast    ,peacock       ,html/resources/sequences_IDs/B/04_holdfast.jpg,html/resources/sequences_IDs/A/05_peacock.jpg,4,5,2,1,2,1,3,4,1,51,,,,,,,,,,,,,,,,,,,,
,,,,,51,2020-07-04_15h19.02.603,retriever_ti,2020.1.3,Win32,60,Chrome,1366,768,,,,,,,,,,,,,,,,,2,,,,,,,,,,,,,,,,,,,,,,,,,,,783.176365,125,right,0.674655,peacock       ,3,5,-3,0,3,783.19456,783.19456,785.6799,0,47,47,47,1,125,6,3,sport_tshirt,peacock       ,html/resources/sequences_IDs/B/07_sport_tshirt.jpg,html/resources/sequences_IDs/A/05_peacock.jpg,7,5,3,2,2,1,5,4,0,51,,,,,,,,,,,,,,,,,,,,
,,,,,51,2020-07-04_15h19.02.603,retriever_ti,2020.1.3,Win32,60,Chrome,1366,768,,,,,,,,,,,,,,,,,2,,,,,,,,,,,,,,,,,,,,,,,,,,,786.288735,126,left,1.38867,sport_tshirt,6,7,1,1,1,786.316935,786.316935,788.80339,0,48,48,48,1,126,6,5,sport_tshirt,hat           ,html/resources/sequences_IDs/B/07_sport_tshirt.jpg,html/resources/sequences_IDs/A/08_hat.jpg,7,8,3,2,3,2,5,6,0,51,,,,,,,,,,,,,,,,,,,,
,,,,,51,2020-07-04_15h19.02.603,retriever_ti,2020.1.3,Win32,60,Chrome,1366,768,,,,,,,,,,,,,,,,,2,,,,,,,,,,,,,,,,,,,,,,,,,,,789.90677,127,left,0.796135,peacock       ,3,5,-1,0,0,789.94156,789.94156,792.428535,0,49,49,49,1,127,3,4,peacock       ,holdfast    ,html/resources/sequences_IDs/A/05_peacock.jpg,html/resources/sequences_IDs/B/04_holdfast.jpg,5,4,2,1,2,1,4,3,0,51,,,,,,,,,,,,,,,,,,,,
,,,,,51,2020-07-04_15h19.02.603,retriever_ti,2020.1.3,Win32,60,Chrome,1366,768,,,,,,,,,,,,,,,,,2,,,,,,,,,,,,,,,,,,,,,,,,,,,793.533225,128,left,1.732665,sport_tshirt,6,7,2,1,3,793.550795,793.550795,796.03602,0,50,50,50,1,128,6,4,sport_tshirt,holdfast    ,html/resources/sequences_IDs/B/07_sport_tshirt.jpg,html/resources/sequences_IDs/B/04_holdfast.jpg,7,4,3,2,2,1,5,3,0,51,,,,,,,,,,,,,,,,,,,,
,,,,,51,2020-07-04_15h19.02.603,retriever_ti,2020.1.3,Win32,60,Chrome,1366,768,,,,,,,,,,,,,,,,,2,,,,,,,,,,,,,,,,,,,,,,,,,,,796.640115,129,left,0.972005,dolphin     ,8,2,6,1,3,796.67441,796.67441,799.15932,0,51,51,51,1,129,8,2,dolphin     ,phone       ,html/resources/sequences_IDs/B/02_dolphin.jpg,html/resources/sequences_IDs/B/09_phone.jpg,2,9,1,1,4,2,1,7,0,51,,,,,,,,,,,,,,,,,,,,
,,,,,51,2020-07-04_15h19.02.603,retriever_ti,2020.1.3,Win32,60,Chrome,1366,768,,,,,,,,,,,,,,,,,2,,,,,,,,,,,,,,,,,,,,,,,,,,,799.76133,130,left,1.044195,satellite_dish,1,10,-1,0,0,799.79708,799.79708,802.282875,0,52,52,52,1,130,1,2,satellite_dish,phone       ,html/resources/sequences_IDs/A/10_satellite_dish.jpg,html/resources/sequences_IDs/B/09_phone.jpg,10,9,4,2,4,2,8,7,0,51,,,,,,,,,,,,,,,,,,,,
,,,,,51,2020-07-04_15h19.02.603,retriever_ti,2020.1.3,Win32,60,Chrome,1366,768,,,,,,,,,,,,,,,,,2,,,,,,,,,,,,,,,,,,,,,,,,,,,803.3869,131,left,1.052645,hat           ,5,8,-3,0,3,803.421115,803.421115,805.90797,0,53,53,53,1,131,5,8,hat           ,dolphin     ,html/resources/sequences_IDs/A/08_hat.jpg,html/resources/sequences_IDs/B/02_dolphin.jpg,8,2,3,2,1,1,6,1,0,51,,,,,,,,,,,,,,,,,,,,
,,,,,51,2020-07-04_15h19.02.603,retriever_ti,2020.1.3,Win32,60,Chrome,1366,768,,,,,,,,,,,,,,,,,2,,,,,,,,,,,,,,,,,,,,,,,,,,,806.51026,132,right,0.75623,phone       ,2,9,1,1,1,806.527905,806.527905,809.015015,0,54,54,54,1,132,1,2,satellite_dish,phone       ,html/resources/sequences_IDs/A/10_satellite_dish.jpg,html/resources/sequences_IDs/B/09_phone.jpg,10,9,4,2,4,2,8,7,0,51,,,,,,,,,,,,,,,,,,,,
,,,,,51,2020-07-04_15h19.02.603,retriever_ti,2020.1.3,Win32,60,Chrome,1366,768,,,,,,,,,,,,,,,,,2,,,,,,,,,,,,,,,,,,,,,,,,,,,810.118245,133,left,1.14857,sport_tshirt,6,7,4,1,3,810.153635,810.153635,812.63938,0,55,55,55,1,133,6,2,sport_tshirt,phone       ,html/resources/sequences_IDs/B/07_sport_tshirt.jpg,html/resources/sequences_IDs/B/09_phone.jpg,7,9,3,2,4,2,5,7,0,51,,,,,,,,,,,,,,,,,,,,
,,,,,51,2020-07-04_15h19.02.603,retriever_ti,2020.1.3,Win32,60,Chrome,1366,768,,,,,,,,,,,,,,,,,2,,,,,,,,,,,,,,,,,,,,,,,,,,,813.241855,134,left,0.912745,dolphin     ,8,2,3,1,3,813.275985,813.275985,815.762215,0,56,56,56,1,134,8,5,dolphin     ,hat           ,html/resources/sequences_IDs/B/02_dolphin.jpg,html/resources/sequences_IDs/A/08_hat.jpg,2,8,1,1,3,2,1,6,0,51,,,,,,,,,,,,,,,,,,,,
,,,,,51,2020-07-04_15h19.02.603,retriever_ti,2020.1.3,Win32,60,Chrome,1366,768,,,,,,,,,,,,,,,,,2,,,,,,,,,,,,,,,,,,,,,,,,,,,816.36409,135,left,1.429635,sport_tshirt,6,7,1,1,0,816.382725,816.382725,818.868995,0,57,57,57,1,135,6,5,sport_tshirt,hat           ,html/resources/sequences_IDs/B/07_sport_tshirt.jpg,html/resources/sequences_IDs/A/08_hat.jpg,7,8,3,2,3,2,5,6,1,51,,,,,,,,,,,,,,,,,,,,
,,,,,51,2020-07-04_15h19.02.603,retriever_ti,2020.1.3,Win32,60,Chrome,1366,768,,,,,,,,,,,,,,,,,2,,,,,,,,,,,,,,,,,,,,,,,,,,,819.972975,136,left,0.60696,sport_tshirt,6,7,5,1,3,819.99057,819.99057,822.477655,0,58,58,58,1,136,6,1,sport_tshirt,satellite_dish,html/resources/sequences_IDs/B/07_sport_tshirt.jpg,html/resources/sequences_IDs/A/10_satellite_dish.jpg,7,10,3,2,4,2,5,8,0,51,,,,,,,,,,,,,,,,,,,,
,,,,,51,2020-07-04_15h19.02.603,retriever_ti,2020.1.3,Win32,60,Chrome,1366,768,,,,,,,,,,,,,,,,,2,,,,,,,,,,,,,,,,,,,,,,,,,,,823.080805,137,left,0.96565,satellite_dish,1,10,-3,0,3,823.09826,823.09826,825.584075,0,59,59,59,1,137,1,4,satellite_dish,holdfast    ,html/resources/sequences_IDs/A/10_satellite_dish.jpg,html/resources/sequences_IDs/B/04_holdfast.jpg,10,4,4,2,2,1,8,3,0,51,,,,,,,,,,,,,,,,,,,,
,,,,,51,2020-07-04_15h19.02.603,retriever_ti,2020.1.3,Win32,60,Chrome,1366,768,,,,,,,,,,,,,,,,,2,,,,,,,,,,,,,,,,,,,,,,,,,,,826.186905,138,right,0.820735,camel         ,7,3,2,1,3,826.20525,826.20525,828.702825,0,60,60,60,1,138,5,7,hat           ,camel         ,html/resources/sequences_IDs/A/08_hat.jpg,html/resources/sequences_IDs/A/03_camel.jpg,8,3,3,2,1,1,6,2,0,51,,,,,,,,,,,,,,,,,,,,
,,,,,51,2020-07-04_15h19.02.603,retriever_ti,2020.1.3,Win32,60,Chrome,1366,768,,,,,,,,,,,,,,,,,2,,,,,,,,,,,,,,,,,,,,,,,,,,,829.31003,139,right,0.71756,peacock       ,3,5,-1,0,0,829.3442,829.3442,831.83048,0,61,61,61,1,139,4,3,holdfast    ,peacock       ,html/resources/sequences_IDs/B/04_holdfast.jpg,html/resources/sequences_IDs/A/05_peacock.jpg,4,5,2,1,2,1,3,4,0,51,,,,,,,,,,,,,,,,,,,,
,,,,,51,2020-07-04_15h19.02.603,retriever_ti,2020.1.3,Win32,60,Chrome,1366,768,,,,,,,,,,,,,,,,,2,,,,,,,,,,,,,,,,,,,,,,,,,,,832.934565,140,NaN,NaN,No_response,NaN,NaN,NaN,2,2,832.96866,832.96866,835.455155,0,62,62,62,1,140,2,4,phone       ,holdfast    ,html/resources/sequences_IDs/B/09_phone.jpg,html/resources/sequences_IDs/B/04_holdfast.jpg,9,4,4,2,2,1,7,3,0,51,,,,,,,,,,,,,,,,,,,,
,,,,,51,2020-07-04_15h19.02.603,retriever_ti,2020.1.3,Win32,60,Chrome,1366,768,,,,,,,,,,,,,,,,,2,,,,,,,,,,,,,,,,,,,,,,,,,,,836.55829,141,left,0.973765,phone       ,2,9,-3,0,3,836.576515,836.576515,839.06343,0,63,63,63,1,141,2,5,phone       ,hat           ,html/resources/sequences_IDs/B/09_phone.jpg,html/resources/sequences_IDs/A/08_hat.jpg,9,8,4,2,3,2,7,6,0,51,,,,,,,,,,,,,,,,,,,,
,,,,,51,2020-07-04_15h19.02.603,retriever_ti,2020.1.3,Win32,60,Chrome,1366,768,,,,,,,,,,,,,,,,,2,,,,,,,,,,,,,,,,,,,,,,,,,,,839.666955,142,right,0.92493,phone       ,2,9,-3,0,3,839.68456,839.68456,842.170365,0,64,64,64,1,142,5,2,hat           ,phone       ,html/resources/sequences_IDs/A/08_hat.jpg,html/resources/sequences_IDs/B/09_phone.jpg,8,9,3,2,4,2,6,7,0,51,,,,,,,,,,,,,,,,,,,,
,,,,,51,2020-07-04_15h19.02.603,retriever_ti,2020.1.3,Win32,60,Chrome,1366,768,,,,,,,,,,,,,,,,,2,,,,,,,,,,,,,,,,,,,,,,,,,,,842.772695,143,left,1.26436,holdfast    ,4,4,-1,0,0,842.808035,842.808035,845.29307,0,65,65,65,1,143,4,5,holdfast    ,hat           ,html/resources/sequences_IDs/B/04_holdfast.jpg,html/resources/sequences_IDs/A/08_hat.jpg,4,8,2,1,3,2,3,6,0,51,,,,,,,,,,,,,,,,,,,,
,,,,,51,2020-07-04_15h19.02.603,retriever_ti,2020.1.3,Win32,60,Chrome,1366,768,,,,,,,,,,,,,,,,,2,,,,,,,,,,,,,,,,,,,,,,,,,,,846.39687,144,right,0.84249,sport_tshirt,6,7,1,1,1,846.43244,846.43244,849.001345,0,66,66,66,1,144,5,6,hat           ,sport_tshirt,html/resources/sequences_IDs/A/08_hat.jpg,html/resources/sequences_IDs/B/07_sport_tshirt.jpg,8,7,3,2,3,2,6,5,0,51,,,,,,,,,,,,,,,,,,,,
,,,,,51,2020-07-04_15h19.02.603,retriever_ti,2020.1.3,Win32,60,Chrome,1366,768,,,,,,,,,,,,,,,,,2,,,,,,,,,,,,,,,,,,,,,,,,,,,850.10522,145,left,0.874065,hat           ,5,8,4,1,3,850.14086,850.14086,852.625415,0,67,67,67,1,145,5,1,hat           ,satellite_dish,html/resources/sequences_IDs/A/08_hat.jpg,html/resources/sequences_IDs/A/10_satellite_dish.jpg,8,10,3,2,4,2,6,8,0,51,,,,,,,,,,,,,,,,,,,,
,,,,,51,2020-07-04_15h19.02.603,retriever_ti,2020.1.3,Win32,60,Chrome,1366,768,,,,,,,,,,,,,,,,,2,,,,,,,,,,,,,,,,,,,,,,,,,,,853.228515,146,left,0.698675,dolphin     ,8,2,1,1,0,853.24589,853.24589,855.732735,0,68,68,68,1,146,8,7,dolphin     ,camel         ,html/resources/sequences_IDs/B/02_dolphin.jpg,html/resources/sequences_IDs/A/03_camel.jpg,2,3,1,1,1,1,1,2,1,51,,,,,,,,,,,,,,,,,,,,
,,,,,51,2020-07-04_15h19.02.603,retriever_ti,2020.1.3,Win32,60,Chrome,1366,768,,,,,,,,,,,,,,,,,2,,,,,,,,,,,,,,,,,,,,,,,,,,,856.835235,147,right,0.851095,phone       ,2,9,-1,0,1,856.85364,856.85364,859.340155,0,69,69,69,1,147,3,2,peacock       ,phone       ,html/resources/sequences_IDs/A/05_peacock.jpg,html/resources/sequences_IDs/B/09_phone.jpg,5,9,2,1,4,2,4,7,1,51,,,,,,,,,,,,,,,,,,,,
,,,,,51,2020-07-04_15h19.02.603,retriever_ti,2020.1.3,Win32,60,Chrome,1366,768,,,,,,,,,,,,,,,,,2,,,,,,,,,,,,,,,,,,,,,,,,,,,860.444035,148,right,1.432285,peacock       ,3,5,1,1,1,860.47824,860.47824,862.964485,0,70,70,70,1,148,2,3,phone       ,peacock       ,html/resources/sequences_IDs/B/09_phone.jpg,html/resources/sequences_IDs/A/05_peacock.jpg,9,5,4,2,2,1,7,4,0,51,,,,,,,,,,,,,,,,,,,,
,,,,,51,2020-07-04_15h19.02.603,retriever_ti,2020.1.3,Win32,60,Chrome,1366,768,,,,,,,,,,,,,,,,,2,,,,,,,,,,,,,,,,,,,,,,,,,,,864.06881,149,left,0.85143,dolphin     ,8,2,1,1,1,864.102925,864.102925,866.589265,0,71,71,71,1,149,8,7,dolphin     ,camel         ,html/resources/sequences_IDs/B/02_dolphin.jpg,html/resources/sequences_IDs/A/03_camel.jpg,2,3,1,1,1,1,1,2,0,51,,,,,,,,,,,,,,,,,,,,
,,,,,51,2020-07-04_15h19.02.603,retriever_ti,2020.1.3,Win32,60,Chrome,1366,768,,,,,,,,,,,,,,,,,2,,,,,,,,,,,,,,,,,,,,,,,,,,,867.69341,150,right,0.86839,dolphin     ,8,2,6,1,3,867.727515,867.727515,870.214635,0,72,72,72,1,150,2,8,phone       ,dolphin     ,html/resources/sequences_IDs/B/09_phone.jpg,html/resources/sequences_IDs/B/02_dolphin.jpg,9,2,4,2,1,1,7,1,0,51,,,,,,,,,,,,,,,,,,,,
,,,,,51,2020-07-04_15h19.02.603,retriever_ti,2020.1.3,Win32,60,Chrome,1366,768,,,,,,,,,,,,,,,,,2,,,,,,,,,,,,,,,,,,,,,,,,,,,870.816735,151,left,0.630145,camel         ,7,3,6,1,3,870.852265,870.852265,873.337165,0,73,73,73,1,151,7,1,camel         ,satellite_dish,html/resources/sequences_IDs/A/03_camel.jpg,html/resources/sequences_IDs/A/10_satellite_dish.jpg,3,10,1,1,4,2,2,8,0,51,,,,,,,,,,,,,,,,,,,,
,,,,,51,2020-07-04_15h19.02.603,retriever_ti,2020.1.3,Win32,60,Chrome,1366,768,,,,,,,,,,,,,,,,,2,,,,,,,,,,,,,,,,,,,,,,,,,,,873.940175,152,right,0.693495,camel         ,7,3,1,1,1,873.95779,873.95779,876.44402,0,74,74,74,1,152,6,7,sport_tshirt,camel         ,html/resources/sequences_IDs/B/07_sport_tshirt.jpg,html/resources/sequences_IDs/A/03_camel.jpg,7,3,3,2,1,1,5,2,0,51,,,,,,,,,,,,,,,,,,,,
,,,,,51,2020-07-04_15h19.02.603,retriever_ti,2020.1.3,Win32,60,Chrome,1366,768,,,,,,,,,,,,,,,,,2,,,,,,,,,,,,,,,,,,,,,,,,,,,877.548205,153,right,1.26988,holdfast    ,4,4,-1,0,0,877.582435,877.582435,880.068525,0,75,75,75,1,153,5,4,hat           ,holdfast    ,html/resources/sequences_IDs/A/08_hat.jpg,html/resources/sequences_IDs/B/04_holdfast.jpg,8,4,3,2,2,1,6,3,0,51,,,,,,,,,,,,,,,,,,,,
,,,,,51,2020-07-04_15h19.02.603,retriever_ti,2020.1.3,Win32,60,Chrome,1366,768,,,,,,,,,,,,,,,,,2,,,,,,,,,,,,,,,,,,,,,,,,,,,881.172595,154,left,0.899245,peacock       ,3,5,-3,0,3,881.20654,881.20654,883.694295,0,76,76,76,1,154,3,6,peacock       ,sport_tshirt,html/resources/sequences_IDs/A/05_peacock.jpg,html/resources/sequences_IDs/B/07_sport_tshirt.jpg,5,7,2,1,3,2,4,5,0,51,,,,,,,,,,,,,,,,,,,,
,,,,,51,2020-07-04_15h19.02.603,retriever_ti,2020.1.3,Win32,60,Chrome,1366,768,,,,,,,,,,,,,,,,,,,,,,,,,,,,,,,,,,,,,0,1.92797,,,,,,,,,,,,,,,,,,,,,,,,,,,,,,,,,,,,,,,,,1,0,1,0,1,,,,,,,,,,,,,,,
,,,,,51,2020-07-04_15h19.02.603,retriever_ti,2020.1.3,Win32,60,Chrome,1366,768,,,,,,,,,,,,,,,,,3,,,,,,,,,,,,,,,,,,,,,,,,,,,895.67793,155,left,0.828725,hat           ,5,8,4,1,3,895.697305,895.697305,898.19211,0,0,0,0,1,155,5,1,hat           ,satellite_dish,html/resources/sequences_IDs/A/08_hat.jpg,html/resources/sequences_IDs/A/10_satellite_dish.jpg,8,10,3,2,4,2,6,8,0,51,,,,,,,,,,,,,,,,,,,,
,,,,,51,2020-07-04_15h19.02.603,retriever_ti,2020.1.3,Win32,60,Chrome,1366,768,,,,,,,,,,,,,,,,,3,,,,,,,,,,,,,,,,,,,,,,,,,,,898.796045,156,left,0.596255,dolphin     ,8,2,7,1,3,898.81453,898.81453,901.32955,0,1,1,1,1,156,8,1,dolphin     ,satellite_dish,html/resources/sequences_IDs/B/02_dolphin.jpg,html/resources/sequences_IDs/A/10_satellite_dish.jpg,2,10,1,1,4,2,1,8,0,51,,,,,,,,,,,,,,,,,,,,
,,,,,51,2020-07-04_15h19.02.603,retriever_ti,2020.1.3,Win32,60,Chrome,1366,768,,,,,,,,,,,,,,,,,3,,,,,,,,,,,,,,,,,,,,,,,,,,,901.936175,157,right,0.62904,camel         ,7,3,1,1,0,901.95393,901.95393,904.455705,0,2,2,2,1,157,6,7,sport_tshirt,camel         ,html/resources/sequences_IDs/B/07_sport_tshirt.jpg,html/resources/sequences_IDs/A/03_camel.jpg,7,3,3,2,1,1,5,2,1,51,,,,,,,,,,,,,,,,,,,,
,,,,,51,2020-07-04_15h19.02.603,retriever_ti,2020.1.3,Win32,60,Chrome,1366,768,,,,,,,,,,,,,,,,,3,,,,,,,,,,,,,,,,,,,,,,,,,,,905.55985,158,right,1.597455,holdfast    ,4,4,-1,0,1,905.594,905.594,908.08071,0,3,3,3,1,158,5,4,hat           ,holdfast    ,html/resources/sequences_IDs/A/08_hat.jpg,html/resources/sequences_IDs/B/04_holdfast.jpg,8,4,3,2,2,1,6,3,1,51,,,,,,,,,,,,,,,,,,,,
,,,,,51,2020-07-04_15h19.02.603,retriever_ti,2020.1.3,Win32,60,Chrome,1366,768,,,,,,,,,,,,,,,,,3,,,,,,,,,,,,,,,,,,,,,,,,,,,909.185235,159,right,0.81264,phone       ,2,9,1,1,1,909.202735,909.202735,911.68781,0,4,4,4,1,159,1,2,satellite_dish,phone       ,html/resources/sequences_IDs/A/10_satellite_dish.jpg,html/resources/sequences_IDs/B/09_phone.jpg,10,9,4,2,4,2,8,7,0,51,,,,,,,,,,,,,,,,,,,,
,,,,,51,2020-07-04_15h19.02.603,retriever_ti,2020.1.3,Win32,60,Chrome,1366,768,,,,,,,,,,,,,,,,,3,,,,,,,,,,,,,,,,,,,,,,,,,,,912.79125,160,left,0.85917,hat           ,5,8,-1,0,0,912.80937,912.80937,915.29587,0,5,5,5,1,160,5,6,hat           ,sport_tshirt,html/resources/sequences_IDs/A/08_hat.jpg,html/resources/sequences_IDs/B/07_sport_tshirt.jpg,8,7,3,2,3,2,6,5,0,51,,,,,,,,,,,,,,,,,,,,
,,,,,51,2020-07-04_15h19.02.603,retriever_ti,2020.1.3,Win32,60,Chrome,1366,768,,,,,,,,,,,,,,,,,3,,,,,,,,,,,,,,,,,,,,,,,,,,,916.40088,161,left,0.51731,dolphin     ,8,2,1,1,1,916.43535,916.43535,918.920335,0,6,6,6,1,161,8,7,dolphin     ,camel         ,html/resources/sequences_IDs/B/02_dolphin.jpg,html/resources/sequences_IDs/A/03_camel.jpg,2,3,1,1,1,1,1,2,0,51,,,,,,,,,,,,,,,,,,,,
,,,,,51,2020-07-04_15h19.02.603,retriever_ti,2020.1.3,Win32,60,Chrome,1366,768,,,,,,,,,,,,,,,,,3,,,,,,,,,,,,,,,,,,,,,,,,,,,920.024685,162,left,0.600985,dolphin     ,8,2,1,1,1,920.041865,920.041865,922.528535,0,7,7,7,1,162,8,7,dolphin     ,camel         ,html/resources/sequences_IDs/B/02_dolphin.jpg,html/resources/sequences_IDs/A/03_camel.jpg,2,3,1,1,1,1,1,2,0,51,,,,,,,,,,,,,,,,,,,,
,,,,,51,2020-07-04_15h19.02.603,retriever_ti,2020.1.3,Win32,60,Chrome,1366,768,,,,,,,,,,,,,,,,,3,,,,,,,,,,,,,,,,,,,,,,,,,,,923.63234,163,left,0.839705,dolphin     ,8,2,2,1,3,923.6669,923.6669,926.15268,0,8,8,8,1,163,8,6,dolphin     ,sport_tshirt,html/resources/sequences_IDs/B/02_dolphin.jpg,html/resources/sequences_IDs/B/07_sport_tshirt.jpg,2,7,1,1,3,2,1,5,0,51,,,,,,,,,,,,,,,,,,,,
,,,,,51,2020-07-04_15h19.02.603,retriever_ti,2020.1.3,Win32,60,Chrome,1366,768,,,,,,,,,,,,,,,,,3,,,,,,,,,,,,,,,,,,,,,,,,,,,926.754875,164,left,1.719945,holdfast    ,4,4,3,1,3,926.77314,926.77314,929.260295,0,9,9,9,1,164,4,1,holdfast    ,satellite_dish,html/resources/sequences_IDs/B/04_holdfast.jpg,html/resources/sequences_IDs/A/10_satellite_dish.jpg,4,10,2,1,4,2,3,8,0,51,,,,,,,,,,,,,,,,,,,,
,,,,,51,2020-07-04_15h19.02.603,retriever_ti,2020.1.3,Win32,60,Chrome,1366,768,,,,,,,,,,,,,,,,,3,,,,,,,,,,,,,,,,,,,,,,,,,,,929.863705,165,right,0.65407,dolphin     ,8,2,1,1,1,929.898335,929.898335,932.383635,0,10,10,10,1,165,7,8,camel         ,dolphin     ,html/resources/sequences_IDs/A/03_camel.jpg,html/resources/sequences_IDs/B/02_dolphin.jpg,3,2,1,1,1,1,2,1,0,51,,,,,,,,,,,,,,,,,,,,
,,,,,51,2020-07-04_15h19.02.603,retriever_ti,2020.1.3,Win32,60,Chrome,1366,768,,,,,,,,,,,,,,,,,3,,,,,,,,,,,,,,,,,,,,,,,,,,,933.488385,166,right,1.117255,hat           ,5,8,1,1,1,933.52346,933.52346,936.007815,0,11,11,11,1,166,4,5,holdfast    ,hat           ,html/resources/sequences_IDs/B/04_holdfast.jpg,html/resources/sequences_IDs/A/08_hat.jpg,4,8,2,1,3,2,3,6,0,51,,,,,,,,,,,,,,,,,,,,
,,,,,51,2020-07-04_15h19.02.603,retriever_ti,2020.1.3,Win32,60,Chrome,1366,768,,,,,,,,,,,,,,,,,3,,,,,,,,,,,,,,,,,,,,,,,,,,,937.11196,167,left,0.57744,sport_tshirt,6,7,3,1,3,937.12935,937.12935,939.615515,0,12,12,12,1,167,6,3,sport_tshirt,peacock       ,html/resources/sequences_IDs/B/07_sport_tshirt.jpg,html/resources/sequences_IDs/A/05_peacock.jpg,7,5,3,2,2,1,5,4,0,51,,,,,,,,,,,,,,,,,,,,
,,,,,51,2020-07-04_15h19.02.603,retriever_ti,2020.1.3,Win32,60,Chrome,1366,768,,,,,,,,,,,,,,,,,3,,,,,,,,,,,,,,,,,,,,,,,,,,,940.217645,168,right,0.79999,dolphin     ,8,2,5,1,3,940.236095,940.236095,942.72225,0,13,13,13,1,168,3,8,peacock       ,dolphin     ,html/resources/sequences_IDs/A/05_peacock.jpg,html/resources/sequences_IDs/B/02_dolphin.jpg,5,2,2,1,1,1,4,1,0,51,,,,,,,,,,,,,,,,,,,,
,,,,,51,2020-07-04_15h19.02.603,retriever_ti,2020.1.3,Win32,60,Chrome,1366,768,,,,,,,,,,,,,,,,,3,,,,,,,,,,,,,,,,,,,,,,,,,,,943.325145,169,right,0.794275,peacock       ,3,5,-1,0,0,943.359265,943.359265,945.847275,0,14,14,14,1,169,4,3,holdfast    ,peacock       ,html/resources/sequences_IDs/B/04_holdfast.jpg,html/resources/sequences_IDs/A/05_peacock.jpg,4,5,2,1,2,1,3,4,0,51,,,,,,,,,,,,,,,,,,,,
,,,,,51,2020-07-04_15h19.02.603,retriever_ti,2020.1.3,Win32,60,Chrome,1366,768,,,,,,,,,,,,,,,,,3,,,,,,,,,,,,,,,,,,,,,,,,,,,946.948805,170,left,1.1163,camel         ,7,3,3,1,3,946.96816,946.96816,949.45365,0,15,15,15,1,170,7,4,camel         ,holdfast    ,html/resources/sequences_IDs/A/03_camel.jpg,html/resources/sequences_IDs/B/04_holdfast.jpg,3,4,1,1,2,1,2,3,0,51,,,,,,,,,,,,,,,,,,,,
,,,,,51,2020-07-04_15h19.02.603,retriever_ti,2020.1.3,Win32,60,Chrome,1366,768,,,,,,,,,,,,,,,,,3,,,,,,,,,,,,,,,,,,,,,,,,,,,950.05672,171,right,0.726595,dolphin     ,8,2,1,1,0,950.074025,950.074025,952.560285,0,16,16,16,1,171,7,8,camel         ,dolphin     ,html/resources/sequences_IDs/A/03_camel.jpg,html/resources/sequences_IDs/B/02_dolphin.jpg,3,2,1,1,1,1,2,1,1,51,,,,,,,,,,,,,,,,,,,,
,,,,,51,2020-07-04_15h19.02.603,retriever_ti,2020.1.3,Win32,60,Chrome,1366,768,,,,,,,,,,,,,,,,,3,,,,,,,,,,,,,,,,,,,,,,,,,,,953.664575,172,left,0.891075,peacock       ,3,5,2,1,3,953.682125,953.682125,956.16829,0,17,17,17,1,172,3,1,peacock       ,satellite_dish,html/resources/sequences_IDs/A/05_peacock.jpg,html/resources/sequences_IDs/A/10_satellite_dish.jpg,5,10,2,1,4,2,4,8,0,51,,,,,,,,,,,,,,,,,,,,
,,,,,51,2020-07-04_15h19.02.603,retriever_ti,2020.1.3,Win32,60,Chrome,1366,768,,,,,,,,,,,,,,,,,3,,,,,,,,,,,,,,,,,,,,,,,,,,,956.77037,173,right,0.880105,sport_tshirt,6,7,-1,0,0,956.788865,956.788865,959.27553,0,18,18,18,1,173,7,6,camel         ,sport_tshirt,html/resources/sequences_IDs/A/03_camel.jpg,html/resources/sequences_IDs/B/07_sport_tshirt.jpg,3,7,1,1,3,2,2,5,0,51,,,,,,,,,,,,,,,,,,,,
,,,,,51,2020-07-04_15h19.02.603,retriever_ti,2020.1.3,Win32,60,Chrome,1366,768,,,,,,,,,,,,,,,,,3,,,,,,,,,,,,,,,,,,,,,,,,,,,960.38032,174,right,0.676295,peacock       ,3,5,-2,0,3,960.3977,960.3977,962.883315,0,19,19,19,1,174,5,3,hat           ,peacock       ,html/resources/sequences_IDs/A/08_hat.jpg,html/resources/sequences_IDs/A/05_peacock.jpg,8,5,3,2,2,1,6,4,0,51,,,,,,,,,,,,,,,,,,,,
,,,,,51,2020-07-04_15h19.02.603,retriever_ti,2020.1.3,Win32,60,Chrome,1366,768,,,,,,,,,,,,,,,,,3,,,,,,,,,,,,,,,,,,,,,,,,,,,963.48688,175,right,0.57486,camel         ,7,3,3,1,3,963.520855,963.520855,966.006355,0,20,20,20,1,175,4,7,holdfast    ,camel         ,html/resources/sequences_IDs/B/04_holdfast.jpg,html/resources/sequences_IDs/A/03_camel.jpg,4,3,2,1,1,1,3,2,0,51,,,,,,,,,,,,,,,,,,,,
,,,,,51,2020-07-04_15h19.02.603,retriever_ti,2020.1.3,Win32,60,Chrome,1366,768,,,,,,,,,,,,,,,,,3,,,,,,,,,,,,,,,,,,,,,,,,,,,966.608325,176,left,0.62934,dolphin     ,8,2,5,1,3,966.64358,966.64358,969.130495,0,21,21,21,1,176,8,3,dolphin     ,peacock       ,html/resources/sequences_IDs/B/02_dolphin.jpg,html/resources/sequences_IDs/A/05_peacock.jpg,2,5,1,1,2,1,1,4,0,51,,,,,,,,,,,,,,,,,,,,
,,,,,51,2020-07-04_15h19.02.603,retriever_ti,2020.1.3,Win32,60,Chrome,1366,768,,,,,,,,,,,,,,,,,3,,,,,,,,,,,,,,,,,,,,,,,,,,,969.734275,177,right,0.638665,peacock       ,3,5,1,1,1,969.75138,969.75138,972.237015,0,22,22,22,1,177,2,3,phone       ,peacock       ,html/resources/sequences_IDs/B/09_phone.jpg,html/resources/sequences_IDs/A/05_peacock.jpg,9,5,4,2,2,1,7,4,0,51,,,,,,,,,,,,,,,,,,,,
,,,,,51,2020-07-04_15h19.02.603,retriever_ti,2020.1.3,Win32,60,Chrome,1366,768,,,,,,,,,,,,,,,,,3,,,,,,,,,,,,,,,,,,,,,,,,,,,973.341375,178,right,0.810035,camel         ,7,3,2,1,3,973.35962,973.35962,975.844315,0,23,23,23,1,178,5,7,hat           ,camel         ,html/resources/sequences_IDs/A/08_hat.jpg,html/resources/sequences_IDs/A/03_camel.jpg,8,3,3,2,1,1,6,2,0,51,,,,,,,,,,,,,,,,,,,,
,,,,,51,2020-07-04_15h19.02.603,retriever_ti,2020.1.3,Win32,60,Chrome,1366,768,,,,,,,,,,,,,,,,,3,,,,,,,,,,,,,,,,,,,,,,,,,,,976.44734,179,right,0.562825,peacock       ,3,5,1,1,0,976.48273,976.48273,978.96774,0,24,24,24,1,179,2,3,phone       ,peacock       ,html/resources/sequences_IDs/B/09_phone.jpg,html/resources/sequences_IDs/A/05_peacock.jpg,9,5,4,2,2,1,7,4,1,51,,,,,,,,,,,,,,,,,,,,
,,,,,51,2020-07-04_15h19.02.603,retriever_ti,2020.1.3,Win32,60,Chrome,1366,768,,,,,,,,,,,,,,,,,3,,,,,,,,,,,,,,,,,,,,,,,,,,,980.071835,180,right,0.572995,phone       ,2,9,1,1,1,980.089265,980.089265,982.576575,0,25,25,25,1,180,1,2,satellite_dish,phone       ,html/resources/sequences_IDs/A/10_satellite_dish.jpg,html/resources/sequences_IDs/B/09_phone.jpg,10,9,4,2,4,2,8,7,0,51,,,,,,,,,,,,,,,,,,,,
,,,,,51,2020-07-04_15h19.02.603,retriever_ti,2020.1.3,Win32,60,Chrome,1366,768,,,,,,,,,,,,,,,,,3,,,,,,,,,,,,,,,,,,,,,,,,,,,983.680895,181,left,1.33501,camel         ,7,3,4,1,3,983.69846,983.69846,986.184055,0,26,26,26,1,181,7,3,camel         ,peacock       ,html/resources/sequences_IDs/A/03_camel.jpg,html/resources/sequences_IDs/A/05_peacock.jpg,3,5,1,1,2,1,2,4,0,51,,,,,,,,,,,,,,,,,,,,
,,,,,51,2020-07-04_15h19.02.603,retriever_ti,2020.1.3,Win32,60,Chrome,1366,768,,,,,,,,,,,,,,,,,3,,,,,,,,,,,,,,,,,,,,,,,,,,,986.78552,182,left,1.41823,peacock       ,3,5,1,1,1,986.80376,986.80376,989.290885,0,27,27,27,1,182,3,2,peacock       ,phone       ,html/resources/sequences_IDs/A/05_peacock.jpg,html/resources/sequences_IDs/B/09_phone.jpg,5,9,2,1,4,2,4,7,0,51,,,,,,,,,,,,,,,,,,,,
,,,,,51,2020-07-04_15h19.02.603,retriever_ti,2020.1.3,Win32,60,Chrome,1366,768,,,,,,,,,,,,,,,,,3,,,,,,,,,,,,,,,,,,,,,,,,,,,990.395335,183,right,0.948835,sport_tshirt,6,7,1,1,0,990.42973,990.42973,994.11407,0,28,28,28,1,183,5,6,hat           ,sport_tshirt,html/resources/sequences_IDs/A/08_hat.jpg,html/resources/sequences_IDs/B/07_sport_tshirt.jpg,8,7,3,2,3,2,6,5,1,51,,,,,,,,,,,,,,,,,,,,
,,,,,51,2020-07-04_15h19.02.603,retriever_ti,2020.1.3,Win32,60,Chrome,1366,768,,,,,,,,,,,,,,,,,3,,,,,,,,,,,,,,,,,,,,,,,,,,,995.20498,184,left,0.73706,sport_tshirt,6,7,4,1,3,995.22219,995.22219,997.70846,0,29,29,29,1,184,6,2,sport_tshirt,phone       ,html/resources/sequences_IDs/B/07_sport_tshirt.jpg,html/resources/sequences_IDs/B/09_phone.jpg,7,9,3,2,4,2,5,7,0,51,,,,,,,,,,,,,,,,,,,,
,,,,,51,2020-07-04_15h19.02.603,retriever_ti,2020.1.3,Win32,60,Chrome,1366,768,,,,,,,,,,,,,,,,,3,,,,,,,,,,,,,,,,,,,,,,,,,,,998.31192,185,right,0.713245,hat           ,5,8,4,1,3,998.329355,998.329355,1000.81579,0,30,30,30,1,185,1,5,satellite_dish,hat           ,html/resources/sequences_IDs/A/10_satellite_dish.jpg,html/resources/sequences_IDs/A/08_hat.jpg,10,8,4,2,3,2,8,6,0,51,,,,,,,,,,,,,,,,,,,,
,,,,,51,2020-07-04_15h19.02.603,retriever_ti,2020.1.3,Win32,60,Chrome,1366,768,,,,,,,,,,,,,,,,,3,,,,,,,,,,,,,,,,,,,,,,,,,,,1001.41751,186,left,0.733635,sport_tshirt,6,7,5,1,3,1001.45235,1001.45235,1003.93882,0,31,31,31,1,186,6,1,sport_tshirt,satellite_dish,html/resources/sequences_IDs/B/07_sport_tshirt.jpg,html/resources/sequences_IDs/A/10_satellite_dish.jpg,7,10,3,2,4,2,5,8,0,51,,,,,,,,,,,,,,,,,,,,
,,,,,51,2020-07-04_15h19.02.603,retriever_ti,2020.1.3,Win32,60,Chrome,1366,768,,,,,,,,,,,,,,,,,3,,,,,,,,,,,,,,,,,,,,,,,,,,,1004.541815,187,right,1.32828,hat           ,5,8,-1,0,0,1004.576115,1004.576115,1007.06218,0,32,32,32,1,187,6,5,sport_tshirt,hat           ,html/resources/sequences_IDs/B/07_sport_tshirt.jpg,html/resources/sequences_IDs/A/08_hat.jpg,7,8,3,2,3,2,5,6,0,51,,,,,,,,,,,,,,,,,,,,
,,,,,51,2020-07-04_15h19.02.603,retriever_ti,2020.1.3,Win32,60,Chrome,1366,768,,,,,,,,,,,,,,,,,3,,,,,,,,,,,,,,,,,,,,,,,,,,,1008.16626,188,left,0.619055,sport_tshirt,6,7,1,1,1,1008.20044,1008.20044,1010.68685,0,33,33,33,1,188,6,5,sport_tshirt,hat           ,html/resources/sequences_IDs/B/07_sport_tshirt.jpg,html/resources/sequences_IDs/A/08_hat.jpg,7,8,3,2,3,2,5,6,0,51,,,,,,,,,,,,,,,,,,,,
,,,,,51,2020-07-04_15h19.02.603,retriever_ti,2020.1.3,Win32,60,Chrome,1366,768,,,,,,,,,,,,,,,,,3,,,,,,,,,,,,,,,,,,,,,,,,,,,1011.79106,189,right,0.57488,peacock       ,3,5,2,1,3,1011.80952,1011.80952,1014.294625,0,34,34,34,1,189,1,3,satellite_dish,peacock       ,html/resources/sequences_IDs/A/10_satellite_dish.jpg,html/resources/sequences_IDs/A/05_peacock.jpg,10,5,4,2,2,1,8,4,0,51,,,,,,,,,,,,,,,,,,,,
,,,,,51,2020-07-04_15h19.02.603,retriever_ti,2020.1.3,Win32,60,Chrome,1366,768,,,,,,,,,,,,,,,,,3,,,,,,,,,,,,,,,,,,,,,,,,,,,1014.89757,190,right,1.042285,dolphin     ,8,2,1,1,1,1014.93172,1014.93172,1017.41814,0,35,35,35,1,190,7,8,camel         ,dolphin     ,html/resources/sequences_IDs/A/03_camel.jpg,html/resources/sequences_IDs/B/02_dolphin.jpg,3,2,1,1,1,1,2,1,0,51,,,,,,,,,,,,,,,,,,,,
,,,,,51,2020-07-04_15h19.02.603,retriever_ti,2020.1.3,Win32,60,Chrome,1366,768,,,,,,,,,,,,,,,,,3,,,,,,,,,,,,,,,,,,,,,,,,,,,1018.522345,191,left,1.717585,hat           ,5,8,1,1,1,1018.53957,1018.53957,1021.026765,0,36,36,36,1,191,5,4,hat           ,holdfast    ,html/resources/sequences_IDs/A/08_hat.jpg,html/resources/sequences_IDs/B/04_holdfast.jpg,8,4,3,2,2,1,6,3,0,51,,,,,,,,,,,,,,,,,,,,
,,,,,51,2020-07-04_15h19.02.603,retriever_ti,2020.1.3,Win32,60,Chrome,1366,768,,,,,,,,,,,,,,,,,3,,,,,,,,,,,,,,,,,,,,,,,,,,,1022.129335,192,right,0.966095,sport_tshirt,6,7,4,1,3,1022.164385,1022.164385,1024.650565,0,37,37,37,1,192,2,6,phone       ,sport_tshirt,html/resources/sequences_IDs/B/09_phone.jpg,html/resources/sequences_IDs/B/07_sport_tshirt.jpg,9,7,4,2,3,2,7,5,0,51,,,,,,,,,,,,,,,,,,,,
,,,,,51,2020-07-04_15h19.02.603,retriever_ti,2020.1.3,Win32,60,Chrome,1366,768,,,,,,,,,,,,,,,,,3,,,,,,,,,,,,,,,,,,,,,,,,,,,1025.2526,193,left,0.603885,camel         ,7,3,6,1,3,1025.271135,1025.271135,1027.75864,0,38,38,38,1,193,7,1,camel         ,satellite_dish,html/resources/sequences_IDs/A/03_camel.jpg,html/resources/sequences_IDs/A/10_satellite_dish.jpg,3,10,1,1,4,2,2,8,0,51,,,,,,,,,,,,,,,,,,,,
,,,,,51,2020-07-04_15h19.02.603,retriever_ti,2020.1.3,Win32,60,Chrome,1366,768,,,,,,,,,,,,,,,,,3,,,,,,,,,,,,,,,,,,,,,,,,,,,1028.361365,194,right,0.5865,sport_tshirt,6,7,3,1,3,1028.3959,1028.3959,1030.88185,0,39,39,39,1,194,3,6,peacock       ,sport_tshirt,html/resources/sequences_IDs/A/05_peacock.jpg,html/resources/sequences_IDs/B/07_sport_tshirt.jpg,5,7,2,1,3,2,4,5,0,51,,,,,,,,,,,,,,,,,,,,
,,,,,51,2020-07-04_15h19.02.603,retriever_ti,2020.1.3,Win32,60,Chrome,1366,768,,,,,,,,,,,,,,,,,3,,,,,,,,,,,,,,,,,,,,,,,,,,,1031.48283,195,left,0.888635,peacock       ,3,5,-2,0,3,1031.51797,1031.51797,1034.005285,0,40,40,40,1,195,3,5,peacock       ,hat           ,html/resources/sequences_IDs/A/05_peacock.jpg,html/resources/sequences_IDs/A/08_hat.jpg,5,8,2,1,3,2,4,6,0,51,,,,,,,,,,,,,,,,,,,,
,,,,,51,2020-07-04_15h19.02.603,retriever_ti,2020.1.3,Win32,60,Chrome,1366,768,,,,,,,,,,,,,,,,,3,,,,,,,,,,,,,,,,,,,,,,,,,,,1034.608575,196,right,1.75863,sport_tshirt,6,7,-1,0,0,1034.642875,1034.642875,1037.1278,0,41,41,41,1,196,7,6,camel         ,sport_tshirt,html/resources/sequences_IDs/A/03_camel.jpg,html/resources/sequences_IDs/B/07_sport_tshirt.jpg,3,7,1,1,3,2,2,5,0,51,,,,,,,,,,,,,,,,,,,,
,,,,,51,2020-07-04_15h19.02.603,retriever_ti,2020.1.3,Win32,60,Chrome,1366,768,,,,,,,,,,,,,,,,,3,,,,,,,,,,,,,,,,,,,,,,,,,,,1038.231885,197,right,1.139525,sport_tshirt,6,7,1,1,1,1038.26617,1038.26617,1040.752915,0,42,42,42,1,197,5,6,hat           ,sport_tshirt,html/resources/sequences_IDs/A/08_hat.jpg,html/resources/sequences_IDs/B/07_sport_tshirt.jpg,8,7,3,2,3,2,6,5,0,51,,,,,,,,,,,,,,,,,,,,
,,,,,51,2020-07-04_15h19.02.603,retriever_ti,2020.1.3,Win32,60,Chrome,1366,768,,,,,,,,,,,,,,,,,3,,,,,,,,,,,,,,,,,,,,,,,,,,,1041.85579,198,right,1.047115,hat           ,5,8,3,1,3,1041.89077,1041.89077,1044.37712,0,43,43,43,1,198,2,5,phone       ,hat           ,html/resources/sequences_IDs/B/09_phone.jpg,html/resources/sequences_IDs/A/08_hat.jpg,9,8,4,2,3,2,7,6,0,51,,,,,,,,,,,,,,,,,,,,
,,,,,51,2020-07-04_15h19.02.603,retriever_ti,2020.1.3,Win32,60,Chrome,1366,768,,,,,,,,,,,,,,,,,3,,,,,,,,,,,,,,,,,,,,,,,,,,,1044.980225,199,left,0.857905,peacock       ,3,5,-1,0,1,1044.99736,1044.99736,1047.483635,0,44,44,44,1,199,3,4,peacock       ,holdfast    ,html/resources/sequences_IDs/A/05_peacock.jpg,html/resources/sequences_IDs/B/04_holdfast.jpg,5,4,2,1,2,1,4,3,1,51,,,,,,,,,,,,,,,,,,,,
,,,,,51,2020-07-04_15h19.02.603,retriever_ti,2020.1.3,Win32,60,Chrome,1366,768,,,,,,,,,,,,,,,,,3,,,,,,,,,,,,,,,,,,,,,,,,,,,1048.587615,200,right,0.95103,camel         ,7,3,1,1,1,1048.62176,1048.62176,1051.10927,0,45,45,45,1,200,6,7,sport_tshirt,camel         ,html/resources/sequences_IDs/B/07_sport_tshirt.jpg,html/resources/sequences_IDs/A/03_camel.jpg,7,3,3,2,1,1,5,2,0,51,,,,,,,,,,,,,,,,,,,,
,,,,,51,2020-07-04_15h19.02.603,retriever_ti,2020.1.3,Win32,60,Chrome,1366,768,,,,,,,,,,,,,,,,,3,,,,,,,,,,,,,,,,,,,,,,,,,,,1052.21304,201,right,0.63274,peacock       ,3,5,1,1,1,1052.23216,1052.23216,1054.73274,0,46,46,46,1,201,2,3,phone       ,peacock       ,html/resources/sequences_IDs/B/09_phone.jpg,html/resources/sequences_IDs/A/05_peacock.jpg,9,5,4,2,2,1,7,4,0,51,,,,,,,,,,,,,,,,,,,,
,,,,,51,2020-07-04_15h19.02.603,retriever_ti,2020.1.3,Win32,60,Chrome,1366,768,,,,,,,,,,,,,,,,,3,,,,,,,,,,,,,,,,,,,,,,,,,,,1055.836755,202,right,0.670795,camel         ,7,3,5,1,3,1055.8711,1055.8711,1058.35798,0,47,47,47,1,202,2,7,phone       ,camel         ,html/resources/sequences_IDs/B/09_phone.jpg,html/resources/sequences_IDs/A/03_camel.jpg,9,3,4,2,1,1,7,2,0,51,,,,,,,,,,,,,,,,,,,,
,,,,,51,2020-07-04_15h19.02.603,retriever_ti,2020.1.3,Win32,60,Chrome,1366,768,,,,,,,,,,,,,,,,,3,,,,,,,,,,,,,,,,,,,,,,,,,,,1058.96152,203,left,0.767345,peacock       ,3,5,-1,0,0,1058.995865,1058.995865,1061.481645,0,48,48,48,1,203,3,4,peacock       ,holdfast    ,html/resources/sequences_IDs/A/05_peacock.jpg,html/resources/sequences_IDs/B/04_holdfast.jpg,5,4,2,1,2,1,4,3,0,51,,,,,,,,,,,,,,,,,,,,
,,,,,51,2020-07-04_15h19.02.603,retriever_ti,2020.1.3,Win32,60,Chrome,1366,768,,,,,,,,,,,,,,,,,3,,,,,,,,,,,,,,,,,,,,,,,,,,,1062.58668,204,right,0.648695,holdfast    ,4,4,1,1,1,1062.60389,1062.60389,1065.08932,0,49,49,49,1,204,3,4,peacock       ,holdfast    ,html/resources/sequences_IDs/A/05_peacock.jpg,html/resources/sequences_IDs/B/04_holdfast.jpg,5,4,2,1,2,1,4,3,0,51,,,,,,,,,,,,,,,,,,,,
,,,,,51,2020-07-04_15h19.02.603,retriever_ti,2020.1.3,Win32,60,Chrome,1366,768,,,,,,,,,,,,,,,,,3,,,,,,,,,,,,,,,,,,,,,,,,,,,1066.19181,205,right,1.009925,phone       ,2,9,-3,0,3,1066.226885,1066.226885,1068.71859,0,50,50,50,1,205,5,2,hat           ,phone       ,html/resources/sequences_IDs/A/08_hat.jpg,html/resources/sequences_IDs/B/09_phone.jpg,8,9,3,2,4,2,6,7,0,51,,,,,,,,,,,,,,,,,,,,
,,,,,51,2020-07-04_15h19.02.603,retriever_ti,2020.1.3,Win32,60,Chrome,1366,768,,,,,,,,,,,,,,,,,3,,,,,,,,,,,,,,,,,,,,,,,,,,,1069.33303,206,left,1.17512,phone       ,2,9,-2,0,3,1069.3672,1069.3672,1071.853315,0,51,51,51,1,206,2,4,phone       ,holdfast    ,html/resources/sequences_IDs/B/09_phone.jpg,html/resources/sequences_IDs/B/04_holdfast.jpg,9,4,4,2,2,1,7,3,0,51,,,,,,,,,,,,,,,,,,,,
,,,,,51,2020-07-04_15h19.02.603,retriever_ti,2020.1.3,Win32,60,Chrome,1366,768,,,,,,,,,,,,,,,,,3,,,,,,,,,,,,,,,,,,,,,,,,,,,1072.45536,207,right,0.63809,dolphin     ,8,2,6,1,3,1072.47398,1072.47398,1074.96034,0,52,52,52,1,207,2,8,phone       ,dolphin     ,html/resources/sequences_IDs/B/09_phone.jpg,html/resources/sequences_IDs/B/02_dolphin.jpg,9,2,4,2,1,1,7,1,0,51,,,,,,,,,,,,,,,,,,,,
,,,,,51,2020-07-04_15h19.02.603,retriever_ti,2020.1.3,Win32,60,Chrome,1366,768,,,,,,,,,,,,,,,,,3,,,,,,,,,,,,,,,,,,,,,,,,,,,1075.563335,208,right,0.548655,holdfast    ,4,4,3,1,3,1075.58065,1075.58065,1078.06769,0,53,53,53,1,208,1,4,satellite_dish,holdfast    ,html/resources/sequences_IDs/A/10_satellite_dish.jpg,html/resources/sequences_IDs/B/04_holdfast.jpg,10,4,4,2,2,1,8,3,0,51,,,,,,,,,,,,,,,,,,,,
,,,,,51,2020-07-04_15h19.02.603,retriever_ti,2020.1.3,Win32,60,Chrome,1366,768,,,,,,,,,,,,,,,,,3,,,,,,,,,,,,,,,,,,,,,,,,,,,1078.66991,209,left,0.709285,phone       ,2,9,1,1,1,1078.68845,1078.68845,1081.173765,0,54,54,54,1,209,2,1,phone       ,satellite_dish,html/resources/sequences_IDs/B/09_phone.jpg,html/resources/sequences_IDs/A/10_satellite_dish.jpg,9,10,4,2,4,2,7,8,0,51,,,,,,,,,,,,,,,,,,,,
,,,,,51,2020-07-04_15h19.02.603,retriever_ti,2020.1.3,Win32,60,Chrome,1366,768,,,,,,,,,,,,,,,,,3,,,,,,,,,,,,,,,,,,,,,,,,,,,1082.277805,210,right,0.71072,sport_tshirt,6,7,2,1,3,1082.295295,1082.295295,1084.99884,0,55,55,55,1,210,4,6,holdfast    ,sport_tshirt,html/resources/sequences_IDs/B/04_holdfast.jpg,html/resources/sequences_IDs/B/07_sport_tshirt.jpg,4,7,2,1,3,2,3,5,0,51,,,,,,,,,,,,,,,,,,,,
,,,,,51,2020-07-04_15h19.02.603,retriever_ti,2020.1.3,Win32,60,Chrome,1366,768,,,,,,,,,,,,,,,,,3,,,,,,,,,,,,,,,,,,,,,,,,,,,1085.601765,211,right,1.77848,hat           ,5,8,1,1,1,1085.635725,1085.635725,1088.12276,0,56,56,56,1,211,4,5,holdfast    ,hat           ,html/resources/sequences_IDs/B/04_holdfast.jpg,html/resources/sequences_IDs/A/08_hat.jpg,4,8,2,1,3,2,3,6,0,51,,,,,,,,,,,,,,,,,,,,
,,,,,51,2020-07-04_15h19.02.603,retriever_ti,2020.1.3,Win32,60,Chrome,1366,768,,,,,,,,,,,,,,,,,3,,,,,,,,,,,,,,,,,,,,,,,,,,,1089.22685,212,right,0.83322,camel         ,7,3,4,1,3,1089.261395,1089.261395,1091.746635,0,57,57,57,1,212,3,7,peacock       ,camel         ,html/resources/sequences_IDs/A/05_peacock.jpg,html/resources/sequences_IDs/A/03_camel.jpg,5,3,2,1,1,1,4,2,0,51,,,,,,,,,,,,,,,,,,,,
,,,,,51,2020-07-04_15h19.02.603,retriever_ti,2020.1.3,Win32,60,Chrome,1366,768,,,,,,,,,,,,,,,,,3,,,,,,,,,,,,,,,,,,,,,,,,,,,1092.3487,213,right,0.556595,camel         ,7,3,6,1,3,1092.383785,1092.383785,1094.86998,0,58,58,58,1,213,1,7,satellite_dish,camel         ,html/resources/sequences_IDs/A/10_satellite_dish.jpg,html/resources/sequences_IDs/A/03_camel.jpg,10,3,4,2,1,1,8,2,0,51,,,,,,,,,,,,,,,,,,,,
,,,,,51,2020-07-04_15h19.02.603,retriever_ti,2020.1.3,Win32,60,Chrome,1366,768,,,,,,,,,,,,,,,,,3,,,,,,,,,,,,,,,,,,,,,,,,,,,1095.473135,214,left,0.869335,dolphin     ,8,2,3,1,3,1095.490525,1095.490525,1097.976835,0,59,59,59,1,214,8,5,dolphin     ,hat           ,html/resources/sequences_IDs/B/02_dolphin.jpg,html/resources/sequences_IDs/A/08_hat.jpg,2,8,1,1,3,2,1,6,0,51,,,,,,,,,,,,,,,,,,,,
,,,,,51,2020-07-04_15h19.02.603,retriever_ti,2020.1.3,Win32,60,Chrome,1366,768,,,,,,,,,,,,,,,,,3,,,,,,,,,,,,,,,,,,,,,,,,,,,1098.57898,215,left,0.823725,holdfast    ,4,4,2,1,3,1098.613895,1098.613895,1101.101075,0,60,60,60,1,215,4,2,holdfast    ,phone       ,html/resources/sequences_IDs/B/04_holdfast.jpg,html/resources/sequences_IDs/B/09_phone.jpg,4,9,2,1,4,2,3,7,0,51,,,,,,,,,,,,,,,,,,,,
,,,,,51,2020-07-04_15h19.02.603,retriever_ti,2020.1.3,Win32,60,Chrome,1366,768,,,,,,,,,,,,,,,,,3,,,,,,,,,,,,,,,,,,,,,,,,,,,1101.70314,216,left,1.141365,camel         ,7,3,2,1,3,1101.737515,1101.737515,1104.22386,0,61,61,61,1,216,7,5,camel         ,hat           ,html/resources/sequences_IDs/A/03_camel.jpg,html/resources/sequences_IDs/A/08_hat.jpg,3,8,1,1,3,2,2,6,0,51,,,,,,,,,,,,,,,,,,,,
,,,,,51,2020-07-04_15h19.02.603,retriever_ti,2020.1.3,Win32,60,Chrome,1366,768,,,,,,,,,,,,,,,,,3,,,,,,,,,,,,,,,,,,,,,,,,,,,1104.825935,217,right,0.498105,phone       ,2,9,1,1,0,1104.86072,1104.86072,1107.347935,0,62,62,62,1,217,1,2,satellite_dish,phone       ,html/resources/sequences_IDs/A/10_satellite_dish.jpg,html/resources/sequences_IDs/B/09_phone.jpg,10,9,4,2,4,2,8,7,1,51,,,,,,,,,,,,,,,,,,,,
,,,,,51,2020-07-04_15h19.02.603,retriever_ti,2020.1.3,Win32,60,Chrome,1366,768,,,,,,,,,,,,,,,,,3,,,,,,,,,,,,,,,,,,,,,,,,,,,1108.45285,218,right,1.054405,peacock       ,3,5,-1,0,0,1108.47009,1108.47009,1110.95573,0,63,63,63,1,218,4,3,holdfast    ,peacock       ,html/resources/sequences_IDs/B/04_holdfast.jpg,html/resources/sequences_IDs/A/05_peacock.jpg,4,5,2,1,2,1,3,4,0,51,,,,,,,,,,,,,,,,,,,,
,,,,,51,2020-07-04_15h19.02.603,retriever_ti,2020.1.3,Win32,60,Chrome,1366,768,,,,,,,,,,,,,,,,,3,,,,,,,,,,,,,,,,,,,,,,,,,,,1112.05928,219,left,0.95437,phone       ,2,9,1,1,1,1112.076635,1112.076635,1114.56369,0,64,64,64,1,219,2,1,phone       ,satellite_dish,html/resources/sequences_IDs/B/09_phone.jpg,html/resources/sequences_IDs/A/10_satellite_dish.jpg,9,10,4,2,4,2,7,8,0,51,,,,,,,,,,,,,,,,,,,,
,,,,,51,2020-07-04_15h19.02.603,retriever_ti,2020.1.3,Win32,60,Chrome,1366,768,,,,,,,,,,,,,,,,,3,,,,,,,,,,,,,,,,,,,,,,,,,,,1115.66813,220,right,0.618495,dolphin     ,8,2,3,1,3,1115.685855,1115.685855,1118.18759,0,65,65,65,1,220,5,8,hat           ,dolphin     ,html/resources/sequences_IDs/A/08_hat.jpg,html/resources/sequences_IDs/B/02_dolphin.jpg,8,2,3,2,1,1,6,1,0,51,,,,,,,,,,,,,,,,,,,,
,,,,,51,2020-07-04_15h19.02.603,retriever_ti,2020.1.3,Win32,60,Chrome,1366,768,,,,,,,,,,,,,,,,,3,,,,,,,,,,,,,,,,,,,,,,,,,,,1118.789495,221,right,0.577475,dolphin     ,8,2,7,1,3,1118.82451,1118.82451,1121.39463,0,66,66,66,1,221,1,8,satellite_dish,dolphin     ,html/resources/sequences_IDs/A/10_satellite_dish.jpg,html/resources/sequences_IDs/B/02_dolphin.jpg,10,2,4,2,1,1,8,1,0,51,,,,,,,,,,,,,,,,,,,,
,,,,,51,2020-07-04_15h19.02.603,retriever_ti,2020.1.3,Win32,60,Chrome,1366,768,,,,,,,,,,,,,,,,,3,,,,,,,,,,,,,,,,,,,,,,,,,,,1121.997705,222,left,0.754165,dolphin     ,8,2,4,1,3,1122.03158,1122.03158,1124.517915,0,67,67,67,1,222,8,4,dolphin     ,holdfast    ,html/resources/sequences_IDs/B/02_dolphin.jpg,html/resources/sequences_IDs/B/04_holdfast.jpg,2,4,1,1,2,1,1,3,0,51,,,,,,,,,,,,,,,,,,,,
