instructionsLoop.thisRepN,instructionsLoop.thisTrialN,instructionsLoop.thisN,instructionsLoop.thisIndex,instructionsLoop.ran,participant,date,expName,psychopyVersion,OS,frameRate,browser,xResolution,yResolution,fix_onset,tprac,practiceKey.keys,practiceKey.rt,pracitem_chosen_name,acc_practice,P1_onsetPrac,P2_onsetPrac,onsetFeedbPrac,practiceTrials.thisRepN,practiceTrials.thisTrialN,practiceTrials.thisN,practiceTrials.thisIndex,practiceTrials.ran,P1,P2,Block,LocItem1,LocItem2,NameItem1,NameItem2,key_respAC_prac.keys,key_respAC_prac.corr,AC_acc,Attentions.thisRepN,Attentions.thisTrialN,Attentions.thisN,Attentions.thisIndex,Attentions.ran,Stim,Loc1,Loc2,Loc3,Loc4,CorrAns,key_respAC_prac.rt,keyDisturbed.keys,keyDisturbed.rt,repPractice.thisRepN,repPractice.thisTrialN,repPractice.thisN,repPractice.thisIndex,repPractice.ran,fixcross_onsetMain,trialNumber,key_resp.keys,key_resp.rt,item_chosen_name,item_chosen_value,item_chosen_ID,diff_chosen_minus_reject,acc_real,acc_feedback,P1_onset,P2_onset,feedb_onset,trials.thisRepN,trials.thisTrialN,trials.thisN,trials.thisIndex,trials.ran,Trial,ValueP1,ValueP2,P1name,P2name,P1Loc,P2Loc,P1id,P2id,Micro_categoryP1,Macro_categoryP1,Micro_categoryP2,Macro_categoryP2,ID_sequenceP1,ID_sequenceP2,InverseFb,pNumber,repBlocks.thisRepN,repBlocks.thisTrialN,repBlocks.thisN,repBlocks.thisIndex,repBlocks.ran,key_respAC.keys,key_respAC.corr,key_respAC.rt,trials_AC.thisRepN,trials_AC.thisTrialN,trials_AC.thisN,trials_AC.thisIndex,trials_AC.ran,Bonus,BonusLoop.thisRepN,BonusLoop.thisTrialN,BonusLoop.thisN,BonusLoop.thisIndex,BonusLoop.ran,comments
0,0,0,0,1,52,2020-07-04_15h23.14.963,retriever_ti,2020.1.3,Win32,60,Chrome,1366,768,,,,,,,,,,,,,,,,,,,,,,,,,,,,,,,,,,,,,,,,,,,,,,,,,,,,,,,,,,,,,,,,,,,,,,,,,,,,,,,,,,,,,,,,,,,,,,,,,,
1,0,1,0,1,52,2020-07-04_15h23.14.963,retriever_ti,2020.1.3,Win32,60,Chrome,1366,768,,,,,,,,,,,,,,,,,,,,,,,,,,,,,,,,,,,,,,,,,,,,,,,,,,,,,,,,,,,,,,,,,,,,,,,,,,,,,,,,,,,,,,,,,,,,,,,,,,
2,0,2,0,1,52,2020-07-04_15h23.14.963,retriever_ti,2020.1.3,Win32,60,Chrome,1366,768,,,,,,,,,,,,,,,,,,,,,,,,,,,,,,,,,,,,,,,,,,,,,,,,,,,,,,,,,,,,,,,,,,,,,,,,,,,,,,,,,,,,,,,,,,,,,,,,,,
3,0,3,0,1,52,2020-07-04_15h23.14.963,retriever_ti,2020.1.3,Win32,60,Chrome,1366,768,,,,,,,,,,,,,,,,,,,,,,,,,,,,,,,,,,,,,,,,,,,,,,,,,,,,,,,,,,,,,,,,,,,,,,,,,,,,,,,,,,,,,,,,,,,,,,,,,,
4,0,4,0,1,52,2020-07-04_15h23.14.963,retriever_ti,2020.1.3,Win32,60,Chrome,1366,768,,,,,,,,,,,,,,,,,,,,,,,,,,,,,,,,,,,,,,,,,,,,,,,,,,,,,,,,,,,,,,,,,,,,,,,,,,,,,,,,,,,,,,,,,,,,,,,,,,
5,0,5,0,1,52,2020-07-04_15h23.14.963,retriever_ti,2020.1.3,Win32,60,Chrome,1366,768,,,,,,,,,,,,,,,,,,,,,,,,,,,,,,,,,,,,,,,,,,,,,,,,,,,,,,,,,,,,,,,,,,,,,,,,,,,,,,,,,,,,,,,,,,,,,,,,,,
6,0,6,0,1,52,2020-07-04_15h23.14.963,retriever_ti,2020.1.3,Win32,60,Chrome,1366,768,,,,,,,,,,,,,,,,,,,,,,,,,,,,,,,,,,,,,,,,,,,,,,,,,,,,,,,,,,,,,,,,,,,,,,,,,,,,,,,,,,,,,,,,,,,,,,,,,,
7,0,7,0,1,52,2020-07-04_15h23.14.963,retriever_ti,2020.1.3,Win32,60,Chrome,1366,768,,,,,,,,,,,,,,,,,,,,,,,,,,,,,,,,,,,,,,,,,,,,,,,,,,,,,,,,,,,,,,,,,,,,,,,,,,,,,,,,,,,,,,,,,,,,,,,,,,
8,0,8,0,1,52,2020-07-04_15h23.14.963,retriever_ti,2020.1.3,Win32,60,Chrome,1366,768,,,,,,,,,,,,,,,,,,,,,,,,,,,,,,,,,,,,,,,,,,,,,,,,,,,,,,,,,,,,,,,,,,,,,,,,,,,,,,,,,,,,,,,,,,,,,,,,,,
9,0,9,0,1,52,2020-07-04_15h23.14.963,retriever_ti,2020.1.3,Win32,60,Chrome,1366,768,,,,,,,,,,,,,,,,,,,,,,,,,,,,,,,,,,,,,,,,,,,,,,,,,,,,,,,,,,,,,,,,,,,,,,,,,,,,,,,,,,,,,,,,,,,,,,,,,,
10,0,10,0,1,52,2020-07-04_15h23.14.963,retriever_ti,2020.1.3,Win32,60,Chrome,1366,768,,,,,,,,,,,,,,,,,,,,,,,,,,,,,,,,,,,,,,,,,,,,,,,,,,,,,,,,,,,,,,,,,,,,,,,,,,,,,,,,,,,,,,,,,,,,,,,,,,
11,0,11,0,1,52,2020-07-04_15h23.14.963,retriever_ti,2020.1.3,Win32,60,Chrome,1366,768,,,,,,,,,,,,,,,,,,,,,,,,,,,,,,,,,,,,,,,,,,,,,,,,,,,,,,,,,,,,,,,,,,,,,,,,,,,,,,,,,,,,,,,,,,,,,,,,,,
12,0,12,0,1,52,2020-07-04_15h23.14.963,retriever_ti,2020.1.3,Win32,60,Chrome,1366,768,,,,,,,,,,,,,,,,,,,,,,,,,,,,,,,,,,,,,,,,,,,,,,,,,,,,,,,,,,,,,,,,,,,,,,,,,,,,,,,,,,,,,,,,,,,,,,,,,,
13,0,13,0,1,52,2020-07-04_15h23.14.963,retriever_ti,2020.1.3,Win32,60,Chrome,1366,768,,,,,,,,,,,,,,,,,,,,,,,,,,,,,,,,,,,,,,,,,,,,,,,,,,,,,,,,,,,,,,,,,,,,,,,,,,,,,,,,,,,,,,,,,,,,,,,,,,
14,0,14,0,1,52,2020-07-04_15h23.14.963,retriever_ti,2020.1.3,Win32,60,Chrome,1366,768,,,,,,,,,,,,,,,,,,,,,,,,,,,,,,,,,,,,,,,,,,,,,,,,,,,,,,,,,,,,,,,,,,,,,,,,,,,,,,,,,,,,,,,,,,,,,,,,,,
,,,,,52,2020-07-04_15h23.14.963,retriever_ti,2020.1.3,Win32,60,Chrome,1366,768,521.018745,1,NaN,NaN,No_response,2,521.031935,521.031935,523.533185,0,0,0,0,1,2,5,1,html/resources/stimuli_practice_decision/04_beetle.jpg,html/resources/stimuli_practice_decision/02_canary.jpg,beetle,canary,,,,,,,,,,,,,,,,,,,,,,,,,,,,,,,,,,,,,,,,,,,,,,,,,,,,,,,,,,,,,,,,,,,,,,,,,,,,,
,,,,,52,2020-07-04_15h23.14.963,retriever_ti,2020.1.3,Win32,60,Chrome,1366,768,524.247035,2,left,0.7948,rabbit,1,524.28506,524.28506,526.78573,0,1,1,1,1,4,3,1,html/resources/stimuli_practice_decision/01_rabbit.jpg,html/resources/stimuli_practice_decision/07_sock.jpg,rabbit,sock,,,,,,,,,,,,,,,,,,,,,,,,,,,,,,,,,,,,,,,,,,,,,,,,,,,,,,,,,,,,,,,,,,,,,,,,,,,,,
,,,,,52,2020-07-04_15h23.14.963,retriever_ti,2020.1.3,Win32,60,Chrome,1366,768,527.787395,3,left,0.719135,pullover,1,527.821825,527.821825,530.322485,0,2,2,2,1,6,2,1,html/resources/stimuli_practice_decision/06_pullover.jpg,html/resources/stimuli_practice_decision/04_beetle.jpg,pullover,beetle,,,,,,,,,,,,,,,,,,,,,,,,,,,,,,,,,,,,,,,,,,,,,,,,,,,,,,,,,,,,,,,,,,,,,,,,,,,,,
,,,,,52,2020-07-04_15h23.14.963,retriever_ti,2020.1.3,Win32,60,Chrome,1366,768,530.82328,4,left,1.103715,glasses,1,530.857585,530.857585,533.358665,0,3,3,3,1,7,1,1,html/resources/stimuli_practice_decision/05_glasses.jpg,html/resources/stimuli_practice_decision/08_handmixer.jpg,glasses,handmixer,,,,,,,,,,,,,,,,,,,,,,,,,,,,,,,,,,,,,,,,,,,,,,,,,,,,,,,,,,,,,,,,,,,,,,,,,,,,,
,,,,,52,2020-07-04_15h23.14.963,retriever_ti,2020.1.3,Win32,60,Chrome,1366,768,533.860115,5,left,1.14592,glasses,1,533.894725,533.894725,536.39507,0,4,4,4,1,7,6,1,html/resources/stimuli_practice_decision/05_glasses.jpg,html/resources/stimuli_practice_decision/06_pullover.jpg,glasses,pullover,,,,,,,,,,,,,,,,,,,,,,,,,,,,,,,,,,,,,,,,,,,,,,,,,,,,,,,,,,,,,,,,,,,,,,,,,,,,,
,,,,,52,2020-07-04_15h23.14.963,retriever_ti,2020.1.3,Win32,60,Chrome,1366,768,537.39671,6,right,0.61778,glasses,1,537.414235,537.414235,539.916385,0,5,5,5,1,4,7,1,html/resources/stimuli_practice_decision/01_rabbit.jpg,html/resources/stimuli_practice_decision/05_glasses.jpg,rabbit,glasses,,,,,,,,,,,,,,,,,,,,,,,,,,,,,,,,,,,,,,,,,,,,,,,,,,,,,,,,,,,,,,,,,,,,,,,,,,,,,
,,,,,52,2020-07-04_15h23.14.963,retriever_ti,2020.1.3,Win32,60,Chrome,1366,768,540.43444,7,left,0.681295,handmixer,0,540.451915,540.451915,542.951085,0,6,6,6,1,1,2,1,html/resources/stimuli_practice_decision/08_handmixer.jpg,html/resources/stimuli_practice_decision/04_beetle.jpg,handmixer,beetle,,,,,,,,,,,,,,,,,,,,,,,,,,,,,,,,,,,,,,,,,,,,,,,,,,,,,,,,,,,,,,,,,,,,,,,,,,,,,
,,,,,52,2020-07-04_15h23.14.963,retriever_ti,2020.1.3,Win32,60,Chrome,1366,768,543.953655,8,left,1.312625,rabbit,1,543.9878,543.9878,546.48839,0,7,7,7,1,4,3,1,html/resources/stimuli_practice_decision/01_rabbit.jpg,html/resources/stimuli_practice_decision/07_sock.jpg,rabbit,sock,,,,,,,,,,,,,,,,,,,,,,,,,,,,,,,,,,,,,,,,,,,,,,,,,,,,,,,,,,,,,,,,,,,,,,,,,,,,,
,,,,,52,2020-07-04_15h23.14.963,retriever_ti,2020.1.3,Win32,60,Chrome,1366,768,,,,,,,,,,,,,,,,,,,,,,,0,0,0,0,0,0,1,html/resources/sequences_IDs/circle.png,circle ↑,square →,triangle ↓,← star ,up,,,,,,,,,,,,,,,,,,,,,,,,,,,,,,,,,,,,,,,,,,,,,,,,,,,,,,,,,,,,,,,
,,,,,52,2020-07-04_15h23.14.963,retriever_ti,2020.1.3,Win32,60,Chrome,1366,768,,,,,,,,,,,,,,,,,,,,,,left,0,0,0,1,1,3,1,html/resources/sequences_IDs/triangle.png,star ↑,square →,triangle ↓,← circle,down,0.0323,,,,,,,,,,,,,,,,,,,,,,,,,,,,,,,,,,,,,,,,,,,,,,,,,,,,,,,,,,,,,,
,,,,,52,2020-07-04_15h23.14.963,retriever_ti,2020.1.3,Win32,60,Chrome,1366,768,,,,,,,,,,,,,,,,,,,,,,down,1,1,0,2,2,1,1,html/resources/sequences_IDs/star.png,square ↑,circle →,star ↓,← triangle,down,2.144525,,,,,,,,,,,,,,,,,,,,,,,,,,,,,,,,,,,,,,,,,,,,,,,,,,,,,,,,,,,,,,
,,,,,52,2020-07-04_15h23.14.963,retriever_ti,2020.1.3,Win32,60,Chrome,1366,768,,,,,,,,,,,,,,,,,,,,,,left,1,1,0,3,3,2,1,html/resources/sequences_IDs/square1.png,star ↑,triangle →,circle ↓,← square,left,1.42399,,,,,,,,,,,,,,,,,,,,,,,,,,,,,,,,,,,,,,,,,,,,,,,,,,,,,,,,,,,,,,
,,,,,52,2020-07-04_15h23.14.963,retriever_ti,2020.1.3,Win32,60,Chrome,1366,768,,,,,,,,,,,,,,,,,,,,,,,,,,,,,,,,,,,,,1,29.2738,0,0,0,0,1,,,,,,,,,,,,,,,,,,,,,,,,,,,,,,,,,,,,,,,,,,,,,,,,,,,,,,,
,,,,,52,2020-07-04_15h23.14.963,retriever_ti,2020.1.3,Win32,60,Chrome,1366,768,595.970035,9,right,1.03139,glasses,1,595.98901,595.98901,598.490525,0,0,0,0,1,6,7,1,html/resources/stimuli_practice_decision/06_pullover.jpg,html/resources/stimuli_practice_decision/05_glasses.jpg,pullover,glasses,,,,,,,,,,,,,,,,,,,,,,,,,,,,,,,,,,,,,,,,,,,,,,,,,,,,,,,,,,,,,,,,,,,,,,,,,,,,,
,,,,,52,2020-07-04_15h23.14.963,retriever_ti,2020.1.3,Win32,60,Chrome,1366,768,599.492935,10,right,1.49622,beetle,0,599.509365,599.509365,602.010365,0,1,1,1,1,6,2,1,html/resources/stimuli_practice_decision/06_pullover.jpg,html/resources/stimuli_practice_decision/04_beetle.jpg,pullover,beetle,,,,,,,,,,,,,,,,,,,,,,,,,,,,,,,,,,,,,,,,,,,,,,,,,,,,,,,,,,,,,,,,,,,,,,,,,,,,,
,,,,,52,2020-07-04_15h23.14.963,retriever_ti,2020.1.3,Win32,60,Chrome,1366,768,602.5117,11,right,0.95788,pullover,1,602.52866,602.52866,605.030235,0,2,2,2,1,5,6,1,html/resources/stimuli_practice_decision/02_canary.jpg,html/resources/stimuli_practice_decision/06_pullover.jpg,canary,pullover,,,,,,,,,,,,,,,,,,,,,,,,,,,,,,,,,,,,,,,,,,,,,,,,,,,,,,,,,,,,,,,,,,,,,,,,,,,,,
,,,,,52,2020-07-04_15h23.14.963,retriever_ti,2020.1.3,Win32,60,Chrome,1366,768,606.03264,12,right,1.196365,glasses,0,606.06786,606.06786,608.567055,0,3,3,3,1,8,7,1,html/resources/stimuli_practice_decision/03_squirrel.jpg,html/resources/stimuli_practice_decision/05_glasses.jpg,squirrel,glasses,,,,,,,,,,,,,,,,,,,,,,,,,,,,,,,,,,,,,,,,,,,,,,,,,,,,,,,,,,,,,,,,,,,,,,,,,,,,,
,,,,,52,2020-07-04_15h23.14.963,retriever_ti,2020.1.3,Win32,60,Chrome,1366,768,609.569495,13,left,1.046,canary,1,609.60482,609.60482,612.103975,0,4,4,4,1,5,3,1,html/resources/stimuli_practice_decision/02_canary.jpg,html/resources/stimuli_practice_decision/07_sock.jpg,canary,sock,,,,,,,,,,,,,,,,,,,,,,,,,,,,,,,,,,,,,,,,,,,,,,,,,,,,,,,,,,,,,,,,,,,,,,,,,,,,,
,,,,,52,2020-07-04_15h23.14.963,retriever_ti,2020.1.3,Win32,60,Chrome,1366,768,612.605525,14,left,0.81073,glasses,0,612.639245,612.639245,615.126375,0,5,5,5,1,7,8,1,html/resources/stimuli_practice_decision/05_glasses.jpg,html/resources/stimuli_practice_decision/03_squirrel.jpg,glasses,squirrel,,,,,,,,,,,,,,,,,,,,,,,,,,,,,,,,,,,,,,,,,,,,,,,,,,,,,,,,,,,,,,,,,,,,,,,,,,,,,
,,,,,52,2020-07-04_15h23.14.963,retriever_ti,2020.1.3,Win32,60,Chrome,1366,768,616.12633,15,left,1.973425,canary,1,616.16095,616.16095,618.660065,0,6,6,6,1,5,4,1,html/resources/stimuli_practice_decision/02_canary.jpg,html/resources/stimuli_practice_decision/01_rabbit.jpg,canary,rabbit,,,,,,,,,,,,,,,,,,,,,,,,,,,,,,,,,,,,,,,,,,,,,,,,,,,,,,,,,,,,,,,,,,,,,,,,,,,,,
,,,,,52,2020-07-04_15h23.14.963,retriever_ti,2020.1.3,Win32,60,Chrome,1366,768,619.662695,16,left,1.222625,canary,1,619.69599,619.69599,622.19677,0,7,7,7,1,5,3,1,html/resources/stimuli_practice_decision/02_canary.jpg,html/resources/stimuli_practice_decision/07_sock.jpg,canary,sock,,,,,,,,,,,,,,,,,,,,,,,,,,,,,,,,,,,,,,,,,,,,,,,,,,,,,,,,,,,,,,,,,,,,,,,,,,,,,
,,,,,52,2020-07-04_15h23.14.963,retriever_ti,2020.1.3,Win32,60,Chrome,1366,768,,,,,,,,,,,,,,,,,,,,,,up,1,1,0,0,0,0,1,html/resources/sequences_IDs/circle.png,circle ↑,square →,triangle ↓,← star ,up,3.536085,,,,,,,,,,,,,,,,,,,,,,,,,,,,,,,,,,,,,,,,,,,,,,,,,,,,,,,,,,,,,,
,,,,,52,2020-07-04_15h23.14.963,retriever_ti,2020.1.3,Win32,60,Chrome,1366,768,,,,,,,,,,,,,,,,,,,,,,left,1,1,0,1,1,2,1,html/resources/sequences_IDs/square1.png,star ↑,triangle →,circle ↓,← square,left,1.351075,,,,,,,,,,,,,,,,,,,,,,,,,,,,,,,,,,,,,,,,,,,,,,,,,,,,,,,,,,,,,,
,,,,,52,2020-07-04_15h23.14.963,retriever_ti,2020.1.3,Win32,60,Chrome,1366,768,,,,,,,,,,,,,,,,,,,,,,down,1,1,0,2,2,1,1,html/resources/sequences_IDs/star.png,square ↑,circle →,star ↓,← triangle,down,1.030335,,,,,,,,,,,,,,,,,,,,,,,,,,,,,,,,,,,,,,,,,,,,,,,,,,,,,,,,,,,,,,
,,,,,52,2020-07-04_15h23.14.963,retriever_ti,2020.1.3,Win32,60,Chrome,1366,768,,,,,,,,,,,,,,,,,,,,,,down,1,1,0,3,3,3,1,html/resources/sequences_IDs/triangle.png,star ↑,square →,triangle ↓,← circle,down,1.240255,,,,,,,,,,,,,,,,,,,,,,,,,,,,,,,,,,,,,,,,,,,,,,,,,,,,,,,,,,,,,,
,,,,,52,2020-07-04_15h23.14.963,retriever_ti,2020.1.3,Win32,60,Chrome,1366,768,,,,,,,,,,,,,,,,,,,,,,,,,,,,,,,,,,,,,0,3.34106,1,0,1,0,1,,,,,,,,,,,,,,,,,,,,,,,,,,,,,,,,,,,,,,,,,,,,,,,,,,,,,,,
,,,,,52,2020-07-04_15h23.14.963,retriever_ti,2020.1.3,Win32,60,Chrome,1366,768,,,,,,,,,,,,,,,,,1,,,,,,,,,,,,,,,,,,,,,,,,,,,641.309955,1,right,1.302785,giraffe     ,6,3,-1,0,0,641.33985,641.33985,643.836075,0,0,0,0,1,1,7,6,hat           ,giraffe     ,html/resources/sequences_IDs/A/08_hat.jpg,html/resources/sequences_IDs/B/03_giraffe.jpg,8,3,3,2,1,1,6,2,0,52,,,,,,,,,,,,,,,,,,,,
,,,,,52,2020-07-04_15h23.14.963,retriever_ti,2020.1.3,Win32,60,Chrome,1366,768,,,,,,,,,,,,,,,,,1,,,,,,,,,,,,,,,,,,,,,,,,,,,644.93749,2,left,1.579805,radio       ,2,10,1,1,1,644.956955,644.956955,647.456,0,1,1,1,1,2,2,1,radio       ,calculator    ,html/resources/sequences_IDs/B/10_radio.jpg,html/resources/sequences_IDs/A/09_calculator.jpg,10,9,4,2,4,2,8,7,0,52,,,,,,,,,,,,,,,,,,,,
,,,,,52,2020-07-04_15h23.14.963,retriever_ti,2020.1.3,Win32,60,Chrome,1366,768,,,,,,,,,,,,,,,,,1,,,,,,,,,,,,,,,,,,,,,,,,,,,648.55842,3,left,1.014935,giraffe     ,6,3,5,1,3,648.593585,648.593585,651.093475,0,2,2,2,1,3,6,1,giraffe     ,calculator    ,html/resources/sequences_IDs/B/03_giraffe.jpg,html/resources/sequences_IDs/A/09_calculator.jpg,3,9,1,1,4,2,2,7,0,52,,,,,,,,,,,,,,,,,,,,
,,,,,52,2020-07-04_15h23.14.963,retriever_ti,2020.1.3,Win32,60,Chrome,1366,768,,,,,,,,,,,,,,,,,1,,,,,,,,,,,,,,,,,,,,,,,,,,,651.695205,4,left,1.28103,redfox      ,8,1,1,1,0,651.712165,651.712165,654.212745,0,3,3,3,1,4,8,7,redfox      ,hat           ,html/resources/sequences_IDs/B/01_redfox.jpg,html/resources/sequences_IDs/A/08_hat.jpg,1,8,1,1,3,2,1,6,1,52,,,,,,,,,,,,,,,,,,,,
,,,,,52,2020-07-04_15h23.14.963,retriever_ti,2020.1.3,Win32,60,Chrome,1366,768,,,,,,,,,,,,,,,,,1,,,,,,,,,,,,,,,,,,,,,,,,,,,655.314175,5,right,1.31984,dress         ,5,7,-2,0,3,655.34821,655.34821,657.84925,0,4,4,4,1,5,7,5,hat           ,dress         ,html/resources/sequences_IDs/A/08_hat.jpg,html/resources/sequences_IDs/A/07_dress.jpg,8,7,3,2,3,2,6,5,0,52,,,,,,,,,,,,,,,,,,,,
,,,,,52,2020-07-04_15h23.14.963,retriever_ti,2020.1.3,Win32,60,Chrome,1366,768,,,,,,,,,,,,,,,,,1,,,,,,,,,,,,,,,,,,,,,,,,,,,658.45167,6,left,0.98721,hat           ,7,8,1,1,1,658.4678,658.4678,660.969715,0,5,5,5,1,6,7,6,hat           ,giraffe     ,html/resources/sequences_IDs/A/08_hat.jpg,html/resources/sequences_IDs/B/03_giraffe.jpg,8,3,3,2,1,1,6,2,0,52,,,,,,,,,,,,,,,,,,,,
,,,,,52,2020-07-04_15h23.14.963,retriever_ti,2020.1.3,Win32,60,Chrome,1366,768,,,,,,,,,,,,,,,,,1,,,,,,,,,,,,,,,,,,,,,,,,,,,662.072815,7,right,1.286035,dress         ,5,7,1,1,1,662.10652,662.10652,664.605945,0,6,6,6,1,7,4,5,parrot      ,dress         ,html/resources/sequences_IDs/B/05_parrot.jpg,html/resources/sequences_IDs/A/07_dress.jpg,5,7,2,1,3,2,4,5,0,52,,,,,,,,,,,,,,,,,,,,
,,,,,52,2020-07-04_15h23.14.963,retriever_ti,2020.1.3,Win32,60,Chrome,1366,768,,,,,,,,,,,,,,,,,1,,,,,,,,,,,,,,,,,,,,,,,,,,,665.70833,8,right,1.281005,redfox      ,8,1,5,1,3,665.724805,665.724805,668.21296,0,7,7,7,1,8,3,8,clownfish     ,redfox      ,html/resources/sequences_IDs/A/04_clownfish.jpg,html/resources/sequences_IDs/B/01_redfox.jpg,4,1,2,1,1,1,3,1,0,52,,,,,,,,,,,,,,,,,,,,
,,,,,52,2020-07-04_15h23.14.963,retriever_ti,2020.1.3,Win32,60,Chrome,1366,768,,,,,,,,,,,,,,,,,1,,,,,,,,,,,,,,,,,,,,,,,,,,,668.829355,9,right,1.6236,dress         ,5,7,4,1,3,668.864255,668.864255,671.363185,0,8,8,8,1,9,1,5,calculator    ,dress         ,html/resources/sequences_IDs/A/09_calculator.jpg,html/resources/sequences_IDs/A/07_dress.jpg,9,7,4,2,3,2,7,5,0,52,,,,,,,,,,,,,,,,,,,,
,,,,,52,2020-07-04_15h23.14.963,retriever_ti,2020.1.3,Win32,60,Chrome,1366,768,,,,,,,,,,,,,,,,,1,,,,,,,,,,,,,,,,,,,,,,,,,,,671.98156,10,left,1.08563,radio       ,2,10,-4,0,3,672.01438,672.01438,674.516255,0,9,9,9,1,10,2,6,radio       ,giraffe     ,html/resources/sequences_IDs/B/10_radio.jpg,html/resources/sequences_IDs/B/03_giraffe.jpg,10,3,4,2,1,1,8,2,0,52,,,,,,,,,,,,,,,,,,,,
,,,,,52,2020-07-04_15h23.14.963,retriever_ti,2020.1.3,Win32,60,Chrome,1366,768,,,,,,,,,,,,,,,,,1,,,,,,,,,,,,,,,,,,,,,,,,,,,675.117305,11,right,1.637465,redfox      ,8,1,2,1,3,675.15212,675.15212,677.65272,0,10,10,10,1,11,6,8,giraffe     ,redfox      ,html/resources/sequences_IDs/B/03_giraffe.jpg,html/resources/sequences_IDs/B/01_redfox.jpg,3,1,1,1,1,1,2,1,0,52,,,,,,,,,,,,,,,,,,,,
,,,,,52,2020-07-04_15h23.14.963,retriever_ti,2020.1.3,Win32,60,Chrome,1366,768,,,,,,,,,,,,,,,,,1,,,,,,,,,,,,,,,,,,,,,,,,,,,678.255525,12,left,1.14617,hat           ,7,8,6,1,3,678.27372,678.27372,680.772545,0,11,11,11,1,12,7,1,hat           ,calculator    ,html/resources/sequences_IDs/A/08_hat.jpg,html/resources/sequences_IDs/A/09_calculator.jpg,8,9,3,2,4,2,6,7,0,52,,,,,,,,,,,,,,,,,,,,
,,,,,52,2020-07-04_15h23.14.963,retriever_ti,2020.1.3,Win32,60,Chrome,1366,768,,,,,,,,,,,,,,,,,1,,,,,,,,,,,,,,,,,,,,,,,,,,,681.37362,13,left,1.360785,redfox      ,8,1,4,1,3,681.393035,681.393035,683.89217,0,12,12,12,1,13,8,4,redfox      ,parrot      ,html/resources/sequences_IDs/B/01_redfox.jpg,html/resources/sequences_IDs/B/05_parrot.jpg,1,5,1,1,2,1,1,4,0,52,,,,,,,,,,,,,,,,,,,,
,,,,,52,2020-07-04_15h23.14.963,retriever_ti,2020.1.3,Win32,60,Chrome,1366,768,,,,,,,,,,,,,,,,,1,,,,,,,,,,,,,,,,,,,,,,,,,,,684.493355,14,right,1.149985,hat           ,7,8,4,1,3,684.52924,684.52924,687.02838,0,13,13,13,1,14,3,7,clownfish     ,hat           ,html/resources/sequences_IDs/A/04_clownfish.jpg,html/resources/sequences_IDs/A/08_hat.jpg,4,8,2,1,3,2,3,6,0,52,,,,,,,,,,,,,,,,,,,,
,,,,,52,2020-07-04_15h23.14.963,retriever_ti,2020.1.3,Win32,60,Chrome,1366,768,,,,,,,,,,,,,,,,,1,,,,,,,,,,,,,,,,,,,,,,,,,,,687.630555,15,right,0.99246,hat           ,7,8,-1,0,0,687.64744,687.64744,690.14879,0,14,14,14,1,15,8,7,redfox      ,hat           ,html/resources/sequences_IDs/B/01_redfox.jpg,html/resources/sequences_IDs/A/08_hat.jpg,1,8,1,1,3,2,1,6,0,52,,,,,,,,,,,,,,,,,,,,
,,,,,52,2020-07-04_15h23.14.963,retriever_ti,2020.1.3,Win32,60,Chrome,1366,768,,,,,,,,,,,,,,,,,1,,,,,,,,,,,,,,,,,,,,,,,,,,,691.25013,16,left,1.087525,clownfish     ,3,4,-1,0,0,691.28432,691.28432,693.7862,0,15,15,15,1,16,3,4,clownfish     ,parrot      ,html/resources/sequences_IDs/A/04_clownfish.jpg,html/resources/sequences_IDs/B/05_parrot.jpg,4,5,2,1,2,1,3,4,0,52,,,,,,,,,,,,,,,,,,,,
,,,,,52,2020-07-04_15h23.14.963,retriever_ti,2020.1.3,Win32,60,Chrome,1366,768,,,,,,,,,,,,,,,,,1,,,,,,,,,,,,,,,,,,,,,,,,,,,694.88824,17,right,1.008745,radio       ,2,10,1,1,1,694.90489,694.90489,697.40614,0,16,16,16,1,17,1,2,calculator    ,radio       ,html/resources/sequences_IDs/A/09_calculator.jpg,html/resources/sequences_IDs/B/10_radio.jpg,9,10,4,2,4,2,7,8,0,52,,,,,,,,,,,,,,,,,,,,
,,,,,52,2020-07-04_15h23.14.963,retriever_ti,2020.1.3,Win32,60,Chrome,1366,768,,,,,,,,,,,,,,,,,1,,,,,,,,,,,,,,,,,,,,,,,,,,,698.508465,18,right,1.51254,parrot      ,4,5,-2,0,3,698.544005,698.544005,701.04256,0,17,17,17,1,18,6,4,giraffe     ,parrot      ,html/resources/sequences_IDs/B/03_giraffe.jpg,html/resources/sequences_IDs/B/05_parrot.jpg,3,5,1,1,2,1,2,4,0,52,,,,,,,,,,,,,,,,,,,,
,,,,,52,2020-07-04_15h23.14.963,retriever_ti,2020.1.3,Win32,60,Chrome,1366,768,,,,,,,,,,,,,,,,,1,,,,,,,,,,,,,,,,,,,,,,,,,,,701.64385,19,right,1.479075,clownfish     ,3,4,-1,0,0,701.662735,701.662735,704.162675,0,18,18,18,1,19,4,3,parrot      ,clownfish     ,html/resources/sequences_IDs/B/05_parrot.jpg,html/resources/sequences_IDs/A/04_clownfish.jpg,5,4,2,1,2,1,4,3,0,52,,,,,,,,,,,,,,,,,,,,
,,,,,52,2020-07-04_15h23.14.963,retriever_ti,2020.1.3,Win32,60,Chrome,1366,768,,,,,,,,,,,,,,,,,1,,,,,,,,,,,,,,,,,,,,,,,,,,,705.264125,20,left,0.735715,hat           ,7,8,-1,0,0,705.298665,705.298665,707.79959,0,19,19,19,1,20,7,8,hat           ,redfox      ,html/resources/sequences_IDs/A/08_hat.jpg,html/resources/sequences_IDs/B/01_redfox.jpg,8,1,3,2,1,1,6,1,0,52,,,,,,,,,,,,,,,,,,,,
,,,,,52,2020-07-04_15h23.14.963,retriever_ti,2020.1.3,Win32,60,Chrome,1366,768,,,,,,,,,,,,,,,,,1,,,,,,,,,,,,,,,,,,,,,,,,,,,708.903025,21,NaN,NaN,No_response,NaN,NaN,NaN,2,2,708.93681,708.93681,711.436165,0,20,20,20,1,21,3,4,clownfish     ,parrot      ,html/resources/sequences_IDs/A/04_clownfish.jpg,html/resources/sequences_IDs/B/05_parrot.jpg,4,5,2,1,2,1,3,4,0,52,,,,,,,,,,,,,,,,,,,,
,,,,,52,2020-07-04_15h23.14.963,retriever_ti,2020.1.3,Win32,60,Chrome,1366,768,,,,,,,,,,,,,,,,,1,,,,,,,,,,,,,,,,,,,,,,,,,,,712.53842,22,left,1.01961,parrot      ,4,5,3,1,3,712.573395,712.573395,715.07291,0,21,21,21,1,22,4,1,parrot      ,calculator    ,html/resources/sequences_IDs/B/05_parrot.jpg,html/resources/sequences_IDs/A/09_calculator.jpg,5,9,2,1,4,2,4,7,0,52,,,,,,,,,,,,,,,,,,,,
,,,,,52,2020-07-04_15h23.14.963,retriever_ti,2020.1.3,Win32,60,Chrome,1366,768,,,,,,,,,,,,,,,,,1,,,,,,,,,,,,,,,,,,,,,,,,,,,715.67507,23,right,0.685915,hat           ,7,8,1,1,1,715.69211,715.69211,718.19318,0,22,22,22,1,23,6,7,giraffe     ,hat           ,html/resources/sequences_IDs/B/03_giraffe.jpg,html/resources/sequences_IDs/A/08_hat.jpg,3,8,1,1,3,2,2,6,0,52,,,,,,,,,,,,,,,,,,,,
,,,,,52,2020-07-04_15h23.14.963,retriever_ti,2020.1.3,Win32,60,Chrome,1366,768,,,,,,,,,,,,,,,,,1,,,,,,,,,,,,,,,,,,,,,,,,,,,719.294665,24,left,0.96335,hat           ,7,8,4,1,3,719.314065,719.314065,721.81349,0,23,23,23,1,24,7,3,hat           ,clownfish     ,html/resources/sequences_IDs/A/08_hat.jpg,html/resources/sequences_IDs/A/04_clownfish.jpg,8,4,3,2,2,1,6,3,0,52,,,,,,,,,,,,,,,,,,,,
,,,,,52,2020-07-04_15h23.14.963,retriever_ti,2020.1.3,Win32,60,Chrome,1366,768,,,,,,,,,,,,,,,,,1,,,,,,,,,,,,,,,,,,,,,,,,,,,722.415775,25,right,1.634465,clownfish     ,3,4,-1,0,0,722.43308,722.43308,724.933185,0,24,24,24,1,25,4,3,parrot      ,clownfish     ,html/resources/sequences_IDs/B/05_parrot.jpg,html/resources/sequences_IDs/A/04_clownfish.jpg,5,4,2,1,2,1,4,3,0,52,,,,,,,,,,,,,,,,,,,,
,,,,,52,2020-07-04_15h23.14.963,retriever_ti,2020.1.3,Win32,60,Chrome,1366,768,,,,,,,,,,,,,,,,,1,,,,,,,,,,,,,,,,,,,,,,,,,,,726.035155,26,left,1.120485,dress         ,5,7,3,1,3,726.068735,726.068735,728.570305,0,25,25,25,1,26,5,2,dress         ,radio       ,html/resources/sequences_IDs/A/07_dress.jpg,html/resources/sequences_IDs/B/10_radio.jpg,7,10,3,2,4,2,5,8,0,52,,,,,,,,,,,,,,,,,,,,
,,,,,52,2020-07-04_15h23.14.963,retriever_ti,2020.1.3,Win32,60,Chrome,1366,768,,,,,,,,,,,,,,,,,1,,,,,,,,,,,,,,,,,,,,,,,,,,,729.17119,27,left,1.026525,redfox      ,8,1,2,1,3,729.18844,729.18844,731.690235,0,26,26,26,1,27,8,6,redfox      ,giraffe     ,html/resources/sequences_IDs/B/01_redfox.jpg,html/resources/sequences_IDs/B/03_giraffe.jpg,1,3,1,1,1,1,1,2,0,52,,,,,,,,,,,,,,,,,,,,
,,,,,52,2020-07-04_15h23.14.963,retriever_ti,2020.1.3,Win32,60,Chrome,1366,768,,,,,,,,,,,,,,,,,1,,,,,,,,,,,,,,,,,,,,,,,,,,,732.29291,28,right,1.088665,dress         ,5,7,-1,0,0,732.32599,732.32599,734.82595,0,27,27,27,1,28,6,5,giraffe     ,dress         ,html/resources/sequences_IDs/B/03_giraffe.jpg,html/resources/sequences_IDs/A/07_dress.jpg,3,7,1,1,3,2,2,5,0,52,,,,,,,,,,,,,,,,,,,,
,,,,,52,2020-07-04_15h23.14.963,retriever_ti,2020.1.3,Win32,60,Chrome,1366,768,,,,,,,,,,,,,,,,,1,,,,,,,,,,,,,,,,,,,,,,,,,,,735.928935,29,left,1.128345,dress         ,5,7,1,1,1,735.9463,735.9463,738.44682,0,28,28,28,1,29,5,4,dress         ,parrot      ,html/resources/sequences_IDs/A/07_dress.jpg,html/resources/sequences_IDs/B/05_parrot.jpg,7,5,3,2,2,1,5,4,0,52,,,,,,,,,,,,,,,,,,,,
,,,,,52,2020-07-04_15h23.14.963,retriever_ti,2020.1.3,Win32,60,Chrome,1366,768,,,,,,,,,,,,,,,,,1,,,,,,,,,,,,,,,,,,,,,,,,,,,739.549165,30,right,0.80457,dress         ,5,7,3,1,3,739.582475,739.582475,742.083665,0,29,29,29,1,30,2,5,radio       ,dress         ,html/resources/sequences_IDs/B/10_radio.jpg,html/resources/sequences_IDs/A/07_dress.jpg,10,7,4,2,3,2,8,5,0,52,,,,,,,,,,,,,,,,,,,,
,,,,,52,2020-07-04_15h23.14.963,retriever_ti,2020.1.3,Win32,60,Chrome,1366,768,,,,,,,,,,,,,,,,,1,,,,,,,,,,,,,,,,,,,,,,,,,,,742.685315,31,right,0.700765,parrot      ,4,5,3,1,3,742.71874,742.71874,745.219965,0,30,30,30,1,31,1,4,calculator    ,parrot      ,html/resources/sequences_IDs/A/09_calculator.jpg,html/resources/sequences_IDs/B/05_parrot.jpg,9,5,4,2,2,1,7,4,0,52,,,,,,,,,,,,,,,,,,,,
,,,,,52,2020-07-04_15h23.14.963,retriever_ti,2020.1.3,Win32,60,Chrome,1366,768,,,,,,,,,,,,,,,,,1,,,,,,,,,,,,,,,,,,,,,,,,,,,745.82191,32,left,0.995465,clownfish     ,3,4,2,1,3,745.85546,745.85546,748.35663,0,31,31,31,1,32,3,1,clownfish     ,calculator    ,html/resources/sequences_IDs/A/04_clownfish.jpg,html/resources/sequences_IDs/A/09_calculator.jpg,4,9,2,1,4,2,3,7,0,52,,,,,,,,,,,,,,,,,,,,
,,,,,52,2020-07-04_15h23.14.963,retriever_ti,2020.1.3,Win32,60,Chrome,1366,768,,,,,,,,,,,,,,,,,1,,,,,,,,,,,,,,,,,,,,,,,,,,,748.95767,33,left,1.03128,parrot      ,4,5,-4,0,3,748.97557,748.97557,751.47634,0,32,32,32,1,33,4,8,parrot      ,redfox      ,html/resources/sequences_IDs/B/05_parrot.jpg,html/resources/sequences_IDs/B/01_redfox.jpg,5,1,2,1,1,1,4,1,0,52,,,,,,,,,,,,,,,,,,,,
,,,,,52,2020-07-04_15h23.14.963,retriever_ti,2020.1.3,Win32,60,Chrome,1366,768,,,,,,,,,,,,,,,,,1,,,,,,,,,,,,,,,,,,,,,,,,,,,752.07842,34,left,0.73888,parrot      ,4,5,-2,0,3,752.11342,752.11342,754.612845,0,33,33,33,1,34,4,6,parrot      ,giraffe     ,html/resources/sequences_IDs/B/05_parrot.jpg,html/resources/sequences_IDs/B/03_giraffe.jpg,5,3,2,1,1,1,4,2,0,52,,,,,,,,,,,,,,,,,,,,
,,,,,52,2020-07-04_15h23.14.963,retriever_ti,2020.1.3,Win32,60,Chrome,1366,768,,,,,,,,,,,,,,,,,1,,,,,,,,,,,,,,,,,,,,,,,,,,,755.2137,35,left,1.12622,redfox      ,8,1,5,1,3,755.250135,755.250135,757.75006,0,34,34,34,1,35,8,3,redfox      ,clownfish     ,html/resources/sequences_IDs/B/01_redfox.jpg,html/resources/sequences_IDs/A/04_clownfish.jpg,1,4,1,1,2,1,1,3,0,52,,,,,,,,,,,,,,,,,,,,
,,,,,52,2020-07-04_15h23.14.963,retriever_ti,2020.1.3,Win32,60,Chrome,1366,768,,,,,,,,,,,,,,,,,1,,,,,,,,,,,,,,,,,,,,,,,,,,,758.36833,36,left,1.59706,dress         ,5,7,-1,0,0,758.384565,758.384565,760.88591,0,35,35,35,1,36,5,6,dress         ,giraffe     ,html/resources/sequences_IDs/A/07_dress.jpg,html/resources/sequences_IDs/B/03_giraffe.jpg,7,3,3,2,1,1,5,2,0,52,,,,,,,,,,,,,,,,,,,,
,,,,,52,2020-07-04_15h23.14.963,retriever_ti,2020.1.3,Win32,60,Chrome,1366,768,,,,,,,,,,,,,,,,,1,,,,,,,,,,,,,,,,,,,,,,,,,,,761.988395,37,left,0.78309,parrot      ,4,5,-1,0,1,762.00478,762.00478,764.50599,0,36,36,36,1,37,4,5,parrot      ,dress         ,html/resources/sequences_IDs/B/05_parrot.jpg,html/resources/sequences_IDs/A/07_dress.jpg,5,7,2,1,3,2,4,5,1,52,,,,,,,,,,,,,,,,,,,,
,,,,,52,2020-07-04_15h23.14.963,retriever_ti,2020.1.3,Win32,60,Chrome,1366,768,,,,,,,,,,,,,,,,,1,,,,,,,,,,,,,,,,,,,,,,,,,,,765.6079,38,right,0.665575,hat           ,7,8,6,1,3,765.64402,765.64402,768.14319,0,37,37,37,1,38,1,7,calculator    ,hat           ,html/resources/sequences_IDs/A/09_calculator.jpg,html/resources/sequences_IDs/A/08_hat.jpg,9,8,4,2,3,2,7,6,0,52,,,,,,,,,,,,,,,,,,,,
,,,,,52,2020-07-04_15h23.14.963,retriever_ti,2020.1.3,Win32,60,Chrome,1366,768,,,,,,,,,,,,,,,,,1,,,,,,,,,,,,,,,,,,,,,,,,,,,768.744085,39,right,1.07726,hat           ,7,8,2,1,3,768.778245,768.778245,771.27913,0,38,38,38,1,39,5,7,dress         ,hat           ,html/resources/sequences_IDs/A/07_dress.jpg,html/resources/sequences_IDs/A/08_hat.jpg,7,8,3,2,3,2,5,6,0,52,,,,,,,,,,,,,,,,,,,,
,,,,,52,2020-07-04_15h23.14.963,retriever_ti,2020.1.3,Win32,60,Chrome,1366,768,,,,,,,,,,,,,,,,,1,,,,,,,,,,,,,,,,,,,,,,,,,,,771.881735,40,left,0.98694,giraffe     ,6,3,1,1,0,771.898025,771.898025,774.399235,0,39,39,39,1,40,6,5,giraffe     ,dress         ,html/resources/sequences_IDs/B/03_giraffe.jpg,html/resources/sequences_IDs/A/07_dress.jpg,3,7,1,1,3,2,2,5,1,52,,,,,,,,,,,,,,,,,,,,
,,,,,52,2020-07-04_15h23.14.963,retriever_ti,2020.1.3,Win32,60,Chrome,1366,768,,,,,,,,,,,,,,,,,1,,,,,,,,,,,,,,,,,,,,,,,,,,,775.50142,41,right,0.67814,hat           ,7,8,5,1,3,775.535835,775.535835,778.03627,0,40,40,40,1,41,2,7,radio       ,hat           ,html/resources/sequences_IDs/B/10_radio.jpg,html/resources/sequences_IDs/A/08_hat.jpg,10,8,4,2,3,2,8,6,0,52,,,,,,,,,,,,,,,,,,,,
,,,,,52,2020-07-04_15h23.14.963,retriever_ti,2020.1.3,Win32,60,Chrome,1366,768,,,,,,,,,,,,,,,,,1,,,,,,,,,,,,,,,,,,,,,,,,,,,778.63781,42,left,0.878805,clownfish     ,3,4,-3,0,3,778.671695,778.671695,781.17262,0,41,41,41,1,42,3,6,clownfish     ,giraffe     ,html/resources/sequences_IDs/A/04_clownfish.jpg,html/resources/sequences_IDs/B/03_giraffe.jpg,4,3,2,1,1,1,3,2,0,52,,,,,,,,,,,,,,,,,,,,
,,,,,52,2020-07-04_15h23.14.963,retriever_ti,2020.1.3,Win32,60,Chrome,1366,768,,,,,,,,,,,,,,,,,1,,,,,,,,,,,,,,,,,,,,,,,,,,,781.774955,43,left,1.005885,hat           ,7,8,3,1,3,781.79129,781.79129,784.292425,0,42,42,42,1,43,7,4,hat           ,parrot      ,html/resources/sequences_IDs/A/08_hat.jpg,html/resources/sequences_IDs/B/05_parrot.jpg,8,5,3,2,2,1,6,4,0,52,,,,,,,,,,,,,,,,,,,,
,,,,,52,2020-07-04_15h23.14.963,retriever_ti,2020.1.3,Win32,60,Chrome,1366,768,,,,,,,,,,,,,,,,,1,,,,,,,,,,,,,,,,,,,,,,,,,,,784.895405,44,right,0.619125,redfox      ,8,1,6,1,3,784.913415,784.913415,787.411815,0,43,43,43,1,44,2,8,radio       ,redfox      ,html/resources/sequences_IDs/B/10_radio.jpg,html/resources/sequences_IDs/B/01_redfox.jpg,10,1,4,2,1,1,8,1,0,52,,,,,,,,,,,,,,,,,,,,
,,,,,52,2020-07-04_15h23.14.963,retriever_ti,2020.1.3,Win32,60,Chrome,1366,768,,,,,,,,,,,,,,,,,1,,,,,,,,,,,,,,,,,,,,,,,,,,,788.013905,45,right,1.43692,radio       ,2,10,-1,0,0,788.03042,788.03042,790.53204,0,44,44,44,1,45,3,2,clownfish     ,radio       ,html/resources/sequences_IDs/A/04_clownfish.jpg,html/resources/sequences_IDs/B/10_radio.jpg,4,10,2,1,4,2,3,8,0,52,,,,,,,,,,,,,,,,,,,,
,,,,,52,2020-07-04_15h23.14.963,retriever_ti,2020.1.3,Win32,60,Chrome,1366,768,,,,,,,,,,,,,,,,,1,,,,,,,,,,,,,,,,,,,,,,,,,,,791.63349,46,right,0.776415,redfox      ,8,1,7,1,3,791.66767,791.66767,794.17015,0,45,45,45,1,46,1,8,calculator    ,redfox      ,html/resources/sequences_IDs/A/09_calculator.jpg,html/resources/sequences_IDs/B/01_redfox.jpg,9,1,4,2,1,1,7,1,0,52,,,,,,,,,,,,,,,,,,,,
,,,,,52,2020-07-04_15h23.14.963,retriever_ti,2020.1.3,Win32,60,Chrome,1366,768,,,,,,,,,,,,,,,,,1,,,,,,,,,,,,,,,,,,,,,,,,,,,794.787235,47,left,0.89754,giraffe     ,6,3,1,1,1,794.821115,794.821115,797.32226,0,46,46,46,1,47,6,5,giraffe     ,dress         ,html/resources/sequences_IDs/B/03_giraffe.jpg,html/resources/sequences_IDs/A/07_dress.jpg,3,7,1,1,3,2,2,5,0,52,,,,,,,,,,,,,,,,,,,,
,,,,,52,2020-07-04_15h23.14.963,retriever_ti,2020.1.3,Win32,60,Chrome,1366,768,,,,,,,,,,,,,,,,,1,,,,,,,,,,,,,,,,,,,,,,,,,,,798.424195,48,right,1.065475,radio       ,2,10,-1,0,1,798.44311,798.44311,800.941865,0,47,47,47,1,48,3,2,clownfish     ,radio       ,html/resources/sequences_IDs/A/04_clownfish.jpg,html/resources/sequences_IDs/B/10_radio.jpg,4,10,2,1,4,2,3,8,1,52,,,,,,,,,,,,,,,,,,,,
,,,,,52,2020-07-04_15h23.14.963,retriever_ti,2020.1.3,Win32,60,Chrome,1366,768,,,,,,,,,,,,,,,,,1,,,,,,,,,,,,,,,,,,,,,,,,,,,802.044935,49,right,0.70526,hat           ,7,8,1,1,1,802.06183,802.06183,804.562675,0,48,48,48,1,49,6,7,giraffe     ,hat           ,html/resources/sequences_IDs/B/03_giraffe.jpg,html/resources/sequences_IDs/A/08_hat.jpg,3,8,1,1,3,2,2,6,0,52,,,,,,,,,,,,,,,,,,,,
,,,,,52,2020-07-04_15h23.14.963,retriever_ti,2020.1.3,Win32,60,Chrome,1366,768,,,,,,,,,,,,,,,,,1,,,,,,,,,,,,,,,,,,,,,,,,,,,805.66524,50,left,0.941245,parrot      ,4,5,-1,0,0,805.699975,805.699975,808.199815,0,49,49,49,1,50,4,5,parrot      ,dress         ,html/resources/sequences_IDs/B/05_parrot.jpg,html/resources/sequences_IDs/A/07_dress.jpg,5,7,2,1,3,2,4,5,0,52,,,,,,,,,,,,,,,,,,,,
,,,,,52,2020-07-04_15h23.14.963,retriever_ti,2020.1.3,Win32,60,Chrome,1366,768,,,,,,,,,,,,,,,,,1,,,,,,,,,,,,,,,,,,,,,,,,,,,809.30239,51,left,1.08547,giraffe     ,6,3,4,1,3,809.33724,809.33724,811.83668,0,50,50,50,1,51,6,2,giraffe     ,radio       ,html/resources/sequences_IDs/B/03_giraffe.jpg,html/resources/sequences_IDs/B/10_radio.jpg,3,10,1,1,4,2,2,8,0,52,,,,,,,,,,,,,,,,,,,,
,,,,,52,2020-07-04_15h23.14.963,retriever_ti,2020.1.3,Win32,60,Chrome,1366,768,,,,,,,,,,,,,,,,,1,,,,,,,,,,,,,,,,,,,,,,,,,,,812.43874,52,right,1.904605,clownfish     ,3,4,-2,0,3,812.45556,812.45556,814.95647,0,51,51,51,1,52,5,3,dress         ,clownfish     ,html/resources/sequences_IDs/A/07_dress.jpg,html/resources/sequences_IDs/A/04_clownfish.jpg,7,4,3,2,2,1,5,3,0,52,,,,,,,,,,,,,,,,,,,,
,,,,,52,2020-07-04_15h23.14.963,retriever_ti,2020.1.3,Win32,60,Chrome,1366,768,,,,,,,,,,,,,,,,,1,,,,,,,,,,,,,,,,,,,,,,,,,,,815.57352,53,left,0.99512,dress         ,5,7,1,1,1,815.59306,815.59306,818.09287,0,52,52,52,1,53,5,4,dress         ,parrot      ,html/resources/sequences_IDs/A/07_dress.jpg,html/resources/sequences_IDs/B/05_parrot.jpg,7,5,3,2,2,1,5,4,0,52,,,,,,,,,,,,,,,,,,,,
,,,,,52,2020-07-04_15h23.14.963,retriever_ti,2020.1.3,Win32,60,Chrome,1366,768,,,,,,,,,,,,,,,,,1,,,,,,,,,,,,,,,,,,,,,,,,,,,819.19553,54,left,1.65088,redfox      ,8,1,3,1,3,819.2123,819.2123,821.71329,0,53,53,53,1,54,8,5,redfox      ,dress         ,html/resources/sequences_IDs/B/01_redfox.jpg,html/resources/sequences_IDs/A/07_dress.jpg,1,7,1,1,3,2,1,5,0,52,,,,,,,,,,,,,,,,,,,,
,,,,,52,2020-07-04_15h23.14.963,retriever_ti,2020.1.3,Win32,60,Chrome,1366,768,,,,,,,,,,,,,,,,,1,,,,,,,,,,,,,,,,,,,,,,,,,,,822.31515,55,right,0.64887,clownfish     ,3,4,2,1,3,822.348715,822.348715,824.849595,0,54,54,54,1,55,1,3,calculator    ,clownfish     ,html/resources/sequences_IDs/A/09_calculator.jpg,html/resources/sequences_IDs/A/04_clownfish.jpg,9,4,4,2,2,1,7,3,0,52,,,,,,,,,,,,,,,,,,,,
,,,,,52,2020-07-04_15h23.14.963,retriever_ti,2020.1.3,Win32,60,Chrome,1366,768,,,,,,,,,,,,,,,,,1,,,,,,,,,,,,,,,,,,,,,,,,,,,825.45194,56,right,0.582585,hat           ,7,8,-1,0,0,825.467955,825.467955,827.969985,0,55,55,55,1,56,8,7,redfox      ,hat           ,html/resources/sequences_IDs/B/01_redfox.jpg,html/resources/sequences_IDs/A/08_hat.jpg,1,8,1,1,3,2,1,6,0,52,,,,,,,,,,,,,,,,,,,,
,,,,,52,2020-07-04_15h23.14.963,retriever_ti,2020.1.3,Win32,60,Chrome,1366,768,,,,,,,,,,,,,,,,,1,,,,,,,,,,,,,,,,,,,,,,,,,,,829.072775,57,left,1.54547,giraffe     ,6,3,3,1,3,829.106665,829.106665,831.60626,0,56,56,56,1,57,6,3,giraffe     ,clownfish     ,html/resources/sequences_IDs/B/03_giraffe.jpg,html/resources/sequences_IDs/A/04_clownfish.jpg,3,4,1,1,2,1,2,3,0,52,,,,,,,,,,,,,,,,,,,,
,,,,,52,2020-07-04_15h23.14.963,retriever_ti,2020.1.3,Win32,60,Chrome,1366,768,,,,,,,,,,,,,,,,,1,,,,,,,,,,,,,,,,,,,,,,,,,,,832.20768,58,left,0.62145,hat           ,7,8,5,1,3,832.241655,832.241655,834.742955,0,57,57,57,1,58,7,2,hat           ,radio       ,html/resources/sequences_IDs/A/08_hat.jpg,html/resources/sequences_IDs/B/10_radio.jpg,8,10,3,2,4,2,6,8,0,52,,,,,,,,,,,,,,,,,,,,
,,,,,52,2020-07-04_15h23.14.963,retriever_ti,2020.1.3,Win32,60,Chrome,1366,768,,,,,,,,,,,,,,,,,1,,,,,,,,,,,,,,,,,,,,,,,,,,,835.34569,59,left,0.875405,clownfish     ,3,4,1,1,1,835.361895,835.361895,837.862555,0,58,58,58,1,59,3,2,clownfish     ,radio       ,html/resources/sequences_IDs/A/04_clownfish.jpg,html/resources/sequences_IDs/B/10_radio.jpg,4,10,2,1,4,2,3,8,0,52,,,,,,,,,,,,,,,,,,,,
,,,,,52,2020-07-04_15h23.14.963,retriever_ti,2020.1.3,Win32,60,Chrome,1366,768,,,,,,,,,,,,,,,,,1,,,,,,,,,,,,,,,,,,,,,,,,,,,838.965055,60,left,0.67706,parrot      ,4,5,2,1,3,838.984225,838.984225,841.48289,0,59,59,59,1,60,4,2,parrot      ,radio       ,html/resources/sequences_IDs/B/05_parrot.jpg,html/resources/sequences_IDs/B/10_radio.jpg,5,10,2,1,4,2,4,8,0,52,,,,,,,,,,,,,,,,,,,,
,,,,,52,2020-07-04_15h23.14.963,retriever_ti,2020.1.3,Win32,60,Chrome,1366,768,,,,,,,,,,,,,,,,,1,,,,,,,,,,,,,,,,,,,,,,,,,,,842.08508,61,right,0.652045,parrot      ,4,5,2,1,3,842.12132,842.12132,844.61894,0,60,60,60,1,61,2,4,radio       ,parrot      ,html/resources/sequences_IDs/B/10_radio.jpg,html/resources/sequences_IDs/B/05_parrot.jpg,10,5,4,2,2,1,8,4,0,52,,,,,,,,,,,,,,,,,,,,
,,,,,52,2020-07-04_15h23.14.963,retriever_ti,2020.1.3,Win32,60,Chrome,1366,768,,,,,,,,,,,,,,,,,1,,,,,,,,,,,,,,,,,,,,,,,,,,,845.22034,62,left,1.29219,clownfish     ,3,4,-2,0,3,845.254225,845.254225,847.755965,0,61,61,61,1,62,3,5,clownfish     ,dress         ,html/resources/sequences_IDs/A/04_clownfish.jpg,html/resources/sequences_IDs/A/07_dress.jpg,4,7,2,1,3,2,3,5,0,52,,,,,,,,,,,,,,,,,,,,
,,,,,52,2020-07-04_15h23.14.963,retriever_ti,2020.1.3,Win32,60,Chrome,1366,768,,,,,,,,,,,,,,,,,1,,,,,,,,,,,,,,,,,,,,,,,,,,,848.35742,63,right,0.634715,hat           ,7,8,3,1,3,848.374285,848.374285,850.8758,0,62,62,62,1,63,4,7,parrot      ,hat           ,html/resources/sequences_IDs/B/05_parrot.jpg,html/resources/sequences_IDs/A/08_hat.jpg,5,8,2,1,3,2,4,6,0,52,,,,,,,,,,,,,,,,,,,,
,,,,,52,2020-07-04_15h23.14.963,retriever_ti,2020.1.3,Win32,60,Chrome,1366,768,,,,,,,,,,,,,,,,,1,,,,,,,,,,,,,,,,,,,,,,,,,,,851.47664,64,left,1.08783,radio       ,2,10,1,1,1,851.512185,851.512185,854.01209,0,63,63,63,1,64,2,1,radio       ,calculator    ,html/resources/sequences_IDs/B/10_radio.jpg,html/resources/sequences_IDs/A/09_calculator.jpg,10,9,4,2,4,2,8,7,0,52,,,,,,,,,,,,,,,,,,,,
,,,,,52,2020-07-04_15h23.14.963,retriever_ti,2020.1.3,Win32,60,Chrome,1366,768,,,,,,,,,,,,,,,,,1,,,,,,,,,,,,,,,,,,,,,,,,,,,855.11494,65,right,1.575685,redfox      ,8,1,3,1,3,855.13525,855.13525,857.632345,0,64,64,64,1,65,5,8,dress         ,redfox      ,html/resources/sequences_IDs/A/07_dress.jpg,html/resources/sequences_IDs/B/01_redfox.jpg,7,1,3,2,1,1,5,1,0,52,,,,,,,,,,,,,,,,,,,,
,,,,,52,2020-07-04_15h23.14.963,retriever_ti,2020.1.3,Win32,60,Chrome,1366,768,,,,,,,,,,,,,,,,,1,,,,,,,,,,,,,,,,,,,,,,,,,,,858.23378,66,right,0.847655,radio       ,2,10,1,1,1,858.25288,858.25288,860.752105,0,65,65,65,1,66,1,2,calculator    ,radio       ,html/resources/sequences_IDs/A/09_calculator.jpg,html/resources/sequences_IDs/B/10_radio.jpg,9,10,4,2,4,2,7,8,0,52,,,,,,,,,,,,,,,,,,,,
,,,,,52,2020-07-04_15h23.14.963,retriever_ti,2020.1.3,Win32,60,Chrome,1366,768,,,,,,,,,,,,,,,,,1,,,,,,,,,,,,,,,,,,,,,,,,,,,861.854935,67,right,0.782385,giraffe     ,6,3,1,1,1,861.871805,861.871805,864.372435,0,66,66,66,1,67,5,6,dress         ,giraffe     ,html/resources/sequences_IDs/A/07_dress.jpg,html/resources/sequences_IDs/B/03_giraffe.jpg,7,3,3,2,1,1,5,2,0,52,,,,,,,,,,,,,,,,,,,,
,,,,,52,2020-07-04_15h23.14.963,retriever_ti,2020.1.3,Win32,60,Chrome,1366,768,,,,,,,,,,,,,,,,,1,,,,,,,,,,,,,,,,,,,,,,,,,,,865.47435,68,right,0.71983,clownfish     ,3,4,1,1,1,865.509525,865.509525,868.009355,0,67,67,67,1,68,2,3,radio       ,clownfish     ,html/resources/sequences_IDs/B/10_radio.jpg,html/resources/sequences_IDs/A/04_clownfish.jpg,10,4,4,2,2,1,8,3,0,52,,,,,,,,,,,,,,,,,,,,
,,,,,52,2020-07-04_15h23.14.963,retriever_ti,2020.1.3,Win32,60,Chrome,1366,768,,,,,,,,,,,,,,,,,1,,,,,,,,,,,,,,,,,,,,,,,,,,,869.112315,69,left,0.999895,hat           ,7,8,-1,0,0,869.147015,869.147015,871.64632,0,68,68,68,1,69,7,8,hat           ,redfox      ,html/resources/sequences_IDs/A/08_hat.jpg,html/resources/sequences_IDs/B/01_redfox.jpg,8,1,3,2,1,1,6,1,0,52,,,,,,,,,,,,,,,,,,,,
,,,,,52,2020-07-04_15h23.14.963,retriever_ti,2020.1.3,Win32,60,Chrome,1366,768,,,,,,,,,,,,,,,,,1,,,,,,,,,,,,,,,,,,,,,,,,,,,872.74866,70,right,1.38931,parrot      ,4,5,1,1,0,872.783785,872.783785,875.283305,0,69,69,69,1,70,3,4,clownfish     ,parrot      ,html/resources/sequences_IDs/A/04_clownfish.jpg,html/resources/sequences_IDs/B/05_parrot.jpg,4,5,2,1,2,1,3,4,1,52,,,,,,,,,,,,,,,,,,,,
,,,,,52,2020-07-04_15h23.14.963,retriever_ti,2020.1.3,Win32,60,Chrome,1366,768,,,,,,,,,,,,,,,,,1,,,,,,,,,,,,,,,,,,,,,,,,,,,876.386025,71,right,0.62285,radio       ,2,10,1,1,0,876.418935,876.418935,878.92044,0,70,70,70,1,71,1,2,calculator    ,radio       ,html/resources/sequences_IDs/A/09_calculator.jpg,html/resources/sequences_IDs/B/10_radio.jpg,9,10,4,2,4,2,7,8,1,52,,,,,,,,,,,,,,,,,,,,
,,,,,52,2020-07-04_15h23.14.963,retriever_ti,2020.1.3,Win32,60,Chrome,1366,768,,,,,,,,,,,,,,,,,1,,,,,,,,,,,,,,,,,,,,,,,,,,,880.02242,72,left,1.121625,redfox      ,8,1,6,1,3,880.056175,880.056175,882.557245,0,71,71,71,1,72,8,2,redfox      ,radio       ,html/resources/sequences_IDs/B/01_redfox.jpg,html/resources/sequences_IDs/B/10_radio.jpg,1,10,1,1,4,2,1,8,0,52,,,,,,,,,,,,,,,,,,,,
,,,,,52,2020-07-04_15h23.14.963,retriever_ti,2020.1.3,Win32,60,Chrome,1366,768,,,,,,,,,,,,,,,,,1,,,,,,,,,,,,,,,,,,,,,,,,,,,883.158175,73,left,1.211145,dress         ,5,7,4,1,3,883.19272,883.19272,885.693725,0,72,72,72,1,73,5,1,dress         ,calculator    ,html/resources/sequences_IDs/A/07_dress.jpg,html/resources/sequences_IDs/A/09_calculator.jpg,7,9,3,2,4,2,5,7,0,52,,,,,,,,,,,,,,,,,,,,
,,,,,52,2020-07-04_15h23.14.963,retriever_ti,2020.1.3,Win32,60,Chrome,1366,768,,,,,,,,,,,,,,,,,1,,,,,,,,,,,,,,,,,,,,,,,,,,,886.295345,74,right,1.055065,clownfish     ,3,4,1,1,1,886.329055,886.329055,888.82997,0,73,73,73,1,74,2,3,radio       ,clownfish     ,html/resources/sequences_IDs/B/10_radio.jpg,html/resources/sequences_IDs/A/04_clownfish.jpg,10,4,4,2,2,1,8,3,0,52,,,,,,,,,,,,,,,,,,,,
,,,,,52,2020-07-04_15h23.14.963,retriever_ti,2020.1.3,Win32,60,Chrome,1366,768,,,,,,,,,,,,,,,,,1,,,,,,,,,,,,,,,,,,,,,,,,,,,889.93232,75,right,0.691045,giraffe     ,6,3,5,1,3,889.96616,889.96616,892.467075,0,74,74,74,1,75,1,6,calculator    ,giraffe     ,html/resources/sequences_IDs/A/09_calculator.jpg,html/resources/sequences_IDs/B/03_giraffe.jpg,9,3,4,2,1,1,7,2,0,52,,,,,,,,,,,,,,,,,,,,
,,,,,52,2020-07-04_15h23.14.963,retriever_ti,2020.1.3,Win32,60,Chrome,1366,768,,,,,,,,,,,,,,,,,1,,,,,,,,,,,,,,,,,,,,,,,,,,,893.06834,76,right,0.673555,hat           ,7,8,1,1,0,893.08675,893.08675,895.58701,0,75,75,75,1,76,6,7,giraffe     ,hat           ,html/resources/sequences_IDs/B/03_giraffe.jpg,html/resources/sequences_IDs/A/08_hat.jpg,3,8,1,1,3,2,2,6,1,52,,,,,,,,,,,,,,,,,,,,
,,,,,52,2020-07-04_15h23.14.963,retriever_ti,2020.1.3,Win32,60,Chrome,1366,768,,,,,,,,,,,,,,,,,1,,,,,,,,,,,,,,,,,,,,,,,,,,,896.689475,77,left,1.08831,redfox      ,8,1,7,1,3,896.72424,896.72424,899.223975,0,76,76,76,1,77,8,1,redfox      ,calculator    ,html/resources/sequences_IDs/B/01_redfox.jpg,html/resources/sequences_IDs/A/09_calculator.jpg,1,9,1,1,4,2,1,7,0,52,,,,,,,,,,,,,,,,,,,,
,,,,,52,2020-07-04_15h23.14.963,retriever_ti,2020.1.3,Win32,60,Chrome,1366,768,,,,,,,,,,,,,,,,,,,,,,,,,,,,,,,,,,,,,0,2.906525,,,,,,,,,,,,,,,,,,,,,,,,,,,,,,,,,,,,,,,,,0,0,0,0,1,,,,,,,,,,,,,,,
,,,,,52,2020-07-04_15h23.14.963,retriever_ti,2020.1.3,Win32,60,Chrome,1366,768,,,,,,,,,,,,,,,,,2,,,,,,,,,,,,,,,,,,,,,,,,,,,912.22832,78,left,1.236545,redfox      ,8,1,6,1,3,912.237905,912.237905,914.739475,0,0,0,0,1,78,8,2,redfox      ,radio       ,html/resources/sequences_IDs/B/01_redfox.jpg,html/resources/sequences_IDs/B/10_radio.jpg,1,10,1,1,4,2,1,8,0,52,,,,,,,,,,,,,,,,,,,,
,,,,,52,2020-07-04_15h23.14.963,retriever_ti,2020.1.3,Win32,60,Chrome,1366,768,,,,,,,,,,,,,,,,,2,,,,,,,,,,,,,,,,,,,,,,,,,,,915.340675,79,right,0.766635,parrot      ,4,5,-1,0,0,915.374665,915.374665,917.87599,0,1,1,1,1,79,5,4,dress         ,parrot      ,html/resources/sequences_IDs/A/07_dress.jpg,html/resources/sequences_IDs/B/05_parrot.jpg,7,5,3,2,2,1,5,4,0,52,,,,,,,,,,,,,,,,,,,,
,,,,,52,2020-07-04_15h23.14.963,retriever_ti,2020.1.3,Win32,60,Chrome,1366,768,,,,,,,,,,,,,,,,,2,,,,,,,,,,,,,,,,,,,,,,,,,,,918.97895,80,left,1.316,clownfish     ,3,4,-2,0,3,919.012125,919.012125,921.512205,0,2,2,2,1,80,3,5,clownfish     ,dress         ,html/resources/sequences_IDs/A/04_clownfish.jpg,html/resources/sequences_IDs/A/07_dress.jpg,4,7,2,1,3,2,3,5,0,52,,,,,,,,,,,,,,,,,,,,
,,,,,52,2020-07-04_15h23.14.963,retriever_ti,2020.1.3,Win32,60,Chrome,1366,768,,,,,,,,,,,,,,,,,2,,,,,,,,,,,,,,,,,,,,,,,,,,,922.114495,81,right,0.738525,redfox      ,8,1,7,1,3,922.13098,922.13098,924.63297,0,3,3,3,1,81,1,8,calculator    ,redfox      ,html/resources/sequences_IDs/A/09_calculator.jpg,html/resources/sequences_IDs/B/01_redfox.jpg,9,1,4,2,1,1,7,1,0,52,,,,,,,,,,,,,,,,,,,,
,,,,,52,2020-07-04_15h23.14.963,retriever_ti,2020.1.3,Win32,60,Chrome,1366,768,,,,,,,,,,,,,,,,,2,,,,,,,,,,,,,,,,,,,,,,,,,,,925.250365,82,left,0.76239,radio       ,2,10,1,1,1,925.2855,925.2855,927.78536,0,4,4,4,1,82,2,1,radio       ,calculator    ,html/resources/sequences_IDs/B/10_radio.jpg,html/resources/sequences_IDs/A/09_calculator.jpg,10,9,4,2,4,2,8,7,0,52,,,,,,,,,,,,,,,,,,,,
,,,,,52,2020-07-04_15h23.14.963,retriever_ti,2020.1.3,Win32,60,Chrome,1366,768,,,,,,,,,,,,,,,,,2,,,,,,,,,,,,,,,,,,,,,,,,,,,928.887385,83,right,0.704285,clownfish     ,3,4,1,1,1,928.90568,928.90568,931.40561,0,5,5,5,1,83,2,3,radio       ,clownfish     ,html/resources/sequences_IDs/B/10_radio.jpg,html/resources/sequences_IDs/A/04_clownfish.jpg,10,4,4,2,2,1,8,3,0,52,,,,,,,,,,,,,,,,,,,,
,,,,,52,2020-07-04_15h23.14.963,retriever_ti,2020.1.3,Win32,60,Chrome,1366,768,,,,,,,,,,,,,,,,,2,,,,,,,,,,,,,,,,,,,,,,,,,,,932.50846,84,right,0.71309,hat           ,7,8,2,1,3,932.526325,932.526325,935.025775,0,6,6,6,1,84,5,7,dress         ,hat           ,html/resources/sequences_IDs/A/07_dress.jpg,html/resources/sequences_IDs/A/08_hat.jpg,7,8,3,2,3,2,5,6,0,52,,,,,,,,,,,,,,,,,,,,
,,,,,52,2020-07-04_15h23.14.963,retriever_ti,2020.1.3,Win32,60,Chrome,1366,768,,,,,,,,,,,,,,,,,2,,,,,,,,,,,,,,,,,,,,,,,,,,,935.62752,85,right,0.70441,clownfish     ,3,4,1,1,1,935.663055,935.663055,938.16242,0,7,7,7,1,85,2,3,radio       ,clownfish     ,html/resources/sequences_IDs/B/10_radio.jpg,html/resources/sequences_IDs/A/04_clownfish.jpg,10,4,4,2,2,1,8,3,0,52,,,,,,,,,,,,,,,,,,,,
,,,,,52,2020-07-04_15h23.14.963,retriever_ti,2020.1.3,Win32,60,Chrome,1366,768,,,,,,,,,,,,,,,,,2,,,,,,,,,,,,,,,,,,,,,,,,,,,939.26526,86,left,0.793455,parrot      ,4,5,1,1,0,939.299705,939.299705,941.799415,0,8,8,8,1,86,4,3,parrot      ,clownfish     ,html/resources/sequences_IDs/B/05_parrot.jpg,html/resources/sequences_IDs/A/04_clownfish.jpg,5,4,2,1,2,1,4,3,1,52,,,,,,,,,,,,,,,,,,,,
,,,,,52,2020-07-04_15h23.14.963,retriever_ti,2020.1.3,Win32,60,Chrome,1366,768,,,,,,,,,,,,,,,,,2,,,,,,,,,,,,,,,,,,,,,,,,,,,942.902575,87,left,0.57031,clownfish     ,3,4,2,1,3,942.93495,942.93495,945.436145,0,9,9,9,1,87,3,1,clownfish     ,calculator    ,html/resources/sequences_IDs/A/04_clownfish.jpg,html/resources/sequences_IDs/A/09_calculator.jpg,4,9,2,1,4,2,3,7,0,52,,,,,,,,,,,,,,,,,,,,
,,,,,52,2020-07-04_15h23.14.963,retriever_ti,2020.1.3,Win32,60,Chrome,1366,768,,,,,,,,,,,,,,,,,2,,,,,,,,,,,,,,,,,,,,,,,,,,,946.03824,88,left,0.661045,radio       ,2,10,1,1,0,946.054655,946.054655,948.55597,0,10,10,10,1,88,2,1,radio       ,calculator    ,html/resources/sequences_IDs/B/10_radio.jpg,html/resources/sequences_IDs/A/09_calculator.jpg,10,9,4,2,4,2,8,7,1,52,,,,,,,,,,,,,,,,,,,,
,,,,,52,2020-07-04_15h23.14.963,retriever_ti,2020.1.3,Win32,60,Chrome,1366,768,,,,,,,,,,,,,,,,,2,,,,,,,,,,,,,,,,,,,,,,,,,,,949.657925,89,left,1.371775,hat           ,7,8,1,1,1,949.67488,949.67488,952.176735,0,11,11,11,1,89,7,6,hat           ,giraffe     ,html/resources/sequences_IDs/A/08_hat.jpg,html/resources/sequences_IDs/B/03_giraffe.jpg,8,3,3,2,1,1,6,2,0,52,,,,,,,,,,,,,,,,,,,,
,,,,,52,2020-07-04_15h23.14.963,retriever_ti,2020.1.3,Win32,60,Chrome,1366,768,,,,,,,,,,,,,,,,,2,,,,,,,,,,,,,,,,,,,,,,,,,,,953.279355,90,left,1.038175,giraffe     ,6,3,4,1,3,953.295875,953.295875,955.796945,0,12,12,12,1,90,6,2,giraffe     ,radio       ,html/resources/sequences_IDs/B/03_giraffe.jpg,html/resources/sequences_IDs/B/10_radio.jpg,3,10,1,1,4,2,2,8,0,52,,,,,,,,,,,,,,,,,,,,
,,,,,52,2020-07-04_15h23.14.963,retriever_ti,2020.1.3,Win32,60,Chrome,1366,768,,,,,,,,,,,,,,,,,2,,,,,,,,,,,,,,,,,,,,,,,,,,,956.398545,91,left,1.44068,calculator    ,1,9,-2,0,3,956.417825,956.417825,958.91661,0,13,13,13,1,91,1,3,calculator    ,clownfish     ,html/resources/sequences_IDs/A/09_calculator.jpg,html/resources/sequences_IDs/A/04_clownfish.jpg,9,4,4,2,2,1,7,3,0,52,,,,,,,,,,,,,,,,,,,,
,,,,,52,2020-07-04_15h23.14.963,retriever_ti,2020.1.3,Win32,60,Chrome,1366,768,,,,,,,,,,,,,,,,,2,,,,,,,,,,,,,,,,,,,,,,,,,,,959.517925,92,left,1.07429,hat           ,7,8,5,1,3,959.535215,959.535215,962.03658,0,14,14,14,1,92,7,2,hat           ,radio       ,html/resources/sequences_IDs/A/08_hat.jpg,html/resources/sequences_IDs/B/10_radio.jpg,8,10,3,2,4,2,6,8,0,52,,,,,,,,,,,,,,,,,,,,
,,,,,52,2020-07-04_15h23.14.963,retriever_ti,2020.1.3,Win32,60,Chrome,1366,768,,,,,,,,,,,,,,,,,2,,,,,,,,,,,,,,,,,,,,,,,,,,,962.639625,93,left,1.34352,hat           ,7,8,2,1,3,962.67377,962.67377,965.17383,0,15,15,15,1,93,7,5,hat           ,dress         ,html/resources/sequences_IDs/A/08_hat.jpg,html/resources/sequences_IDs/A/07_dress.jpg,8,7,3,2,3,2,6,5,0,52,,,,,,,,,,,,,,,,,,,,
,,,,,52,2020-07-04_15h23.14.963,retriever_ti,2020.1.3,Win32,60,Chrome,1366,768,,,,,,,,,,,,,,,,,2,,,,,,,,,,,,,,,,,,,,,,,,,,,965.792325,94,right,0.9378,clownfish     ,3,4,1,1,0,965.80861,965.80861,968.309795,0,16,16,16,1,94,2,3,radio       ,clownfish     ,html/resources/sequences_IDs/B/10_radio.jpg,html/resources/sequences_IDs/A/04_clownfish.jpg,10,4,4,2,2,1,8,3,1,52,,,,,,,,,,,,,,,,,,,,
,,,,,52,2020-07-04_15h23.14.963,retriever_ti,2020.1.3,Win32,60,Chrome,1366,768,,,,,,,,,,,,,,,,,2,,,,,,,,,,,,,,,,,,,,,,,,,,,969.4111,95,right,0.753445,hat           ,7,8,1,1,1,969.42871,969.42871,971.929695,0,17,17,17,1,95,6,7,giraffe     ,hat           ,html/resources/sequences_IDs/B/03_giraffe.jpg,html/resources/sequences_IDs/A/08_hat.jpg,3,8,1,1,3,2,2,6,0,52,,,,,,,,,,,,,,,,,,,,
,,,,,52,2020-07-04_15h23.14.963,retriever_ti,2020.1.3,Win32,60,Chrome,1366,768,,,,,,,,,,,,,,,,,2,,,,,,,,,,,,,,,,,,,,,,,,,,,973.032455,96,left,0.92752,parrot      ,4,5,-2,0,3,973.04872,973.04872,975.552005,0,18,18,18,1,96,4,6,parrot      ,giraffe     ,html/resources/sequences_IDs/B/05_parrot.jpg,html/resources/sequences_IDs/B/03_giraffe.jpg,5,3,2,1,1,1,4,2,0,52,,,,,,,,,,,,,,,,,,,,
,,,,,52,2020-07-04_15h23.14.963,retriever_ti,2020.1.3,Win32,60,Chrome,1366,768,,,,,,,,,,,,,,,,,2,,,,,,,,,,,,,,,,,,,,,,,,,,,976.168145,97,left,1.20823,dress         ,5,7,3,1,3,976.18752,976.18752,978.686675,0,19,19,19,1,97,5,2,dress         ,radio       ,html/resources/sequences_IDs/A/07_dress.jpg,html/resources/sequences_IDs/B/10_radio.jpg,7,10,3,2,4,2,5,8,0,52,,,,,,,,,,,,,,,,,,,,
,,,,,52,2020-07-04_15h23.14.963,retriever_ti,2020.1.3,Win32,60,Chrome,1366,768,,,,,,,,,,,,,,,,,2,,,,,,,,,,,,,,,,,,,,,,,,,,,979.28837,98,right,0.73605,redfox      ,8,1,3,1,3,979.32393,979.32393,981.822525,0,20,20,20,1,98,5,8,dress         ,redfox      ,html/resources/sequences_IDs/A/07_dress.jpg,html/resources/sequences_IDs/B/01_redfox.jpg,7,1,3,2,1,1,5,1,0,52,,,,,,,,,,,,,,,,,,,,
,,,,,52,2020-07-04_15h23.14.963,retriever_ti,2020.1.3,Win32,60,Chrome,1366,768,,,,,,,,,,,,,,,,,2,,,,,,,,,,,,,,,,,,,,,,,,,,,982.42519,99,left,1.021085,redfox      ,8,1,1,1,1,982.45915,982.45915,984.959465,0,21,21,21,1,99,8,7,redfox      ,hat           ,html/resources/sequences_IDs/B/01_redfox.jpg,html/resources/sequences_IDs/A/08_hat.jpg,1,8,1,1,3,2,1,6,0,52,,,,,,,,,,,,,,,,,,,,
,,,,,52,2020-07-04_15h23.14.963,retriever_ti,2020.1.3,Win32,60,Chrome,1366,768,,,,,,,,,,,,,,,,,2,,,,,,,,,,,,,,,,,,,,,,,,,,,986.062045,100,left,1.21566,redfox      ,8,1,5,1,3,986.09711,986.09711,988.59587,0,22,22,22,1,100,8,3,redfox      ,clownfish     ,html/resources/sequences_IDs/B/01_redfox.jpg,html/resources/sequences_IDs/A/04_clownfish.jpg,1,4,1,1,2,1,1,3,0,52,,,,,,,,,,,,,,,,,,,,
,,,,,52,2020-07-04_15h23.14.963,retriever_ti,2020.1.3,Win32,60,Chrome,1366,768,,,,,,,,,,,,,,,,,2,,,,,,,,,,,,,,,,,,,,,,,,,,,989.19718,101,right,1.083485,hat           ,7,8,5,1,3,989.216165,989.216165,991.71613,0,23,23,23,1,101,2,7,radio       ,hat           ,html/resources/sequences_IDs/B/10_radio.jpg,html/resources/sequences_IDs/A/08_hat.jpg,10,8,4,2,3,2,8,6,0,52,,,,,,,,,,,,,,,,,,,,
,,,,,52,2020-07-04_15h23.14.963,retriever_ti,2020.1.3,Win32,60,Chrome,1366,768,,,,,,,,,,,,,,,,,2,,,,,,,,,,,,,,,,,,,,,,,,,,,992.318195,102,left,0.6125,dress         ,5,7,-1,0,0,992.35358,992.35358,994.852615,0,24,24,24,1,102,5,6,dress         ,giraffe     ,html/resources/sequences_IDs/A/07_dress.jpg,html/resources/sequences_IDs/B/03_giraffe.jpg,7,3,3,2,1,1,5,2,0,52,,,,,,,,,,,,,,,,,,,,
,,,,,52,2020-07-04_15h23.14.963,retriever_ti,2020.1.3,Win32,60,Chrome,1366,768,,,,,,,,,,,,,,,,,2,,,,,,,,,,,,,,,,,,,,,,,,,,,995.95524,103,left,0.65324,giraffe     ,6,3,1,1,1,995.98847,995.98847,998.49007,0,25,25,25,1,103,6,5,giraffe     ,dress         ,html/resources/sequences_IDs/B/03_giraffe.jpg,html/resources/sequences_IDs/A/07_dress.jpg,3,7,1,1,3,2,2,5,0,52,,,,,,,,,,,,,,,,,,,,
,,,,,52,2020-07-04_15h23.14.963,retriever_ti,2020.1.3,Win32,60,Chrome,1366,768,,,,,,,,,,,,,,,,,2,,,,,,,,,,,,,,,,,,,,,,,,,,,999.592545,104,left,1.00428,giraffe     ,6,3,3,1,3,999.627535,999.627535,1002.12606,0,26,26,26,1,104,6,3,giraffe     ,clownfish     ,html/resources/sequences_IDs/B/03_giraffe.jpg,html/resources/sequences_IDs/A/04_clownfish.jpg,3,4,1,1,2,1,2,3,0,52,,,,,,,,,,,,,,,,,,,,
,,,,,52,2020-07-04_15h23.14.963,retriever_ti,2020.1.3,Win32,60,Chrome,1366,768,,,,,,,,,,,,,,,,,2,,,,,,,,,,,,,,,,,,,,,,,,,,,1002.727985,105,right,1.049405,parrot      ,4,5,-3,0,3,1002.744435,1002.744435,1005.246085,0,27,27,27,1,105,7,4,hat           ,parrot      ,html/resources/sequences_IDs/A/08_hat.jpg,html/resources/sequences_IDs/B/05_parrot.jpg,8,5,3,2,2,1,6,4,0,52,,,,,,,,,,,,,,,,,,,,
,,,,,52,2020-07-04_15h23.14.963,retriever_ti,2020.1.3,Win32,60,Chrome,1366,768,,,,,,,,,,,,,,,,,2,,,,,,,,,,,,,,,,,,,,,,,,,,,1005.847775,106,left,0.803455,hat           ,7,8,1,1,1,1005.88331,1005.88331,1008.38235,0,28,28,28,1,106,7,6,hat           ,giraffe     ,html/resources/sequences_IDs/A/08_hat.jpg,html/resources/sequences_IDs/B/03_giraffe.jpg,8,3,3,2,1,1,6,2,0,52,,,,,,,,,,,,,,,,,,,,
,,,,,52,2020-07-04_15h23.14.963,retriever_ti,2020.1.3,Win32,60,Chrome,1366,768,,,,,,,,,,,,,,,,,2,,,,,,,,,,,,,,,,,,,,,,,,,,,1009.484255,107,left,1.240215,calculator    ,1,9,-5,0,3,1009.50144,1009.50144,1012.002595,0,29,29,29,1,107,1,6,calculator    ,giraffe     ,html/resources/sequences_IDs/A/09_calculator.jpg,html/resources/sequences_IDs/B/03_giraffe.jpg,9,3,4,2,1,1,7,2,0,52,,,,,,,,,,,,,,,,,,,,
,,,,,52,2020-07-04_15h23.14.963,retriever_ti,2020.1.3,Win32,60,Chrome,1366,768,,,,,,,,,,,,,,,,,2,,,,,,,,,,,,,,,,,,,,,,,,,,,1012.60497,108,left,0.61012,giraffe     ,6,3,-2,0,3,1012.637815,1012.637815,1015.13971,0,30,30,30,1,108,6,8,giraffe     ,redfox      ,html/resources/sequences_IDs/B/03_giraffe.jpg,html/resources/sequences_IDs/B/01_redfox.jpg,3,1,1,1,1,1,2,1,0,52,,,,,,,,,,,,,,,,,,,,
,,,,,52,2020-07-04_15h23.14.963,retriever_ti,2020.1.3,Win32,60,Chrome,1366,768,,,,,,,,,,,,,,,,,2,,,,,,,,,,,,,,,,,,,,,,,,,,,1015.740915,109,right,0.799665,giraffe     ,6,3,1,1,1,1015.759015,1015.759015,1018.259305,0,31,31,31,1,109,5,6,dress         ,giraffe     ,html/resources/sequences_IDs/A/07_dress.jpg,html/resources/sequences_IDs/B/03_giraffe.jpg,7,3,3,2,1,1,5,2,0,52,,,,,,,,,,,,,,,,,,,,
,,,,,52,2020-07-04_15h23.14.963,retriever_ti,2020.1.3,Win32,60,Chrome,1366,768,,,,,,,,,,,,,,,,,2,,,,,,,,,,,,,,,,,,,,,,,,,,,1019.36145,110,left,1.01716,clownfish     ,3,4,-4,0,3,1019.378345,1019.378345,1021.87963,0,32,32,32,1,110,3,7,clownfish     ,hat           ,html/resources/sequences_IDs/A/04_clownfish.jpg,html/resources/sequences_IDs/A/08_hat.jpg,4,8,2,1,3,2,3,6,0,52,,,,,,,,,,,,,,,,,,,,
,,,,,52,2020-07-04_15h23.14.963,retriever_ti,2020.1.3,Win32,60,Chrome,1366,768,,,,,,,,,,,,,,,,,2,,,,,,,,,,,,,,,,,,,,,,,,,,,1022.48171,111,right,0.799545,parrot      ,4,5,-4,0,3,1022.498215,1022.498215,1024.99985,0,33,33,33,1,111,8,4,redfox      ,parrot      ,html/resources/sequences_IDs/B/01_redfox.jpg,html/resources/sequences_IDs/B/05_parrot.jpg,1,5,1,1,2,1,1,4,0,52,,,,,,,,,,,,,,,,,,,,
,,,,,52,2020-07-04_15h23.14.963,retriever_ti,2020.1.3,Win32,60,Chrome,1366,768,,,,,,,,,,,,,,,,,2,,,,,,,,,,,,,,,,,,,,,,,,,,,1025.60204,112,right,0.98617,redfox      ,8,1,5,1,3,1025.63674,1025.63674,1028.135925,0,34,34,34,1,112,3,8,clownfish     ,redfox      ,html/resources/sequences_IDs/A/04_clownfish.jpg,html/resources/sequences_IDs/B/01_redfox.jpg,4,1,2,1,1,1,3,1,0,52,,,,,,,,,,,,,,,,,,,,
,,,,,52,2020-07-04_15h23.14.963,retriever_ti,2020.1.3,Win32,60,Chrome,1366,768,,,,,,,,,,,,,,,,,2,,,,,,,,,,,,,,,,,,,,,,,,,,,1028.73785,113,right,0.75039,parrot      ,4,5,-1,0,0,1028.77273,1028.77273,1031.27186,0,35,35,35,1,113,5,4,dress         ,parrot      ,html/resources/sequences_IDs/A/07_dress.jpg,html/resources/sequences_IDs/B/05_parrot.jpg,7,5,3,2,2,1,5,4,0,52,,,,,,,,,,,,,,,,,,,,
,,,,,52,2020-07-04_15h23.14.963,retriever_ti,2020.1.3,Win32,60,Chrome,1366,768,,,,,,,,,,,,,,,,,2,,,,,,,,,,,,,,,,,,,,,,,,,,,1032.375355,114,right,0.751215,dress         ,5,7,1,1,1,1032.393,1032.393,1034.94267,0,36,36,36,1,114,4,5,parrot      ,dress         ,html/resources/sequences_IDs/B/05_parrot.jpg,html/resources/sequences_IDs/A/07_dress.jpg,5,7,2,1,3,2,4,5,0,52,,,,,,,,,,,,,,,,,,,,
,,,,,52,2020-07-04_15h23.14.963,retriever_ti,2020.1.3,Win32,60,Chrome,1366,768,,,,,,,,,,,,,,,,,2,,,,,,,,,,,,,,,,,,,,,,,,,,,1036.04506,115,right,1.66162,calculator    ,1,9,-1,0,0,1036.063325,1036.063325,1038.56298,0,37,37,37,1,115,2,1,radio       ,calculator    ,html/resources/sequences_IDs/B/10_radio.jpg,html/resources/sequences_IDs/A/09_calculator.jpg,10,9,4,2,4,2,8,7,0,52,,,,,,,,,,,,,,,,,,,,
,,,,,52,2020-07-04_15h23.14.963,retriever_ti,2020.1.3,Win32,60,Chrome,1366,768,,,,,,,,,,,,,,,,,2,,,,,,,,,,,,,,,,,,,,,,,,,,,1039.66463,116,left,1.27293,calculator    ,1,9,-1,0,0,1039.68224,1039.68224,1042.18333,0,38,38,38,1,116,1,2,calculator    ,radio       ,html/resources/sequences_IDs/A/09_calculator.jpg,html/resources/sequences_IDs/B/10_radio.jpg,9,10,4,2,4,2,7,8,0,52,,,,,,,,,,,,,,,,,,,,
,,,,,52,2020-07-04_15h23.14.963,retriever_ti,2020.1.3,Win32,60,Chrome,1366,768,,,,,,,,,,,,,,,,,2,,,,,,,,,,,,,,,,,,,,,,,,,,,1043.28627,117,right,0.727335,parrot      ,4,5,-2,0,3,1043.32129,1043.32129,1045.819935,0,39,39,39,1,117,6,4,giraffe     ,parrot      ,html/resources/sequences_IDs/B/03_giraffe.jpg,html/resources/sequences_IDs/B/05_parrot.jpg,3,5,1,1,2,1,2,4,0,52,,,,,,,,,,,,,,,,,,,,
,,,,,52,2020-07-04_15h23.14.963,retriever_ti,2020.1.3,Win32,60,Chrome,1366,768,,,,,,,,,,,,,,,,,2,,,,,,,,,,,,,,,,,,,,,,,,,,,1046.42222,118,left,1.085615,giraffe     ,6,3,1,1,1,1046.45608,1046.45608,1048.956725,0,40,40,40,1,118,6,5,giraffe     ,dress         ,html/resources/sequences_IDs/B/03_giraffe.jpg,html/resources/sequences_IDs/A/07_dress.jpg,3,7,1,1,3,2,2,5,0,52,,,,,,,,,,,,,,,,,,,,
,,,,,52,2020-07-04_15h23.14.963,retriever_ti,2020.1.3,Win32,60,Chrome,1366,768,,,,,,,,,,,,,,,,,2,,,,,,,,,,,,,,,,,,,,,,,,,,,1050.059105,119,right,0.63271,giraffe     ,6,3,-2,0,3,1050.09498,1050.09498,1052.59369,0,41,41,41,1,119,8,6,redfox      ,giraffe     ,html/resources/sequences_IDs/B/01_redfox.jpg,html/resources/sequences_IDs/B/03_giraffe.jpg,1,3,1,1,1,1,1,2,0,52,,,,,,,,,,,,,,,,,,,,
,,,,,52,2020-07-04_15h23.14.963,retriever_ti,2020.1.3,Win32,60,Chrome,1366,768,,,,,,,,,,,,,,,,,2,,,,,,,,,,,,,,,,,,,,,,,,,,,1053.194705,120,right,1.29811,redfox      ,8,1,4,1,3,1053.212395,1053.212395,1055.71335,0,42,42,42,1,120,4,8,parrot      ,redfox      ,html/resources/sequences_IDs/B/05_parrot.jpg,html/resources/sequences_IDs/B/01_redfox.jpg,5,1,2,1,1,1,4,1,0,52,,,,,,,,,,,,,,,,,,,,
,,,,,52,2020-07-04_15h23.14.963,retriever_ti,2020.1.3,Win32,60,Chrome,1366,768,,,,,,,,,,,,,,,,,2,,,,,,,,,,,,,,,,,,,,,,,,,,,1056.31504,121,right,1.277985,dress         ,5,7,3,1,3,1056.34843,1056.34843,1058.850745,0,43,43,43,1,121,2,5,radio       ,dress         ,html/resources/sequences_IDs/B/10_radio.jpg,html/resources/sequences_IDs/A/07_dress.jpg,10,7,4,2,3,2,8,5,0,52,,,,,,,,,,,,,,,,,,,,
,,,,,52,2020-07-04_15h23.14.963,retriever_ti,2020.1.3,Win32,60,Chrome,1366,768,,,,,,,,,,,,,,,,,2,,,,,,,,,,,,,,,,,,,,,,,,,,,1059.468165,122,left,1.28458,clownfish     ,3,4,-3,0,3,1059.50399,1059.50399,1062.003125,0,44,44,44,1,122,3,6,clownfish     ,giraffe     ,html/resources/sequences_IDs/A/04_clownfish.jpg,html/resources/sequences_IDs/B/03_giraffe.jpg,4,3,2,1,1,1,3,2,0,52,,,,,,,,,,,,,,,,,,,,
,,,,,52,2020-07-04_15h23.14.963,retriever_ti,2020.1.3,Win32,60,Chrome,1366,768,,,,,,,,,,,,,,,,,2,,,,,,,,,,,,,,,,,,,,,,,,,,,1062.60544,123,left,0.957095,clownfish     ,3,4,1,1,1,1062.637975,1062.637975,1065.139435,0,45,45,45,1,123,3,2,clownfish     ,radio       ,html/resources/sequences_IDs/A/04_clownfish.jpg,html/resources/sequences_IDs/B/10_radio.jpg,4,10,2,1,4,2,3,8,0,52,,,,,,,,,,,,,,,,,,,,
,,,,,52,2020-07-04_15h23.14.963,retriever_ti,2020.1.3,Win32,60,Chrome,1366,768,,,,,,,,,,,,,,,,,2,,,,,,,,,,,,,,,,,,,,,,,,,,,1066.24171,124,right,0.99551,calculator    ,1,9,-7,0,3,1066.258465,1066.258465,1068.759965,0,46,46,46,1,124,8,1,redfox      ,calculator    ,html/resources/sequences_IDs/B/01_redfox.jpg,html/resources/sequences_IDs/A/09_calculator.jpg,1,9,1,1,4,2,1,7,0,52,,,,,,,,,,,,,,,,,,,,
,,,,,52,2020-07-04_15h23.14.963,retriever_ti,2020.1.3,Win32,60,Chrome,1366,768,,,,,,,,,,,,,,,,,2,,,,,,,,,,,,,,,,,,,,,,,,,,,1069.36138,125,left,0.93517,clownfish     ,3,4,1,1,1,1069.378205,1069.378205,1071.879475,0,47,47,47,1,125,3,2,clownfish     ,radio       ,html/resources/sequences_IDs/A/04_clownfish.jpg,html/resources/sequences_IDs/B/10_radio.jpg,4,10,2,1,4,2,3,8,0,52,,,,,,,,,,,,,,,,,,,,
,,,,,52,2020-07-04_15h23.14.963,retriever_ti,2020.1.3,Win32,60,Chrome,1366,768,,,,,,,,,,,,,,,,,2,,,,,,,,,,,,,,,,,,,,,,,,,,,1072.98215,126,left,0.86354,parrot      ,4,5,2,1,3,1072.99847,1072.99847,1075.49979,0,48,48,48,1,126,4,2,parrot      ,radio       ,html/resources/sequences_IDs/B/05_parrot.jpg,html/resources/sequences_IDs/B/10_radio.jpg,5,10,2,1,4,2,4,8,0,52,,,,,,,,,,,,,,,,,,,,
,,,,,52,2020-07-04_15h23.14.963,retriever_ti,2020.1.3,Win32,60,Chrome,1366,768,,,,,,,,,,,,,,,,,2,,,,,,,,,,,,,,,,,,,,,,,,,,,1076.101415,127,left,0.94599,clownfish     ,3,4,-1,0,0,1076.11909,1076.11909,1078.62013,0,49,49,49,1,127,3,4,clownfish     ,parrot      ,html/resources/sequences_IDs/A/04_clownfish.jpg,html/resources/sequences_IDs/B/05_parrot.jpg,4,5,2,1,2,1,3,4,0,52,,,,,,,,,,,,,,,,,,,,
,,,,,52,2020-07-04_15h23.14.963,retriever_ti,2020.1.3,Win32,60,Chrome,1366,768,,,,,,,,,,,,,,,,,2,,,,,,,,,,,,,,,,,,,,,,,,,,,1079.72126,128,left,0.90177,calculator    ,1,9,-1,0,0,1079.73869,1079.73869,1082.240065,0,50,50,50,1,128,1,2,calculator    ,radio       ,html/resources/sequences_IDs/A/09_calculator.jpg,html/resources/sequences_IDs/B/10_radio.jpg,9,10,4,2,4,2,7,8,0,52,,,,,,,,,,,,,,,,,,,,
,,,,,52,2020-07-04_15h23.14.963,retriever_ti,2020.1.3,Win32,60,Chrome,1366,768,,,,,,,,,,,,,,,,,2,,,,,,,,,,,,,,,,,,,,,,,,,,,1083.34204,129,right,0.955215,calculator    ,1,9,-4,0,3,1083.359045,1083.359045,1085.860195,0,51,51,51,1,129,5,1,dress         ,calculator    ,html/resources/sequences_IDs/A/07_dress.jpg,html/resources/sequences_IDs/A/09_calculator.jpg,7,9,3,2,4,2,5,7,0,52,,,,,,,,,,,,,,,,,,,,
,,,,,52,2020-07-04_15h23.14.963,retriever_ti,2020.1.3,Win32,60,Chrome,1366,768,,,,,,,,,,,,,,,,,2,,,,,,,,,,,,,,,,,,,,,,,,,,,1086.46197,130,right,0.85888,hat           ,7,8,3,1,3,1086.495875,1086.495875,1088.99618,0,52,52,52,1,130,4,7,parrot      ,hat           ,html/resources/sequences_IDs/B/05_parrot.jpg,html/resources/sequences_IDs/A/08_hat.jpg,5,8,2,1,3,2,4,6,0,52,,,,,,,,,,,,,,,,,,,,
,,,,,52,2020-07-04_15h23.14.963,retriever_ti,2020.1.3,Win32,60,Chrome,1366,768,,,,,,,,,,,,,,,,,2,,,,,,,,,,,,,,,,,,,,,,,,,,,1089.597295,131,right,2.174995,hat           ,7,8,6,1,3,1089.63214,1089.63214,1092.13308,0,53,53,53,1,131,1,7,calculator    ,hat           ,html/resources/sequences_IDs/A/09_calculator.jpg,html/resources/sequences_IDs/A/08_hat.jpg,9,8,4,2,3,2,7,6,0,52,,,,,,,,,,,,,,,,,,,,
,,,,,52,2020-07-04_15h23.14.963,retriever_ti,2020.1.3,Win32,60,Chrome,1366,768,,,,,,,,,,,,,,,,,2,,,,,,,,,,,,,,,,,,,,,,,,,,,1092.735375,132,right,1.016725,giraffe     ,6,3,1,1,0,1092.77218,1092.77218,1095.26953,0,54,54,54,1,132,5,6,dress         ,giraffe     ,html/resources/sequences_IDs/A/07_dress.jpg,html/resources/sequences_IDs/B/03_giraffe.jpg,7,3,3,2,1,1,5,2,1,52,,,,,,,,,,,,,,,,,,,,
,,,,,52,2020-07-04_15h23.14.963,retriever_ti,2020.1.3,Win32,60,Chrome,1366,768,,,,,,,,,,,,,,,,,2,,,,,,,,,,,,,,,,,,,,,,,,,,,1096.3722,133,left,1.866155,dress         ,5,7,1,1,0,1096.407235,1096.407235,1098.906085,0,55,55,55,1,133,5,4,dress         ,parrot      ,html/resources/sequences_IDs/A/07_dress.jpg,html/resources/sequences_IDs/B/05_parrot.jpg,7,5,3,2,2,1,5,4,1,52,,,,,,,,,,,,,,,,,,,,
,,,,,52,2020-07-04_15h23.14.963,retriever_ti,2020.1.3,Win32,60,Chrome,1366,768,,,,,,,,,,,,,,,,,2,,,,,,,,,,,,,,,,,,,,,,,,,,,1100.008555,134,right,0.877805,clownfish     ,3,4,-1,0,0,1100.04444,1100.04444,1102.543135,0,56,56,56,1,134,4,3,parrot      ,clownfish     ,html/resources/sequences_IDs/B/05_parrot.jpg,html/resources/sequences_IDs/A/04_clownfish.jpg,5,4,2,1,2,1,4,3,0,52,,,,,,,,,,,,,,,,,,,,
,,,,,52,2020-07-04_15h23.14.963,retriever_ti,2020.1.3,Win32,60,Chrome,1366,768,,,,,,,,,,,,,,,,,2,,,,,,,,,,,,,,,,,,,,,,,,,,,1103.64532,135,right,1.40495,clownfish     ,3,4,-2,0,3,1103.66367,1103.66367,1106.164245,0,57,57,57,1,135,5,3,dress         ,clownfish     ,html/resources/sequences_IDs/A/07_dress.jpg,html/resources/sequences_IDs/A/04_clownfish.jpg,7,4,3,2,2,1,5,3,0,52,,,,,,,,,,,,,,,,,,,,
,,,,,52,2020-07-04_15h23.14.963,retriever_ti,2020.1.3,Win32,60,Chrome,1366,768,,,,,,,,,,,,,,,,,2,,,,,,,,,,,,,,,,,,,,,,,,,,,1106.76611,136,right,1.09587,dress         ,5,7,4,1,3,1106.799545,1106.799545,1109.300445,0,58,58,58,1,136,1,5,calculator    ,dress         ,html/resources/sequences_IDs/A/09_calculator.jpg,html/resources/sequences_IDs/A/07_dress.jpg,9,7,4,2,3,2,7,5,0,52,,,,,,,,,,,,,,,,,,,,
,,,,,52,2020-07-04_15h23.14.963,retriever_ti,2020.1.3,Win32,60,Chrome,1366,768,,,,,,,,,,,,,,,,,2,,,,,,,,,,,,,,,,,,,,,,,,,,,1109.9014,137,left,1.682895,parrot      ,4,5,1,1,1,1109.91995,1109.91995,1112.420245,0,59,59,59,1,137,4,3,parrot      ,clownfish     ,html/resources/sequences_IDs/B/05_parrot.jpg,html/resources/sequences_IDs/A/04_clownfish.jpg,5,4,2,1,2,1,4,3,0,52,,,,,,,,,,,,,,,,,,,,
,,,,,52,2020-07-04_15h23.14.963,retriever_ti,2020.1.3,Win32,60,Chrome,1366,768,,,,,,,,,,,,,,,,,2,,,,,,,,,,,,,,,,,,,,,,,,,,,1113.522095,138,left,1.174365,hat           ,7,8,1,1,0,1113.53911,1113.53911,1116.040455,0,60,60,60,1,138,7,6,hat           ,giraffe     ,html/resources/sequences_IDs/A/08_hat.jpg,html/resources/sequences_IDs/B/03_giraffe.jpg,8,3,3,2,1,1,6,2,1,52,,,,,,,,,,,,,,,,,,,,
,,,,,52,2020-07-04_15h23.14.963,retriever_ti,2020.1.3,Win32,60,Chrome,1366,768,,,,,,,,,,,,,,,,,2,,,,,,,,,,,,,,,,,,,,,,,,,,,1117.142015,139,right,1.73387,parrot      ,4,5,1,1,1,1117.176115,1117.176115,1119.677795,0,61,61,61,1,139,3,4,clownfish     ,parrot      ,html/resources/sequences_IDs/A/04_clownfish.jpg,html/resources/sequences_IDs/B/05_parrot.jpg,4,5,2,1,2,1,3,4,0,52,,,,,,,,,,,,,,,,,,,,
,,,,,52,2020-07-04_15h23.14.963,retriever_ti,2020.1.3,Win32,60,Chrome,1366,768,,,,,,,,,,,,,,,,,2,,,,,,,,,,,,,,,,,,,,,,,,,,,1120.78241,140,right,0.73235,hat           ,7,8,-1,0,0,1120.81446,1120.81446,1123.31394,0,62,62,62,1,140,8,7,redfox      ,hat           ,html/resources/sequences_IDs/B/01_redfox.jpg,html/resources/sequences_IDs/A/08_hat.jpg,1,8,1,1,3,2,1,6,0,52,,,,,,,,,,,,,,,,,,,,
,,,,,52,2020-07-04_15h23.14.963,retriever_ti,2020.1.3,Win32,60,Chrome,1366,768,,,,,,,,,,,,,,,,,2,,,,,,,,,,,,,,,,,,,,,,,,,,,1124.416395,141,right,0.628825,redfox      ,8,1,1,1,1,1124.450905,1124.450905,1126.951195,0,63,63,63,1,141,7,8,hat           ,redfox      ,html/resources/sequences_IDs/A/08_hat.jpg,html/resources/sequences_IDs/B/01_redfox.jpg,8,1,3,2,1,1,6,1,0,52,,,,,,,,,,,,,,,,,,,,
,,,,,52,2020-07-04_15h23.14.963,retriever_ti,2020.1.3,Win32,60,Chrome,1366,768,,,,,,,,,,,,,,,,,2,,,,,,,,,,,,,,,,,,,,,,,,,,,1128.053185,142,left,0.82686,giraffe     ,6,3,-1,0,0,1128.07194,1128.07194,1130.571535,0,64,64,64,1,142,6,7,giraffe     ,hat           ,html/resources/sequences_IDs/B/03_giraffe.jpg,html/resources/sequences_IDs/A/08_hat.jpg,3,8,1,1,3,2,2,6,0,52,,,,,,,,,,,,,,,,,,,,
,,,,,52,2020-07-04_15h23.14.963,retriever_ti,2020.1.3,Win32,60,Chrome,1366,768,,,,,,,,,,,,,,,,,2,,,,,,,,,,,,,,,,,,,,,,,,,,,1131.67261,143,left,1.23425,parrot      ,4,5,-1,0,0,1131.706655,1131.706655,1134.208455,0,65,65,65,1,143,4,5,parrot      ,dress         ,html/resources/sequences_IDs/B/05_parrot.jpg,html/resources/sequences_IDs/A/07_dress.jpg,5,7,2,1,3,2,4,5,0,52,,,,,,,,,,,,,,,,,,,,
,,,,,52,2020-07-04_15h23.14.963,retriever_ti,2020.1.3,Win32,60,Chrome,1366,768,,,,,,,,,,,,,,,,,2,,,,,,,,,,,,,,,,,,,,,,,,,,,1135.3134,144,right,0.788485,dress         ,5,7,-3,0,3,1135.327175,1135.327175,1137.82876,0,66,66,66,1,144,8,5,redfox      ,dress         ,html/resources/sequences_IDs/B/01_redfox.jpg,html/resources/sequences_IDs/A/07_dress.jpg,1,7,1,1,3,2,1,5,0,52,,,,,,,,,,,,,,,,,,,,
,,,,,52,2020-07-04_15h23.14.963,retriever_ti,2020.1.3,Win32,60,Chrome,1366,768,,,,,,,,,,,,,,,,,2,,,,,,,,,,,,,,,,,,,,,,,,,,,1138.430465,145,right,0.91699,calculator    ,1,9,-3,0,3,1138.44801,1138.44801,1140.947935,0,67,67,67,1,145,4,1,parrot      ,calculator    ,html/resources/sequences_IDs/B/05_parrot.jpg,html/resources/sequences_IDs/A/09_calculator.jpg,5,9,2,1,4,2,4,7,0,52,,,,,,,,,,,,,,,,,,,,
,,,,,52,2020-07-04_15h23.14.963,retriever_ti,2020.1.3,Win32,60,Chrome,1366,768,,,,,,,,,,,,,,,,,2,,,,,,,,,,,,,,,,,,,,,,,,,,,1141.549115,146,right,2.100265,clownfish     ,3,4,-4,0,3,1141.58548,1141.58548,1144.084955,0,68,68,68,1,146,7,3,hat           ,clownfish     ,html/resources/sequences_IDs/A/08_hat.jpg,html/resources/sequences_IDs/A/04_clownfish.jpg,8,4,3,2,2,1,6,3,0,52,,,,,,,,,,,,,,,,,,,,
,,,,,52,2020-07-04_15h23.14.963,retriever_ti,2020.1.3,Win32,60,Chrome,1366,768,,,,,,,,,,,,,,,,,2,,,,,,,,,,,,,,,,,,,,,,,,,,,1144.70316,147,right,1.23678,calculator    ,1,9,-6,0,3,1144.73796,1144.73796,1147.238,0,69,69,69,1,147,7,1,hat           ,calculator    ,html/resources/sequences_IDs/A/08_hat.jpg,html/resources/sequences_IDs/A/09_calculator.jpg,8,9,3,2,4,2,6,7,0,52,,,,,,,,,,,,,,,,,,,,
,,,,,52,2020-07-04_15h23.14.963,retriever_ti,2020.1.3,Win32,60,Chrome,1366,768,,,,,,,,,,,,,,,,,2,,,,,,,,,,,,,,,,,,,,,,,,,,,1147.83908,148,right,1.04452,redfox      ,8,1,1,1,0,1147.87331,1147.87331,1150.37491,0,70,70,70,1,148,7,8,hat           ,redfox      ,html/resources/sequences_IDs/A/08_hat.jpg,html/resources/sequences_IDs/B/01_redfox.jpg,8,1,3,2,1,1,6,1,1,52,,,,,,,,,,,,,,,,,,,,
,,,,,52,2020-07-04_15h23.14.963,retriever_ti,2020.1.3,Win32,60,Chrome,1366,768,,,,,,,,,,,,,,,,,2,,,,,,,,,,,,,,,,,,,,,,,,,,,1151.47674,149,right,1.01118,parrot      ,4,5,3,1,3,1151.510505,1151.510505,1154.011695,0,71,71,71,1,149,1,4,calculator    ,parrot      ,html/resources/sequences_IDs/A/09_calculator.jpg,html/resources/sequences_IDs/B/05_parrot.jpg,9,5,4,2,2,1,7,4,0,52,,,,,,,,,,,,,,,,,,,,
,,,,,52,2020-07-04_15h23.14.963,retriever_ti,2020.1.3,Win32,60,Chrome,1366,768,,,,,,,,,,,,,,,,,2,,,,,,,,,,,,,,,,,,,,,,,,,,,1154.613695,150,left,1.5979,radio       ,2,10,-6,0,3,1154.63071,1154.63071,1157.13565,0,72,72,72,1,150,2,8,radio       ,redfox      ,html/resources/sequences_IDs/B/10_radio.jpg,html/resources/sequences_IDs/B/01_redfox.jpg,10,1,4,2,1,1,8,1,0,52,,,,,,,,,,,,,,,,,,,,
,,,,,52,2020-07-04_15h23.14.963,retriever_ti,2020.1.3,Win32,60,Chrome,1366,768,,,,,,,,,,,,,,,,,2,,,,,,,,,,,,,,,,,,,,,,,,,,,1157.74928,151,left,0.69441,hat           ,7,8,-1,0,0,1157.78323,1157.78323,1160.28409,0,73,73,73,1,151,7,8,hat           ,redfox      ,html/resources/sequences_IDs/A/08_hat.jpg,html/resources/sequences_IDs/B/01_redfox.jpg,8,1,3,2,1,1,6,1,0,52,,,,,,,,,,,,,,,,,,,,
,,,,,52,2020-07-04_15h23.14.963,retriever_ti,2020.1.3,Win32,60,Chrome,1366,768,,,,,,,,,,,,,,,,,2,,,,,,,,,,,,,,,,,,,,,,,,,,,1161.38692,152,right,0.67085,giraffe     ,6,3,4,1,3,1161.420645,1161.420645,1163.921445,0,74,74,74,1,152,2,6,radio       ,giraffe     ,html/resources/sequences_IDs/B/10_radio.jpg,html/resources/sequences_IDs/B/03_giraffe.jpg,10,3,4,2,1,1,8,2,0,52,,,,,,,,,,,,,,,,,,,,
,,,,,52,2020-07-04_15h23.14.963,retriever_ti,2020.1.3,Win32,60,Chrome,1366,768,,,,,,,,,,,,,,,,,2,,,,,,,,,,,,,,,,,,,,,,,,,,,1164.523465,153,right,0.658635,parrot      ,4,5,2,1,3,1164.55681,1164.55681,1167.057935,0,75,75,75,1,153,2,4,radio       ,parrot      ,html/resources/sequences_IDs/B/10_radio.jpg,html/resources/sequences_IDs/B/05_parrot.jpg,10,5,4,2,2,1,8,4,0,52,,,,,,,,,,,,,,,,,,,,
,,,,,52,2020-07-04_15h23.14.963,retriever_ti,2020.1.3,Win32,60,Chrome,1366,768,,,,,,,,,,,,,,,,,2,,,,,,,,,,,,,,,,,,,,,,,,,,,1167.65928,154,left,1.085445,giraffe     ,6,3,5,1,3,1167.694295,1167.694295,1170.194725,0,76,76,76,1,154,6,1,giraffe     ,calculator    ,html/resources/sequences_IDs/B/03_giraffe.jpg,html/resources/sequences_IDs/A/09_calculator.jpg,3,9,1,1,4,2,2,7,0,52,,,,,,,,,,,,,,,,,,,,
,,,,,52,2020-07-04_15h23.14.963,retriever_ti,2020.1.3,Win32,60,Chrome,1366,768,,,,,,,,,,,,,,,,,,,,,,,,,,,,,,,,,,,,,0,1.8884,,,,,,,,,,,,,,,,,,,,,,,,,,,,,,,,,,,,,,,,,1,0,1,0,1,,,,,,,,,,,,,,,
,,,,,52,2020-07-04_15h23.14.963,retriever_ti,2020.1.3,Win32,60,Chrome,1366,768,,,,,,,,,,,,,,,,,3,,,,,,,,,,,,,,,,,,,,,,,,,,,1179.069015,155,right,0.863925,parrot      ,4,5,-2,0,3,1179.08765,1179.08765,1181.589275,0,0,0,0,1,155,6,4,giraffe     ,parrot      ,html/resources/sequences_IDs/B/03_giraffe.jpg,html/resources/sequences_IDs/B/05_parrot.jpg,3,5,1,1,2,1,2,4,0,52,,,,,,,,,,,,,,,,,,,,
,,,,,52,2020-07-04_15h23.14.963,retriever_ti,2020.1.3,Win32,60,Chrome,1366,768,,,,,,,,,,,,,,,,,3,,,,,,,,,,,,,,,,,,,,,,,,,,,1182.191395,156,right,1.15595,parrot      ,4,5,-3,0,3,1182.223945,1182.223945,1184.726805,0,1,1,1,1,156,7,4,hat           ,parrot      ,html/resources/sequences_IDs/A/08_hat.jpg,html/resources/sequences_IDs/B/05_parrot.jpg,8,5,3,2,2,1,6,4,0,52,,,,,,,,,,,,,,,,,,,,
,,,,,52,2020-07-04_15h23.14.963,retriever_ti,2020.1.3,Win32,60,Chrome,1366,768,,,,,,,,,,,,,,,,,3,,,,,,,,,,,,,,,,,,,,,,,,,,,1185.34333,157,left,0.84214,giraffe     ,6,3,-1,0,0,1185.377625,1185.377625,1187.87813,0,2,2,2,1,157,6,7,giraffe     ,hat           ,html/resources/sequences_IDs/B/03_giraffe.jpg,html/resources/sequences_IDs/A/08_hat.jpg,3,8,1,1,3,2,2,6,0,52,,,,,,,,,,,,,,,,,,,,
,,,,,52,2020-07-04_15h23.14.963,retriever_ti,2020.1.3,Win32,60,Chrome,1366,768,,,,,,,,,,,,,,,,,3,,,,,,,,,,,,,,,,,,,,,,,,,,,1188.980575,158,right,0.766725,clownfish     ,3,4,1,1,1,1189.01684,1189.01684,1191.51564,0,3,3,3,1,158,2,3,radio       ,clownfish     ,html/resources/sequences_IDs/B/10_radio.jpg,html/resources/sequences_IDs/A/04_clownfish.jpg,10,4,4,2,2,1,8,3,0,52,,,,,,,,,,,,,,,,,,,,
,,,,,52,2020-07-04_15h23.14.963,retriever_ti,2020.1.3,Win32,60,Chrome,1366,768,,,,,,,,,,,,,,,,,3,,,,,,,,,,,,,,,,,,,,,,,,,,,1192.61829,159,left,1.27857,hat           ,7,8,4,1,3,1192.65368,1192.65368,1195.152685,0,4,4,4,1,159,7,3,hat           ,clownfish     ,html/resources/sequences_IDs/A/08_hat.jpg,html/resources/sequences_IDs/A/04_clownfish.jpg,8,4,3,2,2,1,6,3,0,52,,,,,,,,,,,,,,,,,,,,
,,,,,52,2020-07-04_15h23.14.963,retriever_ti,2020.1.3,Win32,60,Chrome,1366,768,,,,,,,,,,,,,,,,,3,,,,,,,,,,,,,,,,,,,,,,,,,,,1195.75548,160,left,1.179095,parrot      ,4,5,-3,0,3,1195.77471,1195.77471,1198.272535,0,5,5,5,1,160,4,7,parrot      ,hat           ,html/resources/sequences_IDs/B/05_parrot.jpg,html/resources/sequences_IDs/A/08_hat.jpg,5,8,2,1,3,2,4,6,0,52,,,,,,,,,,,,,,,,,,,,
,,,,,52,2020-07-04_15h23.14.963,retriever_ti,2020.1.3,Win32,60,Chrome,1366,768,,,,,,,,,,,,,,,,,3,,,,,,,,,,,,,,,,,,,,,,,,,,,1198.874205,161,left,0.607885,hat           ,7,8,-1,0,0,1198.907635,1198.907635,1201.408965,0,6,6,6,1,161,7,8,hat           ,redfox      ,html/resources/sequences_IDs/A/08_hat.jpg,html/resources/sequences_IDs/B/01_redfox.jpg,8,1,3,2,1,1,6,1,0,52,,,,,,,,,,,,,,,,,,,,
,,,,,52,2020-07-04_15h23.14.963,retriever_ti,2020.1.3,Win32,60,Chrome,1366,768,,,,,,,,,,,,,,,,,3,,,,,,,,,,,,,,,,,,,,,,,,,,,1202.51169,162,right,1.20661,clownfish     ,3,4,1,1,1,1202.54588,1202.54588,1205.04582,0,7,7,7,1,162,2,3,radio       ,clownfish     ,html/resources/sequences_IDs/B/10_radio.jpg,html/resources/sequences_IDs/A/04_clownfish.jpg,10,4,4,2,2,1,8,3,0,52,,,,,,,,,,,,,,,,,,,,
,,,,,52,2020-07-04_15h23.14.963,retriever_ti,2020.1.3,Win32,60,Chrome,1366,768,,,,,,,,,,,,,,,,,3,,,,,,,,,,,,,,,,,,,,,,,,,,,1206.14834,163,left,1.22423,hat           ,7,8,6,1,3,1206.164755,1206.164755,1208.66619,0,8,8,8,1,163,7,1,hat           ,calculator    ,html/resources/sequences_IDs/A/08_hat.jpg,html/resources/sequences_IDs/A/09_calculator.jpg,8,9,3,2,4,2,6,7,0,52,,,,,,,,,,,,,,,,,,,,
,,,,,52,2020-07-04_15h23.14.963,retriever_ti,2020.1.3,Win32,60,Chrome,1366,768,,,,,,,,,,,,,,,,,3,,,,,,,,,,,,,,,,,,,,,,,,,,,1209.26712,164,right,0.765735,dress         ,5,7,-1,0,0,1209.284855,1209.284855,1211.77136,0,9,9,9,1,164,6,5,giraffe     ,dress         ,html/resources/sequences_IDs/B/03_giraffe.jpg,html/resources/sequences_IDs/A/07_dress.jpg,3,7,1,1,3,2,2,5,0,52,,,,,,,,,,,,,,,,,,,,
,,,,,52,2020-07-04_15h23.14.963,retriever_ti,2020.1.3,Win32,60,Chrome,1366,768,,,,,,,,,,,,,,,,,3,,,,,,,,,,,,,,,,,,,,,,,,,,,1212.871505,165,left,0.756495,parrot      ,4,5,-1,0,0,1212.905185,1212.905185,1215.40627,0,10,10,10,1,165,4,5,parrot      ,dress         ,html/resources/sequences_IDs/B/05_parrot.jpg,html/resources/sequences_IDs/A/07_dress.jpg,5,7,2,1,3,2,4,5,0,52,,,,,,,,,,,,,,,,,,,,
,,,,,52,2020-07-04_15h23.14.963,retriever_ti,2020.1.3,Win32,60,Chrome,1366,768,,,,,,,,,,,,,,,,,3,,,,,,,,,,,,,,,,,,,,,,,,,,,1216.508175,166,right,1.11502,giraffe     ,6,3,2,1,3,1216.527355,1216.527355,1219.026385,0,11,11,11,1,166,4,6,parrot      ,giraffe     ,html/resources/sequences_IDs/B/05_parrot.jpg,html/resources/sequences_IDs/B/03_giraffe.jpg,5,3,2,1,1,1,4,2,0,52,,,,,,,,,,,,,,,,,,,,
,,,,,52,2020-07-04_15h23.14.963,retriever_ti,2020.1.3,Win32,60,Chrome,1366,768,,,,,,,,,,,,,,,,,3,,,,,,,,,,,,,,,,,,,,,,,,,,,1219.62906,167,right,0.97484,parrot      ,4,5,1,1,0,1219.66228,1219.66228,1222.162915,0,12,12,12,1,167,3,4,clownfish     ,parrot      ,html/resources/sequences_IDs/A/04_clownfish.jpg,html/resources/sequences_IDs/B/05_parrot.jpg,4,5,2,1,2,1,3,4,1,52,,,,,,,,,,,,,,,,,,,,
,,,,,52,2020-07-04_15h23.14.963,retriever_ti,2020.1.3,Win32,60,Chrome,1366,768,,,,,,,,,,,,,,,,,3,,,,,,,,,,,,,,,,,,,,,,,,,,,1223.265245,168,left,1.086045,giraffe     ,6,3,-2,0,3,1223.29861,1223.29861,1225.800055,0,13,13,13,1,168,6,8,giraffe     ,redfox      ,html/resources/sequences_IDs/B/03_giraffe.jpg,html/resources/sequences_IDs/B/01_redfox.jpg,3,1,1,1,1,1,2,1,0,52,,,,,,,,,,,,,,,,,,,,
,,,,,52,2020-07-04_15h23.14.963,retriever_ti,2020.1.3,Win32,60,Chrome,1366,768,,,,,,,,,,,,,,,,,3,,,,,,,,,,,,,,,,,,,,,,,,,,,1226.40339,169,right,1.149125,radio       ,2,10,1,1,0,1226.41814,1226.41814,1228.91971,0,14,14,14,1,169,1,2,calculator    ,radio       ,html/resources/sequences_IDs/A/09_calculator.jpg,html/resources/sequences_IDs/B/10_radio.jpg,9,10,4,2,4,2,7,8,1,52,,,,,,,,,,,,,,,,,,,,
,,,,,52,2020-07-04_15h23.14.963,retriever_ti,2020.1.3,Win32,60,Chrome,1366,768,,,,,,,,,,,,,,,,,3,,,,,,,,,,,,,,,,,,,,,,,,,,,1230.021175,170,right,0.716175,giraffe     ,6,3,5,1,3,1230.05635,1230.05635,1232.55637,0,15,15,15,1,170,1,6,calculator    ,giraffe     ,html/resources/sequences_IDs/A/09_calculator.jpg,html/resources/sequences_IDs/B/03_giraffe.jpg,9,3,4,2,1,1,7,2,0,52,,,,,,,,,,,,,,,,,,,,
,,,,,52,2020-07-04_15h23.14.963,retriever_ti,2020.1.3,Win32,60,Chrome,1366,768,,,,,,,,,,,,,,,,,3,,,,,,,,,,,,,,,,,,,,,,,,,,,1233.157905,171,right,0.768615,giraffe     ,6,3,1,1,1,1233.19227,1233.19227,1235.6932,0,16,16,16,1,171,5,6,dress         ,giraffe     ,html/resources/sequences_IDs/A/07_dress.jpg,html/resources/sequences_IDs/B/03_giraffe.jpg,7,3,3,2,1,1,5,2,0,52,,,,,,,,,,,,,,,,,,,,
,,,,,52,2020-07-04_15h23.14.963,retriever_ti,2020.1.3,Win32,60,Chrome,1366,768,,,,,,,,,,,,,,,,,3,,,,,,,,,,,,,,,,,,,,,,,,,,,1236.795815,172,left,0.6786,giraffe     ,6,3,1,1,0,1236.812805,1236.812805,1239.31331,0,17,17,17,1,172,6,5,giraffe     ,dress         ,html/resources/sequences_IDs/B/03_giraffe.jpg,html/resources/sequences_IDs/A/07_dress.jpg,3,7,1,1,3,2,2,5,1,52,,,,,,,,,,,,,,,,,,,,
,,,,,52,2020-07-04_15h23.14.963,retriever_ti,2020.1.3,Win32,60,Chrome,1366,768,,,,,,,,,,,,,,,,,3,,,,,,,,,,,,,,,,,,,,,,,,,,,1240.416045,173,right,1.94484,clownfish     ,3,4,2,1,3,1240.43225,1240.43225,1242.93462,0,18,18,18,1,173,1,3,calculator    ,clownfish     ,html/resources/sequences_IDs/A/09_calculator.jpg,html/resources/sequences_IDs/A/04_clownfish.jpg,9,4,4,2,2,1,7,3,0,52,,,,,,,,,,,,,,,,,,,,
,,,,,52,2020-07-04_15h23.14.963,retriever_ti,2020.1.3,Win32,60,Chrome,1366,768,,,,,,,,,,,,,,,,,3,,,,,,,,,,,,,,,,,,,,,,,,,,,1243.53671,174,left,0.82741,parrot      ,4,5,2,1,3,1243.55383,1243.55383,1246.052835,0,19,19,19,1,174,4,2,parrot      ,radio       ,html/resources/sequences_IDs/B/05_parrot.jpg,html/resources/sequences_IDs/B/10_radio.jpg,5,10,2,1,4,2,4,8,0,52,,,,,,,,,,,,,,,,,,,,
,,,,,52,2020-07-04_15h23.14.963,retriever_ti,2020.1.3,Win32,60,Chrome,1366,768,,,,,,,,,,,,,,,,,3,,,,,,,,,,,,,,,,,,,,,,,,,,,1246.65528,175,left,1.512505,radio       ,2,10,-3,0,3,1246.67205,1246.67205,1249.173545,0,20,20,20,1,175,2,5,radio       ,dress         ,html/resources/sequences_IDs/B/10_radio.jpg,html/resources/sequences_IDs/A/07_dress.jpg,10,7,4,2,3,2,8,5,0,52,,,,,,,,,,,,,,,,,,,,
,,,,,52,2020-07-04_15h23.14.963,retriever_ti,2020.1.3,Win32,60,Chrome,1366,768,,,,,,,,,,,,,,,,,3,,,,,,,,,,,,,,,,,,,,,,,,,,,1249.77468,176,left,1.226565,redfox      ,8,1,6,1,3,1249.79399,1249.79399,1252.29319,0,21,21,21,1,176,8,2,redfox      ,radio       ,html/resources/sequences_IDs/B/01_redfox.jpg,html/resources/sequences_IDs/B/10_radio.jpg,1,10,1,1,4,2,1,8,0,52,,,,,,,,,,,,,,,,,,,,
,,,,,52,2020-07-04_15h23.14.963,retriever_ti,2020.1.3,Win32,60,Chrome,1366,768,,,,,,,,,,,,,,,,,3,,,,,,,,,,,,,,,,,,,,,,,,,,,1252.89534,177,left,0.65142,giraffe     ,6,3,-1,0,0,1252.93039,1252.93039,1255.4291,0,22,22,22,1,177,6,7,giraffe     ,hat           ,html/resources/sequences_IDs/B/03_giraffe.jpg,html/resources/sequences_IDs/A/08_hat.jpg,3,8,1,1,3,2,2,6,0,52,,,,,,,,,,,,,,,,,,,,
,,,,,52,2020-07-04_15h23.14.963,retriever_ti,2020.1.3,Win32,60,Chrome,1366,768,,,,,,,,,,,,,,,,,3,,,,,,,,,,,,,,,,,,,,,,,,,,,1256.5316,178,right,0.623885,hat           ,7,8,4,1,3,1256.56692,1256.56692,1259.066525,0,23,23,23,1,178,3,7,clownfish     ,hat           ,html/resources/sequences_IDs/A/04_clownfish.jpg,html/resources/sequences_IDs/A/08_hat.jpg,4,8,2,1,3,2,3,6,0,52,,,,,,,,,,,,,,,,,,,,
,,,,,52,2020-07-04_15h23.14.963,retriever_ti,2020.1.3,Win32,60,Chrome,1366,768,,,,,,,,,,,,,,,,,3,,,,,,,,,,,,,,,,,,,,,,,,,,,1259.66759,179,right,1.30679,parrot      ,4,5,-1,0,0,1259.68699,1259.68699,1262.186015,0,24,24,24,1,179,5,4,dress         ,parrot      ,html/resources/sequences_IDs/A/07_dress.jpg,html/resources/sequences_IDs/B/05_parrot.jpg,7,5,3,2,2,1,5,4,0,52,,,,,,,,,,,,,,,,,,,,
,,,,,52,2020-07-04_15h23.14.963,retriever_ti,2020.1.3,Win32,60,Chrome,1366,768,,,,,,,,,,,,,,,,,3,,,,,,,,,,,,,,,,,,,,,,,,,,,1263.28878,180,right,0.74116,clownfish     ,3,4,-5,0,3,1263.305595,1263.305595,1265.806465,0,25,25,25,1,180,8,3,redfox      ,clownfish     ,html/resources/sequences_IDs/B/01_redfox.jpg,html/resources/sequences_IDs/A/04_clownfish.jpg,1,4,1,1,2,1,1,3,0,52,,,,,,,,,,,,,,,,,,,,
,,,,,52,2020-07-04_15h23.14.963,retriever_ti,2020.1.3,Win32,60,Chrome,1366,768,,,,,,,,,,,,,,,,,3,,,,,,,,,,,,,,,,,,,,,,,,,,,1266.408535,181,right,0.74431,giraffe     ,6,3,-1,0,0,1266.425565,1266.425565,1268.92639,0,26,26,26,1,181,7,6,hat           ,giraffe     ,html/resources/sequences_IDs/A/08_hat.jpg,html/resources/sequences_IDs/B/03_giraffe.jpg,8,3,3,2,1,1,6,2,0,52,,,,,,,,,,,,,,,,,,,,
,,,,,52,2020-07-04_15h23.14.963,retriever_ti,2020.1.3,Win32,60,Chrome,1366,768,,,,,,,,,,,,,,,,,3,,,,,,,,,,,,,,,,,,,,,,,,,,,1270.02777,182,left,0.95318,clownfish     ,3,4,2,1,3,1270.0476,1270.0476,1272.546475,0,27,27,27,1,182,3,1,clownfish     ,calculator    ,html/resources/sequences_IDs/A/04_clownfish.jpg,html/resources/sequences_IDs/A/09_calculator.jpg,4,9,2,1,4,2,3,7,0,52,,,,,,,,,,,,,,,,,,,,
,,,,,52,2020-07-04_15h23.14.963,retriever_ti,2020.1.3,Win32,60,Chrome,1366,768,,,,,,,,,,,,,,,,,3,,,,,,,,,,,,,,,,,,,,,,,,,,,1273.14854,183,left,0.54832,clownfish     ,3,4,1,1,0,1273.166695,1273.166695,1275.666145,0,28,28,28,1,183,3,2,clownfish     ,radio       ,html/resources/sequences_IDs/A/04_clownfish.jpg,html/resources/sequences_IDs/B/10_radio.jpg,4,10,2,1,4,2,3,8,1,52,,,,,,,,,,,,,,,,,,,,
,,,,,52,2020-07-04_15h23.14.963,retriever_ti,2020.1.3,Win32,60,Chrome,1366,768,,,,,,,,,,,,,,,,,3,,,,,,,,,,,,,,,,,,,,,,,,,,,1276.768975,184,right,1.401435,hat           ,7,8,1,1,0,1276.785815,1276.785815,1279.28664,0,29,29,29,1,184,6,7,giraffe     ,hat           ,html/resources/sequences_IDs/B/03_giraffe.jpg,html/resources/sequences_IDs/A/08_hat.jpg,3,8,1,1,3,2,2,6,1,52,,,,,,,,,,,,,,,,,,,,
,,,,,52,2020-07-04_15h23.14.963,retriever_ti,2020.1.3,Win32,60,Chrome,1366,768,,,,,,,,,,,,,,,,,3,,,,,,,,,,,,,,,,,,,,,,,,,,,1280.389165,185,left,0.55955,giraffe     ,6,3,1,1,1,1280.422215,1280.422215,1282.923695,0,30,30,30,1,185,6,5,giraffe     ,dress         ,html/resources/sequences_IDs/B/03_giraffe.jpg,html/resources/sequences_IDs/A/07_dress.jpg,3,7,1,1,3,2,2,5,0,52,,,,,,,,,,,,,,,,,,,,
,,,,,52,2020-07-04_15h23.14.963,retriever_ti,2020.1.3,Win32,60,Chrome,1366,768,,,,,,,,,,,,,,,,,3,,,,,,,,,,,,,,,,,,,,,,,,,,,1284.02668,186,left,0.682485,hat           ,7,8,5,1,3,1284.0617,1284.0617,1286.561055,0,31,31,31,1,186,7,2,hat           ,radio       ,html/resources/sequences_IDs/A/08_hat.jpg,html/resources/sequences_IDs/B/10_radio.jpg,8,10,3,2,4,2,6,8,0,52,,,,,,,,,,,,,,,,,,,,
,,,,,52,2020-07-04_15h23.14.963,retriever_ti,2020.1.3,Win32,60,Chrome,1366,768,,,,,,,,,,,,,,,,,3,,,,,,,,,,,,,,,,,,,,,,,,,,,1287.1626,187,right,0.751155,parrot      ,4,5,3,1,3,1287.179125,1287.179125,1289.680255,0,32,32,32,1,187,1,4,calculator    ,parrot      ,html/resources/sequences_IDs/A/09_calculator.jpg,html/resources/sequences_IDs/B/05_parrot.jpg,9,5,4,2,2,1,7,4,0,52,,,,,,,,,,,,,,,,,,,,
,,,,,52,2020-07-04_15h23.14.963,retriever_ti,2020.1.3,Win32,60,Chrome,1366,768,,,,,,,,,,,,,,,,,3,,,,,,,,,,,,,,,,,,,,,,,,,,,1290.28198,188,right,0.723325,hat           ,7,8,5,1,3,1290.316935,1290.316935,1292.819035,0,33,33,33,1,188,2,7,radio       ,hat           ,html/resources/sequences_IDs/B/10_radio.jpg,html/resources/sequences_IDs/A/08_hat.jpg,10,8,4,2,3,2,8,6,0,52,,,,,,,,,,,,,,,,,,,,
,,,,,52,2020-07-04_15h23.14.963,retriever_ti,2020.1.3,Win32,60,Chrome,1366,768,,,,,,,,,,,,,,,,,3,,,,,,,,,,,,,,,,,,,,,,,,,,,1293.434575,189,right,0.507385,giraffe     ,6,3,4,1,3,1293.468615,1293.468615,1295.970125,0,34,34,34,1,189,2,6,radio       ,giraffe     ,html/resources/sequences_IDs/B/10_radio.jpg,html/resources/sequences_IDs/B/03_giraffe.jpg,10,3,4,2,1,1,8,2,0,52,,,,,,,,,,,,,,,,,,,,
,,,,,52,2020-07-04_15h23.14.963,retriever_ti,2020.1.3,Win32,60,Chrome,1366,768,,,,,,,,,,,,,,,,,3,,,,,,,,,,,,,,,,,,,,,,,,,,,1296.572245,190,right,0.723135,radio       ,2,10,1,1,1,1296.588265,1296.588265,1299.089715,0,35,35,35,1,190,1,2,calculator    ,radio       ,html/resources/sequences_IDs/A/09_calculator.jpg,html/resources/sequences_IDs/B/10_radio.jpg,9,10,4,2,4,2,7,8,0,52,,,,,,,,,,,,,,,,,,,,
,,,,,52,2020-07-04_15h23.14.963,retriever_ti,2020.1.3,Win32,60,Chrome,1366,768,,,,,,,,,,,,,,,,,3,,,,,,,,,,,,,,,,,,,,,,,,,,,1300.19176,191,left,0.872215,parrot      ,4,5,3,1,3,1300.20869,1300.20869,1302.709955,0,36,36,36,1,191,4,1,parrot      ,calculator    ,html/resources/sequences_IDs/B/05_parrot.jpg,html/resources/sequences_IDs/A/09_calculator.jpg,5,9,2,1,4,2,4,7,0,52,,,,,,,,,,,,,,,,,,,,
,,,,,52,2020-07-04_15h23.14.963,retriever_ti,2020.1.3,Win32,60,Chrome,1366,768,,,,,,,,,,,,,,,,,3,,,,,,,,,,,,,,,,,,,,,,,,,,,1303.310655,192,left,0.41986,giraffe     ,6,3,4,1,3,1303.329105,1303.329105,1305.829885,0,37,37,37,1,192,6,2,giraffe     ,radio       ,html/resources/sequences_IDs/B/03_giraffe.jpg,html/resources/sequences_IDs/B/10_radio.jpg,3,10,1,1,4,2,2,8,0,52,,,,,,,,,,,,,,,,,,,,
,,,,,52,2020-07-04_15h23.14.963,retriever_ti,2020.1.3,Win32,60,Chrome,1366,768,,,,,,,,,,,,,,,,,3,,,,,,,,,,,,,,,,,,,,,,,,,,,1306.431985,193,right,1.18109,redfox      ,8,1,3,1,3,1306.44888,1306.44888,1308.94966,0,38,38,38,1,193,5,8,dress         ,redfox      ,html/resources/sequences_IDs/A/07_dress.jpg,html/resources/sequences_IDs/B/01_redfox.jpg,7,1,3,2,1,1,5,1,0,52,,,,,,,,,,,,,,,,,,,,
,,,,,52,2020-07-04_15h23.14.963,retriever_ti,2020.1.3,Win32,60,Chrome,1366,768,,,,,,,,,,,,,,,,,3,,,,,,,,,,,,,,,,,,,,,,,,,,,1309.550835,194,right,0.60847,hat           ,7,8,6,1,3,1309.56809,1309.56809,1312.069365,0,39,39,39,1,194,1,7,calculator    ,hat           ,html/resources/sequences_IDs/A/09_calculator.jpg,html/resources/sequences_IDs/A/08_hat.jpg,9,8,4,2,3,2,7,6,0,52,,,,,,,,,,,,,,,,,,,,
,,,,,52,2020-07-04_15h23.14.963,retriever_ti,2020.1.3,Win32,60,Chrome,1366,768,,,,,,,,,,,,,,,,,3,,,,,,,,,,,,,,,,,,,,,,,,,,,1312.67122,195,right,0.780315,giraffe     ,6,3,-1,0,0,1312.70462,1312.70462,1315.205955,0,40,40,40,1,195,7,6,hat           ,giraffe     ,html/resources/sequences_IDs/A/08_hat.jpg,html/resources/sequences_IDs/B/03_giraffe.jpg,8,3,3,2,1,1,6,2,0,52,,,,,,,,,,,,,,,,,,,,
,,,,,52,2020-07-04_15h23.14.963,retriever_ti,2020.1.3,Win32,60,Chrome,1366,768,,,,,,,,,,,,,,,,,3,,,,,,,,,,,,,,,,,,,,,,,,,,,1316.307785,196,left,0.609005,calculator    ,1,9,-1,0,0,1316.32653,1316.32653,1318.82641,0,41,41,41,1,196,1,2,calculator    ,radio       ,html/resources/sequences_IDs/A/09_calculator.jpg,html/resources/sequences_IDs/B/10_radio.jpg,9,10,4,2,4,2,7,8,0,52,,,,,,,,,,,,,,,,,,,,
,,,,,52,2020-07-04_15h23.14.963,retriever_ti,2020.1.3,Win32,60,Chrome,1366,768,,,,,,,,,,,,,,,,,3,,,,,,,,,,,,,,,,,,,,,,,,,,,1319.928695,197,left,0.402515,radio       ,2,10,-2,0,3,1319.947415,1319.947415,1322.445845,0,42,42,42,1,197,2,4,radio       ,parrot      ,html/resources/sequences_IDs/B/10_radio.jpg,html/resources/sequences_IDs/B/05_parrot.jpg,10,5,4,2,2,1,8,4,0,52,,,,,,,,,,,,,,,,,,,,
,,,,,52,2020-07-04_15h23.14.963,retriever_ti,2020.1.3,Win32,60,Chrome,1366,768,,,,,,,,,,,,,,,,,3,,,,,,,,,,,,,,,,,,,,,,,,,,,1323.047685,198,right,0.759145,hat           ,7,8,-1,0,0,1323.08294,1323.08294,1325.583175,0,43,43,43,1,198,8,7,redfox      ,hat           ,html/resources/sequences_IDs/B/01_redfox.jpg,html/resources/sequences_IDs/A/08_hat.jpg,1,8,1,1,3,2,1,6,0,52,,,,,,,,,,,,,,,,,,,,
,,,,,52,2020-07-04_15h23.14.963,retriever_ti,2020.1.3,Win32,60,Chrome,1366,768,,,,,,,,,,,,,,,,,3,,,,,,,,,,,,,,,,,,,,,,,,,,,1326.686125,199,left,0.79561,clownfish     ,3,4,1,1,1,1326.718465,1326.718465,1329.219895,0,44,44,44,1,199,3,2,clownfish     ,radio       ,html/resources/sequences_IDs/A/04_clownfish.jpg,html/resources/sequences_IDs/B/10_radio.jpg,4,10,2,1,4,2,3,8,0,52,,,,,,,,,,,,,,,,,,,,
,,,,,52,2020-07-04_15h23.14.963,retriever_ti,2020.1.3,Win32,60,Chrome,1366,768,,,,,,,,,,,,,,,,,3,,,,,,,,,,,,,,,,,,,,,,,,,,,1330.322405,200,right,0.70452,redfox      ,8,1,7,1,3,1330.35758,1330.35758,1332.85651,0,45,45,45,1,200,1,8,calculator    ,redfox      ,html/resources/sequences_IDs/A/09_calculator.jpg,html/resources/sequences_IDs/B/01_redfox.jpg,9,1,4,2,1,1,7,1,0,52,,,,,,,,,,,,,,,,,,,,
,,,,,52,2020-07-04_15h23.14.963,retriever_ti,2020.1.3,Win32,60,Chrome,1366,768,,,,,,,,,,,,,,,,,3,,,,,,,,,,,,,,,,,,,,,,,,,,,1333.458245,201,left,0.623255,redfox      ,8,1,2,1,3,1333.475615,1333.475615,1335.97655,0,46,46,46,1,201,8,6,redfox      ,giraffe     ,html/resources/sequences_IDs/B/01_redfox.jpg,html/resources/sequences_IDs/B/03_giraffe.jpg,1,3,1,1,1,1,1,2,0,52,,,,,,,,,,,,,,,,,,,,
,,,,,52,2020-07-04_15h23.14.963,retriever_ti,2020.1.3,Win32,60,Chrome,1366,768,,,,,,,,,,,,,,,,,3,,,,,,,,,,,,,,,,,,,,,,,,,,,1336.57872,202,left,1.063545,parrot      ,4,5,-1,0,0,1336.59537,1336.59537,1339.096335,0,47,47,47,1,202,4,5,parrot      ,dress         ,html/resources/sequences_IDs/B/05_parrot.jpg,html/resources/sequences_IDs/A/07_dress.jpg,5,7,2,1,3,2,4,5,0,52,,,,,,,,,,,,,,,,,,,,
,,,,,52,2020-07-04_15h23.14.963,retriever_ti,2020.1.3,Win32,60,Chrome,1366,768,,,,,,,,,,,,,,,,,3,,,,,,,,,,,,,,,,,,,,,,,,,,,1340.198375,203,right,0.733265,clownfish     ,3,4,-2,0,3,1340.23425,1340.23425,1342.7333,0,48,48,48,1,203,5,3,dress         ,clownfish     ,html/resources/sequences_IDs/A/07_dress.jpg,html/resources/sequences_IDs/A/04_clownfish.jpg,7,4,3,2,2,1,5,3,0,52,,,,,,,,,,,,,,,,,,,,
,,,,,52,2020-07-04_15h23.14.963,retriever_ti,2020.1.3,Win32,60,Chrome,1366,768,,,,,,,,,,,,,,,,,3,,,,,,,,,,,,,,,,,,,,,,,,,,,1343.33499,204,left,1.31267,hat           ,7,8,2,1,3,1343.353895,1343.353895,1345.853165,0,49,49,49,1,204,7,5,hat           ,dress         ,html/resources/sequences_IDs/A/08_hat.jpg,html/resources/sequences_IDs/A/07_dress.jpg,8,7,3,2,3,2,6,5,0,52,,,,,,,,,,,,,,,,,,,,
,,,,,52,2020-07-04_15h23.14.963,retriever_ti,2020.1.3,Win32,60,Chrome,1366,768,,,,,,,,,,,,,,,,,3,,,,,,,,,,,,,,,,,,,,,,,,,,,1346.471405,205,right,1.263045,calculator    ,1,9,-5,0,3,1346.506055,1346.506055,1349.006395,0,50,50,50,1,205,6,1,giraffe     ,calculator    ,html/resources/sequences_IDs/B/03_giraffe.jpg,html/resources/sequences_IDs/A/09_calculator.jpg,3,9,1,1,4,2,2,7,0,52,,,,,,,,,,,,,,,,,,,,
,,,,,52,2020-07-04_15h23.14.963,retriever_ti,2020.1.3,Win32,60,Chrome,1366,768,,,,,,,,,,,,,,,,,3,,,,,,,,,,,,,,,,,,,,,,,,,,,1349.60719,206,right,1.401465,clownfish     ,3,4,-1,0,0,1349.643725,1349.643725,1352.142785,0,51,51,51,1,206,4,3,parrot      ,clownfish     ,html/resources/sequences_IDs/B/05_parrot.jpg,html/resources/sequences_IDs/A/04_clownfish.jpg,5,4,2,1,2,1,4,3,0,52,,,,,,,,,,,,,,,,,,,,
,,,,,52,2020-07-04_15h23.14.963,retriever_ti,2020.1.3,Win32,60,Chrome,1366,768,,,,,,,,,,,,,,,,,3,,,,,,,,,,,,,,,,,,,,,,,,,,,1353.245485,207,right,1.25249,giraffe     ,6,3,3,1,3,1353.26227,1353.26227,1355.76298,0,52,52,52,1,207,3,6,clownfish     ,giraffe     ,html/resources/sequences_IDs/A/04_clownfish.jpg,html/resources/sequences_IDs/B/03_giraffe.jpg,4,3,2,1,1,1,3,2,0,52,,,,,,,,,,,,,,,,,,,,
,,,,,52,2020-07-04_15h23.14.963,retriever_ti,2020.1.3,Win32,60,Chrome,1366,768,,,,,,,,,,,,,,,,,3,,,,,,,,,,,,,,,,,,,,,,,,,,,1356.36473,208,left,0.823355,redfox      ,8,1,1,1,0,1356.38339,1356.38339,1358.88276,0,53,53,53,1,208,8,7,redfox      ,hat           ,html/resources/sequences_IDs/B/01_redfox.jpg,html/resources/sequences_IDs/A/08_hat.jpg,1,8,1,1,3,2,1,6,1,52,,,,,,,,,,,,,,,,,,,,
,,,,,52,2020-07-04_15h23.14.963,retriever_ti,2020.1.3,Win32,60,Chrome,1366,768,,,,,,,,,,,,,,,,,3,,,,,,,,,,,,,,,,,,,,,,,,,,,1359.98437,209,left,0.69722,dress         ,5,7,3,1,3,1360.00176,1360.00176,1362.502895,0,54,54,54,1,209,5,2,dress         ,radio       ,html/resources/sequences_IDs/A/07_dress.jpg,html/resources/sequences_IDs/B/10_radio.jpg,7,10,3,2,4,2,5,8,0,52,,,,,,,,,,,,,,,,,,,,
,,,,,52,2020-07-04_15h23.14.963,retriever_ti,2020.1.3,Win32,60,Chrome,1366,768,,,,,,,,,,,,,,,,,3,,,,,,,,,,,,,,,,,,,,,,,,,,,1363.105515,210,right,0.63616,parrot      ,4,5,-1,0,0,1363.138265,1363.138265,1365.63965,0,55,55,55,1,210,5,4,dress         ,parrot      ,html/resources/sequences_IDs/A/07_dress.jpg,html/resources/sequences_IDs/B/05_parrot.jpg,7,5,3,2,2,1,5,4,0,52,,,,,,,,,,,,,,,,,,,,
,,,,,52,2020-07-04_15h23.14.963,retriever_ti,2020.1.3,Win32,60,Chrome,1366,768,,,,,,,,,,,,,,,,,3,,,,,,,,,,,,,,,,,,,,,,,,,,,1366.742185,211,right,0.761925,redfox      ,8,1,4,1,3,1366.75828,1366.75828,1369.25993,0,56,56,56,1,211,4,8,parrot      ,redfox      ,html/resources/sequences_IDs/B/05_parrot.jpg,html/resources/sequences_IDs/B/01_redfox.jpg,5,1,2,1,1,1,4,1,0,52,,,,,,,,,,,,,,,,,,,,
,,,,,52,2020-07-04_15h23.14.963,retriever_ti,2020.1.3,Win32,60,Chrome,1366,768,,,,,,,,,,,,,,,,,3,,,,,,,,,,,,,,,,,,,,,,,,,,,1369.86115,212,right,0.652405,redfox      ,8,1,1,1,1,1369.877975,1369.877975,1372.37934,0,57,57,57,1,212,7,8,hat           ,redfox      ,html/resources/sequences_IDs/A/08_hat.jpg,html/resources/sequences_IDs/B/01_redfox.jpg,8,1,3,2,1,1,6,1,0,52,,,,,,,,,,,,,,,,,,,,
,,,,,52,2020-07-04_15h23.14.963,retriever_ti,2020.1.3,Win32,60,Chrome,1366,768,,,,,,,,,,,,,,,,,3,,,,,,,,,,,,,,,,,,,,,,,,,,,1373.481765,213,right,0.738345,dress         ,5,7,1,1,0,1373.50023,1373.50023,1375.999655,0,58,58,58,1,213,4,5,parrot      ,dress         ,html/resources/sequences_IDs/B/05_parrot.jpg,html/resources/sequences_IDs/A/07_dress.jpg,5,7,2,1,3,2,4,5,1,52,,,,,,,,,,,,,,,,,,,,
,,,,,52,2020-07-04_15h23.14.963,retriever_ti,2020.1.3,Win32,60,Chrome,1366,768,,,,,,,,,,,,,,,,,3,,,,,,,,,,,,,,,,,,,,,,,,,,,1377.10186,214,left,1.45341,redfox      ,8,1,1,1,1,1377.1188,1377.1188,1379.62028,0,59,59,59,1,214,8,7,redfox      ,hat           ,html/resources/sequences_IDs/B/01_redfox.jpg,html/resources/sequences_IDs/A/08_hat.jpg,1,8,1,1,3,2,1,6,0,52,,,,,,,,,,,,,,,,,,,,
,,,,,52,2020-07-04_15h23.14.963,retriever_ti,2020.1.3,Win32,60,Chrome,1366,768,,,,,,,,,,,,,,,,,3,,,,,,,,,,,,,,,,,,,,,,,,,,,1380.722785,215,right,1.28718,parrot      ,4,5,1,1,1,1380.756495,1380.756495,1383.257125,0,60,60,60,1,215,3,4,clownfish     ,parrot      ,html/resources/sequences_IDs/A/04_clownfish.jpg,html/resources/sequences_IDs/B/05_parrot.jpg,4,5,2,1,2,1,3,4,0,52,,,,,,,,,,,,,,,,,,,,
,,,,,52,2020-07-04_15h23.14.963,retriever_ti,2020.1.3,Win32,60,Chrome,1366,768,,,,,,,,,,,,,,,,,3,,,,,,,,,,,,,,,,,,,,,,,,,,,1384.359675,216,right,0.866515,parrot      ,4,5,-4,0,3,1384.39386,1384.39386,1386.89421,0,61,61,61,1,216,8,4,redfox      ,parrot      ,html/resources/sequences_IDs/B/01_redfox.jpg,html/resources/sequences_IDs/B/05_parrot.jpg,1,5,1,1,2,1,1,4,0,52,,,,,,,,,,,,,,,,,,,,
,,,,,52,2020-07-04_15h23.14.963,retriever_ti,2020.1.3,Win32,60,Chrome,1366,768,,,,,,,,,,,,,,,,,3,,,,,,,,,,,,,,,,,,,,,,,,,,,1387.495075,217,left,0.56802,dress         ,5,7,-2,0,3,1387.51421,1387.51421,1390.01377,0,62,62,62,1,217,5,7,dress         ,hat           ,html/resources/sequences_IDs/A/07_dress.jpg,html/resources/sequences_IDs/A/08_hat.jpg,7,8,3,2,3,2,5,6,0,52,,,,,,,,,,,,,,,,,,,,
,,,,,52,2020-07-04_15h23.14.963,retriever_ti,2020.1.3,Win32,60,Chrome,1366,768,,,,,,,,,,,,,,,,,3,,,,,,,,,,,,,,,,,,,,,,,,,,,1390.616245,218,right,0.574295,calculator    ,1,9,-1,0,0,1390.64989,1390.64989,1393.15051,0,63,63,63,1,218,2,1,radio       ,calculator    ,html/resources/sequences_IDs/B/10_radio.jpg,html/resources/sequences_IDs/A/09_calculator.jpg,10,9,4,2,4,2,8,7,0,52,,,,,,,,,,,,,,,,,,,,
,,,,,52,2020-07-04_15h23.14.963,retriever_ti,2020.1.3,Win32,60,Chrome,1366,768,,,,,,,,,,,,,,,,,3,,,,,,,,,,,,,,,,,,,,,,,,,,,1394.25288,219,right,1.05674,dress         ,5,7,-3,0,3,1394.26921,1394.26921,1396.77068,0,64,64,64,1,219,8,5,redfox      ,dress         ,html/resources/sequences_IDs/B/01_redfox.jpg,html/resources/sequences_IDs/A/07_dress.jpg,1,7,1,1,3,2,1,5,0,52,,,,,,,,,,,,,,,,,,,,
,,,,,52,2020-07-04_15h23.14.963,retriever_ti,2020.1.3,Win32,60,Chrome,1366,768,,,,,,,,,,,,,,,,,3,,,,,,,,,,,,,,,,,,,,,,,,,,,1397.37274,220,right,0.96582,redfox      ,8,1,6,1,3,1397.38931,1397.38931,1399.89062,0,65,65,65,1,220,2,8,radio       ,redfox      ,html/resources/sequences_IDs/B/10_radio.jpg,html/resources/sequences_IDs/B/01_redfox.jpg,10,1,4,2,1,1,8,1,0,52,,,,,,,,,,,,,,,,,,,,
,,,,,52,2020-07-04_15h23.14.963,retriever_ti,2020.1.3,Win32,60,Chrome,1366,768,,,,,,,,,,,,,,,,,3,,,,,,,,,,,,,,,,,,,,,,,,,,,1400.49222,221,right,0.683185,radio       ,2,10,-1,0,0,1400.50927,1400.50927,1403.010355,0,66,66,66,1,221,3,2,clownfish     ,radio       ,html/resources/sequences_IDs/A/04_clownfish.jpg,html/resources/sequences_IDs/B/10_radio.jpg,4,10,2,1,4,2,3,8,0,52,,,,,,,,,,,,,,,,,,,,
,,,,,52,2020-07-04_15h23.14.963,retriever_ti,2020.1.3,Win32,60,Chrome,1366,768,,,,,,,,,,,,,,,,,3,,,,,,,,,,,,,,,,,,,,,,,,,,,1404.11146,222,right,0.978505,dress         ,5,7,2,1,3,1404.128595,1404.128595,1406.63053,0,67,67,67,1,222,3,5,clownfish     ,dress         ,html/resources/sequences_IDs/A/04_clownfish.jpg,html/resources/sequences_IDs/A/07_dress.jpg,4,7,2,1,3,2,3,5,0,52,,,,,,,,,,,,,,,,,,,,
,,,,,52,2020-07-04_15h23.14.963,retriever_ti,2020.1.3,Win32,60,Chrome,1366,768,,,,,,,,,,,,,,,,,3,,,,,,,,,,,,,,,,,,,,,,,,,,,1407.23324,223,left,1.91126,parrot      ,4,5,1,1,1,1407.254585,1407.254585,1409.75035,0,68,68,68,1,223,4,3,parrot      ,clownfish     ,html/resources/sequences_IDs/B/05_parrot.jpg,html/resources/sequences_IDs/A/04_clownfish.jpg,5,4,2,1,2,1,4,3,0,52,,,,,,,,,,,,,,,,,,,,
