instructionsLoop.thisRepN,instructionsLoop.thisTrialN,instructionsLoop.thisN,instructionsLoop.thisIndex,instructionsLoop.ran,participant,date,expName,psychopyVersion,OS,frameRate,browser,xResolution,yResolution,fix_onset,tprac,practiceKey.keys,practiceKey.rt,pracitem_chosen_name,acc_practice,P1_onsetPrac,P2_onsetPrac,onsetFeedbPrac,practiceTrials.thisRepN,practiceTrials.thisTrialN,practiceTrials.thisN,practiceTrials.thisIndex,practiceTrials.ran,P1,P2,Block,LocItem1,LocItem2,NameItem1,NameItem2,key_respAC_prac.keys,key_respAC_prac.corr,key_respAC_prac.rt,AC_acc,Attentions.thisRepN,Attentions.thisTrialN,Attentions.thisN,Attentions.thisIndex,Attentions.ran,Stim,Loc1,Loc2,Loc3,Loc4,CorrAns,keyDisturbed.keys,keyDisturbed.rt,repPractice.thisRepN,repPractice.thisTrialN,repPractice.thisN,repPractice.thisIndex,repPractice.ran,fixcross_onsetMain,trialNumber,key_resp.keys,key_resp.rt,item_chosen_name,item_chosen_value,item_chosen_ID,diff_chosen_minus_reject,acc_real,acc_feedback,P1_onset,P2_onset,feedb_onset,trials.thisRepN,trials.thisTrialN,trials.thisN,trials.thisIndex,trials.ran,Trial,ValueP1,ValueP2,P1name,P2name,P1Loc,P2Loc,P1id,P2id,Micro_categoryP1,Macro_categoryP1,Micro_categoryP2,Macro_categoryP2,ID_sequenceP1,ID_sequenceP2,InverseFb,pNumber,repBlocks.thisRepN,repBlocks.thisTrialN,repBlocks.thisN,repBlocks.thisIndex,repBlocks.ran,key_respAC.keys,key_respAC.corr,key_respAC.rt,trials_AC.thisRepN,trials_AC.thisTrialN,trials_AC.thisN,trials_AC.thisIndex,trials_AC.ran,Bonus,BonusLoop.thisRepN,BonusLoop.thisTrialN,BonusLoop.thisN,BonusLoop.thisIndex,BonusLoop.ran,comments
0,0,0,0,1,53,2020-07-04_16h24.45.684,retriever_ti,2020.1.3,Win32,60,Chrome,1920,1080,,,,,,,,,,,,,,,,,,,,,,,,,,,,,,,,,,,,,,,,,,,,,,,,,,,,,,,,,,,,,,,,,,,,,,,,,,,,,,,,,,,,,,,,,,,,,,,,,,
1,0,1,0,1,53,2020-07-04_16h24.45.684,retriever_ti,2020.1.3,Win32,60,Chrome,1920,1080,,,,,,,,,,,,,,,,,,,,,,,,,,,,,,,,,,,,,,,,,,,,,,,,,,,,,,,,,,,,,,,,,,,,,,,,,,,,,,,,,,,,,,,,,,,,,,,,,,
2,0,2,0,1,53,2020-07-04_16h24.45.684,retriever_ti,2020.1.3,Win32,60,Chrome,1920,1080,,,,,,,,,,,,,,,,,,,,,,,,,,,,,,,,,,,,,,,,,,,,,,,,,,,,,,,,,,,,,,,,,,,,,,,,,,,,,,,,,,,,,,,,,,,,,,,,,,
3,0,3,0,1,53,2020-07-04_16h24.45.684,retriever_ti,2020.1.3,Win32,60,Chrome,1920,1080,,,,,,,,,,,,,,,,,,,,,,,,,,,,,,,,,,,,,,,,,,,,,,,,,,,,,,,,,,,,,,,,,,,,,,,,,,,,,,,,,,,,,,,,,,,,,,,,,,
4,0,4,0,1,53,2020-07-04_16h24.45.684,retriever_ti,2020.1.3,Win32,60,Chrome,1920,1080,,,,,,,,,,,,,,,,,,,,,,,,,,,,,,,,,,,,,,,,,,,,,,,,,,,,,,,,,,,,,,,,,,,,,,,,,,,,,,,,,,,,,,,,,,,,,,,,,,
5,0,5,0,1,53,2020-07-04_16h24.45.684,retriever_ti,2020.1.3,Win32,60,Chrome,1920,1080,,,,,,,,,,,,,,,,,,,,,,,,,,,,,,,,,,,,,,,,,,,,,,,,,,,,,,,,,,,,,,,,,,,,,,,,,,,,,,,,,,,,,,,,,,,,,,,,,,
6,0,6,0,1,53,2020-07-04_16h24.45.684,retriever_ti,2020.1.3,Win32,60,Chrome,1920,1080,,,,,,,,,,,,,,,,,,,,,,,,,,,,,,,,,,,,,,,,,,,,,,,,,,,,,,,,,,,,,,,,,,,,,,,,,,,,,,,,,,,,,,,,,,,,,,,,,,
7,0,7,0,1,53,2020-07-04_16h24.45.684,retriever_ti,2020.1.3,Win32,60,Chrome,1920,1080,,,,,,,,,,,,,,,,,,,,,,,,,,,,,,,,,,,,,,,,,,,,,,,,,,,,,,,,,,,,,,,,,,,,,,,,,,,,,,,,,,,,,,,,,,,,,,,,,,
8,0,8,0,1,53,2020-07-04_16h24.45.684,retriever_ti,2020.1.3,Win32,60,Chrome,1920,1080,,,,,,,,,,,,,,,,,,,,,,,,,,,,,,,,,,,,,,,,,,,,,,,,,,,,,,,,,,,,,,,,,,,,,,,,,,,,,,,,,,,,,,,,,,,,,,,,,,
9,0,9,0,1,53,2020-07-04_16h24.45.684,retriever_ti,2020.1.3,Win32,60,Chrome,1920,1080,,,,,,,,,,,,,,,,,,,,,,,,,,,,,,,,,,,,,,,,,,,,,,,,,,,,,,,,,,,,,,,,,,,,,,,,,,,,,,,,,,,,,,,,,,,,,,,,,,
10,0,10,0,1,53,2020-07-04_16h24.45.684,retriever_ti,2020.1.3,Win32,60,Chrome,1920,1080,,,,,,,,,,,,,,,,,,,,,,,,,,,,,,,,,,,,,,,,,,,,,,,,,,,,,,,,,,,,,,,,,,,,,,,,,,,,,,,,,,,,,,,,,,,,,,,,,,
11,0,11,0,1,53,2020-07-04_16h24.45.684,retriever_ti,2020.1.3,Win32,60,Chrome,1920,1080,,,,,,,,,,,,,,,,,,,,,,,,,,,,,,,,,,,,,,,,,,,,,,,,,,,,,,,,,,,,,,,,,,,,,,,,,,,,,,,,,,,,,,,,,,,,,,,,,,
12,0,12,0,1,53,2020-07-04_16h24.45.684,retriever_ti,2020.1.3,Win32,60,Chrome,1920,1080,,,,,,,,,,,,,,,,,,,,,,,,,,,,,,,,,,,,,,,,,,,,,,,,,,,,,,,,,,,,,,,,,,,,,,,,,,,,,,,,,,,,,,,,,,,,,,,,,,
13,0,13,0,1,53,2020-07-04_16h24.45.684,retriever_ti,2020.1.3,Win32,60,Chrome,1920,1080,,,,,,,,,,,,,,,,,,,,,,,,,,,,,,,,,,,,,,,,,,,,,,,,,,,,,,,,,,,,,,,,,,,,,,,,,,,,,,,,,,,,,,,,,,,,,,,,,,
14,0,14,0,1,53,2020-07-04_16h24.45.684,retriever_ti,2020.1.3,Win32,60,Chrome,1920,1080,,,,,,,,,,,,,,,,,,,,,,,,,,,,,,,,,,,,,,,,,,,,,,,,,,,,,,,,,,,,,,,,,,,,,,,,,,,,,,,,,,,,,,,,,,,,,,,,,,
15,0,15,0,1,53,2020-07-04_16h24.45.684,retriever_ti,2020.1.3,Win32,60,Chrome,1920,1080,,,,,,,,,,,,,,,,,,,,,,,,,,,,,,,,,,,,,,,,,,,,,,,,,,,,,,,,,,,,,,,,,,,,,,,,,,,,,,,,,,,,,,,,,,,,,,,,,,
16,0,16,0,1,53,2020-07-04_16h24.45.684,retriever_ti,2020.1.3,Win32,60,Chrome,1920,1080,,,,,,,,,,,,,,,,,,,,,,,,,,,,,,,,,,,,,,,,,,,,,,,,,,,,,,,,,,,,,,,,,,,,,,,,,,,,,,,,,,,,,,,,,,,,,,,,,,
17,0,17,0,1,53,2020-07-04_16h24.45.684,retriever_ti,2020.1.3,Win32,60,Chrome,1920,1080,,,,,,,,,,,,,,,,,,,,,,,,,,,,,,,,,,,,,,,,,,,,,,,,,,,,,,,,,,,,,,,,,,,,,,,,,,,,,,,,,,,,,,,,,,,,,,,,,,
18,0,18,0,1,53,2020-07-04_16h24.45.684,retriever_ti,2020.1.3,Win32,60,Chrome,1920,1080,,,,,,,,,,,,,,,,,,,,,,,,,,,,,,,,,,,,,,,,,,,,,,,,,,,,,,,,,,,,,,,,,,,,,,,,,,,,,,,,,,,,,,,,,,,,,,,,,,
19,0,19,0,1,53,2020-07-04_16h24.45.684,retriever_ti,2020.1.3,Win32,60,Chrome,1920,1080,,,,,,,,,,,,,,,,,,,,,,,,,,,,,,,,,,,,,,,,,,,,,,,,,,,,,,,,,,,,,,,,,,,,,,,,,,,,,,,,,,,,,,,,,,,,,,,,,,
,,,,,53,2020-07-04_16h24.45.684,retriever_ti,2020.1.3,Win32,60,Chrome,1920,1080,603.596815,1,left,1.869055,beetle,0,603.61688,603.61688,606.118255,0,0,0,0,1,2,5,1,html/resources/stimuli_practice_decision/04_beetle.jpg,html/resources/stimuli_practice_decision/02_canary.jpg,beetle,canary,,,,,,,,,,,,,,,,,,,,,,,,,,,,,,,,,,,,,,,,,,,,,,,,,,,,,,,,,,,,,,,,,,,,,,,,,,,,,
,,,,,53,2020-07-04_16h24.45.684,retriever_ti,2020.1.3,Win32,60,Chrome,1920,1080,606.636145,2,left,1.37621,rabbit,1,606.669335,606.669335,609.17091,0,1,1,1,1,4,3,1,html/resources/stimuli_practice_decision/01_rabbit.jpg,html/resources/stimuli_practice_decision/07_sock.jpg,rabbit,sock,,,,,,,,,,,,,,,,,,,,,,,,,,,,,,,,,,,,,,,,,,,,,,,,,,,,,,,,,,,,,,,,,,,,,,,,,,,,,
,,,,,53,2020-07-04_16h24.45.684,retriever_ti,2020.1.3,Win32,60,Chrome,1920,1080,610.172595,3,right,0.945785,beetle,0,610.20613,610.20613,612.707825,0,2,2,2,1,6,2,1,html/resources/stimuli_practice_decision/06_pullover.jpg,html/resources/stimuli_practice_decision/04_beetle.jpg,pullover,beetle,,,,,,,,,,,,,,,,,,,,,,,,,,,,,,,,,,,,,,,,,,,,,,,,,,,,,,,,,,,,,,,,,,,,,,,,,,,,,
,,,,,53,2020-07-04_16h24.45.684,retriever_ti,2020.1.3,Win32,60,Chrome,1920,1080,613.20891,4,right,1.09942,handmixer,0,613.225825,613.225825,615.72765,0,3,3,3,1,7,1,1,html/resources/stimuli_practice_decision/05_glasses.jpg,html/resources/stimuli_practice_decision/08_handmixer.jpg,glasses,handmixer,,,,,,,,,,,,,,,,,,,,,,,,,,,,,,,,,,,,,,,,,,,,,,,,,,,,,,,,,,,,,,,,,,,,,,,,,,,,,
,,,,,53,2020-07-04_16h24.45.684,retriever_ti,2020.1.3,Win32,60,Chrome,1920,1080,616.22851,5,left,1.36543,glasses,1,616.262455,616.262455,618.764,0,4,4,4,1,7,6,1,html/resources/stimuli_practice_decision/05_glasses.jpg,html/resources/stimuli_practice_decision/06_pullover.jpg,glasses,pullover,,,,,,,,,,,,,,,,,,,,,,,,,,,,,,,,,,,,,,,,,,,,,,,,,,,,,,,,,,,,,,,,,,,,,,,,,,,,,
,,,,,53,2020-07-04_16h24.45.684,retriever_ti,2020.1.3,Win32,60,Chrome,1920,1080,619.765615,6,right,0.851635,glasses,1,619.782545,619.782545,622.28417,0,5,5,5,1,4,7,1,html/resources/stimuli_practice_decision/01_rabbit.jpg,html/resources/stimuli_practice_decision/05_glasses.jpg,rabbit,glasses,,,,,,,,,,,,,,,,,,,,,,,,,,,,,,,,,,,,,,,,,,,,,,,,,,,,,,,,,,,,,,,,,,,,,,,,,,,,,
,,,,,53,2020-07-04_16h24.45.684,retriever_ti,2020.1.3,Win32,60,Chrome,1920,1080,622.784925,7,left,1.558875,handmixer,0,622.81885,622.81885,625.320525,0,6,6,6,1,1,2,1,html/resources/stimuli_practice_decision/08_handmixer.jpg,html/resources/stimuli_practice_decision/04_beetle.jpg,handmixer,beetle,,,,,,,,,,,,,,,,,,,,,,,,,,,,,,,,,,,,,,,,,,,,,,,,,,,,,,,,,,,,,,,,,,,,,,,,,,,,,
,,,,,53,2020-07-04_16h24.45.684,retriever_ti,2020.1.3,Win32,60,Chrome,1920,1080,626.3221,8,left,0.937305,rabbit,1,626.35591,626.35591,628.857495,0,7,7,7,1,4,3,1,html/resources/stimuli_practice_decision/01_rabbit.jpg,html/resources/stimuli_practice_decision/07_sock.jpg,rabbit,sock,,,,,,,,,,,,,,,,,,,,,,,,,,,,,,,,,,,,,,,,,,,,,,,,,,,,,,,,,,,,,,,,,,,,,,,,,,,,,
,,,,,53,2020-07-04_16h24.45.684,retriever_ti,2020.1.3,Win32,60,Chrome,1920,1080,,,,,,,,,,,,,,,,,,,,,,down,1,4.15868,1,0,0,0,3,1,html/resources/sequences_IDs/triangle.png,star ↑,square →,triangle ↓,← circle,down,,,,,,,,,,,,,,,,,,,,,,,,,,,,,,,,,,,,,,,,,,,,,,,,,,,,,,,,,,,,,,
,,,,,53,2020-07-04_16h24.45.684,retriever_ti,2020.1.3,Win32,60,Chrome,1920,1080,,,,,,,,,,,,,,,,,,,,,,left,1,3.372415,1,0,1,1,2,1,html/resources/sequences_IDs/square1.png,star ↑,triangle →,circle ↓,← square,left,,,,,,,,,,,,,,,,,,,,,,,,,,,,,,,,,,,,,,,,,,,,,,,,,,,,,,,,,,,,,,
,,,,,53,2020-07-04_16h24.45.684,retriever_ti,2020.1.3,Win32,60,Chrome,1920,1080,,,,,,,,,,,,,,,,,,,,,,down,1,1.234635,1,0,2,2,1,1,html/resources/sequences_IDs/star.png,square ↑,circle →,star ↓,← triangle,down,,,,,,,,,,,,,,,,,,,,,,,,,,,,,,,,,,,,,,,,,,,,,,,,,,,,,,,,,,,,,,
,,,,,53,2020-07-04_16h24.45.684,retriever_ti,2020.1.3,Win32,60,Chrome,1920,1080,,,,,,,,,,,,,,,,,,,,,,up,1,0.87333,1,0,3,3,0,1,html/resources/sequences_IDs/circle.png,circle ↑,square →,triangle ↓,← star ,up,,,,,,,,,,,,,,,,,,,,,,,,,,,,,,,,,,,,,,,,,,,,,,,,,,,,,,,,,,,,,,
,,,,,53,2020-07-04_16h24.45.684,retriever_ti,2020.1.3,Win32,60,Chrome,1920,1080,,,,,,,,,,,,,,,,,,,,,,,,,,,,,,,,,,,,,0,8.25819,0,0,0,0,1,,,,,,,,,,,,,,,,,,,,,,,,,,,,,,,,,,,,,,,,,,,,,,,,,,,,,,,
,,,,,53,2020-07-04_16h24.45.684,retriever_ti,2020.1.3,Win32,60,Chrome,1920,1080,650.792465,9,right,1.182935,glasses,1,650.81404,650.81404,653.315595,0,0,0,0,1,6,7,1,html/resources/stimuli_practice_decision/06_pullover.jpg,html/resources/stimuli_practice_decision/05_glasses.jpg,pullover,glasses,,,,,,,,,,,,,,,,,,,,,,,,,,,,,,,,,,,,,,,,,,,,,,,,,,,,,,,,,,,,,,,,,,,,,,,,,,,,,
,,,,,53,2020-07-04_16h24.45.684,retriever_ti,2020.1.3,Win32,60,Chrome,1920,1080,654.31715,10,right,1.5033,beetle,0,654.350935,654.350935,656.8525,0,1,1,1,1,6,2,1,html/resources/stimuli_practice_decision/06_pullover.jpg,html/resources/stimuli_practice_decision/04_beetle.jpg,pullover,beetle,,,,,,,,,,,,,,,,,,,,,,,,,,,,,,,,,,,,,,,,,,,,,,,,,,,,,,,,,,,,,,,,,,,,,,,,,,,,,
,,,,,53,2020-07-04_16h24.45.684,retriever_ti,2020.1.3,Win32,60,Chrome,1920,1080,657.35328,11,right,1.42626,pullover,1,657.38704,657.38704,659.88885,0,2,2,2,1,5,6,1,html/resources/stimuli_practice_decision/02_canary.jpg,html/resources/stimuli_practice_decision/06_pullover.jpg,canary,pullover,,,,,,,,,,,,,,,,,,,,,,,,,,,,,,,,,,,,,,,,,,,,,,,,,,,,,,,,,,,,,,,,,,,,,,,,,,,,,
,,,,,53,2020-07-04_16h24.45.684,retriever_ti,2020.1.3,Win32,60,Chrome,1920,1080,660.89043,12,right,0.966315,glasses,0,660.92394,660.92394,663.42576,0,3,3,3,1,8,7,1,html/resources/stimuli_practice_decision/03_squirrel.jpg,html/resources/stimuli_practice_decision/05_glasses.jpg,squirrel,glasses,,,,,,,,,,,,,,,,,,,,,,,,,,,,,,,,,,,,,,,,,,,,,,,,,,,,,,,,,,,,,,,,,,,,,,,,,,,,,
,,,,,53,2020-07-04_16h24.45.684,retriever_ti,2020.1.3,Win32,60,Chrome,1920,1080,664.42739,13,left,1.38373,canary,1,664.44418,664.44418,666.94599,0,4,4,4,1,5,3,1,html/resources/stimuli_practice_decision/02_canary.jpg,html/resources/stimuli_practice_decision/07_sock.jpg,canary,sock,,,,,,,,,,,,,,,,,,,,,,,,,,,,,,,,,,,,,,,,,,,,,,,,,,,,,,,,,,,,,,,,,,,,,,,,,,,,,
,,,,,53,2020-07-04_16h24.45.684,retriever_ti,2020.1.3,Win32,60,Chrome,1920,1080,667.446805,14,right,1.7021,squirrel,1,667.480745,667.480745,669.98247,0,5,5,5,1,7,8,1,html/resources/stimuli_practice_decision/05_glasses.jpg,html/resources/stimuli_practice_decision/03_squirrel.jpg,glasses,squirrel,,,,,,,,,,,,,,,,,,,,,,,,,,,,,,,,,,,,,,,,,,,,,,,,,,,,,,,,,,,,,,,,,,,,,,,,,,,,,
,,,,,53,2020-07-04_16h24.45.684,retriever_ti,2020.1.3,Win32,60,Chrome,1920,1080,670.98392,15,left,1.61869,canary,1,671.017455,671.017455,673.519335,0,6,6,6,1,5,4,1,html/resources/stimuli_practice_decision/02_canary.jpg,html/resources/stimuli_practice_decision/01_rabbit.jpg,canary,rabbit,,,,,,,,,,,,,,,,,,,,,,,,,,,,,,,,,,,,,,,,,,,,,,,,,,,,,,,,,,,,,,,,,,,,,,,,,,,,,
,,,,,53,2020-07-04_16h24.45.684,retriever_ti,2020.1.3,Win32,60,Chrome,1920,1080,674.520945,16,left,0.809495,canary,1,674.554285,674.554285,677.056275,0,7,7,7,1,5,3,1,html/resources/stimuli_practice_decision/02_canary.jpg,html/resources/stimuli_practice_decision/07_sock.jpg,canary,sock,,,,,,,,,,,,,,,,,,,,,,,,,,,,,,,,,,,,,,,,,,,,,,,,,,,,,,,,,,,,,,,,,,,,,,,,,,,,,
,,,,,53,2020-07-04_16h24.45.684,retriever_ti,2020.1.3,Win32,60,Chrome,1920,1080,,,,,,,,,,,,,,,,,,,,,,down,1,1.23663,1,0,0,0,1,1,html/resources/sequences_IDs/star.png,square ↑,circle →,star ↓,← triangle,down,,,,,,,,,,,,,,,,,,,,,,,,,,,,,,,,,,,,,,,,,,,,,,,,,,,,,,,,,,,,,,
,,,,,53,2020-07-04_16h24.45.684,retriever_ti,2020.1.3,Win32,60,Chrome,1920,1080,,,,,,,,,,,,,,,,,,,,,,up,1,0.92349,1,0,1,1,0,1,html/resources/sequences_IDs/circle.png,circle ↑,square →,triangle ↓,← star ,up,,,,,,,,,,,,,,,,,,,,,,,,,,,,,,,,,,,,,,,,,,,,,,,,,,,,,,,,,,,,,,
,,,,,53,2020-07-04_16h24.45.684,retriever_ti,2020.1.3,Win32,60,Chrome,1920,1080,,,,,,,,,,,,,,,,,,,,,,down,1,1.891185,1,0,2,2,3,1,html/resources/sequences_IDs/triangle.png,star ↑,square →,triangle ↓,← circle,down,,,,,,,,,,,,,,,,,,,,,,,,,,,,,,,,,,,,,,,,,,,,,,,,,,,,,,,,,,,,,,
,,,,,53,2020-07-04_16h24.45.684,retriever_ti,2020.1.3,Win32,60,Chrome,1920,1080,,,,,,,,,,,,,,,,,,,,,,left,1,1.046485,1,0,3,3,2,1,html/resources/sequences_IDs/square1.png,star ↑,triangle →,circle ↓,← square,left,,,,,,,,,,,,,,,,,,,,,,,,,,,,,,,,,,,,,,,,,,,,,,,,,,,,,,,,,,,,,,
,,,,,53,2020-07-04_16h24.45.684,retriever_ti,2020.1.3,Win32,60,Chrome,1920,1080,,,,,,,,,,,,,,,,,,,,,,,,,,,,,,,,,,,,,0,1.628385,1,0,1,0,1,,,,,,,,,,,,,,,,,,,,,,,,,,,,,,,,,,,,,,,,,,,,,,,,,,,,,,,
,,,,,53,2020-07-04_16h24.45.684,retriever_ti,2020.1.3,Win32,60,Chrome,1920,1080,,,,,,,,,,,,,,,,,1,,,,,,,,,,,,,,,,,,,,,,,,,,,688.407,1,left,1.391705,peacock       ,7,5,1,1,1,688.419035,688.419035,690.920695,0,0,0,0,1,1,7,6,peacock       ,gloves      ,html/resources/sequences_IDs/A/05_peacock.jpg,html/resources/sequences_IDs/B/06_gloves.jpg,5,6,2,1,3,2,4,5,0,53,,,,,,,,,,,,,,,,,,,,
,,,,,53,2020-07-04_16h24.45.684,retriever_ti,2020.1.3,Win32,60,Chrome,1920,1080,,,,,,,,,,,,,,,,,1,,,,,,,,,,,,,,,,,,,,,,,,,,,692.022285,2,right,1.1634,satellite_dish,5,10,-3,0,3,692.055395,692.055395,694.55735,0,1,1,1,1,2,8,5,holdfast    ,satellite_dish,html/resources/sequences_IDs/B/04_holdfast.jpg,html/resources/sequences_IDs/A/10_satellite_dish.jpg,4,10,2,1,4,2,3,8,0,53,,,,,,,,,,,,,,,,,,,,
,,,,,53,2020-07-04_16h24.45.684,retriever_ti,2020.1.3,Win32,60,Chrome,1920,1080,,,,,,,,,,,,,,,,,1,,,,,,,,,,,,,,,,,,,,,,,,,,,695.1582,3,right,1.172265,satellite_dish,5,10,2,1,3,695.192205,695.192205,697.693775,0,2,2,2,1,3,3,5,camel         ,satellite_dish,html/resources/sequences_IDs/A/03_camel.jpg,html/resources/sequences_IDs/A/10_satellite_dish.jpg,3,10,1,1,4,2,2,8,0,53,,,,,,,,,,,,,,,,,,,,
,,,,,53,2020-07-04_16h24.45.684,retriever_ti,2020.1.3,Win32,60,Chrome,1920,1080,,,,,,,,,,,,,,,,,1,,,,,,,,,,,,,,,,,,,,,,,,,,,698.295845,4,right,1.09229,dolphin     ,4,2,-2,0,3,698.3121,698.3121,700.813715,0,3,3,3,1,4,6,4,gloves      ,dolphin     ,html/resources/sequences_IDs/B/06_gloves.jpg,html/resources/sequences_IDs/B/02_dolphin.jpg,6,2,3,2,1,1,5,1,0,53,,,,,,,,,,,,,,,,,,,,
,,,,,53,2020-07-04_16h24.45.684,retriever_ti,2020.1.3,Win32,60,Chrome,1920,1080,,,,,,,,,,,,,,,,,1,,,,,,,,,,,,,,,,,,,,,,,,,,,701.414535,5,right,1.19324,peacock       ,7,5,5,1,3,701.43157,701.43157,703.93348,0,4,4,4,1,5,2,7,sport_tshirt,peacock       ,html/resources/sequences_IDs/B/07_sport_tshirt.jpg,html/resources/sequences_IDs/A/05_peacock.jpg,7,5,3,2,2,1,6,4,0,53,,,,,,,,,,,,,,,,,,,,
,,,,,53,2020-07-04_16h24.45.684,retriever_ti,2020.1.3,Win32,60,Chrome,1920,1080,,,,,,,,,,,,,,,,,1,,,,,,,,,,,,,,,,,,,,,,,,,,,704.53473,6,right,1.500735,camel         ,3,3,-4,0,3,704.55155,704.55155,707.053415,0,5,5,5,1,6,7,3,peacock       ,camel         ,html/resources/sequences_IDs/A/05_peacock.jpg,html/resources/sequences_IDs/A/03_camel.jpg,5,3,2,1,1,1,4,2,0,53,,,,,,,,,,,,,,,,,,,,
,,,,,53,2020-07-04_16h24.45.684,retriever_ti,2020.1.3,Win32,60,Chrome,1920,1080,,,,,,,,,,,,,,,,,1,,,,,,,,,,,,,,,,,,,,,,,,,,,707.6541,7,left,0.89816,dolphin     ,4,2,-4,0,3,707.68803,707.68803,710.18975,0,6,6,6,1,7,4,8,dolphin     ,holdfast    ,html/resources/sequences_IDs/B/02_dolphin.jpg,html/resources/sequences_IDs/B/04_holdfast.jpg,2,4,1,1,2,1,1,3,0,53,,,,,,,,,,,,,,,,,,,,
,,,,,53,2020-07-04_16h24.45.684,retriever_ti,2020.1.3,Win32,60,Chrome,1920,1080,,,,,,,,,,,,,,,,,1,,,,,,,,,,,,,,,,,,,,,,,,,,,710.79092,8,left,2.037305,dolphin     ,4,2,-1,0,1,710.82468,710.82468,713.3263,0,7,7,7,1,8,4,5,dolphin     ,satellite_dish,html/resources/sequences_IDs/B/02_dolphin.jpg,html/resources/sequences_IDs/A/10_satellite_dish.jpg,2,10,1,1,4,2,1,8,1,53,,,,,,,,,,,,,,,,,,,,
,,,,,53,2020-07-04_16h24.45.684,retriever_ti,2020.1.3,Win32,60,Chrome,1920,1080,,,,,,,,,,,,,,,,,1,,,,,,,,,,,,,,,,,,,,,,,,,,,714.428585,9,right,1.084325,camel         ,3,3,-5,0,3,714.461435,714.461435,716.963235,0,8,8,8,1,9,8,3,holdfast    ,camel         ,html/resources/sequences_IDs/B/04_holdfast.jpg,html/resources/sequences_IDs/A/03_camel.jpg,4,3,2,1,1,1,3,2,0,53,,,,,,,,,,,,,,,,,,,,
,,,,,53,2020-07-04_16h24.45.684,retriever_ti,2020.1.3,Win32,60,Chrome,1920,1080,,,,,,,,,,,,,,,,,1,,,,,,,,,,,,,,,,,,,,,,,,,,,717.564105,10,left,2.293305,peacock       ,7,5,3,1,3,717.58133,717.58133,720.08303,0,9,9,9,1,10,7,4,peacock       ,dolphin     ,html/resources/sequences_IDs/A/05_peacock.jpg,html/resources/sequences_IDs/B/02_dolphin.jpg,5,2,2,1,1,1,4,1,0,53,,,,,,,,,,,,,,,,,,,,
,,,,,53,2020-07-04_16h24.45.684,retriever_ti,2020.1.3,Win32,60,Chrome,1920,1080,,,,,,,,,,,,,,,,,1,,,,,,,,,,,,,,,,,,,,,,,,,,,720.684275,11,right,1.635625,sport_tshirt,2,7,-4,0,3,720.71805,720.71805,723.219605,0,10,10,10,1,11,6,2,gloves      ,sport_tshirt,html/resources/sequences_IDs/B/06_gloves.jpg,html/resources/sequences_IDs/B/07_sport_tshirt.jpg,6,7,3,2,3,2,5,6,0,53,,,,,,,,,,,,,,,,,,,,
,,,,,53,2020-07-04_16h24.45.684,retriever_ti,2020.1.3,Win32,60,Chrome,1920,1080,,,,,,,,,,,,,,,,,1,,,,,,,,,,,,,,,,,,,,,,,,,,,723.82046,12,left,0.82396,camel         ,3,3,-1,0,0,723.83788,723.83788,726.339445,0,11,11,11,1,12,3,4,camel         ,dolphin     ,html/resources/sequences_IDs/A/03_camel.jpg,html/resources/sequences_IDs/B/02_dolphin.jpg,3,2,1,1,1,1,2,1,0,53,,,,,,,,,,,,,,,,,,,,
,,,,,53,2020-07-04_16h24.45.684,retriever_ti,2020.1.3,Win32,60,Chrome,1920,1080,,,,,,,,,,,,,,,,,1,,,,,,,,,,,,,,,,,,,,,,,,,,,727.441125,13,left,0.92126,dolphin     ,4,2,-2,0,3,727.47487,727.47487,729.976385,0,12,12,12,1,13,4,6,dolphin     ,gloves      ,html/resources/sequences_IDs/B/02_dolphin.jpg,html/resources/sequences_IDs/B/06_gloves.jpg,2,6,1,1,3,2,1,5,0,53,,,,,,,,,,,,,,,,,,,,
,,,,,53,2020-07-04_16h24.45.684,retriever_ti,2020.1.3,Win32,60,Chrome,1920,1080,,,,,,,,,,,,,,,,,1,,,,,,,,,,,,,,,,,,,,,,,,,,,730.577675,14,left,0.88911,camel         ,3,3,1,1,1,730.611045,730.611045,733.11289,0,13,13,13,1,14,3,2,camel         ,sport_tshirt,html/resources/sequences_IDs/A/03_camel.jpg,html/resources/sequences_IDs/B/07_sport_tshirt.jpg,3,7,1,1,3,2,2,6,0,53,,,,,,,,,,,,,,,,,,,,
,,,,,53,2020-07-04_16h24.45.684,retriever_ti,2020.1.3,Win32,60,Chrome,1920,1080,,,,,,,,,,,,,,,,,1,,,,,,,,,,,,,,,,,,,,,,,,,,,734.21457,15,right,1.007965,hat           ,1,8,-5,0,3,734.248295,734.248295,736.74992,0,14,14,14,1,15,6,1,gloves      ,hat           ,html/resources/sequences_IDs/B/06_gloves.jpg,html/resources/sequences_IDs/A/08_hat.jpg,6,8,3,2,3,2,5,7,0,53,,,,,,,,,,,,,,,,,,,,
,,,,,53,2020-07-04_16h24.45.684,retriever_ti,2020.1.3,Win32,60,Chrome,1920,1080,,,,,,,,,,,,,,,,,1,,,,,,,,,,,,,,,,,,,,,,,,,,,737.35086,16,right,1.210185,camel         ,3,3,-2,0,3,737.385,737.385,739.886495,0,15,15,15,1,16,5,3,satellite_dish,camel         ,html/resources/sequences_IDs/A/10_satellite_dish.jpg,html/resources/sequences_IDs/A/03_camel.jpg,10,3,4,2,1,1,8,2,0,53,,,,,,,,,,,,,,,,,,,,
,,,,,53,2020-07-04_16h24.45.684,retriever_ti,2020.1.3,Win32,60,Chrome,1920,1080,,,,,,,,,,,,,,,,,1,,,,,,,,,,,,,,,,,,,,,,,,,,,740.48766,17,right,1.155235,dolphin     ,4,2,2,1,3,740.521105,740.521105,743.022975,0,16,16,16,1,17,2,4,sport_tshirt,dolphin     ,html/resources/sequences_IDs/B/07_sport_tshirt.jpg,html/resources/sequences_IDs/B/02_dolphin.jpg,7,2,3,2,1,1,6,1,0,53,,,,,,,,,,,,,,,,,,,,
,,,,,53,2020-07-04_16h24.45.684,retriever_ti,2020.1.3,Win32,60,Chrome,1920,1080,,,,,,,,,,,,,,,,,1,,,,,,,,,,,,,,,,,,,,,,,,,,,743.623835,18,right,0.651055,dolphin     ,4,2,-4,0,3,743.640995,743.640995,746.142805,0,17,17,17,1,18,8,4,holdfast    ,dolphin     ,html/resources/sequences_IDs/B/04_holdfast.jpg,html/resources/sequences_IDs/B/02_dolphin.jpg,4,2,2,1,1,1,3,1,0,53,,,,,,,,,,,,,,,,,,,,
,,,,,53,2020-07-04_16h24.45.684,retriever_ti,2020.1.3,Win32,60,Chrome,1920,1080,,,,,,,,,,,,,,,,,1,,,,,,,,,,,,,,,,,,,,,,,,,,,746.744785,19,right,0.79367,peacock       ,7,5,-1,0,1,746.76088,746.76088,749.26269,0,18,18,18,1,19,8,7,holdfast    ,peacock       ,html/resources/sequences_IDs/B/04_holdfast.jpg,html/resources/sequences_IDs/A/05_peacock.jpg,4,5,2,1,2,1,3,4,1,53,,,,,,,,,,,,,,,,,,,,
,,,,,53,2020-07-04_16h24.45.684,retriever_ti,2020.1.3,Win32,60,Chrome,1920,1080,,,,,,,,,,,,,,,,,1,,,,,,,,,,,,,,,,,,,,,,,,,,,750.364215,20,left,0.830715,camel         ,3,3,-5,0,3,750.39811,750.39811,752.8996,0,19,19,19,1,20,3,8,camel         ,holdfast    ,html/resources/sequences_IDs/A/03_camel.jpg,html/resources/sequences_IDs/B/04_holdfast.jpg,3,4,1,1,2,1,2,3,0,53,,,,,,,,,,,,,,,,,,,,
,,,,,53,2020-07-04_16h24.45.684,retriever_ti,2020.1.3,Win32,60,Chrome,1920,1080,,,,,,,,,,,,,,,,,1,,,,,,,,,,,,,,,,,,,,,,,,,,,753.5005,21,left,0.89329,satellite_dish,5,10,-3,0,3,753.534215,753.534215,756.03605,0,20,20,20,1,21,5,8,satellite_dish,holdfast    ,html/resources/sequences_IDs/A/10_satellite_dish.jpg,html/resources/sequences_IDs/B/04_holdfast.jpg,10,4,4,2,2,1,8,3,0,53,,,,,,,,,,,,,,,,,,,,
,,,,,53,2020-07-04_16h24.45.684,retriever_ti,2020.1.3,Win32,60,Chrome,1920,1080,,,,,,,,,,,,,,,,,1,,,,,,,,,,,,,,,,,,,,,,,,,,,756.637365,22,right,1.28166,peacock       ,7,5,2,1,3,756.67093,756.67093,759.172575,0,21,21,21,1,22,5,7,satellite_dish,peacock       ,html/resources/sequences_IDs/A/10_satellite_dish.jpg,html/resources/sequences_IDs/A/05_peacock.jpg,10,5,4,2,2,1,8,4,0,53,,,,,,,,,,,,,,,,,,,,
,,,,,53,2020-07-04_16h24.45.684,retriever_ti,2020.1.3,Win32,60,Chrome,1920,1080,,,,,,,,,,,,,,,,,1,,,,,,,,,,,,,,,,,,,,,,,,,,,759.77356,23,right,0.97568,dolphin     ,4,2,3,1,3,759.807515,759.807515,762.30917,0,22,22,22,1,23,1,4,hat           ,dolphin     ,html/resources/sequences_IDs/A/08_hat.jpg,html/resources/sequences_IDs/B/02_dolphin.jpg,8,2,3,2,1,1,7,1,0,53,,,,,,,,,,,,,,,,,,,,
,,,,,53,2020-07-04_16h24.45.684,retriever_ti,2020.1.3,Win32,60,Chrome,1920,1080,,,,,,,,,,,,,,,,,1,,,,,,,,,,,,,,,,,,,,,,,,,,,762.910345,24,right,1.56213,satellite_dish,5,10,4,1,3,762.927075,762.927075,765.42893,0,23,23,23,1,24,1,5,hat           ,satellite_dish,html/resources/sequences_IDs/A/08_hat.jpg,html/resources/sequences_IDs/A/10_satellite_dish.jpg,8,10,3,2,4,2,7,8,0,53,,,,,,,,,,,,,,,,,,,,
,,,,,53,2020-07-04_16h24.45.684,retriever_ti,2020.1.3,Win32,60,Chrome,1920,1080,,,,,,,,,,,,,,,,,1,,,,,,,,,,,,,,,,,,,,,,,,,,,766.030075,25,left,0.819595,dolphin     ,4,2,3,1,3,766.063565,766.063565,768.56545,0,24,24,24,1,25,4,1,dolphin     ,hat           ,html/resources/sequences_IDs/B/02_dolphin.jpg,html/resources/sequences_IDs/A/08_hat.jpg,2,8,1,1,3,2,1,7,0,53,,,,,,,,,,,,,,,,,,,,
,,,,,53,2020-07-04_16h24.45.684,retriever_ti,2020.1.3,Win32,60,Chrome,1920,1080,,,,,,,,,,,,,,,,,1,,,,,,,,,,,,,,,,,,,,,,,,,,,769.166395,26,left,0.757025,peacock       ,7,5,-1,0,0,769.200185,769.200185,771.701915,0,25,25,25,1,26,7,8,peacock       ,holdfast    ,html/resources/sequences_IDs/A/05_peacock.jpg,html/resources/sequences_IDs/B/04_holdfast.jpg,5,4,2,1,2,1,4,3,0,53,,,,,,,,,,,,,,,,,,,,
,,,,,53,2020-07-04_16h24.45.684,retriever_ti,2020.1.3,Win32,60,Chrome,1920,1080,,,,,,,,,,,,,,,,,1,,,,,,,,,,,,,,,,,,,,,,,,,,,772.80375,27,right,1.30301,holdfast    ,8,4,7,1,3,772.83716,772.83716,775.338975,0,26,26,26,1,27,1,8,hat           ,holdfast    ,html/resources/sequences_IDs/A/08_hat.jpg,html/resources/sequences_IDs/B/04_holdfast.jpg,8,4,3,2,2,1,7,3,0,53,,,,,,,,,,,,,,,,,,,,
,,,,,53,2020-07-04_16h24.45.684,retriever_ti,2020.1.3,Win32,60,Chrome,1920,1080,,,,,,,,,,,,,,,,,1,,,,,,,,,,,,,,,,,,,,,,,,,,,775.939875,28,left,0.942085,satellite_dish,5,10,-1,0,0,775.97381,775.97381,778.475605,0,27,27,27,1,28,5,6,satellite_dish,gloves      ,html/resources/sequences_IDs/A/10_satellite_dish.jpg,html/resources/sequences_IDs/B/06_gloves.jpg,10,6,4,2,3,2,8,5,0,53,,,,,,,,,,,,,,,,,,,,
,,,,,53,2020-07-04_16h24.45.684,retriever_ti,2020.1.3,Win32,60,Chrome,1920,1080,,,,,,,,,,,,,,,,,1,,,,,,,,,,,,,,,,,,,,,,,,,,,779.577335,29,right,1.006395,satellite_dish,5,10,-1,0,0,779.610835,779.610835,782.11256,0,28,28,28,1,29,6,5,gloves      ,satellite_dish,html/resources/sequences_IDs/B/06_gloves.jpg,html/resources/sequences_IDs/A/10_satellite_dish.jpg,6,10,3,2,4,2,5,8,0,53,,,,,,,,,,,,,,,,,,,,
,,,,,53,2020-07-04_16h24.45.684,retriever_ti,2020.1.3,Win32,60,Chrome,1920,1080,,,,,,,,,,,,,,,,,1,,,,,,,,,,,,,,,,,,,,,,,,,,,783.21415,30,left,1.451245,peacock       ,7,5,5,1,3,783.231145,783.231145,785.732795,0,29,29,29,1,30,7,2,peacock       ,sport_tshirt,html/resources/sequences_IDs/A/05_peacock.jpg,html/resources/sequences_IDs/B/07_sport_tshirt.jpg,5,7,2,1,3,2,4,6,0,53,,,,,,,,,,,,,,,,,,,,
,,,,,53,2020-07-04_16h24.45.684,retriever_ti,2020.1.3,Win32,60,Chrome,1920,1080,,,,,,,,,,,,,,,,,1,,,,,,,,,,,,,,,,,,,,,,,,,,,786.334035,31,left,1.15383,dolphin     ,4,2,-1,0,0,786.36742,786.36742,788.86931,0,30,30,30,1,31,4,5,dolphin     ,satellite_dish,html/resources/sequences_IDs/B/02_dolphin.jpg,html/resources/sequences_IDs/A/10_satellite_dish.jpg,2,10,1,1,4,2,1,8,0,53,,,,,,,,,,,,,,,,,,,,
,,,,,53,2020-07-04_16h24.45.684,retriever_ti,2020.1.3,Win32,60,Chrome,1920,1080,,,,,,,,,,,,,,,,,1,,,,,,,,,,,,,,,,,,,,,,,,,,,789.970765,32,NaN,NaN,No_response,NaN,NaN,NaN,2,2,789.987805,789.987805,792.48972,0,31,31,31,1,32,3,4,camel         ,dolphin     ,html/resources/sequences_IDs/A/03_camel.jpg,html/resources/sequences_IDs/B/02_dolphin.jpg,3,2,1,1,1,1,2,1,0,53,,,,,,,,,,,,,,,,,,,,
,,,,,53,2020-07-04_16h24.45.684,retriever_ti,2020.1.3,Win32,60,Chrome,1920,1080,,,,,,,,,,,,,,,,,1,,,,,,,,,,,,,,,,,,,,,,,,,,,793.59134,33,right,0.929945,dolphin     ,4,2,-1,0,0,793.625115,793.625115,796.126685,0,32,32,32,1,33,5,4,satellite_dish,dolphin     ,html/resources/sequences_IDs/A/10_satellite_dish.jpg,html/resources/sequences_IDs/B/02_dolphin.jpg,10,2,4,2,1,1,8,1,0,53,,,,,,,,,,,,,,,,,,,,
,,,,,53,2020-07-04_16h24.45.684,retriever_ti,2020.1.3,Win32,60,Chrome,1920,1080,,,,,,,,,,,,,,,,,1,,,,,,,,,,,,,,,,,,,,,,,,,,,797.22847,34,right,1.059605,hat           ,1,8,-1,0,0,797.262255,797.262255,799.76364,0,33,33,33,1,34,2,1,sport_tshirt,hat           ,html/resources/sequences_IDs/B/07_sport_tshirt.jpg,html/resources/sequences_IDs/A/08_hat.jpg,7,8,3,2,3,2,6,7,0,53,,,,,,,,,,,,,,,,,,,,
,,,,,53,2020-07-04_16h24.45.684,retriever_ti,2020.1.3,Win32,60,Chrome,1920,1080,,,,,,,,,,,,,,,,,1,,,,,,,,,,,,,,,,,,,,,,,,,,,800.865445,35,right,0.704585,sport_tshirt,2,7,-6,0,3,800.89912,800.89912,803.40062,0,34,34,34,1,35,8,2,holdfast    ,sport_tshirt,html/resources/sequences_IDs/B/04_holdfast.jpg,html/resources/sequences_IDs/B/07_sport_tshirt.jpg,4,7,2,1,3,2,3,6,0,53,,,,,,,,,,,,,,,,,,,,
,,,,,53,2020-07-04_16h24.45.684,retriever_ti,2020.1.3,Win32,60,Chrome,1920,1080,,,,,,,,,,,,,,,,,1,,,,,,,,,,,,,,,,,,,,,,,,,,,804.001545,36,left,0.75409,gloves      ,6,6,1,1,0,804.01896,804.01896,806.5205,0,35,35,35,1,36,6,5,gloves      ,satellite_dish,html/resources/sequences_IDs/B/06_gloves.jpg,html/resources/sequences_IDs/A/10_satellite_dish.jpg,6,10,3,2,4,2,5,8,1,53,,,,,,,,,,,,,,,,,,,,
,,,,,53,2020-07-04_16h24.45.684,retriever_ti,2020.1.3,Win32,60,Chrome,1920,1080,,,,,,,,,,,,,,,,,1,,,,,,,,,,,,,,,,,,,,,,,,,,,807.622255,37,left,0.8445,sport_tshirt,2,7,-4,0,3,807.63906,807.63906,810.140865,0,36,36,36,1,37,2,6,sport_tshirt,gloves      ,html/resources/sequences_IDs/B/07_sport_tshirt.jpg,html/resources/sequences_IDs/B/06_gloves.jpg,7,6,3,2,3,2,6,5,0,53,,,,,,,,,,,,,,,,,,,,
,,,,,53,2020-07-04_16h24.45.684,retriever_ti,2020.1.3,Win32,60,Chrome,1920,1080,,,,,,,,,,,,,,,,,1,,,,,,,,,,,,,,,,,,,,,,,,,,,810.74206,38,right,0.970855,gloves      ,6,6,-1,0,0,810.759105,810.759105,813.26059,0,37,37,37,1,38,7,6,peacock       ,gloves      ,html/resources/sequences_IDs/A/05_peacock.jpg,html/resources/sequences_IDs/B/06_gloves.jpg,5,6,2,1,3,2,4,5,0,53,,,,,,,,,,,,,,,,,,,,
,,,,,53,2020-07-04_16h24.45.684,retriever_ti,2020.1.3,Win32,60,Chrome,1920,1080,,,,,,,,,,,,,,,,,1,,,,,,,,,,,,,,,,,,,,,,,,,,,814.362365,39,left,1.086855,camel         ,3,3,2,1,3,814.39627,814.39627,816.89769,0,38,38,38,1,39,3,1,camel         ,hat           ,html/resources/sequences_IDs/A/03_camel.jpg,html/resources/sequences_IDs/A/08_hat.jpg,3,8,1,1,3,2,2,7,0,53,,,,,,,,,,,,,,,,,,,,
,,,,,53,2020-07-04_16h24.45.684,retriever_ti,2020.1.3,Win32,60,Chrome,1920,1080,,,,,,,,,,,,,,,,,1,,,,,,,,,,,,,,,,,,,,,,,,,,,817.49856,40,left,0.912575,holdfast    ,8,4,1,1,1,817.51595,817.51595,820.01745,0,39,39,39,1,40,8,7,holdfast    ,peacock       ,html/resources/sequences_IDs/B/04_holdfast.jpg,html/resources/sequences_IDs/A/05_peacock.jpg,4,5,2,1,2,1,3,4,0,53,,,,,,,,,,,,,,,,,,,,
,,,,,53,2020-07-04_16h24.45.684,retriever_ti,2020.1.3,Win32,60,Chrome,1920,1080,,,,,,,,,,,,,,,,,1,,,,,,,,,,,,,,,,,,,,,,,,,,,821.119255,41,left,0.74433,sport_tshirt,2,7,-1,0,0,821.136375,821.136375,823.63776,0,40,40,40,1,41,2,3,sport_tshirt,camel         ,html/resources/sequences_IDs/B/07_sport_tshirt.jpg,html/resources/sequences_IDs/A/03_camel.jpg,7,3,3,2,1,1,6,2,0,53,,,,,,,,,,,,,,,,,,,,
,,,,,53,2020-07-04_16h24.45.684,retriever_ti,2020.1.3,Win32,60,Chrome,1920,1080,,,,,,,,,,,,,,,,,1,,,,,,,,,,,,,,,,,,,,,,,,,,,824.739565,42,left,1.09271,dolphin     ,4,2,-3,0,3,824.756235,824.756235,827.25827,0,41,41,41,1,42,4,7,dolphin     ,peacock       ,html/resources/sequences_IDs/B/02_dolphin.jpg,html/resources/sequences_IDs/A/05_peacock.jpg,2,5,1,1,2,1,1,4,0,53,,,,,,,,,,,,,,,,,,,,
,,,,,53,2020-07-04_16h24.45.684,retriever_ti,2020.1.3,Win32,60,Chrome,1920,1080,,,,,,,,,,,,,,,,,1,,,,,,,,,,,,,,,,,,,,,,,,,,,827.859165,43,right,1.031755,peacock       ,7,5,1,1,1,827.893125,827.893125,830.39471,0,42,42,42,1,43,6,7,gloves      ,peacock       ,html/resources/sequences_IDs/B/06_gloves.jpg,html/resources/sequences_IDs/A/05_peacock.jpg,6,5,3,2,2,1,5,4,0,53,,,,,,,,,,,,,,,,,,,,
,,,,,53,2020-07-04_16h24.45.684,retriever_ti,2020.1.3,Win32,60,Chrome,1920,1080,,,,,,,,,,,,,,,,,1,,,,,,,,,,,,,,,,,,,,,,,,,,,831.49644,44,right,0.529445,sport_tshirt,2,7,-1,0,1,831.52999,831.52999,834.0316,0,43,43,43,1,44,3,2,camel         ,sport_tshirt,html/resources/sequences_IDs/A/03_camel.jpg,html/resources/sequences_IDs/B/07_sport_tshirt.jpg,3,7,1,1,3,2,2,6,1,53,,,,,,,,,,,,,,,,,,,,
,,,,,53,2020-07-04_16h24.45.684,retriever_ti,2020.1.3,Win32,60,Chrome,1920,1080,,,,,,,,,,,,,,,,,1,,,,,,,,,,,,,,,,,,,,,,,,,,,835.133335,45,left,0.49229,holdfast    ,8,4,7,1,3,835.166885,835.166885,837.66865,0,44,44,44,1,45,8,1,holdfast    ,hat           ,html/resources/sequences_IDs/B/04_holdfast.jpg,html/resources/sequences_IDs/A/08_hat.jpg,4,8,2,1,3,2,3,7,0,53,,,,,,,,,,,,,,,,,,,,
,,,,,53,2020-07-04_16h24.45.684,retriever_ti,2020.1.3,Win32,60,Chrome,1920,1080,,,,,,,,,,,,,,,,,1,,,,,,,,,,,,,,,,,,,,,,,,,,,838.269845,46,right,0.88592,sport_tshirt,2,7,1,1,1,838.28697,838.28697,840.78844,0,45,45,45,1,46,1,2,hat           ,sport_tshirt,html/resources/sequences_IDs/A/08_hat.jpg,html/resources/sequences_IDs/B/07_sport_tshirt.jpg,8,7,3,2,3,2,7,6,0,53,,,,,,,,,,,,,,,,,,,,
,,,,,53,2020-07-04_16h24.45.684,retriever_ti,2020.1.3,Win32,60,Chrome,1920,1080,,,,,,,,,,,,,,,,,1,,,,,,,,,,,,,,,,,,,,,,,,,,,841.88982,47,left,0.61861,sport_tshirt,2,7,1,1,1,841.90692,841.90692,844.408775,0,46,46,46,1,47,2,1,sport_tshirt,hat           ,html/resources/sequences_IDs/B/07_sport_tshirt.jpg,html/resources/sequences_IDs/A/08_hat.jpg,7,8,3,2,3,2,6,7,0,53,,,,,,,,,,,,,,,,,,,,
,,,,,53,2020-07-04_16h24.45.684,retriever_ti,2020.1.3,Win32,60,Chrome,1920,1080,,,,,,,,,,,,,,,,,1,,,,,,,,,,,,,,,,,,,,,,,,,,,845.5105,48,right,1.395415,hat           ,1,8,-6,0,3,845.52796,845.52796,848.029155,0,47,47,47,1,48,7,1,peacock       ,hat           ,html/resources/sequences_IDs/A/05_peacock.jpg,html/resources/sequences_IDs/A/08_hat.jpg,5,8,2,1,3,2,4,7,0,53,,,,,,,,,,,,,,,,,,,,
,,,,,53,2020-07-04_16h24.45.684,retriever_ti,2020.1.3,Win32,60,Chrome,1920,1080,,,,,,,,,,,,,,,,,1,,,,,,,,,,,,,,,,,,,,,,,,,,,848.630455,49,left,0.80295,sport_tshirt,2,7,-3,0,3,848.664035,848.664035,851.165645,0,48,48,48,1,49,2,5,sport_tshirt,satellite_dish,html/resources/sequences_IDs/B/07_sport_tshirt.jpg,html/resources/sequences_IDs/A/10_satellite_dish.jpg,7,10,3,2,4,2,6,8,0,53,,,,,,,,,,,,,,,,,,,,
,,,,,53,2020-07-04_16h24.45.684,retriever_ti,2020.1.3,Win32,60,Chrome,1920,1080,,,,,,,,,,,,,,,,,1,,,,,,,,,,,,,,,,,,,,,,,,,,,851.76655,50,right,0.939165,gloves      ,6,6,5,1,3,851.78384,851.78384,854.285425,0,49,49,49,1,50,1,6,hat           ,gloves      ,html/resources/sequences_IDs/A/08_hat.jpg,html/resources/sequences_IDs/B/06_gloves.jpg,8,6,3,2,3,2,7,5,0,53,,,,,,,,,,,,,,,,,,,,
,,,,,53,2020-07-04_16h24.45.684,retriever_ti,2020.1.3,Win32,60,Chrome,1920,1080,,,,,,,,,,,,,,,,,1,,,,,,,,,,,,,,,,,,,,,,,,,,,854.886795,51,right,0.548195,sport_tshirt,2,7,1,1,1,854.90365,854.90365,857.405275,0,50,50,50,1,51,1,2,hat           ,sport_tshirt,html/resources/sequences_IDs/A/08_hat.jpg,html/resources/sequences_IDs/B/07_sport_tshirt.jpg,8,7,3,2,3,2,7,6,0,53,,,,,,,,,,,,,,,,,,,,
,,,,,53,2020-07-04_16h24.45.684,retriever_ti,2020.1.3,Win32,60,Chrome,1920,1080,,,,,,,,,,,,,,,,,1,,,,,,,,,,,,,,,,,,,,,,,,,,,858.507,52,left,1.23223,hat           ,1,8,-6,0,3,858.523805,858.523805,861.025665,0,51,51,51,1,52,1,7,hat           ,peacock       ,html/resources/sequences_IDs/A/08_hat.jpg,html/resources/sequences_IDs/A/05_peacock.jpg,8,5,3,2,2,1,7,4,0,53,,,,,,,,,,,,,,,,,,,,
,,,,,53,2020-07-04_16h24.45.684,retriever_ti,2020.1.3,Win32,60,Chrome,1920,1080,,,,,,,,,,,,,,,,,1,,,,,,,,,,,,,,,,,,,,,,,,,,,861.62647,53,right,0.5051,sport_tshirt,2,7,-1,0,0,861.6438,861.6438,864.145455,0,52,52,52,1,53,3,2,camel         ,sport_tshirt,html/resources/sequences_IDs/A/03_camel.jpg,html/resources/sequences_IDs/B/07_sport_tshirt.jpg,3,7,1,1,3,2,2,6,0,53,,,,,,,,,,,,,,,,,,,,
,,,,,53,2020-07-04_16h24.45.684,retriever_ti,2020.1.3,Win32,60,Chrome,1920,1080,,,,,,,,,,,,,,,,,1,,,,,,,,,,,,,,,,,,,,,,,,,,,865.24713,54,left,1.075125,gloves      ,6,6,-1,0,0,865.263985,865.263985,867.76576,0,53,53,53,1,54,6,7,gloves      ,peacock       ,html/resources/sequences_IDs/B/06_gloves.jpg,html/resources/sequences_IDs/A/05_peacock.jpg,6,5,3,2,2,1,5,4,0,53,,,,,,,,,,,,,,,,,,,,
,,,,,53,2020-07-04_16h24.45.684,retriever_ti,2020.1.3,Win32,60,Chrome,1920,1080,,,,,,,,,,,,,,,,,1,,,,,,,,,,,,,,,,,,,,,,,,,,,868.86758,55,right,1.20704,satellite_dish,5,10,-1,0,0,868.90125,868.90125,871.402735,0,54,54,54,1,55,6,5,gloves      ,satellite_dish,html/resources/sequences_IDs/B/06_gloves.jpg,html/resources/sequences_IDs/A/10_satellite_dish.jpg,6,10,3,2,4,2,5,8,0,53,,,,,,,,,,,,,,,,,,,,
,,,,,53,2020-07-04_16h24.45.684,retriever_ti,2020.1.3,Win32,60,Chrome,1920,1080,,,,,,,,,,,,,,,,,1,,,,,,,,,,,,,,,,,,,,,,,,,,,872.504545,56,right,0.85711,camel         ,3,3,-1,0,1,872.52148,872.52148,875.02325,0,55,55,55,1,56,4,3,dolphin     ,camel         ,html/resources/sequences_IDs/B/02_dolphin.jpg,html/resources/sequences_IDs/A/03_camel.jpg,2,3,1,1,1,1,1,2,1,53,,,,,,,,,,,,,,,,,,,,
,,,,,53,2020-07-04_16h24.45.684,retriever_ti,2020.1.3,Win32,60,Chrome,1920,1080,,,,,,,,,,,,,,,,,1,,,,,,,,,,,,,,,,,,,,,,,,,,,876.12475,57,right,0.925045,sport_tshirt,2,7,-3,0,3,876.15849,876.15849,878.66019,0,56,56,56,1,57,5,2,satellite_dish,sport_tshirt,html/resources/sequences_IDs/A/10_satellite_dish.jpg,html/resources/sequences_IDs/B/07_sport_tshirt.jpg,10,7,4,2,3,2,8,6,0,53,,,,,,,,,,,,,,,,,,,,
,,,,,53,2020-07-04_16h24.45.684,retriever_ti,2020.1.3,Win32,60,Chrome,1920,1080,,,,,,,,,,,,,,,,,1,,,,,,,,,,,,,,,,,,,,,,,,,,,879.26128,58,left,0.68335,gloves      ,6,6,3,1,3,879.294795,879.294795,881.796605,0,57,57,57,1,58,6,3,gloves      ,camel         ,html/resources/sequences_IDs/B/06_gloves.jpg,html/resources/sequences_IDs/A/03_camel.jpg,6,3,3,2,1,1,5,2,0,53,,,,,,,,,,,,,,,,,,,,
,,,,,53,2020-07-04_16h24.45.684,retriever_ti,2020.1.3,Win32,60,Chrome,1920,1080,,,,,,,,,,,,,,,,,1,,,,,,,,,,,,,,,,,,,,,,,,,,,882.39793,59,left,0.84347,satellite_dish,5,10,4,1,3,882.414865,882.414865,884.91646,0,58,58,58,1,59,5,1,satellite_dish,hat           ,html/resources/sequences_IDs/A/10_satellite_dish.jpg,html/resources/sequences_IDs/A/08_hat.jpg,10,8,4,2,3,2,8,7,0,53,,,,,,,,,,,,,,,,,,,,
,,,,,53,2020-07-04_16h24.45.684,retriever_ti,2020.1.3,Win32,60,Chrome,1920,1080,,,,,,,,,,,,,,,,,1,,,,,,,,,,,,,,,,,,,,,,,,,,,885.51768,60,right,0.67915,sport_tshirt,2,7,-2,0,3,885.534805,885.534805,888.03631,0,59,59,59,1,60,4,2,dolphin     ,sport_tshirt,html/resources/sequences_IDs/B/02_dolphin.jpg,html/resources/sequences_IDs/B/07_sport_tshirt.jpg,2,7,1,1,3,2,1,6,0,53,,,,,,,,,,,,,,,,,,,,
,,,,,53,2020-07-04_16h24.45.684,retriever_ti,2020.1.3,Win32,60,Chrome,1920,1080,,,,,,,,,,,,,,,,,1,,,,,,,,,,,,,,,,,,,,,,,,,,,888.63749,61,left,0.75667,gloves      ,6,6,-2,0,3,888.67095,888.67095,891.17276,0,60,60,60,1,61,6,8,gloves      ,holdfast    ,html/resources/sequences_IDs/B/06_gloves.jpg,html/resources/sequences_IDs/B/04_holdfast.jpg,6,4,3,2,2,1,5,3,0,53,,,,,,,,,,,,,,,,,,,,
,,,,,53,2020-07-04_16h24.45.684,retriever_ti,2020.1.3,Win32,60,Chrome,1920,1080,,,,,,,,,,,,,,,,,1,,,,,,,,,,,,,,,,,,,,,,,,,,,891.77362,62,right,0.810375,peacock       ,7,5,-1,0,0,891.80772,891.80772,894.309235,0,61,61,61,1,62,8,7,holdfast    ,peacock       ,html/resources/sequences_IDs/B/04_holdfast.jpg,html/resources/sequences_IDs/A/05_peacock.jpg,4,5,2,1,2,1,3,4,0,53,,,,,,,,,,,,,,,,,,,,
,,,,,53,2020-07-04_16h24.45.684,retriever_ti,2020.1.3,Win32,60,Chrome,1920,1080,,,,,,,,,,,,,,,,,1,,,,,,,,,,,,,,,,,,,,,,,,,,,895.41106,63,right,1.2523,gloves      ,6,6,1,1,1,895.44484,895.44484,897.94666,0,62,62,62,1,63,5,6,satellite_dish,gloves      ,html/resources/sequences_IDs/A/10_satellite_dish.jpg,html/resources/sequences_IDs/B/06_gloves.jpg,10,6,4,2,3,2,8,5,0,53,,,,,,,,,,,,,,,,,,,,
,,,,,53,2020-07-04_16h24.45.684,retriever_ti,2020.1.3,Win32,60,Chrome,1920,1080,,,,,,,,,,,,,,,,,1,,,,,,,,,,,,,,,,,,,,,,,,,,,899.04804,64,left,0.74873,dolphin     ,4,2,1,1,1,899.066265,899.066265,901.56661,0,63,63,63,1,64,4,3,dolphin     ,camel         ,html/resources/sequences_IDs/B/02_dolphin.jpg,html/resources/sequences_IDs/A/03_camel.jpg,2,3,1,1,1,1,1,2,0,53,,,,,,,,,,,,,,,,,,,,
,,,,,53,2020-07-04_16h24.45.684,retriever_ti,2020.1.3,Win32,60,Chrome,1920,1080,,,,,,,,,,,,,,,,,1,,,,,,,,,,,,,,,,,,,,,,,,,,,902.668315,65,right,1.20626,peacock       ,7,5,4,1,3,902.685095,902.685095,905.186895,0,64,64,64,1,65,3,7,camel         ,peacock       ,html/resources/sequences_IDs/A/03_camel.jpg,html/resources/sequences_IDs/A/05_peacock.jpg,3,5,1,1,2,1,2,4,0,53,,,,,,,,,,,,,,,,,,,,
,,,,,53,2020-07-04_16h24.45.684,retriever_ti,2020.1.3,Win32,60,Chrome,1920,1080,,,,,,,,,,,,,,,,,1,,,,,,,,,,,,,,,,,,,,,,,,,,,905.78822,66,right,0.61923,camel         ,3,3,2,1,3,905.82163,905.82163,908.323405,0,65,65,65,1,66,1,3,hat           ,camel         ,html/resources/sequences_IDs/A/08_hat.jpg,html/resources/sequences_IDs/A/03_camel.jpg,8,3,3,2,1,1,7,2,0,53,,,,,,,,,,,,,,,,,,,,
,,,,,53,2020-07-04_16h24.45.684,retriever_ti,2020.1.3,Win32,60,Chrome,1920,1080,,,,,,,,,,,,,,,,,1,,,,,,,,,,,,,,,,,,,,,,,,,,,908.924675,67,right,0.990615,satellite_dish,5,10,1,1,1,908.94168,908.94168,911.443275,0,66,66,66,1,67,4,5,dolphin     ,satellite_dish,html/resources/sequences_IDs/B/02_dolphin.jpg,html/resources/sequences_IDs/A/10_satellite_dish.jpg,2,10,1,1,4,2,1,8,0,53,,,,,,,,,,,,,,,,,,,,
,,,,,53,2020-07-04_16h24.45.684,retriever_ti,2020.1.3,Win32,60,Chrome,1920,1080,,,,,,,,,,,,,,,,,1,,,,,,,,,,,,,,,,,,,,,,,,,,,912.54502,68,right,1.39306,holdfast    ,8,4,1,1,1,912.56248,912.56248,915.063615,0,67,67,67,1,68,7,8,peacock       ,holdfast    ,html/resources/sequences_IDs/A/05_peacock.jpg,html/resources/sequences_IDs/B/04_holdfast.jpg,5,4,2,1,2,1,4,3,0,53,,,,,,,,,,,,,,,,,,,,
,,,,,53,2020-07-04_16h24.45.684,retriever_ti,2020.1.3,Win32,60,Chrome,1920,1080,,,,,,,,,,,,,,,,,1,,,,,,,,,,,,,,,,,,,,,,,,,,,916.165375,69,left,1.260645,peacock       ,7,5,2,1,3,916.19914,916.19914,918.70057,0,68,68,68,1,69,7,5,peacock       ,satellite_dish,html/resources/sequences_IDs/A/05_peacock.jpg,html/resources/sequences_IDs/A/10_satellite_dish.jpg,5,10,2,1,4,2,4,8,0,53,,,,,,,,,,,,,,,,,,,,
,,,,,53,2020-07-04_16h24.45.684,retriever_ti,2020.1.3,Win32,60,Chrome,1920,1080,,,,,,,,,,,,,,,,,1,,,,,,,,,,,,,,,,,,,,,,,,,,,919.30159,70,right,0.948115,gloves      ,6,6,-2,0,3,919.335415,919.335415,921.83713,0,69,69,69,1,70,8,6,holdfast    ,gloves      ,html/resources/sequences_IDs/B/04_holdfast.jpg,html/resources/sequences_IDs/B/06_gloves.jpg,4,6,2,1,3,2,3,5,0,53,,,,,,,,,,,,,,,,,,,,
,,,,,53,2020-07-04_16h24.45.684,retriever_ti,2020.1.3,Win32,60,Chrome,1920,1080,,,,,,,,,,,,,,,,,1,,,,,,,,,,,,,,,,,,,,,,,,,,,922.43833,71,left,2.00195,sport_tshirt,2,7,1,1,0,922.455185,922.455185,924.957005,0,70,70,70,1,71,2,1,sport_tshirt,hat           ,html/resources/sequences_IDs/B/07_sport_tshirt.jpg,html/resources/sequences_IDs/A/08_hat.jpg,7,8,3,2,3,2,6,7,1,53,,,,,,,,,,,,,,,,,,,,
,,,,,53,2020-07-04_16h24.45.684,retriever_ti,2020.1.3,Win32,60,Chrome,1920,1080,,,,,,,,,,,,,,,,,1,,,,,,,,,,,,,,,,,,,,,,,,,,,926.05835,72,right,0.83241,gloves      ,6,6,-1,0,1,926.09259,926.09259,928.593935,0,71,71,71,1,72,7,6,peacock       ,gloves      ,html/resources/sequences_IDs/A/05_peacock.jpg,html/resources/sequences_IDs/B/06_gloves.jpg,5,6,2,1,3,2,4,5,1,53,,,,,,,,,,,,,,,,,,,,
,,,,,53,2020-07-04_16h24.45.684,retriever_ti,2020.1.3,Win32,60,Chrome,1920,1080,,,,,,,,,,,,,,,,,1,,,,,,,,,,,,,,,,,,,,,,,,,,,929.6957,73,right,0.980145,gloves      ,6,6,3,1,3,929.71284,929.71284,932.214335,0,72,72,72,1,73,3,6,camel         ,gloves      ,html/resources/sequences_IDs/A/03_camel.jpg,html/resources/sequences_IDs/B/06_gloves.jpg,3,6,1,1,3,2,2,5,0,53,,,,,,,,,,,,,,,,,,,,
,,,,,53,2020-07-04_16h24.45.684,retriever_ti,2020.1.3,Win32,60,Chrome,1920,1080,,,,,,,,,,,,,,,,,1,,,,,,,,,,,,,,,,,,,,,,,,,,,932.81553,74,left,0.88958,sport_tshirt,2,7,-6,0,3,932.83249,932.83249,935.33414,0,73,73,73,1,74,2,8,sport_tshirt,holdfast    ,html/resources/sequences_IDs/B/07_sport_tshirt.jpg,html/resources/sequences_IDs/B/04_holdfast.jpg,7,4,3,2,2,1,6,3,0,53,,,,,,,,,,,,,,,,,,,,
,,,,,53,2020-07-04_16h24.45.684,retriever_ti,2020.1.3,Win32,60,Chrome,1920,1080,,,,,,,,,,,,,,,,,1,,,,,,,,,,,,,,,,,,,,,,,,,,,935.935105,75,left,0.452275,dolphin     ,4,2,1,1,1,935.968955,935.968955,938.47065,0,74,74,74,1,75,4,3,dolphin     ,camel         ,html/resources/sequences_IDs/B/02_dolphin.jpg,html/resources/sequences_IDs/A/03_camel.jpg,2,3,1,1,1,1,1,2,0,53,,,,,,,,,,,,,,,,,,,,
,,,,,53,2020-07-04_16h24.45.684,retriever_ti,2020.1.3,Win32,60,Chrome,1920,1080,,,,,,,,,,,,,,,,,1,,,,,,,,,,,,,,,,,,,,,,,,,,,939.57243,76,left,0.70173,sport_tshirt,2,7,-1,0,0,939.58946,939.58946,942.090975,0,75,75,75,1,76,2,3,sport_tshirt,camel         ,html/resources/sequences_IDs/B/07_sport_tshirt.jpg,html/resources/sequences_IDs/A/03_camel.jpg,7,3,3,2,1,1,6,2,0,53,,,,,,,,,,,,,,,,,,,,
,,,,,53,2020-07-04_16h24.45.684,retriever_ti,2020.1.3,Win32,60,Chrome,1920,1080,,,,,,,,,,,,,,,,,1,,,,,,,,,,,,,,,,,,,,,,,,,,,943.19285,77,left,0.98466,satellite_dish,5,10,1,1,1,943.22648,943.22648,945.72803,0,76,76,76,1,77,5,4,satellite_dish,dolphin     ,html/resources/sequences_IDs/A/10_satellite_dish.jpg,html/resources/sequences_IDs/B/02_dolphin.jpg,10,2,4,2,1,1,8,1,0,53,,,,,,,,,,,,,,,,,,,,
,,,,,53,2020-07-04_16h24.45.684,retriever_ti,2020.1.3,Win32,60,Chrome,1920,1080,,,,,,,,,,,,,,,,,,,,,,,,,,,,,,,,,,,,,0,3.636895,,,,,,,,,,,,,,,,,,,,,,,,,,,,,,,,,,,,,,,,,0,0,0,0,1,,,,,,,,,,,,,,,
,,,,,53,2020-07-04_16h24.45.684,retriever_ti,2020.1.3,Win32,60,Chrome,1920,1080,,,,,,,,,,,,,,,,,2,,,,,,,,,,,,,,,,,,,,,,,,,,,963.49849,78,left,0.87819,sport_tshirt,2,7,-1,0,0,963.513625,963.513625,966.015235,0,0,0,0,1,78,2,3,sport_tshirt,camel         ,html/resources/sequences_IDs/B/07_sport_tshirt.jpg,html/resources/sequences_IDs/A/03_camel.jpg,7,3,3,2,1,1,6,2,0,53,,,,,,,,,,,,,,,,,,,,
,,,,,53,2020-07-04_16h24.45.684,retriever_ti,2020.1.3,Win32,60,Chrome,1920,1080,,,,,,,,,,,,,,,,,2,,,,,,,,,,,,,,,,,,,,,,,,,,,967.11661,79,left,0.965155,camel         ,3,3,-5,0,3,967.13375,967.13375,969.63542,0,1,1,1,1,79,3,8,camel         ,holdfast    ,html/resources/sequences_IDs/A/03_camel.jpg,html/resources/sequences_IDs/B/04_holdfast.jpg,3,4,1,1,2,1,2,3,0,53,,,,,,,,,,,,,,,,,,,,
,,,,,53,2020-07-04_16h24.45.684,retriever_ti,2020.1.3,Win32,60,Chrome,1920,1080,,,,,,,,,,,,,,,,,2,,,,,,,,,,,,,,,,,,,,,,,,,,,970.236635,80,left,1.221385,camel         ,3,3,2,1,3,970.25352,970.25352,972.755265,0,2,2,2,1,80,3,1,camel         ,hat           ,html/resources/sequences_IDs/A/03_camel.jpg,html/resources/sequences_IDs/A/08_hat.jpg,3,8,1,1,3,2,2,7,0,53,,,,,,,,,,,,,,,,,,,,
,,,,,53,2020-07-04_16h24.45.684,retriever_ti,2020.1.3,Win32,60,Chrome,1920,1080,,,,,,,,,,,,,,,,,2,,,,,,,,,,,,,,,,,,,,,,,,,,,973.356195,81,right,1.52219,camel         ,3,3,-4,0,3,973.373445,973.373445,975.875095,0,3,3,3,1,81,7,3,peacock       ,camel         ,html/resources/sequences_IDs/A/05_peacock.jpg,html/resources/sequences_IDs/A/03_camel.jpg,5,3,2,1,1,1,4,2,0,53,,,,,,,,,,,,,,,,,,,,
,,,,,53,2020-07-04_16h24.45.684,retriever_ti,2020.1.3,Win32,60,Chrome,1920,1080,,,,,,,,,,,,,,,,,2,,,,,,,,,,,,,,,,,,,,,,,,,,,976.47651,82,left,0.806015,dolphin     ,4,2,-3,0,3,976.493705,976.493705,978.99502,0,4,4,4,1,82,4,7,dolphin     ,peacock       ,html/resources/sequences_IDs/B/02_dolphin.jpg,html/resources/sequences_IDs/A/05_peacock.jpg,2,5,1,1,2,1,1,4,0,53,,,,,,,,,,,,,,,,,,,,
,,,,,53,2020-07-04_16h24.45.684,retriever_ti,2020.1.3,Win32,60,Chrome,1920,1080,,,,,,,,,,,,,,,,,2,,,,,,,,,,,,,,,,,,,,,,,,,,,979.596195,83,left,0.38352,dolphin     ,4,2,-4,0,3,979.61292,979.61292,982.11476,0,5,5,5,1,83,4,8,dolphin     ,holdfast    ,html/resources/sequences_IDs/B/02_dolphin.jpg,html/resources/sequences_IDs/B/04_holdfast.jpg,2,4,1,1,2,1,1,3,0,53,,,,,,,,,,,,,,,,,,,,
,,,,,53,2020-07-04_16h24.45.684,retriever_ti,2020.1.3,Win32,60,Chrome,1920,1080,,,,,,,,,,,,,,,,,2,,,,,,,,,,,,,,,,,,,,,,,,,,,982.715635,84,right,0.766205,gloves      ,6,6,-1,0,0,982.749875,982.749875,985.251325,0,6,6,6,1,84,7,6,peacock       ,gloves      ,html/resources/sequences_IDs/A/05_peacock.jpg,html/resources/sequences_IDs/B/06_gloves.jpg,5,6,2,1,3,2,4,5,0,53,,,,,,,,,,,,,,,,,,,,
,,,,,53,2020-07-04_16h24.45.684,retriever_ti,2020.1.3,Win32,60,Chrome,1920,1080,,,,,,,,,,,,,,,,,2,,,,,,,,,,,,,,,,,,,,,,,,,,,986.353005,85,left,0.89746,holdfast    ,8,4,6,1,3,986.36972,986.36972,988.871565,0,7,7,7,1,85,8,2,holdfast    ,sport_tshirt,html/resources/sequences_IDs/B/04_holdfast.jpg,html/resources/sequences_IDs/B/07_sport_tshirt.jpg,4,7,2,1,3,2,3,6,0,53,,,,,,,,,,,,,,,,,,,,
,,,,,53,2020-07-04_16h24.45.684,retriever_ti,2020.1.3,Win32,60,Chrome,1920,1080,,,,,,,,,,,,,,,,,2,,,,,,,,,,,,,,,,,,,,,,,,,,,989.472595,86,right,0.481555,camel         ,3,3,1,1,1,989.48958,989.48958,991.99138,0,8,8,8,1,86,2,3,sport_tshirt,camel         ,html/resources/sequences_IDs/B/07_sport_tshirt.jpg,html/resources/sequences_IDs/A/03_camel.jpg,7,3,3,2,1,1,6,2,0,53,,,,,,,,,,,,,,,,,,,,
,,,,,53,2020-07-04_16h24.45.684,retriever_ti,2020.1.3,Win32,60,Chrome,1920,1080,,,,,,,,,,,,,,,,,2,,,,,,,,,,,,,,,,,,,,,,,,,,,993.09311,87,right,0.438685,camel         ,3,3,-1,0,0,993.109875,993.109875,995.61252,0,9,9,9,1,87,4,3,dolphin     ,camel         ,html/resources/sequences_IDs/B/02_dolphin.jpg,html/resources/sequences_IDs/A/03_camel.jpg,2,3,1,1,1,1,1,2,0,53,,,,,,,,,,,,,,,,,,,,
,,,,,53,2020-07-04_16h24.45.684,retriever_ti,2020.1.3,Win32,60,Chrome,1920,1080,,,,,,,,,,,,,,,,,2,,,,,,,,,,,,,,,,,,,,,,,,,,,996.71354,88,right,0.591,camel         ,3,3,2,1,3,996.74697,996.74697,999.24877,0,10,10,10,1,88,1,3,hat           ,camel         ,html/resources/sequences_IDs/A/08_hat.jpg,html/resources/sequences_IDs/A/03_camel.jpg,8,3,3,2,1,1,7,2,0,53,,,,,,,,,,,,,,,,,,,,
,,,,,53,2020-07-04_16h24.45.684,retriever_ti,2020.1.3,Win32,60,Chrome,1920,1080,,,,,,,,,,,,,,,,,2,,,,,,,,,,,,,,,,,,,,,,,,,,,999.849915,89,left,0.83997,gloves      ,6,6,5,1,3,999.883625,999.883625,1002.385255,0,11,11,11,1,89,6,1,gloves      ,hat           ,html/resources/sequences_IDs/B/06_gloves.jpg,html/resources/sequences_IDs/A/08_hat.jpg,6,8,3,2,3,2,5,7,0,53,,,,,,,,,,,,,,,,,,,,
,,,,,53,2020-07-04_16h24.45.684,retriever_ti,2020.1.3,Win32,60,Chrome,1920,1080,,,,,,,,,,,,,,,,,2,,,,,,,,,,,,,,,,,,,,,,,,,,,1002.98616,90,left,0.60071,dolphin     ,4,2,-1,0,0,1003.01986,1003.01986,1005.521865,0,12,12,12,1,90,4,5,dolphin     ,satellite_dish,html/resources/sequences_IDs/B/02_dolphin.jpg,html/resources/sequences_IDs/A/10_satellite_dish.jpg,2,10,1,1,4,2,1,8,0,53,,,,,,,,,,,,,,,,,,,,
,,,,,53,2020-07-04_16h24.45.684,retriever_ti,2020.1.3,Win32,60,Chrome,1920,1080,,,,,,,,,,,,,,,,,2,,,,,,,,,,,,,,,,,,,,,,,,,,,1006.62345,91,right,0.87286,holdfast    ,8,4,1,1,1,1006.65687,1006.65687,1009.158835,0,13,13,13,1,91,7,8,peacock       ,holdfast    ,html/resources/sequences_IDs/A/05_peacock.jpg,html/resources/sequences_IDs/B/04_holdfast.jpg,5,4,2,1,2,1,4,3,0,53,,,,,,,,,,,,,,,,,,,,
,,,,,53,2020-07-04_16h24.45.684,retriever_ti,2020.1.3,Win32,60,Chrome,1920,1080,,,,,,,,,,,,,,,,,2,,,,,,,,,,,,,,,,,,,,,,,,,,,1010.260895,92,left,0.60463,camel         ,3,3,1,1,1,1010.27744,1010.27744,1012.779285,0,14,14,14,1,92,3,2,camel         ,sport_tshirt,html/resources/sequences_IDs/A/03_camel.jpg,html/resources/sequences_IDs/B/07_sport_tshirt.jpg,3,7,1,1,3,2,2,6,0,53,,,,,,,,,,,,,,,,,,,,
,,,,,53,2020-07-04_16h24.45.684,retriever_ti,2020.1.3,Win32,60,Chrome,1920,1080,,,,,,,,,,,,,,,,,2,,,,,,,,,,,,,,,,,,,,,,,,,,,1013.88076,93,left,0.76987,satellite_dish,5,10,-1,0,1,1013.89777,1013.89777,1016.399455,0,15,15,15,1,93,5,6,satellite_dish,gloves      ,html/resources/sequences_IDs/A/10_satellite_dish.jpg,html/resources/sequences_IDs/B/06_gloves.jpg,10,6,4,2,3,2,8,5,1,53,,,,,,,,,,,,,,,,,,,,
,,,,,53,2020-07-04_16h24.45.684,retriever_ti,2020.1.3,Win32,60,Chrome,1920,1080,,,,,,,,,,,,,,,,,2,,,,,,,,,,,,,,,,,,,,,,,,,,,1017.500955,94,left,0.86933,peacock       ,7,5,-1,0,1,1017.517885,1017.517885,1020.019765,0,16,16,16,1,94,7,8,peacock       ,holdfast    ,html/resources/sequences_IDs/A/05_peacock.jpg,html/resources/sequences_IDs/B/04_holdfast.jpg,5,4,2,1,2,1,4,3,1,53,,,,,,,,,,,,,,,,,,,,
,,,,,53,2020-07-04_16h24.45.684,retriever_ti,2020.1.3,Win32,60,Chrome,1920,1080,,,,,,,,,,,,,,,,,2,,,,,,,,,,,,,,,,,,,,,,,,,,,1021.121575,95,right,0.544165,dolphin     ,4,2,2,1,3,1021.138555,1021.138555,1023.64008,0,17,17,17,1,95,2,4,sport_tshirt,dolphin     ,html/resources/sequences_IDs/B/07_sport_tshirt.jpg,html/resources/sequences_IDs/B/02_dolphin.jpg,7,2,3,2,1,1,6,1,0,53,,,,,,,,,,,,,,,,,,,,
,,,,,53,2020-07-04_16h24.45.684,retriever_ti,2020.1.3,Win32,60,Chrome,1920,1080,,,,,,,,,,,,,,,,,2,,,,,,,,,,,,,,,,,,,,,,,,,,,1024.241405,96,right,0.625655,satellite_dish,5,10,-2,0,3,1024.2583,1024.2583,1026.760175,0,18,18,18,1,96,7,5,peacock       ,satellite_dish,html/resources/sequences_IDs/A/05_peacock.jpg,html/resources/sequences_IDs/A/10_satellite_dish.jpg,5,10,2,1,4,2,4,8,0,53,,,,,,,,,,,,,,,,,,,,
,,,,,53,2020-07-04_16h24.45.684,retriever_ti,2020.1.3,Win32,60,Chrome,1920,1080,,,,,,,,,,,,,,,,,2,,,,,,,,,,,,,,,,,,,,,,,,,,,1027.36104,97,left,0.623985,camel         ,3,3,1,1,1,1027.395295,1027.395295,1029.89641,0,19,19,19,1,97,3,2,camel         ,sport_tshirt,html/resources/sequences_IDs/A/03_camel.jpg,html/resources/sequences_IDs/B/07_sport_tshirt.jpg,3,7,1,1,3,2,2,6,0,53,,,,,,,,,,,,,,,,,,,,
,,,,,53,2020-07-04_16h24.45.684,retriever_ti,2020.1.3,Win32,60,Chrome,1920,1080,,,,,,,,,,,,,,,,,2,,,,,,,,,,,,,,,,,,,,,,,,,,,1030.998165,98,left,0.71461,camel         ,3,3,-3,0,3,1031.03172,1031.03172,1033.533405,0,20,20,20,1,98,3,6,camel         ,gloves      ,html/resources/sequences_IDs/A/03_camel.jpg,html/resources/sequences_IDs/B/06_gloves.jpg,3,6,1,1,3,2,2,5,0,53,,,,,,,,,,,,,,,,,,,,
,,,,,53,2020-07-04_16h24.45.684,retriever_ti,2020.1.3,Win32,60,Chrome,1920,1080,,,,,,,,,,,,,,,,,2,,,,,,,,,,,,,,,,,,,,,,,,,,,1034.134645,99,right,0.6528,satellite_dish,5,10,-3,0,3,1034.168075,1034.168075,1036.66999,0,21,21,21,1,99,8,5,holdfast    ,satellite_dish,html/resources/sequences_IDs/B/04_holdfast.jpg,html/resources/sequences_IDs/A/10_satellite_dish.jpg,4,10,2,1,4,2,3,8,0,53,,,,,,,,,,,,,,,,,,,,
,,,,,53,2020-07-04_16h24.45.684,retriever_ti,2020.1.3,Win32,60,Chrome,1920,1080,,,,,,,,,,,,,,,,,2,,,,,,,,,,,,,,,,,,,,,,,,,,,1037.27088,100,left,1.23605,gloves      ,6,6,4,1,3,1037.30472,1037.30472,1039.80639,0,22,22,22,1,100,6,2,gloves      ,sport_tshirt,html/resources/sequences_IDs/B/06_gloves.jpg,html/resources/sequences_IDs/B/07_sport_tshirt.jpg,6,7,3,2,3,2,5,6,0,53,,,,,,,,,,,,,,,,,,,,
,,,,,53,2020-07-04_16h24.45.684,retriever_ti,2020.1.3,Win32,60,Chrome,1920,1080,,,,,,,,,,,,,,,,,2,,,,,,,,,,,,,,,,,,,,,,,,,,,1040.407945,101,left,0.74565,satellite_dish,5,10,3,1,3,1040.44153,1040.44153,1042.94325,0,23,23,23,1,101,5,2,satellite_dish,sport_tshirt,html/resources/sequences_IDs/A/10_satellite_dish.jpg,html/resources/sequences_IDs/B/07_sport_tshirt.jpg,10,7,4,2,3,2,8,6,0,53,,,,,,,,,,,,,,,,,,,,
,,,,,53,2020-07-04_16h24.45.684,retriever_ti,2020.1.3,Win32,60,Chrome,1920,1080,,,,,,,,,,,,,,,,,2,,,,,,,,,,,,,,,,,,,,,,,,,,,1043.54405,102,left,0.977575,dolphin     ,4,2,-2,0,3,1043.56155,1043.56155,1046.062765,0,24,24,24,1,102,4,6,dolphin     ,gloves      ,html/resources/sequences_IDs/B/02_dolphin.jpg,html/resources/sequences_IDs/B/06_gloves.jpg,2,6,1,1,3,2,1,5,0,53,,,,,,,,,,,,,,,,,,,,
,,,,,53,2020-07-04_16h24.45.684,retriever_ti,2020.1.3,Win32,60,Chrome,1920,1080,,,,,,,,,,,,,,,,,2,,,,,,,,,,,,,,,,,,,,,,,,,,,1046.663925,103,left,0.913475,satellite_dish,5,10,1,1,1,1046.69766,1046.69766,1049.199385,0,25,25,25,1,103,5,4,satellite_dish,dolphin     ,html/resources/sequences_IDs/A/10_satellite_dish.jpg,html/resources/sequences_IDs/B/02_dolphin.jpg,10,2,4,2,1,1,8,1,0,53,,,,,,,,,,,,,,,,,,,,
,,,,,53,2020-07-04_16h24.45.684,retriever_ti,2020.1.3,Win32,60,Chrome,1920,1080,,,,,,,,,,,,,,,,,2,,,,,,,,,,,,,,,,,,,,,,,,,,,1050.30099,104,left,0.5658,satellite_dish,5,10,-3,0,3,1050.31804,1050.31804,1052.81967,0,26,26,26,1,104,5,8,satellite_dish,holdfast    ,html/resources/sequences_IDs/A/10_satellite_dish.jpg,html/resources/sequences_IDs/B/04_holdfast.jpg,10,4,4,2,2,1,8,3,0,53,,,,,,,,,,,,,,,,,,,,
,,,,,53,2020-07-04_16h24.45.684,retriever_ti,2020.1.3,Win32,60,Chrome,1920,1080,,,,,,,,,,,,,,,,,2,,,,,,,,,,,,,,,,,,,,,,,,,,,1053.420495,105,right,0.62892,dolphin     ,4,2,-4,0,3,1053.454465,1053.454465,1055.95613,0,27,27,27,1,105,8,4,holdfast    ,dolphin     ,html/resources/sequences_IDs/B/04_holdfast.jpg,html/resources/sequences_IDs/B/02_dolphin.jpg,4,2,2,1,1,1,3,1,0,53,,,,,,,,,,,,,,,,,,,,
,,,,,53,2020-07-04_16h24.45.684,retriever_ti,2020.1.3,Win32,60,Chrome,1920,1080,,,,,,,,,,,,,,,,,2,,,,,,,,,,,,,,,,,,,,,,,,,,,1056.55744,106,left,0.788195,camel         ,3,3,-4,0,3,1056.57449,1056.57449,1059.076045,0,28,28,28,1,106,3,7,camel         ,peacock       ,html/resources/sequences_IDs/A/03_camel.jpg,html/resources/sequences_IDs/A/05_peacock.jpg,3,5,1,1,2,1,2,4,0,53,,,,,,,,,,,,,,,,,,,,
,,,,,53,2020-07-04_16h24.45.684,retriever_ti,2020.1.3,Win32,60,Chrome,1920,1080,,,,,,,,,,,,,,,,,2,,,,,,,,,,,,,,,,,,,,,,,,,,,1059.677455,107,left,0.980105,sport_tshirt,2,7,1,1,1,1059.71135,1059.71135,1062.21244,0,29,29,29,1,107,2,1,sport_tshirt,hat           ,html/resources/sequences_IDs/B/07_sport_tshirt.jpg,html/resources/sequences_IDs/A/08_hat.jpg,7,8,3,2,3,2,6,7,0,53,,,,,,,,,,,,,,,,,,,,
,,,,,53,2020-07-04_16h24.45.684,retriever_ti,2020.1.3,Win32,60,Chrome,1920,1080,,,,,,,,,,,,,,,,,2,,,,,,,,,,,,,,,,,,,,,,,,,,,1063.3138,108,right,0.94062,camel         ,3,3,1,1,0,1063.347775,1063.347775,1065.849435,0,30,30,30,1,108,2,3,sport_tshirt,camel         ,html/resources/sequences_IDs/B/07_sport_tshirt.jpg,html/resources/sequences_IDs/A/03_camel.jpg,7,3,3,2,1,1,6,2,1,53,,,,,,,,,,,,,,,,,,,,
,,,,,53,2020-07-04_16h24.45.684,retriever_ti,2020.1.3,Win32,60,Chrome,1920,1080,,,,,,,,,,,,,,,,,2,,,,,,,,,,,,,,,,,,,,,,,,,,,1066.951115,109,right,0.825265,dolphin     ,4,2,3,1,3,1066.98462,1066.98462,1069.486475,0,31,31,31,1,109,1,4,hat           ,dolphin     ,html/resources/sequences_IDs/A/08_hat.jpg,html/resources/sequences_IDs/B/02_dolphin.jpg,8,2,3,2,1,1,7,1,0,53,,,,,,,,,,,,,,,,,,,,
,,,,,53,2020-07-04_16h24.45.684,retriever_ti,2020.1.3,Win32,60,Chrome,1920,1080,,,,,,,,,,,,,,,,,2,,,,,,,,,,,,,,,,,,,,,,,,,,,1070.08764,110,right,1.91387,sport_tshirt,2,7,1,1,1,1070.12121,1070.12121,1072.623005,0,32,32,32,1,110,1,2,hat           ,sport_tshirt,html/resources/sequences_IDs/A/08_hat.jpg,html/resources/sequences_IDs/B/07_sport_tshirt.jpg,8,7,3,2,3,2,7,6,0,53,,,,,,,,,,,,,,,,,,,,
,,,,,53,2020-07-04_16h24.45.684,retriever_ti,2020.1.3,Win32,60,Chrome,1920,1080,,,,,,,,,,,,,,,,,2,,,,,,,,,,,,,,,,,,,,,,,,,,,1073.724575,111,right,0.98082,hat           ,1,8,-6,0,3,1073.758575,1073.758575,1076.260085,0,33,33,33,1,111,7,1,peacock       ,hat           ,html/resources/sequences_IDs/A/05_peacock.jpg,html/resources/sequences_IDs/A/08_hat.jpg,5,8,2,1,3,2,4,7,0,53,,,,,,,,,,,,,,,,,,,,
,,,,,53,2020-07-04_16h24.45.684,retriever_ti,2020.1.3,Win32,60,Chrome,1920,1080,,,,,,,,,,,,,,,,,2,,,,,,,,,,,,,,,,,,,,,,,,,,,1076.86104,112,left,0.75521,sport_tshirt,2,7,-6,0,3,1076.878145,1076.878145,1079.379835,0,34,34,34,1,112,2,8,sport_tshirt,holdfast    ,html/resources/sequences_IDs/B/07_sport_tshirt.jpg,html/resources/sequences_IDs/B/04_holdfast.jpg,7,4,3,2,2,1,6,3,0,53,,,,,,,,,,,,,,,,,,,,
,,,,,53,2020-07-04_16h24.45.684,retriever_ti,2020.1.3,Win32,60,Chrome,1920,1080,,,,,,,,,,,,,,,,,2,,,,,,,,,,,,,,,,,,,,,,,,,,,1079.98124,113,right,0.749,peacock       ,7,5,-1,0,0,1079.99781,1079.99781,1082.49964,0,35,35,35,1,113,8,7,holdfast    ,peacock       ,html/resources/sequences_IDs/B/04_holdfast.jpg,html/resources/sequences_IDs/A/05_peacock.jpg,4,5,2,1,2,1,3,4,0,53,,,,,,,,,,,,,,,,,,,,
,,,,,53,2020-07-04_16h24.45.684,retriever_ti,2020.1.3,Win32,60,Chrome,1920,1080,,,,,,,,,,,,,,,,,2,,,,,,,,,,,,,,,,,,,,,,,,,,,1083.601025,114,right,0.753255,camel         ,3,3,-3,0,3,1083.61811,1083.61811,1086.119995,0,36,36,36,1,114,6,3,gloves      ,camel         ,html/resources/sequences_IDs/B/06_gloves.jpg,html/resources/sequences_IDs/A/03_camel.jpg,6,3,3,2,1,1,5,2,0,53,,,,,,,,,,,,,,,,,,,,
,,,,,53,2020-07-04_16h24.45.684,retriever_ti,2020.1.3,Win32,60,Chrome,1920,1080,,,,,,,,,,,,,,,,,2,,,,,,,,,,,,,,,,,,,,,,,,,,,1086.721165,115,left,0.64031,sport_tshirt,2,7,-4,0,3,1086.754765,1086.754765,1089.25646,0,37,37,37,1,115,2,6,sport_tshirt,gloves      ,html/resources/sequences_IDs/B/07_sport_tshirt.jpg,html/resources/sequences_IDs/B/06_gloves.jpg,7,6,3,2,3,2,6,5,0,53,,,,,,,,,,,,,,,,,,,,
,,,,,53,2020-07-04_16h24.45.684,retriever_ti,2020.1.3,Win32,60,Chrome,1920,1080,,,,,,,,,,,,,,,,,2,,,,,,,,,,,,,,,,,,,,,,,,,,,1089.85776,116,left,0.576045,gloves      ,6,6,1,1,1,1089.87462,1089.87462,1092.37626,0,38,38,38,1,116,6,5,gloves      ,satellite_dish,html/resources/sequences_IDs/B/06_gloves.jpg,html/resources/sequences_IDs/A/10_satellite_dish.jpg,6,10,3,2,4,2,5,8,0,53,,,,,,,,,,,,,,,,,,,,
,,,,,53,2020-07-04_16h24.45.684,retriever_ti,2020.1.3,Win32,60,Chrome,1920,1080,,,,,,,,,,,,,,,,,2,,,,,,,,,,,,,,,,,,,,,,,,,,,1093.477985,117,left,0.75047,hat           ,1,8,-7,0,3,1093.494805,1093.494805,1095.996565,0,39,39,39,1,117,1,8,hat           ,holdfast    ,html/resources/sequences_IDs/A/08_hat.jpg,html/resources/sequences_IDs/B/04_holdfast.jpg,8,4,3,2,2,1,7,3,0,53,,,,,,,,,,,,,,,,,,,,
,,,,,53,2020-07-04_16h24.45.684,retriever_ti,2020.1.3,Win32,60,Chrome,1920,1080,,,,,,,,,,,,,,,,,2,,,,,,,,,,,,,,,,,,,,,,,,,,,1096.597985,118,left,0.86784,satellite_dish,5,10,1,1,0,1096.631585,1096.631585,1099.134325,0,40,40,40,1,118,5,4,satellite_dish,dolphin     ,html/resources/sequences_IDs/A/10_satellite_dish.jpg,html/resources/sequences_IDs/B/02_dolphin.jpg,10,2,4,2,1,1,8,1,1,53,,,,,,,,,,,,,,,,,,,,
,,,,,53,2020-07-04_16h24.45.684,retriever_ti,2020.1.3,Win32,60,Chrome,1920,1080,,,,,,,,,,,,,,,,,2,,,,,,,,,,,,,,,,,,,,,,,,,,,1100.234925,119,right,1.152425,gloves      ,6,6,1,1,1,1100.268435,1100.268435,1102.77008,0,41,41,41,1,119,5,6,satellite_dish,gloves      ,html/resources/sequences_IDs/A/10_satellite_dish.jpg,html/resources/sequences_IDs/B/06_gloves.jpg,10,6,4,2,3,2,8,5,0,53,,,,,,,,,,,,,,,,,,,,
,,,,,53,2020-07-04_16h24.45.684,retriever_ti,2020.1.3,Win32,60,Chrome,1920,1080,,,,,,,,,,,,,,,,,2,,,,,,,,,,,,,,,,,,,,,,,,,,,1103.871855,120,right,0.52886,gloves      ,6,6,-2,0,3,1103.90537,1103.90537,1106.4071,0,42,42,42,1,120,8,6,holdfast    ,gloves      ,html/resources/sequences_IDs/B/04_holdfast.jpg,html/resources/sequences_IDs/B/06_gloves.jpg,4,6,2,1,3,2,3,5,0,53,,,,,,,,,,,,,,,,,,,,
,,,,,53,2020-07-04_16h24.45.684,retriever_ti,2020.1.3,Win32,60,Chrome,1920,1080,,,,,,,,,,,,,,,,,2,,,,,,,,,,,,,,,,,,,,,,,,,,,1107.008225,121,right,0.689745,satellite_dish,5,10,3,1,3,1107.025415,1107.025415,1109.527065,0,43,43,43,1,121,2,5,sport_tshirt,satellite_dish,html/resources/sequences_IDs/B/07_sport_tshirt.jpg,html/resources/sequences_IDs/A/10_satellite_dish.jpg,7,10,3,2,4,2,6,8,0,53,,,,,,,,,,,,,,,,,,,,
,,,,,53,2020-07-04_16h24.45.684,retriever_ti,2020.1.3,Win32,60,Chrome,1920,1080,,,,,,,,,,,,,,,,,2,,,,,,,,,,,,,,,,,,,,,,,,,,,1110.128255,122,left,1.154175,camel         ,3,3,-2,0,3,1110.14553,1110.14553,1112.64676,0,44,44,44,1,122,3,5,camel         ,satellite_dish,html/resources/sequences_IDs/A/03_camel.jpg,html/resources/sequences_IDs/A/10_satellite_dish.jpg,3,10,1,1,4,2,2,8,0,53,,,,,,,,,,,,,,,,,,,,
,,,,,53,2020-07-04_16h24.45.684,retriever_ti,2020.1.3,Win32,60,Chrome,1920,1080,,,,,,,,,,,,,,,,,2,,,,,,,,,,,,,,,,,,,,,,,,,,,1113.248445,123,left,0.66537,peacock       ,7,5,-1,0,0,1113.2819,1113.2819,1115.783315,0,45,45,45,1,123,7,8,peacock       ,holdfast    ,html/resources/sequences_IDs/A/05_peacock.jpg,html/resources/sequences_IDs/B/04_holdfast.jpg,5,4,2,1,2,1,4,3,0,53,,,,,,,,,,,,,,,,,,,,
,,,,,53,2020-07-04_16h24.45.684,retriever_ti,2020.1.3,Win32,60,Chrome,1920,1080,,,,,,,,,,,,,,,,,2,,,,,,,,,,,,,,,,,,,,,,,,,,,1116.885015,124,right,1.31768,sport_tshirt,2,7,-5,0,3,1116.91862,1116.91862,1119.420275,0,46,46,46,1,124,7,2,peacock       ,sport_tshirt,html/resources/sequences_IDs/A/05_peacock.jpg,html/resources/sequences_IDs/B/07_sport_tshirt.jpg,5,7,2,1,3,2,4,6,0,53,,,,,,,,,,,,,,,,,,,,
,,,,,53,2020-07-04_16h24.45.684,retriever_ti,2020.1.3,Win32,60,Chrome,1920,1080,,,,,,,,,,,,,,,,,2,,,,,,,,,,,,,,,,,,,,,,,,,,,1120.021505,125,right,0.9195,gloves      ,6,6,1,1,1,1120.038555,1120.038555,1122.540065,0,47,47,47,1,125,5,6,satellite_dish,gloves      ,html/resources/sequences_IDs/A/10_satellite_dish.jpg,html/resources/sequences_IDs/B/06_gloves.jpg,10,6,4,2,3,2,8,5,0,53,,,,,,,,,,,,,,,,,,,,
,,,,,53,2020-07-04_16h24.45.684,retriever_ti,2020.1.3,Win32,60,Chrome,1920,1080,,,,,,,,,,,,,,,,,2,,,,,,,,,,,,,,,,,,,,,,,,,,,1123.641495,126,left,0.98885,sport_tshirt,2,7,1,1,1,1123.67555,1123.67555,1126.177175,0,48,48,48,1,126,2,1,sport_tshirt,hat           ,html/resources/sequences_IDs/B/07_sport_tshirt.jpg,html/resources/sequences_IDs/A/08_hat.jpg,7,8,3,2,3,2,6,7,0,53,,,,,,,,,,,,,,,,,,,,
,,,,,53,2020-07-04_16h24.45.684,retriever_ti,2020.1.3,Win32,60,Chrome,1920,1080,,,,,,,,,,,,,,,,,2,,,,,,,,,,,,,,,,,,,,,,,,,,,1127.27885,127,right,0.593695,peacock       ,7,5,-1,0,0,1127.312705,1127.312705,1129.81427,0,49,49,49,1,127,8,7,holdfast    ,peacock       ,html/resources/sequences_IDs/B/04_holdfast.jpg,html/resources/sequences_IDs/A/05_peacock.jpg,4,5,2,1,2,1,3,4,0,53,,,,,,,,,,,,,,,,,,,,
,,,,,53,2020-07-04_16h24.45.684,retriever_ti,2020.1.3,Win32,60,Chrome,1920,1080,,,,,,,,,,,,,,,,,2,,,,,,,,,,,,,,,,,,,,,,,,,,,1130.91597,128,left,0.39704,peacock       ,7,5,1,1,1,1130.949535,1130.949535,1133.45115,0,50,50,50,1,128,7,6,peacock       ,gloves      ,html/resources/sequences_IDs/A/05_peacock.jpg,html/resources/sequences_IDs/B/06_gloves.jpg,5,6,2,1,3,2,4,5,0,53,,,,,,,,,,,,,,,,,,,,
,,,,,53,2020-07-04_16h24.45.684,retriever_ti,2020.1.3,Win32,60,Chrome,1920,1080,,,,,,,,,,,,,,,,,2,,,,,,,,,,,,,,,,,,,,,,,,,,,1134.55287,129,left,0.847275,gloves      ,6,6,-1,0,1,1134.569655,1134.569655,1137.07146,0,51,51,51,1,129,6,7,gloves      ,peacock       ,html/resources/sequences_IDs/B/06_gloves.jpg,html/resources/sequences_IDs/A/05_peacock.jpg,6,5,3,2,2,1,5,4,1,53,,,,,,,,,,,,,,,,,,,,
,,,,,53,2020-07-04_16h24.45.684,retriever_ti,2020.1.3,Win32,60,Chrome,1920,1080,,,,,,,,,,,,,,,,,2,,,,,,,,,,,,,,,,,,,,,,,,,,,1138.17319,130,left,0.660455,gloves      ,6,6,1,1,1,1138.206755,1138.206755,1140.708595,0,52,52,52,1,130,6,5,gloves      ,satellite_dish,html/resources/sequences_IDs/B/06_gloves.jpg,html/resources/sequences_IDs/A/10_satellite_dish.jpg,6,10,3,2,4,2,5,8,0,53,,,,,,,,,,,,,,,,,,,,
,,,,,53,2020-07-04_16h24.45.684,retriever_ti,2020.1.3,Win32,60,Chrome,1920,1080,,,,,,,,,,,,,,,,,2,,,,,,,,,,,,,,,,,,,,,,,,,,,1141.81076,131,left,0.5521,gloves      ,6,6,-1,0,0,1141.827455,1141.827455,1144.328785,0,53,53,53,1,131,6,7,gloves      ,peacock       ,html/resources/sequences_IDs/B/06_gloves.jpg,html/resources/sequences_IDs/A/05_peacock.jpg,6,5,3,2,2,1,5,4,0,53,,,,,,,,,,,,,,,,,,,,
,,,,,53,2020-07-04_16h24.45.684,retriever_ti,2020.1.3,Win32,60,Chrome,1920,1080,,,,,,,,,,,,,,,,,2,,,,,,,,,,,,,,,,,,,,,,,,,,,1145.430225,132,right,0.86737,hat           ,1,8,-3,0,3,1145.463985,1145.463985,1147.96597,0,54,54,54,1,132,4,1,dolphin     ,hat           ,html/resources/sequences_IDs/B/02_dolphin.jpg,html/resources/sequences_IDs/A/08_hat.jpg,2,8,1,1,3,2,1,7,0,53,,,,,,,,,,,,,,,,,,,,
,,,,,53,2020-07-04_16h24.45.684,retriever_ti,2020.1.3,Win32,60,Chrome,1920,1080,,,,,,,,,,,,,,,,,2,,,,,,,,,,,,,,,,,,,,,,,,,,,1148.56726,133,right,0.706465,hat           ,1,8,-4,0,3,1148.600725,1148.600725,1151.10229,0,55,55,55,1,133,5,1,satellite_dish,hat           ,html/resources/sequences_IDs/A/10_satellite_dish.jpg,html/resources/sequences_IDs/A/08_hat.jpg,10,8,4,2,3,2,8,7,0,53,,,,,,,,,,,,,,,,,,,,
,,,,,53,2020-07-04_16h24.45.684,retriever_ti,2020.1.3,Win32,60,Chrome,1920,1080,,,,,,,,,,,,,,,,,2,,,,,,,,,,,,,,,,,,,,,,,,,,,1151.70319,134,left,0.68249,dolphin     ,4,2,1,1,1,1151.737445,1151.737445,1154.23893,0,56,56,56,1,134,4,3,dolphin     ,camel         ,html/resources/sequences_IDs/B/02_dolphin.jpg,html/resources/sequences_IDs/A/03_camel.jpg,2,3,1,1,1,1,1,2,0,53,,,,,,,,,,,,,,,,,,,,
,,,,,53,2020-07-04_16h24.45.684,retriever_ti,2020.1.3,Win32,60,Chrome,1920,1080,,,,,,,,,,,,,,,,,2,,,,,,,,,,,,,,,,,,,,,,,,,,,1155.340635,135,left,0.92371,hat           ,1,8,-1,0,1,1155.35774,1155.35774,1157.85919,0,57,57,57,1,135,1,2,hat           ,sport_tshirt,html/resources/sequences_IDs/A/08_hat.jpg,html/resources/sequences_IDs/B/07_sport_tshirt.jpg,8,7,3,2,3,2,7,6,1,53,,,,,,,,,,,,,,,,,,,,
,,,,,53,2020-07-04_16h24.45.684,retriever_ti,2020.1.3,Win32,60,Chrome,1920,1080,,,,,,,,,,,,,,,,,2,,,,,,,,,,,,,,,,,,,,,,,,,,,1158.960895,136,right,1.04938,gloves      ,6,6,5,1,3,1158.99472,1158.99472,1161.49636,0,58,58,58,1,136,1,6,hat           ,gloves      ,html/resources/sequences_IDs/A/08_hat.jpg,html/resources/sequences_IDs/B/06_gloves.jpg,8,6,3,2,3,2,7,5,0,53,,,,,,,,,,,,,,,,,,,,
,,,,,53,2020-07-04_16h24.45.684,retriever_ti,2020.1.3,Win32,60,Chrome,1920,1080,,,,,,,,,,,,,,,,,2,,,,,,,,,,,,,,,,,,,,,,,,,,,1162.09744,137,left,0.697135,gloves      ,6,6,2,1,3,1162.11453,1162.11453,1164.61616,0,59,59,59,1,137,6,4,gloves      ,dolphin     ,html/resources/sequences_IDs/B/06_gloves.jpg,html/resources/sequences_IDs/B/02_dolphin.jpg,6,2,3,2,1,1,5,1,0,53,,,,,,,,,,,,,,,,,,,,
,,,,,53,2020-07-04_16h24.45.684,retriever_ti,2020.1.3,Win32,60,Chrome,1920,1080,,,,,,,,,,,,,,,,,2,,,,,,,,,,,,,,,,,,,,,,,,,,,1165.216985,138,right,0.993,camel         ,3,3,-2,0,3,1165.250735,1165.250735,1167.752495,0,60,60,60,1,138,5,3,satellite_dish,camel         ,html/resources/sequences_IDs/A/10_satellite_dish.jpg,html/resources/sequences_IDs/A/03_camel.jpg,10,3,4,2,1,1,8,2,0,53,,,,,,,,,,,,,,,,,,,,
,,,,,53,2020-07-04_16h24.45.684,retriever_ti,2020.1.3,Win32,60,Chrome,1920,1080,,,,,,,,,,,,,,,,,2,,,,,,,,,,,,,,,,,,,,,,,,,,,1168.353795,139,right,0.951415,peacock       ,7,5,2,1,3,1168.37074,1168.37074,1170.872345,0,61,61,61,1,139,5,7,satellite_dish,peacock       ,html/resources/sequences_IDs/A/10_satellite_dish.jpg,html/resources/sequences_IDs/A/05_peacock.jpg,10,5,4,2,2,1,8,4,0,53,,,,,,,,,,,,,,,,,,,,
,,,,,53,2020-07-04_16h24.45.684,retriever_ti,2020.1.3,Win32,60,Chrome,1920,1080,,,,,,,,,,,,,,,,,2,,,,,,,,,,,,,,,,,,,,,,,,,,,1171.47332,140,right,0.96893,holdfast    ,8,4,2,1,3,1171.50751,1171.50751,1174.00882,0,62,62,62,1,140,6,8,gloves      ,holdfast    ,html/resources/sequences_IDs/B/06_gloves.jpg,html/resources/sequences_IDs/B/04_holdfast.jpg,6,4,3,2,2,1,5,3,0,53,,,,,,,,,,,,,,,,,,,,
,,,,,53,2020-07-04_16h24.45.684,retriever_ti,2020.1.3,Win32,60,Chrome,1920,1080,,,,,,,,,,,,,,,,,2,,,,,,,,,,,,,,,,,,,,,,,,,,,1174.610385,141,left,1.206685,camel         ,3,3,-1,0,0,1174.64347,1174.64347,1177.145335,0,63,63,63,1,141,3,4,camel         ,dolphin     ,html/resources/sequences_IDs/A/03_camel.jpg,html/resources/sequences_IDs/B/02_dolphin.jpg,3,2,1,1,1,1,2,1,0,53,,,,,,,,,,,,,,,,,,,,
,,,,,53,2020-07-04_16h24.45.684,retriever_ti,2020.1.3,Win32,60,Chrome,1920,1080,,,,,,,,,,,,,,,,,2,,,,,,,,,,,,,,,,,,,,,,,,,,,1178.247085,142,left,0.83526,holdfast    ,8,4,7,1,3,1178.264105,1178.264105,1180.765715,0,64,64,64,1,142,8,1,holdfast    ,hat           ,html/resources/sequences_IDs/B/04_holdfast.jpg,html/resources/sequences_IDs/A/08_hat.jpg,4,8,2,1,3,2,3,7,0,53,,,,,,,,,,,,,,,,,,,,
,,,,,53,2020-07-04_16h24.45.684,retriever_ti,2020.1.3,Win32,60,Chrome,1920,1080,,,,,,,,,,,,,,,,,2,,,,,,,,,,,,,,,,,,,,,,,,,,,1181.36659,143,right,0.802225,sport_tshirt,2,7,1,1,1,1181.40058,1181.40058,1183.90219,0,65,65,65,1,143,1,2,hat           ,sport_tshirt,html/resources/sequences_IDs/A/08_hat.jpg,html/resources/sequences_IDs/B/07_sport_tshirt.jpg,8,7,3,2,3,2,7,6,0,53,,,,,,,,,,,,,,,,,,,,
,,,,,53,2020-07-04_16h24.45.684,retriever_ti,2020.1.3,Win32,60,Chrome,1920,1080,,,,,,,,,,,,,,,,,2,,,,,,,,,,,,,,,,,,,,,,,,,,,1185.004025,144,left,0.78928,gloves      ,6,6,-1,0,0,1185.020675,1185.020675,1187.5225,0,66,66,66,1,144,6,7,gloves      ,peacock       ,html/resources/sequences_IDs/B/06_gloves.jpg,html/resources/sequences_IDs/A/05_peacock.jpg,6,5,3,2,2,1,5,4,0,53,,,,,,,,,,,,,,,,,,,,
,,,,,53,2020-07-04_16h24.45.684,retriever_ti,2020.1.3,Win32,60,Chrome,1920,1080,,,,,,,,,,,,,,,,,2,,,,,,,,,,,,,,,,,,,,,,,,,,,1188.624235,145,left,0.841775,holdfast    ,8,4,5,1,3,1188.64153,1188.64153,1191.142965,0,67,67,67,1,145,8,3,holdfast    ,camel         ,html/resources/sequences_IDs/B/04_holdfast.jpg,html/resources/sequences_IDs/A/03_camel.jpg,4,3,2,1,1,1,3,2,0,53,,,,,,,,,,,,,,,,,,,,
,,,,,53,2020-07-04_16h24.45.684,retriever_ti,2020.1.3,Win32,60,Chrome,1920,1080,,,,,,,,,,,,,,,,,2,,,,,,,,,,,,,,,,,,,,,,,,,,,1191.743795,146,right,0.93073,peacock       ,7,5,6,1,3,1191.761195,1191.761195,1194.262635,0,68,68,68,1,146,1,7,hat           ,peacock       ,html/resources/sequences_IDs/A/08_hat.jpg,html/resources/sequences_IDs/A/05_peacock.jpg,8,5,3,2,2,1,7,4,0,53,,,,,,,,,,,,,,,,,,,,
,,,,,53,2020-07-04_16h24.45.684,retriever_ti,2020.1.3,Win32,60,Chrome,1920,1080,,,,,,,,,,,,,,,,,2,,,,,,,,,,,,,,,,,,,,,,,,,,,1194.86386,147,left,1.19362,peacock       ,7,5,3,1,3,1194.897605,1194.897605,1197.399175,0,69,69,69,1,147,7,4,peacock       ,dolphin     ,html/resources/sequences_IDs/A/05_peacock.jpg,html/resources/sequences_IDs/B/02_dolphin.jpg,5,2,2,1,1,1,4,1,0,53,,,,,,,,,,,,,,,,,,,,
,,,,,53,2020-07-04_16h24.45.684,retriever_ti,2020.1.3,Win32,60,Chrome,1920,1080,,,,,,,,,,,,,,,,,2,,,,,,,,,,,,,,,,,,,,,,,,,,,1198.00047,148,left,0.70605,hat           ,1,8,-4,0,3,1198.0174,1198.0174,1200.51903,0,70,70,70,1,148,1,5,hat           ,satellite_dish,html/resources/sequences_IDs/A/08_hat.jpg,html/resources/sequences_IDs/A/10_satellite_dish.jpg,8,10,3,2,4,2,7,8,0,53,,,,,,,,,,,,,,,,,,,,
,,,,,53,2020-07-04_16h24.45.684,retriever_ti,2020.1.3,Win32,60,Chrome,1920,1080,,,,,,,,,,,,,,,,,2,,,,,,,,,,,,,,,,,,,,,,,,,,,1201.12002,149,left,1.01904,dolphin     ,4,2,2,1,3,1201.153625,1201.153625,1203.65548,0,71,71,71,1,149,4,2,dolphin     ,sport_tshirt,html/resources/sequences_IDs/B/02_dolphin.jpg,html/resources/sequences_IDs/B/07_sport_tshirt.jpg,2,7,1,1,3,2,1,6,0,53,,,,,,,,,,,,,,,,,,,,
,,,,,53,2020-07-04_16h24.45.684,retriever_ti,2020.1.3,Win32,60,Chrome,1920,1080,,,,,,,,,,,,,,,,,2,,,,,,,,,,,,,,,,,,,,,,,,,,,1204.256775,150,left,0.34467,dolphin     ,4,2,-1,0,0,1204.290415,1204.290415,1206.792,0,72,72,72,1,150,4,5,dolphin     ,satellite_dish,html/resources/sequences_IDs/B/02_dolphin.jpg,html/resources/sequences_IDs/A/10_satellite_dish.jpg,2,10,1,1,4,2,1,8,0,53,,,,,,,,,,,,,,,,,,,,
,,,,,53,2020-07-04_16h24.45.684,retriever_ti,2020.1.3,Win32,60,Chrome,1920,1080,,,,,,,,,,,,,,,,,2,,,,,,,,,,,,,,,,,,,,,,,,,,,1207.8938,151,right,1.116305,peacock       ,7,5,5,1,3,1207.92737,1207.92737,1210.429055,0,73,73,73,1,151,2,7,sport_tshirt,peacock       ,html/resources/sequences_IDs/B/07_sport_tshirt.jpg,html/resources/sequences_IDs/A/05_peacock.jpg,7,5,3,2,2,1,6,4,0,53,,,,,,,,,,,,,,,,,,,,
,,,,,53,2020-07-04_16h24.45.684,retriever_ti,2020.1.3,Win32,60,Chrome,1920,1080,,,,,,,,,,,,,,,,,2,,,,,,,,,,,,,,,,,,,,,,,,,,,1211.0299,152,left,1.259785,camel         ,3,3,-1,0,1,1211.04699,1211.04699,1213.549095,0,74,74,74,1,152,3,4,camel         ,dolphin     ,html/resources/sequences_IDs/A/03_camel.jpg,html/resources/sequences_IDs/B/02_dolphin.jpg,3,2,1,1,1,1,2,1,1,53,,,,,,,,,,,,,,,,,,,,
,,,,,53,2020-07-04_16h24.45.684,retriever_ti,2020.1.3,Win32,60,Chrome,1920,1080,,,,,,,,,,,,,,,,,2,,,,,,,,,,,,,,,,,,,,,,,,,,,1214.650785,153,left,0.58323,camel         ,3,3,-1,0,0,1214.667745,1214.667745,1217.16915,0,75,75,75,1,153,3,4,camel         ,dolphin     ,html/resources/sequences_IDs/A/03_camel.jpg,html/resources/sequences_IDs/B/02_dolphin.jpg,3,2,1,1,1,1,2,1,0,53,,,,,,,,,,,,,,,,,,,,
,,,,,53,2020-07-04_16h24.45.684,retriever_ti,2020.1.3,Win32,60,Chrome,1920,1080,,,,,,,,,,,,,,,,,2,,,,,,,,,,,,,,,,,,,,,,,,,,,1218.270805,154,right,1.62676,dolphin     ,4,2,-1,0,0,1218.28805,1218.28805,1220.789445,0,76,76,76,1,154,5,4,satellite_dish,dolphin     ,html/resources/sequences_IDs/A/10_satellite_dish.jpg,html/resources/sequences_IDs/B/02_dolphin.jpg,10,2,4,2,1,1,8,1,0,53,,,,,,,,,,,,,,,,,,,,
,,,,,53,2020-07-04_16h24.45.684,retriever_ti,2020.1.3,Win32,60,Chrome,1920,1080,,,,,,,,,,,,,,,,,,,,,,,,,,,,,,,,,,,,,0,3.92367,,,,,,,,,,,,,,,,,,,,,,,,,,,,,,,,,,,,,,,,,1,0,1,0,1,,,,,,,,,,,,,,,
,,,,,53,2020-07-04_16h24.45.684,retriever_ti,2020.1.3,Win32,60,Chrome,1920,1080,,,,,,,,,,,,,,,,,3,,,,,,,,,,,,,,,,,,,,,,,,,,,1794.45052,155,left,0.62657,sport_tshirt,2,7,1,1,1,1794.47192,1794.47192,1796.97293,0,0,0,0,1,155,2,1,sport_tshirt,hat           ,html/resources/sequences_IDs/B/07_sport_tshirt.jpg,html/resources/sequences_IDs/A/08_hat.jpg,7,8,3,2,3,2,6,7,0,53,,,,,,,,,,,,,,,,,,,,
,,,,,53,2020-07-04_16h24.45.684,retriever_ti,2020.1.3,Win32,60,Chrome,1920,1080,,,,,,,,,,,,,,,,,3,,,,,,,,,,,,,,,,,,,,,,,,,,,1798.074485,156,left,0.37897,dolphin     ,4,2,-4,0,3,1798.10793,1798.10793,1800.609385,0,1,1,1,1,156,4,8,dolphin     ,holdfast    ,html/resources/sequences_IDs/B/02_dolphin.jpg,html/resources/sequences_IDs/B/04_holdfast.jpg,2,4,1,1,2,1,1,3,0,53,,,,,,,,,,,,,,,,,,,,
,,,,,53,2020-07-04_16h24.45.684,retriever_ti,2020.1.3,Win32,60,Chrome,1920,1080,,,,,,,,,,,,,,,,,3,,,,,,,,,,,,,,,,,,,,,,,,,,,1801.210845,157,right,0.328385,camel         ,3,3,-2,0,3,1801.22755,1801.22755,1803.72925,0,2,2,2,1,157,5,3,satellite_dish,camel         ,html/resources/sequences_IDs/A/10_satellite_dish.jpg,html/resources/sequences_IDs/A/03_camel.jpg,10,3,4,2,1,1,8,2,0,53,,,,,,,,,,,,,,,,,,,,
,,,,,53,2020-07-04_16h24.45.684,retriever_ti,2020.1.3,Win32,60,Chrome,1920,1080,,,,,,,,,,,,,,,,,3,,,,,,,,,,,,,,,,,,,,,,,,,,,1804.33035,158,right,0.32327,satellite_dish,5,10,1,1,1,1804.347465,1804.347465,1806.849015,0,3,3,3,1,158,4,5,dolphin     ,satellite_dish,html/resources/sequences_IDs/B/02_dolphin.jpg,html/resources/sequences_IDs/A/10_satellite_dish.jpg,2,10,1,1,4,2,1,8,0,53,,,,,,,,,,,,,,,,,,,,
,,,,,53,2020-07-04_16h24.45.684,retriever_ti,2020.1.3,Win32,60,Chrome,1920,1080,,,,,,,,,,,,,,,,,3,,,,,,,,,,,,,,,,,,,,,,,,,,,1807.950785,159,left,0.380075,hat           ,1,8,-5,0,3,1807.984395,1807.984395,1810.48603,0,4,4,4,1,159,1,6,hat           ,gloves      ,html/resources/sequences_IDs/A/08_hat.jpg,html/resources/sequences_IDs/B/06_gloves.jpg,8,6,3,2,3,2,7,5,0,53,,,,,,,,,,,,,,,,,,,,
,,,,,53,2020-07-04_16h24.45.684,retriever_ti,2020.1.3,Win32,60,Chrome,1920,1080,,,,,,,,,,,,,,,,,3,,,,,,,,,,,,,,,,,,,,,,,,,,,1811.087505,160,right,0.269785,holdfast    ,8,4,7,1,3,1811.120795,1811.120795,1813.62254,0,5,5,5,1,160,1,8,hat           ,holdfast    ,html/resources/sequences_IDs/A/08_hat.jpg,html/resources/sequences_IDs/B/04_holdfast.jpg,8,4,3,2,2,1,7,3,0,53,,,,,,,,,,,,,,,,,,,,
,,,,,53,2020-07-04_16h24.45.684,retriever_ti,2020.1.3,Win32,60,Chrome,1920,1080,,,,,,,,,,,,,,,,,3,,,,,,,,,,,,,,,,,,,,,,,,,,,1814.22369,161,left,0.41973,dolphin     ,4,2,1,1,1,1814.24139,1814.24139,1816.742325,0,6,6,6,1,161,4,3,dolphin     ,camel         ,html/resources/sequences_IDs/B/02_dolphin.jpg,html/resources/sequences_IDs/A/03_camel.jpg,2,3,1,1,1,1,1,2,0,53,,,,,,,,,,,,,,,,,,,,
,,,,,53,2020-07-04_16h24.45.684,retriever_ti,2020.1.3,Win32,60,Chrome,1920,1080,,,,,,,,,,,,,,,,,3,,,,,,,,,,,,,,,,,,,,,,,,,,,1817.844125,162,left,0.338505,holdfast    ,8,4,4,1,3,1817.878195,1817.878195,1820.379445,0,7,7,7,1,162,8,4,holdfast    ,dolphin     ,html/resources/sequences_IDs/B/04_holdfast.jpg,html/resources/sequences_IDs/B/02_dolphin.jpg,4,2,2,1,1,1,3,1,0,53,,,,,,,,,,,,,,,,,,,,
,,,,,53,2020-07-04_16h24.45.684,retriever_ti,2020.1.3,Win32,60,Chrome,1920,1080,,,,,,,,,,,,,,,,,3,,,,,,,,,,,,,,,,,,,,,,,,,,,1820.980705,163,left,0.440965,sport_tshirt,2,7,-3,0,3,1821.01405,1821.01405,1823.51594,0,8,8,8,1,163,2,5,sport_tshirt,satellite_dish,html/resources/sequences_IDs/B/07_sport_tshirt.jpg,html/resources/sequences_IDs/A/10_satellite_dish.jpg,7,10,3,2,4,2,6,8,0,53,,,,,,,,,,,,,,,,,,,,
,,,,,53,2020-07-04_16h24.45.684,retriever_ti,2020.1.3,Win32,60,Chrome,1920,1080,,,,,,,,,,,,,,,,,3,,,,,,,,,,,,,,,,,,,,,,,,,,,1824.116765,164,right,0.440395,peacock       ,7,5,1,1,1,1824.151135,1824.151135,1826.652425,0,9,9,9,1,164,6,7,gloves      ,peacock       ,html/resources/sequences_IDs/B/06_gloves.jpg,html/resources/sequences_IDs/A/05_peacock.jpg,6,5,3,2,2,1,5,4,0,53,,,,,,,,,,,,,,,,,,,,
,,,,,53,2020-07-04_16h24.45.684,retriever_ti,2020.1.3,Win32,60,Chrome,1920,1080,,,,,,,,,,,,,,,,,3,,,,,,,,,,,,,,,,,,,,,,,,,,,1827.75413,165,right,0.59709,satellite_dish,5,10,-2,0,3,1827.771055,1827.771055,1830.27274,0,10,10,10,1,165,7,5,peacock       ,satellite_dish,html/resources/sequences_IDs/A/05_peacock.jpg,html/resources/sequences_IDs/A/10_satellite_dish.jpg,5,10,2,1,4,2,4,8,0,53,,,,,,,,,,,,,,,,,,,,
,,,,,53,2020-07-04_16h24.45.684,retriever_ti,2020.1.3,Win32,60,Chrome,1920,1080,,,,,,,,,,,,,,,,,3,,,,,,,,,,,,,,,,,,,,,,,,,,,1830.8744,166,left,0.537045,satellite_dish,5,10,3,1,3,1830.907385,1830.907385,1833.409305,0,11,11,11,1,166,5,2,satellite_dish,sport_tshirt,html/resources/sequences_IDs/A/10_satellite_dish.jpg,html/resources/sequences_IDs/B/07_sport_tshirt.jpg,10,7,4,2,3,2,8,6,0,53,,,,,,,,,,,,,,,,,,,,
,,,,,53,2020-07-04_16h24.45.684,retriever_ti,2020.1.3,Win32,60,Chrome,1920,1080,,,,,,,,,,,,,,,,,3,,,,,,,,,,,,,,,,,,,,,,,,,,,1834.0102,167,right,0.55419,dolphin     ,4,2,1,1,0,1834.04412,1834.04412,1836.545715,0,12,12,12,1,167,3,4,camel         ,dolphin     ,html/resources/sequences_IDs/A/03_camel.jpg,html/resources/sequences_IDs/B/02_dolphin.jpg,3,2,1,1,1,1,2,1,1,53,,,,,,,,,,,,,,,,,,,,
,,,,,53,2020-07-04_16h24.45.684,retriever_ti,2020.1.3,Win32,60,Chrome,1920,1080,,,,,,,,,,,,,,,,,3,,,,,,,,,,,,,,,,,,,,,,,,,,,1837.647485,168,left,0.315025,camel         ,3,3,-5,0,3,1837.680935,1837.680935,1840.182755,0,13,13,13,1,168,3,8,camel         ,holdfast    ,html/resources/sequences_IDs/A/03_camel.jpg,html/resources/sequences_IDs/B/04_holdfast.jpg,3,4,1,1,2,1,2,3,0,53,,,,,,,,,,,,,,,,,,,,
,,,,,53,2020-07-04_16h24.45.684,retriever_ti,2020.1.3,Win32,60,Chrome,1920,1080,,,,,,,,,,,,,,,,,3,,,,,,,,,,,,,,,,,,,,,,,,,,,1840.783965,169,NaN,NaN,No_response,NaN,NaN,NaN,2,2,1840.81772,1840.81772,1843.31932,0,14,14,14,1,169,1,2,hat           ,sport_tshirt,html/resources/sequences_IDs/A/08_hat.jpg,html/resources/sequences_IDs/B/07_sport_tshirt.jpg,8,7,3,2,3,2,7,6,0,53,,,,,,,,,,,,,,,,,,,,
,,,,,53,2020-07-04_16h24.45.684,retriever_ti,2020.1.3,Win32,60,Chrome,1920,1080,,,,,,,,,,,,,,,,,3,,,,,,,,,,,,,,,,,,,,,,,,,,,1844.42068,170,right,1.311295,satellite_dish,5,10,-1,0,0,1844.438545,1844.438545,1846.93964,0,15,15,15,1,170,6,5,gloves      ,satellite_dish,html/resources/sequences_IDs/B/06_gloves.jpg,html/resources/sequences_IDs/A/10_satellite_dish.jpg,6,10,3,2,4,2,5,8,0,53,,,,,,,,,,,,,,,,,,,,
,,,,,53,2020-07-04_16h24.45.684,retriever_ti,2020.1.3,Win32,60,Chrome,1920,1080,,,,,,,,,,,,,,,,,3,,,,,,,,,,,,,,,,,,,,,,,,,,,1848.041555,171,left,0.40874,gloves      ,6,6,-1,0,1,1848.0751,1848.0751,1850.57658,0,16,16,16,1,171,6,7,gloves      ,peacock       ,html/resources/sequences_IDs/B/06_gloves.jpg,html/resources/sequences_IDs/A/05_peacock.jpg,6,5,3,2,2,1,5,4,1,53,,,,,,,,,,,,,,,,,,,,
,,,,,53,2020-07-04_16h24.45.684,retriever_ti,2020.1.3,Win32,60,Chrome,1920,1080,,,,,,,,,,,,,,,,,3,,,,,,,,,,,,,,,,,,,,,,,,,,,1851.67837,172,right,0.40642,holdfast    ,8,4,2,1,3,1851.711925,1851.711925,1854.21358,0,17,17,17,1,172,6,8,gloves      ,holdfast    ,html/resources/sequences_IDs/B/06_gloves.jpg,html/resources/sequences_IDs/B/04_holdfast.jpg,6,4,3,2,2,1,5,3,0,53,,,,,,,,,,,,,,,,,,,,
,,,,,53,2020-07-04_16h24.45.684,retriever_ti,2020.1.3,Win32,60,Chrome,1920,1080,,,,,,,,,,,,,,,,,3,,,,,,,,,,,,,,,,,,,,,,,,,,,1854.81497,173,left,0.478775,satellite_dish,5,10,-1,0,0,1854.83192,1854.83192,1857.333455,0,18,18,18,1,173,5,6,satellite_dish,gloves      ,html/resources/sequences_IDs/A/10_satellite_dish.jpg,html/resources/sequences_IDs/B/06_gloves.jpg,10,6,4,2,3,2,8,5,0,53,,,,,,,,,,,,,,,,,,,,
,,,,,53,2020-07-04_16h24.45.684,retriever_ti,2020.1.3,Win32,60,Chrome,1920,1080,,,,,,,,,,,,,,,,,3,,,,,,,,,,,,,,,,,,,,,,,,,,,1858.43483,174,left,0.28892,camel         ,3,3,-3,0,3,1858.46886,1858.46886,1860.97049,0,19,19,19,1,174,3,6,camel         ,gloves      ,html/resources/sequences_IDs/A/03_camel.jpg,html/resources/sequences_IDs/B/06_gloves.jpg,3,6,1,1,3,2,2,5,0,53,,,,,,,,,,,,,,,,,,,,
,,,,,53,2020-07-04_16h24.45.684,retriever_ti,2020.1.3,Win32,60,Chrome,1920,1080,,,,,,,,,,,,,,,,,3,,,,,,,,,,,,,,,,,,,,,,,,,,,1861.57189,175,left,0.48751,peacock       ,7,5,-1,0,1,1861.605445,1861.605445,1864.106965,0,20,20,20,1,175,7,8,peacock       ,holdfast    ,html/resources/sequences_IDs/A/05_peacock.jpg,html/resources/sequences_IDs/B/04_holdfast.jpg,5,4,2,1,2,1,4,3,1,53,,,,,,,,,,,,,,,,,,,,
,,,,,53,2020-07-04_16h24.45.684,retriever_ti,2020.1.3,Win32,60,Chrome,1920,1080,,,,,,,,,,,,,,,,,3,,,,,,,,,,,,,,,,,,,,,,,,,,,1865.208775,176,right,1.216625,satellite_dish,5,10,-1,0,0,1865.242145,1865.242145,1867.743905,0,21,21,21,1,176,6,5,gloves      ,satellite_dish,html/resources/sequences_IDs/B/06_gloves.jpg,html/resources/sequences_IDs/A/10_satellite_dish.jpg,6,10,3,2,4,2,5,8,0,53,,,,,,,,,,,,,,,,,,,,
,,,,,53,2020-07-04_16h24.45.684,retriever_ti,2020.1.3,Win32,60,Chrome,1920,1080,,,,,,,,,,,,,,,,,3,,,,,,,,,,,,,,,,,,,,,,,,,,,1868.8457,177,left,1.07074,satellite_dish,5,10,-1,0,0,1868.8631,1868.8631,1871.36426,0,22,22,22,1,177,5,6,satellite_dish,gloves      ,html/resources/sequences_IDs/A/10_satellite_dish.jpg,html/resources/sequences_IDs/B/06_gloves.jpg,10,6,4,2,3,2,8,5,0,53,,,,,,,,,,,,,,,,,,,,
,,,,,53,2020-07-04_16h24.45.684,retriever_ti,2020.1.3,Win32,60,Chrome,1920,1080,,,,,,,,,,,,,,,,,3,,,,,,,,,,,,,,,,,,,,,,,,,,,1872.4656,178,left,1.33817,sport_tshirt,2,7,-5,0,3,1872.4828,1872.4828,1874.984605,0,23,23,23,1,178,2,7,sport_tshirt,peacock       ,html/resources/sequences_IDs/B/07_sport_tshirt.jpg,html/resources/sequences_IDs/A/05_peacock.jpg,7,5,3,2,2,1,6,4,0,53,,,,,,,,,,,,,,,,,,,,
,,,,,53,2020-07-04_16h24.45.684,retriever_ti,2020.1.3,Win32,60,Chrome,1920,1080,,,,,,,,,,,,,,,,,3,,,,,,,,,,,,,,,,,,,,,,,,,,,1875.586205,179,NaN,NaN,No_response,NaN,NaN,NaN,2,2,1875.602785,1875.602785,1878.10455,0,24,24,24,1,179,7,6,peacock       ,gloves      ,html/resources/sequences_IDs/A/05_peacock.jpg,html/resources/sequences_IDs/B/06_gloves.jpg,5,6,2,1,3,2,4,5,0,53,,,,,,,,,,,,,,,,,,,,
,,,,,53,2020-07-04_16h24.45.684,retriever_ti,2020.1.3,Win32,60,Chrome,1920,1080,,,,,,,,,,,,,,,,,3,,,,,,,,,,,,,,,,,,,,,,,,,,,1879.20651,180,right,0.853375,peacock       ,7,5,-1,0,0,1879.22312,1879.22312,1881.724765,0,25,25,25,1,180,8,7,holdfast    ,peacock       ,html/resources/sequences_IDs/B/04_holdfast.jpg,html/resources/sequences_IDs/A/05_peacock.jpg,4,5,2,1,2,1,3,4,0,53,,,,,,,,,,,,,,,,,,,,
,,,,,53,2020-07-04_16h24.45.684,retriever_ti,2020.1.3,Win32,60,Chrome,1920,1080,,,,,,,,,,,,,,,,,3,,,,,,,,,,,,,,,,,,,,,,,,,,,1882.8265,181,right,0.451515,sport_tshirt,2,7,1,1,0,1882.84324,1882.84324,1885.34516,0,26,26,26,1,181,1,2,hat           ,sport_tshirt,html/resources/sequences_IDs/A/08_hat.jpg,html/resources/sequences_IDs/B/07_sport_tshirt.jpg,8,7,3,2,3,2,7,6,1,53,,,,,,,,,,,,,,,,,,,,
,,,,,53,2020-07-04_16h24.45.684,retriever_ti,2020.1.3,Win32,60,Chrome,1920,1080,,,,,,,,,,,,,,,,,3,,,,,,,,,,,,,,,,,,,,,,,,,,,1886.44696,182,left,0.38205,dolphin     ,4,2,-3,0,3,1886.480575,1886.480575,1888.98217,0,27,27,27,1,182,4,7,dolphin     ,peacock       ,html/resources/sequences_IDs/B/02_dolphin.jpg,html/resources/sequences_IDs/A/05_peacock.jpg,2,5,1,1,2,1,1,4,0,53,,,,,,,,,,,,,,,,,,,,
,,,,,53,2020-07-04_16h24.45.684,retriever_ti,2020.1.3,Win32,60,Chrome,1920,1080,,,,,,,,,,,,,,,,,3,,,,,,,,,,,,,,,,,,,,,,,,,,,1889.583365,183,NaN,NaN,No_response,NaN,NaN,NaN,2,2,1889.617065,1889.617065,1892.1186,0,28,28,28,1,183,3,4,camel         ,dolphin     ,html/resources/sequences_IDs/A/03_camel.jpg,html/resources/sequences_IDs/B/02_dolphin.jpg,3,2,1,1,1,1,2,1,0,53,,,,,,,,,,,,,,,,,,,,
,,,,,53,2020-07-04_16h24.45.684,retriever_ti,2020.1.3,Win32,60,Chrome,1920,1080,,,,,,,,,,,,,,,,,3,,,,,,,,,,,,,,,,,,,,,,,,,,,1893.220485,184,left,0.327955,satellite_dish,5,10,1,1,0,1893.237465,1893.237465,1895.738915,0,29,29,29,1,184,5,4,satellite_dish,dolphin     ,html/resources/sequences_IDs/A/10_satellite_dish.jpg,html/resources/sequences_IDs/B/02_dolphin.jpg,10,2,4,2,1,1,8,1,1,53,,,,,,,,,,,,,,,,,,,,
,,,,,53,2020-07-04_16h24.45.684,retriever_ti,2020.1.3,Win32,60,Chrome,1920,1080,,,,,,,,,,,,,,,,,3,,,,,,,,,,,,,,,,,,,,,,,,,,,1896.84064,185,right,0.31603,hat           ,1,8,-5,0,3,1896.85781,1896.85781,1899.359285,0,30,30,30,1,185,6,1,gloves      ,hat           ,html/resources/sequences_IDs/B/06_gloves.jpg,html/resources/sequences_IDs/A/08_hat.jpg,6,8,3,2,3,2,5,7,0,53,,,,,,,,,,,,,,,,,,,,
,,,,,53,2020-07-04_16h24.45.684,retriever_ti,2020.1.3,Win32,60,Chrome,1920,1080,,,,,,,,,,,,,,,,,3,,,,,,,,,,,,,,,,,,,,,,,,,,,1899.96023,186,right,1.84499,dolphin     ,4,2,-2,0,3,1899.977225,1899.977225,1902.479115,0,31,31,31,1,186,6,4,gloves      ,dolphin     ,html/resources/sequences_IDs/B/06_gloves.jpg,html/resources/sequences_IDs/B/02_dolphin.jpg,6,2,3,2,1,1,5,1,0,53,,,,,,,,,,,,,,,,,,,,
,,,,,53,2020-07-04_16h24.45.684,retriever_ti,2020.1.3,Win32,60,Chrome,1920,1080,,,,,,,,,,,,,,,,,3,,,,,,,,,,,,,,,,,,,,,,,,,,,1903.080355,187,left,1.22813,hat           ,1,8,-4,0,3,1903.113965,1903.113965,1905.615585,0,32,32,32,1,187,1,5,hat           ,satellite_dish,html/resources/sequences_IDs/A/08_hat.jpg,html/resources/sequences_IDs/A/10_satellite_dish.jpg,8,10,3,2,4,2,7,8,0,53,,,,,,,,,,,,,,,,,,,,
,,,,,53,2020-07-04_16h24.45.684,retriever_ti,2020.1.3,Win32,60,Chrome,1920,1080,,,,,,,,,,,,,,,,,3,,,,,,,,,,,,,,,,,,,,,,,,,,,1906.21654,188,right,1.64232,hat           ,1,8,-4,0,3,1906.23373,1906.23373,1908.73545,0,33,33,33,1,188,5,1,satellite_dish,hat           ,html/resources/sequences_IDs/A/10_satellite_dish.jpg,html/resources/sequences_IDs/A/08_hat.jpg,10,8,4,2,3,2,8,7,0,53,,,,,,,,,,,,,,,,,,,,
,,,,,53,2020-07-04_16h24.45.684,retriever_ti,2020.1.3,Win32,60,Chrome,1920,1080,,,,,,,,,,,,,,,,,3,,,,,,,,,,,,,,,,,,,,,,,,,,,1909.33665,189,left,1.540735,holdfast    ,8,4,2,1,3,1909.370215,1909.370215,1911.8719,0,34,34,34,1,189,8,6,holdfast    ,gloves      ,html/resources/sequences_IDs/B/04_holdfast.jpg,html/resources/sequences_IDs/B/06_gloves.jpg,4,6,2,1,3,2,3,5,0,53,,,,,,,,,,,,,,,,,,,,
,,,,,53,2020-07-04_16h24.45.684,retriever_ti,2020.1.3,Win32,60,Chrome,1920,1080,,,,,,,,,,,,,,,,,3,,,,,,,,,,,,,,,,,,,,,,,,,,,1912.47276,190,NaN,NaN,No_response,NaN,NaN,NaN,2,2,1912.507295,1912.507295,1915.008445,0,35,35,35,1,190,5,4,satellite_dish,dolphin     ,html/resources/sequences_IDs/A/10_satellite_dish.jpg,html/resources/sequences_IDs/B/02_dolphin.jpg,10,2,4,2,1,1,8,1,0,53,,,,,,,,,,,,,,,,,,,,
,,,,,53,2020-07-04_16h24.45.684,retriever_ti,2020.1.3,Win32,60,Chrome,1920,1080,,,,,,,,,,,,,,,,,3,,,,,,,,,,,,,,,,,,,,,,,,,,,1916.110135,191,right,0.38244,hat           ,1,8,-2,0,3,1916.127495,1916.127495,1918.6288,0,36,36,36,1,191,3,1,camel         ,hat           ,html/resources/sequences_IDs/A/03_camel.jpg,html/resources/sequences_IDs/A/08_hat.jpg,3,8,1,1,3,2,2,7,0,53,,,,,,,,,,,,,,,,,,,,
,,,,,53,2020-07-04_16h24.45.684,retriever_ti,2020.1.3,Win32,60,Chrome,1920,1080,,,,,,,,,,,,,,,,,3,,,,,,,,,,,,,,,,,,,,,,,,,,,1919.23007,192,right,0.50298,peacock       ,7,5,1,1,1,1919.24728,1919.24728,1921.748605,0,37,37,37,1,192,6,7,gloves      ,peacock       ,html/resources/sequences_IDs/B/06_gloves.jpg,html/resources/sequences_IDs/A/05_peacock.jpg,6,5,3,2,2,1,5,4,0,53,,,,,,,,,,,,,,,,,,,,
,,,,,53,2020-07-04_16h24.45.684,retriever_ti,2020.1.3,Win32,60,Chrome,1920,1080,,,,,,,,,,,,,,,,,3,,,,,,,,,,,,,,,,,,,,,,,,,,,1922.850235,193,left,0.76327,peacock       ,7,5,-1,0,0,1922.8674,1922.8674,1925.368845,0,38,38,38,1,193,7,8,peacock       ,holdfast    ,html/resources/sequences_IDs/A/05_peacock.jpg,html/resources/sequences_IDs/B/04_holdfast.jpg,5,4,2,1,2,1,4,3,0,53,,,,,,,,,,,,,,,,,,,,
,,,,,53,2020-07-04_16h24.45.684,retriever_ti,2020.1.3,Win32,60,Chrome,1920,1080,,,,,,,,,,,,,,,,,3,,,,,,,,,,,,,,,,,,,,,,,,,,,1926.470355,194,left,0.365985,hat           ,1,8,-3,0,3,1926.487355,1926.487355,1928.989375,0,39,39,39,1,194,1,4,hat           ,dolphin     ,html/resources/sequences_IDs/A/08_hat.jpg,html/resources/sequences_IDs/B/02_dolphin.jpg,8,2,3,2,1,1,7,1,0,53,,,,,,,,,,,,,,,,,,,,
,,,,,53,2020-07-04_16h24.45.684,retriever_ti,2020.1.3,Win32,60,Chrome,1920,1080,,,,,,,,,,,,,,,,,3,,,,,,,,,,,,,,,,,,,,,,,,,,,1929.591265,195,left,0.509715,peacock       ,7,5,3,1,3,1929.62447,1929.62447,1932.12575,0,40,40,40,1,195,7,4,peacock       ,dolphin     ,html/resources/sequences_IDs/A/05_peacock.jpg,html/resources/sequences_IDs/B/02_dolphin.jpg,5,2,2,1,1,1,4,1,0,53,,,,,,,,,,,,,,,,,,,,
,,,,,53,2020-07-04_16h24.45.684,retriever_ti,2020.1.3,Win32,60,Chrome,1920,1080,,,,,,,,,,,,,,,,,3,,,,,,,,,,,,,,,,,,,,,,,,,,,1932.726625,196,left,0.4941,hat           ,1,8,-6,0,3,1932.76068,1932.76068,1935.26224,0,41,41,41,1,196,1,7,hat           ,peacock       ,html/resources/sequences_IDs/A/08_hat.jpg,html/resources/sequences_IDs/A/05_peacock.jpg,8,5,3,2,2,1,7,4,0,53,,,,,,,,,,,,,,,,,,,,
,,,,,53,2020-07-04_16h24.45.684,retriever_ti,2020.1.3,Win32,60,Chrome,1920,1080,,,,,,,,,,,,,,,,,3,,,,,,,,,,,,,,,,,,,,,,,,,,,1935.86316,197,left,0.446665,peacock       ,7,5,6,1,3,1935.8809,1935.8809,1938.38212,0,42,42,42,1,197,7,1,peacock       ,hat           ,html/resources/sequences_IDs/A/05_peacock.jpg,html/resources/sequences_IDs/A/08_hat.jpg,5,8,2,1,3,2,4,7,0,53,,,,,,,,,,,,,,,,,,,,
,,,,,53,2020-07-04_16h24.45.684,retriever_ti,2020.1.3,Win32,60,Chrome,1920,1080,,,,,,,,,,,,,,,,,3,,,,,,,,,,,,,,,,,,,,,,,,,,,1938.983255,198,right,0.35678,satellite_dish,5,10,-3,0,3,1939.016955,1939.016955,1941.51859,0,43,43,43,1,198,8,5,holdfast    ,satellite_dish,html/resources/sequences_IDs/B/04_holdfast.jpg,html/resources/sequences_IDs/A/10_satellite_dish.jpg,4,10,2,1,4,2,3,8,0,53,,,,,,,,,,,,,,,,,,,,
,,,,,53,2020-07-04_16h24.45.684,retriever_ti,2020.1.3,Win32,60,Chrome,1920,1080,,,,,,,,,,,,,,,,,3,,,,,,,,,,,,,,,,,,,,,,,,,,,1942.119625,199,right,0.68474,holdfast    ,8,4,3,1,3,1942.15331,1942.15331,1944.655295,0,44,44,44,1,199,5,8,satellite_dish,holdfast    ,html/resources/sequences_IDs/A/10_satellite_dish.jpg,html/resources/sequences_IDs/B/04_holdfast.jpg,10,4,4,2,2,1,8,3,0,53,,,,,,,,,,,,,,,,,,,,
,,,,,53,2020-07-04_16h24.45.684,retriever_ti,2020.1.3,Win32,60,Chrome,1920,1080,,,,,,,,,,,,,,,,,3,,,,,,,,,,,,,,,,,,,,,,,,,,,1945.25661,200,right,0.353175,peacock       ,7,5,2,1,3,1945.29004,1945.29004,1947.79159,0,45,45,45,1,200,5,7,satellite_dish,peacock       ,html/resources/sequences_IDs/A/10_satellite_dish.jpg,html/resources/sequences_IDs/A/05_peacock.jpg,10,5,4,2,2,1,8,4,0,53,,,,,,,,,,,,,,,,,,,,
,,,,,53,2020-07-04_16h24.45.684,retriever_ti,2020.1.3,Win32,60,Chrome,1920,1080,,,,,,,,,,,,,,,,,3,,,,,,,,,,,,,,,,,,,,,,,,,,,1948.392525,201,right,0.46003,camel         ,3,3,1,1,1,1948.409655,1948.409655,1950.911435,0,46,46,46,1,201,2,3,sport_tshirt,camel         ,html/resources/sequences_IDs/B/07_sport_tshirt.jpg,html/resources/sequences_IDs/A/03_camel.jpg,7,3,3,2,1,1,6,2,0,53,,,,,,,,,,,,,,,,,,,,
,,,,,53,2020-07-04_16h24.45.684,retriever_ti,2020.1.3,Win32,60,Chrome,1920,1080,,,,,,,,,,,,,,,,,3,,,,,,,,,,,,,,,,,,,,,,,,,,,1952.01313,202,right,0.517265,camel         ,3,3,1,1,1,1952.02993,1952.02993,1954.531795,0,47,47,47,1,202,2,3,sport_tshirt,camel         ,html/resources/sequences_IDs/B/07_sport_tshirt.jpg,html/resources/sequences_IDs/A/03_camel.jpg,7,3,3,2,1,1,6,2,0,53,,,,,,,,,,,,,,,,,,,,
,,,,,53,2020-07-04_16h24.45.684,retriever_ti,2020.1.3,Win32,60,Chrome,1920,1080,,,,,,,,,,,,,,,,,3,,,,,,,,,,,,,,,,,,,,,,,,,,,1955.633425,203,left,0.37603,camel         ,3,3,1,1,1,1955.65093,1955.65093,1958.15208,0,48,48,48,1,203,3,2,camel         ,sport_tshirt,html/resources/sequences_IDs/A/03_camel.jpg,html/resources/sequences_IDs/B/07_sport_tshirt.jpg,3,7,1,1,3,2,2,6,0,53,,,,,,,,,,,,,,,,,,,,
,,,,,53,2020-07-04_16h24.45.684,retriever_ti,2020.1.3,Win32,60,Chrome,1920,1080,,,,,,,,,,,,,,,,,3,,,,,,,,,,,,,,,,,,,,,,,,,,,1959.253805,204,left,0.85283,holdfast    ,8,4,6,1,3,1959.287455,1959.287455,1961.78923,0,49,49,49,1,204,8,2,holdfast    ,sport_tshirt,html/resources/sequences_IDs/B/04_holdfast.jpg,html/resources/sequences_IDs/B/07_sport_tshirt.jpg,4,7,2,1,3,2,3,6,0,53,,,,,,,,,,,,,,,,,,,,
,,,,,53,2020-07-04_16h24.45.684,retriever_ti,2020.1.3,Win32,60,Chrome,1920,1080,,,,,,,,,,,,,,,,,3,,,,,,,,,,,,,,,,,,,,,,,,,,,1962.389945,205,left,0.741675,sport_tshirt,2,7,-6,0,3,1962.407995,1962.407995,1964.90893,0,50,50,50,1,205,2,8,sport_tshirt,holdfast    ,html/resources/sequences_IDs/B/07_sport_tshirt.jpg,html/resources/sequences_IDs/B/04_holdfast.jpg,7,4,3,2,2,1,6,3,0,53,,,,,,,,,,,,,,,,,,,,
,,,,,53,2020-07-04_16h24.45.684,retriever_ti,2020.1.3,Win32,60,Chrome,1920,1080,,,,,,,,,,,,,,,,,3,,,,,,,,,,,,,,,,,,,,,,,,,,,1965.51015,206,left,0.591055,camel         ,3,3,-2,0,3,1965.543795,1965.543795,1968.045395,0,51,51,51,1,206,3,5,camel         ,satellite_dish,html/resources/sequences_IDs/A/03_camel.jpg,html/resources/sequences_IDs/A/10_satellite_dish.jpg,3,10,1,1,4,2,2,8,0,53,,,,,,,,,,,,,,,,,,,,
,,,,,53,2020-07-04_16h24.45.684,retriever_ti,2020.1.3,Win32,60,Chrome,1920,1080,,,,,,,,,,,,,,,,,3,,,,,,,,,,,,,,,,,,,,,,,,,,,1968.646555,207,right,0.80347,sport_tshirt,2,7,1,1,1,1968.663625,1968.663625,1971.165235,0,52,52,52,1,207,1,2,hat           ,sport_tshirt,html/resources/sequences_IDs/A/08_hat.jpg,html/resources/sequences_IDs/B/07_sport_tshirt.jpg,8,7,3,2,3,2,7,6,0,53,,,,,,,,,,,,,,,,,,,,
,,,,,53,2020-07-04_16h24.45.684,retriever_ti,2020.1.3,Win32,60,Chrome,1920,1080,,,,,,,,,,,,,,,,,3,,,,,,,,,,,,,,,,,,,,,,,,,,,1972.266975,208,left,0.735685,peacock       ,7,5,-1,0,0,1972.283755,1972.283755,1974.78563,0,53,53,53,1,208,7,8,peacock       ,holdfast    ,html/resources/sequences_IDs/A/05_peacock.jpg,html/resources/sequences_IDs/B/04_holdfast.jpg,5,4,2,1,2,1,4,3,0,53,,,,,,,,,,,,,,,,,,,,
,,,,,53,2020-07-04_16h24.45.684,retriever_ti,2020.1.3,Win32,60,Chrome,1920,1080,,,,,,,,,,,,,,,,,3,,,,,,,,,,,,,,,,,,,,,,,,,,,1975.887315,209,right,0.597185,sport_tshirt,2,7,-1,0,0,1975.904195,1975.904195,1978.405895,0,54,54,54,1,209,3,2,camel         ,sport_tshirt,html/resources/sequences_IDs/A/03_camel.jpg,html/resources/sequences_IDs/B/07_sport_tshirt.jpg,3,7,1,1,3,2,2,6,0,53,,,,,,,,,,,,,,,,,,,,
,,,,,53,2020-07-04_16h24.45.684,retriever_ti,2020.1.3,Win32,60,Chrome,1920,1080,,,,,,,,,,,,,,,,,3,,,,,,,,,,,,,,,,,,,,,,,,,,,1979.50851,210,left,0.776455,sport_tshirt,2,7,1,1,1,1979.524745,1979.524745,1982.0263,0,55,55,55,1,210,2,1,sport_tshirt,hat           ,html/resources/sequences_IDs/B/07_sport_tshirt.jpg,html/resources/sequences_IDs/A/08_hat.jpg,7,8,3,2,3,2,6,7,0,53,,,,,,,,,,,,,,,,,,,,
,,,,,53,2020-07-04_16h24.45.684,retriever_ti,2020.1.3,Win32,60,Chrome,1920,1080,,,,,,,,,,,,,,,,,3,,,,,,,,,,,,,,,,,,,,,,,,,,,1983.128015,211,right,0.60448,camel         ,3,3,-3,0,3,1983.16196,1983.16196,1985.66325,0,56,56,56,1,211,6,3,gloves      ,camel         ,html/resources/sequences_IDs/B/06_gloves.jpg,html/resources/sequences_IDs/A/03_camel.jpg,6,3,3,2,1,1,5,2,0,53,,,,,,,,,,,,,,,,,,,,
,,,,,53,2020-07-04_16h24.45.684,retriever_ti,2020.1.3,Win32,60,Chrome,1920,1080,,,,,,,,,,,,,,,,,3,,,,,,,,,,,,,,,,,,,,,,,,,,,1986.26471,212,left,0.811275,holdfast    ,8,4,1,1,1,1986.28307,1986.28307,1988.783115,0,57,57,57,1,212,8,7,holdfast    ,peacock       ,html/resources/sequences_IDs/B/04_holdfast.jpg,html/resources/sequences_IDs/A/05_peacock.jpg,4,5,2,1,2,1,3,4,0,53,,,,,,,,,,,,,,,,,,,,
,,,,,53,2020-07-04_16h24.45.684,retriever_ti,2020.1.3,Win32,60,Chrome,1920,1080,,,,,,,,,,,,,,,,,3,,,,,,,,,,,,,,,,,,,,,,,,,,,1989.884825,213,left,0.3599,camel         ,3,3,-4,0,3,1989.901665,1989.901665,1992.403515,0,58,58,58,1,213,3,7,camel         ,peacock       ,html/resources/sequences_IDs/A/03_camel.jpg,html/resources/sequences_IDs/A/05_peacock.jpg,3,5,1,1,2,1,2,4,0,53,,,,,,,,,,,,,,,,,,,,
,,,,,53,2020-07-04_16h24.45.684,retriever_ti,2020.1.3,Win32,60,Chrome,1920,1080,,,,,,,,,,,,,,,,,3,,,,,,,,,,,,,,,,,,,,,,,,,,,1993.004655,214,left,0.901735,satellite_dish,5,10,-1,0,1,1993.02155,1993.02155,1995.52389,0,59,59,59,1,214,5,6,satellite_dish,gloves      ,html/resources/sequences_IDs/A/10_satellite_dish.jpg,html/resources/sequences_IDs/B/06_gloves.jpg,10,6,4,2,3,2,8,5,1,53,,,,,,,,,,,,,,,,,,,,
,,,,,53,2020-07-04_16h24.45.684,retriever_ti,2020.1.3,Win32,60,Chrome,1920,1080,,,,,,,,,,,,,,,,,3,,,,,,,,,,,,,,,,,,,,,,,,,,,1996.62459,215,left,0.42027,peacock       ,7,5,4,1,3,1996.65878,1996.65878,1999.160315,0,60,60,60,1,215,7,3,peacock       ,camel         ,html/resources/sequences_IDs/A/05_peacock.jpg,html/resources/sequences_IDs/A/03_camel.jpg,5,3,2,1,1,1,4,2,0,53,,,,,,,,,,,,,,,,,,,,
,,,,,53,2020-07-04_16h24.45.684,retriever_ti,2020.1.3,Win32,60,Chrome,1920,1080,,,,,,,,,,,,,,,,,3,,,,,,,,,,,,,,,,,,,,,,,,,,,1999.76195,216,right,0.77046,camel         ,3,3,-5,0,3,1999.77883,1999.77883,2002.280045,0,61,61,61,1,216,8,3,holdfast    ,camel         ,html/resources/sequences_IDs/B/04_holdfast.jpg,html/resources/sequences_IDs/A/03_camel.jpg,4,3,2,1,1,1,3,2,0,53,,,,,,,,,,,,,,,,,,,,
,,,,,53,2020-07-04_16h24.45.684,retriever_ti,2020.1.3,Win32,60,Chrome,1920,1080,,,,,,,,,,,,,,,,,3,,,,,,,,,,,,,,,,,,,,,,,,,,,2002.88149,217,NaN,NaN,No_response,NaN,NaN,NaN,2,2,2002.914915,2002.914915,2005.416545,0,62,62,62,1,217,5,4,satellite_dish,dolphin     ,html/resources/sequences_IDs/A/10_satellite_dish.jpg,html/resources/sequences_IDs/B/02_dolphin.jpg,10,2,4,2,1,1,8,1,0,53,,,,,,,,,,,,,,,,,,,,
,,,,,53,2020-07-04_16h24.45.684,retriever_ti,2020.1.3,Win32,60,Chrome,1920,1080,,,,,,,,,,,,,,,,,3,,,,,,,,,,,,,,,,,,,,,,,,,,,2006.518045,218,right,0.35893,camel         ,3,3,-1,0,0,2006.53518,2006.53518,2009.036935,0,63,63,63,1,218,4,3,dolphin     ,camel         ,html/resources/sequences_IDs/B/02_dolphin.jpg,html/resources/sequences_IDs/A/03_camel.jpg,2,3,1,1,1,1,1,2,0,53,,,,,,,,,,,,,,,,,,,,
