instructionsLoop.thisRepN,instructionsLoop.thisTrialN,instructionsLoop.thisN,instructionsLoop.thisIndex,instructionsLoop.ran,participant,date,expName,psychopyVersion,OS,frameRate,browser,xResolution,yResolution,fix_onset,tprac,practiceKey.keys,practiceKey.rt,pracitem_chosen_name,acc_practice,P1_onsetPrac,P2_onsetPrac,onsetFeedbPrac,practiceTrials.thisRepN,practiceTrials.thisTrialN,practiceTrials.thisN,practiceTrials.thisIndex,practiceTrials.ran,P1,P2,Block,LocItem1,LocItem2,NameItem1,NameItem2,key_respAC_prac.keys,key_respAC_prac.corr,key_respAC_prac.rt,AC_acc,Attentions.thisRepN,Attentions.thisTrialN,Attentions.thisN,Attentions.thisIndex,Attentions.ran,Stim,Loc1,Loc2,Loc3,Loc4,CorrAns,keyDisturbed.keys,keyDisturbed.rt,repPractice.thisRepN,repPractice.thisTrialN,repPractice.thisN,repPractice.thisIndex,repPractice.ran,fixcross_onsetMain,trialNumber,key_resp.keys,key_resp.rt,item_chosen_name,item_chosen_value,item_chosen_ID,diff_chosen_minus_reject,acc_real,acc_feedback,P1_onset,P2_onset,feedb_onset,trials.thisRepN,trials.thisTrialN,trials.thisN,trials.thisIndex,trials.ran,Trial,ValueP1,ValueP2,P1name,P2name,P1Loc,P2Loc,P1id,P2id,Micro_categoryP1,Macro_categoryP1,Micro_categoryP2,Macro_categoryP2,ID_sequenceP1,ID_sequenceP2,InverseFb,pNumber,repBlocks.thisRepN,repBlocks.thisTrialN,repBlocks.thisN,repBlocks.thisIndex,repBlocks.ran,key_respAC.keys,key_respAC.corr,key_respAC.rt,trials_AC.thisRepN,trials_AC.thisTrialN,trials_AC.thisN,trials_AC.thisIndex,trials_AC.ran,Bonus,BonusLoop.thisRepN,BonusLoop.thisTrialN,BonusLoop.thisN,BonusLoop.thisIndex,BonusLoop.ran,comments
0,0,0,0,1,54,2020-07-04_16h25.11.584,retriever_ti,2020.1.3,Win32,60,Chrome,1920,1080,,,,,,,,,,,,,,,,,,,,,,,,,,,,,,,,,,,,,,,,,,,,,,,,,,,,,,,,,,,,,,,,,,,,,,,,,,,,,,,,,,,,,,,,,,,,,,,,,,
1,0,1,0,1,54,2020-07-04_16h25.11.584,retriever_ti,2020.1.3,Win32,60,Chrome,1920,1080,,,,,,,,,,,,,,,,,,,,,,,,,,,,,,,,,,,,,,,,,,,,,,,,,,,,,,,,,,,,,,,,,,,,,,,,,,,,,,,,,,,,,,,,,,,,,,,,,,
2,0,2,0,1,54,2020-07-04_16h25.11.584,retriever_ti,2020.1.3,Win32,60,Chrome,1920,1080,,,,,,,,,,,,,,,,,,,,,,,,,,,,,,,,,,,,,,,,,,,,,,,,,,,,,,,,,,,,,,,,,,,,,,,,,,,,,,,,,,,,,,,,,,,,,,,,,,
3,0,3,0,1,54,2020-07-04_16h25.11.584,retriever_ti,2020.1.3,Win32,60,Chrome,1920,1080,,,,,,,,,,,,,,,,,,,,,,,,,,,,,,,,,,,,,,,,,,,,,,,,,,,,,,,,,,,,,,,,,,,,,,,,,,,,,,,,,,,,,,,,,,,,,,,,,,
4,0,4,0,1,54,2020-07-04_16h25.11.584,retriever_ti,2020.1.3,Win32,60,Chrome,1920,1080,,,,,,,,,,,,,,,,,,,,,,,,,,,,,,,,,,,,,,,,,,,,,,,,,,,,,,,,,,,,,,,,,,,,,,,,,,,,,,,,,,,,,,,,,,,,,,,,,,
5,0,5,0,1,54,2020-07-04_16h25.11.584,retriever_ti,2020.1.3,Win32,60,Chrome,1920,1080,,,,,,,,,,,,,,,,,,,,,,,,,,,,,,,,,,,,,,,,,,,,,,,,,,,,,,,,,,,,,,,,,,,,,,,,,,,,,,,,,,,,,,,,,,,,,,,,,,
6,0,6,0,1,54,2020-07-04_16h25.11.584,retriever_ti,2020.1.3,Win32,60,Chrome,1920,1080,,,,,,,,,,,,,,,,,,,,,,,,,,,,,,,,,,,,,,,,,,,,,,,,,,,,,,,,,,,,,,,,,,,,,,,,,,,,,,,,,,,,,,,,,,,,,,,,,,
7,0,7,0,1,54,2020-07-04_16h25.11.584,retriever_ti,2020.1.3,Win32,60,Chrome,1920,1080,,,,,,,,,,,,,,,,,,,,,,,,,,,,,,,,,,,,,,,,,,,,,,,,,,,,,,,,,,,,,,,,,,,,,,,,,,,,,,,,,,,,,,,,,,,,,,,,,,
8,0,8,0,1,54,2020-07-04_16h25.11.584,retriever_ti,2020.1.3,Win32,60,Chrome,1920,1080,,,,,,,,,,,,,,,,,,,,,,,,,,,,,,,,,,,,,,,,,,,,,,,,,,,,,,,,,,,,,,,,,,,,,,,,,,,,,,,,,,,,,,,,,,,,,,,,,,
9,0,9,0,1,54,2020-07-04_16h25.11.584,retriever_ti,2020.1.3,Win32,60,Chrome,1920,1080,,,,,,,,,,,,,,,,,,,,,,,,,,,,,,,,,,,,,,,,,,,,,,,,,,,,,,,,,,,,,,,,,,,,,,,,,,,,,,,,,,,,,,,,,,,,,,,,,,
10,0,10,0,1,54,2020-07-04_16h25.11.584,retriever_ti,2020.1.3,Win32,60,Chrome,1920,1080,,,,,,,,,,,,,,,,,,,,,,,,,,,,,,,,,,,,,,,,,,,,,,,,,,,,,,,,,,,,,,,,,,,,,,,,,,,,,,,,,,,,,,,,,,,,,,,,,,
11,0,11,0,1,54,2020-07-04_16h25.11.584,retriever_ti,2020.1.3,Win32,60,Chrome,1920,1080,,,,,,,,,,,,,,,,,,,,,,,,,,,,,,,,,,,,,,,,,,,,,,,,,,,,,,,,,,,,,,,,,,,,,,,,,,,,,,,,,,,,,,,,,,,,,,,,,,
12,0,12,0,1,54,2020-07-04_16h25.11.584,retriever_ti,2020.1.3,Win32,60,Chrome,1920,1080,,,,,,,,,,,,,,,,,,,,,,,,,,,,,,,,,,,,,,,,,,,,,,,,,,,,,,,,,,,,,,,,,,,,,,,,,,,,,,,,,,,,,,,,,,,,,,,,,,
13,0,13,0,1,54,2020-07-04_16h25.11.584,retriever_ti,2020.1.3,Win32,60,Chrome,1920,1080,,,,,,,,,,,,,,,,,,,,,,,,,,,,,,,,,,,,,,,,,,,,,,,,,,,,,,,,,,,,,,,,,,,,,,,,,,,,,,,,,,,,,,,,,,,,,,,,,,
14,0,14,0,1,54,2020-07-04_16h25.11.584,retriever_ti,2020.1.3,Win32,60,Chrome,1920,1080,,,,,,,,,,,,,,,,,,,,,,,,,,,,,,,,,,,,,,,,,,,,,,,,,,,,,,,,,,,,,,,,,,,,,,,,,,,,,,,,,,,,,,,,,,,,,,,,,,
15,0,15,0,1,54,2020-07-04_16h25.11.584,retriever_ti,2020.1.3,Win32,60,Chrome,1920,1080,,,,,,,,,,,,,,,,,,,,,,,,,,,,,,,,,,,,,,,,,,,,,,,,,,,,,,,,,,,,,,,,,,,,,,,,,,,,,,,,,,,,,,,,,,,,,,,,,,
16,0,16,0,1,54,2020-07-04_16h25.11.584,retriever_ti,2020.1.3,Win32,60,Chrome,1920,1080,,,,,,,,,,,,,,,,,,,,,,,,,,,,,,,,,,,,,,,,,,,,,,,,,,,,,,,,,,,,,,,,,,,,,,,,,,,,,,,,,,,,,,,,,,,,,,,,,,
,,,,,54,2020-07-04_16h25.11.584,retriever_ti,2020.1.3,Win32,60,Chrome,1920,1080,213.270195,1,NaN,NaN,No_response,2,213.27869,213.27869,215.77811,0,0,0,0,1,2,5,1,html/resources/stimuli_practice_decision/04_beetle.jpg,html/resources/stimuli_practice_decision/02_canary.jpg,beetle,canary,,,,,,,,,,,,,,,,,,,,,,,,,,,,,,,,,,,,,,,,,,,,,,,,,,,,,,,,,,,,,,,,,,,,,,,,,,,,,
,,,,,54,2020-07-04_16h25.11.584,retriever_ti,2020.1.3,Win32,60,Chrome,1920,1080,216.313145,2,NaN,NaN,No_response,2,216.345395,216.345395,218.84417,0,1,1,1,1,4,3,1,html/resources/stimuli_practice_decision/01_rabbit.jpg,html/resources/stimuli_practice_decision/07_sock.jpg,rabbit,sock,,,,,,,,,,,,,,,,,,,,,,,,,,,,,,,,,,,,,,,,,,,,,,,,,,,,,,,,,,,,,,,,,,,,,,,,,,,,,
,,,,,54,2020-07-04_16h25.11.584,retriever_ti,2020.1.3,Win32,60,Chrome,1920,1080,219.344795,3,left,1.220655,pullover,1,219.378635,219.378635,221.878065,0,2,2,2,1,6,2,1,html/resources/stimuli_practice_decision/06_pullover.jpg,html/resources/stimuli_practice_decision/04_beetle.jpg,pullover,beetle,,,,,,,,,,,,,,,,,,,,,,,,,,,,,,,,,,,,,,,,,,,,,,,,,,,,,,,,,,,,,,,,,,,,,,,,,,,,,
,,,,,54,2020-07-04_16h25.11.584,retriever_ti,2020.1.3,Win32,60,Chrome,1920,1080,222.39519,4,right,1.15358,handmixer,0,222.412105,222.412105,224.911385,0,3,3,3,1,7,1,1,html/resources/stimuli_practice_decision/05_glasses.jpg,html/resources/stimuli_practice_decision/08_handmixer.jpg,glasses,handmixer,,,,,,,,,,,,,,,,,,,,,,,,,,,,,,,,,,,,,,,,,,,,,,,,,,,,,,,,,,,,,,,,,,,,,,,,,,,,,
,,,,,54,2020-07-04_16h25.11.584,retriever_ti,2020.1.3,Win32,60,Chrome,1920,1080,225.42832,5,right,1.24717,pullover,0,225.44546,225.44546,227.944915,0,4,4,4,1,7,6,1,html/resources/stimuli_practice_decision/05_glasses.jpg,html/resources/stimuli_practice_decision/06_pullover.jpg,glasses,pullover,,,,,,,,,,,,,,,,,,,,,,,,,,,,,,,,,,,,,,,,,,,,,,,,,,,,,,,,,,,,,,,,,,,,,,,,,,,,,
,,,,,54,2020-07-04_16h25.11.584,retriever_ti,2020.1.3,Win32,60,Chrome,1920,1080,228.94558,6,left,1.42528,rabbit,0,228.962475,228.962475,231.4618,0,5,5,5,1,4,7,1,html/resources/stimuli_practice_decision/01_rabbit.jpg,html/resources/stimuli_practice_decision/05_glasses.jpg,rabbit,glasses,,,,,,,,,,,,,,,,,,,,,,,,,,,,,,,,,,,,,,,,,,,,,,,,,,,,,,,,,,,,,,,,,,,,,,,,,,,,,
,,,,,54,2020-07-04_16h25.11.584,retriever_ti,2020.1.3,Win32,60,Chrome,1920,1080,231.97899,7,left,1.24152,handmixer,0,231.99583,231.99583,234.495255,0,6,6,6,1,1,2,1,html/resources/stimuli_practice_decision/08_handmixer.jpg,html/resources/stimuli_practice_decision/04_beetle.jpg,handmixer,beetle,,,,,,,,,,,,,,,,,,,,,,,,,,,,,,,,,,,,,,,,,,,,,,,,,,,,,,,,,,,,,,,,,,,,,,,,,,,,,
,,,,,54,2020-07-04_16h25.11.584,retriever_ti,2020.1.3,Win32,60,Chrome,1920,1080,235.49536,8,left,1.03909,rabbit,1,235.512615,235.512615,238.011805,0,7,7,7,1,4,3,1,html/resources/stimuli_practice_decision/01_rabbit.jpg,html/resources/stimuli_practice_decision/07_sock.jpg,rabbit,sock,,,,,,,,,,,,,,,,,,,,,,,,,,,,,,,,,,,,,,,,,,,,,,,,,,,,,,,,,,,,,,,,,,,,,,,,,,,,,
,,,,,54,2020-07-04_16h25.11.584,retriever_ti,2020.1.3,Win32,60,Chrome,1920,1080,,,,,,,,,,,,,,,,,,,,,,up,1,5.32709,1,0,0,0,0,1,html/resources/sequences_IDs/circle.png,circle ↑,square →,triangle ↓,← star ,up,,,,,,,,,,,,,,,,,,,,,,,,,,,,,,,,,,,,,,,,,,,,,,,,,,,,,,,,,,,,,,
,,,,,54,2020-07-04_16h25.11.584,retriever_ti,2020.1.3,Win32,60,Chrome,1920,1080,,,,,,,,,,,,,,,,,,,,,,down,1,3.468525,1,0,1,1,3,1,html/resources/sequences_IDs/triangle.png,star ↑,square →,triangle ↓,← circle,down,,,,,,,,,,,,,,,,,,,,,,,,,,,,,,,,,,,,,,,,,,,,,,,,,,,,,,,,,,,,,,
,,,,,54,2020-07-04_16h25.11.584,retriever_ti,2020.1.3,Win32,60,Chrome,1920,1080,,,,,,,,,,,,,,,,,,,,,,left,1,1.77899,1,0,2,2,2,1,html/resources/sequences_IDs/square1.png,star ↑,triangle →,circle ↓,← square,left,,,,,,,,,,,,,,,,,,,,,,,,,,,,,,,,,,,,,,,,,,,,,,,,,,,,,,,,,,,,,,
,,,,,54,2020-07-04_16h25.11.584,retriever_ti,2020.1.3,Win32,60,Chrome,1920,1080,,,,,,,,,,,,,,,,,,,,,,down,1,1.723585,1,0,3,3,1,1,html/resources/sequences_IDs/star.png,square ↑,circle →,star ↓,← triangle,down,,,,,,,,,,,,,,,,,,,,,,,,,,,,,,,,,,,,,,,,,,,,,,,,,,,,,,,,,,,,,,
,,,,,54,2020-07-04_16h25.11.584,retriever_ti,2020.1.3,Win32,60,Chrome,1920,1080,,,,,,,,,,,,,,,,,,,,,,,,,,,,,,,,,,,,,0,18.922955,0,0,0,0,1,,,,,,,,,,,,,,,,,,,,,,,,,,,,,,,,,,,,,,,,,,,,,,,,,,,,,,,
,,,,,54,2020-07-04_16h25.11.584,retriever_ti,2020.1.3,Win32,60,Chrome,1920,1080,275.62307,9,left,1.04847,pullover,0,275.647715,275.647715,278.146825,0,0,0,0,1,6,7,1,html/resources/stimuli_practice_decision/06_pullover.jpg,html/resources/stimuli_practice_decision/05_glasses.jpg,pullover,glasses,,,,,,,,,,,,,,,,,,,,,,,,,,,,,,,,,,,,,,,,,,,,,,,,,,,,,,,,,,,,,,,,,,,,,,,,,,,,,
,,,,,54,2020-07-04_16h25.11.584,retriever_ti,2020.1.3,Win32,60,Chrome,1920,1080,279.147855,10,left,1.948495,pullover,1,279.18107,279.18107,281.680275,0,1,1,1,1,6,2,1,html/resources/stimuli_practice_decision/06_pullover.jpg,html/resources/stimuli_practice_decision/04_beetle.jpg,pullover,beetle,,,,,,,,,,,,,,,,,,,,,,,,,,,,,,,,,,,,,,,,,,,,,,,,,,,,,,,,,,,,,,,,,,,,,,,,,,,,,
,,,,,54,2020-07-04_16h25.11.584,retriever_ti,2020.1.3,Win32,60,Chrome,1920,1080,282.197385,11,left,1.470805,canary,0,282.214515,282.214515,284.713745,0,2,2,2,1,5,6,1,html/resources/stimuli_practice_decision/02_canary.jpg,html/resources/stimuli_practice_decision/06_pullover.jpg,canary,pullover,,,,,,,,,,,,,,,,,,,,,,,,,,,,,,,,,,,,,,,,,,,,,,,,,,,,,,,,,,,,,,,,,,,,,,,,,,,,,
,,,,,54,2020-07-04_16h25.11.584,retriever_ti,2020.1.3,Win32,60,Chrome,1920,1080,285.714425,12,right,1.633955,glasses,0,285.747915,285.747915,288.24728,0,3,3,3,1,8,7,1,html/resources/stimuli_practice_decision/03_squirrel.jpg,html/resources/stimuli_practice_decision/05_glasses.jpg,squirrel,glasses,,,,,,,,,,,,,,,,,,,,,,,,,,,,,,,,,,,,,,,,,,,,,,,,,,,,,,,,,,,,,,,,,,,,,,,,,,,,,
,,,,,54,2020-07-04_16h25.11.584,retriever_ti,2020.1.3,Win32,60,Chrome,1920,1080,289.24779,13,left,0.973765,canary,1,289.28142,289.28142,291.780745,0,4,4,4,1,5,3,1,html/resources/stimuli_practice_decision/02_canary.jpg,html/resources/stimuli_practice_decision/07_sock.jpg,canary,sock,,,,,,,,,,,,,,,,,,,,,,,,,,,,,,,,,,,,,,,,,,,,,,,,,,,,,,,,,,,,,,,,,,,,,,,,,,,,,
,,,,,54,2020-07-04_16h25.11.584,retriever_ti,2020.1.3,Win32,60,Chrome,1920,1080,292.297495,14,left,1.769815,glasses,0,292.331235,292.331235,294.83092,0,5,5,5,1,7,8,1,html/resources/stimuli_practice_decision/05_glasses.jpg,html/resources/stimuli_practice_decision/03_squirrel.jpg,glasses,squirrel,,,,,,,,,,,,,,,,,,,,,,,,,,,,,,,,,,,,,,,,,,,,,,,,,,,,,,,,,,,,,,,,,,,,,,,,,,,,,
,,,,,54,2020-07-04_16h25.11.584,retriever_ti,2020.1.3,Win32,60,Chrome,1920,1080,295.831465,15,left,1.39278,canary,1,295.865105,295.865105,298.36445,0,6,6,6,1,5,4,1,html/resources/stimuli_practice_decision/02_canary.jpg,html/resources/stimuli_practice_decision/01_rabbit.jpg,canary,rabbit,,,,,,,,,,,,,,,,,,,,,,,,,,,,,,,,,,,,,,,,,,,,,,,,,,,,,,,,,,,,,,,,,,,,,,,,,,,,,
,,,,,54,2020-07-04_16h25.11.584,retriever_ti,2020.1.3,Win32,60,Chrome,1920,1080,299.365035,16,left,1.349705,canary,1,299.398885,299.398885,301.89798,0,7,7,7,1,5,3,1,html/resources/stimuli_practice_decision/02_canary.jpg,html/resources/stimuli_practice_decision/07_sock.jpg,canary,sock,,,,,,,,,,,,,,,,,,,,,,,,,,,,,,,,,,,,,,,,,,,,,,,,,,,,,,,,,,,,,,,,,,,,,,,,,,,,,
,,,,,54,2020-07-04_16h25.11.584,retriever_ti,2020.1.3,Win32,60,Chrome,1920,1080,,,,,,,,,,,,,,,,,,,,,,up,1,4.687755,1,0,0,0,0,1,html/resources/sequences_IDs/circle.png,circle ↑,square →,triangle ↓,← star ,up,,,,,,,,,,,,,,,,,,,,,,,,,,,,,,,,,,,,,,,,,,,,,,,,,,,,,,,,,,,,,,
,,,,,54,2020-07-04_16h25.11.584,retriever_ti,2020.1.3,Win32,60,Chrome,1920,1080,,,,,,,,,,,,,,,,,,,,,,left,1,2.31013,1,0,1,1,2,1,html/resources/sequences_IDs/square1.png,star ↑,triangle →,circle ↓,← square,left,,,,,,,,,,,,,,,,,,,,,,,,,,,,,,,,,,,,,,,,,,,,,,,,,,,,,,,,,,,,,,
,,,,,54,2020-07-04_16h25.11.584,retriever_ti,2020.1.3,Win32,60,Chrome,1920,1080,,,,,,,,,,,,,,,,,,,,,,right,0,0.95887,0,0,2,2,1,1,html/resources/sequences_IDs/star.png,square ↑,circle →,star ↓,← triangle,down,,,,,,,,,,,,,,,,,,,,,,,,,,,,,,,,,,,,,,,,,,,,,,,,,,,,,,,,,,,,,,
,,,,,54,2020-07-04_16h25.11.584,retriever_ti,2020.1.3,Win32,60,Chrome,1920,1080,,,,,,,,,,,,,,,,,,,,,,down,1,1.09636,1,0,3,3,3,1,html/resources/sequences_IDs/triangle.png,star ↑,square →,triangle ↓,← circle,down,,,,,,,,,,,,,,,,,,,,,,,,,,,,,,,,,,,,,,,,,,,,,,,,,,,,,,,,,,,,,,
,,,,,54,2020-07-04_16h25.11.584,retriever_ti,2020.1.3,Win32,60,Chrome,1920,1080,,,,,,,,,,,,,,,,,,,,,,,,,,,,,,,,,,,,,0,3.36915,1,0,1,0,1,,,,,,,,,,,,,,,,,,,,,,,,,,,,,,,,,,,,,,,,,,,,,,,,,,,,,,,
,,,,,54,2020-07-04_16h25.11.584,retriever_ti,2020.1.3,Win32,60,Chrome,1920,1080,,,,,,,,,,,,,,,,,1,,,,,,,,,,,,,,,,,,,,,,,,,,,324.14662,1,left,1.749275,giraffe     ,4,3,1,1,1,324.166035,324.166035,326.66606,0,0,0,0,1,1,4,3,giraffe     ,seaturtle     ,html/resources/sequences_IDs/B/03_giraffe.jpg,html/resources/sequences_IDs/A/02_seaturtle.jpg,3,2,1,1,2,1,3,2,0,54,,,,,,,,,,,,,,,,,,,,
,,,,,54,2020-07-04_16h25.11.584,retriever_ti,2020.1.3,Win32,60,Chrome,1920,1080,,,,,,,,,,,,,,,,,1,,,,,,,,,,,,,,,,,,,,,,,,,,,327.76625,2,right,1.884865,seaturtle     ,3,2,2,1,3,327.784815,327.784815,330.28248,0,1,1,1,1,2,1,3,dress         ,seaturtle     ,html/resources/sequences_IDs/A/07_dress.jpg,html/resources/sequences_IDs/A/02_seaturtle.jpg,7,2,3,2,2,1,6,2,0,54,,,,,,,,,,,,,,,,,,,,
,,,,,54,2020-07-04_16h25.11.584,retriever_ti,2020.1.3,Win32,60,Chrome,1920,1080,,,,,,,,,,,,,,,,,1,,,,,,,,,,,,,,,,,,,,,,,,,,,330.89953,3,right,1.311465,calculator    ,5,9,3,1,3,330.933185,330.933185,333.43251,0,2,2,2,1,3,2,5,slipper     ,calculator    ,html/resources/sequences_IDs/B/08_slipper.jpg,html/resources/sequences_IDs/A/09_calculator.jpg,8,9,3,2,4,2,7,8,0,54,,,,,,,,,,,,,,,,,,,,
,,,,,54,2020-07-04_16h25.11.584,retriever_ti,2020.1.3,Win32,60,Chrome,1920,1080,,,,,,,,,,,,,,,,,1,,,,,,,,,,,,,,,,,,,,,,,,,,,334.049485,4,right,1.27691,parrot      ,6,5,-1,0,0,334.083345,334.083345,336.582575,0,3,3,3,1,4,7,6,wolf          ,parrot      ,html/resources/sequences_IDs/A/01_wolf.jpg,html/resources/sequences_IDs/B/05_parrot.jpg,1,5,1,1,2,1,1,4,0,54,,,,,,,,,,,,,,,,,,,,
,,,,,54,2020-07-04_16h25.11.584,retriever_ti,2020.1.3,Win32,60,Chrome,1920,1080,,,,,,,,,,,,,,,,,1,,,,,,,,,,,,,,,,,,,,,,,,,,,337.68304,5,left,0.85567,calculator    ,5,9,3,1,3,337.716825,337.716825,340.216095,0,4,4,4,1,5,5,2,calculator    ,slipper     ,html/resources/sequences_IDs/A/09_calculator.jpg,html/resources/sequences_IDs/B/08_slipper.jpg,9,8,4,2,3,2,8,7,0,54,,,,,,,,,,,,,,,,,,,,
,,,,,54,2020-07-04_16h25.11.584,retriever_ti,2020.1.3,Win32,60,Chrome,1920,1080,,,,,,,,,,,,,,,,,1,,,,,,,,,,,,,,,,,,,,,,,,,,,340.833455,6,left,1.162305,wolf          ,7,1,-1,0,0,340.850405,340.850405,343.34948,0,5,5,5,1,6,7,8,wolf          ,gloves      ,html/resources/sequences_IDs/A/01_wolf.jpg,html/resources/sequences_IDs/B/06_gloves.jpg,1,6,1,1,3,2,1,5,0,54,,,,,,,,,,,,,,,,,,,,
,,,,,54,2020-07-04_16h25.11.584,retriever_ti,2020.1.3,Win32,60,Chrome,1920,1080,,,,,,,,,,,,,,,,,1,,,,,,,,,,,,,,,,,,,,,,,,,,,344.45026,7,left,1.85469,calculator    ,5,9,2,1,3,344.467055,344.467055,346.96632,0,6,6,6,1,7,5,3,calculator    ,seaturtle     ,html/resources/sequences_IDs/A/09_calculator.jpg,html/resources/sequences_IDs/A/02_seaturtle.jpg,9,2,4,2,2,1,8,2,0,54,,,,,,,,,,,,,,,,,,,,
,,,,,54,2020-07-04_16h25.11.584,retriever_ti,2020.1.3,Win32,60,Chrome,1920,1080,,,,,,,,,,,,,,,,,1,,,,,,,,,,,,,,,,,,,,,,,,,,,347.566745,8,right,0.89666,giraffe     ,4,3,2,1,3,347.600555,347.600555,350.0997,0,7,7,7,1,8,2,4,slipper     ,giraffe     ,html/resources/sequences_IDs/B/08_slipper.jpg,html/resources/sequences_IDs/B/03_giraffe.jpg,8,3,3,2,1,1,7,3,0,54,,,,,,,,,,,,,,,,,,,,
,,,,,54,2020-07-04_16h25.11.584,retriever_ti,2020.1.3,Win32,60,Chrome,1920,1080,,,,,,,,,,,,,,,,,1,,,,,,,,,,,,,,,,,,,,,,,,,,,350.717085,9,left,1.68755,slipper     ,2,8,-1,0,0,350.73398,350.73398,353.23336,0,8,8,8,1,9,2,3,slipper     ,seaturtle     ,html/resources/sequences_IDs/B/08_slipper.jpg,html/resources/sequences_IDs/A/02_seaturtle.jpg,8,2,3,2,2,1,7,2,0,54,,,,,,,,,,,,,,,,,,,,
,,,,,54,2020-07-04_16h25.11.584,retriever_ti,2020.1.3,Win32,60,Chrome,1920,1080,,,,,,,,,,,,,,,,,1,,,,,,,,,,,,,,,,,,,,,,,,,,,354.333745,10,right,0.86246,calculator    ,5,9,2,1,3,354.367485,354.367485,356.866755,0,9,9,9,1,10,3,5,seaturtle     ,calculator    ,html/resources/sequences_IDs/A/02_seaturtle.jpg,html/resources/sequences_IDs/A/09_calculator.jpg,2,9,2,1,4,2,2,8,0,54,,,,,,,,,,,,,,,,,,,,
,,,,,54,2020-07-04_16h25.11.584,retriever_ti,2020.1.3,Win32,60,Chrome,1920,1080,,,,,,,,,,,,,,,,,1,,,,,,,,,,,,,,,,,,,,,,,,,,,357.467255,11,left,1.738355,wolf          ,7,1,1,1,1,357.50093,357.50093,360.000355,0,10,10,10,1,11,7,6,wolf          ,parrot      ,html/resources/sequences_IDs/A/01_wolf.jpg,html/resources/sequences_IDs/B/05_parrot.jpg,1,5,1,1,2,1,1,4,0,54,,,,,,,,,,,,,,,,,,,,
,,,,,54,2020-07-04_16h25.11.584,retriever_ti,2020.1.3,Win32,60,Chrome,1920,1080,,,,,,,,,,,,,,,,,1,,,,,,,,,,,,,,,,,,,,,,,,,,,361.100855,12,right,1.64107,seaturtle     ,3,2,-1,0,0,361.134645,361.134645,363.633715,0,11,11,11,1,12,4,3,giraffe     ,seaturtle     ,html/resources/sequences_IDs/B/03_giraffe.jpg,html/resources/sequences_IDs/A/02_seaturtle.jpg,3,2,1,1,2,1,3,2,0,54,,,,,,,,,,,,,,,,,,,,
,,,,,54,2020-07-04_16h25.11.584,retriever_ti,2020.1.3,Win32,60,Chrome,1920,1080,,,,,,,,,,,,,,,,,1,,,,,,,,,,,,,,,,,,,,,,,,,,,364.734445,13,right,2.142495,wolf          ,7,1,5,1,3,364.768005,364.768005,367.267175,0,12,12,12,1,13,2,7,slipper     ,wolf          ,html/resources/sequences_IDs/B/08_slipper.jpg,html/resources/sequences_IDs/A/01_wolf.jpg,8,1,3,2,1,1,7,1,0,54,,,,,,,,,,,,,,,,,,,,
,,,,,54,2020-07-04_16h25.11.584,retriever_ti,2020.1.3,Win32,60,Chrome,1920,1080,,,,,,,,,,,,,,,,,1,,,,,,,,,,,,,,,,,,,,,,,,,,,367.8842,14,right,2.31221,wolf          ,7,1,3,1,3,367.90138,367.90138,370.40074,0,13,13,13,1,14,4,7,giraffe     ,wolf          ,html/resources/sequences_IDs/B/03_giraffe.jpg,html/resources/sequences_IDs/A/01_wolf.jpg,3,1,1,1,1,1,3,1,0,54,,,,,,,,,,,,,,,,,,,,
,,,,,54,2020-07-04_16h25.11.584,retriever_ti,2020.1.3,Win32,60,Chrome,1920,1080,,,,,,,,,,,,,,,,,1,,,,,,,,,,,,,,,,,,,,,,,,,,,371.01801,15,left,0.777655,calculator    ,5,9,4,1,3,371.05152,371.05152,373.55084,0,14,14,14,1,15,5,1,calculator    ,dress         ,html/resources/sequences_IDs/A/09_calculator.jpg,html/resources/sequences_IDs/A/07_dress.jpg,9,7,4,2,3,2,8,6,0,54,,,,,,,,,,,,,,,,,,,,
,,,,,54,2020-07-04_16h25.11.584,retriever_ti,2020.1.3,Win32,60,Chrome,1920,1080,,,,,,,,,,,,,,,,,1,,,,,,,,,,,,,,,,,,,,,,,,,,,374.1677,16,left,0.745625,calculator    ,5,9,1,1,1,374.2018,374.2018,376.70086,0,15,15,15,1,16,5,4,calculator    ,giraffe     ,html/resources/sequences_IDs/A/09_calculator.jpg,html/resources/sequences_IDs/B/03_giraffe.jpg,9,3,4,2,1,1,8,3,0,54,,,,,,,,,,,,,,,,,,,,
,,,,,54,2020-07-04_16h25.11.584,retriever_ti,2020.1.3,Win32,60,Chrome,1920,1080,,,,,,,,,,,,,,,,,1,,,,,,,,,,,,,,,,,,,,,,,,,,,377.801485,17,left,1.531025,wolf          ,7,1,6,1,3,377.835025,377.835025,380.33439,0,16,16,16,1,17,7,1,wolf          ,dress         ,html/resources/sequences_IDs/A/01_wolf.jpg,html/resources/sequences_IDs/A/07_dress.jpg,1,7,1,1,3,2,1,6,0,54,,,,,,,,,,,,,,,,,,,,
,,,,,54,2020-07-04_16h25.11.584,retriever_ti,2020.1.3,Win32,60,Chrome,1920,1080,,,,,,,,,,,,,,,,,1,,,,,,,,,,,,,,,,,,,,,,,,,,,380.951525,18,right,1.821655,wolf          ,7,1,4,1,3,380.98521,380.98521,383.48451,0,17,17,17,1,18,3,7,seaturtle     ,wolf          ,html/resources/sequences_IDs/A/02_seaturtle.jpg,html/resources/sequences_IDs/A/01_wolf.jpg,2,1,2,1,1,1,2,1,0,54,,,,,,,,,,,,,,,,,,,,
,,,,,54,2020-07-04_16h25.11.584,retriever_ti,2020.1.3,Win32,60,Chrome,1920,1080,,,,,,,,,,,,,,,,,1,,,,,,,,,,,,,,,,,,,,,,,,,,,384.0849,19,left,0.629415,calculator    ,5,9,1,1,1,384.102005,384.102005,386.60133,0,18,18,18,1,19,5,4,calculator    ,giraffe     ,html/resources/sequences_IDs/A/09_calculator.jpg,html/resources/sequences_IDs/B/03_giraffe.jpg,9,3,4,2,1,1,8,3,0,54,,,,,,,,,,,,,,,,,,,,
,,,,,54,2020-07-04_16h25.11.584,retriever_ti,2020.1.3,Win32,60,Chrome,1920,1080,,,,,,,,,,,,,,,,,1,,,,,,,,,,,,,,,,,,,,,,,,,,,387.70188,20,right,1.46972,dress         ,1,7,-2,0,3,387.73557,387.73557,390.234885,0,19,19,19,1,20,3,1,seaturtle     ,dress         ,html/resources/sequences_IDs/A/02_seaturtle.jpg,html/resources/sequences_IDs/A/07_dress.jpg,2,7,2,1,3,2,2,6,0,54,,,,,,,,,,,,,,,,,,,,
,,,,,54,2020-07-04_16h25.11.584,retriever_ti,2020.1.3,Win32,60,Chrome,1920,1080,,,,,,,,,,,,,,,,,1,,,,,,,,,,,,,,,,,,,,,,,,,,,390.852145,21,right,1.46607,giraffe     ,4,3,1,1,0,390.88565,390.88565,393.38485,0,20,20,20,1,21,3,4,seaturtle     ,giraffe     ,html/resources/sequences_IDs/A/02_seaturtle.jpg,html/resources/sequences_IDs/B/03_giraffe.jpg,2,3,2,1,1,1,2,3,1,54,,,,,,,,,,,,,,,,,,,,
,,,,,54,2020-07-04_16h25.11.584,retriever_ti,2020.1.3,Win32,60,Chrome,1920,1080,,,,,,,,,,,,,,,,,1,,,,,,,,,,,,,,,,,,,,,,,,,,,394.485565,22,left,1.857865,wolf          ,7,1,1,1,0,394.502525,394.502525,397.0017,0,21,21,21,1,22,7,6,wolf          ,parrot      ,html/resources/sequences_IDs/A/01_wolf.jpg,html/resources/sequences_IDs/B/05_parrot.jpg,1,5,1,1,2,1,1,4,1,54,,,,,,,,,,,,,,,,,,,,
,,,,,54,2020-07-04_16h25.11.584,retriever_ti,2020.1.3,Win32,60,Chrome,1920,1080,,,,,,,,,,,,,,,,,1,,,,,,,,,,,,,,,,,,,,,,,,,,,398.10227,23,left,0.571975,parrot      ,6,5,-1,0,0,398.13598,398.13598,400.635295,0,22,22,22,1,23,6,7,parrot      ,wolf          ,html/resources/sequences_IDs/B/05_parrot.jpg,html/resources/sequences_IDs/A/01_wolf.jpg,5,1,2,1,1,1,4,1,0,54,,,,,,,,,,,,,,,,,,,,
,,,,,54,2020-07-04_16h25.11.584,retriever_ti,2020.1.3,Win32,60,Chrome,1920,1080,,,,,,,,,,,,,,,,,1,,,,,,,,,,,,,,,,,,,,,,,,,,,401.73591,24,right,1.41397,giraffe     ,4,3,1,1,1,401.76942,401.76942,404.268725,0,23,23,23,1,24,3,4,seaturtle     ,giraffe     ,html/resources/sequences_IDs/A/02_seaturtle.jpg,html/resources/sequences_IDs/B/03_giraffe.jpg,2,3,2,1,1,1,2,3,0,54,,,,,,,,,,,,,,,,,,,,
,,,,,54,2020-07-04_16h25.11.584,retriever_ti,2020.1.3,Win32,60,Chrome,1920,1080,,,,,,,,,,,,,,,,,1,,,,,,,,,,,,,,,,,,,,,,,,,,,405.36942,25,left,1.448245,gloves      ,8,6,7,1,3,405.40291,405.40291,407.902275,0,24,24,24,1,25,8,1,gloves      ,dress         ,html/resources/sequences_IDs/B/06_gloves.jpg,html/resources/sequences_IDs/A/07_dress.jpg,6,7,3,2,3,2,5,6,0,54,,,,,,,,,,,,,,,,,,,,
,,,,,54,2020-07-04_16h25.11.584,retriever_ti,2020.1.3,Win32,60,Chrome,1920,1080,,,,,,,,,,,,,,,,,1,,,,,,,,,,,,,,,,,,,,,,,,,,,408.51943,26,left,1.549955,wolf          ,7,1,3,1,3,408.53633,408.53633,411.035835,0,25,25,25,1,26,7,4,wolf          ,giraffe     ,html/resources/sequences_IDs/A/01_wolf.jpg,html/resources/sequences_IDs/B/03_giraffe.jpg,1,3,1,1,1,1,1,3,0,54,,,,,,,,,,,,,,,,,,,,
,,,,,54,2020-07-04_16h25.11.584,retriever_ti,2020.1.3,Win32,60,Chrome,1920,1080,,,,,,,,,,,,,,,,,1,,,,,,,,,,,,,,,,,,,,,,,,,,,411.65285,27,left,1.53387,slipper     ,2,8,1,1,1,411.686485,411.686485,414.18567,0,26,26,26,1,27,2,1,slipper     ,dress         ,html/resources/sequences_IDs/B/08_slipper.jpg,html/resources/sequences_IDs/A/07_dress.jpg,8,7,3,2,3,2,7,6,0,54,,,,,,,,,,,,,,,,,,,,
,,,,,54,2020-07-04_16h25.11.584,retriever_ti,2020.1.3,Win32,60,Chrome,1920,1080,,,,,,,,,,,,,,,,,1,,,,,,,,,,,,,,,,,,,,,,,,,,,415.28616,28,left,2.050795,calculator    ,5,9,-1,0,0,415.31982,415.31982,417.819335,0,27,27,27,1,28,5,6,calculator    ,parrot      ,html/resources/sequences_IDs/A/09_calculator.jpg,html/resources/sequences_IDs/B/05_parrot.jpg,9,5,4,2,2,1,8,4,0,54,,,,,,,,,,,,,,,,,,,,
,,,,,54,2020-07-04_16h25.11.584,retriever_ti,2020.1.3,Win32,60,Chrome,1920,1080,,,,,,,,,,,,,,,,,1,,,,,,,,,,,,,,,,,,,,,,,,,,,418.91996,29,right,1.583365,parrot      ,6,5,2,1,3,418.93663,418.93663,421.43614,0,28,28,28,1,29,4,6,giraffe     ,parrot      ,html/resources/sequences_IDs/B/03_giraffe.jpg,html/resources/sequences_IDs/B/05_parrot.jpg,3,5,1,1,2,1,3,4,0,54,,,,,,,,,,,,,,,,,,,,
,,,,,54,2020-07-04_16h25.11.584,retriever_ti,2020.1.3,Win32,60,Chrome,1920,1080,,,,,,,,,,,,,,,,,1,,,,,,,,,,,,,,,,,,,,,,,,,,,422.052965,30,right,1.34715,parrot      ,6,5,4,1,3,422.070305,422.070305,424.569585,0,29,29,29,1,30,2,6,slipper     ,parrot      ,html/resources/sequences_IDs/B/08_slipper.jpg,html/resources/sequences_IDs/B/05_parrot.jpg,8,5,3,2,2,1,7,4,0,54,,,,,,,,,,,,,,,,,,,,
,,,,,54,2020-07-04_16h25.11.584,retriever_ti,2020.1.3,Win32,60,Chrome,1920,1080,,,,,,,,,,,,,,,,,1,,,,,,,,,,,,,,,,,,,,,,,,,,,425.17029,31,right,1.023265,gloves      ,8,6,4,1,3,425.203775,425.203775,427.702865,0,30,30,30,1,31,4,8,giraffe     ,gloves      ,html/resources/sequences_IDs/B/03_giraffe.jpg,html/resources/sequences_IDs/B/06_gloves.jpg,3,6,1,1,3,2,3,5,0,54,,,,,,,,,,,,,,,,,,,,
,,,,,54,2020-07-04_16h25.11.584,retriever_ti,2020.1.3,Win32,60,Chrome,1920,1080,,,,,,,,,,,,,,,,,1,,,,,,,,,,,,,,,,,,,,,,,,,,,428.30339,32,right,0.89411,calculator    ,5,9,-3,0,3,428.320485,428.320485,430.81992,0,31,31,31,1,32,8,5,gloves      ,calculator    ,html/resources/sequences_IDs/B/06_gloves.jpg,html/resources/sequences_IDs/A/09_calculator.jpg,6,9,3,2,4,2,5,8,0,54,,,,,,,,,,,,,,,,,,,,
,,,,,54,2020-07-04_16h25.11.584,retriever_ti,2020.1.3,Win32,60,Chrome,1920,1080,,,,,,,,,,,,,,,,,1,,,,,,,,,,,,,,,,,,,,,,,,,,,431.43689,33,right,1.58719,wolf          ,7,1,6,1,3,431.45426,431.45426,433.95317,0,32,32,32,1,33,1,7,dress         ,wolf          ,html/resources/sequences_IDs/A/07_dress.jpg,html/resources/sequences_IDs/A/01_wolf.jpg,7,1,3,2,1,1,6,1,0,54,,,,,,,,,,,,,,,,,,,,
,,,,,54,2020-07-04_16h25.11.584,retriever_ti,2020.1.3,Win32,60,Chrome,1920,1080,,,,,,,,,,,,,,,,,1,,,,,,,,,,,,,,,,,,,,,,,,,,,434.57042,34,right,2.25204,gloves      ,8,6,6,1,3,434.60394,434.60394,437.103275,0,33,33,33,1,34,2,8,slipper     ,gloves      ,html/resources/sequences_IDs/B/08_slipper.jpg,html/resources/sequences_IDs/B/06_gloves.jpg,8,6,3,2,3,2,7,5,0,54,,,,,,,,,,,,,,,,,,,,
,,,,,54,2020-07-04_16h25.11.584,retriever_ti,2020.1.3,Win32,60,Chrome,1920,1080,,,,,,,,,,,,,,,,,1,,,,,,,,,,,,,,,,,,,,,,,,,,,437.720425,35,left,1.143795,gloves      ,8,6,4,1,3,437.737515,437.737515,440.236635,0,34,34,34,1,35,8,4,gloves      ,giraffe     ,html/resources/sequences_IDs/B/06_gloves.jpg,html/resources/sequences_IDs/B/03_giraffe.jpg,6,3,3,2,1,1,5,3,0,54,,,,,,,,,,,,,,,,,,,,
,,,,,54,2020-07-04_16h25.11.584,retriever_ti,2020.1.3,Win32,60,Chrome,1920,1080,,,,,,,,,,,,,,,,,1,,,,,,,,,,,,,,,,,,,,,,,,,,,440.83752,36,left,1.404115,calculator    ,5,9,-1,0,0,440.87108,440.87108,443.370455,0,35,35,35,1,36,5,6,calculator    ,parrot      ,html/resources/sequences_IDs/A/09_calculator.jpg,html/resources/sequences_IDs/B/05_parrot.jpg,9,5,4,2,2,1,8,4,0,54,,,,,,,,,,,,,,,,,,,,
,,,,,54,2020-07-04_16h25.11.584,retriever_ti,2020.1.3,Win32,60,Chrome,1920,1080,,,,,,,,,,,,,,,,,1,,,,,,,,,,,,,,,,,,,,,,,,,,,444.471105,37,right,0.898665,calculator    ,5,9,1,1,0,444.5045,444.5045,447.00381,0,36,36,36,1,37,4,5,giraffe     ,calculator    ,html/resources/sequences_IDs/B/03_giraffe.jpg,html/resources/sequences_IDs/A/09_calculator.jpg,3,9,1,1,4,2,3,8,1,54,,,,,,,,,,,,,,,,,,,,
,,,,,54,2020-07-04_16h25.11.584,retriever_ti,2020.1.3,Win32,60,Chrome,1920,1080,,,,,,,,,,,,,,,,,1,,,,,,,,,,,,,,,,,,,,,,,,,,,448.10412,38,left,1.245155,giraffe     ,4,3,3,1,3,448.121495,448.121495,450.620685,0,37,37,37,1,38,4,1,giraffe     ,dress         ,html/resources/sequences_IDs/B/03_giraffe.jpg,html/resources/sequences_IDs/A/07_dress.jpg,3,7,1,1,3,2,3,6,0,54,,,,,,,,,,,,,,,,,,,,
,,,,,54,2020-07-04_16h25.11.584,retriever_ti,2020.1.3,Win32,60,Chrome,1920,1080,,,,,,,,,,,,,,,,,1,,,,,,,,,,,,,,,,,,,,,,,,,,,451.237915,39,right,1.13482,gloves      ,8,6,5,1,3,451.271595,451.271595,453.770765,0,38,38,38,1,39,3,8,seaturtle     ,gloves      ,html/resources/sequences_IDs/A/02_seaturtle.jpg,html/resources/sequences_IDs/B/06_gloves.jpg,2,6,2,1,3,2,2,5,0,54,,,,,,,,,,,,,,,,,,,,
,,,,,54,2020-07-04_16h25.11.584,retriever_ti,2020.1.3,Win32,60,Chrome,1920,1080,,,,,,,,,,,,,,,,,1,,,,,,,,,,,,,,,,,,,,,,,,,,,454.38787,40,left,1.733405,parrot      ,6,5,1,1,1,454.40495,454.40495,456.90423,0,39,39,39,1,40,6,5,parrot      ,calculator    ,html/resources/sequences_IDs/B/05_parrot.jpg,html/resources/sequences_IDs/A/09_calculator.jpg,5,9,2,1,4,2,4,8,0,54,,,,,,,,,,,,,,,,,,,,
,,,,,54,2020-07-04_16h25.11.584,retriever_ti,2020.1.3,Win32,60,Chrome,1920,1080,,,,,,,,,,,,,,,,,1,,,,,,,,,,,,,,,,,,,,,,,,,,,458.0046,41,right,0.719835,parrot      ,6,5,3,1,3,458.03835,458.03835,460.53786,0,40,40,40,1,41,3,6,seaturtle     ,parrot      ,html/resources/sequences_IDs/A/02_seaturtle.jpg,html/resources/sequences_IDs/B/05_parrot.jpg,2,5,2,1,2,1,2,4,0,54,,,,,,,,,,,,,,,,,,,,
,,,,,54,2020-07-04_16h25.11.584,retriever_ti,2020.1.3,Win32,60,Chrome,1920,1080,,,,,,,,,,,,,,,,,1,,,,,,,,,,,,,,,,,,,,,,,,,,,461.154825,42,right,1.70974,slipper     ,2,8,-2,0,3,461.171855,461.171855,463.670845,0,41,41,41,1,42,4,2,giraffe     ,slipper     ,html/resources/sequences_IDs/B/03_giraffe.jpg,html/resources/sequences_IDs/B/08_slipper.jpg,3,8,1,1,3,2,3,7,0,54,,,,,,,,,,,,,,,,,,,,
,,,,,54,2020-07-04_16h25.11.584,retriever_ti,2020.1.3,Win32,60,Chrome,1920,1080,,,,,,,,,,,,,,,,,1,,,,,,,,,,,,,,,,,,,,,,,,,,,464.27156,43,left,0.912125,parrot      ,6,5,5,1,3,464.30524,464.30524,466.804535,0,42,42,42,1,43,6,1,parrot      ,dress         ,html/resources/sequences_IDs/B/05_parrot.jpg,html/resources/sequences_IDs/A/07_dress.jpg,5,7,2,1,3,2,4,6,0,54,,,,,,,,,,,,,,,,,,,,
,,,,,54,2020-07-04_16h25.11.584,retriever_ti,2020.1.3,Win32,60,Chrome,1920,1080,,,,,,,,,,,,,,,,,1,,,,,,,,,,,,,,,,,,,,,,,,,,,467.40528,44,left,1.12137,gloves      ,8,6,1,1,1,467.422175,467.422175,469.92155,0,43,43,43,1,44,8,7,gloves      ,wolf          ,html/resources/sequences_IDs/B/06_gloves.jpg,html/resources/sequences_IDs/A/01_wolf.jpg,6,1,3,2,1,1,5,1,0,54,,,,,,,,,,,,,,,,,,,,
,,,,,54,2020-07-04_16h25.11.584,retriever_ti,2020.1.3,Win32,60,Chrome,1920,1080,,,,,,,,,,,,,,,,,1,,,,,,,,,,,,,,,,,,,,,,,,,,,471.022085,45,left,0.86719,slipper     ,2,8,1,1,1,471.03899,471.03899,473.538425,0,44,44,44,1,45,2,1,slipper     ,dress         ,html/resources/sequences_IDs/B/08_slipper.jpg,html/resources/sequences_IDs/A/07_dress.jpg,8,7,3,2,3,2,7,6,0,54,,,,,,,,,,,,,,,,,,,,
,,,,,54,2020-07-04_16h25.11.584,retriever_ti,2020.1.3,Win32,60,Chrome,1920,1080,,,,,,,,,,,,,,,,,1,,,,,,,,,,,,,,,,,,,,,,,,,,,474.639015,46,left,2.302845,parrot      ,6,5,1,1,0,474.67287,474.67287,477.17176,0,45,45,45,1,46,6,5,parrot      ,calculator    ,html/resources/sequences_IDs/B/05_parrot.jpg,html/resources/sequences_IDs/A/09_calculator.jpg,5,9,2,1,4,2,4,8,1,54,,,,,,,,,,,,,,,,,,,,
,,,,,54,2020-07-04_16h25.11.584,retriever_ti,2020.1.3,Win32,60,Chrome,1920,1080,,,,,,,,,,,,,,,,,1,,,,,,,,,,,,,,,,,,,,,,,,,,,478.271945,47,right,0.901575,calculator    ,5,9,1,1,1,478.289095,478.289095,480.78865,0,46,46,46,1,47,4,5,giraffe     ,calculator    ,html/resources/sequences_IDs/B/03_giraffe.jpg,html/resources/sequences_IDs/A/09_calculator.jpg,3,9,1,1,4,2,3,8,0,54,,,,,,,,,,,,,,,,,,,,
,,,,,54,2020-07-04_16h25.11.584,retriever_ti,2020.1.3,Win32,60,Chrome,1920,1080,,,,,,,,,,,,,,,,,1,,,,,,,,,,,,,,,,,,,,,,,,,,,481.889145,48,left,0.932115,gloves      ,8,6,6,1,3,481.906145,481.906145,484.40534,0,47,47,47,1,48,8,2,gloves      ,slipper     ,html/resources/sequences_IDs/B/06_gloves.jpg,html/resources/sequences_IDs/B/08_slipper.jpg,6,8,3,2,3,2,5,7,0,54,,,,,,,,,,,,,,,,,,,,
,,,,,54,2020-07-04_16h25.11.584,retriever_ti,2020.1.3,Win32,60,Chrome,1920,1080,,,,,,,,,,,,,,,,,1,,,,,,,,,,,,,,,,,,,,,,,,,,,485.02262,49,left,1.368595,calculator    ,5,9,-3,0,3,485.056365,485.056365,487.55553,0,48,48,48,1,49,5,8,calculator    ,gloves      ,html/resources/sequences_IDs/A/09_calculator.jpg,html/resources/sequences_IDs/B/06_gloves.jpg,9,6,4,2,3,2,8,5,0,54,,,,,,,,,,,,,,,,,,,,
,,,,,54,2020-07-04_16h25.11.584,retriever_ti,2020.1.3,Win32,60,Chrome,1920,1080,,,,,,,,,,,,,,,,,1,,,,,,,,,,,,,,,,,,,,,,,,,,,488.172415,50,left,0.926655,slipper     ,2,8,-1,0,0,488.189605,488.189605,490.688825,0,49,49,49,1,50,2,3,slipper     ,seaturtle     ,html/resources/sequences_IDs/B/08_slipper.jpg,html/resources/sequences_IDs/A/02_seaturtle.jpg,8,2,3,2,2,1,7,2,0,54,,,,,,,,,,,,,,,,,,,,
,,,,,54,2020-07-04_16h25.11.584,retriever_ti,2020.1.3,Win32,60,Chrome,1920,1080,,,,,,,,,,,,,,,,,1,,,,,,,,,,,,,,,,,,,,,,,,,,,491.789545,51,left,1.63051,dress         ,1,7,-1,0,1,491.80638,491.80638,494.30564,0,50,50,50,1,51,1,2,dress         ,slipper     ,html/resources/sequences_IDs/A/07_dress.jpg,html/resources/sequences_IDs/B/08_slipper.jpg,7,8,3,2,3,2,6,7,1,54,,,,,,,,,,,,,,,,,,,,
,,,,,54,2020-07-04_16h25.11.584,retriever_ti,2020.1.3,Win32,60,Chrome,1920,1080,,,,,,,,,,,,,,,,,1,,,,,,,,,,,,,,,,,,,,,,,,,,,495.40631,52,right,1.07667,giraffe     ,4,3,1,1,1,495.439915,495.439915,497.939235,0,51,51,51,1,52,3,4,seaturtle     ,giraffe     ,html/resources/sequences_IDs/A/02_seaturtle.jpg,html/resources/sequences_IDs/B/03_giraffe.jpg,2,3,2,1,1,1,2,3,0,54,,,,,,,,,,,,,,,,,,,,
,,,,,54,2020-07-04_16h25.11.584,retriever_ti,2020.1.3,Win32,60,Chrome,1920,1080,,,,,,,,,,,,,,,,,1,,,,,,,,,,,,,,,,,,,,,,,,,,,499.039865,53,left,1.63384,parrot      ,6,5,2,1,3,499.07341,499.07341,501.57284,0,52,52,52,1,53,6,4,parrot      ,giraffe     ,html/resources/sequences_IDs/B/05_parrot.jpg,html/resources/sequences_IDs/B/03_giraffe.jpg,5,3,2,1,1,1,4,3,0,54,,,,,,,,,,,,,,,,,,,,
,,,,,54,2020-07-04_16h25.11.584,retriever_ti,2020.1.3,Win32,60,Chrome,1920,1080,,,,,,,,,,,,,,,,,1,,,,,,,,,,,,,,,,,,,,,,,,,,,502.189475,54,right,0.87147,calculator    ,5,9,-1,0,0,502.206755,502.206755,504.70627,0,53,53,53,1,54,6,5,parrot      ,calculator    ,html/resources/sequences_IDs/B/05_parrot.jpg,html/resources/sequences_IDs/A/09_calculator.jpg,5,9,2,1,4,2,4,8,0,54,,,,,,,,,,,,,,,,,,,,
,,,,,54,2020-07-04_16h25.11.584,retriever_ti,2020.1.3,Win32,60,Chrome,1920,1080,,,,,,,,,,,,,,,,,1,,,,,,,,,,,,,,,,,,,,,,,,,,,505.806725,55,right,1.41748,gloves      ,8,6,1,1,1,505.840405,505.840405,508.339505,0,54,54,54,1,55,7,8,wolf          ,gloves      ,html/resources/sequences_IDs/A/01_wolf.jpg,html/resources/sequences_IDs/B/06_gloves.jpg,1,6,1,1,3,2,1,5,0,54,,,,,,,,,,,,,,,,,,,,
,,,,,54,2020-07-04_16h25.11.584,retriever_ti,2020.1.3,Win32,60,Chrome,1920,1080,,,,,,,,,,,,,,,,,1,,,,,,,,,,,,,,,,,,,,,,,,,,,509.440255,56,right,0.9395,calculator    ,5,9,4,1,3,509.4738,509.4738,511.97327,0,55,55,55,1,56,1,5,dress         ,calculator    ,html/resources/sequences_IDs/A/07_dress.jpg,html/resources/sequences_IDs/A/09_calculator.jpg,7,9,3,2,4,2,6,8,0,54,,,,,,,,,,,,,,,,,,,,
,,,,,54,2020-07-04_16h25.11.584,retriever_ti,2020.1.3,Win32,60,Chrome,1920,1080,,,,,,,,,,,,,,,,,1,,,,,,,,,,,,,,,,,,,,,,,,,,,512.590565,57,right,1.20656,slipper     ,2,8,-5,0,3,512.623855,512.623855,515.123205,0,56,56,56,1,57,7,2,wolf          ,slipper     ,html/resources/sequences_IDs/A/01_wolf.jpg,html/resources/sequences_IDs/B/08_slipper.jpg,1,8,1,1,3,2,1,7,0,54,,,,,,,,,,,,,,,,,,,,
,,,,,54,2020-07-04_16h25.11.584,retriever_ti,2020.1.3,Win32,60,Chrome,1920,1080,,,,,,,,,,,,,,,,,1,,,,,,,,,,,,,,,,,,,,,,,,,,,515.723675,58,right,0.69441,slipper     ,2,8,-1,0,1,515.75737,515.75737,518.25682,0,57,57,57,1,58,3,2,seaturtle     ,slipper     ,html/resources/sequences_IDs/A/02_seaturtle.jpg,html/resources/sequences_IDs/B/08_slipper.jpg,2,8,2,1,3,2,2,7,1,54,,,,,,,,,,,,,,,,,,,,
,,,,,54,2020-07-04_16h25.11.584,retriever_ti,2020.1.3,Win32,60,Chrome,1920,1080,,,,,,,,,,,,,,,,,1,,,,,,,,,,,,,,,,,,,,,,,,,,,519.357225,59,right,1.84237,giraffe     ,4,3,3,1,3,519.390935,519.390935,521.89032,0,58,58,58,1,59,1,4,dress         ,giraffe     ,html/resources/sequences_IDs/A/07_dress.jpg,html/resources/sequences_IDs/B/03_giraffe.jpg,7,3,3,2,1,1,6,3,0,54,,,,,,,,,,,,,,,,,,,,
,,,,,54,2020-07-04_16h25.11.584,retriever_ti,2020.1.3,Win32,60,Chrome,1920,1080,,,,,,,,,,,,,,,,,1,,,,,,,,,,,,,,,,,,,,,,,,,,,522.50744,60,right,0.789015,slipper     ,2,8,-1,0,0,522.54105,522.54105,525.040205,0,59,59,59,1,60,3,2,seaturtle     ,slipper     ,html/resources/sequences_IDs/A/02_seaturtle.jpg,html/resources/sequences_IDs/B/08_slipper.jpg,2,8,2,1,3,2,2,7,0,54,,,,,,,,,,,,,,,,,,,,
,,,,,54,2020-07-04_16h25.11.584,retriever_ti,2020.1.3,Win32,60,Chrome,1920,1080,,,,,,,,,,,,,,,,,1,,,,,,,,,,,,,,,,,,,,,,,,,,,526.140665,61,left,1.775455,dress         ,1,7,-1,0,0,526.17438,526.17438,528.67395,0,60,60,60,1,61,1,2,dress         ,slipper     ,html/resources/sequences_IDs/A/07_dress.jpg,html/resources/sequences_IDs/B/08_slipper.jpg,7,8,3,2,3,2,6,7,0,54,,,,,,,,,,,,,,,,,,,,
,,,,,54,2020-07-04_16h25.11.584,retriever_ti,2020.1.3,Win32,60,Chrome,1920,1080,,,,,,,,,,,,,,,,,1,,,,,,,,,,,,,,,,,,,,,,,,,,,529.77436,62,right,0.450545,slipper     ,2,8,1,1,1,529.79137,529.79137,532.29059,0,61,61,61,1,62,1,2,dress         ,slipper     ,html/resources/sequences_IDs/A/07_dress.jpg,html/resources/sequences_IDs/B/08_slipper.jpg,7,8,3,2,3,2,6,7,0,54,,,,,,,,,,,,,,,,,,,,
,,,,,54,2020-07-04_16h25.11.584,retriever_ti,2020.1.3,Win32,60,Chrome,1920,1080,,,,,,,,,,,,,,,,,1,,,,,,,,,,,,,,,,,,,,,,,,,,,533.391255,63,right,0.97557,gloves      ,8,6,1,1,0,533.424765,533.424765,535.923965,0,62,62,62,1,63,7,8,wolf          ,gloves      ,html/resources/sequences_IDs/A/01_wolf.jpg,html/resources/sequences_IDs/B/06_gloves.jpg,1,6,1,1,3,2,1,5,1,54,,,,,,,,,,,,,,,,,,,,
,,,,,54,2020-07-04_16h25.11.584,retriever_ti,2020.1.3,Win32,60,Chrome,1920,1080,,,,,,,,,,,,,,,,,1,,,,,,,,,,,,,,,,,,,,,,,,,,,537.024825,64,left,1.145335,gloves      ,8,6,5,1,3,537.041725,537.041725,539.540895,0,63,63,63,1,64,8,3,gloves      ,seaturtle     ,html/resources/sequences_IDs/B/06_gloves.jpg,html/resources/sequences_IDs/A/02_seaturtle.jpg,6,2,3,2,2,1,5,2,0,54,,,,,,,,,,,,,,,,,,,,
,,,,,54,2020-07-04_16h25.11.584,retriever_ti,2020.1.3,Win32,60,Chrome,1920,1080,,,,,,,,,,,,,,,,,1,,,,,,,,,,,,,,,,,,,,,,,,,,,540.157955,65,right,0.97139,slipper     ,2,8,-1,0,0,540.175395,540.175395,542.67445,0,64,64,64,1,65,3,2,seaturtle     ,slipper     ,html/resources/sequences_IDs/A/02_seaturtle.jpg,html/resources/sequences_IDs/B/08_slipper.jpg,2,8,2,1,3,2,2,7,0,54,,,,,,,,,,,,,,,,,,,,
,,,,,54,2020-07-04_16h25.11.584,retriever_ti,2020.1.3,Win32,60,Chrome,1920,1080,,,,,,,,,,,,,,,,,1,,,,,,,,,,,,,,,,,,,,,,,,,,,543.77504,66,right,1.28331,parrot      ,6,5,-2,0,3,543.80893,543.80893,546.30792,0,65,65,65,1,66,8,6,gloves      ,parrot      ,html/resources/sequences_IDs/B/06_gloves.jpg,html/resources/sequences_IDs/B/05_parrot.jpg,6,5,3,2,2,1,5,4,0,54,,,,,,,,,,,,,,,,,,,,
,,,,,54,2020-07-04_16h25.11.584,retriever_ti,2020.1.3,Win32,60,Chrome,1920,1080,,,,,,,,,,,,,,,,,1,,,,,,,,,,,,,,,,,,,,,,,,,,,546.90867,67,right,0.812385,calculator    ,5,9,-2,0,3,546.942005,546.942005,549.441405,0,66,66,66,1,67,7,5,wolf          ,calculator    ,html/resources/sequences_IDs/A/01_wolf.jpg,html/resources/sequences_IDs/A/09_calculator.jpg,1,9,1,1,4,2,1,8,0,54,,,,,,,,,,,,,,,,,,,,
,,,,,54,2020-07-04_16h25.11.584,retriever_ti,2020.1.3,Win32,60,Chrome,1920,1080,,,,,,,,,,,,,,,,,1,,,,,,,,,,,,,,,,,,,,,,,,,,,550.05835,68,NaN,NaN,No_response,NaN,NaN,NaN,2,2,550.07572,550.07572,552.57478,0,67,67,67,1,68,6,7,parrot      ,wolf          ,html/resources/sequences_IDs/B/05_parrot.jpg,html/resources/sequences_IDs/A/01_wolf.jpg,5,1,2,1,1,1,4,1,0,54,,,,,,,,,,,,,,,,,,,,
,,,,,54,2020-07-04_16h25.11.584,retriever_ti,2020.1.3,Win32,60,Chrome,1920,1080,,,,,,,,,,,,,,,,,1,,,,,,,,,,,,,,,,,,,,,,,,,,,553.67531,69,left,1.061715,gloves      ,8,6,1,1,1,553.692425,553.692425,556.19168,0,68,68,68,1,69,8,7,gloves      ,wolf          ,html/resources/sequences_IDs/B/06_gloves.jpg,html/resources/sequences_IDs/A/01_wolf.jpg,6,1,3,2,1,1,5,1,0,54,,,,,,,,,,,,,,,,,,,,
,,,,,54,2020-07-04_16h25.11.584,retriever_ti,2020.1.3,Win32,60,Chrome,1920,1080,,,,,,,,,,,,,,,,,1,,,,,,,,,,,,,,,,,,,,,,,,,,,557.292225,70,left,0.76749,parrot      ,6,5,3,1,3,557.32572,557.32572,559.82521,0,69,69,69,1,70,6,3,parrot      ,seaturtle     ,html/resources/sequences_IDs/B/05_parrot.jpg,html/resources/sequences_IDs/A/02_seaturtle.jpg,5,2,2,1,2,1,4,2,0,54,,,,,,,,,,,,,,,,,,,,
,,,,,54,2020-07-04_16h25.11.584,retriever_ti,2020.1.3,Win32,60,Chrome,1920,1080,,,,,,,,,,,,,,,,,1,,,,,,,,,,,,,,,,,,,,,,,,,,,560.44221,71,left,1.1279,parrot      ,6,5,-2,0,3,560.475845,560.475845,562.975195,0,70,70,70,1,71,6,8,parrot      ,gloves      ,html/resources/sequences_IDs/B/05_parrot.jpg,html/resources/sequences_IDs/B/06_gloves.jpg,5,6,2,1,3,2,4,5,0,54,,,,,,,,,,,,,,,,,,,,
,,,,,54,2020-07-04_16h25.11.584,retriever_ti,2020.1.3,Win32,60,Chrome,1920,1080,,,,,,,,,,,,,,,,,1,,,,,,,,,,,,,,,,,,,,,,,,,,,563.592275,72,right,1.77348,wolf          ,7,1,2,1,3,563.626315,563.626315,566.125265,0,71,71,71,1,72,5,7,calculator    ,wolf          ,html/resources/sequences_IDs/A/09_calculator.jpg,html/resources/sequences_IDs/A/01_wolf.jpg,9,1,4,2,1,1,8,1,0,54,,,,,,,,,,,,,,,,,,,,
,,,,,54,2020-07-04_16h25.11.584,retriever_ti,2020.1.3,Win32,60,Chrome,1920,1080,,,,,,,,,,,,,,,,,1,,,,,,,,,,,,,,,,,,,,,,,,,,,566.74269,73,left,0.847645,dress         ,1,7,-7,0,3,566.7596,566.7596,569.258885,0,72,72,72,1,73,1,8,dress         ,gloves      ,html/resources/sequences_IDs/A/07_dress.jpg,html/resources/sequences_IDs/B/06_gloves.jpg,7,6,3,2,3,2,6,5,0,54,,,,,,,,,,,,,,,,,,,,
,,,,,54,2020-07-04_16h25.11.584,retriever_ti,2020.1.3,Win32,60,Chrome,1920,1080,,,,,,,,,,,,,,,,,1,,,,,,,,,,,,,,,,,,,,,,,,,,,569.875765,74,left,0.84546,wolf          ,7,1,4,1,3,569.90982,569.90982,572.408965,0,73,73,73,1,74,7,3,wolf          ,seaturtle     ,html/resources/sequences_IDs/A/01_wolf.jpg,html/resources/sequences_IDs/A/02_seaturtle.jpg,1,2,1,1,2,1,1,2,0,54,,,,,,,,,,,,,,,,,,,,
,,,,,54,2020-07-04_16h25.11.584,retriever_ti,2020.1.3,Win32,60,Chrome,1920,1080,,,,,,,,,,,,,,,,,1,,,,,,,,,,,,,,,,,,,,,,,,,,,573.026205,75,right,1.190475,parrot      ,6,5,5,1,3,573.059755,573.059755,575.55905,0,74,74,74,1,75,1,6,dress         ,parrot      ,html/resources/sequences_IDs/A/07_dress.jpg,html/resources/sequences_IDs/B/05_parrot.jpg,7,5,3,2,2,1,6,4,0,54,,,,,,,,,,,,,,,,,,,,
,,,,,54,2020-07-04_16h25.11.584,retriever_ti,2020.1.3,Win32,60,Chrome,1920,1080,,,,,,,,,,,,,,,,,1,,,,,,,,,,,,,,,,,,,,,,,,,,,576.175935,76,left,1.053095,parrot      ,6,5,4,1,3,576.20982,576.20982,578.70928,0,75,75,75,1,76,6,2,parrot      ,slipper     ,html/resources/sequences_IDs/B/05_parrot.jpg,html/resources/sequences_IDs/B/08_slipper.jpg,5,8,2,1,3,2,4,7,0,54,,,,,,,,,,,,,,,,,,,,
,,,,,54,2020-07-04_16h25.11.584,retriever_ti,2020.1.3,Win32,60,Chrome,1920,1080,,,,,,,,,,,,,,,,,1,,,,,,,,,,,,,,,,,,,,,,,,,,,579.31002,77,right,0.846295,calculator    ,5,9,1,1,1,579.343775,579.343775,581.84251,0,76,76,76,1,77,4,5,giraffe     ,calculator    ,html/resources/sequences_IDs/B/03_giraffe.jpg,html/resources/sequences_IDs/A/09_calculator.jpg,3,9,1,1,4,2,3,8,0,54,,,,,,,,,,,,,,,,,,,,
,,,,,54,2020-07-04_16h25.11.584,retriever_ti,2020.1.3,Win32,60,Chrome,1920,1080,,,,,,,,,,,,,,,,,,,,,,,,,,,,,,,,,,,,,0,3.4085,,,,,,,,,,,,,,,,,,,,,,,,,,,,,,,,,,,,,,,,,0,0,0,0,1,,,,,,,,,,,,,,,
,,,,,54,2020-07-04_16h25.11.584,retriever_ti,2020.1.3,Win32,60,Chrome,1920,1080,,,,,,,,,,,,,,,,,2,,,,,,,,,,,,,,,,,,,,,,,,,,,651.296785,78,right,0.94771,calculator    ,5,9,-1,0,0,651.31302,651.31302,653.81245,0,0,0,0,1,78,6,5,parrot      ,calculator    ,html/resources/sequences_IDs/B/05_parrot.jpg,html/resources/sequences_IDs/A/09_calculator.jpg,5,9,2,1,4,2,4,8,0,54,,,,,,,,,,,,,,,,,,,,
,,,,,54,2020-07-04_16h25.11.584,retriever_ti,2020.1.3,Win32,60,Chrome,1920,1080,,,,,,,,,,,,,,,,,2,,,,,,,,,,,,,,,,,,,,,,,,,,,654.912725,79,left,1.304965,gloves      ,8,6,7,1,3,654.93009,654.93009,657.429235,0,1,1,1,1,79,8,1,gloves      ,dress         ,html/resources/sequences_IDs/B/06_gloves.jpg,html/resources/sequences_IDs/A/07_dress.jpg,6,7,3,2,3,2,5,6,0,54,,,,,,,,,,,,,,,,,,,,
,,,,,54,2020-07-04_16h25.11.584,retriever_ti,2020.1.3,Win32,60,Chrome,1920,1080,,,,,,,,,,,,,,,,,2,,,,,,,,,,,,,,,,,,,,,,,,,,,658.046305,80,left,1.539355,calculator    ,5,9,4,1,3,658.063155,658.063155,660.56238,0,2,2,2,1,80,5,1,calculator    ,dress         ,html/resources/sequences_IDs/A/09_calculator.jpg,html/resources/sequences_IDs/A/07_dress.jpg,9,7,4,2,3,2,8,6,0,54,,,,,,,,,,,,,,,,,,,,
,,,,,54,2020-07-04_16h25.11.584,retriever_ti,2020.1.3,Win32,60,Chrome,1920,1080,,,,,,,,,,,,,,,,,2,,,,,,,,,,,,,,,,,,,,,,,,,,,661.16292,81,left,0.716275,parrot      ,6,5,5,1,3,661.19672,661.19672,663.69612,0,3,3,3,1,81,6,1,parrot      ,dress         ,html/resources/sequences_IDs/B/05_parrot.jpg,html/resources/sequences_IDs/A/07_dress.jpg,5,7,2,1,3,2,4,6,0,54,,,,,,,,,,,,,,,,,,,,
,,,,,54,2020-07-04_16h25.11.584,retriever_ti,2020.1.3,Win32,60,Chrome,1920,1080,,,,,,,,,,,,,,,,,2,,,,,,,,,,,,,,,,,,,,,,,,,,,664.31291,82,left,0.88851,parrot      ,6,5,3,1,3,664.346745,664.346745,666.846125,0,4,4,4,1,82,6,3,parrot      ,seaturtle     ,html/resources/sequences_IDs/B/05_parrot.jpg,html/resources/sequences_IDs/A/02_seaturtle.jpg,5,2,2,1,2,1,4,2,0,54,,,,,,,,,,,,,,,,,,,,
,,,,,54,2020-07-04_16h25.11.584,retriever_ti,2020.1.3,Win32,60,Chrome,1920,1080,,,,,,,,,,,,,,,,,2,,,,,,,,,,,,,,,,,,,,,,,,,,,667.46332,83,left,1.39992,parrot      ,6,5,-2,0,3,667.497075,667.497075,669.996585,0,5,5,5,1,83,6,8,parrot      ,gloves      ,html/resources/sequences_IDs/B/05_parrot.jpg,html/resources/sequences_IDs/B/06_gloves.jpg,5,6,2,1,3,2,4,5,0,54,,,,,,,,,,,,,,,,,,,,
,,,,,54,2020-07-04_16h25.11.584,retriever_ti,2020.1.3,Win32,60,Chrome,1920,1080,,,,,,,,,,,,,,,,,2,,,,,,,,,,,,,,,,,,,,,,,,,,,670.613405,84,right,1.46574,gloves      ,8,6,3,1,3,670.630465,670.630465,673.129795,0,6,6,6,1,84,5,8,calculator    ,gloves      ,html/resources/sequences_IDs/A/09_calculator.jpg,html/resources/sequences_IDs/B/06_gloves.jpg,9,6,4,2,3,2,8,5,0,54,,,,,,,,,,,,,,,,,,,,
,,,,,54,2020-07-04_16h25.11.584,retriever_ti,2020.1.3,Win32,60,Chrome,1920,1080,,,,,,,,,,,,,,,,,2,,,,,,,,,,,,,,,,,,,,,,,,,,,673.73049,85,right,1.22238,wolf          ,7,1,2,1,3,673.76381,673.76381,676.26318,0,7,7,7,1,85,5,7,calculator    ,wolf          ,html/resources/sequences_IDs/A/09_calculator.jpg,html/resources/sequences_IDs/A/01_wolf.jpg,9,1,4,2,1,1,8,1,0,54,,,,,,,,,,,,,,,,,,,,
,,,,,54,2020-07-04_16h25.11.584,retriever_ti,2020.1.3,Win32,60,Chrome,1920,1080,,,,,,,,,,,,,,,,,2,,,,,,,,,,,,,,,,,,,,,,,,,,,676.880315,86,right,0.754565,dress         ,1,7,-2,0,3,676.914065,676.914065,679.413225,0,8,8,8,1,86,3,1,seaturtle     ,dress         ,html/resources/sequences_IDs/A/02_seaturtle.jpg,html/resources/sequences_IDs/A/07_dress.jpg,2,7,2,1,3,2,2,6,0,54,,,,,,,,,,,,,,,,,,,,
,,,,,54,2020-07-04_16h25.11.584,retriever_ti,2020.1.3,Win32,60,Chrome,1920,1080,,,,,,,,,,,,,,,,,2,,,,,,,,,,,,,,,,,,,,,,,,,,,680.013945,87,right,2.05644,wolf          ,7,1,6,1,3,680.030785,680.030785,682.5299,0,9,9,9,1,87,1,7,dress         ,wolf          ,html/resources/sequences_IDs/A/07_dress.jpg,html/resources/sequences_IDs/A/01_wolf.jpg,7,1,3,2,1,1,6,1,0,54,,,,,,,,,,,,,,,,,,,,
,,,,,54,2020-07-04_16h25.11.584,retriever_ti,2020.1.3,Win32,60,Chrome,1920,1080,,,,,,,,,,,,,,,,,2,,,,,,,,,,,,,,,,,,,,,,,,,,,683.1304,88,left,1.052675,slipper     ,2,8,-1,0,0,683.14746,683.14746,685.646775,0,10,10,10,1,88,2,3,slipper     ,seaturtle     ,html/resources/sequences_IDs/B/08_slipper.jpg,html/resources/sequences_IDs/A/02_seaturtle.jpg,8,2,3,2,2,1,7,2,0,54,,,,,,,,,,,,,,,,,,,,
,,,,,54,2020-07-04_16h25.11.584,retriever_ti,2020.1.3,Win32,60,Chrome,1920,1080,,,,,,,,,,,,,,,,,2,,,,,,,,,,,,,,,,,,,,,,,,,,,686.747515,89,left,1.607615,parrot      ,6,5,4,1,3,686.7645,686.7645,689.26384,0,11,11,11,1,89,6,2,parrot      ,slipper     ,html/resources/sequences_IDs/B/05_parrot.jpg,html/resources/sequences_IDs/B/08_slipper.jpg,5,8,2,1,3,2,4,7,0,54,,,,,,,,,,,,,,,,,,,,
,,,,,54,2020-07-04_16h25.11.584,retriever_ti,2020.1.3,Win32,60,Chrome,1920,1080,,,,,,,,,,,,,,,,,2,,,,,,,,,,,,,,,,,,,,,,,,,,,689.88112,90,right,0.833705,calculator    ,5,9,-1,0,1,689.914665,689.914665,692.41397,0,12,12,12,1,90,6,5,parrot      ,calculator    ,html/resources/sequences_IDs/B/05_parrot.jpg,html/resources/sequences_IDs/A/09_calculator.jpg,5,9,2,1,4,2,4,8,1,54,,,,,,,,,,,,,,,,,,,,
,,,,,54,2020-07-04_16h25.11.584,retriever_ti,2020.1.3,Win32,60,Chrome,1920,1080,,,,,,,,,,,,,,,,,2,,,,,,,,,,,,,,,,,,,,,,,,,,,693.5145,91,left,0.843355,parrot      ,6,5,-1,0,0,693.547925,693.547925,696.04732,0,13,13,13,1,91,6,7,parrot      ,wolf          ,html/resources/sequences_IDs/B/05_parrot.jpg,html/resources/sequences_IDs/A/01_wolf.jpg,5,1,2,1,1,1,4,1,0,54,,,,,,,,,,,,,,,,,,,,
,,,,,54,2020-07-04_16h25.11.584,retriever_ti,2020.1.3,Win32,60,Chrome,1920,1080,,,,,,,,,,,,,,,,,2,,,,,,,,,,,,,,,,,,,,,,,,,,,697.147775,92,left,1.071535,giraffe     ,4,3,-1,0,0,697.165035,697.165035,699.66419,0,14,14,14,1,92,4,5,giraffe     ,calculator    ,html/resources/sequences_IDs/B/03_giraffe.jpg,html/resources/sequences_IDs/A/09_calculator.jpg,3,9,1,1,4,2,3,8,0,54,,,,,,,,,,,,,,,,,,,,
,,,,,54,2020-07-04_16h25.11.584,retriever_ti,2020.1.3,Win32,60,Chrome,1920,1080,,,,,,,,,,,,,,,,,2,,,,,,,,,,,,,,,,,,,,,,,,,,,700.764795,93,right,0.78755,slipper     ,2,8,-1,0,0,700.79843,700.79843,703.29754,0,15,15,15,1,93,3,2,seaturtle     ,slipper     ,html/resources/sequences_IDs/A/02_seaturtle.jpg,html/resources/sequences_IDs/B/08_slipper.jpg,2,8,2,1,3,2,2,7,0,54,,,,,,,,,,,,,,,,,,,,
,,,,,54,2020-07-04_16h25.11.584,retriever_ti,2020.1.3,Win32,60,Chrome,1920,1080,,,,,,,,,,,,,,,,,2,,,,,,,,,,,,,,,,,,,,,,,,,,,704.39879,94,right,1.0939,slipper     ,2,8,-3,0,3,704.43183,704.43183,706.930995,0,16,16,16,1,94,5,2,calculator    ,slipper     ,html/resources/sequences_IDs/A/09_calculator.jpg,html/resources/sequences_IDs/B/08_slipper.jpg,9,8,4,2,3,2,8,7,0,54,,,,,,,,,,,,,,,,,,,,
,,,,,54,2020-07-04_16h25.11.584,retriever_ti,2020.1.3,Win32,60,Chrome,1920,1080,,,,,,,,,,,,,,,,,2,,,,,,,,,,,,,,,,,,,,,,,,,,,707.53168,95,right,0.73666,giraffe     ,4,3,1,1,1,707.548565,707.548565,710.048015,0,17,17,17,1,95,3,4,seaturtle     ,giraffe     ,html/resources/sequences_IDs/A/02_seaturtle.jpg,html/resources/sequences_IDs/B/03_giraffe.jpg,2,3,2,1,1,1,2,3,0,54,,,,,,,,,,,,,,,,,,,,
,,,,,54,2020-07-04_16h25.11.584,retriever_ti,2020.1.3,Win32,60,Chrome,1920,1080,,,,,,,,,,,,,,,,,2,,,,,,,,,,,,,,,,,,,,,,,,,,,711.14832,96,right,1.27354,slipper     ,2,8,-1,0,0,711.18206,711.18206,713.681405,0,18,18,18,1,96,3,2,seaturtle     ,slipper     ,html/resources/sequences_IDs/A/02_seaturtle.jpg,html/resources/sequences_IDs/B/08_slipper.jpg,2,8,2,1,3,2,2,7,0,54,,,,,,,,,,,,,,,,,,,,
,,,,,54,2020-07-04_16h25.11.584,retriever_ti,2020.1.3,Win32,60,Chrome,1920,1080,,,,,,,,,,,,,,,,,2,,,,,,,,,,,,,,,,,,,,,,,,,,,714.782175,97,left,1.264965,parrot      ,6,5,-1,0,0,714.815575,714.815575,717.31486,0,19,19,19,1,97,6,7,parrot      ,wolf          ,html/resources/sequences_IDs/B/05_parrot.jpg,html/resources/sequences_IDs/A/01_wolf.jpg,5,1,2,1,1,1,4,1,0,54,,,,,,,,,,,,,,,,,,,,
,,,,,54,2020-07-04_16h25.11.584,retriever_ti,2020.1.3,Win32,60,Chrome,1920,1080,,,,,,,,,,,,,,,,,2,,,,,,,,,,,,,,,,,,,,,,,,,,,718.415645,98,left,1.4228,giraffe     ,4,3,-1,0,0,718.432465,718.432465,720.931785,0,20,20,20,1,98,4,5,giraffe     ,calculator    ,html/resources/sequences_IDs/B/03_giraffe.jpg,html/resources/sequences_IDs/A/09_calculator.jpg,3,9,1,1,4,2,3,8,0,54,,,,,,,,,,,,,,,,,,,,
,,,,,54,2020-07-04_16h25.11.584,retriever_ti,2020.1.3,Win32,60,Chrome,1920,1080,,,,,,,,,,,,,,,,,2,,,,,,,,,,,,,,,,,,,,,,,,,,,722.03217,99,left,1.04875,gloves      ,8,6,2,1,3,722.04919,722.04919,724.548595,0,21,21,21,1,99,8,6,gloves      ,parrot      ,html/resources/sequences_IDs/B/06_gloves.jpg,html/resources/sequences_IDs/B/05_parrot.jpg,6,5,3,2,2,1,5,4,0,54,,,,,,,,,,,,,,,,,,,,
,,,,,54,2020-07-04_16h25.11.584,retriever_ti,2020.1.3,Win32,60,Chrome,1920,1080,,,,,,,,,,,,,,,,,2,,,,,,,,,,,,,,,,,,,,,,,,,,,725.16548,100,right,1.58392,wolf          ,7,1,-1,0,0,725.182665,725.182665,727.68212,0,22,22,22,1,100,8,7,gloves      ,wolf          ,html/resources/sequences_IDs/B/06_gloves.jpg,html/resources/sequences_IDs/A/01_wolf.jpg,6,1,3,2,1,1,5,1,0,54,,,,,,,,,,,,,,,,,,,,
,,,,,54,2020-07-04_16h25.11.584,retriever_ti,2020.1.3,Win32,60,Chrome,1920,1080,,,,,,,,,,,,,,,,,2,,,,,,,,,,,,,,,,,,,,,,,,,,,728.782615,101,right,1.195935,calculator    ,5,9,-2,0,3,728.799425,728.799425,731.29893,0,23,23,23,1,101,7,5,wolf          ,calculator    ,html/resources/sequences_IDs/A/01_wolf.jpg,html/resources/sequences_IDs/A/09_calculator.jpg,1,9,1,1,4,2,1,8,0,54,,,,,,,,,,,,,,,,,,,,
,,,,,54,2020-07-04_16h25.11.584,retriever_ti,2020.1.3,Win32,60,Chrome,1920,1080,,,,,,,,,,,,,,,,,2,,,,,,,,,,,,,,,,,,,,,,,,,,,731.916235,102,left,1.06188,slipper     ,2,8,1,1,1,731.93284,731.93284,734.432195,0,24,24,24,1,102,2,1,slipper     ,dress         ,html/resources/sequences_IDs/B/08_slipper.jpg,html/resources/sequences_IDs/A/07_dress.jpg,8,7,3,2,3,2,7,6,0,54,,,,,,,,,,,,,,,,,,,,
,,,,,54,2020-07-04_16h25.11.584,retriever_ti,2020.1.3,Win32,60,Chrome,1920,1080,,,,,,,,,,,,,,,,,2,,,,,,,,,,,,,,,,,,,,,,,,,,,735.53286,103,right,1.066345,giraffe     ,4,3,-1,0,0,735.566395,735.566395,738.065775,0,25,25,25,1,103,5,4,calculator    ,giraffe     ,html/resources/sequences_IDs/A/09_calculator.jpg,html/resources/sequences_IDs/B/03_giraffe.jpg,9,3,4,2,1,1,8,3,0,54,,,,,,,,,,,,,,,,,,,,
,,,,,54,2020-07-04_16h25.11.584,retriever_ti,2020.1.3,Win32,60,Chrome,1920,1080,,,,,,,,,,,,,,,,,2,,,,,,,,,,,,,,,,,,,,,,,,,,,739.16594,104,right,0.959305,slipper     ,2,8,1,1,1,739.199915,739.199915,741.69915,0,26,26,26,1,104,1,2,dress         ,slipper     ,html/resources/sequences_IDs/A/07_dress.jpg,html/resources/sequences_IDs/B/08_slipper.jpg,7,8,3,2,3,2,6,7,0,54,,,,,,,,,,,,,,,,,,,,
,,,,,54,2020-07-04_16h25.11.584,retriever_ti,2020.1.3,Win32,60,Chrome,1920,1080,,,,,,,,,,,,,,,,,2,,,,,,,,,,,,,,,,,,,,,,,,,,,742.799695,105,left,1.794285,gloves      ,8,6,4,1,3,742.833345,742.833345,745.33276,0,27,27,27,1,105,8,4,gloves      ,giraffe     ,html/resources/sequences_IDs/B/06_gloves.jpg,html/resources/sequences_IDs/B/03_giraffe.jpg,6,3,3,2,1,1,5,3,0,54,,,,,,,,,,,,,,,,,,,,
,,,,,54,2020-07-04_16h25.11.584,retriever_ti,2020.1.3,Win32,60,Chrome,1920,1080,,,,,,,,,,,,,,,,,2,,,,,,,,,,,,,,,,,,,,,,,,,,,745.94993,106,right,1.321955,seaturtle     ,3,2,-2,0,3,745.96694,745.96694,748.466215,0,28,28,28,1,106,5,3,calculator    ,seaturtle     ,html/resources/sequences_IDs/A/09_calculator.jpg,html/resources/sequences_IDs/A/02_seaturtle.jpg,9,2,4,2,2,1,8,2,0,54,,,,,,,,,,,,,,,,,,,,
,,,,,54,2020-07-04_16h25.11.584,retriever_ti,2020.1.3,Win32,60,Chrome,1920,1080,,,,,,,,,,,,,,,,,2,,,,,,,,,,,,,,,,,,,,,,,,,,,749.08317,107,right,1.0443,parrot      ,6,5,-1,0,0,749.11709,749.11709,751.616355,0,29,29,29,1,107,7,6,wolf          ,parrot      ,html/resources/sequences_IDs/A/01_wolf.jpg,html/resources/sequences_IDs/B/05_parrot.jpg,1,5,1,1,2,1,1,4,0,54,,,,,,,,,,,,,,,,,,,,
,,,,,54,2020-07-04_16h25.11.584,retriever_ti,2020.1.3,Win32,60,Chrome,1920,1080,,,,,,,,,,,,,,,,,2,,,,,,,,,,,,,,,,,,,,,,,,,,,752.71691,108,right,1.12097,gloves      ,8,6,6,1,3,752.75044,752.75044,755.24964,0,30,30,30,1,108,2,8,slipper     ,gloves      ,html/resources/sequences_IDs/B/08_slipper.jpg,html/resources/sequences_IDs/B/06_gloves.jpg,8,6,3,2,3,2,7,5,0,54,,,,,,,,,,,,,,,,,,,,
,,,,,54,2020-07-04_16h25.11.584,retriever_ti,2020.1.3,Win32,60,Chrome,1920,1080,,,,,,,,,,,,,,,,,2,,,,,,,,,,,,,,,,,,,,,,,,,,,755.86715,109,right,1.238895,slipper     ,2,8,1,1,1,755.884185,755.884185,758.38322,0,31,31,31,1,109,1,2,dress         ,slipper     ,html/resources/sequences_IDs/A/07_dress.jpg,html/resources/sequences_IDs/B/08_slipper.jpg,7,8,3,2,3,2,6,7,0,54,,,,,,,,,,,,,,,,,,,,
,,,,,54,2020-07-04_16h25.11.584,retriever_ti,2020.1.3,Win32,60,Chrome,1920,1080,,,,,,,,,,,,,,,,,2,,,,,,,,,,,,,,,,,,,,,,,,,,,759.48386,110,left,1.566425,wolf          ,7,1,3,1,3,759.517655,759.517655,762.016735,0,32,32,32,1,110,7,4,wolf          ,giraffe     ,html/resources/sequences_IDs/A/01_wolf.jpg,html/resources/sequences_IDs/B/03_giraffe.jpg,1,3,1,1,1,1,1,3,0,54,,,,,,,,,,,,,,,,,,,,
,,,,,54,2020-07-04_16h25.11.584,retriever_ti,2020.1.3,Win32,60,Chrome,1920,1080,,,,,,,,,,,,,,,,,2,,,,,,,,,,,,,,,,,,,,,,,,,,,762.633635,111,left,0.70559,wolf          ,7,1,1,1,0,762.650785,762.650785,765.150205,0,33,33,33,1,111,7,6,wolf          ,parrot      ,html/resources/sequences_IDs/A/01_wolf.jpg,html/resources/sequences_IDs/B/05_parrot.jpg,1,5,1,1,2,1,1,4,1,54,,,,,,,,,,,,,,,,,,,,
,,,,,54,2020-07-04_16h25.11.584,retriever_ti,2020.1.3,Win32,60,Chrome,1920,1080,,,,,,,,,,,,,,,,,2,,,,,,,,,,,,,,,,,,,,,,,,,,,766.25073,112,left,1.38644,dress         ,1,7,-4,0,3,766.284295,766.284295,768.78384,0,34,34,34,1,112,1,5,dress         ,calculator    ,html/resources/sequences_IDs/A/07_dress.jpg,html/resources/sequences_IDs/A/09_calculator.jpg,7,9,3,2,4,2,6,8,0,54,,,,,,,,,,,,,,,,,,,,
,,,,,54,2020-07-04_16h25.11.584,retriever_ti,2020.1.3,Win32,60,Chrome,1920,1080,,,,,,,,,,,,,,,,,2,,,,,,,,,,,,,,,,,,,,,,,,,,,769.40109,113,left,0.892785,gloves      ,8,6,5,1,3,769.43442,769.43442,771.933885,0,35,35,35,1,113,8,3,gloves      ,seaturtle     ,html/resources/sequences_IDs/B/06_gloves.jpg,html/resources/sequences_IDs/A/02_seaturtle.jpg,6,2,3,2,2,1,5,2,0,54,,,,,,,,,,,,,,,,,,,,
,,,,,54,2020-07-04_16h25.11.584,retriever_ti,2020.1.3,Win32,60,Chrome,1920,1080,,,,,,,,,,,,,,,,,2,,,,,,,,,,,,,,,,,,,,,,,,,,,772.550435,114,right,0.83843,slipper     ,2,8,-2,0,3,772.58455,772.58455,775.083985,0,36,36,36,1,114,4,2,giraffe     ,slipper     ,html/resources/sequences_IDs/B/03_giraffe.jpg,html/resources/sequences_IDs/B/08_slipper.jpg,3,8,1,1,3,2,3,7,0,54,,,,,,,,,,,,,,,,,,,,
,,,,,54,2020-07-04_16h25.11.584,retriever_ti,2020.1.3,Win32,60,Chrome,1920,1080,,,,,,,,,,,,,,,,,2,,,,,,,,,,,,,,,,,,,,,,,,,,,775.701095,115,left,1.03382,calculator    ,5,9,1,1,1,775.71842,775.71842,778.21729,0,37,37,37,1,115,5,4,calculator    ,giraffe     ,html/resources/sequences_IDs/A/09_calculator.jpg,html/resources/sequences_IDs/B/03_giraffe.jpg,9,3,4,2,1,1,8,3,0,54,,,,,,,,,,,,,,,,,,,,
,,,,,54,2020-07-04_16h25.11.584,retriever_ti,2020.1.3,Win32,60,Chrome,1920,1080,,,,,,,,,,,,,,,,,2,,,,,,,,,,,,,,,,,,,,,,,,,,,779.31801,116,right,1.495475,gloves      ,8,6,7,1,3,779.33516,779.33516,781.834225,0,38,38,38,1,116,1,8,dress         ,gloves      ,html/resources/sequences_IDs/A/07_dress.jpg,html/resources/sequences_IDs/B/06_gloves.jpg,7,6,3,2,3,2,6,5,0,54,,,,,,,,,,,,,,,,,,,,
,,,,,54,2020-07-04_16h25.11.584,retriever_ti,2020.1.3,Win32,60,Chrome,1920,1080,,,,,,,,,,,,,,,,,2,,,,,,,,,,,,,,,,,,,,,,,,,,,782.45124,117,left,1.2619,slipper     ,2,8,1,1,1,782.46914,782.46914,784.967635,0,39,39,39,1,117,2,1,slipper     ,dress         ,html/resources/sequences_IDs/B/08_slipper.jpg,html/resources/sequences_IDs/A/07_dress.jpg,8,7,3,2,3,2,7,6,0,54,,,,,,,,,,,,,,,,,,,,
,,,,,54,2020-07-04_16h25.11.584,retriever_ti,2020.1.3,Win32,60,Chrome,1920,1080,,,,,,,,,,,,,,,,,2,,,,,,,,,,,,,,,,,,,,,,,,,,,786.068315,118,right,1.13332,calculator    ,5,9,2,1,3,786.0851,786.0851,788.58435,0,40,40,40,1,118,3,5,seaturtle     ,calculator    ,html/resources/sequences_IDs/A/02_seaturtle.jpg,html/resources/sequences_IDs/A/09_calculator.jpg,2,9,2,1,4,2,2,8,0,54,,,,,,,,,,,,,,,,,,,,
,,,,,54,2020-07-04_16h25.11.584,retriever_ti,2020.1.3,Win32,60,Chrome,1920,1080,,,,,,,,,,,,,,,,,2,,,,,,,,,,,,,,,,,,,,,,,,,,,789.184785,119,left,1.196985,giraffe     ,4,3,3,1,3,789.20213,789.20213,791.701355,0,41,41,41,1,119,4,1,giraffe     ,dress         ,html/resources/sequences_IDs/B/03_giraffe.jpg,html/resources/sequences_IDs/A/07_dress.jpg,3,7,1,1,3,2,3,6,0,54,,,,,,,,,,,,,,,,,,,,
,,,,,54,2020-07-04_16h25.11.584,retriever_ti,2020.1.3,Win32,60,Chrome,1920,1080,,,,,,,,,,,,,,,,,2,,,,,,,,,,,,,,,,,,,,,,,,,,,792.31849,120,left,1.528755,gloves      ,8,6,3,1,3,792.335125,792.335125,794.83465,0,42,42,42,1,120,8,5,gloves      ,calculator    ,html/resources/sequences_IDs/B/06_gloves.jpg,html/resources/sequences_IDs/A/09_calculator.jpg,6,9,3,2,4,2,5,8,0,54,,,,,,,,,,,,,,,,,,,,
,,,,,54,2020-07-04_16h25.11.584,retriever_ti,2020.1.3,Win32,60,Chrome,1920,1080,,,,,,,,,,,,,,,,,2,,,,,,,,,,,,,,,,,,,,,,,,,,,795.451935,121,right,0.667505,wolf          ,7,1,4,1,3,795.485345,795.485345,797.98497,0,43,43,43,1,121,3,7,seaturtle     ,wolf          ,html/resources/sequences_IDs/A/02_seaturtle.jpg,html/resources/sequences_IDs/A/01_wolf.jpg,2,1,2,1,1,1,2,1,0,54,,,,,,,,,,,,,,,,,,,,
,,,,,54,2020-07-04_16h25.11.584,retriever_ti,2020.1.3,Win32,60,Chrome,1920,1080,,,,,,,,,,,,,,,,,2,,,,,,,,,,,,,,,,,,,,,,,,,,,798.602,122,right,1.231295,parrot      ,6,5,1,1,1,798.61901,798.61901,801.118195,0,44,44,44,1,122,5,6,calculator    ,parrot      ,html/resources/sequences_IDs/A/09_calculator.jpg,html/resources/sequences_IDs/B/05_parrot.jpg,9,5,4,2,2,1,8,4,0,54,,,,,,,,,,,,,,,,,,,,
,,,,,54,2020-07-04_16h25.11.584,retriever_ti,2020.1.3,Win32,60,Chrome,1920,1080,,,,,,,,,,,,,,,,,2,,,,,,,,,,,,,,,,,,,,,,,,,,,802.21881,123,left,0.91823,wolf          ,7,1,6,1,3,802.252395,802.252395,804.751675,0,45,45,45,1,123,7,1,wolf          ,dress         ,html/resources/sequences_IDs/A/01_wolf.jpg,html/resources/sequences_IDs/A/07_dress.jpg,1,7,1,1,3,2,1,6,0,54,,,,,,,,,,,,,,,,,,,,
,,,,,54,2020-07-04_16h25.11.584,retriever_ti,2020.1.3,Win32,60,Chrome,1920,1080,,,,,,,,,,,,,,,,,2,,,,,,,,,,,,,,,,,,,,,,,,,,,805.352325,124,right,1.938125,calculator    ,5,9,3,1,3,805.385855,805.385855,807.885355,0,46,46,46,1,124,2,5,slipper     ,calculator    ,html/resources/sequences_IDs/B/08_slipper.jpg,html/resources/sequences_IDs/A/09_calculator.jpg,8,9,3,2,4,2,7,8,0,54,,,,,,,,,,,,,,,,,,,,
,,,,,54,2020-07-04_16h25.11.584,retriever_ti,2020.1.3,Win32,60,Chrome,1920,1080,,,,,,,,,,,,,,,,,2,,,,,,,,,,,,,,,,,,,,,,,,,,,808.5023,125,right,0.80994,calculator    ,5,9,1,1,0,808.53611,808.53611,811.035325,0,47,47,47,1,125,4,5,giraffe     ,calculator    ,html/resources/sequences_IDs/B/03_giraffe.jpg,html/resources/sequences_IDs/A/09_calculator.jpg,3,9,1,1,4,2,3,8,1,54,,,,,,,,,,,,,,,,,,,,
,,,,,54,2020-07-04_16h25.11.584,retriever_ti,2020.1.3,Win32,60,Chrome,1920,1080,,,,,,,,,,,,,,,,,2,,,,,,,,,,,,,,,,,,,,,,,,,,,812.13608,126,left,1.05347,wolf          ,7,1,-1,0,0,812.152895,812.152895,814.65224,0,48,48,48,1,126,7,8,wolf          ,gloves      ,html/resources/sequences_IDs/A/01_wolf.jpg,html/resources/sequences_IDs/B/06_gloves.jpg,1,6,1,1,3,2,1,5,0,54,,,,,,,,,,,,,,,,,,,,
,,,,,54,2020-07-04_16h25.11.584,retriever_ti,2020.1.3,Win32,60,Chrome,1920,1080,,,,,,,,,,,,,,,,,2,,,,,,,,,,,,,,,,,,,,,,,,,,,815.75284,127,right,1.029355,slipper     ,2,8,1,1,0,815.76974,815.76974,818.26902,0,49,49,49,1,127,1,2,dress         ,slipper     ,html/resources/sequences_IDs/A/07_dress.jpg,html/resources/sequences_IDs/B/08_slipper.jpg,7,8,3,2,3,2,6,7,1,54,,,,,,,,,,,,,,,,,,,,
,,,,,54,2020-07-04_16h25.11.584,retriever_ti,2020.1.3,Win32,60,Chrome,1920,1080,,,,,,,,,,,,,,,,,2,,,,,,,,,,,,,,,,,,,,,,,,,,,819.36957,128,right,0.73492,giraffe     ,4,3,1,1,0,819.403225,819.403225,821.90249,0,50,50,50,1,128,3,4,seaturtle     ,giraffe     ,html/resources/sequences_IDs/A/02_seaturtle.jpg,html/resources/sequences_IDs/B/03_giraffe.jpg,2,3,2,1,1,1,2,3,1,54,,,,,,,,,,,,,,,,,,,,
,,,,,54,2020-07-04_16h25.11.584,retriever_ti,2020.1.3,Win32,60,Chrome,1920,1080,,,,,,,,,,,,,,,,,2,,,,,,,,,,,,,,,,,,,,,,,,,,,823.002865,129,left,1.93961,slipper     ,2,8,-5,0,3,823.02016,823.02016,825.51917,0,51,51,51,1,129,2,7,slipper     ,wolf          ,html/resources/sequences_IDs/B/08_slipper.jpg,html/resources/sequences_IDs/A/01_wolf.jpg,8,1,3,2,1,1,7,1,0,54,,,,,,,,,,,,,,,,,,,,
,,,,,54,2020-07-04_16h25.11.584,retriever_ti,2020.1.3,Win32,60,Chrome,1920,1080,,,,,,,,,,,,,,,,,2,,,,,,,,,,,,,,,,,,,,,,,,,,,826.11993,130,left,1.04173,gloves      ,8,6,6,1,3,826.153565,826.153565,828.653015,0,52,52,52,1,130,8,2,gloves      ,slipper     ,html/resources/sequences_IDs/B/06_gloves.jpg,html/resources/sequences_IDs/B/08_slipper.jpg,6,8,3,2,3,2,5,7,0,54,,,,,,,,,,,,,,,,,,,,
,,,,,54,2020-07-04_16h25.11.584,retriever_ti,2020.1.3,Win32,60,Chrome,1920,1080,,,,,,,,,,,,,,,,,2,,,,,,,,,,,,,,,,,,,,,,,,,,,829.270085,131,right,1.59158,slipper     ,2,8,-5,0,3,829.30374,829.30374,831.802935,0,53,53,53,1,131,7,2,wolf          ,slipper     ,html/resources/sequences_IDs/A/01_wolf.jpg,html/resources/sequences_IDs/B/08_slipper.jpg,1,8,1,1,3,2,1,7,0,54,,,,,,,,,,,,,,,,,,,,
,,,,,54,2020-07-04_16h25.11.584,retriever_ti,2020.1.3,Win32,60,Chrome,1920,1080,,,,,,,,,,,,,,,,,2,,,,,,,,,,,,,,,,,,,,,,,,,,,832.4196,132,left,0.7675,dress         ,1,7,-2,0,3,832.453555,832.453555,834.953085,0,54,54,54,1,132,1,3,dress         ,seaturtle     ,html/resources/sequences_IDs/A/07_dress.jpg,html/resources/sequences_IDs/A/02_seaturtle.jpg,7,2,3,2,2,1,6,2,0,54,,,,,,,,,,,,,,,,,,,,
,,,,,54,2020-07-04_16h25.11.584,retriever_ti,2020.1.3,Win32,60,Chrome,1920,1080,,,,,,,,,,,,,,,,,2,,,,,,,,,,,,,,,,,,,,,,,,,,,835.570175,133,right,1.2109,wolf          ,7,1,3,1,3,835.603915,835.603915,838.103145,0,55,55,55,1,133,4,7,giraffe     ,wolf          ,html/resources/sequences_IDs/B/03_giraffe.jpg,html/resources/sequences_IDs/A/01_wolf.jpg,3,1,1,1,1,1,3,1,0,54,,,,,,,,,,,,,,,,,,,,
,,,,,54,2020-07-04_16h25.11.584,retriever_ti,2020.1.3,Win32,60,Chrome,1920,1080,,,,,,,,,,,,,,,,,2,,,,,,,,,,,,,,,,,,,,,,,,,,,838.720215,134,left,0.802085,giraffe     ,4,3,1,1,1,838.753955,838.753955,841.253425,0,56,56,56,1,134,4,3,giraffe     ,seaturtle     ,html/resources/sequences_IDs/B/03_giraffe.jpg,html/resources/sequences_IDs/A/02_seaturtle.jpg,3,2,1,1,2,1,3,2,0,54,,,,,,,,,,,,,,,,,,,,
,,,,,54,2020-07-04_16h25.11.584,retriever_ti,2020.1.3,Win32,60,Chrome,1920,1080,,,,,,,,,,,,,,,,,2,,,,,,,,,,,,,,,,,,,,,,,,,,,842.353865,135,right,0.90061,gloves      ,8,6,5,1,3,842.370815,842.370815,844.87023,0,57,57,57,1,135,3,8,seaturtle     ,gloves      ,html/resources/sequences_IDs/A/02_seaturtle.jpg,html/resources/sequences_IDs/B/06_gloves.jpg,2,6,2,1,3,2,2,5,0,54,,,,,,,,,,,,,,,,,,,,
,,,,,54,2020-07-04_16h25.11.584,retriever_ti,2020.1.3,Win32,60,Chrome,1920,1080,,,,,,,,,,,,,,,,,2,,,,,,,,,,,,,,,,,,,,,,,,,,,845.48753,136,left,0.864405,slipper     ,2,8,-1,0,0,845.504555,845.504555,848.00356,0,58,58,58,1,136,2,3,slipper     ,seaturtle     ,html/resources/sequences_IDs/B/08_slipper.jpg,html/resources/sequences_IDs/A/02_seaturtle.jpg,8,2,3,2,2,1,7,2,0,54,,,,,,,,,,,,,,,,,,,,
,,,,,54,2020-07-04_16h25.11.584,retriever_ti,2020.1.3,Win32,60,Chrome,1920,1080,,,,,,,,,,,,,,,,,2,,,,,,,,,,,,,,,,,,,,,,,,,,,849.103815,137,right,1.31711,gloves      ,8,6,4,1,3,849.13788,849.13788,851.63706,0,59,59,59,1,137,4,8,giraffe     ,gloves      ,html/resources/sequences_IDs/B/03_giraffe.jpg,html/resources/sequences_IDs/B/06_gloves.jpg,3,6,1,1,3,2,3,5,0,54,,,,,,,,,,,,,,,,,,,,
,,,,,54,2020-07-04_16h25.11.584,retriever_ti,2020.1.3,Win32,60,Chrome,1920,1080,,,,,,,,,,,,,,,,,2,,,,,,,,,,,,,,,,,,,,,,,,,,,852.25439,138,right,0.926485,parrot      ,6,5,3,1,3,852.287855,852.287855,854.78725,0,60,60,60,1,138,3,6,seaturtle     ,parrot      ,html/resources/sequences_IDs/A/02_seaturtle.jpg,html/resources/sequences_IDs/B/05_parrot.jpg,2,5,2,1,2,1,2,4,0,54,,,,,,,,,,,,,,,,,,,,
,,,,,54,2020-07-04_16h25.11.584,retriever_ti,2020.1.3,Win32,60,Chrome,1920,1080,,,,,,,,,,,,,,,,,2,,,,,,,,,,,,,,,,,,,,,,,,,,,855.4043,139,left,0.9481,giraffe     ,4,3,1,1,1,855.421455,855.421455,857.920645,0,61,61,61,1,139,4,3,giraffe     ,seaturtle     ,html/resources/sequences_IDs/B/03_giraffe.jpg,html/resources/sequences_IDs/A/02_seaturtle.jpg,3,2,1,1,2,1,3,2,0,54,,,,,,,,,,,,,,,,,,,,
,,,,,54,2020-07-04_16h25.11.584,retriever_ti,2020.1.3,Win32,60,Chrome,1920,1080,,,,,,,,,,,,,,,,,2,,,,,,,,,,,,,,,,,,,,,,,,,,,859.020915,140,left,0.96676,parrot      ,6,5,1,1,1,859.054755,859.054755,861.55411,0,62,62,62,1,140,6,5,parrot      ,calculator    ,html/resources/sequences_IDs/B/05_parrot.jpg,html/resources/sequences_IDs/A/09_calculator.jpg,5,9,2,1,4,2,4,8,0,54,,,,,,,,,,,,,,,,,,,,
,,,,,54,2020-07-04_16h25.11.584,retriever_ti,2020.1.3,Win32,60,Chrome,1920,1080,,,,,,,,,,,,,,,,,2,,,,,,,,,,,,,,,,,,,,,,,,,,,862.654805,141,right,1.3889,parrot      ,6,5,1,1,1,862.67164,862.67164,865.170805,0,63,63,63,1,141,5,6,calculator    ,parrot      ,html/resources/sequences_IDs/A/09_calculator.jpg,html/resources/sequences_IDs/B/05_parrot.jpg,9,5,4,2,2,1,8,4,0,54,,,,,,,,,,,,,,,,,,,,
,,,,,54,2020-07-04_16h25.11.584,retriever_ti,2020.1.3,Win32,60,Chrome,1920,1080,,,,,,,,,,,,,,,,,2,,,,,,,,,,,,,,,,,,,,,,,,,,,866.271625,142,left,1.90277,seaturtle     ,3,2,-1,0,0,866.28844,866.28844,868.78784,0,64,64,64,1,142,3,4,seaturtle     ,giraffe     ,html/resources/sequences_IDs/A/02_seaturtle.jpg,html/resources/sequences_IDs/B/03_giraffe.jpg,2,3,2,1,1,1,2,3,0,54,,,,,,,,,,,,,,,,,,,,
,,,,,54,2020-07-04_16h25.11.584,retriever_ti,2020.1.3,Win32,60,Chrome,1920,1080,,,,,,,,,,,,,,,,,2,,,,,,,,,,,,,,,,,,,,,,,,,,,869.8885,143,right,0.99695,parrot      ,6,5,4,1,3,869.922015,869.922015,872.42126,0,65,65,65,1,143,2,6,slipper     ,parrot      ,html/resources/sequences_IDs/B/08_slipper.jpg,html/resources/sequences_IDs/B/05_parrot.jpg,8,5,3,2,2,1,7,4,0,54,,,,,,,,,,,,,,,,,,,,
,,,,,54,2020-07-04_16h25.11.584,retriever_ti,2020.1.3,Win32,60,Chrome,1920,1080,,,,,,,,,,,,,,,,,2,,,,,,,,,,,,,,,,,,,,,,,,,,,873.038315,144,right,1.18242,gloves      ,8,6,1,1,0,873.072095,873.072095,875.571345,0,66,66,66,1,144,7,8,wolf          ,gloves      ,html/resources/sequences_IDs/A/01_wolf.jpg,html/resources/sequences_IDs/B/06_gloves.jpg,1,6,1,1,3,2,1,5,1,54,,,,,,,,,,,,,,,,,,,,
,,,,,54,2020-07-04_16h25.11.584,retriever_ti,2020.1.3,Win32,60,Chrome,1920,1080,,,,,,,,,,,,,,,,,2,,,,,,,,,,,,,,,,,,,,,,,,,,,876.671835,145,right,0.720375,parrot      ,6,5,2,1,3,876.689185,876.689185,879.18824,0,67,67,67,1,145,4,6,giraffe     ,parrot      ,html/resources/sequences_IDs/B/03_giraffe.jpg,html/resources/sequences_IDs/B/05_parrot.jpg,3,5,1,1,2,1,3,4,0,54,,,,,,,,,,,,,,,,,,,,
,,,,,54,2020-07-04_16h25.11.584,retriever_ti,2020.1.3,Win32,60,Chrome,1920,1080,,,,,,,,,,,,,,,,,2,,,,,,,,,,,,,,,,,,,,,,,,,,,879.805435,146,left,1.29863,wolf          ,7,1,4,1,3,879.839355,879.839355,882.338405,0,68,68,68,1,146,7,3,wolf          ,seaturtle     ,html/resources/sequences_IDs/A/01_wolf.jpg,html/resources/sequences_IDs/A/02_seaturtle.jpg,1,2,1,1,2,1,1,2,0,54,,,,,,,,,,,,,,,,,,,,
,,,,,54,2020-07-04_16h25.11.584,retriever_ti,2020.1.3,Win32,60,Chrome,1920,1080,,,,,,,,,,,,,,,,,2,,,,,,,,,,,,,,,,,,,,,,,,,,,882.955305,147,left,2.41161,slipper     ,2,8,-2,0,3,882.989195,882.989195,885.488425,0,69,69,69,1,147,2,4,slipper     ,giraffe     ,html/resources/sequences_IDs/B/08_slipper.jpg,html/resources/sequences_IDs/B/03_giraffe.jpg,8,3,3,2,1,1,7,3,0,54,,,,,,,,,,,,,,,,,,,,
,,,,,54,2020-07-04_16h25.11.584,retriever_ti,2020.1.3,Win32,60,Chrome,1920,1080,,,,,,,,,,,,,,,,,2,,,,,,,,,,,,,,,,,,,,,,,,,,,886.105825,148,right,1.08471,gloves      ,8,6,1,1,1,886.12257,886.12257,888.621935,0,70,70,70,1,148,7,8,wolf          ,gloves      ,html/resources/sequences_IDs/A/01_wolf.jpg,html/resources/sequences_IDs/B/06_gloves.jpg,1,6,1,1,3,2,1,5,0,54,,,,,,,,,,,,,,,,,,,,
,,,,,54,2020-07-04_16h25.11.584,retriever_ti,2020.1.3,Win32,60,Chrome,1920,1080,,,,,,,,,,,,,,,,,2,,,,,,,,,,,,,,,,,,,,,,,,,,,889.722495,149,right,1.134165,parrot      ,6,5,5,1,3,889.756025,889.756025,892.255225,0,71,71,71,1,149,1,6,dress         ,parrot      ,html/resources/sequences_IDs/A/07_dress.jpg,html/resources/sequences_IDs/B/05_parrot.jpg,7,5,3,2,2,1,6,4,0,54,,,,,,,,,,,,,,,,,,,,
,,,,,54,2020-07-04_16h25.11.584,retriever_ti,2020.1.3,Win32,60,Chrome,1920,1080,,,,,,,,,,,,,,,,,2,,,,,,,,,,,,,,,,,,,,,,,,,,,892.872385,150,left,0.852335,gloves      ,8,6,1,1,1,892.906565,892.906565,895.40562,0,72,72,72,1,150,8,7,gloves      ,wolf          ,html/resources/sequences_IDs/B/06_gloves.jpg,html/resources/sequences_IDs/A/01_wolf.jpg,6,1,3,2,1,1,5,1,0,54,,,,,,,,,,,,,,,,,,,,
,,,,,54,2020-07-04_16h25.11.584,retriever_ti,2020.1.3,Win32,60,Chrome,1920,1080,,,,,,,,,,,,,,,,,2,,,,,,,,,,,,,,,,,,,,,,,,,,,896.50594,151,left,1.093735,parrot      ,6,5,2,1,3,896.539755,896.539755,899.03878,0,73,73,73,1,151,6,4,parrot      ,giraffe     ,html/resources/sequences_IDs/B/05_parrot.jpg,html/resources/sequences_IDs/B/03_giraffe.jpg,5,3,2,1,1,1,4,3,0,54,,,,,,,,,,,,,,,,,,,,
,,,,,54,2020-07-04_16h25.11.584,retriever_ti,2020.1.3,Win32,60,Chrome,1920,1080,,,,,,,,,,,,,,,,,2,,,,,,,,,,,,,,,,,,,,,,,,,,,899.639535,152,right,0.694705,parrot      ,6,5,-1,0,0,899.67313,899.67313,902.172315,0,74,74,74,1,152,7,6,wolf          ,parrot      ,html/resources/sequences_IDs/A/01_wolf.jpg,html/resources/sequences_IDs/B/05_parrot.jpg,1,5,1,1,2,1,1,4,0,54,,,,,,,,,,,,,,,,,,,,
,,,,,54,2020-07-04_16h25.11.584,retriever_ti,2020.1.3,Win32,60,Chrome,1920,1080,,,,,,,,,,,,,,,,,2,,,,,,,,,,,,,,,,,,,,,,,,,,,903.2728,153,right,0.652875,giraffe     ,4,3,3,1,3,903.30662,903.30662,905.805995,0,75,75,75,1,153,1,4,dress         ,giraffe     ,html/resources/sequences_IDs/A/07_dress.jpg,html/resources/sequences_IDs/B/03_giraffe.jpg,7,3,3,2,1,1,6,3,0,54,,,,,,,,,,,,,,,,,,,,
,,,,,54,2020-07-04_16h25.11.584,retriever_ti,2020.1.3,Win32,60,Chrome,1920,1080,,,,,,,,,,,,,,,,,2,,,,,,,,,,,,,,,,,,,,,,,,,,,906.42319,154,right,0.921195,slipper     ,2,8,-1,0,1,906.440085,906.440085,908.939465,0,76,76,76,1,154,3,2,seaturtle     ,slipper     ,html/resources/sequences_IDs/A/02_seaturtle.jpg,html/resources/sequences_IDs/B/08_slipper.jpg,2,8,2,1,3,2,2,7,1,54,,,,,,,,,,,,,,,,,,,,
,,,,,54,2020-07-04_16h25.11.584,retriever_ti,2020.1.3,Win32,60,Chrome,1920,1080,,,,,,,,,,,,,,,,,,,,,,,,,,,,,,,,,,,,,0,1.3376,,,,,,,,,,,,,,,,,,,,,,,,,,,,,,,,,,,,,,,,,1,0,1,0,1,,,,,,,,,,,,,,,
,,,,,54,2020-07-04_16h25.11.584,retriever_ti,2020.1.3,Win32,60,Chrome,1920,1080,,,,,,,,,,,,,,,,,3,,,,,,,,,,,,,,,,,,,,,,,,,,,918.83788,155,left,0.854565,gloves      ,8,6,4,1,3,918.87416,918.87416,921.373345,0,0,0,0,1,155,8,4,gloves      ,giraffe     ,html/resources/sequences_IDs/B/06_gloves.jpg,html/resources/sequences_IDs/B/03_giraffe.jpg,6,3,3,2,1,1,5,3,0,54,,,,,,,,,,,,,,,,,,,,
,,,,,54,2020-07-04_16h25.11.584,retriever_ti,2020.1.3,Win32,60,Chrome,1920,1080,,,,,,,,,,,,,,,,,3,,,,,,,,,,,,,,,,,,,,,,,,,,,921.99027,156,right,1.236655,dress         ,1,7,-3,0,3,922.00721,922.00721,924.50672,0,1,1,1,1,156,4,1,giraffe     ,dress         ,html/resources/sequences_IDs/B/03_giraffe.jpg,html/resources/sequences_IDs/A/07_dress.jpg,3,7,1,1,3,2,3,6,0,54,,,,,,,,,,,,,,,,,,,,
,,,,,54,2020-07-04_16h25.11.584,retriever_ti,2020.1.3,Win32,60,Chrome,1920,1080,,,,,,,,,,,,,,,,,3,,,,,,,,,,,,,,,,,,,,,,,,,,,925.123925,157,right,0.87069,calculator    ,5,9,4,1,3,925.140855,925.140855,927.64033,0,2,2,2,1,157,1,5,dress         ,calculator    ,html/resources/sequences_IDs/A/07_dress.jpg,html/resources/sequences_IDs/A/09_calculator.jpg,7,9,3,2,4,2,6,8,0,54,,,,,,,,,,,,,,,,,,,,
,,,,,54,2020-07-04_16h25.11.584,retriever_ti,2020.1.3,Win32,60,Chrome,1920,1080,,,,,,,,,,,,,,,,,3,,,,,,,,,,,,,,,,,,,,,,,,,,,928.25711,158,left,0.881725,parrot      ,6,5,-1,0,0,928.274325,928.274325,930.773575,0,3,3,3,1,158,6,7,parrot      ,wolf          ,html/resources/sequences_IDs/B/05_parrot.jpg,html/resources/sequences_IDs/A/01_wolf.jpg,5,1,2,1,1,1,4,1,0,54,,,,,,,,,,,,,,,,,,,,
,,,,,54,2020-07-04_16h25.11.584,retriever_ti,2020.1.3,Win32,60,Chrome,1920,1080,,,,,,,,,,,,,,,,,3,,,,,,,,,,,,,,,,,,,,,,,,,,,931.8742,159,left,0.876855,giraffe     ,4,3,1,1,1,931.90798,931.90798,934.4073,0,4,4,4,1,159,4,3,giraffe     ,seaturtle     ,html/resources/sequences_IDs/B/03_giraffe.jpg,html/resources/sequences_IDs/A/02_seaturtle.jpg,3,2,1,1,2,1,3,2,0,54,,,,,,,,,,,,,,,,,,,,
,,,,,54,2020-07-04_16h25.11.584,retriever_ti,2020.1.3,Win32,60,Chrome,1920,1080,,,,,,,,,,,,,,,,,3,,,,,,,,,,,,,,,,,,,,,,,,,,,935.50762,160,right,0.791425,calculator    ,5,9,3,1,3,935.54151,935.54151,938.040685,0,5,5,5,1,160,2,5,slipper     ,calculator    ,html/resources/sequences_IDs/B/08_slipper.jpg,html/resources/sequences_IDs/A/09_calculator.jpg,8,9,3,2,4,2,7,8,0,54,,,,,,,,,,,,,,,,,,,,
,,,,,54,2020-07-04_16h25.11.584,retriever_ti,2020.1.3,Win32,60,Chrome,1920,1080,,,,,,,,,,,,,,,,,3,,,,,,,,,,,,,,,,,,,,,,,,,,,938.65763,161,right,1.03772,slipper     ,2,8,-5,0,3,938.674805,938.674805,941.17412,0,6,6,6,1,161,7,2,wolf          ,slipper     ,html/resources/sequences_IDs/A/01_wolf.jpg,html/resources/sequences_IDs/B/08_slipper.jpg,1,8,1,1,3,2,1,7,0,54,,,,,,,,,,,,,,,,,,,,
,,,,,54,2020-07-04_16h25.11.584,retriever_ti,2020.1.3,Win32,60,Chrome,1920,1080,,,,,,,,,,,,,,,,,3,,,,,,,,,,,,,,,,,,,,,,,,,,,941.79137,162,right,0.68053,parrot      ,6,5,3,1,3,941.824905,941.824905,944.324215,0,7,7,7,1,162,3,6,seaturtle     ,parrot      ,html/resources/sequences_IDs/A/02_seaturtle.jpg,html/resources/sequences_IDs/B/05_parrot.jpg,2,5,2,1,2,1,2,4,0,54,,,,,,,,,,,,,,,,,,,,
,,,,,54,2020-07-04_16h25.11.584,retriever_ti,2020.1.3,Win32,60,Chrome,1920,1080,,,,,,,,,,,,,,,,,3,,,,,,,,,,,,,,,,,,,,,,,,,,,944.941505,163,right,1.01055,slipper     ,2,8,-2,0,3,944.975,944.975,947.474405,0,8,8,8,1,163,4,2,giraffe     ,slipper     ,html/resources/sequences_IDs/B/03_giraffe.jpg,html/resources/sequences_IDs/B/08_slipper.jpg,3,8,1,1,3,2,3,7,0,54,,,,,,,,,,,,,,,,,,,,
,,,,,54,2020-07-04_16h25.11.584,retriever_ti,2020.1.3,Win32,60,Chrome,1920,1080,,,,,,,,,,,,,,,,,3,,,,,,,,,,,,,,,,,,,,,,,,,,,948.091135,164,right,0.758395,parrot      ,6,5,2,1,3,948.125005,948.125005,950.62427,0,9,9,9,1,164,4,6,giraffe     ,parrot      ,html/resources/sequences_IDs/B/03_giraffe.jpg,html/resources/sequences_IDs/B/05_parrot.jpg,3,5,1,1,2,1,3,4,0,54,,,,,,,,,,,,,,,,,,,,
,,,,,54,2020-07-04_16h25.11.584,retriever_ti,2020.1.3,Win32,60,Chrome,1920,1080,,,,,,,,,,,,,,,,,3,,,,,,,,,,,,,,,,,,,,,,,,,,,951.225095,165,left,0.86373,calculator    ,5,9,3,1,3,951.25862,951.25862,953.757865,0,10,10,10,1,165,5,2,calculator    ,slipper     ,html/resources/sequences_IDs/A/09_calculator.jpg,html/resources/sequences_IDs/B/08_slipper.jpg,9,8,4,2,3,2,8,7,0,54,,,,,,,,,,,,,,,,,,,,
,,,,,54,2020-07-04_16h25.11.584,retriever_ti,2020.1.3,Win32,60,Chrome,1920,1080,,,,,,,,,,,,,,,,,3,,,,,,,,,,,,,,,,,,,,,,,,,,,954.374765,166,right,1.788675,parrot      ,6,5,-1,0,0,954.408715,954.408715,956.908205,0,11,11,11,1,166,7,6,wolf          ,parrot      ,html/resources/sequences_IDs/A/01_wolf.jpg,html/resources/sequences_IDs/B/05_parrot.jpg,1,5,1,1,2,1,1,4,0,54,,,,,,,,,,,,,,,,,,,,
,,,,,54,2020-07-04_16h25.11.584,retriever_ti,2020.1.3,Win32,60,Chrome,1920,1080,,,,,,,,,,,,,,,,,3,,,,,,,,,,,,,,,,,,,,,,,,,,,958.008665,167,right,0.71445,giraffe     ,4,3,1,1,0,958.02543,958.02543,960.52468,0,12,12,12,1,167,3,4,seaturtle     ,giraffe     ,html/resources/sequences_IDs/A/02_seaturtle.jpg,html/resources/sequences_IDs/B/03_giraffe.jpg,2,3,2,1,1,1,2,3,1,54,,,,,,,,,,,,,,,,,,,,
,,,,,54,2020-07-04_16h25.11.584,retriever_ti,2020.1.3,Win32,60,Chrome,1920,1080,,,,,,,,,,,,,,,,,3,,,,,,,,,,,,,,,,,,,,,,,,,,,961.625435,168,right,1.11898,parrot      ,6,5,-2,0,3,961.64226,961.64226,964.14171,0,13,13,13,1,168,8,6,gloves      ,parrot      ,html/resources/sequences_IDs/B/06_gloves.jpg,html/resources/sequences_IDs/B/05_parrot.jpg,6,5,3,2,2,1,5,4,0,54,,,,,,,,,,,,,,,,,,,,
,,,,,54,2020-07-04_16h25.11.584,retriever_ti,2020.1.3,Win32,60,Chrome,1920,1080,,,,,,,,,,,,,,,,,3,,,,,,,,,,,,,,,,,,,,,,,,,,,964.758715,169,right,0.939145,gloves      ,8,6,1,1,0,964.792325,964.792325,967.291845,0,14,14,14,1,169,7,8,wolf          ,gloves      ,html/resources/sequences_IDs/A/01_wolf.jpg,html/resources/sequences_IDs/B/06_gloves.jpg,1,6,1,1,3,2,1,5,1,54,,,,,,,,,,,,,,,,,,,,
,,,,,54,2020-07-04_16h25.11.584,retriever_ti,2020.1.3,Win32,60,Chrome,1920,1080,,,,,,,,,,,,,,,,,3,,,,,,,,,,,,,,,,,,,,,,,,,,,968.392455,170,left,0.833675,calculator    ,5,9,-3,0,3,968.425915,968.425915,970.925285,0,15,15,15,1,170,5,8,calculator    ,gloves      ,html/resources/sequences_IDs/A/09_calculator.jpg,html/resources/sequences_IDs/B/06_gloves.jpg,9,6,4,2,3,2,8,5,0,54,,,,,,,,,,,,,,,,,,,,
,,,,,54,2020-07-04_16h25.11.584,retriever_ti,2020.1.3,Win32,60,Chrome,1920,1080,,,,,,,,,,,,,,,,,3,,,,,,,,,,,,,,,,,,,,,,,,,,,971.54263,171,right,0.743805,parrot      ,6,5,1,1,1,971.559565,971.559565,974.058865,0,16,16,16,1,171,5,6,calculator    ,parrot      ,html/resources/sequences_IDs/A/09_calculator.jpg,html/resources/sequences_IDs/B/05_parrot.jpg,9,5,4,2,2,1,8,4,0,54,,,,,,,,,,,,,,,,,,,,
,,,,,54,2020-07-04_16h25.11.584,retriever_ti,2020.1.3,Win32,60,Chrome,1920,1080,,,,,,,,,,,,,,,,,3,,,,,,,,,,,,,,,,,,,,,,,,,,,975.159455,172,right,2.201255,calculator    ,5,9,1,1,1,975.192935,975.192935,977.69246,0,17,17,17,1,172,4,5,giraffe     ,calculator    ,html/resources/sequences_IDs/B/03_giraffe.jpg,html/resources/sequences_IDs/A/09_calculator.jpg,3,9,1,1,4,2,3,8,0,54,,,,,,,,,,,,,,,,,,,,
,,,,,54,2020-07-04_16h25.11.584,retriever_ti,2020.1.3,Win32,60,Chrome,1920,1080,,,,,,,,,,,,,,,,,3,,,,,,,,,,,,,,,,,,,,,,,,,,,978.79247,173,left,1.124755,gloves      ,8,6,6,1,3,978.826825,978.826825,981.32569,0,18,18,18,1,173,8,2,gloves      ,slipper     ,html/resources/sequences_IDs/B/06_gloves.jpg,html/resources/sequences_IDs/B/08_slipper.jpg,6,8,3,2,3,2,5,7,0,54,,,,,,,,,,,,,,,,,,,,
,,,,,54,2020-07-04_16h25.11.584,retriever_ti,2020.1.3,Win32,60,Chrome,1920,1080,,,,,,,,,,,,,,,,,3,,,,,,,,,,,,,,,,,,,,,,,,,,,981.94275,174,left,1.168065,wolf          ,7,1,3,1,3,981.9764,981.9764,984.47559,0,19,19,19,1,174,7,4,wolf          ,giraffe     ,html/resources/sequences_IDs/A/01_wolf.jpg,html/resources/sequences_IDs/B/03_giraffe.jpg,1,3,1,1,1,1,1,3,0,54,,,,,,,,,,,,,,,,,,,,
,,,,,54,2020-07-04_16h25.11.584,retriever_ti,2020.1.3,Win32,60,Chrome,1920,1080,,,,,,,,,,,,,,,,,3,,,,,,,,,,,,,,,,,,,,,,,,,,,985.07631,175,left,1.054785,gloves      ,8,6,7,1,3,985.10987,985.10987,987.609225,0,20,20,20,1,175,8,1,gloves      ,dress         ,html/resources/sequences_IDs/B/06_gloves.jpg,html/resources/sequences_IDs/A/07_dress.jpg,6,7,3,2,3,2,5,6,0,54,,,,,,,,,,,,,,,,,,,,
,,,,,54,2020-07-04_16h25.11.584,retriever_ti,2020.1.3,Win32,60,Chrome,1920,1080,,,,,,,,,,,,,,,,,3,,,,,,,,,,,,,,,,,,,,,,,,,,,988.20967,176,left,1.014875,gloves      ,8,6,5,1,3,988.243445,988.243445,990.742715,0,21,21,21,1,176,8,3,gloves      ,seaturtle     ,html/resources/sequences_IDs/B/06_gloves.jpg,html/resources/sequences_IDs/A/02_seaturtle.jpg,6,2,3,2,2,1,5,2,0,54,,,,,,,,,,,,,,,,,,,,
,,,,,54,2020-07-04_16h25.11.584,retriever_ti,2020.1.3,Win32,60,Chrome,1920,1080,,,,,,,,,,,,,,,,,3,,,,,,,,,,,,,,,,,,,,,,,,,,,991.343605,177,right,0.77752,slipper     ,2,8,1,1,1,991.37691,991.37691,993.876305,0,22,22,22,1,177,1,2,dress         ,slipper     ,html/resources/sequences_IDs/A/07_dress.jpg,html/resources/sequences_IDs/B/08_slipper.jpg,7,8,3,2,3,2,6,7,0,54,,,,,,,,,,,,,,,,,,,,
,,,,,54,2020-07-04_16h25.11.584,retriever_ti,2020.1.3,Win32,60,Chrome,1920,1080,,,,,,,,,,,,,,,,,3,,,,,,,,,,,,,,,,,,,,,,,,,,,994.977265,178,left,0.73128,dress         ,1,7,-2,0,3,995.010415,995.010415,997.50979,0,23,23,23,1,178,1,3,dress         ,seaturtle     ,html/resources/sequences_IDs/A/07_dress.jpg,html/resources/sequences_IDs/A/02_seaturtle.jpg,7,2,3,2,2,1,6,2,0,54,,,,,,,,,,,,,,,,,,,,
,,,,,54,2020-07-04_16h25.11.584,retriever_ti,2020.1.3,Win32,60,Chrome,1920,1080,,,,,,,,,,,,,,,,,3,,,,,,,,,,,,,,,,,,,,,,,,,,,998.126815,179,right,1.667515,wolf          ,7,1,-1,0,0,998.14384,998.14384,1000.64321,0,24,24,24,1,179,8,7,gloves      ,wolf          ,html/resources/sequences_IDs/B/06_gloves.jpg,html/resources/sequences_IDs/A/01_wolf.jpg,6,1,3,2,1,1,5,1,0,54,,,,,,,,,,,,,,,,,,,,
,,,,,54,2020-07-04_16h25.11.584,retriever_ti,2020.1.3,Win32,60,Chrome,1920,1080,,,,,,,,,,,,,,,,,3,,,,,,,,,,,,,,,,,,,,,,,,,,,1001.743825,180,right,0.64088,slipper     ,2,8,-1,0,1,1001.777245,1001.777245,1004.27667,0,25,25,25,1,180,3,2,seaturtle     ,slipper     ,html/resources/sequences_IDs/A/02_seaturtle.jpg,html/resources/sequences_IDs/B/08_slipper.jpg,2,8,2,1,3,2,2,7,1,54,,,,,,,,,,,,,,,,,,,,
,,,,,54,2020-07-04_16h25.11.584,retriever_ti,2020.1.3,Win32,60,Chrome,1920,1080,,,,,,,,,,,,,,,,,3,,,,,,,,,,,,,,,,,,,,,,,,,,,1005.37722,181,right,0.986565,parrot      ,6,5,4,1,3,1005.41075,1005.41075,1007.91033,0,26,26,26,1,181,2,6,slipper     ,parrot      ,html/resources/sequences_IDs/B/08_slipper.jpg,html/resources/sequences_IDs/B/05_parrot.jpg,8,5,3,2,2,1,7,4,0,54,,,,,,,,,,,,,,,,,,,,
,,,,,54,2020-07-04_16h25.11.584,retriever_ti,2020.1.3,Win32,60,Chrome,1920,1080,,,,,,,,,,,,,,,,,3,,,,,,,,,,,,,,,,,,,,,,,,,,,1008.52709,182,right,0.67483,giraffe     ,4,3,3,1,3,1008.544275,1008.544275,1011.043565,0,27,27,27,1,182,1,4,dress         ,giraffe     ,html/resources/sequences_IDs/A/07_dress.jpg,html/resources/sequences_IDs/B/03_giraffe.jpg,7,3,3,2,1,1,6,3,0,54,,,,,,,,,,,,,,,,,,,,
,,,,,54,2020-07-04_16h25.11.584,retriever_ti,2020.1.3,Win32,60,Chrome,1920,1080,,,,,,,,,,,,,,,,,3,,,,,,,,,,,,,,,,,,,,,,,,,,,1011.660865,183,right,0.875185,calculator    ,5,9,1,1,0,1011.69432,1011.69432,1014.193625,0,28,28,28,1,183,4,5,giraffe     ,calculator    ,html/resources/sequences_IDs/B/03_giraffe.jpg,html/resources/sequences_IDs/A/09_calculator.jpg,3,9,1,1,4,2,3,8,1,54,,,,,,,,,,,,,,,,,,,,
,,,,,54,2020-07-04_16h25.11.584,retriever_ti,2020.1.3,Win32,60,Chrome,1920,1080,,,,,,,,,,,,,,,,,3,,,,,,,,,,,,,,,,,,,,,,,,,,,1015.294275,184,right,1.12096,slipper     ,2,8,-1,0,0,1015.32775,1015.32775,1017.827175,0,29,29,29,1,184,3,2,seaturtle     ,slipper     ,html/resources/sequences_IDs/A/02_seaturtle.jpg,html/resources/sequences_IDs/B/08_slipper.jpg,2,8,2,1,3,2,2,7,0,54,,,,,,,,,,,,,,,,,,,,
,,,,,54,2020-07-04_16h25.11.584,retriever_ti,2020.1.3,Win32,60,Chrome,1920,1080,,,,,,,,,,,,,,,,,3,,,,,,,,,,,,,,,,,,,,,,,,,,,1018.92779,185,left,0.696785,parrot      ,6,5,3,1,3,1018.961465,1018.961465,1021.460615,0,30,30,30,1,185,6,3,parrot      ,seaturtle     ,html/resources/sequences_IDs/B/05_parrot.jpg,html/resources/sequences_IDs/A/02_seaturtle.jpg,5,2,2,1,2,1,4,2,0,54,,,,,,,,,,,,,,,,,,,,
,,,,,54,2020-07-04_16h25.11.584,retriever_ti,2020.1.3,Win32,60,Chrome,1920,1080,,,,,,,,,,,,,,,,,3,,,,,,,,,,,,,,,,,,,,,,,,,,,1022.06099,186,right,1.104385,gloves      ,8,6,1,1,1,1022.07807,1022.07807,1024.57745,0,31,31,31,1,186,7,8,wolf          ,gloves      ,html/resources/sequences_IDs/A/01_wolf.jpg,html/resources/sequences_IDs/B/06_gloves.jpg,1,6,1,1,3,2,1,5,0,54,,,,,,,,,,,,,,,,,,,,
,,,,,54,2020-07-04_16h25.11.584,retriever_ti,2020.1.3,Win32,60,Chrome,1920,1080,,,,,,,,,,,,,,,,,3,,,,,,,,,,,,,,,,,,,,,,,,,,,1025.678185,187,right,0.62406,calculator    ,5,9,2,1,3,1025.694835,1025.694835,1028.194305,0,32,32,32,1,187,3,5,seaturtle     ,calculator    ,html/resources/sequences_IDs/A/02_seaturtle.jpg,html/resources/sequences_IDs/A/09_calculator.jpg,2,9,2,1,4,2,2,8,0,54,,,,,,,,,,,,,,,,,,,,
,,,,,54,2020-07-04_16h25.11.584,retriever_ti,2020.1.3,Win32,60,Chrome,1920,1080,,,,,,,,,,,,,,,,,3,,,,,,,,,,,,,,,,,,,,,,,,,,,1028.81111,188,right,0.955015,calculator    ,5,9,-1,0,1,1028.828525,1028.828525,1031.327855,0,33,33,33,1,188,6,5,parrot      ,calculator    ,html/resources/sequences_IDs/B/05_parrot.jpg,html/resources/sequences_IDs/A/09_calculator.jpg,5,9,2,1,4,2,4,8,1,54,,,,,,,,,,,,,,,,,,,,
,,,,,54,2020-07-04_16h25.11.584,retriever_ti,2020.1.3,Win32,60,Chrome,1920,1080,,,,,,,,,,,,,,,,,3,,,,,,,,,,,,,,,,,,,,,,,,,,,1032.4283,189,right,2.269115,wolf          ,7,1,5,1,3,1032.44519,1032.44519,1034.944625,0,34,34,34,1,189,2,7,slipper     ,wolf          ,html/resources/sequences_IDs/B/08_slipper.jpg,html/resources/sequences_IDs/A/01_wolf.jpg,8,1,3,2,1,1,7,1,0,54,,,,,,,,,,,,,,,,,,,,
,,,,,54,2020-07-04_16h25.11.584,retriever_ti,2020.1.3,Win32,60,Chrome,1920,1080,,,,,,,,,,,,,,,,,3,,,,,,,,,,,,,,,,,,,,,,,,,,,1035.561875,190,right,1.76502,calculator    ,5,9,-3,0,3,1035.595385,1035.595385,1038.09469,0,35,35,35,1,190,8,5,gloves      ,calculator    ,html/resources/sequences_IDs/B/06_gloves.jpg,html/resources/sequences_IDs/A/09_calculator.jpg,6,9,3,2,4,2,5,8,0,54,,,,,,,,,,,,,,,,,,,,
,,,,,54,2020-07-04_16h25.11.584,retriever_ti,2020.1.3,Win32,60,Chrome,1920,1080,,,,,,,,,,,,,,,,,3,,,,,,,,,,,,,,,,,,,,,,,,,,,1038.71165,191,right,1.299835,gloves      ,8,6,7,1,3,1038.72896,1038.72896,1041.228155,0,36,36,36,1,191,1,8,dress         ,gloves      ,html/resources/sequences_IDs/A/07_dress.jpg,html/resources/sequences_IDs/B/06_gloves.jpg,7,6,3,2,3,2,6,5,0,54,,,,,,,,,,,,,,,,,,,,
,,,,,54,2020-07-04_16h25.11.584,retriever_ti,2020.1.3,Win32,60,Chrome,1920,1080,,,,,,,,,,,,,,,,,3,,,,,,,,,,,,,,,,,,,,,,,,,,,1041.84529,192,left,1.25428,wolf          ,7,1,1,1,0,1041.87914,1041.87914,1044.37843,0,37,37,37,1,192,7,6,wolf          ,parrot      ,html/resources/sequences_IDs/A/01_wolf.jpg,html/resources/sequences_IDs/B/05_parrot.jpg,1,5,1,1,2,1,1,4,1,54,,,,,,,,,,,,,,,,,,,,
,,,,,54,2020-07-04_16h25.11.584,retriever_ti,2020.1.3,Win32,60,Chrome,1920,1080,,,,,,,,,,,,,,,,,3,,,,,,,,,,,,,,,,,,,,,,,,,,,1045.478985,193,left,0.64987,parrot      ,6,5,-2,0,3,1045.512795,1045.512795,1048.01189,0,38,38,38,1,193,6,8,parrot      ,gloves      ,html/resources/sequences_IDs/B/05_parrot.jpg,html/resources/sequences_IDs/B/06_gloves.jpg,5,6,2,1,3,2,4,5,0,54,,,,,,,,,,,,,,,,,,,,
,,,,,54,2020-07-04_16h25.11.584,retriever_ti,2020.1.3,Win32,60,Chrome,1920,1080,,,,,,,,,,,,,,,,,3,,,,,,,,,,,,,,,,,,,,,,,,,,,1048.628845,194,right,0.69084,calculator    ,5,9,1,1,1,1048.66253,1048.66253,1051.161785,0,39,39,39,1,194,4,5,giraffe     ,calculator    ,html/resources/sequences_IDs/B/03_giraffe.jpg,html/resources/sequences_IDs/A/09_calculator.jpg,3,9,1,1,4,2,3,8,0,54,,,,,,,,,,,,,,,,,,,,
,,,,,54,2020-07-04_16h25.11.584,retriever_ti,2020.1.3,Win32,60,Chrome,1920,1080,,,,,,,,,,,,,,,,,3,,,,,,,,,,,,,,,,,,,,,,,,,,,1052.262545,195,right,1.053475,gloves      ,8,6,5,1,3,1052.27927,1052.27927,1054.778735,0,40,40,40,1,195,3,8,seaturtle     ,gloves      ,html/resources/sequences_IDs/A/02_seaturtle.jpg,html/resources/sequences_IDs/B/06_gloves.jpg,2,6,2,1,3,2,2,5,0,54,,,,,,,,,,,,,,,,,,,,
,,,,,54,2020-07-04_16h25.11.584,retriever_ti,2020.1.3,Win32,60,Chrome,1920,1080,,,,,,,,,,,,,,,,,3,,,,,,,,,,,,,,,,,,,,,,,,,,,1055.39596,196,right,1.190135,calculator    ,5,9,-1,0,0,1055.412855,1055.412855,1057.912325,0,41,41,41,1,196,6,5,parrot      ,calculator    ,html/resources/sequences_IDs/B/05_parrot.jpg,html/resources/sequences_IDs/A/09_calculator.jpg,5,9,2,1,4,2,4,8,0,54,,,,,,,,,,,,,,,,,,,,
,,,,,54,2020-07-04_16h25.11.584,retriever_ti,2020.1.3,Win32,60,Chrome,1920,1080,,,,,,,,,,,,,,,,,3,,,,,,,,,,,,,,,,,,,,,,,,,,,1059.012695,197,right,0.76364,gloves      ,8,6,4,1,3,1059.046315,1059.046315,1061.54556,0,42,42,42,1,197,4,8,giraffe     ,gloves      ,html/resources/sequences_IDs/B/03_giraffe.jpg,html/resources/sequences_IDs/B/06_gloves.jpg,3,6,1,1,3,2,3,5,0,54,,,,,,,,,,,,,,,,,,,,
,,,,,54,2020-07-04_16h25.11.584,retriever_ti,2020.1.3,Win32,60,Chrome,1920,1080,,,,,,,,,,,,,,,,,3,,,,,,,,,,,,,,,,,,,,,,,,,,,1062.14599,198,right,0.63606,parrot      ,6,5,5,1,3,1062.179735,1062.179735,1064.67914,0,43,43,43,1,198,1,6,dress         ,parrot      ,html/resources/sequences_IDs/A/07_dress.jpg,html/resources/sequences_IDs/B/05_parrot.jpg,7,5,3,2,2,1,6,4,0,54,,,,,,,,,,,,,,,,,,,,
,,,,,54,2020-07-04_16h25.11.584,retriever_ti,2020.1.3,Win32,60,Chrome,1920,1080,,,,,,,,,,,,,,,,,3,,,,,,,,,,,,,,,,,,,,,,,,,,,1065.29635,199,right,1.477695,wolf          ,7,1,3,1,3,1065.33,1065.33,1067.82945,0,44,44,44,1,199,4,7,giraffe     ,wolf          ,html/resources/sequences_IDs/B/03_giraffe.jpg,html/resources/sequences_IDs/A/01_wolf.jpg,3,1,1,1,1,1,3,1,0,54,,,,,,,,,,,,,,,,,,,,
,,,,,54,2020-07-04_16h25.11.584,retriever_ti,2020.1.3,Win32,60,Chrome,1920,1080,,,,,,,,,,,,,,,,,3,,,,,,,,,,,,,,,,,,,,,,,,,,,1068.446365,200,left,0.66553,slipper     ,2,8,1,1,1,1068.463525,1068.463525,1070.962765,0,45,45,45,1,200,2,1,slipper     ,dress         ,html/resources/sequences_IDs/B/08_slipper.jpg,html/resources/sequences_IDs/A/07_dress.jpg,8,7,3,2,3,2,7,6,0,54,,,,,,,,,,,,,,,,,,,,
,,,,,54,2020-07-04_16h25.11.584,retriever_ti,2020.1.3,Win32,60,Chrome,1920,1080,,,,,,,,,,,,,,,,,3,,,,,,,,,,,,,,,,,,,,,,,,,,,1072.063335,201,right,0.72633,giraffe     ,4,3,1,1,1,1072.0965,1072.0965,1074.596145,0,46,46,46,1,201,3,4,seaturtle     ,giraffe     ,html/resources/sequences_IDs/A/02_seaturtle.jpg,html/resources/sequences_IDs/B/03_giraffe.jpg,2,3,2,1,1,1,2,3,0,54,,,,,,,,,,,,,,,,,,,,
,,,,,54,2020-07-04_16h25.11.584,retriever_ti,2020.1.3,Win32,60,Chrome,1920,1080,,,,,,,,,,,,,,,,,3,,,,,,,,,,,,,,,,,,,,,,,,,,,1075.696775,202,left,0.686475,wolf          ,7,1,6,1,3,1075.713625,1075.713625,1078.21305,0,47,47,47,1,202,7,1,wolf          ,dress         ,html/resources/sequences_IDs/A/01_wolf.jpg,html/resources/sequences_IDs/A/07_dress.jpg,1,7,1,1,3,2,1,6,0,54,,,,,,,,,,,,,,,,,,,,
,,,,,54,2020-07-04_16h25.11.584,retriever_ti,2020.1.3,Win32,60,Chrome,1920,1080,,,,,,,,,,,,,,,,,3,,,,,,,,,,,,,,,,,,,,,,,,,,,1078.82996,203,left,0.61775,calculator    ,5,9,4,1,3,1078.86376,1078.86376,1081.363115,0,48,48,48,1,203,5,1,calculator    ,dress         ,html/resources/sequences_IDs/A/09_calculator.jpg,html/resources/sequences_IDs/A/07_dress.jpg,9,7,4,2,3,2,8,6,0,54,,,,,,,,,,,,,,,,,,,,
,,,,,54,2020-07-04_16h25.11.584,retriever_ti,2020.1.3,Win32,60,Chrome,1920,1080,,,,,,,,,,,,,,,,,3,,,,,,,,,,,,,,,,,,,,,,,,,,,1081.98043,204,right,0.729315,gloves      ,8,6,1,1,1,1082.013945,1082.013945,1084.51322,0,49,49,49,1,204,7,8,wolf          ,gloves      ,html/resources/sequences_IDs/A/01_wolf.jpg,html/resources/sequences_IDs/B/06_gloves.jpg,1,6,1,1,3,2,1,5,0,54,,,,,,,,,,,,,,,,,,,,
,,,,,54,2020-07-04_16h25.11.584,retriever_ti,2020.1.3,Win32,60,Chrome,1920,1080,,,,,,,,,,,,,,,,,3,,,,,,,,,,,,,,,,,,,,,,,,,,,1085.61376,205,right,0.71537,slipper     ,2,8,1,1,0,1085.63074,1085.63074,1088.13017,0,50,50,50,1,205,1,2,dress         ,slipper     ,html/resources/sequences_IDs/A/07_dress.jpg,html/resources/sequences_IDs/B/08_slipper.jpg,7,8,3,2,3,2,6,7,1,54,,,,,,,,,,,,,,,,,,,,
,,,,,54,2020-07-04_16h25.11.584,retriever_ti,2020.1.3,Win32,60,Chrome,1920,1080,,,,,,,,,,,,,,,,,3,,,,,,,,,,,,,,,,,,,,,,,,,,,1089.230635,206,right,1.25716,wolf          ,7,1,6,1,3,1089.26418,1089.26418,1091.76351,0,51,51,51,1,206,1,7,dress         ,wolf          ,html/resources/sequences_IDs/A/07_dress.jpg,html/resources/sequences_IDs/A/01_wolf.jpg,7,1,3,2,1,1,6,1,0,54,,,,,,,,,,,,,,,,,,,,
,,,,,54,2020-07-04_16h25.11.584,retriever_ti,2020.1.3,Win32,60,Chrome,1920,1080,,,,,,,,,,,,,,,,,3,,,,,,,,,,,,,,,,,,,,,,,,,,,1092.36391,207,right,0.850025,calculator    ,5,9,-2,0,3,1092.380995,1092.380995,1094.880345,0,52,52,52,1,207,7,5,wolf          ,calculator    ,html/resources/sequences_IDs/A/01_wolf.jpg,html/resources/sequences_IDs/A/09_calculator.jpg,1,9,1,1,4,2,1,8,0,54,,,,,,,,,,,,,,,,,,,,
,,,,,54,2020-07-04_16h25.11.584,retriever_ti,2020.1.3,Win32,60,Chrome,1920,1080,,,,,,,,,,,,,,,,,3,,,,,,,,,,,,,,,,,,,,,,,,,,,1095.480985,208,left,1.26662,wolf          ,7,1,1,1,1,1095.498135,1095.498135,1097.997175,0,53,53,53,1,208,7,6,wolf          ,parrot      ,html/resources/sequences_IDs/A/01_wolf.jpg,html/resources/sequences_IDs/B/05_parrot.jpg,1,5,1,1,2,1,1,4,0,54,,,,,,,,,,,,,,,,,,,,
,,,,,54,2020-07-04_16h25.11.584,retriever_ti,2020.1.3,Win32,60,Chrome,1920,1080,,,,,,,,,,,,,,,,,3,,,,,,,,,,,,,,,,,,,,,,,,,,,1099.097805,209,left,0.695785,slipper     ,2,8,-1,0,0,1099.131325,1099.131325,1101.63059,0,54,54,54,1,209,2,3,slipper     ,seaturtle     ,html/resources/sequences_IDs/B/08_slipper.jpg,html/resources/sequences_IDs/A/02_seaturtle.jpg,8,2,3,2,2,1,7,2,0,54,,,,,,,,,,,,,,,,,,,,
,,,,,54,2020-07-04_16h25.11.584,retriever_ti,2020.1.3,Win32,60,Chrome,1920,1080,,,,,,,,,,,,,,,,,3,,,,,,,,,,,,,,,,,,,,,,,,,,,1102.730955,210,right,0.650075,wolf          ,7,1,4,1,3,1102.764705,1102.764705,1105.26404,0,55,55,55,1,210,3,7,seaturtle     ,wolf          ,html/resources/sequences_IDs/A/02_seaturtle.jpg,html/resources/sequences_IDs/A/01_wolf.jpg,2,1,2,1,1,1,2,1,0,54,,,,,,,,,,,,,,,,,,,,
,,,,,54,2020-07-04_16h25.11.584,retriever_ti,2020.1.3,Win32,60,Chrome,1920,1080,,,,,,,,,,,,,,,,,3,,,,,,,,,,,,,,,,,,,,,,,,,,,1105.88141,211,left,1.11378,parrot      ,6,5,5,1,3,1105.915105,1105.915105,1108.41408,0,56,56,56,1,211,6,1,parrot      ,dress         ,html/resources/sequences_IDs/B/05_parrot.jpg,html/resources/sequences_IDs/A/07_dress.jpg,5,7,2,1,3,2,4,6,0,54,,,,,,,,,,,,,,,,,,,,
,,,,,54,2020-07-04_16h25.11.584,retriever_ti,2020.1.3,Win32,60,Chrome,1920,1080,,,,,,,,,,,,,,,,,3,,,,,,,,,,,,,,,,,,,,,,,,,,,1109.014715,212,left,0.96895,calculator    ,5,9,2,1,3,1109.0316,1109.0316,1111.531095,0,57,57,57,1,212,5,3,calculator    ,seaturtle     ,html/resources/sequences_IDs/A/09_calculator.jpg,html/resources/sequences_IDs/A/02_seaturtle.jpg,9,2,4,2,2,1,8,2,0,54,,,,,,,,,,,,,,,,,,,,
,,,,,54,2020-07-04_16h25.11.584,retriever_ti,2020.1.3,Win32,60,Chrome,1920,1080,,,,,,,,,,,,,,,,,3,,,,,,,,,,,,,,,,,,,,,,,,,,,1112.148045,213,right,0.872715,gloves      ,8,6,6,1,3,1112.16521,1112.16521,1114.66454,0,58,58,58,1,213,2,8,slipper     ,gloves      ,html/resources/sequences_IDs/B/08_slipper.jpg,html/resources/sequences_IDs/B/06_gloves.jpg,8,6,3,2,3,2,7,5,0,54,,,,,,,,,,,,,,,,,,,,
,,,,,54,2020-07-04_16h25.11.584,retriever_ti,2020.1.3,Win32,60,Chrome,1920,1080,,,,,,,,,,,,,,,,,3,,,,,,,,,,,,,,,,,,,,,,,,,,,1115.2818,214,left,0.649025,calculator    ,5,9,1,1,1,1115.31526,1115.31526,1117.81447,0,59,59,59,1,214,5,4,calculator    ,giraffe     ,html/resources/sequences_IDs/A/09_calculator.jpg,html/resources/sequences_IDs/B/03_giraffe.jpg,9,3,4,2,1,1,8,3,0,54,,,,,,,,,,,,,,,,,,,,
,,,,,54,2020-07-04_16h25.11.584,retriever_ti,2020.1.3,Win32,60,Chrome,1920,1080,,,,,,,,,,,,,,,,,3,,,,,,,,,,,,,,,,,,,,,,,,,,,1118.914995,215,right,0.75683,slipper     ,2,8,1,1,1,1118.948845,1118.948845,1121.44813,0,60,60,60,1,215,1,2,dress         ,slipper     ,html/resources/sequences_IDs/A/07_dress.jpg,html/resources/sequences_IDs/B/08_slipper.jpg,7,8,3,2,3,2,6,7,0,54,,,,,,,,,,,,,,,,,,,,
,,,,,54,2020-07-04_16h25.11.584,retriever_ti,2020.1.3,Win32,60,Chrome,1920,1080,,,,,,,,,,,,,,,,,3,,,,,,,,,,,,,,,,,,,,,,,,,,,1122.54851,216,left,1.189555,slipper     ,2,8,1,1,1,1122.565525,1122.565525,1125.06495,0,61,61,61,1,216,2,1,slipper     ,dress         ,html/resources/sequences_IDs/B/08_slipper.jpg,html/resources/sequences_IDs/A/07_dress.jpg,8,7,3,2,3,2,7,6,0,54,,,,,,,,,,,,,,,,,,,,
,,,,,54,2020-07-04_16h25.11.584,retriever_ti,2020.1.3,Win32,60,Chrome,1920,1080,,,,,,,,,,,,,,,,,3,,,,,,,,,,,,,,,,,,,,,,,,,,,1126.165415,217,left,1.384275,giraffe     ,4,3,1,1,1,1126.199105,1126.199105,1128.69839,0,62,62,62,1,217,4,3,giraffe     ,seaturtle     ,html/resources/sequences_IDs/B/03_giraffe.jpg,html/resources/sequences_IDs/A/02_seaturtle.jpg,3,2,1,1,2,1,3,2,0,54,,,,,,,,,,,,,,,,,,,,
,,,,,54,2020-07-04_16h25.11.584,retriever_ti,2020.1.3,Win32,60,Chrome,1920,1080,,,,,,,,,,,,,,,,,3,,,,,,,,,,,,,,,,,,,,,,,,,,,1129.799105,218,right,0.76301,giraffe     ,4,3,1,1,1,1129.83249,1129.83249,1132.331625,0,63,63,63,1,218,3,4,seaturtle     ,giraffe     ,html/resources/sequences_IDs/A/02_seaturtle.jpg,html/resources/sequences_IDs/B/03_giraffe.jpg,2,3,2,1,1,1,2,3,0,54,,,,,,,,,,,,,,,,,,,,
,,,,,54,2020-07-04_16h25.11.584,retriever_ti,2020.1.3,Win32,60,Chrome,1920,1080,,,,,,,,,,,,,,,,,3,,,,,,,,,,,,,,,,,,,,,,,,,,,1133.4325,219,left,1.244715,gloves      ,8,6,1,1,1,1133.46607,1133.46607,1135.965245,0,64,64,64,1,219,8,7,gloves      ,wolf          ,html/resources/sequences_IDs/B/06_gloves.jpg,html/resources/sequences_IDs/A/01_wolf.jpg,6,1,3,2,1,1,5,1,0,54,,,,,,,,,,,,,,,,,,,,
,,,,,54,2020-07-04_16h25.11.584,retriever_ti,2020.1.3,Win32,60,Chrome,1920,1080,,,,,,,,,,,,,,,,,3,,,,,,,,,,,,,,,,,,,,,,,,,,,1137.065875,220,left,0.69198,wolf          ,7,1,4,1,3,1137.082795,1137.082795,1139.582175,0,65,65,65,1,220,7,3,wolf          ,seaturtle     ,html/resources/sequences_IDs/A/01_wolf.jpg,html/resources/sequences_IDs/A/02_seaturtle.jpg,1,2,1,1,2,1,1,2,0,54,,,,,,,,,,,,,,,,,,,,
,,,,,54,2020-07-04_16h25.11.584,retriever_ti,2020.1.3,Win32,60,Chrome,1920,1080,,,,,,,,,,,,,,,,,3,,,,,,,,,,,,,,,,,,,,,,,,,,,1140.199215,221,right,1.475185,seaturtle     ,3,2,1,1,1,1140.21618,1140.21618,1142.715695,0,66,66,66,1,221,2,3,slipper     ,seaturtle     ,html/resources/sequences_IDs/B/08_slipper.jpg,html/resources/sequences_IDs/A/02_seaturtle.jpg,8,2,3,2,2,1,7,2,0,54,,,,,,,,,,,,,,,,,,,,
,,,,,54,2020-07-04_16h25.11.584,retriever_ti,2020.1.3,Win32,60,Chrome,1920,1080,,,,,,,,,,,,,,,,,3,,,,,,,,,,,,,,,,,,,,,,,,,,,1143.816195,222,right,1.04688,wolf          ,7,1,1,1,1,1143.83306,1143.83306,1146.33226,0,67,67,67,1,222,6,7,parrot      ,wolf          ,html/resources/sequences_IDs/B/05_parrot.jpg,html/resources/sequences_IDs/A/01_wolf.jpg,5,1,2,1,1,1,4,1,0,54,,,,,,,,,,,,,,,,,,,,
