instructionsLoop.thisRepN,instructionsLoop.thisTrialN,instructionsLoop.thisN,instructionsLoop.thisIndex,instructionsLoop.ran,participant,date,expName,psychopyVersion,OS,frameRate,browser,xResolution,yResolution,fix_onset,tprac,practiceKey.keys,practiceKey.rt,pracitem_chosen_name,acc_practice,P1_onsetPrac,P2_onsetPrac,onsetFeedbPrac,practiceTrials.thisRepN,practiceTrials.thisTrialN,practiceTrials.thisN,practiceTrials.thisIndex,practiceTrials.ran,P1,P2,Block,LocItem1,LocItem2,NameItem1,NameItem2,key_respAC_prac.keys,key_respAC_prac.corr,key_respAC_prac.rt,AC_acc,Attentions.thisRepN,Attentions.thisTrialN,Attentions.thisN,Attentions.thisIndex,Attentions.ran,Stim,Loc1,Loc2,Loc3,Loc4,CorrAns,keyDisturbed.keys,keyDisturbed.rt,repPractice.thisRepN,repPractice.thisTrialN,repPractice.thisN,repPractice.thisIndex,repPractice.ran,fixcross_onsetMain,trialNumber,key_resp.keys,key_resp.rt,item_chosen_name,item_chosen_value,item_chosen_ID,diff_chosen_minus_reject,acc_real,acc_feedback,P1_onset,P2_onset,feedb_onset,trials.thisRepN,trials.thisTrialN,trials.thisN,trials.thisIndex,trials.ran,Trial,ValueP1,ValueP2,P1name,P2name,P1Loc,P2Loc,P1id,P2id,Micro_categoryP1,Macro_categoryP1,Micro_categoryP2,Macro_categoryP2,ID_sequenceP1,ID_sequenceP2,InverseFb,pNumber,repBlocks.thisRepN,repBlocks.thisTrialN,repBlocks.thisN,repBlocks.thisIndex,repBlocks.ran,key_respAC.keys,key_respAC.corr,key_respAC.rt,trials_AC.thisRepN,trials_AC.thisTrialN,trials_AC.thisN,trials_AC.thisIndex,trials_AC.ran,Bonus,BonusLoop.thisRepN,BonusLoop.thisTrialN,BonusLoop.thisN,BonusLoop.thisIndex,BonusLoop.ran,comments
0,0,0,0,1,55,2020-07-04_16h31.11.466,retriever_ti,2020.1.3,Win32,60,Firefox,1536,864,,,,,,,,,,,,,,,,,,,,,,,,,,,,,,,,,,,,,,,,,,,,,,,,,,,,,,,,,,,,,,,,,,,,,,,,,,,,,,,,,,,,,,,,,,,,,,,,,,
1,0,1,0,1,55,2020-07-04_16h31.11.466,retriever_ti,2020.1.3,Win32,60,Firefox,1536,864,,,,,,,,,,,,,,,,,,,,,,,,,,,,,,,,,,,,,,,,,,,,,,,,,,,,,,,,,,,,,,,,,,,,,,,,,,,,,,,,,,,,,,,,,,,,,,,,,,
2,0,2,0,1,55,2020-07-04_16h31.11.466,retriever_ti,2020.1.3,Win32,60,Firefox,1536,864,,,,,,,,,,,,,,,,,,,,,,,,,,,,,,,,,,,,,,,,,,,,,,,,,,,,,,,,,,,,,,,,,,,,,,,,,,,,,,,,,,,,,,,,,,,,,,,,,,
3,0,3,0,1,55,2020-07-04_16h31.11.466,retriever_ti,2020.1.3,Win32,60,Firefox,1536,864,,,,,,,,,,,,,,,,,,,,,,,,,,,,,,,,,,,,,,,,,,,,,,,,,,,,,,,,,,,,,,,,,,,,,,,,,,,,,,,,,,,,,,,,,,,,,,,,,,
4,0,4,0,1,55,2020-07-04_16h31.11.466,retriever_ti,2020.1.3,Win32,60,Firefox,1536,864,,,,,,,,,,,,,,,,,,,,,,,,,,,,,,,,,,,,,,,,,,,,,,,,,,,,,,,,,,,,,,,,,,,,,,,,,,,,,,,,,,,,,,,,,,,,,,,,,,
5,0,5,0,1,55,2020-07-04_16h31.11.466,retriever_ti,2020.1.3,Win32,60,Firefox,1536,864,,,,,,,,,,,,,,,,,,,,,,,,,,,,,,,,,,,,,,,,,,,,,,,,,,,,,,,,,,,,,,,,,,,,,,,,,,,,,,,,,,,,,,,,,,,,,,,,,,
6,0,6,0,1,55,2020-07-04_16h31.11.466,retriever_ti,2020.1.3,Win32,60,Firefox,1536,864,,,,,,,,,,,,,,,,,,,,,,,,,,,,,,,,,,,,,,,,,,,,,,,,,,,,,,,,,,,,,,,,,,,,,,,,,,,,,,,,,,,,,,,,,,,,,,,,,,
7,0,7,0,1,55,2020-07-04_16h31.11.466,retriever_ti,2020.1.3,Win32,60,Firefox,1536,864,,,,,,,,,,,,,,,,,,,,,,,,,,,,,,,,,,,,,,,,,,,,,,,,,,,,,,,,,,,,,,,,,,,,,,,,,,,,,,,,,,,,,,,,,,,,,,,,,,
8,0,8,0,1,55,2020-07-04_16h31.11.466,retriever_ti,2020.1.3,Win32,60,Firefox,1536,864,,,,,,,,,,,,,,,,,,,,,,,,,,,,,,,,,,,,,,,,,,,,,,,,,,,,,,,,,,,,,,,,,,,,,,,,,,,,,,,,,,,,,,,,,,,,,,,,,,
9,0,9,0,1,55,2020-07-04_16h31.11.466,retriever_ti,2020.1.3,Win32,60,Firefox,1536,864,,,,,,,,,,,,,,,,,,,,,,,,,,,,,,,,,,,,,,,,,,,,,,,,,,,,,,,,,,,,,,,,,,,,,,,,,,,,,,,,,,,,,,,,,,,,,,,,,,
10,0,10,0,1,55,2020-07-04_16h31.11.466,retriever_ti,2020.1.3,Win32,60,Firefox,1536,864,,,,,,,,,,,,,,,,,,,,,,,,,,,,,,,,,,,,,,,,,,,,,,,,,,,,,,,,,,,,,,,,,,,,,,,,,,,,,,,,,,,,,,,,,,,,,,,,,,
11,0,11,0,1,55,2020-07-04_16h31.11.466,retriever_ti,2020.1.3,Win32,60,Firefox,1536,864,,,,,,,,,,,,,,,,,,,,,,,,,,,,,,,,,,,,,,,,,,,,,,,,,,,,,,,,,,,,,,,,,,,,,,,,,,,,,,,,,,,,,,,,,,,,,,,,,,
12,0,12,0,1,55,2020-07-04_16h31.11.466,retriever_ti,2020.1.3,Win32,60,Firefox,1536,864,,,,,,,,,,,,,,,,,,,,,,,,,,,,,,,,,,,,,,,,,,,,,,,,,,,,,,,,,,,,,,,,,,,,,,,,,,,,,,,,,,,,,,,,,,,,,,,,,,
13,0,13,0,1,55,2020-07-04_16h31.11.466,retriever_ti,2020.1.3,Win32,60,Firefox,1536,864,,,,,,,,,,,,,,,,,,,,,,,,,,,,,,,,,,,,,,,,,,,,,,,,,,,,,,,,,,,,,,,,,,,,,,,,,,,,,,,,,,,,,,,,,,,,,,,,,,
14,0,14,0,1,55,2020-07-04_16h31.11.466,retriever_ti,2020.1.3,Win32,60,Firefox,1536,864,,,,,,,,,,,,,,,,,,,,,,,,,,,,,,,,,,,,,,,,,,,,,,,,,,,,,,,,,,,,,,,,,,,,,,,,,,,,,,,,,,,,,,,,,,,,,,,,,,
,,,,,55,2020-07-04_16h31.11.466,retriever_ti,2020.1.3,Win32,60,Firefox,1536,864,279.586,1,right,1.64,canary,1,279.596,279.596,282.096,0,0,0,0,1,2,5,1,html/resources/stimuli_practice_decision/04_beetle.jpg,html/resources/stimuli_practice_decision/02_canary.jpg,beetle,canary,,,,,,,,,,,,,,,,,,,,,,,,,,,,,,,,,,,,,,,,,,,,,,,,,,,,,,,,,,,,,,,,,,,,,,,,,,,,,
,,,,,55,2020-07-04_16h31.11.466,retriever_ti,2020.1.3,Win32,60,Firefox,1536,864,282.626,2,left,1.161,rabbit,1,282.665,282.665,285.163,0,1,1,1,1,4,3,1,html/resources/stimuli_practice_decision/01_rabbit.jpg,html/resources/stimuli_practice_decision/07_sock.jpg,rabbit,sock,,,,,,,,,,,,,,,,,,,,,,,,,,,,,,,,,,,,,,,,,,,,,,,,,,,,,,,,,,,,,,,,,,,,,,,,,,,,,
,,,,,55,2020-07-04_16h31.11.466,retriever_ti,2020.1.3,Win32,60,Firefox,1536,864,286.165,3,left,1.321,pullover,1,286.181,286.181,288.678,0,2,2,2,1,6,2,1,html/resources/stimuli_practice_decision/06_pullover.jpg,html/resources/stimuli_practice_decision/04_beetle.jpg,pullover,beetle,,,,,,,,,,,,,,,,,,,,,,,,,,,,,,,,,,,,,,,,,,,,,,,,,,,,,,,,,,,,,,,,,,,,,,,,,,,,,
,,,,,55,2020-07-04_16h31.11.466,retriever_ti,2020.1.3,Win32,60,Firefox,1536,864,289.18,4,right,1.45,handmixer,0,289.199,289.199,291.697,0,3,3,3,1,7,1,1,html/resources/stimuli_practice_decision/05_glasses.jpg,html/resources/stimuli_practice_decision/08_handmixer.jpg,glasses,handmixer,,,,,,,,,,,,,,,,,,,,,,,,,,,,,,,,,,,,,,,,,,,,,,,,,,,,,,,,,,,,,,,,,,,,,,,,,,,,,
,,,,,55,2020-07-04_16h31.11.466,retriever_ti,2020.1.3,Win32,60,Firefox,1536,864,292.214,5,left,1.51,glasses,1,292.248,292.248,294.746,0,4,4,4,1,7,6,1,html/resources/stimuli_practice_decision/05_glasses.jpg,html/resources/stimuli_practice_decision/06_pullover.jpg,glasses,pullover,,,,,,,,,,,,,,,,,,,,,,,,,,,,,,,,,,,,,,,,,,,,,,,,,,,,,,,,,,,,,,,,,,,,,,,,,,,,,
,,,,,55,2020-07-04_16h31.11.466,retriever_ti,2020.1.3,Win32,60,Firefox,1536,864,295.747,6,right,1.8,glasses,1,295.764,295.764,298.262,0,5,5,5,1,4,7,1,html/resources/stimuli_practice_decision/01_rabbit.jpg,html/resources/stimuli_practice_decision/05_glasses.jpg,rabbit,glasses,,,,,,,,,,,,,,,,,,,,,,,,,,,,,,,,,,,,,,,,,,,,,,,,,,,,,,,,,,,,,,,,,,,,,,,,,,,,,
,,,,,55,2020-07-04_16h31.11.466,retriever_ti,2020.1.3,Win32,60,Firefox,1536,864,298.763,7,left,0.989,handmixer,0,298.781,298.781,301.279,0,6,6,6,1,1,2,1,html/resources/stimuli_practice_decision/08_handmixer.jpg,html/resources/stimuli_practice_decision/04_beetle.jpg,handmixer,beetle,,,,,,,,,,,,,,,,,,,,,,,,,,,,,,,,,,,,,,,,,,,,,,,,,,,,,,,,,,,,,,,,,,,,,,,,,,,,,
,,,,,55,2020-07-04_16h31.11.466,retriever_ti,2020.1.3,Win32,60,Firefox,1536,864,302.28,8,left,0.703,rabbit,1,302.314,302.314,304.813,0,7,7,7,1,4,3,1,html/resources/stimuli_practice_decision/01_rabbit.jpg,html/resources/stimuli_practice_decision/07_sock.jpg,rabbit,sock,,,,,,,,,,,,,,,,,,,,,,,,,,,,,,,,,,,,,,,,,,,,,,,,,,,,,,,,,,,,,,,,,,,,,,,,,,,,,
,,,,,55,2020-07-04_16h31.11.466,retriever_ti,2020.1.3,Win32,60,Firefox,1536,864,,,,,,,,,,,,,,,,,,,,,,left,1,4.061,1,0,0,0,2,1,html/resources/sequences_IDs/square1.png,star ↑,triangle →,circle ↓,← square,left,,,,,,,,,,,,,,,,,,,,,,,,,,,,,,,,,,,,,,,,,,,,,,,,,,,,,,,,,,,,,,
,,,,,55,2020-07-04_16h31.11.466,retriever_ti,2020.1.3,Win32,60,Firefox,1536,864,,,,,,,,,,,,,,,,,,,,,,down,1,2.412,1,0,1,1,1,1,html/resources/sequences_IDs/star.png,square ↑,circle →,star ↓,← triangle,down,,,,,,,,,,,,,,,,,,,,,,,,,,,,,,,,,,,,,,,,,,,,,,,,,,,,,,,,,,,,,,
,,,,,55,2020-07-04_16h31.11.466,retriever_ti,2020.1.3,Win32,60,Firefox,1536,864,,,,,,,,,,,,,,,,,,,,,,down,1,2.101,1,0,2,2,3,1,html/resources/sequences_IDs/triangle.png,star ↑,square →,triangle ↓,← circle,down,,,,,,,,,,,,,,,,,,,,,,,,,,,,,,,,,,,,,,,,,,,,,,,,,,,,,,,,,,,,,,
,,,,,55,2020-07-04_16h31.11.466,retriever_ti,2020.1.3,Win32,60,Firefox,1536,864,,,,,,,,,,,,,,,,,,,,,,up,1,2.261,1,0,3,3,0,1,html/resources/sequences_IDs/circle.png,circle ↑,square →,triangle ↓,← star ,up,,,,,,,,,,,,,,,,,,,,,,,,,,,,,,,,,,,,,,,,,,,,,,,,,,,,,,,,,,,,,,
,,,,,55,2020-07-04_16h31.11.466,retriever_ti,2020.1.3,Win32,60,Firefox,1536,864,,,,,,,,,,,,,,,,,,,,,,,,,,,,,,,,,,,,,0,21.427,0,0,0,0,1,,,,,,,,,,,,,,,,,,,,,,,,,,,,,,,,,,,,,,,,,,,,,,,,,,,,,,,
,,,,,55,2020-07-04_16h31.11.466,retriever_ti,2020.1.3,Win32,60,Firefox,1536,864,345.744,9,right,0.983,glasses,1,345.75,345.75,348.246,0,0,0,0,1,6,7,1,html/resources/stimuli_practice_decision/06_pullover.jpg,html/resources/stimuli_practice_decision/05_glasses.jpg,pullover,glasses,,,,,,,,,,,,,,,,,,,,,,,,,,,,,,,,,,,,,,,,,,,,,,,,,,,,,,,,,,,,,,,,,,,,,,,,,,,,,
,,,,,55,2020-07-04_16h31.11.466,retriever_ti,2020.1.3,Win32,60,Firefox,1536,864,349.247,10,left,0.653,pullover,1,349.265,349.265,351.763,0,1,1,1,1,6,2,1,html/resources/stimuli_practice_decision/06_pullover.jpg,html/resources/stimuli_practice_decision/04_beetle.jpg,pullover,beetle,,,,,,,,,,,,,,,,,,,,,,,,,,,,,,,,,,,,,,,,,,,,,,,,,,,,,,,,,,,,,,,,,,,,,,,,,,,,,
,,,,,55,2020-07-04_16h31.11.466,retriever_ti,2020.1.3,Win32,60,Firefox,1536,864,352.264,11,right,1.128,pullover,1,352.3,352.3,354.796,0,2,2,2,1,5,6,1,html/resources/stimuli_practice_decision/02_canary.jpg,html/resources/stimuli_practice_decision/06_pullover.jpg,canary,pullover,,,,,,,,,,,,,,,,,,,,,,,,,,,,,,,,,,,,,,,,,,,,,,,,,,,,,,,,,,,,,,,,,,,,,,,,,,,,,
,,,,,55,2020-07-04_16h31.11.466,retriever_ti,2020.1.3,Win32,60,Firefox,1536,864,355.797,12,right,1.736,glasses,0,355.815,355.815,358.313,0,3,3,3,1,8,7,1,html/resources/stimuli_practice_decision/03_squirrel.jpg,html/resources/stimuli_practice_decision/05_glasses.jpg,squirrel,glasses,,,,,,,,,,,,,,,,,,,,,,,,,,,,,,,,,,,,,,,,,,,,,,,,,,,,,,,,,,,,,,,,,,,,,,,,,,,,,
,,,,,55,2020-07-04_16h31.11.466,retriever_ti,2020.1.3,Win32,60,Firefox,1536,864,359.314,13,left,0.992,canary,1,359.332,359.332,361.83,0,4,4,4,1,5,3,1,html/resources/stimuli_practice_decision/02_canary.jpg,html/resources/stimuli_practice_decision/07_sock.jpg,canary,sock,,,,,,,,,,,,,,,,,,,,,,,,,,,,,,,,,,,,,,,,,,,,,,,,,,,,,,,,,,,,,,,,,,,,,,,,,,,,,
,,,,,55,2020-07-04_16h31.11.466,retriever_ti,2020.1.3,Win32,60,Firefox,1536,864,362.347,14,left,0.76,glasses,0,362.365,362.365,364.863,0,5,5,5,1,7,8,1,html/resources/stimuli_practice_decision/05_glasses.jpg,html/resources/stimuli_practice_decision/03_squirrel.jpg,glasses,squirrel,,,,,,,,,,,,,,,,,,,,,,,,,,,,,,,,,,,,,,,,,,,,,,,,,,,,,,,,,,,,,,,,,,,,,,,,,,,,,
,,,,,55,2020-07-04_16h31.11.466,retriever_ti,2020.1.3,Win32,60,Firefox,1536,864,365.864,15,left,1.442,canary,1,365.899,365.899,368.396,0,6,6,6,1,5,4,1,html/resources/stimuli_practice_decision/02_canary.jpg,html/resources/stimuli_practice_decision/01_rabbit.jpg,canary,rabbit,,,,,,,,,,,,,,,,,,,,,,,,,,,,,,,,,,,,,,,,,,,,,,,,,,,,,,,,,,,,,,,,,,,,,,,,,,,,,
,,,,,55,2020-07-04_16h31.11.466,retriever_ti,2020.1.3,Win32,60,Firefox,1536,864,369.397,16,left,0.6,canary,1,369.415,369.415,371.914,0,7,7,7,1,5,3,1,html/resources/stimuli_practice_decision/02_canary.jpg,html/resources/stimuli_practice_decision/07_sock.jpg,canary,sock,,,,,,,,,,,,,,,,,,,,,,,,,,,,,,,,,,,,,,,,,,,,,,,,,,,,,,,,,,,,,,,,,,,,,,,,,,,,,
,,,,,55,2020-07-04_16h31.11.466,retriever_ti,2020.1.3,Win32,60,Firefox,1536,864,,,,,,,,,,,,,,,,,,,,,,down,1,1.601,1,0,0,0,1,1,html/resources/sequences_IDs/star.png,square ↑,circle →,star ↓,← triangle,down,,,,,,,,,,,,,,,,,,,,,,,,,,,,,,,,,,,,,,,,,,,,,,,,,,,,,,,,,,,,,,
,,,,,55,2020-07-04_16h31.11.466,retriever_ti,2020.1.3,Win32,60,Firefox,1536,864,,,,,,,,,,,,,,,,,,,,,,left,1,1.396,1,0,1,1,2,1,html/resources/sequences_IDs/square1.png,star ↑,triangle →,circle ↓,← square,left,,,,,,,,,,,,,,,,,,,,,,,,,,,,,,,,,,,,,,,,,,,,,,,,,,,,,,,,,,,,,,
,,,,,55,2020-07-04_16h31.11.466,retriever_ti,2020.1.3,Win32,60,Firefox,1536,864,,,,,,,,,,,,,,,,,,,,,,up,1,1.086,1,0,2,2,0,1,html/resources/sequences_IDs/circle.png,circle ↑,square →,triangle ↓,← star ,up,,,,,,,,,,,,,,,,,,,,,,,,,,,,,,,,,,,,,,,,,,,,,,,,,,,,,,,,,,,,,,
,,,,,55,2020-07-04_16h31.11.466,retriever_ti,2020.1.3,Win32,60,Firefox,1536,864,,,,,,,,,,,,,,,,,,,,,,down,1,1.647,1,0,3,3,3,1,html/resources/sequences_IDs/triangle.png,star ↑,square →,triangle ↓,← circle,down,,,,,,,,,,,,,,,,,,,,,,,,,,,,,,,,,,,,,,,,,,,,,,,,,,,,,,,,,,,,,,
,,,,,55,2020-07-04_16h31.11.466,retriever_ti,2020.1.3,Win32,60,Firefox,1536,864,,,,,,,,,,,,,,,,,,,,,,,,,,,,,,,,,,,,,0,3.382,1,0,1,0,1,,,,,,,,,,,,,,,,,,,,,,,,,,,,,,,,,,,,,,,,,,,,,,,,,,,,,,,
,,,,,55,2020-07-04_16h31.11.466,retriever_ti,2020.1.3,Win32,60,Firefox,1536,864,,,,,,,,,,,,,,,,,1,,,,,,,,,,,,,,,,,,,,,,,,,,,393.579,1,right,1.434,phone       ,6,9,-1,0,0,393.615,393.615,396.115,0,0,0,0,1,1,7,6,dress         ,phone       ,html/resources/sequences_IDs/A/07_dress.jpg,html/resources/sequences_IDs/B/09_phone.jpg,7,9,3,2,4,2,6,7,0,55,,,,,,,,,,,,,,,,,,,,
,,,,,55,2020-07-04_16h31.11.466,retriever_ti,2020.1.3,Win32,60,Firefox,1536,864,,,,,,,,,,,,,,,,,1,,,,,,,,,,,,,,,,,,,,,,,,,,,397.214,2,right,1.473,redfox      ,4,1,-1,0,0,397.25,397.25,399.749,0,1,1,1,1,2,5,4,clownfish     ,redfox      ,html/resources/sequences_IDs/A/04_clownfish.jpg,html/resources/sequences_IDs/B/01_redfox.jpg,4,1,2,1,1,1,3,1,0,55,,,,,,,,,,,,,,,,,,,,
,,,,,55,2020-07-04_16h31.11.466,retriever_ti,2020.1.3,Win32,60,Firefox,1536,864,,,,,,,,,,,,,,,,,1,,,,,,,,,,,,,,,,,,,,,,,,,,,400.848,3,left,1.03,dress         ,7,7,5,1,3,400.866,400.866,403.364,0,2,2,2,1,3,7,2,dress         ,parrot      ,html/resources/sequences_IDs/A/07_dress.jpg,html/resources/sequences_IDs/B/05_parrot.jpg,7,5,3,2,2,1,6,4,0,55,,,,,,,,,,,,,,,,,,,,
,,,,,55,2020-07-04_16h31.11.466,retriever_ti,2020.1.3,Win32,60,Firefox,1536,864,,,,,,,,,,,,,,,,,1,,,,,,,,,,,,,,,,,,,,,,,,,,,403.982,4,right,1.137,satellite_dish,3,10,-1,0,1,403.999,403.999,406.498,0,3,3,3,1,4,4,3,redfox      ,satellite_dish,html/resources/sequences_IDs/B/01_redfox.jpg,html/resources/sequences_IDs/A/10_satellite_dish.jpg,1,10,1,1,4,2,1,8,1,55,,,,,,,,,,,,,,,,,,,,
,,,,,55,2020-07-04_16h31.11.466,retriever_ti,2020.1.3,Win32,60,Firefox,1536,864,,,,,,,,,,,,,,,,,1,,,,,,,,,,,,,,,,,,,,,,,,,,,407.601,5,right,1.271,parrot      ,2,5,1,1,1,407.632,407.632,410.131,0,4,4,4,1,5,1,2,scarf         ,parrot      ,html/resources/sequences_IDs/A/06_scarf.jpg,html/resources/sequences_IDs/B/05_parrot.jpg,6,5,3,2,2,1,5,4,0,55,,,,,,,,,,,,,,,,,,,,
,,,,,55,2020-07-04_16h31.11.466,retriever_ti,2020.1.3,Win32,60,Firefox,1536,864,,,,,,,,,,,,,,,,,1,,,,,,,,,,,,,,,,,,,,,,,,,,,411.23,6,right,0.846,satellite_dish,3,10,2,1,3,411.248,411.248,413.747,0,5,5,5,1,6,1,3,scarf         ,satellite_dish,html/resources/sequences_IDs/A/06_scarf.jpg,html/resources/sequences_IDs/A/10_satellite_dish.jpg,6,10,3,2,4,2,5,8,0,55,,,,,,,,,,,,,,,,,,,,
,,,,,55,2020-07-04_16h31.11.466,retriever_ti,2020.1.3,Win32,60,Firefox,1536,864,,,,,,,,,,,,,,,,,1,,,,,,,,,,,,,,,,,,,,,,,,,,,414.364,7,right,0.825,satellite_dish,3,10,1,1,1,414.38,414.38,416.881,0,6,6,6,1,7,2,3,parrot      ,satellite_dish,html/resources/sequences_IDs/B/05_parrot.jpg,html/resources/sequences_IDs/A/10_satellite_dish.jpg,5,10,2,1,4,2,4,8,0,55,,,,,,,,,,,,,,,,,,,,
,,,,,55,2020-07-04_16h31.11.466,retriever_ti,2020.1.3,Win32,60,Firefox,1536,864,,,,,,,,,,,,,,,,,1,,,,,,,,,,,,,,,,,,,,,,,,,,,417.982,8,right,0.855,parrot      ,2,5,-3,0,3,417.999,417.999,420.497,0,7,7,7,1,8,5,2,clownfish     ,parrot      ,html/resources/sequences_IDs/A/04_clownfish.jpg,html/resources/sequences_IDs/B/05_parrot.jpg,4,5,2,1,2,1,3,4,0,55,,,,,,,,,,,,,,,,,,,,
,,,,,55,2020-07-04_16h31.11.466,retriever_ti,2020.1.3,Win32,60,Firefox,1536,864,,,,,,,,,,,,,,,,,1,,,,,,,,,,,,,,,,,,,,,,,,,,,421.115,9,left,1.082,clownfish     ,5,4,-2,0,3,421.15,421.15,423.648,0,8,8,8,1,9,5,7,clownfish     ,dress         ,html/resources/sequences_IDs/A/04_clownfish.jpg,html/resources/sequences_IDs/A/07_dress.jpg,4,7,2,1,3,2,3,6,0,55,,,,,,,,,,,,,,,,,,,,
,,,,,55,2020-07-04_16h31.11.466,retriever_ti,2020.1.3,Win32,60,Firefox,1536,864,,,,,,,,,,,,,,,,,1,,,,,,,,,,,,,,,,,,,,,,,,,,,424.266,10,right,1.415,redfox      ,4,1,-3,0,3,424.297,424.297,426.798,0,9,9,9,1,10,7,4,dress         ,redfox      ,html/resources/sequences_IDs/A/07_dress.jpg,html/resources/sequences_IDs/B/01_redfox.jpg,7,1,3,2,1,1,6,1,0,55,,,,,,,,,,,,,,,,,,,,
,,,,,55,2020-07-04_16h31.11.466,retriever_ti,2020.1.3,Win32,60,Firefox,1536,864,,,,,,,,,,,,,,,,,1,,,,,,,,,,,,,,,,,,,,,,,,,,,427.415,11,right,1.2,phone       ,6,9,1,1,0,427.453,427.453,429.948,0,10,10,10,1,11,5,6,clownfish     ,phone       ,html/resources/sequences_IDs/A/04_clownfish.jpg,html/resources/sequences_IDs/B/09_phone.jpg,4,9,2,1,4,2,3,7,1,55,,,,,,,,,,,,,,,,,,,,
,,,,,55,2020-07-04_16h31.11.466,retriever_ti,2020.1.3,Win32,60,Firefox,1536,864,,,,,,,,,,,,,,,,,1,,,,,,,,,,,,,,,,,,,,,,,,,,,431.049,12,right,1.249,dress         ,7,7,6,1,3,431.083,431.083,433.581,0,11,11,11,1,12,1,7,scarf         ,dress         ,html/resources/sequences_IDs/A/06_scarf.jpg,html/resources/sequences_IDs/A/07_dress.jpg,6,7,3,2,3,2,5,6,0,55,,,,,,,,,,,,,,,,,,,,
,,,,,55,2020-07-04_16h31.11.466,retriever_ti,2020.1.3,Win32,60,Firefox,1536,864,,,,,,,,,,,,,,,,,1,,,,,,,,,,,,,,,,,,,,,,,,,,,434.198,13,right,1.27,giraffe     ,8,3,4,1,3,434.216,434.216,436.714,0,12,12,12,1,13,4,8,redfox      ,giraffe     ,html/resources/sequences_IDs/B/01_redfox.jpg,html/resources/sequences_IDs/B/03_giraffe.jpg,1,3,1,1,1,1,1,2,0,55,,,,,,,,,,,,,,,,,,,,
,,,,,55,2020-07-04_16h31.11.466,retriever_ti,2020.1.3,Win32,60,Firefox,1536,864,,,,,,,,,,,,,,,,,1,,,,,,,,,,,,,,,,,,,,,,,,,,,437.315,14,right,0.814,satellite_dish,3,10,-1,0,0,437.348,437.348,439.847,0,13,13,13,1,14,4,3,redfox      ,satellite_dish,html/resources/sequences_IDs/B/01_redfox.jpg,html/resources/sequences_IDs/A/10_satellite_dish.jpg,1,10,1,1,4,2,1,8,0,55,,,,,,,,,,,,,,,,,,,,
,,,,,55,2020-07-04_16h31.11.466,retriever_ti,2020.1.3,Win32,60,Firefox,1536,864,,,,,,,,,,,,,,,,,1,,,,,,,,,,,,,,,,,,,,,,,,,,,440.95,15,right,1.33,satellite_dish,3,10,-5,0,3,440.983,440.983,443.481,0,14,14,14,1,15,8,3,giraffe     ,satellite_dish,html/resources/sequences_IDs/B/03_giraffe.jpg,html/resources/sequences_IDs/A/10_satellite_dish.jpg,3,10,1,1,4,2,2,8,0,55,,,,,,,,,,,,,,,,,,,,
,,,,,55,2020-07-04_16h31.11.466,retriever_ti,2020.1.3,Win32,60,Firefox,1536,864,,,,,,,,,,,,,,,,,1,,,,,,,,,,,,,,,,,,,,,,,,,,,444.098,16,right,0.77,satellite_dish,3,10,1,1,1,444.133,444.133,446.631,0,15,15,15,1,16,2,3,parrot      ,satellite_dish,html/resources/sequences_IDs/B/05_parrot.jpg,html/resources/sequences_IDs/A/10_satellite_dish.jpg,5,10,2,1,4,2,4,8,0,55,,,,,,,,,,,,,,,,,,,,
,,,,,55,2020-07-04_16h31.11.466,retriever_ti,2020.1.3,Win32,60,Firefox,1536,864,,,,,,,,,,,,,,,,,1,,,,,,,,,,,,,,,,,,,,,,,,,,,447.731,17,left,0.78,satellite_dish,3,10,-4,0,3,447.766,447.766,450.264,0,16,16,16,1,17,3,7,satellite_dish,dress         ,html/resources/sequences_IDs/A/10_satellite_dish.jpg,html/resources/sequences_IDs/A/07_dress.jpg,10,7,4,2,3,2,8,6,0,55,,,,,,,,,,,,,,,,,,,,
,,,,,55,2020-07-04_16h31.11.466,retriever_ti,2020.1.3,Win32,60,Firefox,1536,864,,,,,,,,,,,,,,,,,1,,,,,,,,,,,,,,,,,,,,,,,,,,,450.864,18,right,1.314,clownfish     ,5,4,3,1,3,450.883,450.883,453.383,0,17,17,17,1,18,2,5,parrot      ,clownfish     ,html/resources/sequences_IDs/B/05_parrot.jpg,html/resources/sequences_IDs/A/04_clownfish.jpg,5,4,2,1,2,1,4,3,0,55,,,,,,,,,,,,,,,,,,,,
,,,,,55,2020-07-04_16h31.11.466,retriever_ti,2020.1.3,Win32,60,Firefox,1536,864,,,,,,,,,,,,,,,,,1,,,,,,,,,,,,,,,,,,,,,,,,,,,453.982,19,right,1.193,phone       ,6,9,2,1,3,453.998,453.998,456.498,0,18,18,18,1,19,4,6,redfox      ,phone       ,html/resources/sequences_IDs/B/01_redfox.jpg,html/resources/sequences_IDs/B/09_phone.jpg,1,9,1,1,4,2,1,7,0,55,,,,,,,,,,,,,,,,,,,,
,,,,,55,2020-07-04_16h31.11.466,retriever_ti,2020.1.3,Win32,60,Firefox,1536,864,,,,,,,,,,,,,,,,,1,,,,,,,,,,,,,,,,,,,,,,,,,,,457.115,20,left,1.005,phone       ,6,9,-1,0,0,457.133,457.133,459.631,0,19,19,19,1,20,6,7,phone       ,dress         ,html/resources/sequences_IDs/B/09_phone.jpg,html/resources/sequences_IDs/A/07_dress.jpg,9,7,4,2,3,2,7,6,0,55,,,,,,,,,,,,,,,,,,,,
,,,,,55,2020-07-04_16h31.11.466,retriever_ti,2020.1.3,Win32,60,Firefox,1536,864,,,,,,,,,,,,,,,,,1,,,,,,,,,,,,,,,,,,,,,,,,,,,460.731,21,left,0.967,parrot      ,2,5,1,1,1,460.748,460.748,463.248,0,20,20,20,1,21,2,1,parrot      ,scarf         ,html/resources/sequences_IDs/B/05_parrot.jpg,html/resources/sequences_IDs/A/06_scarf.jpg,5,6,2,1,3,2,4,5,0,55,,,,,,,,,,,,,,,,,,,,
,,,,,55,2020-07-04_16h31.11.466,retriever_ti,2020.1.3,Win32,60,Firefox,1536,864,,,,,,,,,,,,,,,,,1,,,,,,,,,,,,,,,,,,,,,,,,,,,464.349,22,right,0.875,satellite_dish,3,10,-2,0,3,464.366,464.366,466.864,0,21,21,21,1,22,5,3,clownfish     ,satellite_dish,html/resources/sequences_IDs/A/04_clownfish.jpg,html/resources/sequences_IDs/A/10_satellite_dish.jpg,4,10,2,1,4,2,3,8,0,55,,,,,,,,,,,,,,,,,,,,
,,,,,55,2020-07-04_16h31.11.466,retriever_ti,2020.1.3,Win32,60,Firefox,1536,864,,,,,,,,,,,,,,,,,1,,,,,,,,,,,,,,,,,,,,,,,,,,,467.482,23,left,1.254,redfox      ,4,1,2,1,3,467.516,467.516,470.016,0,22,22,22,1,23,4,2,redfox      ,parrot      ,html/resources/sequences_IDs/B/01_redfox.jpg,html/resources/sequences_IDs/B/05_parrot.jpg,1,5,1,1,2,1,1,4,0,55,,,,,,,,,,,,,,,,,,,,
,,,,,55,2020-07-04_16h31.11.466,retriever_ti,2020.1.3,Win32,60,Firefox,1536,864,,,,,,,,,,,,,,,,,1,,,,,,,,,,,,,,,,,,,,,,,,,,,470.615,24,right,1.475,giraffe     ,8,3,6,1,3,470.633,470.633,473.131,0,23,23,23,1,24,2,8,parrot      ,giraffe     ,html/resources/sequences_IDs/B/05_parrot.jpg,html/resources/sequences_IDs/B/03_giraffe.jpg,5,3,2,1,1,1,4,2,0,55,,,,,,,,,,,,,,,,,,,,
,,,,,55,2020-07-04_16h31.11.466,retriever_ti,2020.1.3,Win32,60,Firefox,1536,864,,,,,,,,,,,,,,,,,1,,,,,,,,,,,,,,,,,,,,,,,,,,,473.731,25,left,1.489,giraffe     ,8,3,2,1,3,473.765,473.765,476.265,0,24,24,24,1,25,8,6,giraffe     ,phone       ,html/resources/sequences_IDs/B/03_giraffe.jpg,html/resources/sequences_IDs/B/09_phone.jpg,3,9,1,1,4,2,2,7,0,55,,,,,,,,,,,,,,,,,,,,
,,,,,55,2020-07-04_16h31.11.466,retriever_ti,2020.1.3,Win32,60,Firefox,1536,864,,,,,,,,,,,,,,,,,1,,,,,,,,,,,,,,,,,,,,,,,,,,,476.866,26,left,0.991,redfox      ,4,1,-3,0,3,476.883,476.883,479.381,0,25,25,25,1,26,4,7,redfox      ,dress         ,html/resources/sequences_IDs/B/01_redfox.jpg,html/resources/sequences_IDs/A/07_dress.jpg,1,7,1,1,3,2,1,6,0,55,,,,,,,,,,,,,,,,,,,,
,,,,,55,2020-07-04_16h31.11.466,retriever_ti,2020.1.3,Win32,60,Firefox,1536,864,,,,,,,,,,,,,,,,,1,,,,,,,,,,,,,,,,,,,,,,,,,,,479.982,27,right,2.247,redfox      ,4,1,2,1,3,480,480,482.498,0,26,26,26,1,27,2,4,parrot      ,redfox      ,html/resources/sequences_IDs/B/05_parrot.jpg,html/resources/sequences_IDs/B/01_redfox.jpg,5,1,2,1,1,1,4,1,0,55,,,,,,,,,,,,,,,,,,,,
,,,,,55,2020-07-04_16h31.11.466,retriever_ti,2020.1.3,Win32,60,Firefox,1536,864,,,,,,,,,,,,,,,,,1,,,,,,,,,,,,,,,,,,,,,,,,,,,483.115,28,right,0.961,phone       ,6,9,5,1,3,483.134,483.134,485.632,0,27,27,27,1,28,1,6,scarf         ,phone       ,html/resources/sequences_IDs/A/06_scarf.jpg,html/resources/sequences_IDs/B/09_phone.jpg,6,9,3,2,4,2,5,7,0,55,,,,,,,,,,,,,,,,,,,,
,,,,,55,2020-07-04_16h31.11.466,retriever_ti,2020.1.3,Win32,60,Firefox,1536,864,,,,,,,,,,,,,,,,,1,,,,,,,,,,,,,,,,,,,,,,,,,,,486.234,29,left,0.815,dress         ,7,7,6,1,3,486.25,486.25,488.748,0,28,28,28,1,29,7,1,dress         ,scarf         ,html/resources/sequences_IDs/A/07_dress.jpg,html/resources/sequences_IDs/A/06_scarf.jpg,7,6,3,2,3,2,6,5,0,55,,,,,,,,,,,,,,,,,,,,
,,,,,55,2020-07-04_16h31.11.466,retriever_ti,2020.1.3,Win32,60,Firefox,1536,864,,,,,,,,,,,,,,,,,1,,,,,,,,,,,,,,,,,,,,,,,,,,,489.365,30,right,1.563,clownfish     ,5,4,-1,0,0,489.383,489.383,491.881,0,29,29,29,1,30,6,5,phone       ,clownfish     ,html/resources/sequences_IDs/B/09_phone.jpg,html/resources/sequences_IDs/A/04_clownfish.jpg,9,4,4,2,2,1,7,3,0,55,,,,,,,,,,,,,,,,,,,,
,,,,,55,2020-07-04_16h31.11.466,retriever_ti,2020.1.3,Win32,60,Firefox,1536,864,,,,,,,,,,,,,,,,,1,,,,,,,,,,,,,,,,,,,,,,,,,,,492.983,31,right,1.321,redfox      ,4,1,-2,0,3,493.017,493.017,495.515,0,30,30,30,1,31,6,4,phone       ,redfox      ,html/resources/sequences_IDs/B/09_phone.jpg,html/resources/sequences_IDs/B/01_redfox.jpg,9,1,4,2,1,1,7,1,0,55,,,,,,,,,,,,,,,,,,,,
,,,,,55,2020-07-04_16h31.11.466,retriever_ti,2020.1.3,Win32,60,Firefox,1536,864,,,,,,,,,,,,,,,,,1,,,,,,,,,,,,,,,,,,,,,,,,,,,496.132,32,left,0.886,parrot      ,2,5,-5,0,3,496.165,496.165,498.664,0,31,31,31,1,32,2,7,parrot      ,dress         ,html/resources/sequences_IDs/B/05_parrot.jpg,html/resources/sequences_IDs/A/07_dress.jpg,5,7,2,1,3,2,4,6,0,55,,,,,,,,,,,,,,,,,,,,
,,,,,55,2020-07-04_16h31.11.466,retriever_ti,2020.1.3,Win32,60,Firefox,1536,864,,,,,,,,,,,,,,,,,1,,,,,,,,,,,,,,,,,,,,,,,,,,,499.265,33,right,1.296,clownfish     ,5,4,-1,0,0,499.3,499.3,501.798,0,32,32,32,1,33,6,5,phone       ,clownfish     ,html/resources/sequences_IDs/B/09_phone.jpg,html/resources/sequences_IDs/A/04_clownfish.jpg,9,4,4,2,2,1,7,3,0,55,,,,,,,,,,,,,,,,,,,,
,,,,,55,2020-07-04_16h31.11.466,retriever_ti,2020.1.3,Win32,60,Firefox,1536,864,,,,,,,,,,,,,,,,,1,,,,,,,,,,,,,,,,,,,,,,,,,,,502.899,34,left,0.955,satellite_dish,3,10,-3,0,3,502.935,502.935,505.431,0,33,33,33,1,34,3,6,satellite_dish,phone       ,html/resources/sequences_IDs/A/10_satellite_dish.jpg,html/resources/sequences_IDs/B/09_phone.jpg,10,9,4,2,4,2,8,7,0,55,,,,,,,,,,,,,,,,,,,,
,,,,,55,2020-07-04_16h31.11.466,retriever_ti,2020.1.3,Win32,60,Firefox,1536,864,,,,,,,,,,,,,,,,,1,,,,,,,,,,,,,,,,,,,,,,,,,,,506.049,35,right,0.739,parrot      ,2,5,1,1,1,506.068,506.068,508.565,0,34,34,34,1,35,1,2,scarf         ,parrot      ,html/resources/sequences_IDs/A/06_scarf.jpg,html/resources/sequences_IDs/B/05_parrot.jpg,6,5,3,2,2,1,5,4,0,55,,,,,,,,,,,,,,,,,,,,
,,,,,55,2020-07-04_16h31.11.466,retriever_ti,2020.1.3,Win32,60,Firefox,1536,864,,,,,,,,,,,,,,,,,1,,,,,,,,,,,,,,,,,,,,,,,,,,,509.666,36,left,1.061,clownfish     ,5,4,-1,0,0,509.684,509.684,512.182,0,35,35,35,1,36,5,6,clownfish     ,phone       ,html/resources/sequences_IDs/A/04_clownfish.jpg,html/resources/sequences_IDs/B/09_phone.jpg,4,9,2,1,4,2,3,7,0,55,,,,,,,,,,,,,,,,,,,,
,,,,,55,2020-07-04_16h31.11.466,retriever_ti,2020.1.3,Win32,60,Firefox,1536,864,,,,,,,,,,,,,,,,,1,,,,,,,,,,,,,,,,,,,,,,,,,,,513.283,37,left,2.253,giraffe     ,8,3,7,1,3,513.315,513.315,515.815,0,36,36,36,1,37,8,1,giraffe     ,scarf         ,html/resources/sequences_IDs/B/03_giraffe.jpg,html/resources/sequences_IDs/A/06_scarf.jpg,3,6,1,1,3,2,2,5,0,55,,,,,,,,,,,,,,,,,,,,
,,,,,55,2020-07-04_16h31.11.466,retriever_ti,2020.1.3,Win32,60,Firefox,1536,864,,,,,,,,,,,,,,,,,1,,,,,,,,,,,,,,,,,,,,,,,,,,,516.416,38,right,2.101,giraffe     ,8,3,2,1,3,516.452,516.452,518.948,0,37,37,37,1,38,6,8,phone       ,giraffe     ,html/resources/sequences_IDs/B/09_phone.jpg,html/resources/sequences_IDs/B/03_giraffe.jpg,9,3,4,2,1,1,7,2,0,55,,,,,,,,,,,,,,,,,,,,
,,,,,55,2020-07-04_16h31.11.466,retriever_ti,2020.1.3,Win32,60,Firefox,1536,864,,,,,,,,,,,,,,,,,1,,,,,,,,,,,,,,,,,,,,,,,,,,,519.549,39,right,0.928,redfox      ,4,1,3,1,3,519.567,519.567,522.065,0,38,38,38,1,39,1,4,scarf         ,redfox      ,html/resources/sequences_IDs/A/06_scarf.jpg,html/resources/sequences_IDs/B/01_redfox.jpg,6,1,3,2,1,1,5,1,0,55,,,,,,,,,,,,,,,,,,,,
,,,,,55,2020-07-04_16h31.11.466,retriever_ti,2020.1.3,Win32,60,Firefox,1536,864,,,,,,,,,,,,,,,,,1,,,,,,,,,,,,,,,,,,,,,,,,,,,522.666,40,left,0.8,parrot      ,2,5,1,1,0,522.685,522.685,525.182,0,39,39,39,1,40,2,1,parrot      ,scarf         ,html/resources/sequences_IDs/B/05_parrot.jpg,html/resources/sequences_IDs/A/06_scarf.jpg,5,6,2,1,3,2,4,5,1,55,,,,,,,,,,,,,,,,,,,,
,,,,,55,2020-07-04_16h31.11.466,retriever_ti,2020.1.3,Win32,60,Firefox,1536,864,,,,,,,,,,,,,,,,,1,,,,,,,,,,,,,,,,,,,,,,,,,,,526.283,41,NaN,NaN,No_response,NaN,NaN,NaN,2,2,526.301,526.301,528.799,0,40,40,40,1,41,8,7,giraffe     ,dress         ,html/resources/sequences_IDs/B/03_giraffe.jpg,html/resources/sequences_IDs/A/07_dress.jpg,3,7,1,1,3,2,2,6,0,55,,,,,,,,,,,,,,,,,,,,
,,,,,55,2020-07-04_16h31.11.466,retriever_ti,2020.1.3,Win32,60,Firefox,1536,864,,,,,,,,,,,,,,,,,1,,,,,,,,,,,,,,,,,,,,,,,,,,,529.899,42,left,0.76,giraffe     ,8,3,1,1,1,529.934,529.934,532.432,0,41,41,41,1,42,8,7,giraffe     ,dress         ,html/resources/sequences_IDs/B/03_giraffe.jpg,html/resources/sequences_IDs/A/07_dress.jpg,3,7,1,1,3,2,2,6,0,55,,,,,,,,,,,,,,,,,,,,
,,,,,55,2020-07-04_16h31.11.466,retriever_ti,2020.1.3,Win32,60,Firefox,1536,864,,,,,,,,,,,,,,,,,1,,,,,,,,,,,,,,,,,,,,,,,,,,,533.533,43,right,0.765,parrot      ,2,5,-4,0,3,533.549,533.549,536.049,0,42,42,42,1,43,6,2,phone       ,parrot      ,html/resources/sequences_IDs/B/09_phone.jpg,html/resources/sequences_IDs/B/05_parrot.jpg,9,5,4,2,2,1,7,4,0,55,,,,,,,,,,,,,,,,,,,,
,,,,,55,2020-07-04_16h31.11.466,retriever_ti,2020.1.3,Win32,60,Firefox,1536,864,,,,,,,,,,,,,,,,,1,,,,,,,,,,,,,,,,,,,,,,,,,,,536.666,44,right,0.705,satellite_dish,3,10,-4,0,3,536.684,536.684,539.182,0,43,43,43,1,44,7,3,dress         ,satellite_dish,html/resources/sequences_IDs/A/07_dress.jpg,html/resources/sequences_IDs/A/10_satellite_dish.jpg,7,10,3,2,4,2,6,8,0,55,,,,,,,,,,,,,,,,,,,,
,,,,,55,2020-07-04_16h31.11.466,retriever_ti,2020.1.3,Win32,60,Firefox,1536,864,,,,,,,,,,,,,,,,,1,,,,,,,,,,,,,,,,,,,,,,,,,,,539.783,45,right,0.607,giraffe     ,8,3,7,1,3,539.801,539.801,542.298,0,44,44,44,1,45,1,8,scarf         ,giraffe     ,html/resources/sequences_IDs/A/06_scarf.jpg,html/resources/sequences_IDs/B/03_giraffe.jpg,6,3,3,2,1,1,5,2,0,55,,,,,,,,,,,,,,,,,,,,
,,,,,55,2020-07-04_16h31.11.466,retriever_ti,2020.1.3,Win32,60,Firefox,1536,864,,,,,,,,,,,,,,,,,1,,,,,,,,,,,,,,,,,,,,,,,,,,,542.899,46,right,1.136,phone       ,6,9,4,1,3,542.934,542.934,545.432,0,45,45,45,1,46,2,6,parrot      ,phone       ,html/resources/sequences_IDs/B/05_parrot.jpg,html/resources/sequences_IDs/B/09_phone.jpg,5,9,2,1,4,2,4,7,0,55,,,,,,,,,,,,,,,,,,,,
,,,,,55,2020-07-04_16h31.11.466,retriever_ti,2020.1.3,Win32,60,Firefox,1536,864,,,,,,,,,,,,,,,,,1,,,,,,,,,,,,,,,,,,,,,,,,,,,546.033,47,left,1.007,phone       ,6,9,-1,0,0,546.049,546.049,548.549,0,46,46,46,1,47,6,7,phone       ,dress         ,html/resources/sequences_IDs/B/09_phone.jpg,html/resources/sequences_IDs/A/07_dress.jpg,9,7,4,2,3,2,7,6,0,55,,,,,,,,,,,,,,,,,,,,
,,,,,55,2020-07-04_16h31.11.466,retriever_ti,2020.1.3,Win32,60,Firefox,1536,864,,,,,,,,,,,,,,,,,1,,,,,,,,,,,,,,,,,,,,,,,,,,,549.65,48,right,1.066,giraffe     ,8,3,1,1,1,549.684,549.684,552.183,0,47,47,47,1,48,7,8,dress         ,giraffe     ,html/resources/sequences_IDs/A/07_dress.jpg,html/resources/sequences_IDs/B/03_giraffe.jpg,7,3,3,2,1,1,6,2,0,55,,,,,,,,,,,,,,,,,,,,
,,,,,55,2020-07-04_16h31.11.466,retriever_ti,2020.1.3,Win32,60,Firefox,1536,864,,,,,,,,,,,,,,,,,1,,,,,,,,,,,,,,,,,,,,,,,,,,,553.283,49,left,1.239,giraffe     ,8,3,4,1,3,553.316,553.316,555.817,0,48,48,48,1,49,8,4,giraffe     ,redfox      ,html/resources/sequences_IDs/B/03_giraffe.jpg,html/resources/sequences_IDs/B/01_redfox.jpg,3,1,1,1,1,1,2,1,0,55,,,,,,,,,,,,,,,,,,,,
,,,,,55,2020-07-04_16h31.11.466,retriever_ti,2020.1.3,Win32,60,Firefox,1536,864,,,,,,,,,,,,,,,,,1,,,,,,,,,,,,,,,,,,,,,,,,,,,556.433,50,right,1.194,redfox      ,4,1,-1,0,0,556.466,556.466,558.965,0,49,49,49,1,50,5,4,clownfish     ,redfox      ,html/resources/sequences_IDs/A/04_clownfish.jpg,html/resources/sequences_IDs/B/01_redfox.jpg,4,1,2,1,1,1,3,1,0,55,,,,,,,,,,,,,,,,,,,,
,,,,,55,2020-07-04_16h31.11.466,retriever_ti,2020.1.3,Win32,60,Firefox,1536,864,,,,,,,,,,,,,,,,,1,,,,,,,,,,,,,,,,,,,,,,,,,,,560.067,51,right,2.141,dress         ,7,7,-1,0,1,560.101,560.101,562.599,0,50,50,50,1,51,8,7,giraffe     ,dress         ,html/resources/sequences_IDs/B/03_giraffe.jpg,html/resources/sequences_IDs/A/07_dress.jpg,3,7,1,1,3,2,2,6,1,55,,,,,,,,,,,,,,,,,,,,
,,,,,55,2020-07-04_16h31.11.466,retriever_ti,2020.1.3,Win32,60,Firefox,1536,864,,,,,,,,,,,,,,,,,1,,,,,,,,,,,,,,,,,,,,,,,,,,,563.7,52,right,1.488,clownfish     ,5,4,4,1,3,563.734,563.734,566.232,0,51,51,51,1,52,1,5,scarf         ,clownfish     ,html/resources/sequences_IDs/A/06_scarf.jpg,html/resources/sequences_IDs/A/04_clownfish.jpg,6,4,3,2,2,1,5,3,0,55,,,,,,,,,,,,,,,,,,,,
,,,,,55,2020-07-04_16h31.11.466,retriever_ti,2020.1.3,Win32,60,Firefox,1536,864,,,,,,,,,,,,,,,,,1,,,,,,,,,,,,,,,,,,,,,,,,,,,566.833,53,right,0.782,satellite_dish,3,10,1,1,0,566.851,566.851,569.349,0,52,52,52,1,53,2,3,parrot      ,satellite_dish,html/resources/sequences_IDs/B/05_parrot.jpg,html/resources/sequences_IDs/A/10_satellite_dish.jpg,5,10,2,1,4,2,4,8,1,55,,,,,,,,,,,,,,,,,,,,
,,,,,55,2020-07-04_16h31.11.466,retriever_ti,2020.1.3,Win32,60,Firefox,1536,864,,,,,,,,,,,,,,,,,1,,,,,,,,,,,,,,,,,,,,,,,,,,,570.45,54,left,0.726,satellite_dish,3,10,1,1,1,570.468,570.468,572.966,0,53,53,53,1,54,3,2,satellite_dish,parrot      ,html/resources/sequences_IDs/A/10_satellite_dish.jpg,html/resources/sequences_IDs/B/05_parrot.jpg,10,5,4,2,2,1,8,4,0,55,,,,,,,,,,,,,,,,,,,,
,,,,,55,2020-07-04_16h31.11.466,retriever_ti,2020.1.3,Win32,60,Firefox,1536,864,,,,,,,,,,,,,,,,,1,,,,,,,,,,,,,,,,,,,,,,,,,,,574.067,55,left,0.851,redfox      ,4,1,3,1,3,574.085,574.085,576.583,0,54,54,54,1,55,4,1,redfox      ,scarf         ,html/resources/sequences_IDs/B/01_redfox.jpg,html/resources/sequences_IDs/A/06_scarf.jpg,1,6,1,1,3,2,1,5,0,55,,,,,,,,,,,,,,,,,,,,
,,,,,55,2020-07-04_16h31.11.466,retriever_ti,2020.1.3,Win32,60,Firefox,1536,864,,,,,,,,,,,,,,,,,1,,,,,,,,,,,,,,,,,,,,,,,,,,,577.184,56,left,0.764,satellite_dish,3,10,-5,0,3,577.22,577.22,579.716,0,55,55,55,1,56,3,8,satellite_dish,giraffe     ,html/resources/sequences_IDs/A/10_satellite_dish.jpg,html/resources/sequences_IDs/B/03_giraffe.jpg,10,3,4,2,1,1,8,2,0,55,,,,,,,,,,,,,,,,,,,,
,,,,,55,2020-07-04_16h31.11.466,retriever_ti,2020.1.3,Win32,60,Firefox,1536,864,,,,,,,,,,,,,,,,,1,,,,,,,,,,,,,,,,,,,,,,,,,,,580.317,57,left,1.164,redfox      ,4,1,-1,0,0,580.333,580.333,582.833,0,56,56,56,1,57,4,5,redfox      ,clownfish     ,html/resources/sequences_IDs/B/01_redfox.jpg,html/resources/sequences_IDs/A/04_clownfish.jpg,1,4,1,1,2,1,1,3,0,55,,,,,,,,,,,,,,,,,,,,
,,,,,55,2020-07-04_16h31.11.466,retriever_ti,2020.1.3,Win32,60,Firefox,1536,864,,,,,,,,,,,,,,,,,1,,,,,,,,,,,,,,,,,,,,,,,,,,,583.933,58,right,1.158,phone       ,6,9,-1,0,1,583.968,583.968,586.466,0,57,57,57,1,58,7,6,dress         ,phone       ,html/resources/sequences_IDs/A/07_dress.jpg,html/resources/sequences_IDs/B/09_phone.jpg,7,9,3,2,4,2,6,7,1,55,,,,,,,,,,,,,,,,,,,,
,,,,,55,2020-07-04_16h31.11.466,retriever_ti,2020.1.3,Win32,60,Firefox,1536,864,,,,,,,,,,,,,,,,,1,,,,,,,,,,,,,,,,,,,,,,,,,,,587.567,59,right,1.883,phone       ,6,9,1,1,1,587.603,587.603,590.099,0,58,58,58,1,59,5,6,clownfish     ,phone       ,html/resources/sequences_IDs/A/04_clownfish.jpg,html/resources/sequences_IDs/B/09_phone.jpg,4,9,2,1,4,2,3,7,0,55,,,,,,,,,,,,,,,,,,,,
,,,,,55,2020-07-04_16h31.11.466,retriever_ti,2020.1.3,Win32,60,Firefox,1536,864,,,,,,,,,,,,,,,,,1,,,,,,,,,,,,,,,,,,,,,,,,,,,591.2,60,left,0.88,clownfish     ,5,4,4,1,3,591.235,591.235,593.733,0,59,59,59,1,60,5,1,clownfish     ,scarf         ,html/resources/sequences_IDs/A/04_clownfish.jpg,html/resources/sequences_IDs/A/06_scarf.jpg,4,6,2,1,3,2,3,5,0,55,,,,,,,,,,,,,,,,,,,,
,,,,,55,2020-07-04_16h31.11.466,retriever_ti,2020.1.3,Win32,60,Firefox,1536,864,,,,,,,,,,,,,,,,,1,,,,,,,,,,,,,,,,,,,,,,,,,,,594.333,61,right,1.453,phone       ,6,9,-1,0,0,594.352,594.352,596.85,0,60,60,60,1,61,7,6,dress         ,phone       ,html/resources/sequences_IDs/A/07_dress.jpg,html/resources/sequences_IDs/B/09_phone.jpg,7,9,3,2,4,2,6,7,0,55,,,,,,,,,,,,,,,,,,,,
,,,,,55,2020-07-04_16h31.11.466,retriever_ti,2020.1.3,Win32,60,Firefox,1536,864,,,,,,,,,,,,,,,,,1,,,,,,,,,,,,,,,,,,,,,,,,,,,597.95,62,left,0.701,satellite_dish,3,10,-1,0,0,597.97,597.97,600.466,0,61,61,61,1,62,3,4,satellite_dish,redfox      ,html/resources/sequences_IDs/A/10_satellite_dish.jpg,html/resources/sequences_IDs/B/01_redfox.jpg,10,1,4,2,1,1,8,1,0,55,,,,,,,,,,,,,,,,,,,,
,,,,,55,2020-07-04_16h31.11.466,retriever_ti,2020.1.3,Win32,60,Firefox,1536,864,,,,,,,,,,,,,,,,,1,,,,,,,,,,,,,,,,,,,,,,,,,,,601.567,63,right,1.576,clownfish     ,5,4,-2,0,3,601.584,601.584,604.083,0,62,62,62,1,63,7,5,dress         ,clownfish     ,html/resources/sequences_IDs/A/07_dress.jpg,html/resources/sequences_IDs/A/04_clownfish.jpg,7,4,3,2,2,1,6,3,0,55,,,,,,,,,,,,,,,,,,,,
,,,,,55,2020-07-04_16h31.11.466,retriever_ti,2020.1.3,Win32,60,Firefox,1536,864,,,,,,,,,,,,,,,,,1,,,,,,,,,,,,,,,,,,,,,,,,,,,604.701,64,right,1.142,giraffe     ,8,3,3,1,3,604.735,604.735,607.234,0,63,63,63,1,64,5,8,clownfish     ,giraffe     ,html/resources/sequences_IDs/A/04_clownfish.jpg,html/resources/sequences_IDs/B/03_giraffe.jpg,4,3,2,1,1,1,3,2,0,55,,,,,,,,,,,,,,,,,,,,
,,,,,55,2020-07-04_16h31.11.466,retriever_ti,2020.1.3,Win32,60,Firefox,1536,864,,,,,,,,,,,,,,,,,1,,,,,,,,,,,,,,,,,,,,,,,,,,,607.85,65,left,1.528,redfox      ,4,1,-1,0,1,607.868,607.868,610.367,0,64,64,64,1,65,4,5,redfox      ,clownfish     ,html/resources/sequences_IDs/B/01_redfox.jpg,html/resources/sequences_IDs/A/04_clownfish.jpg,1,4,1,1,2,1,1,3,1,55,,,,,,,,,,,,,,,,,,,,
,,,,,55,2020-07-04_16h31.11.466,retriever_ti,2020.1.3,Win32,60,Firefox,1536,864,,,,,,,,,,,,,,,,,1,,,,,,,,,,,,,,,,,,,,,,,,,,,611.467,66,left,0.901,phone       ,6,9,5,1,3,611.485,611.485,613.983,0,65,65,65,1,66,6,1,phone       ,scarf         ,html/resources/sequences_IDs/B/09_phone.jpg,html/resources/sequences_IDs/A/06_scarf.jpg,9,6,4,2,3,2,7,5,0,55,,,,,,,,,,,,,,,,,,,,
,,,,,55,2020-07-04_16h31.11.466,retriever_ti,2020.1.3,Win32,60,Firefox,1536,864,,,,,,,,,,,,,,,,,1,,,,,,,,,,,,,,,,,,,,,,,,,,,614.584,67,left,0.894,satellite_dish,3,10,1,1,1,614.602,614.602,617.1,0,66,66,66,1,67,3,2,satellite_dish,parrot      ,html/resources/sequences_IDs/A/10_satellite_dish.jpg,html/resources/sequences_IDs/B/05_parrot.jpg,10,5,4,2,2,1,8,4,0,55,,,,,,,,,,,,,,,,,,,,
,,,,,55,2020-07-04_16h31.11.466,retriever_ti,2020.1.3,Win32,60,Firefox,1536,864,,,,,,,,,,,,,,,,,1,,,,,,,,,,,,,,,,,,,,,,,,,,,618.2,68,left,1.243,satellite_dish,3,10,-1,0,0,618.235,618.235,620.734,0,67,67,67,1,68,3,4,satellite_dish,redfox      ,html/resources/sequences_IDs/A/10_satellite_dish.jpg,html/resources/sequences_IDs/B/01_redfox.jpg,10,1,4,2,1,1,8,1,0,55,,,,,,,,,,,,,,,,,,,,
,,,,,55,2020-07-04_16h31.11.466,retriever_ti,2020.1.3,Win32,60,Firefox,1536,864,,,,,,,,,,,,,,,,,1,,,,,,,,,,,,,,,,,,,,,,,,,,,621.834,69,left,0.903,redfox      ,4,1,-1,0,0,621.853,621.853,624.35,0,68,68,68,1,69,4,5,redfox      ,clownfish     ,html/resources/sequences_IDs/B/01_redfox.jpg,html/resources/sequences_IDs/A/04_clownfish.jpg,1,4,1,1,2,1,1,3,0,55,,,,,,,,,,,,,,,,,,,,
,,,,,55,2020-07-04_16h31.11.466,retriever_ti,2020.1.3,Win32,60,Firefox,1536,864,,,,,,,,,,,,,,,,,1,,,,,,,,,,,,,,,,,,,,,,,,,,,625.451,70,right,1.037,giraffe     ,8,3,1,1,1,625.485,625.485,627.984,0,69,69,69,1,70,7,8,dress         ,giraffe     ,html/resources/sequences_IDs/A/07_dress.jpg,html/resources/sequences_IDs/B/03_giraffe.jpg,7,3,3,2,1,1,6,2,0,55,,,,,,,,,,,,,,,,,,,,
,,,,,55,2020-07-04_16h31.11.466,retriever_ti,2020.1.3,Win32,60,Firefox,1536,864,,,,,,,,,,,,,,,,,1,,,,,,,,,,,,,,,,,,,,,,,,,,,629.084,71,right,0.952,satellite_dish,3,10,-3,0,3,629.102,629.102,631.6,0,70,70,70,1,71,6,3,phone       ,satellite_dish,html/resources/sequences_IDs/B/09_phone.jpg,html/resources/sequences_IDs/A/10_satellite_dish.jpg,9,10,4,2,4,2,7,8,0,55,,,,,,,,,,,,,,,,,,,,
,,,,,55,2020-07-04_16h31.11.466,retriever_ti,2020.1.3,Win32,60,Firefox,1536,864,,,,,,,,,,,,,,,,,1,,,,,,,,,,,,,,,,,,,,,,,,,,,632.2,72,left,0.937,satellite_dish,3,10,2,1,3,632.218,632.218,634.717,0,71,71,71,1,72,3,1,satellite_dish,scarf         ,html/resources/sequences_IDs/A/10_satellite_dish.jpg,html/resources/sequences_IDs/A/06_scarf.jpg,10,6,4,2,3,2,8,5,0,55,,,,,,,,,,,,,,,,,,,,
,,,,,55,2020-07-04_16h31.11.466,retriever_ti,2020.1.3,Win32,60,Firefox,1536,864,,,,,,,,,,,,,,,,,1,,,,,,,,,,,,,,,,,,,,,,,,,,,635.334,73,right,1.77,clownfish     ,5,4,-3,0,3,635.352,635.352,637.85,0,72,72,72,1,73,8,5,giraffe     ,clownfish     ,html/resources/sequences_IDs/B/03_giraffe.jpg,html/resources/sequences_IDs/A/04_clownfish.jpg,3,4,1,1,2,1,2,3,0,55,,,,,,,,,,,,,,,,,,,,
,,,,,55,2020-07-04_16h31.11.466,retriever_ti,2020.1.3,Win32,60,Firefox,1536,864,,,,,,,,,,,,,,,,,1,,,,,,,,,,,,,,,,,,,,,,,,,,,638.45,74,right,1.092,satellite_dish,3,10,-1,0,0,638.47,638.47,640.967,0,73,73,73,1,74,4,3,redfox      ,satellite_dish,html/resources/sequences_IDs/B/01_redfox.jpg,html/resources/sequences_IDs/A/10_satellite_dish.jpg,1,10,1,1,4,2,1,8,0,55,,,,,,,,,,,,,,,,,,,,
,,,,,55,2020-07-04_16h31.11.466,retriever_ti,2020.1.3,Win32,60,Firefox,1536,864,,,,,,,,,,,,,,,,,1,,,,,,,,,,,,,,,,,,,,,,,,,,,642.068,75,left,0.737,satellite_dish,3,10,-2,0,3,642.102,642.102,644.6,0,74,74,74,1,75,3,5,satellite_dish,clownfish     ,html/resources/sequences_IDs/A/10_satellite_dish.jpg,html/resources/sequences_IDs/A/04_clownfish.jpg,10,4,4,2,2,1,8,3,0,55,,,,,,,,,,,,,,,,,,,,
,,,,,55,2020-07-04_16h31.11.466,retriever_ti,2020.1.3,Win32,60,Firefox,1536,864,,,,,,,,,,,,,,,,,1,,,,,,,,,,,,,,,,,,,,,,,,,,,645.2,76,left,0.603,parrot      ,2,5,1,1,1,645.219,645.219,647.717,0,75,75,75,1,76,2,1,parrot      ,scarf         ,html/resources/sequences_IDs/B/05_parrot.jpg,html/resources/sequences_IDs/A/06_scarf.jpg,5,6,2,1,3,2,4,5,0,55,,,,,,,,,,,,,,,,,,,,
,,,,,55,2020-07-04_16h31.11.466,retriever_ti,2020.1.3,Win32,60,Firefox,1536,864,,,,,,,,,,,,,,,,,1,,,,,,,,,,,,,,,,,,,,,,,,,,,648.817,77,left,1.045,giraffe     ,8,3,6,1,3,648.835,648.835,651.333,0,76,76,76,1,77,8,2,giraffe     ,parrot      ,html/resources/sequences_IDs/B/03_giraffe.jpg,html/resources/sequences_IDs/B/05_parrot.jpg,3,5,1,1,2,1,2,4,0,55,,,,,,,,,,,,,,,,,,,,
,,,,,55,2020-07-04_16h31.11.466,retriever_ti,2020.1.3,Win32,60,Firefox,1536,864,,,,,,,,,,,,,,,,,,,,,,,,,,,,,,,,,,,,,0,8.68,,,,,,,,,,,,,,,,,,,,,,,,,,,,,,,,,,,,,,,,,0,0,0,0,1,,,,,,,,,,,,,,,
,,,,,55,2020-07-04_16h31.11.466,retriever_ti,2020.1.3,Win32,60,Firefox,1536,864,,,,,,,,,,,,,,,,,2,,,,,,,,,,,,,,,,,,,,,,,,,,,676.007,78,left,1.327,dress         ,7,7,2,1,3,676.011,676.011,678.501,0,0,0,0,1,78,7,5,dress         ,clownfish     ,html/resources/sequences_IDs/A/07_dress.jpg,html/resources/sequences_IDs/A/04_clownfish.jpg,7,4,3,2,2,1,6,3,0,55,,,,,,,,,,,,,,,,,,,,
,,,,,55,2020-07-04_16h31.11.466,retriever_ti,2020.1.3,Win32,60,Firefox,1536,864,,,,,,,,,,,,,,,,,2,,,,,,,,,,,,,,,,,,,,,,,,,,,679.103,79,right,0.75,clownfish     ,5,4,4,1,3,679.121,679.121,681.617,0,1,1,1,1,79,1,5,scarf         ,clownfish     ,html/resources/sequences_IDs/A/06_scarf.jpg,html/resources/sequences_IDs/A/04_clownfish.jpg,6,4,3,2,2,1,5,3,0,55,,,,,,,,,,,,,,,,,,,,
,,,,,55,2020-07-04_16h31.11.466,retriever_ti,2020.1.3,Win32,60,Firefox,1536,864,,,,,,,,,,,,,,,,,2,,,,,,,,,,,,,,,,,,,,,,,,,,,682.218,80,left,0.936,phone       ,6,9,4,1,3,682.236,682.236,684.734,0,2,2,2,1,80,6,2,phone       ,parrot      ,html/resources/sequences_IDs/B/09_phone.jpg,html/resources/sequences_IDs/B/05_parrot.jpg,9,5,4,2,2,1,7,4,0,55,,,,,,,,,,,,,,,,,,,,
,,,,,55,2020-07-04_16h31.11.466,retriever_ti,2020.1.3,Win32,60,Firefox,1536,864,,,,,,,,,,,,,,,,,2,,,,,,,,,,,,,,,,,,,,,,,,,,,685.351,81,left,0.761,parrot      ,2,5,1,1,0,685.387,685.387,687.885,0,3,3,3,1,81,2,1,parrot      ,scarf         ,html/resources/sequences_IDs/B/05_parrot.jpg,html/resources/sequences_IDs/A/06_scarf.jpg,5,6,2,1,3,2,4,5,1,55,,,,,,,,,,,,,,,,,,,,
,,,,,55,2020-07-04_16h31.11.466,retriever_ti,2020.1.3,Win32,60,Firefox,1536,864,,,,,,,,,,,,,,,,,2,,,,,,,,,,,,,,,,,,,,,,,,,,,688.985,82,right,1.182,satellite_dish,3,10,-1,0,0,689.019,689.019,691.519,0,4,4,4,1,82,4,3,redfox      ,satellite_dish,html/resources/sequences_IDs/B/01_redfox.jpg,html/resources/sequences_IDs/A/10_satellite_dish.jpg,1,10,1,1,4,2,1,8,0,55,,,,,,,,,,,,,,,,,,,,
,,,,,55,2020-07-04_16h31.11.466,retriever_ti,2020.1.3,Win32,60,Firefox,1536,864,,,,,,,,,,,,,,,,,2,,,,,,,,,,,,,,,,,,,,,,,,,,,692.618,83,left,0.813,dress         ,7,7,6,1,3,692.653,692.653,695.151,0,5,5,5,1,83,7,1,dress         ,scarf         ,html/resources/sequences_IDs/A/07_dress.jpg,html/resources/sequences_IDs/A/06_scarf.jpg,7,6,3,2,3,2,6,5,0,55,,,,,,,,,,,,,,,,,,,,
,,,,,55,2020-07-04_16h31.11.466,retriever_ti,2020.1.3,Win32,60,Firefox,1536,864,,,,,,,,,,,,,,,,,2,,,,,,,,,,,,,,,,,,,,,,,,,,,695.768,84,left,1.001,satellite_dish,3,10,-2,0,3,695.788,695.788,698.284,0,6,6,6,1,84,3,5,satellite_dish,clownfish     ,html/resources/sequences_IDs/A/10_satellite_dish.jpg,html/resources/sequences_IDs/A/04_clownfish.jpg,10,4,4,2,2,1,8,3,0,55,,,,,,,,,,,,,,,,,,,,
,,,,,55,2020-07-04_16h31.11.466,retriever_ti,2020.1.3,Win32,60,Firefox,1536,864,,,,,,,,,,,,,,,,,2,,,,,,,,,,,,,,,,,,,,,,,,,,,698.885,85,left,1.62,dress         ,7,7,1,1,0,698.903,698.903,701.402,0,7,7,7,1,85,7,6,dress         ,phone       ,html/resources/sequences_IDs/A/07_dress.jpg,html/resources/sequences_IDs/B/09_phone.jpg,7,9,3,2,4,2,6,7,1,55,,,,,,,,,,,,,,,,,,,,
,,,,,55,2020-07-04_16h31.11.466,retriever_ti,2020.1.3,Win32,60,Firefox,1536,864,,,,,,,,,,,,,,,,,2,,,,,,,,,,,,,,,,,,,,,,,,,,,702.502,86,right,1.373,redfox      ,4,1,1,1,1,702.521,702.521,705.018,0,8,8,8,1,86,3,4,satellite_dish,redfox      ,html/resources/sequences_IDs/A/10_satellite_dish.jpg,html/resources/sequences_IDs/B/01_redfox.jpg,10,1,4,2,1,1,8,1,0,55,,,,,,,,,,,,,,,,,,,,
,,,,,55,2020-07-04_16h31.11.466,retriever_ti,2020.1.3,Win32,60,Firefox,1536,864,,,,,,,,,,,,,,,,,2,,,,,,,,,,,,,,,,,,,,,,,,,,,706.118,87,left,1.507,phone       ,6,9,1,1,1,706.137,706.137,708.634,0,9,9,9,1,87,6,5,phone       ,clownfish     ,html/resources/sequences_IDs/B/09_phone.jpg,html/resources/sequences_IDs/A/04_clownfish.jpg,9,4,4,2,2,1,7,3,0,55,,,,,,,,,,,,,,,,,,,,
,,,,,55,2020-07-04_16h31.11.466,retriever_ti,2020.1.3,Win32,60,Firefox,1536,864,,,,,,,,,,,,,,,,,2,,,,,,,,,,,,,,,,,,,,,,,,,,,709.735,88,left,1.916,giraffe     ,8,3,5,1,3,709.769,709.769,712.267,0,10,10,10,1,88,8,3,giraffe     ,satellite_dish,html/resources/sequences_IDs/B/03_giraffe.jpg,html/resources/sequences_IDs/A/10_satellite_dish.jpg,3,10,1,1,4,2,2,8,0,55,,,,,,,,,,,,,,,,,,,,
,,,,,55,2020-07-04_16h31.11.466,retriever_ti,2020.1.3,Win32,60,Firefox,1536,864,,,,,,,,,,,,,,,,,2,,,,,,,,,,,,,,,,,,,,,,,,,,,712.869,89,right,1.724,satellite_dish,3,10,1,1,0,712.903,712.903,715.401,0,11,11,11,1,89,2,3,parrot      ,satellite_dish,html/resources/sequences_IDs/B/05_parrot.jpg,html/resources/sequences_IDs/A/10_satellite_dish.jpg,5,10,2,1,4,2,4,8,1,55,,,,,,,,,,,,,,,,,,,,
,,,,,55,2020-07-04_16h31.11.466,retriever_ti,2020.1.3,Win32,60,Firefox,1536,864,,,,,,,,,,,,,,,,,2,,,,,,,,,,,,,,,,,,,,,,,,,,,716.502,90,NaN,NaN,No_response,NaN,NaN,NaN,2,2,716.518,716.518,719.019,0,12,12,12,1,90,5,6,clownfish     ,phone       ,html/resources/sequences_IDs/A/04_clownfish.jpg,html/resources/sequences_IDs/B/09_phone.jpg,4,9,2,1,4,2,3,7,0,55,,,,,,,,,,,,,,,,,,,,
,,,,,55,2020-07-04_16h31.11.466,retriever_ti,2020.1.3,Win32,60,Firefox,1536,864,,,,,,,,,,,,,,,,,2,,,,,,,,,,,,,,,,,,,,,,,,,,,720.119,91,NaN,NaN,No_response,NaN,NaN,NaN,2,2,720.136,720.136,722.635,0,13,13,13,1,91,6,4,phone       ,redfox      ,html/resources/sequences_IDs/B/09_phone.jpg,html/resources/sequences_IDs/B/01_redfox.jpg,9,1,4,2,1,1,7,1,0,55,,,,,,,,,,,,,,,,,,,,
,,,,,55,2020-07-04_16h31.11.466,retriever_ti,2020.1.3,Win32,60,Firefox,1536,864,,,,,,,,,,,,,,,,,2,,,,,,,,,,,,,,,,,,,,,,,,,,,723.735,92,left,1.684,giraffe     ,8,3,6,1,3,723.753,723.753,726.252,0,14,14,14,1,92,8,2,giraffe     ,parrot      ,html/resources/sequences_IDs/B/03_giraffe.jpg,html/resources/sequences_IDs/B/05_parrot.jpg,3,5,1,1,2,1,2,4,0,55,,,,,,,,,,,,,,,,,,,,
,,,,,55,2020-07-04_16h31.11.466,retriever_ti,2020.1.3,Win32,60,Firefox,1536,864,,,,,,,,,,,,,,,,,2,,,,,,,,,,,,,,,,,,,,,,,,,,,726.868,93,left,0.69,phone       ,6,9,-1,0,0,726.887,726.887,729.385,0,15,15,15,1,93,6,7,phone       ,dress         ,html/resources/sequences_IDs/B/09_phone.jpg,html/resources/sequences_IDs/A/07_dress.jpg,9,7,4,2,3,2,7,6,0,55,,,,,,,,,,,,,,,,,,,,
,,,,,55,2020-07-04_16h31.11.466,retriever_ti,2020.1.3,Win32,60,Firefox,1536,864,,,,,,,,,,,,,,,,,2,,,,,,,,,,,,,,,,,,,,,,,,,,,730.485,94,right,0.612,phone       ,6,9,5,1,3,730.52,730.52,733.018,0,16,16,16,1,94,1,6,scarf         ,phone       ,html/resources/sequences_IDs/A/06_scarf.jpg,html/resources/sequences_IDs/B/09_phone.jpg,6,9,3,2,4,2,5,7,0,55,,,,,,,,,,,,,,,,,,,,
,,,,,55,2020-07-04_16h31.11.466,retriever_ti,2020.1.3,Win32,60,Firefox,1536,864,,,,,,,,,,,,,,,,,2,,,,,,,,,,,,,,,,,,,,,,,,,,,733.636,95,left,0.924,satellite_dish,3,10,-1,0,0,733.653,733.653,736.151,0,17,17,17,1,95,3,4,satellite_dish,redfox      ,html/resources/sequences_IDs/A/10_satellite_dish.jpg,html/resources/sequences_IDs/B/01_redfox.jpg,10,1,4,2,1,1,8,1,0,55,,,,,,,,,,,,,,,,,,,,
,,,,,55,2020-07-04_16h31.11.466,retriever_ti,2020.1.3,Win32,60,Firefox,1536,864,,,,,,,,,,,,,,,,,2,,,,,,,,,,,,,,,,,,,,,,,,,,,737.252,96,right,1.496,phone       ,6,9,1,1,0,737.287,737.287,739.785,0,18,18,18,1,96,5,6,clownfish     ,phone       ,html/resources/sequences_IDs/A/04_clownfish.jpg,html/resources/sequences_IDs/B/09_phone.jpg,4,9,2,1,4,2,3,7,1,55,,,,,,,,,,,,,,,,,,,,
,,,,,55,2020-07-04_16h31.11.466,retriever_ti,2020.1.3,Win32,60,Firefox,1536,864,,,,,,,,,,,,,,,,,2,,,,,,,,,,,,,,,,,,,,,,,,,,,740.886,97,left,0.876,giraffe     ,8,3,1,1,1,740.902,740.902,743.402,0,19,19,19,1,97,8,7,giraffe     ,dress         ,html/resources/sequences_IDs/B/03_giraffe.jpg,html/resources/sequences_IDs/A/07_dress.jpg,3,7,1,1,3,2,2,6,0,55,,,,,,,,,,,,,,,,,,,,
,,,,,55,2020-07-04_16h31.11.466,retriever_ti,2020.1.3,Win32,60,Firefox,1536,864,,,,,,,,,,,,,,,,,2,,,,,,,,,,,,,,,,,,,,,,,,,,,744.502,98,right,1.106,clownfish     ,5,4,3,1,3,744.537,744.537,747.036,0,20,20,20,1,98,2,5,parrot      ,clownfish     ,html/resources/sequences_IDs/B/05_parrot.jpg,html/resources/sequences_IDs/A/04_clownfish.jpg,5,4,2,1,2,1,4,3,0,55,,,,,,,,,,,,,,,,,,,,
,,,,,55,2020-07-04_16h31.11.466,retriever_ti,2020.1.3,Win32,60,Firefox,1536,864,,,,,,,,,,,,,,,,,2,,,,,,,,,,,,,,,,,,,,,,,,,,,747.652,99,right,1.022,redfox      ,4,1,-4,0,3,747.687,747.687,750.185,0,21,21,21,1,99,8,4,giraffe     ,redfox      ,html/resources/sequences_IDs/B/03_giraffe.jpg,html/resources/sequences_IDs/B/01_redfox.jpg,3,1,1,1,1,1,2,1,0,55,,,,,,,,,,,,,,,,,,,,
,,,,,55,2020-07-04_16h31.11.466,retriever_ti,2020.1.3,Win32,60,Firefox,1536,864,,,,,,,,,,,,,,,,,2,,,,,,,,,,,,,,,,,,,,,,,,,,,750.786,100,left,1.145,parrot      ,2,5,-6,0,3,750.82,750.82,753.319,0,22,22,22,1,100,2,8,parrot      ,giraffe     ,html/resources/sequences_IDs/B/05_parrot.jpg,html/resources/sequences_IDs/B/03_giraffe.jpg,5,3,2,1,1,1,4,2,0,55,,,,,,,,,,,,,,,,,,,,
,,,,,55,2020-07-04_16h31.11.466,retriever_ti,2020.1.3,Win32,60,Firefox,1536,864,,,,,,,,,,,,,,,,,2,,,,,,,,,,,,,,,,,,,,,,,,,,,753.936,101,right,1.103,satellite_dish,3,10,2,1,3,753.972,753.972,756.468,0,23,23,23,1,101,1,3,scarf         ,satellite_dish,html/resources/sequences_IDs/A/06_scarf.jpg,html/resources/sequences_IDs/A/10_satellite_dish.jpg,6,10,3,2,4,2,5,8,0,55,,,,,,,,,,,,,,,,,,,,
,,,,,55,2020-07-04_16h31.11.466,retriever_ti,2020.1.3,Win32,60,Firefox,1536,864,,,,,,,,,,,,,,,,,2,,,,,,,,,,,,,,,,,,,,,,,,,,,757.069,102,left,2.101,satellite_dish,3,10,2,1,3,757.087,757.087,759.585,0,24,24,24,1,102,3,1,satellite_dish,scarf         ,html/resources/sequences_IDs/A/10_satellite_dish.jpg,html/resources/sequences_IDs/A/06_scarf.jpg,10,6,4,2,3,2,8,5,0,55,,,,,,,,,,,,,,,,,,,,
,,,,,55,2020-07-04_16h31.11.466,retriever_ti,2020.1.3,Win32,60,Firefox,1536,864,,,,,,,,,,,,,,,,,2,,,,,,,,,,,,,,,,,,,,,,,,,,,760.202,103,right,1.305,dress         ,7,7,-1,0,1,760.219,760.219,762.718,0,25,25,25,1,103,8,7,giraffe     ,dress         ,html/resources/sequences_IDs/B/03_giraffe.jpg,html/resources/sequences_IDs/A/07_dress.jpg,3,7,1,1,3,2,2,6,1,55,,,,,,,,,,,,,,,,,,,,
,,,,,55,2020-07-04_16h31.11.466,retriever_ti,2020.1.3,Win32,60,Firefox,1536,864,,,,,,,,,,,,,,,,,2,,,,,,,,,,,,,,,,,,,,,,,,,,,763.819,104,left,1.61,clownfish     ,5,4,4,1,3,763.836,763.836,766.335,0,26,26,26,1,104,5,1,clownfish     ,scarf         ,html/resources/sequences_IDs/A/04_clownfish.jpg,html/resources/sequences_IDs/A/06_scarf.jpg,4,6,2,1,3,2,3,5,0,55,,,,,,,,,,,,,,,,,,,,
,,,,,55,2020-07-04_16h31.11.466,retriever_ti,2020.1.3,Win32,60,Firefox,1536,864,,,,,,,,,,,,,,,,,2,,,,,,,,,,,,,,,,,,,,,,,,,,,766.953,105,right,1.526,dress         ,7,7,2,1,3,766.987,766.987,769.485,0,27,27,27,1,105,5,7,clownfish     ,dress         ,html/resources/sequences_IDs/A/04_clownfish.jpg,html/resources/sequences_IDs/A/07_dress.jpg,4,7,2,1,3,2,3,6,0,55,,,,,,,,,,,,,,,,,,,,
,,,,,55,2020-07-04_16h31.11.466,retriever_ti,2020.1.3,Win32,60,Firefox,1536,864,,,,,,,,,,,,,,,,,2,,,,,,,,,,,,,,,,,,,,,,,,,,,770.086,106,right,0.951,redfox      ,4,1,-1,0,0,770.121,770.121,772.618,0,28,28,28,1,106,5,4,clownfish     ,redfox      ,html/resources/sequences_IDs/A/04_clownfish.jpg,html/resources/sequences_IDs/B/01_redfox.jpg,4,1,2,1,1,1,3,1,0,55,,,,,,,,,,,,,,,,,,,,
,,,,,55,2020-07-04_16h31.11.466,retriever_ti,2020.1.3,Win32,60,Firefox,1536,864,,,,,,,,,,,,,,,,,2,,,,,,,,,,,,,,,,,,,,,,,,,,,773.719,107,right,1.202,clownfish     ,5,4,1,1,1,773.752,773.752,776.252,0,29,29,29,1,107,4,5,redfox      ,clownfish     ,html/resources/sequences_IDs/B/01_redfox.jpg,html/resources/sequences_IDs/A/04_clownfish.jpg,1,4,1,1,2,1,1,3,0,55,,,,,,,,,,,,,,,,,,,,
,,,,,55,2020-07-04_16h31.11.466,retriever_ti,2020.1.3,Win32,60,Firefox,1536,864,,,,,,,,,,,,,,,,,2,,,,,,,,,,,,,,,,,,,,,,,,,,,777.352,108,left,0.921,redfox      ,4,1,1,1,0,777.371,777.371,779.868,0,30,30,30,1,108,4,3,redfox      ,satellite_dish,html/resources/sequences_IDs/B/01_redfox.jpg,html/resources/sequences_IDs/A/10_satellite_dish.jpg,1,10,1,1,4,2,1,8,1,55,,,,,,,,,,,,,,,,,,,,
,,,,,55,2020-07-04_16h31.11.466,retriever_ti,2020.1.3,Win32,60,Firefox,1536,864,,,,,,,,,,,,,,,,,2,,,,,,,,,,,,,,,,,,,,,,,,,,,780.969,109,left,2.017,satellite_dish,3,10,1,1,1,780.988,780.988,783.486,0,31,31,31,1,109,3,2,satellite_dish,parrot      ,html/resources/sequences_IDs/A/10_satellite_dish.jpg,html/resources/sequences_IDs/B/05_parrot.jpg,10,5,4,2,2,1,8,4,0,55,,,,,,,,,,,,,,,,,,,,
,,,,,55,2020-07-04_16h31.11.466,retriever_ti,2020.1.3,Win32,60,Firefox,1536,864,,,,,,,,,,,,,,,,,2,,,,,,,,,,,,,,,,,,,,,,,,,,,784.586,110,left,1.365,dress         ,7,7,5,1,3,784.604,784.604,787.103,0,32,32,32,1,110,7,2,dress         ,parrot      ,html/resources/sequences_IDs/A/07_dress.jpg,html/resources/sequences_IDs/B/05_parrot.jpg,7,5,3,2,2,1,6,4,0,55,,,,,,,,,,,,,,,,,,,,
,,,,,55,2020-07-04_16h31.11.466,retriever_ti,2020.1.3,Win32,60,Firefox,1536,864,,,,,,,,,,,,,,,,,2,,,,,,,,,,,,,,,,,,,,,,,,,,,787.72,111,right,1.279,giraffe     ,8,3,1,1,1,787.754,787.754,790.252,0,33,33,33,1,111,7,8,dress         ,giraffe     ,html/resources/sequences_IDs/A/07_dress.jpg,html/resources/sequences_IDs/B/03_giraffe.jpg,7,3,3,2,1,1,6,2,0,55,,,,,,,,,,,,,,,,,,,,
,,,,,55,2020-07-04_16h31.11.466,retriever_ti,2020.1.3,Win32,60,Firefox,1536,864,,,,,,,,,,,,,,,,,2,,,,,,,,,,,,,,,,,,,,,,,,,,,791.355,112,left,0.71,giraffe     ,8,3,7,1,3,791.388,791.388,793.885,0,34,34,34,1,112,8,1,giraffe     ,scarf         ,html/resources/sequences_IDs/B/03_giraffe.jpg,html/resources/sequences_IDs/A/06_scarf.jpg,3,6,1,1,3,2,2,5,0,55,,,,,,,,,,,,,,,,,,,,
,,,,,55,2020-07-04_16h31.11.466,retriever_ti,2020.1.3,Win32,60,Firefox,1536,864,,,,,,,,,,,,,,,,,2,,,,,,,,,,,,,,,,,,,,,,,,,,,794.487,113,left,1.281,redfox      ,4,1,-1,0,1,794.521,794.521,797.019,0,35,35,35,1,113,4,5,redfox      ,clownfish     ,html/resources/sequences_IDs/B/01_redfox.jpg,html/resources/sequences_IDs/A/04_clownfish.jpg,1,4,1,1,2,1,1,3,1,55,,,,,,,,,,,,,,,,,,,,
,,,,,55,2020-07-04_16h31.11.466,retriever_ti,2020.1.3,Win32,60,Firefox,1536,864,,,,,,,,,,,,,,,,,2,,,,,,,,,,,,,,,,,,,,,,,,,,,798.12,114,right,1.063,dress         ,7,7,5,1,3,798.138,798.138,800.636,0,36,36,36,1,114,2,7,parrot      ,dress         ,html/resources/sequences_IDs/B/05_parrot.jpg,html/resources/sequences_IDs/A/07_dress.jpg,5,7,2,1,3,2,4,6,0,55,,,,,,,,,,,,,,,,,,,,
,,,,,55,2020-07-04_16h31.11.466,retriever_ti,2020.1.3,Win32,60,Firefox,1536,864,,,,,,,,,,,,,,,,,2,,,,,,,,,,,,,,,,,,,,,,,,,,,801.253,115,left,0.975,redfox      ,4,1,1,1,1,801.271,801.271,803.769,0,37,37,37,1,115,4,3,redfox      ,satellite_dish,html/resources/sequences_IDs/B/01_redfox.jpg,html/resources/sequences_IDs/A/10_satellite_dish.jpg,1,10,1,1,4,2,1,8,0,55,,,,,,,,,,,,,,,,,,,,
,,,,,55,2020-07-04_16h31.11.466,retriever_ti,2020.1.3,Win32,60,Firefox,1536,864,,,,,,,,,,,,,,,,,2,,,,,,,,,,,,,,,,,,,,,,,,,,,804.87,116,right,0.976,dress         ,7,7,-1,0,0,804.889,804.889,807.385,0,38,38,38,1,116,8,7,giraffe     ,dress         ,html/resources/sequences_IDs/B/03_giraffe.jpg,html/resources/sequences_IDs/A/07_dress.jpg,3,7,1,1,3,2,2,6,0,55,,,,,,,,,,,,,,,,,,,,
,,,,,55,2020-07-04_16h31.11.466,retriever_ti,2020.1.3,Win32,60,Firefox,1536,864,,,,,,,,,,,,,,,,,2,,,,,,,,,,,,,,,,,,,,,,,,,,,808.486,117,left,1.05,clownfish     ,5,4,3,1,3,808.521,808.521,811.019,0,39,39,39,1,117,5,2,clownfish     ,parrot      ,html/resources/sequences_IDs/A/04_clownfish.jpg,html/resources/sequences_IDs/B/05_parrot.jpg,4,5,2,1,2,1,3,4,0,55,,,,,,,,,,,,,,,,,,,,
,,,,,55,2020-07-04_16h31.11.466,retriever_ti,2020.1.3,Win32,60,Firefox,1536,864,,,,,,,,,,,,,,,,,2,,,,,,,,,,,,,,,,,,,,,,,,,,,811.62,118,left,1.146,giraffe     ,8,3,2,1,3,811.654,811.654,814.153,0,40,40,40,1,118,8,6,giraffe     ,phone       ,html/resources/sequences_IDs/B/03_giraffe.jpg,html/resources/sequences_IDs/B/09_phone.jpg,3,9,1,1,4,2,2,7,0,55,,,,,,,,,,,,,,,,,,,,
,,,,,55,2020-07-04_16h31.11.466,retriever_ti,2020.1.3,Win32,60,Firefox,1536,864,,,,,,,,,,,,,,,,,2,,,,,,,,,,,,,,,,,,,,,,,,,,,814.77,119,right,0.751,parrot      ,2,5,1,1,1,814.804,814.804,817.303,0,41,41,41,1,119,1,2,scarf         ,parrot      ,html/resources/sequences_IDs/A/06_scarf.jpg,html/resources/sequences_IDs/B/05_parrot.jpg,6,5,3,2,2,1,5,4,0,55,,,,,,,,,,,,,,,,,,,,
,,,,,55,2020-07-04_16h31.11.466,retriever_ti,2020.1.3,Win32,60,Firefox,1536,864,,,,,,,,,,,,,,,,,2,,,,,,,,,,,,,,,,,,,,,,,,,,,818.404,120,right,0.935,redfox      ,4,1,-1,0,0,818.438,818.438,820.936,0,42,42,42,1,120,5,4,clownfish     ,redfox      ,html/resources/sequences_IDs/A/04_clownfish.jpg,html/resources/sequences_IDs/B/01_redfox.jpg,4,1,2,1,1,1,3,1,0,55,,,,,,,,,,,,,,,,,,,,
,,,,,55,2020-07-04_16h31.11.466,retriever_ti,2020.1.3,Win32,60,Firefox,1536,864,,,,,,,,,,,,,,,,,2,,,,,,,,,,,,,,,,,,,,,,,,,,,822.037,121,left,2.047,satellite_dish,3,10,-4,0,3,822.071,822.071,824.569,0,43,43,43,1,121,3,7,satellite_dish,dress         ,html/resources/sequences_IDs/A/10_satellite_dish.jpg,html/resources/sequences_IDs/A/07_dress.jpg,10,7,4,2,3,2,8,6,0,55,,,,,,,,,,,,,,,,,,,,
,,,,,55,2020-07-04_16h31.11.466,retriever_ti,2020.1.3,Win32,60,Firefox,1536,864,,,,,,,,,,,,,,,,,2,,,,,,,,,,,,,,,,,,,,,,,,,,,825.169,122,left,1.241,redfox      ,4,1,-2,0,3,825.203,825.203,827.703,0,44,44,44,1,122,4,6,redfox      ,phone       ,html/resources/sequences_IDs/B/01_redfox.jpg,html/resources/sequences_IDs/B/09_phone.jpg,1,9,1,1,4,2,1,7,0,55,,,,,,,,,,,,,,,,,,,,
,,,,,55,2020-07-04_16h31.11.466,retriever_ti,2020.1.3,Win32,60,Firefox,1536,864,,,,,,,,,,,,,,,,,2,,,,,,,,,,,,,,,,,,,,,,,,,,,828.32,123,left,1.328,parrot      ,2,5,-1,0,0,828.354,828.354,830.852,0,45,45,45,1,123,2,3,parrot      ,satellite_dish,html/resources/sequences_IDs/B/05_parrot.jpg,html/resources/sequences_IDs/A/10_satellite_dish.jpg,5,10,2,1,4,2,4,8,0,55,,,,,,,,,,,,,,,,,,,,
,,,,,55,2020-07-04_16h31.11.466,retriever_ti,2020.1.3,Win32,60,Firefox,1536,864,,,,,,,,,,,,,,,,,2,,,,,,,,,,,,,,,,,,,,,,,,,,,831.953,124,right,0.847,redfox      ,4,1,-3,0,3,831.97,831.97,834.469,0,46,46,46,1,124,7,4,dress         ,redfox      ,html/resources/sequences_IDs/A/07_dress.jpg,html/resources/sequences_IDs/B/01_redfox.jpg,7,1,3,2,1,1,6,1,0,55,,,,,,,,,,,,,,,,,,,,
,,,,,55,2020-07-04_16h31.11.466,retriever_ti,2020.1.3,Win32,60,Firefox,1536,864,,,,,,,,,,,,,,,,,2,,,,,,,,,,,,,,,,,,,,,,,,,,,835.087,125,right,1.259,parrot      ,2,5,-1,0,0,835.105,835.105,837.603,0,47,47,47,1,125,3,2,satellite_dish,parrot      ,html/resources/sequences_IDs/A/10_satellite_dish.jpg,html/resources/sequences_IDs/B/05_parrot.jpg,10,5,4,2,2,1,8,4,0,55,,,,,,,,,,,,,,,,,,,,
,,,,,55,2020-07-04_16h31.11.466,retriever_ti,2020.1.3,Win32,60,Firefox,1536,864,,,,,,,,,,,,,,,,,2,,,,,,,,,,,,,,,,,,,,,,,,,,,838.703,126,right,1.361,dress         ,7,7,6,1,3,838.72,838.72,841.219,0,48,48,48,1,126,1,7,scarf         ,dress         ,html/resources/sequences_IDs/A/06_scarf.jpg,html/resources/sequences_IDs/A/07_dress.jpg,6,7,3,2,3,2,5,6,0,55,,,,,,,,,,,,,,,,,,,,
,,,,,55,2020-07-04_16h31.11.466,retriever_ti,2020.1.3,Win32,60,Firefox,1536,864,,,,,,,,,,,,,,,,,2,,,,,,,,,,,,,,,,,,,,,,,,,,,841.837,127,right,1.133,giraffe     ,8,3,2,1,3,841.873,841.873,844.37,0,49,49,49,1,127,6,8,phone       ,giraffe     ,html/resources/sequences_IDs/B/09_phone.jpg,html/resources/sequences_IDs/B/03_giraffe.jpg,9,3,4,2,1,1,7,2,0,55,,,,,,,,,,,,,,,,,,,,
,,,,,55,2020-07-04_16h31.11.466,retriever_ti,2020.1.3,Win32,60,Firefox,1536,864,,,,,,,,,,,,,,,,,2,,,,,,,,,,,,,,,,,,,,,,,,,,,844.97,128,left,1.26,dress         ,7,7,4,1,3,844.988,844.988,847.487,0,50,50,50,1,128,7,3,dress         ,satellite_dish,html/resources/sequences_IDs/A/07_dress.jpg,html/resources/sequences_IDs/A/10_satellite_dish.jpg,7,10,3,2,4,2,6,8,0,55,,,,,,,,,,,,,,,,,,,,
,,,,,55,2020-07-04_16h31.11.466,retriever_ti,2020.1.3,Win32,60,Firefox,1536,864,,,,,,,,,,,,,,,,,2,,,,,,,,,,,,,,,,,,,,,,,,,,,848.104,129,right,1.167,clownfish     ,5,4,-1,0,0,848.124,848.124,850.619,0,51,51,51,1,129,6,5,phone       ,clownfish     ,html/resources/sequences_IDs/B/09_phone.jpg,html/resources/sequences_IDs/A/04_clownfish.jpg,9,4,4,2,2,1,7,3,0,55,,,,,,,,,,,,,,,,,,,,
,,,,,55,2020-07-04_16h31.11.466,retriever_ti,2020.1.3,Win32,60,Firefox,1536,864,,,,,,,,,,,,,,,,,2,,,,,,,,,,,,,,,,,,,,,,,,,,,851.721,130,right,2.159,satellite_dish,3,10,-3,0,3,851.753,851.753,854.253,0,52,52,52,1,130,6,3,phone       ,satellite_dish,html/resources/sequences_IDs/B/09_phone.jpg,html/resources/sequences_IDs/A/10_satellite_dish.jpg,9,10,4,2,4,2,7,8,0,55,,,,,,,,,,,,,,,,,,,,
,,,,,55,2020-07-04_16h31.11.466,retriever_ti,2020.1.3,Win32,60,Firefox,1536,864,,,,,,,,,,,,,,,,,2,,,,,,,,,,,,,,,,,,,,,,,,,,,854.87,131,left,1.106,clownfish     ,5,4,-1,0,0,854.905,854.905,857.403,0,53,53,53,1,131,5,6,clownfish     ,phone       ,html/resources/sequences_IDs/A/04_clownfish.jpg,html/resources/sequences_IDs/B/09_phone.jpg,4,9,2,1,4,2,3,7,0,55,,,,,,,,,,,,,,,,,,,,
,,,,,55,2020-07-04_16h31.11.466,retriever_ti,2020.1.3,Win32,60,Firefox,1536,864,,,,,,,,,,,,,,,,,2,,,,,,,,,,,,,,,,,,,,,,,,,,,858.504,132,right,1.591,giraffe     ,8,3,7,1,3,858.54,858.54,861.037,0,54,54,54,1,132,1,8,scarf         ,giraffe     ,html/resources/sequences_IDs/A/06_scarf.jpg,html/resources/sequences_IDs/B/03_giraffe.jpg,6,3,3,2,1,1,5,2,0,55,,,,,,,,,,,,,,,,,,,,
,,,,,55,2020-07-04_16h31.11.466,retriever_ti,2020.1.3,Win32,60,Firefox,1536,864,,,,,,,,,,,,,,,,,2,,,,,,,,,,,,,,,,,,,,,,,,,,,861.654,133,left,1.209,satellite_dish,3,10,-5,0,3,861.688,861.688,864.187,0,55,55,55,1,133,3,8,satellite_dish,giraffe     ,html/resources/sequences_IDs/A/10_satellite_dish.jpg,html/resources/sequences_IDs/B/03_giraffe.jpg,10,3,4,2,1,1,8,2,0,55,,,,,,,,,,,,,,,,,,,,
,,,,,55,2020-07-04_16h31.11.466,retriever_ti,2020.1.3,Win32,60,Firefox,1536,864,,,,,,,,,,,,,,,,,2,,,,,,,,,,,,,,,,,,,,,,,,,,,864.804,134,right,0.776,parrot      ,2,5,1,1,1,864.838,864.838,867.336,0,56,56,56,1,134,1,2,scarf         ,parrot      ,html/resources/sequences_IDs/A/06_scarf.jpg,html/resources/sequences_IDs/B/05_parrot.jpg,6,5,3,2,2,1,5,4,0,55,,,,,,,,,,,,,,,,,,,,
,,,,,55,2020-07-04_16h31.11.466,retriever_ti,2020.1.3,Win32,60,Firefox,1536,864,,,,,,,,,,,,,,,,,2,,,,,,,,,,,,,,,,,,,,,,,,,,,868.437,135,right,0.786,redfox      ,4,1,3,1,3,868.47,868.47,870.97,0,57,57,57,1,135,1,4,scarf         ,redfox      ,html/resources/sequences_IDs/A/06_scarf.jpg,html/resources/sequences_IDs/B/01_redfox.jpg,6,1,3,2,1,1,5,1,0,55,,,,,,,,,,,,,,,,,,,,
,,,,,55,2020-07-04_16h31.11.466,retriever_ti,2020.1.3,Win32,60,Firefox,1536,864,,,,,,,,,,,,,,,,,2,,,,,,,,,,,,,,,,,,,,,,,,,,,871.588,136,right,1.243,clownfish     ,5,4,1,1,1,871.622,871.622,874.12,0,58,58,58,1,136,4,5,redfox      ,clownfish     ,html/resources/sequences_IDs/B/01_redfox.jpg,html/resources/sequences_IDs/A/04_clownfish.jpg,1,4,1,1,2,1,1,3,0,55,,,,,,,,,,,,,,,,,,,,
,,,,,55,2020-07-04_16h31.11.466,retriever_ti,2020.1.3,Win32,60,Firefox,1536,864,,,,,,,,,,,,,,,,,2,,,,,,,,,,,,,,,,,,,,,,,,,,,875.22,137,right,1.057,redfox      ,4,1,2,1,3,875.24,875.24,877.737,0,59,59,59,1,137,2,4,parrot      ,redfox      ,html/resources/sequences_IDs/B/05_parrot.jpg,html/resources/sequences_IDs/B/01_redfox.jpg,5,1,2,1,1,1,4,1,0,55,,,,,,,,,,,,,,,,,,,,
,,,,,55,2020-07-04_16h31.11.466,retriever_ti,2020.1.3,Win32,60,Firefox,1536,864,,,,,,,,,,,,,,,,,2,,,,,,,,,,,,,,,,,,,,,,,,,,,878.337,138,right,1.041,phone       ,6,9,3,1,3,878.355,878.355,880.853,0,60,60,60,1,138,3,6,satellite_dish,phone       ,html/resources/sequences_IDs/A/10_satellite_dish.jpg,html/resources/sequences_IDs/B/09_phone.jpg,10,9,4,2,4,2,8,7,0,55,,,,,,,,,,,,,,,,,,,,
,,,,,55,2020-07-04_16h31.11.466,retriever_ti,2020.1.3,Win32,60,Firefox,1536,864,,,,,,,,,,,,,,,,,2,,,,,,,,,,,,,,,,,,,,,,,,,,,881.454,139,left,0.899,phone       ,6,9,5,1,3,881.472,881.472,883.97,0,61,61,61,1,139,6,1,phone       ,scarf         ,html/resources/sequences_IDs/B/09_phone.jpg,html/resources/sequences_IDs/A/06_scarf.jpg,9,6,4,2,3,2,7,5,0,55,,,,,,,,,,,,,,,,,,,,
,,,,,55,2020-07-04_16h31.11.466,retriever_ti,2020.1.3,Win32,60,Firefox,1536,864,,,,,,,,,,,,,,,,,2,,,,,,,,,,,,,,,,,,,,,,,,,,,884.571,140,left,0.995,parrot      ,2,5,1,1,1,884.604,884.604,887.103,0,62,62,62,1,140,2,1,parrot      ,scarf         ,html/resources/sequences_IDs/B/05_parrot.jpg,html/resources/sequences_IDs/A/06_scarf.jpg,5,6,2,1,3,2,4,5,0,55,,,,,,,,,,,,,,,,,,,,
,,,,,55,2020-07-04_16h31.11.466,retriever_ti,2020.1.3,Win32,60,Firefox,1536,864,,,,,,,,,,,,,,,,,2,,,,,,,,,,,,,,,,,,,,,,,,,,,888.205,141,left,0.833,parrot      ,2,5,1,1,1,888.222,888.222,890.72,0,63,63,63,1,141,2,1,parrot      ,scarf         ,html/resources/sequences_IDs/B/05_parrot.jpg,html/resources/sequences_IDs/A/06_scarf.jpg,5,6,2,1,3,2,4,5,0,55,,,,,,,,,,,,,,,,,,,,
,,,,,55,2020-07-04_16h31.11.466,retriever_ti,2020.1.3,Win32,60,Firefox,1536,864,,,,,,,,,,,,,,,,,2,,,,,,,,,,,,,,,,,,,,,,,,,,,891.821,142,left,1.431,parrot      ,2,5,-4,0,3,891.839,891.839,894.337,0,64,64,64,1,142,2,6,parrot      ,phone       ,html/resources/sequences_IDs/B/05_parrot.jpg,html/resources/sequences_IDs/B/09_phone.jpg,5,9,2,1,4,2,4,7,0,55,,,,,,,,,,,,,,,,,,,,
,,,,,55,2020-07-04_16h31.11.466,retriever_ti,2020.1.3,Win32,60,Firefox,1536,864,,,,,,,,,,,,,,,,,2,,,,,,,,,,,,,,,,,,,,,,,,,,,894.938,143,left,1.246,clownfish     ,5,4,2,1,3,894.955,894.955,897.454,0,65,65,65,1,143,5,3,clownfish     ,satellite_dish,html/resources/sequences_IDs/A/04_clownfish.jpg,html/resources/sequences_IDs/A/10_satellite_dish.jpg,4,10,2,1,4,2,3,8,0,55,,,,,,,,,,,,,,,,,,,,
,,,,,55,2020-07-04_16h31.11.466,retriever_ti,2020.1.3,Win32,60,Firefox,1536,864,,,,,,,,,,,,,,,,,2,,,,,,,,,,,,,,,,,,,,,,,,,,,898.071,144,left,0.896,parrot      ,2,5,-1,0,0,898.105,898.105,900.603,0,66,66,66,1,144,2,3,parrot      ,satellite_dish,html/resources/sequences_IDs/B/05_parrot.jpg,html/resources/sequences_IDs/A/10_satellite_dish.jpg,5,10,2,1,4,2,4,8,0,55,,,,,,,,,,,,,,,,,,,,
,,,,,55,2020-07-04_16h31.11.466,retriever_ti,2020.1.3,Win32,60,Firefox,1536,864,,,,,,,,,,,,,,,,,2,,,,,,,,,,,,,,,,,,,,,,,,,,,901.705,145,left,0.851,dress         ,7,7,1,1,1,901.739,901.739,904.237,0,67,67,67,1,145,7,6,dress         ,phone       ,html/resources/sequences_IDs/A/07_dress.jpg,html/resources/sequences_IDs/B/09_phone.jpg,7,9,3,2,4,2,6,7,0,55,,,,,,,,,,,,,,,,,,,,
,,,,,55,2020-07-04_16h31.11.466,retriever_ti,2020.1.3,Win32,60,Firefox,1536,864,,,,,,,,,,,,,,,,,2,,,,,,,,,,,,,,,,,,,,,,,,,,,905.337,146,left,0.908,redfox      ,4,1,2,1,3,905.356,905.356,907.854,0,68,68,68,1,146,4,2,redfox      ,parrot      ,html/resources/sequences_IDs/B/01_redfox.jpg,html/resources/sequences_IDs/B/05_parrot.jpg,1,5,1,1,2,1,1,4,0,55,,,,,,,,,,,,,,,,,,,,
,,,,,55,2020-07-04_16h31.11.466,retriever_ti,2020.1.3,Win32,60,Firefox,1536,864,,,,,,,,,,,,,,,,,2,,,,,,,,,,,,,,,,,,,,,,,,,,,908.471,147,left,0.713,redfox      ,4,1,3,1,3,908.489,908.489,910.987,0,69,69,69,1,147,4,1,redfox      ,scarf         ,html/resources/sequences_IDs/B/01_redfox.jpg,html/resources/sequences_IDs/A/06_scarf.jpg,1,6,1,1,3,2,1,5,0,55,,,,,,,,,,,,,,,,,,,,
,,,,,55,2020-07-04_16h31.11.466,retriever_ti,2020.1.3,Win32,60,Firefox,1536,864,,,,,,,,,,,,,,,,,2,,,,,,,,,,,,,,,,,,,,,,,,,,,911.604,148,left,0.913,clownfish     ,5,4,-3,0,3,911.623,911.623,914.121,0,70,70,70,1,148,5,8,clownfish     ,giraffe     ,html/resources/sequences_IDs/A/04_clownfish.jpg,html/resources/sequences_IDs/B/03_giraffe.jpg,4,3,2,1,1,1,3,2,0,55,,,,,,,,,,,,,,,,,,,,
,,,,,55,2020-07-04_16h31.11.466,retriever_ti,2020.1.3,Win32,60,Firefox,1536,864,,,,,,,,,,,,,,,,,2,,,,,,,,,,,,,,,,,,,,,,,,,,,914.737,149,right,1.129,dress         ,7,7,1,1,1,914.756,914.756,917.254,0,71,71,71,1,149,6,7,phone       ,dress         ,html/resources/sequences_IDs/B/09_phone.jpg,html/resources/sequences_IDs/A/07_dress.jpg,9,7,4,2,3,2,7,6,0,55,,,,,,,,,,,,,,,,,,,,
,,,,,55,2020-07-04_16h31.11.466,retriever_ti,2020.1.3,Win32,60,Firefox,1536,864,,,,,,,,,,,,,,,,,2,,,,,,,,,,,,,,,,,,,,,,,,,,,918.355,150,left,1.044,redfox      ,4,1,-3,0,3,918.372,918.372,920.87,0,72,72,72,1,150,4,7,redfox      ,dress         ,html/resources/sequences_IDs/B/01_redfox.jpg,html/resources/sequences_IDs/A/07_dress.jpg,1,7,1,1,3,2,1,6,0,55,,,,,,,,,,,,,,,,,,,,
,,,,,55,2020-07-04_16h31.11.466,retriever_ti,2020.1.3,Win32,60,Firefox,1536,864,,,,,,,,,,,,,,,,,2,,,,,,,,,,,,,,,,,,,,,,,,,,,921.471,151,left,1.282,dress         ,7,7,1,1,1,921.506,921.506,924.004,0,73,73,73,1,151,7,6,dress         ,phone       ,html/resources/sequences_IDs/A/07_dress.jpg,html/resources/sequences_IDs/B/09_phone.jpg,7,9,3,2,4,2,6,7,0,55,,,,,,,,,,,,,,,,,,,,
,,,,,55,2020-07-04_16h31.11.466,retriever_ti,2020.1.3,Win32,60,Firefox,1536,864,,,,,,,,,,,,,,,,,2,,,,,,,,,,,,,,,,,,,,,,,,,,,925.105,152,left,1.111,dress         ,7,7,-1,0,0,925.138,925.138,927.638,0,74,74,74,1,152,7,8,dress         ,giraffe     ,html/resources/sequences_IDs/A/07_dress.jpg,html/resources/sequences_IDs/B/03_giraffe.jpg,7,3,3,2,1,1,6,2,0,55,,,,,,,,,,,,,,,,,,,,
,,,,,55,2020-07-04_16h31.11.466,retriever_ti,2020.1.3,Win32,60,Firefox,1536,864,,,,,,,,,,,,,,,,,2,,,,,,,,,,,,,,,,,,,,,,,,,,,928.738,153,left,1.286,redfox      ,4,1,-4,0,3,928.774,928.774,931.271,0,75,75,75,1,153,4,8,redfox      ,giraffe     ,html/resources/sequences_IDs/B/01_redfox.jpg,html/resources/sequences_IDs/B/03_giraffe.jpg,1,3,1,1,1,1,1,2,0,55,,,,,,,,,,,,,,,,,,,,
,,,,,55,2020-07-04_16h31.11.466,retriever_ti,2020.1.3,Win32,60,Firefox,1536,864,,,,,,,,,,,,,,,,,2,,,,,,,,,,,,,,,,,,,,,,,,,,,931.872,154,right,1.24,clownfish     ,5,4,-3,0,3,931.906,931.906,934.404,0,76,76,76,1,154,8,5,giraffe     ,clownfish     ,html/resources/sequences_IDs/B/03_giraffe.jpg,html/resources/sequences_IDs/A/04_clownfish.jpg,3,4,1,1,2,1,2,3,0,55,,,,,,,,,,,,,,,,,,,,
,,,,,55,2020-07-04_16h31.11.466,retriever_ti,2020.1.3,Win32,60,Firefox,1536,864,,,,,,,,,,,,,,,,,,,,,,,,,,,,,,,,,,,,,0,1.264,,,,,,,,,,,,,,,,,,,,,,,,,,,,,,,,,,,,,,,,,1,0,1,0,1,,,,,,,,,,,,,,,
,,,,,55,2020-07-04_16h31.11.466,retriever_ti,2020.1.3,Win32,60,Firefox,1536,864,,,,,,,,,,,,,,,,,3,,,,,,,,,,,,,,,,,,,,,,,,,,,943.008,155,left,1.241,dress         ,7,7,-1,0,0,943.04,943.04,945.538,0,0,0,0,1,155,7,8,dress         ,giraffe     ,html/resources/sequences_IDs/A/07_dress.jpg,html/resources/sequences_IDs/B/03_giraffe.jpg,7,3,3,2,1,1,6,2,0,55,,,,,,,,,,,,,,,,,,,,
,,,,,55,2020-07-04_16h31.11.466,retriever_ti,2020.1.3,Win32,60,Firefox,1536,864,,,,,,,,,,,,,,,,,3,,,,,,,,,,,,,,,,,,,,,,,,,,,946.638,156,right,1.744,giraffe     ,8,3,4,1,3,946.673,946.673,949.17,0,1,1,1,1,156,4,8,redfox      ,giraffe     ,html/resources/sequences_IDs/B/01_redfox.jpg,html/resources/sequences_IDs/B/03_giraffe.jpg,1,3,1,1,1,1,1,2,0,55,,,,,,,,,,,,,,,,,,,,
,,,,,55,2020-07-04_16h31.11.466,retriever_ti,2020.1.3,Win32,60,Firefox,1536,864,,,,,,,,,,,,,,,,,3,,,,,,,,,,,,,,,,,,,,,,,,,,,949.771,157,left,1.406,parrot      ,2,5,-1,0,0,949.805,949.805,952.304,0,2,2,2,1,157,2,3,parrot      ,satellite_dish,html/resources/sequences_IDs/B/05_parrot.jpg,html/resources/sequences_IDs/A/10_satellite_dish.jpg,5,10,2,1,4,2,4,8,0,55,,,,,,,,,,,,,,,,,,,,
,,,,,55,2020-07-04_16h31.11.466,retriever_ti,2020.1.3,Win32,60,Firefox,1536,864,,,,,,,,,,,,,,,,,3,,,,,,,,,,,,,,,,,,,,,,,,,,,953.405,158,left,1.425,satellite_dish,3,10,-3,0,3,953.422,953.422,955.921,0,3,3,3,1,158,3,6,satellite_dish,phone       ,html/resources/sequences_IDs/A/10_satellite_dish.jpg,html/resources/sequences_IDs/B/09_phone.jpg,10,9,4,2,4,2,8,7,0,55,,,,,,,,,,,,,,,,,,,,
,,,,,55,2020-07-04_16h31.11.466,retriever_ti,2020.1.3,Win32,60,Firefox,1536,864,,,,,,,,,,,,,,,,,3,,,,,,,,,,,,,,,,,,,,,,,,,,,956.538,159,right,1.252,giraffe     ,8,3,1,1,0,956.555,956.555,959.055,0,4,4,4,1,159,7,8,dress         ,giraffe     ,html/resources/sequences_IDs/A/07_dress.jpg,html/resources/sequences_IDs/B/03_giraffe.jpg,7,3,3,2,1,1,6,2,1,55,,,,,,,,,,,,,,,,,,,,
,,,,,55,2020-07-04_16h31.11.466,retriever_ti,2020.1.3,Win32,60,Firefox,1536,864,,,,,,,,,,,,,,,,,3,,,,,,,,,,,,,,,,,,,,,,,,,,,960.155,160,right,1.291,dress         ,7,7,6,1,3,960.173,960.173,962.671,0,5,5,5,1,160,1,7,scarf         ,dress         ,html/resources/sequences_IDs/A/06_scarf.jpg,html/resources/sequences_IDs/A/07_dress.jpg,6,7,3,2,3,2,5,6,0,55,,,,,,,,,,,,,,,,,,,,
,,,,,55,2020-07-04_16h31.11.466,retriever_ti,2020.1.3,Win32,60,Firefox,1536,864,,,,,,,,,,,,,,,,,3,,,,,,,,,,,,,,,,,,,,,,,,,,,963.288,161,right,0.893,giraffe     ,8,3,7,1,3,963.307,963.307,965.804,0,6,6,6,1,161,1,8,scarf         ,giraffe     ,html/resources/sequences_IDs/A/06_scarf.jpg,html/resources/sequences_IDs/B/03_giraffe.jpg,6,3,3,2,1,1,5,2,0,55,,,,,,,,,,,,,,,,,,,,
,,,,,55,2020-07-04_16h31.11.466,retriever_ti,2020.1.3,Win32,60,Firefox,1536,864,,,,,,,,,,,,,,,,,3,,,,,,,,,,,,,,,,,,,,,,,,,,,966.422,162,left,0.9,redfox      ,4,1,1,1,1,966.457,966.457,968.954,0,7,7,7,1,162,4,3,redfox      ,satellite_dish,html/resources/sequences_IDs/B/01_redfox.jpg,html/resources/sequences_IDs/A/10_satellite_dish.jpg,1,10,1,1,4,2,1,8,0,55,,,,,,,,,,,,,,,,,,,,
,,,,,55,2020-07-04_16h31.11.466,retriever_ti,2020.1.3,Win32,60,Firefox,1536,864,,,,,,,,,,,,,,,,,3,,,,,,,,,,,,,,,,,,,,,,,,,,,970.056,163,right,1.558,giraffe     ,8,3,5,1,3,970.09,970.09,972.588,0,8,8,8,1,163,3,8,satellite_dish,giraffe     ,html/resources/sequences_IDs/A/10_satellite_dish.jpg,html/resources/sequences_IDs/B/03_giraffe.jpg,10,3,4,2,1,1,8,2,0,55,,,,,,,,,,,,,,,,,,,,
,,,,,55,2020-07-04_16h31.11.466,retriever_ti,2020.1.3,Win32,60,Firefox,1536,864,,,,,,,,,,,,,,,,,3,,,,,,,,,,,,,,,,,,,,,,,,,,,973.189,164,left,2.072,dress         ,7,7,1,1,1,973.207,973.207,975.705,0,9,9,9,1,164,7,6,dress         ,phone       ,html/resources/sequences_IDs/A/07_dress.jpg,html/resources/sequences_IDs/B/09_phone.jpg,7,9,3,2,4,2,6,7,0,55,,,,,,,,,,,,,,,,,,,,
,,,,,55,2020-07-04_16h31.11.466,retriever_ti,2020.1.3,Win32,60,Firefox,1536,864,,,,,,,,,,,,,,,,,3,,,,,,,,,,,,,,,,,,,,,,,,,,,976.806,165,left,1.011,giraffe     ,8,3,7,1,3,976.84,976.84,979.338,0,10,10,10,1,165,8,1,giraffe     ,scarf         ,html/resources/sequences_IDs/B/03_giraffe.jpg,html/resources/sequences_IDs/A/06_scarf.jpg,3,6,1,1,3,2,2,5,0,55,,,,,,,,,,,,,,,,,,,,
,,,,,55,2020-07-04_16h31.11.466,retriever_ti,2020.1.3,Win32,60,Firefox,1536,864,,,,,,,,,,,,,,,,,3,,,,,,,,,,,,,,,,,,,,,,,,,,,979.939,166,right,0.68,giraffe     ,8,3,3,1,3,979.957,979.957,982.456,0,11,11,11,1,166,5,8,clownfish     ,giraffe     ,html/resources/sequences_IDs/A/04_clownfish.jpg,html/resources/sequences_IDs/B/03_giraffe.jpg,4,3,2,1,1,1,3,2,0,55,,,,,,,,,,,,,,,,,,,,
,,,,,55,2020-07-04_16h31.11.466,retriever_ti,2020.1.3,Win32,60,Firefox,1536,864,,,,,,,,,,,,,,,,,3,,,,,,,,,,,,,,,,,,,,,,,,,,,983.055,167,left,1.282,redfox      ,4,1,2,1,3,983.073,983.073,985.572,0,12,12,12,1,167,4,2,redfox      ,parrot      ,html/resources/sequences_IDs/B/01_redfox.jpg,html/resources/sequences_IDs/B/05_parrot.jpg,1,5,1,1,2,1,1,4,0,55,,,,,,,,,,,,,,,,,,,,
,,,,,55,2020-07-04_16h31.11.466,retriever_ti,2020.1.3,Win32,60,Firefox,1536,864,,,,,,,,,,,,,,,,,3,,,,,,,,,,,,,,,,,,,,,,,,,,,986.189,168,right,1.393,dress         ,7,7,4,1,3,986.209,986.209,988.707,0,13,13,13,1,168,3,7,satellite_dish,dress         ,html/resources/sequences_IDs/A/10_satellite_dish.jpg,html/resources/sequences_IDs/A/07_dress.jpg,10,7,4,2,3,2,8,6,0,55,,,,,,,,,,,,,,,,,,,,
,,,,,55,2020-07-04_16h31.11.466,retriever_ti,2020.1.3,Win32,60,Firefox,1536,864,,,,,,,,,,,,,,,,,3,,,,,,,,,,,,,,,,,,,,,,,,,,,989.323,169,left,1.232,giraffe     ,8,3,3,1,3,989.357,989.357,991.856,0,14,14,14,1,169,8,5,giraffe     ,clownfish     ,html/resources/sequences_IDs/B/03_giraffe.jpg,html/resources/sequences_IDs/A/04_clownfish.jpg,3,4,1,1,2,1,2,3,0,55,,,,,,,,,,,,,,,,,,,,
,,,,,55,2020-07-04_16h31.11.466,retriever_ti,2020.1.3,Win32,60,Firefox,1536,864,,,,,,,,,,,,,,,,,3,,,,,,,,,,,,,,,,,,,,,,,,,,,992.472,170,right,1.473,clownfish     ,5,4,-1,0,0,992.49,992.49,994.989,0,15,15,15,1,170,6,5,phone       ,clownfish     ,html/resources/sequences_IDs/B/09_phone.jpg,html/resources/sequences_IDs/A/04_clownfish.jpg,9,4,4,2,2,1,7,3,0,55,,,,,,,,,,,,,,,,,,,,
,,,,,55,2020-07-04_16h31.11.466,retriever_ti,2020.1.3,Win32,60,Firefox,1536,864,,,,,,,,,,,,,,,,,3,,,,,,,,,,,,,,,,,,,,,,,,,,,996.089,171,right,1.156,giraffe     ,8,3,1,1,1,996.107,996.107,998.605,0,16,16,16,1,171,7,8,dress         ,giraffe     ,html/resources/sequences_IDs/A/07_dress.jpg,html/resources/sequences_IDs/B/03_giraffe.jpg,7,3,3,2,1,1,6,2,0,55,,,,,,,,,,,,,,,,,,,,
,,,,,55,2020-07-04_16h31.11.466,retriever_ti,2020.1.3,Win32,60,Firefox,1536,864,,,,,,,,,,,,,,,,,3,,,,,,,,,,,,,,,,,,,,,,,,,,,999.706,172,left,1.475,giraffe     ,8,3,4,1,3,999.724,999.724,1002.222,0,17,17,17,1,172,8,4,giraffe     ,redfox      ,html/resources/sequences_IDs/B/03_giraffe.jpg,html/resources/sequences_IDs/B/01_redfox.jpg,3,1,1,1,1,1,2,1,0,55,,,,,,,,,,,,,,,,,,,,
,,,,,55,2020-07-04_16h31.11.466,retriever_ti,2020.1.3,Win32,60,Firefox,1536,864,,,,,,,,,,,,,,,,,3,,,,,,,,,,,,,,,,,,,,,,,,,,,1002.839,173,right,1.507,dress         ,7,7,1,1,1,1002.872,1002.872,1005.372,0,18,18,18,1,173,6,7,phone       ,dress         ,html/resources/sequences_IDs/B/09_phone.jpg,html/resources/sequences_IDs/A/07_dress.jpg,9,7,4,2,3,2,7,6,0,55,,,,,,,,,,,,,,,,,,,,
,,,,,55,2020-07-04_16h31.11.466,retriever_ti,2020.1.3,Win32,60,Firefox,1536,864,,,,,,,,,,,,,,,,,3,,,,,,,,,,,,,,,,,,,,,,,,,,,1006.473,174,left,1.88,phone       ,6,9,3,1,3,1006.491,1006.491,1008.989,0,19,19,19,1,174,6,3,phone       ,satellite_dish,html/resources/sequences_IDs/B/09_phone.jpg,html/resources/sequences_IDs/A/10_satellite_dish.jpg,9,10,4,2,4,2,7,8,0,55,,,,,,,,,,,,,,,,,,,,
,,,,,55,2020-07-04_16h31.11.466,retriever_ti,2020.1.3,Win32,60,Firefox,1536,864,,,,,,,,,,,,,,,,,3,,,,,,,,,,,,,,,,,,,,,,,,,,,1009.606,175,right,1.237,redfox      ,4,1,1,1,1,1009.64,1009.64,1012.139,0,20,20,20,1,175,3,4,satellite_dish,redfox      ,html/resources/sequences_IDs/A/10_satellite_dish.jpg,html/resources/sequences_IDs/B/01_redfox.jpg,10,1,4,2,1,1,8,1,0,55,,,,,,,,,,,,,,,,,,,,
,,,,,55,2020-07-04_16h31.11.466,retriever_ti,2020.1.3,Win32,60,Firefox,1536,864,,,,,,,,,,,,,,,,,3,,,,,,,,,,,,,,,,,,,,,,,,,,,1013.239,176,right,1.07,clownfish     ,5,4,2,1,3,1013.274,1013.274,1015.772,0,21,21,21,1,176,3,5,satellite_dish,clownfish     ,html/resources/sequences_IDs/A/10_satellite_dish.jpg,html/resources/sequences_IDs/A/04_clownfish.jpg,10,4,4,2,2,1,8,3,0,55,,,,,,,,,,,,,,,,,,,,
,,,,,55,2020-07-04_16h31.11.466,retriever_ti,2020.1.3,Win32,60,Firefox,1536,864,,,,,,,,,,,,,,,,,3,,,,,,,,,,,,,,,,,,,,,,,,,,,1016.373,177,left,0.969,dress         ,7,7,4,1,3,1016.409,1016.409,1018.905,0,22,22,22,1,177,7,3,dress         ,satellite_dish,html/resources/sequences_IDs/A/07_dress.jpg,html/resources/sequences_IDs/A/10_satellite_dish.jpg,7,10,3,2,4,2,6,8,0,55,,,,,,,,,,,,,,,,,,,,
,,,,,55,2020-07-04_16h31.11.466,retriever_ti,2020.1.3,Win32,60,Firefox,1536,864,,,,,,,,,,,,,,,,,3,,,,,,,,,,,,,,,,,,,,,,,,,,,1019.522,178,left,0.92,clownfish     ,5,4,-1,0,0,1019.557,1019.557,1022.055,0,23,23,23,1,178,5,6,clownfish     ,phone       ,html/resources/sequences_IDs/A/04_clownfish.jpg,html/resources/sequences_IDs/B/09_phone.jpg,4,9,2,1,4,2,3,7,0,55,,,,,,,,,,,,,,,,,,,,
,,,,,55,2020-07-04_16h31.11.466,retriever_ti,2020.1.3,Win32,60,Firefox,1536,864,,,,,,,,,,,,,,,,,3,,,,,,,,,,,,,,,,,,,,,,,,,,,1023.156,179,left,1.203,clownfish     ,5,4,1,1,0,1023.174,1023.174,1025.672,0,24,24,24,1,179,5,4,clownfish     ,redfox      ,html/resources/sequences_IDs/A/04_clownfish.jpg,html/resources/sequences_IDs/B/01_redfox.jpg,4,1,2,1,1,1,3,1,1,55,,,,,,,,,,,,,,,,,,,,
,,,,,55,2020-07-04_16h31.11.466,retriever_ti,2020.1.3,Win32,60,Firefox,1536,864,,,,,,,,,,,,,,,,,3,,,,,,,,,,,,,,,,,,,,,,,,,,,1026.773,180,right,0.852,redfox      ,4,1,-1,0,0,1026.809,1026.809,1029.306,0,25,25,25,1,180,5,4,clownfish     ,redfox      ,html/resources/sequences_IDs/A/04_clownfish.jpg,html/resources/sequences_IDs/B/01_redfox.jpg,4,1,2,1,1,1,3,1,0,55,,,,,,,,,,,,,,,,,,,,
,,,,,55,2020-07-04_16h31.11.466,retriever_ti,2020.1.3,Win32,60,Firefox,1536,864,,,,,,,,,,,,,,,,,3,,,,,,,,,,,,,,,,,,,,,,,,,,,1030.406,181,NaN,NaN,No_response,NaN,NaN,NaN,2,2,1030.426,1030.426,1032.922,0,26,26,26,1,181,7,5,dress         ,clownfish     ,html/resources/sequences_IDs/A/07_dress.jpg,html/resources/sequences_IDs/A/04_clownfish.jpg,7,4,3,2,2,1,6,3,0,55,,,,,,,,,,,,,,,,,,,,
,,,,,55,2020-07-04_16h31.11.466,retriever_ti,2020.1.3,Win32,60,Firefox,1536,864,,,,,,,,,,,,,,,,,3,,,,,,,,,,,,,,,,,,,,,,,,,,,1034.023,182,right,1.291,dress         ,7,7,5,1,3,1034.057,1034.057,1036.555,0,27,27,27,1,182,2,7,parrot      ,dress         ,html/resources/sequences_IDs/B/05_parrot.jpg,html/resources/sequences_IDs/A/07_dress.jpg,5,7,2,1,3,2,4,6,0,55,,,,,,,,,,,,,,,,,,,,
,,,,,55,2020-07-04_16h31.11.466,retriever_ti,2020.1.3,Win32,60,Firefox,1536,864,,,,,,,,,,,,,,,,,3,,,,,,,,,,,,,,,,,,,,,,,,,,,1037.157,183,right,0.992,redfox      ,4,1,2,1,3,1037.175,1037.175,1039.673,0,28,28,28,1,183,2,4,parrot      ,redfox      ,html/resources/sequences_IDs/B/05_parrot.jpg,html/resources/sequences_IDs/B/01_redfox.jpg,5,1,2,1,1,1,4,1,0,55,,,,,,,,,,,,,,,,,,,,
,,,,,55,2020-07-04_16h31.11.466,retriever_ti,2020.1.3,Win32,60,Firefox,1536,864,,,,,,,,,,,,,,,,,3,,,,,,,,,,,,,,,,,,,,,,,,,,,1040.29,184,right,0.905,clownfish     ,5,4,3,1,3,1040.308,1040.308,1042.806,0,29,29,29,1,184,2,5,parrot      ,clownfish     ,html/resources/sequences_IDs/B/05_parrot.jpg,html/resources/sequences_IDs/A/04_clownfish.jpg,5,4,2,1,2,1,4,3,0,55,,,,,,,,,,,,,,,,,,,,
,,,,,55,2020-07-04_16h31.11.466,retriever_ti,2020.1.3,Win32,60,Firefox,1536,864,,,,,,,,,,,,,,,,,3,,,,,,,,,,,,,,,,,,,,,,,,,,,1043.423,185,left,0.63,clownfish     ,5,4,-2,0,3,1043.441,1043.441,1045.94,0,30,30,30,1,185,5,7,clownfish     ,dress         ,html/resources/sequences_IDs/A/04_clownfish.jpg,html/resources/sequences_IDs/A/07_dress.jpg,4,7,2,1,3,2,3,6,0,55,,,,,,,,,,,,,,,,,,,,
,,,,,55,2020-07-04_16h31.11.466,retriever_ti,2020.1.3,Win32,60,Firefox,1536,864,,,,,,,,,,,,,,,,,3,,,,,,,,,,,,,,,,,,,,,,,,,,,1046.556,186,right,1.013,parrot      ,2,5,-1,0,0,1046.576,1046.576,1049.073,0,31,31,31,1,186,3,2,satellite_dish,parrot      ,html/resources/sequences_IDs/A/10_satellite_dish.jpg,html/resources/sequences_IDs/B/05_parrot.jpg,10,5,4,2,2,1,8,4,0,55,,,,,,,,,,,,,,,,,,,,
,,,,,55,2020-07-04_16h31.11.466,retriever_ti,2020.1.3,Win32,60,Firefox,1536,864,,,,,,,,,,,,,,,,,3,,,,,,,,,,,,,,,,,,,,,,,,,,,1050.173,187,right,0.587,satellite_dish,3,10,1,1,1,1050.191,1050.191,1052.689,0,32,32,32,1,187,2,3,parrot      ,satellite_dish,html/resources/sequences_IDs/B/05_parrot.jpg,html/resources/sequences_IDs/A/10_satellite_dish.jpg,5,10,2,1,4,2,4,8,0,55,,,,,,,,,,,,,,,,,,,,
,,,,,55,2020-07-04_16h31.11.466,retriever_ti,2020.1.3,Win32,60,Firefox,1536,864,,,,,,,,,,,,,,,,,3,,,,,,,,,,,,,,,,,,,,,,,,,,,1053.79,188,right,1.046,parrot      ,2,5,-5,0,3,1053.823,1053.823,1056.323,0,33,33,33,1,188,7,2,dress         ,parrot      ,html/resources/sequences_IDs/A/07_dress.jpg,html/resources/sequences_IDs/B/05_parrot.jpg,7,5,3,2,2,1,6,4,0,55,,,,,,,,,,,,,,,,,,,,
,,,,,55,2020-07-04_16h31.11.466,retriever_ti,2020.1.3,Win32,60,Firefox,1536,864,,,,,,,,,,,,,,,,,3,,,,,,,,,,,,,,,,,,,,,,,,,,,1056.94,189,right,1.318,clownfish     ,5,4,1,1,1,1056.974,1056.974,1059.472,0,34,34,34,1,189,4,5,redfox      ,clownfish     ,html/resources/sequences_IDs/B/01_redfox.jpg,html/resources/sequences_IDs/A/04_clownfish.jpg,1,4,1,1,2,1,1,3,0,55,,,,,,,,,,,,,,,,,,,,
,,,,,55,2020-07-04_16h31.11.466,retriever_ti,2020.1.3,Win32,60,Firefox,1536,864,,,,,,,,,,,,,,,,,3,,,,,,,,,,,,,,,,,,,,,,,,,,,1060.573,190,right,1.024,parrot      ,2,5,-4,0,3,1060.591,1060.591,1063.089,0,35,35,35,1,190,6,2,phone       ,parrot      ,html/resources/sequences_IDs/B/09_phone.jpg,html/resources/sequences_IDs/B/05_parrot.jpg,9,5,4,2,2,1,7,4,0,55,,,,,,,,,,,,,,,,,,,,
,,,,,55,2020-07-04_16h31.11.466,retriever_ti,2020.1.3,Win32,60,Firefox,1536,864,,,,,,,,,,,,,,,,,3,,,,,,,,,,,,,,,,,,,,,,,,,,,1063.69,191,right,0.688,parrot      ,2,5,1,1,1,1063.706,1063.706,1066.208,0,36,36,36,1,191,1,2,scarf         ,parrot      ,html/resources/sequences_IDs/A/06_scarf.jpg,html/resources/sequences_IDs/B/05_parrot.jpg,6,5,3,2,2,1,5,4,0,55,,,,,,,,,,,,,,,,,,,,
,,,,,55,2020-07-04_16h31.11.466,retriever_ti,2020.1.3,Win32,60,Firefox,1536,864,,,,,,,,,,,,,,,,,3,,,,,,,,,,,,,,,,,,,,,,,,,,,1067.306,192,right,1.142,satellite_dish,3,10,-1,0,0,1067.324,1067.324,1069.823,0,37,37,37,1,192,4,3,redfox      ,satellite_dish,html/resources/sequences_IDs/B/01_redfox.jpg,html/resources/sequences_IDs/A/10_satellite_dish.jpg,1,10,1,1,4,2,1,8,0,55,,,,,,,,,,,,,,,,,,,,
,,,,,55,2020-07-04_16h31.11.466,retriever_ti,2020.1.3,Win32,60,Firefox,1536,864,,,,,,,,,,,,,,,,,3,,,,,,,,,,,,,,,,,,,,,,,,,,,1070.923,193,right,1.132,satellite_dish,3,10,2,1,3,1070.941,1070.941,1073.44,0,38,38,38,1,193,1,3,scarf         ,satellite_dish,html/resources/sequences_IDs/A/06_scarf.jpg,html/resources/sequences_IDs/A/10_satellite_dish.jpg,6,10,3,2,4,2,5,8,0,55,,,,,,,,,,,,,,,,,,,,
,,,,,55,2020-07-04_16h31.11.466,retriever_ti,2020.1.3,Win32,60,Firefox,1536,864,,,,,,,,,,,,,,,,,3,,,,,,,,,,,,,,,,,,,,,,,,,,,1074.057,194,right,0.757,redfox      ,4,1,3,1,3,1074.075,1074.075,1076.573,0,39,39,39,1,194,1,4,scarf         ,redfox      ,html/resources/sequences_IDs/A/06_scarf.jpg,html/resources/sequences_IDs/B/01_redfox.jpg,6,1,3,2,1,1,5,1,0,55,,,,,,,,,,,,,,,,,,,,
,,,,,55,2020-07-04_16h31.11.466,retriever_ti,2020.1.3,Win32,60,Firefox,1536,864,,,,,,,,,,,,,,,,,3,,,,,,,,,,,,,,,,,,,,,,,,,,,1077.191,195,left,0.667,dress         ,7,7,1,1,1,1077.225,1077.225,1079.723,0,40,40,40,1,195,7,6,dress         ,phone       ,html/resources/sequences_IDs/A/07_dress.jpg,html/resources/sequences_IDs/B/09_phone.jpg,7,9,3,2,4,2,6,7,0,55,,,,,,,,,,,,,,,,,,,,
,,,,,55,2020-07-04_16h31.11.466,retriever_ti,2020.1.3,Win32,60,Firefox,1536,864,,,,,,,,,,,,,,,,,3,,,,,,,,,,,,,,,,,,,,,,,,,,,1080.823,196,right,0.559,clownfish     ,5,4,4,1,3,1080.842,1080.842,1083.34,0,41,41,41,1,196,1,5,scarf         ,clownfish     ,html/resources/sequences_IDs/A/06_scarf.jpg,html/resources/sequences_IDs/A/04_clownfish.jpg,6,4,3,2,2,1,5,3,0,55,,,,,,,,,,,,,,,,,,,,
,,,,,55,2020-07-04_16h31.11.466,retriever_ti,2020.1.3,Win32,60,Firefox,1536,864,,,,,,,,,,,,,,,,,3,,,,,,,,,,,,,,,,,,,,,,,,,,,1083.957,197,left,0.791,redfox      ,4,1,-1,0,0,1083.975,1083.975,1086.473,0,42,42,42,1,197,4,5,redfox      ,clownfish     ,html/resources/sequences_IDs/B/01_redfox.jpg,html/resources/sequences_IDs/A/04_clownfish.jpg,1,4,1,1,2,1,1,3,0,55,,,,,,,,,,,,,,,,,,,,
,,,,,55,2020-07-04_16h31.11.466,retriever_ti,2020.1.3,Win32,60,Firefox,1536,864,,,,,,,,,,,,,,,,,3,,,,,,,,,,,,,,,,,,,,,,,,,,,1087.574,198,left,1.068,dress         ,7,7,6,1,3,1087.592,1087.592,1090.089,0,43,43,43,1,198,7,1,dress         ,scarf         ,html/resources/sequences_IDs/A/07_dress.jpg,html/resources/sequences_IDs/A/06_scarf.jpg,7,6,3,2,3,2,6,5,0,55,,,,,,,,,,,,,,,,,,,,
,,,,,55,2020-07-04_16h31.11.466,retriever_ti,2020.1.3,Win32,60,Firefox,1536,864,,,,,,,,,,,,,,,,,3,,,,,,,,,,,,,,,,,,,,,,,,,,,1090.69,199,right,0.842,giraffe     ,8,3,6,1,3,1090.723,1090.723,1093.223,0,44,44,44,1,199,2,8,parrot      ,giraffe     ,html/resources/sequences_IDs/B/05_parrot.jpg,html/resources/sequences_IDs/B/03_giraffe.jpg,5,3,2,1,1,1,4,2,0,55,,,,,,,,,,,,,,,,,,,,
,,,,,55,2020-07-04_16h31.11.466,retriever_ti,2020.1.3,Win32,60,Firefox,1536,864,,,,,,,,,,,,,,,,,3,,,,,,,,,,,,,,,,,,,,,,,,,,,1093.824,200,left,0.849,parrot      ,2,5,-4,0,3,1093.858,1093.858,1096.357,0,45,45,45,1,200,2,6,parrot      ,phone       ,html/resources/sequences_IDs/B/05_parrot.jpg,html/resources/sequences_IDs/B/09_phone.jpg,5,9,2,1,4,2,4,7,0,55,,,,,,,,,,,,,,,,,,,,
,,,,,55,2020-07-04_16h31.11.466,retriever_ti,2020.1.3,Win32,60,Firefox,1536,864,,,,,,,,,,,,,,,,,3,,,,,,,,,,,,,,,,,,,,,,,,,,,1096.957,201,left,0.767,clownfish     ,5,4,-1,0,0,1096.974,1096.974,1099.473,0,46,46,46,1,201,5,6,clownfish     ,phone       ,html/resources/sequences_IDs/A/04_clownfish.jpg,html/resources/sequences_IDs/B/09_phone.jpg,4,9,2,1,4,2,3,7,0,55,,,,,,,,,,,,,,,,,,,,
,,,,,55,2020-07-04_16h31.11.466,retriever_ti,2020.1.3,Win32,60,Firefox,1536,864,,,,,,,,,,,,,,,,,3,,,,,,,,,,,,,,,,,,,,,,,,,,,1100.574,202,right,1.201,phone       ,6,9,-2,0,3,1100.591,1100.591,1103.09,0,47,47,47,1,202,8,6,giraffe     ,phone       ,html/resources/sequences_IDs/B/03_giraffe.jpg,html/resources/sequences_IDs/B/09_phone.jpg,3,9,1,1,4,2,2,7,0,55,,,,,,,,,,,,,,,,,,,,
,,,,,55,2020-07-04_16h31.11.466,retriever_ti,2020.1.3,Win32,60,Firefox,1536,864,,,,,,,,,,,,,,,,,3,,,,,,,,,,,,,,,,,,,,,,,,,,,1103.707,203,left,0.848,clownfish     ,5,4,4,1,3,1103.725,1103.725,1106.223,0,48,48,48,1,203,5,1,clownfish     ,scarf         ,html/resources/sequences_IDs/A/04_clownfish.jpg,html/resources/sequences_IDs/A/06_scarf.jpg,4,6,2,1,3,2,3,5,0,55,,,,,,,,,,,,,,,,,,,,
,,,,,55,2020-07-04_16h31.11.466,retriever_ti,2020.1.3,Win32,60,Firefox,1536,864,,,,,,,,,,,,,,,,,3,,,,,,,,,,,,,,,,,,,,,,,,,,,1106.824,204,right,1.166,dress         ,7,7,-1,0,0,1106.84,1106.84,1109.34,0,49,49,49,1,204,8,7,giraffe     ,dress         ,html/resources/sequences_IDs/B/03_giraffe.jpg,html/resources/sequences_IDs/A/07_dress.jpg,3,7,1,1,3,2,2,6,0,55,,,,,,,,,,,,,,,,,,,,
,,,,,55,2020-07-04_16h31.11.466,retriever_ti,2020.1.3,Win32,60,Firefox,1536,864,,,,,,,,,,,,,,,,,3,,,,,,,,,,,,,,,,,,,,,,,,,,,1110.441,205,left,1.825,phone       ,6,9,2,1,3,1110.458,1110.458,1112.957,0,50,50,50,1,205,6,4,phone       ,redfox      ,html/resources/sequences_IDs/B/09_phone.jpg,html/resources/sequences_IDs/B/01_redfox.jpg,9,1,4,2,1,1,7,1,0,55,,,,,,,,,,,,,,,,,,,,
,,,,,55,2020-07-04_16h31.11.466,retriever_ti,2020.1.3,Win32,60,Firefox,1536,864,,,,,,,,,,,,,,,,,3,,,,,,,,,,,,,,,,,,,,,,,,,,,1113.575,206,left,0.875,redfox      ,4,1,3,1,3,1113.592,1113.592,1116.09,0,51,51,51,1,206,4,1,redfox      ,scarf         ,html/resources/sequences_IDs/B/01_redfox.jpg,html/resources/sequences_IDs/A/06_scarf.jpg,1,6,1,1,3,2,1,5,0,55,,,,,,,,,,,,,,,,,,,,
,,,,,55,2020-07-04_16h31.11.466,retriever_ti,2020.1.3,Win32,60,Firefox,1536,864,,,,,,,,,,,,,,,,,3,,,,,,,,,,,,,,,,,,,,,,,,,,,1116.69,207,right,1.248,phone       ,6,9,5,1,3,1116.707,1116.707,1119.207,0,52,52,52,1,207,1,6,scarf         ,phone       ,html/resources/sequences_IDs/A/06_scarf.jpg,html/resources/sequences_IDs/B/09_phone.jpg,6,9,3,2,4,2,5,7,0,55,,,,,,,,,,,,,,,,,,,,
,,,,,55,2020-07-04_16h31.11.466,retriever_ti,2020.1.3,Win32,60,Firefox,1536,864,,,,,,,,,,,,,,,,,3,,,,,,,,,,,,,,,,,,,,,,,,,,,1119.824,208,left,0.881,phone       ,6,9,-1,0,0,1119.84,1119.84,1122.341,0,53,53,53,1,208,6,7,phone       ,dress         ,html/resources/sequences_IDs/B/09_phone.jpg,html/resources/sequences_IDs/A/07_dress.jpg,9,7,4,2,3,2,7,6,0,55,,,,,,,,,,,,,,,,,,,,
,,,,,55,2020-07-04_16h31.11.466,retriever_ti,2020.1.3,Win32,60,Firefox,1536,864,,,,,,,,,,,,,,,,,3,,,,,,,,,,,,,,,,,,,,,,,,,,,1123.441,209,left,0.791,dress         ,7,7,3,1,3,1123.477,1123.477,1125.973,0,54,54,54,1,209,7,4,dress         ,redfox      ,html/resources/sequences_IDs/A/07_dress.jpg,html/resources/sequences_IDs/B/01_redfox.jpg,7,1,3,2,1,1,6,1,0,55,,,,,,,,,,,,,,,,,,,,
,,,,,55,2020-07-04_16h31.11.466,retriever_ti,2020.1.3,Win32,60,Firefox,1536,864,,,,,,,,,,,,,,,,,3,,,,,,,,,,,,,,,,,,,,,,,,,,,1126.574,210,left,0.937,satellite_dish,3,10,1,1,0,1126.592,1126.592,1129.09,0,55,55,55,1,210,3,2,satellite_dish,parrot      ,html/resources/sequences_IDs/A/10_satellite_dish.jpg,html/resources/sequences_IDs/B/05_parrot.jpg,10,5,4,2,2,1,8,4,1,55,,,,,,,,,,,,,,,,,,,,
,,,,,55,2020-07-04_16h31.11.466,retriever_ti,2020.1.3,Win32,60,Firefox,1536,864,,,,,,,,,,,,,,,,,3,,,,,,,,,,,,,,,,,,,,,,,,,,,1130.19,211,right,0.618,parrot      ,2,5,-1,0,0,1130.209,1130.209,1132.706,0,56,56,56,1,211,3,2,satellite_dish,parrot      ,html/resources/sequences_IDs/A/10_satellite_dish.jpg,html/resources/sequences_IDs/B/05_parrot.jpg,10,5,4,2,2,1,8,4,0,55,,,,,,,,,,,,,,,,,,,,
,,,,,55,2020-07-04_16h31.11.466,retriever_ti,2020.1.3,Win32,60,Firefox,1536,864,,,,,,,,,,,,,,,,,3,,,,,,,,,,,,,,,,,,,,,,,,,,,1133.808,212,NaN,NaN,No_response,NaN,NaN,NaN,2,2,1133.842,1133.842,1136.34,0,57,57,57,1,212,4,7,redfox      ,dress         ,html/resources/sequences_IDs/B/01_redfox.jpg,html/resources/sequences_IDs/A/07_dress.jpg,1,7,1,1,3,2,1,6,0,55,,,,,,,,,,,,,,,,,,,,
,,,,,55,2020-07-04_16h31.11.466,retriever_ti,2020.1.3,Win32,60,Firefox,1536,864,,,,,,,,,,,,,,,,,3,,,,,,,,,,,,,,,,,,,,,,,,,,,1137.441,213,left,1.003,phone       ,6,9,-2,0,3,1137.461,1137.461,1139.957,0,58,58,58,1,213,6,8,phone       ,giraffe     ,html/resources/sequences_IDs/B/09_phone.jpg,html/resources/sequences_IDs/B/03_giraffe.jpg,9,3,4,2,1,1,7,2,0,55,,,,,,,,,,,,,,,,,,,,
,,,,,55,2020-07-04_16h31.11.466,retriever_ti,2020.1.3,Win32,60,Firefox,1536,864,,,,,,,,,,,,,,,,,3,,,,,,,,,,,,,,,,,,,,,,,,,,,1140.574,214,right,0.696,satellite_dish,3,10,-5,0,3,1140.592,1140.592,1143.09,0,59,59,59,1,214,8,3,giraffe     ,satellite_dish,html/resources/sequences_IDs/B/03_giraffe.jpg,html/resources/sequences_IDs/A/10_satellite_dish.jpg,3,10,1,1,4,2,2,8,0,55,,,,,,,,,,,,,,,,,,,,
,,,,,55,2020-07-04_16h31.11.466,retriever_ti,2020.1.3,Win32,60,Firefox,1536,864,,,,,,,,,,,,,,,,,3,,,,,,,,,,,,,,,,,,,,,,,,,,,1143.692,215,left,0.604,giraffe     ,8,3,1,1,1,1143.725,1143.725,1146.224,0,60,60,60,1,215,8,7,giraffe     ,dress         ,html/resources/sequences_IDs/B/03_giraffe.jpg,html/resources/sequences_IDs/A/07_dress.jpg,3,7,1,1,3,2,2,6,0,55,,,,,,,,,,,,,,,,,,,,
,,,,,55,2020-07-04_16h31.11.466,retriever_ti,2020.1.3,Win32,60,Firefox,1536,864,,,,,,,,,,,,,,,,,3,,,,,,,,,,,,,,,,,,,,,,,,,,,1147.325,216,right,0.974,phone       ,6,9,2,1,3,1147.359,1147.359,1149.857,0,61,61,61,1,216,4,6,redfox      ,phone       ,html/resources/sequences_IDs/B/01_redfox.jpg,html/resources/sequences_IDs/B/09_phone.jpg,1,9,1,1,4,2,1,7,0,55,,,,,,,,,,,,,,,,,,,,
,,,,,55,2020-07-04_16h31.11.466,retriever_ti,2020.1.3,Win32,60,Firefox,1536,864,,,,,,,,,,,,,,,,,3,,,,,,,,,,,,,,,,,,,,,,,,,,,1150.458,217,left,0.593,parrot      ,2,5,1,1,1,1150.494,1150.494,1152.991,0,62,62,62,1,217,2,1,parrot      ,scarf         ,html/resources/sequences_IDs/B/05_parrot.jpg,html/resources/sequences_IDs/A/06_scarf.jpg,5,6,2,1,3,2,4,5,0,55,,,,,,,,,,,,,,,,,,,,
,,,,,55,2020-07-04_16h31.11.466,retriever_ti,2020.1.3,Win32,60,Firefox,1536,864,,,,,,,,,,,,,,,,,3,,,,,,,,,,,,,,,,,,,,,,,,,,,1154.091,218,left,0.474,parrot      ,2,5,1,1,1,1154.109,1154.109,1156.608,0,63,63,63,1,218,2,1,parrot      ,scarf         ,html/resources/sequences_IDs/B/05_parrot.jpg,html/resources/sequences_IDs/A/06_scarf.jpg,5,6,2,1,3,2,4,5,0,55,,,,,,,,,,,,,,,,,,,,
,,,,,55,2020-07-04_16h31.11.466,retriever_ti,2020.1.3,Win32,60,Firefox,1536,864,,,,,,,,,,,,,,,,,3,,,,,,,,,,,,,,,,,,,,,,,,,,,1157.707,219,right,0.759,parrot      ,2,5,-3,0,3,1157.725,1157.725,1160.224,0,64,64,64,1,219,5,2,clownfish     ,parrot      ,html/resources/sequences_IDs/A/04_clownfish.jpg,html/resources/sequences_IDs/B/05_parrot.jpg,4,5,2,1,2,1,3,4,0,55,,,,,,,,,,,,,,,,,,,,
,,,,,55,2020-07-04_16h31.11.466,retriever_ti,2020.1.3,Win32,60,Firefox,1536,864,,,,,,,,,,,,,,,,,3,,,,,,,,,,,,,,,,,,,,,,,,,,,1160.841,220,right,0.61,parrot      ,2,5,1,1,1,1160.874,1160.874,1163.374,0,65,65,65,1,220,1,2,scarf         ,parrot      ,html/resources/sequences_IDs/A/06_scarf.jpg,html/resources/sequences_IDs/B/05_parrot.jpg,6,5,3,2,2,1,5,4,0,55,,,,,,,,,,,,,,,,,,,,
,,,,,55,2020-07-04_16h31.11.466,retriever_ti,2020.1.3,Win32,60,Firefox,1536,864,,,,,,,,,,,,,,,,,3,,,,,,,,,,,,,,,,,,,,,,,,,,,1164.475,221,right,0.635,redfox      ,4,1,1,1,0,1164.51,1164.51,1167.007,0,66,66,66,1,221,3,4,satellite_dish,redfox      ,html/resources/sequences_IDs/A/10_satellite_dish.jpg,html/resources/sequences_IDs/B/01_redfox.jpg,10,1,4,2,1,1,8,1,1,55,,,,,,,,,,,,,,,,,,,,
,,,,,55,2020-07-04_16h31.11.466,retriever_ti,2020.1.3,Win32,60,Firefox,1536,864,,,,,,,,,,,,,,,,,3,,,,,,,,,,,,,,,,,,,,,,,,,,,1168.108,222,left,0.713,phone       ,6,9,5,1,3,1168.126,1168.126,1170.625,0,67,67,67,1,222,6,1,phone       ,scarf         ,html/resources/sequences_IDs/B/09_phone.jpg,html/resources/sequences_IDs/A/06_scarf.jpg,9,6,4,2,3,2,7,5,0,55,,,,,,,,,,,,,,,,,,,,
,,,,,55,2020-07-04_16h31.11.466,retriever_ti,2020.1.3,Win32,60,Firefox,1536,864,,,,,,,,,,,,,,,,,3,,,,,,,,,,,,,,,,,,,,,,,,,,,1171.242,223,left,0.824,phone       ,6,9,-1,0,1,1171.259,1171.259,1173.758,0,68,68,68,1,223,6,7,phone       ,dress         ,html/resources/sequences_IDs/B/09_phone.jpg,html/resources/sequences_IDs/A/07_dress.jpg,9,7,4,2,3,2,7,6,1,55,,,,,,,,,,,,,,,,,,,,
,,,,,55,2020-07-04_16h31.11.466,retriever_ti,2020.1.3,Win32,60,Firefox,1536,864,,,,,,,,,,,,,,,,,3,,,,,,,,,,,,,,,,,,,,,,,,,,,1174.858,224,right,0.571,parrot      ,2,5,1,1,0,1174.893,1174.893,1177.391,0,69,69,69,1,224,1,2,scarf         ,parrot      ,html/resources/sequences_IDs/A/06_scarf.jpg,html/resources/sequences_IDs/B/05_parrot.jpg,6,5,3,2,2,1,5,4,1,55,,,,,,,,,,,,,,,,,,,,
,,,,,55,2020-07-04_16h31.11.466,retriever_ti,2020.1.3,Win32,60,Firefox,1536,864,,,,,,,,,,,,,,,,,3,,,,,,,,,,,,,,,,,,,,,,,,,,,1178.492,225,right,1.527,clownfish     ,5,4,-1,0,0,1178.511,1178.511,1181.008,0,70,70,70,1,225,6,5,phone       ,clownfish     ,html/resources/sequences_IDs/B/09_phone.jpg,html/resources/sequences_IDs/A/04_clownfish.jpg,9,4,4,2,2,1,7,3,0,55,,,,,,,,,,,,,,,,,,,,
,,,,,55,2020-07-04_16h31.11.466,retriever_ti,2020.1.3,Win32,60,Firefox,1536,864,,,,,,,,,,,,,,,,,3,,,,,,,,,,,,,,,,,,,,,,,,,,,1182.108,226,left,0.95,satellite_dish,3,10,2,1,3,1182.125,1182.125,1184.625,0,71,71,71,1,226,3,1,satellite_dish,scarf         ,html/resources/sequences_IDs/A/10_satellite_dish.jpg,html/resources/sequences_IDs/A/06_scarf.jpg,10,6,4,2,3,2,8,5,0,55,,,,,,,,,,,,,,,,,,,,
,,,,,55,2020-07-04_16h31.11.466,retriever_ti,2020.1.3,Win32,60,Firefox,1536,864,,,,,,,,,,,,,,,,,3,,,,,,,,,,,,,,,,,,,,,,,,,,,1185.241,227,left,1.326,clownfish     ,5,4,1,1,1,1185.26,1185.26,1187.757,0,72,72,72,1,227,5,4,clownfish     ,redfox      ,html/resources/sequences_IDs/A/04_clownfish.jpg,html/resources/sequences_IDs/B/01_redfox.jpg,4,1,2,1,1,1,3,1,0,55,,,,,,,,,,,,,,,,,,,,
,,,,,55,2020-07-04_16h31.11.466,retriever_ti,2020.1.3,Win32,60,Firefox,1536,864,,,,,,,,,,,,,,,,,3,,,,,,,,,,,,,,,,,,,,,,,,,,,1188.858,228,left,0.859,clownfish     ,5,4,2,1,3,1188.893,1188.893,1191.391,0,73,73,73,1,228,5,3,clownfish     ,satellite_dish,html/resources/sequences_IDs/A/04_clownfish.jpg,html/resources/sequences_IDs/A/10_satellite_dish.jpg,4,10,2,1,4,2,3,8,0,55,,,,,,,,,,,,,,,,,,,,
,,,,,55,2020-07-04_16h31.11.466,retriever_ti,2020.1.3,Win32,60,Firefox,1536,864,,,,,,,,,,,,,,,,,3,,,,,,,,,,,,,,,,,,,,,,,,,,,1192.009,229,right,0.983,parrot      ,2,5,-6,0,3,1192.025,1192.025,1194.524,0,74,74,74,1,229,8,2,giraffe     ,parrot      ,html/resources/sequences_IDs/B/03_giraffe.jpg,html/resources/sequences_IDs/B/05_parrot.jpg,3,5,1,1,2,1,2,4,0,55,,,,,,,,,,,,,,,,,,,,
,,,,,55,2020-07-04_16h31.11.466,retriever_ti,2020.1.3,Win32,60,Firefox,1536,864,,,,,,,,,,,,,,,,,3,,,,,,,,,,,,,,,,,,,,,,,,,,,1195.125,230,left,1.186,phone       ,6,9,1,1,0,1195.142,1195.142,1197.642,0,75,75,75,1,230,6,5,phone       ,clownfish     ,html/resources/sequences_IDs/B/09_phone.jpg,html/resources/sequences_IDs/A/04_clownfish.jpg,9,4,4,2,2,1,7,3,1,55,,,,,,,,,,,,,,,,,,,,
