instructionsLoop.thisRepN,instructionsLoop.thisTrialN,instructionsLoop.thisN,instructionsLoop.thisIndex,instructionsLoop.ran,participant,date,expName,psychopyVersion,OS,frameRate,browser,xResolution,yResolution,fix_onset,tprac,practiceKey.keys,practiceKey.rt,pracitem_chosen_name,acc_practice,P1_onsetPrac,P2_onsetPrac,onsetFeedbPrac,practiceTrials.thisRepN,practiceTrials.thisTrialN,practiceTrials.thisN,practiceTrials.thisIndex,practiceTrials.ran,P1,P2,Block,LocItem1,LocItem2,NameItem1,NameItem2,key_respAC_prac.keys,key_respAC_prac.corr,key_respAC_prac.rt,AC_acc,Attentions.thisRepN,Attentions.thisTrialN,Attentions.thisN,Attentions.thisIndex,Attentions.ran,Stim,Loc1,Loc2,Loc3,Loc4,CorrAns,keyDisturbed.keys,keyDisturbed.rt,repPractice.thisRepN,repPractice.thisTrialN,repPractice.thisN,repPractice.thisIndex,repPractice.ran,fixcross_onsetMain,trialNumber,key_resp.keys,key_resp.rt,item_chosen_name,item_chosen_value,item_chosen_ID,diff_chosen_minus_reject,acc_real,acc_feedback,P1_onset,P2_onset,feedb_onset,trials.thisRepN,trials.thisTrialN,trials.thisN,trials.thisIndex,trials.ran,Trial,ValueP1,ValueP2,P1name,P2name,P1Loc,P2Loc,P1id,P2id,Micro_categoryP1,Macro_categoryP1,Micro_categoryP2,Macro_categoryP2,ID_sequenceP1,ID_sequenceP2,InverseFb,pNumber,repBlocks.thisRepN,repBlocks.thisTrialN,repBlocks.thisN,repBlocks.thisIndex,repBlocks.ran,key_respAC.keys,key_respAC.corr,key_respAC.rt,trials_AC.thisRepN,trials_AC.thisTrialN,trials_AC.thisN,trials_AC.thisIndex,trials_AC.ran,Bonus,BonusLoop.thisRepN,BonusLoop.thisTrialN,BonusLoop.thisN,BonusLoop.thisIndex,BonusLoop.ran,comments
0,0,0,0,1,56,2020-07-04_15h50.25.284,retriever_ti,2020.1.3,Win32,60,Chrome,1366,768,,,,,,,,,,,,,,,,,,,,,,,,,,,,,,,,,,,,,,,,,,,,,,,,,,,,,,,,,,,,,,,,,,,,,,,,,,,,,,,,,,,,,,,,,,,,,,,,,,
1,0,1,0,1,56,2020-07-04_15h50.25.284,retriever_ti,2020.1.3,Win32,60,Chrome,1366,768,,,,,,,,,,,,,,,,,,,,,,,,,,,,,,,,,,,,,,,,,,,,,,,,,,,,,,,,,,,,,,,,,,,,,,,,,,,,,,,,,,,,,,,,,,,,,,,,,,
2,0,2,0,1,56,2020-07-04_15h50.25.284,retriever_ti,2020.1.3,Win32,60,Chrome,1366,768,,,,,,,,,,,,,,,,,,,,,,,,,,,,,,,,,,,,,,,,,,,,,,,,,,,,,,,,,,,,,,,,,,,,,,,,,,,,,,,,,,,,,,,,,,,,,,,,,,
3,0,3,0,1,56,2020-07-04_15h50.25.284,retriever_ti,2020.1.3,Win32,60,Chrome,1366,768,,,,,,,,,,,,,,,,,,,,,,,,,,,,,,,,,,,,,,,,,,,,,,,,,,,,,,,,,,,,,,,,,,,,,,,,,,,,,,,,,,,,,,,,,,,,,,,,,,
4,0,4,0,1,56,2020-07-04_15h50.25.284,retriever_ti,2020.1.3,Win32,60,Chrome,1366,768,,,,,,,,,,,,,,,,,,,,,,,,,,,,,,,,,,,,,,,,,,,,,,,,,,,,,,,,,,,,,,,,,,,,,,,,,,,,,,,,,,,,,,,,,,,,,,,,,,
5,0,5,0,1,56,2020-07-04_15h50.25.284,retriever_ti,2020.1.3,Win32,60,Chrome,1366,768,,,,,,,,,,,,,,,,,,,,,,,,,,,,,,,,,,,,,,,,,,,,,,,,,,,,,,,,,,,,,,,,,,,,,,,,,,,,,,,,,,,,,,,,,,,,,,,,,,
6,0,6,0,1,56,2020-07-04_15h50.25.284,retriever_ti,2020.1.3,Win32,60,Chrome,1366,768,,,,,,,,,,,,,,,,,,,,,,,,,,,,,,,,,,,,,,,,,,,,,,,,,,,,,,,,,,,,,,,,,,,,,,,,,,,,,,,,,,,,,,,,,,,,,,,,,,
7,0,7,0,1,56,2020-07-04_15h50.25.284,retriever_ti,2020.1.3,Win32,60,Chrome,1366,768,,,,,,,,,,,,,,,,,,,,,,,,,,,,,,,,,,,,,,,,,,,,,,,,,,,,,,,,,,,,,,,,,,,,,,,,,,,,,,,,,,,,,,,,,,,,,,,,,,
8,0,8,0,1,56,2020-07-04_15h50.25.284,retriever_ti,2020.1.3,Win32,60,Chrome,1366,768,,,,,,,,,,,,,,,,,,,,,,,,,,,,,,,,,,,,,,,,,,,,,,,,,,,,,,,,,,,,,,,,,,,,,,,,,,,,,,,,,,,,,,,,,,,,,,,,,,
9,0,9,0,1,56,2020-07-04_15h50.25.284,retriever_ti,2020.1.3,Win32,60,Chrome,1366,768,,,,,,,,,,,,,,,,,,,,,,,,,,,,,,,,,,,,,,,,,,,,,,,,,,,,,,,,,,,,,,,,,,,,,,,,,,,,,,,,,,,,,,,,,,,,,,,,,,
10,0,10,0,1,56,2020-07-04_15h50.25.284,retriever_ti,2020.1.3,Win32,60,Chrome,1366,768,,,,,,,,,,,,,,,,,,,,,,,,,,,,,,,,,,,,,,,,,,,,,,,,,,,,,,,,,,,,,,,,,,,,,,,,,,,,,,,,,,,,,,,,,,,,,,,,,,
11,0,11,0,1,56,2020-07-04_15h50.25.284,retriever_ti,2020.1.3,Win32,60,Chrome,1366,768,,,,,,,,,,,,,,,,,,,,,,,,,,,,,,,,,,,,,,,,,,,,,,,,,,,,,,,,,,,,,,,,,,,,,,,,,,,,,,,,,,,,,,,,,,,,,,,,,,
12,0,12,0,1,56,2020-07-04_15h50.25.284,retriever_ti,2020.1.3,Win32,60,Chrome,1366,768,,,,,,,,,,,,,,,,,,,,,,,,,,,,,,,,,,,,,,,,,,,,,,,,,,,,,,,,,,,,,,,,,,,,,,,,,,,,,,,,,,,,,,,,,,,,,,,,,,
13,0,13,0,1,56,2020-07-04_15h50.25.284,retriever_ti,2020.1.3,Win32,60,Chrome,1366,768,,,,,,,,,,,,,,,,,,,,,,,,,,,,,,,,,,,,,,,,,,,,,,,,,,,,,,,,,,,,,,,,,,,,,,,,,,,,,,,,,,,,,,,,,,,,,,,,,,
14,0,14,0,1,56,2020-07-04_15h50.25.284,retriever_ti,2020.1.3,Win32,60,Chrome,1366,768,,,,,,,,,,,,,,,,,,,,,,,,,,,,,,,,,,,,,,,,,,,,,,,,,,,,,,,,,,,,,,,,,,,,,,,,,,,,,,,,,,,,,,,,,,,,,,,,,,
,,,,,56,2020-07-04_15h50.25.284,retriever_ti,2020.1.3,Win32,60,Chrome,1366,768,201.71806,1,NaN,NaN,No_response,2,201.738545,201.738545,204.229845,0,0,0,0,1,2,5,1,html/resources/stimuli_practice_decision/04_beetle.jpg,html/resources/stimuli_practice_decision/02_canary.jpg,beetle,canary,,,,,,,,,,,,,,,,,,,,,,,,,,,,,,,,,,,,,,,,,,,,,,,,,,,,,,,,,,,,,,,,,,,,,,,,,,,,,
,,,,,56,2020-07-04_15h50.25.284,retriever_ti,2020.1.3,Win32,60,Chrome,1366,768,204.748,2,left,1.46507,rabbit,1,204.782055,204.782055,207.273555,0,1,1,1,1,4,3,1,html/resources/stimuli_practice_decision/01_rabbit.jpg,html/resources/stimuli_practice_decision/07_sock.jpg,rabbit,sock,,,,,,,,,,,,,,,,,,,,,,,,,,,,,,,,,,,,,,,,,,,,,,,,,,,,,,,,,,,,,,,,,,,,,,,,,,,,,
,,,,,56,2020-07-04_15h50.25.284,retriever_ti,2020.1.3,Win32,60,Chrome,1366,768,208.27754,3,right,1.89453,beetle,0,208.311095,208.311095,210.80261,0,2,2,2,1,6,2,1,html/resources/stimuli_practice_decision/06_pullover.jpg,html/resources/stimuli_practice_decision/04_beetle.jpg,pullover,beetle,,,,,,,,,,,,,,,,,,,,,,,,,,,,,,,,,,,,,,,,,,,,,,,,,,,,,,,,,,,,,,,,,,,,,,,,,,,,,
,,,,,56,2020-07-04_15h50.25.284,retriever_ti,2020.1.3,Win32,60,Chrome,1366,768,211.30483,4,NaN,NaN,No_response,2,211.338415,211.338415,213.82998,0,3,3,3,1,7,1,1,html/resources/stimuli_practice_decision/05_glasses.jpg,html/resources/stimuli_practice_decision/08_handmixer.jpg,glasses,handmixer,,,,,,,,,,,,,,,,,,,,,,,,,,,,,,,,,,,,,,,,,,,,,,,,,,,,,,,,,,,,,,,,,,,,,,,,,,,,,
,,,,,56,2020-07-04_15h50.25.284,retriever_ti,2020.1.3,Win32,60,Chrome,1366,768,214.33185,5,left,1.22093,glasses,1,214.348935,214.348935,216.84055,0,4,4,4,1,7,6,1,html/resources/stimuli_practice_decision/05_glasses.jpg,html/resources/stimuli_practice_decision/06_pullover.jpg,glasses,pullover,,,,,,,,,,,,,,,,,,,,,,,,,,,,,,,,,,,,,,,,,,,,,,,,,,,,,,,,,,,,,,,,,,,,,,,,,,,,,
,,,,,56,2020-07-04_15h50.25.284,retriever_ti,2020.1.3,Win32,60,Chrome,1366,768,217.844485,6,right,1.445515,glasses,1,217.87809,217.87809,220.36959,0,5,5,5,1,4,7,1,html/resources/stimuli_practice_decision/01_rabbit.jpg,html/resources/stimuli_practice_decision/05_glasses.jpg,rabbit,glasses,,,,,,,,,,,,,,,,,,,,,,,,,,,,,,,,,,,,,,,,,,,,,,,,,,,,,,,,,,,,,,,,,,,,,,,,,,,,,
,,,,,56,2020-07-04_15h50.25.284,retriever_ti,2020.1.3,Win32,60,Chrome,1366,768,220.87153,7,left,1.25207,handmixer,0,220.88865,220.88865,223.38012,0,6,6,6,1,1,2,1,html/resources/stimuli_practice_decision/08_handmixer.jpg,html/resources/stimuli_practice_decision/04_beetle.jpg,handmixer,beetle,,,,,,,,,,,,,,,,,,,,,,,,,,,,,,,,,,,,,,,,,,,,,,,,,,,,,,,,,,,,,,,,,,,,,,,,,,,,,
,,,,,56,2020-07-04_15h50.25.284,retriever_ti,2020.1.3,Win32,60,Chrome,1366,768,224.384135,8,left,0.81492,rabbit,1,224.417705,224.417705,226.90919,0,7,7,7,1,4,3,1,html/resources/stimuli_practice_decision/01_rabbit.jpg,html/resources/stimuli_practice_decision/07_sock.jpg,rabbit,sock,,,,,,,,,,,,,,,,,,,,,,,,,,,,,,,,,,,,,,,,,,,,,,,,,,,,,,,,,,,,,,,,,,,,,,,,,,,,,
,,,,,56,2020-07-04_15h50.25.284,retriever_ti,2020.1.3,Win32,60,Chrome,1366,768,,,,,,,,,,,,,,,,,,,,,,down,1,3.0849,1,0,0,0,3,1,html/resources/sequences_IDs/triangle.png,star ↑,square →,triangle ↓,← circle,down,,,,,,,,,,,,,,,,,,,,,,,,,,,,,,,,,,,,,,,,,,,,,,,,,,,,,,,,,,,,,,
,,,,,56,2020-07-04_15h50.25.284,retriever_ti,2020.1.3,Win32,60,Chrome,1366,768,,,,,,,,,,,,,,,,,,,,,,up,1,1.209505,1,0,1,1,0,1,html/resources/sequences_IDs/circle.png,circle ↑,square →,triangle ↓,← star ,up,,,,,,,,,,,,,,,,,,,,,,,,,,,,,,,,,,,,,,,,,,,,,,,,,,,,,,,,,,,,,,
,,,,,56,2020-07-04_15h50.25.284,retriever_ti,2020.1.3,Win32,60,Chrome,1366,768,,,,,,,,,,,,,,,,,,,,,,left,1,2.489885,1,0,2,2,2,1,html/resources/sequences_IDs/square1.png,star ↑,triangle →,circle ↓,← square,left,,,,,,,,,,,,,,,,,,,,,,,,,,,,,,,,,,,,,,,,,,,,,,,,,,,,,,,,,,,,,,
,,,,,56,2020-07-04_15h50.25.284,retriever_ti,2020.1.3,Win32,60,Chrome,1366,768,,,,,,,,,,,,,,,,,,,,,,down,1,2.42281,1,0,3,3,1,1,html/resources/sequences_IDs/star.png,square ↑,circle →,star ↓,← triangle,down,,,,,,,,,,,,,,,,,,,,,,,,,,,,,,,,,,,,,,,,,,,,,,,,,,,,,,,,,,,,,,
,,,,,56,2020-07-04_15h50.25.284,retriever_ti,2020.1.3,Win32,60,Chrome,1366,768,,,,,,,,,,,,,,,,,,,,,,,,,,,,,,,,,,,,,0,9.92299,0,0,0,0,1,,,,,,,,,,,,,,,,,,,,,,,,,,,,,,,,,,,,,,,,,,,,,,,,,,,,,,,
,,,,,56,2020-07-04_15h50.25.284,retriever_ti,2020.1.3,Win32,60,Chrome,1366,768,252.628175,9,right,1.072245,glasses,1,252.65073,252.65073,255.14179,0,0,0,0,1,6,7,1,html/resources/stimuli_practice_decision/06_pullover.jpg,html/resources/stimuli_practice_decision/05_glasses.jpg,pullover,glasses,,,,,,,,,,,,,,,,,,,,,,,,,,,,,,,,,,,,,,,,,,,,,,,,,,,,,,,,,,,,,,,,,,,,,,,,,,,,,
,,,,,56,2020-07-04_15h50.25.284,retriever_ti,2020.1.3,Win32,60,Chrome,1366,768,256.14581,10,right,2.0906,beetle,0,256.17939,256.17939,258.670855,0,1,1,1,1,6,2,1,html/resources/stimuli_practice_decision/06_pullover.jpg,html/resources/stimuli_practice_decision/04_beetle.jpg,pullover,beetle,,,,,,,,,,,,,,,,,,,,,,,,,,,,,,,,,,,,,,,,,,,,,,,,,,,,,,,,,,,,,,,,,,,,,,,,,,,,,
,,,,,56,2020-07-04_15h50.25.284,retriever_ti,2020.1.3,Win32,60,Chrome,1366,768,259.172815,11,right,1.373995,pullover,1,259.20674,259.20674,261.69823,0,2,2,2,1,5,6,1,html/resources/stimuli_practice_decision/02_canary.jpg,html/resources/stimuli_practice_decision/06_pullover.jpg,canary,pullover,,,,,,,,,,,,,,,,,,,,,,,,,,,,,,,,,,,,,,,,,,,,,,,,,,,,,,,,,,,,,,,,,,,,,,,,,,,,,
,,,,,56,2020-07-04_15h50.25.284,retriever_ti,2020.1.3,Win32,60,Chrome,1366,768,262.70189,12,right,0.724935,glasses,0,262.718995,262.718995,265.21051,0,3,3,3,1,8,7,1,html/resources/stimuli_practice_decision/03_squirrel.jpg,html/resources/stimuli_practice_decision/05_glasses.jpg,squirrel,glasses,,,,,,,,,,,,,,,,,,,,,,,,,,,,,,,,,,,,,,,,,,,,,,,,,,,,,,,,,,,,,,,,,,,,,,,,,,,,,
,,,,,56,2020-07-04_15h50.25.284,retriever_ti,2020.1.3,Win32,60,Chrome,1366,768,266.214575,13,left,0.87122,canary,1,266.248095,266.248095,268.73956,0,4,4,4,1,5,3,1,html/resources/stimuli_practice_decision/02_canary.jpg,html/resources/stimuli_practice_decision/07_sock.jpg,canary,sock,,,,,,,,,,,,,,,,,,,,,,,,,,,,,,,,,,,,,,,,,,,,,,,,,,,,,,,,,,,,,,,,,,,,,,,,,,,,,
,,,,,56,2020-07-04_15h50.25.284,retriever_ti,2020.1.3,Win32,60,Chrome,1366,768,269.241805,14,left,0.67438,glasses,0,269.27543,269.27543,271.76687,0,5,5,5,1,7,8,1,html/resources/stimuli_practice_decision/05_glasses.jpg,html/resources/stimuli_practice_decision/03_squirrel.jpg,glasses,squirrel,,,,,,,,,,,,,,,,,,,,,,,,,,,,,,,,,,,,,,,,,,,,,,,,,,,,,,,,,,,,,,,,,,,,,,,,,,,,,
,,,,,56,2020-07-04_15h50.25.284,retriever_ti,2020.1.3,Win32,60,Chrome,1366,768,272.770615,15,left,1.681375,canary,1,272.787745,272.787745,275.27926,0,6,6,6,1,5,4,1,html/resources/stimuli_practice_decision/02_canary.jpg,html/resources/stimuli_practice_decision/01_rabbit.jpg,canary,rabbit,,,,,,,,,,,,,,,,,,,,,,,,,,,,,,,,,,,,,,,,,,,,,,,,,,,,,,,,,,,,,,,,,,,,,,,,,,,,,
,,,,,56,2020-07-04_15h50.25.284,retriever_ti,2020.1.3,Win32,60,Chrome,1366,768,276.28326,16,left,1.13154,canary,1,276.316835,276.316835,278.80833,0,7,7,7,1,5,3,1,html/resources/stimuli_practice_decision/02_canary.jpg,html/resources/stimuli_practice_decision/07_sock.jpg,canary,sock,,,,,,,,,,,,,,,,,,,,,,,,,,,,,,,,,,,,,,,,,,,,,,,,,,,,,,,,,,,,,,,,,,,,,,,,,,,,,
,,,,,56,2020-07-04_15h50.25.284,retriever_ti,2020.1.3,Win32,60,Chrome,1366,768,,,,,,,,,,,,,,,,,,,,,,up,1,1.665635,1,0,0,0,0,1,html/resources/sequences_IDs/circle.png,circle ↑,square →,triangle ↓,← star ,up,,,,,,,,,,,,,,,,,,,,,,,,,,,,,,,,,,,,,,,,,,,,,,,,,,,,,,,,,,,,,,
,,,,,56,2020-07-04_15h50.25.284,retriever_ti,2020.1.3,Win32,60,Chrome,1366,768,,,,,,,,,,,,,,,,,,,,,,left,1,1.219325,1,0,1,1,2,1,html/resources/sequences_IDs/square1.png,star ↑,triangle →,circle ↓,← square,left,,,,,,,,,,,,,,,,,,,,,,,,,,,,,,,,,,,,,,,,,,,,,,,,,,,,,,,,,,,,,,
,,,,,56,2020-07-04_15h50.25.284,retriever_ti,2020.1.3,Win32,60,Chrome,1366,768,,,,,,,,,,,,,,,,,,,,,,down,1,0.98346,1,0,2,2,1,1,html/resources/sequences_IDs/star.png,square ↑,circle →,star ↓,← triangle,down,,,,,,,,,,,,,,,,,,,,,,,,,,,,,,,,,,,,,,,,,,,,,,,,,,,,,,,,,,,,,,
,,,,,56,2020-07-04_15h50.25.284,retriever_ti,2020.1.3,Win32,60,Chrome,1366,768,,,,,,,,,,,,,,,,,,,,,,down,1,1.9974,1,0,3,3,3,1,html/resources/sequences_IDs/triangle.png,star ↑,square →,triangle ↓,← circle,down,,,,,,,,,,,,,,,,,,,,,,,,,,,,,,,,,,,,,,,,,,,,,,,,,,,,,,,,,,,,,,
,,,,,56,2020-07-04_15h50.25.284,retriever_ti,2020.1.3,Win32,60,Chrome,1366,768,,,,,,,,,,,,,,,,,,,,,,,,,,,,,,,,,,,,,0,4.828545,1,0,1,0,1,,,,,,,,,,,,,,,,,,,,,,,,,,,,,,,,,,,,,,,,,,,,,,,,,,,,,,,
,,,,,56,2020-07-04_15h50.25.284,retriever_ti,2020.1.3,Win32,60,Chrome,1366,768,,,,,,,,,,,,,,,,,1,,,,,,,,,,,,,,,,,,,,,,,,,,,300.037425,1,left,1.00755,seaturtle     ,7,2,-1,0,0,300.06741,300.06741,302.559055,0,0,0,0,1,1,7,8,seaturtle     ,phone       ,html/resources/sequences_IDs/A/02_seaturtle.jpg,html/resources/sequences_IDs/B/09_phone.jpg,2,9,2,1,4,2,2,7,0,56,,,,,,,,,,,,,,,,,,,,
,,,,,56,2020-07-04_15h50.25.284,retriever_ti,2020.1.3,Win32,60,Chrome,1366,768,,,,,,,,,,,,,,,,,1,,,,,,,,,,,,,,,,,,,,,,,,,,,303.66301,2,left,0.957455,phone       ,8,9,7,1,3,303.67976,303.67976,306.171205,0,1,1,1,1,2,8,1,phone       ,peacock       ,html/resources/sequences_IDs/B/09_phone.jpg,html/resources/sequences_IDs/A/05_peacock.jpg,9,5,4,2,2,1,7,4,0,56,,,,,,,,,,,,,,,,,,,,
,,,,,56,2020-07-04_15h50.25.284,retriever_ti,2020.1.3,Win32,60,Chrome,1366,768,,,,,,,,,,,,,,,,,1,,,,,,,,,,,,,,,,,,,,,,,,,,,306.77352,3,left,2.343295,slipper     ,6,8,1,1,1,306.8074,306.8074,309.298845,0,2,2,2,1,3,6,5,slipper     ,camel         ,html/resources/sequences_IDs/B/08_slipper.jpg,html/resources/sequences_IDs/A/03_camel.jpg,8,3,3,2,1,1,6,3,0,56,,,,,,,,,,,,,,,,,,,,
,,,,,56,2020-07-04_15h50.25.284,retriever_ti,2020.1.3,Win32,60,Chrome,1366,768,,,,,,,,,,,,,,,,,1,,,,,,,,,,,,,,,,,,,,,,,,,,,310.403,4,left,1.37423,phone       ,8,9,6,1,3,310.420005,310.420005,312.911555,0,3,3,3,1,4,8,2,phone       ,gloves      ,html/resources/sequences_IDs/B/09_phone.jpg,html/resources/sequences_IDs/B/06_gloves.jpg,9,6,4,2,3,2,7,5,0,56,,,,,,,,,,,,,,,,,,,,
,,,,,56,2020-07-04_15h50.25.284,retriever_ti,2020.1.3,Win32,60,Chrome,1366,768,,,,,,,,,,,,,,,,,1,,,,,,,,,,,,,,,,,,,,,,,,,,,313.514155,5,left,1.227245,slipper     ,6,8,-2,0,3,313.54772,313.54772,316.03928,0,4,4,4,1,5,6,8,slipper     ,phone       ,html/resources/sequences_IDs/B/08_slipper.jpg,html/resources/sequences_IDs/B/09_phone.jpg,8,9,3,2,4,2,6,7,0,56,,,,,,,,,,,,,,,,,,,,
,,,,,56,2020-07-04_15h50.25.284,retriever_ti,2020.1.3,Win32,60,Chrome,1366,768,,,,,,,,,,,,,,,,,1,,,,,,,,,,,,,,,,,,,,,,,,,,,316.64158,6,left,0.96702,slipper     ,6,8,1,1,1,316.65869,316.65869,319.15023,0,5,5,5,1,6,6,5,slipper     ,camel         ,html/resources/sequences_IDs/B/08_slipper.jpg,html/resources/sequences_IDs/A/03_camel.jpg,8,3,3,2,1,1,6,3,0,56,,,,,,,,,,,,,,,,,,,,
,,,,,56,2020-07-04_15h50.25.284,retriever_ti,2020.1.3,Win32,60,Chrome,1366,768,,,,,,,,,,,,,,,,,1,,,,,,,,,,,,,,,,,,,,,,,,,,,320.254535,7,left,1.26451,slipper     ,6,8,3,1,3,320.288065,320.288065,322.779535,0,6,6,6,1,7,6,3,slipper     ,wolf          ,html/resources/sequences_IDs/B/08_slipper.jpg,html/resources/sequences_IDs/A/01_wolf.jpg,8,1,3,2,1,1,6,1,0,56,,,,,,,,,,,,,,,,,,,,
,,,,,56,2020-07-04_15h50.25.284,retriever_ti,2020.1.3,Win32,60,Chrome,1366,768,,,,,,,,,,,,,,,,,1,,,,,,,,,,,,,,,,,,,,,,,,,,,323.382235,8,left,1.4456,phone       ,8,9,3,1,3,323.399,323.399,325.89053,0,7,7,7,1,8,8,5,phone       ,camel         ,html/resources/sequences_IDs/B/09_phone.jpg,html/resources/sequences_IDs/A/03_camel.jpg,9,3,4,2,1,1,7,3,0,56,,,,,,,,,,,,,,,,,,,,
,,,,,56,2020-07-04_15h50.25.284,retriever_ti,2020.1.3,Win32,60,Chrome,1366,768,,,,,,,,,,,,,,,,,1,,,,,,,,,,,,,,,,,,,,,,,,,,,326.492875,9,left,1.51766,peacock       ,1,5,-3,0,3,326.526675,326.526675,329.01816,0,8,8,8,1,9,1,4,peacock       ,radio       ,html/resources/sequences_IDs/A/05_peacock.jpg,html/resources/sequences_IDs/B/10_radio.jpg,5,10,2,1,4,2,4,8,0,56,,,,,,,,,,,,,,,,,,,,
,,,,,56,2020-07-04_15h50.25.284,retriever_ti,2020.1.3,Win32,60,Chrome,1366,768,,,,,,,,,,,,,,,,,1,,,,,,,,,,,,,,,,,,,,,,,,,,,329.620795,10,right,1.160095,slipper     ,6,8,1,1,1,329.65429,329.65429,332.14583,0,9,9,9,1,10,5,6,camel         ,slipper     ,html/resources/sequences_IDs/A/03_camel.jpg,html/resources/sequences_IDs/B/08_slipper.jpg,3,8,1,1,3,2,3,6,0,56,,,,,,,,,,,,,,,,,,,,
,,,,,56,2020-07-04_15h50.25.284,retriever_ti,2020.1.3,Win32,60,Chrome,1366,768,,,,,,,,,,,,,,,,,1,,,,,,,,,,,,,,,,,,,,,,,,,,,333.25024,11,NaN,NaN,No_response,NaN,NaN,NaN,2,2,333.267105,333.267105,335.758685,0,10,10,10,1,11,3,4,wolf          ,radio       ,html/resources/sequences_IDs/A/01_wolf.jpg,html/resources/sequences_IDs/B/10_radio.jpg,1,10,1,1,4,2,1,8,0,56,,,,,,,,,,,,,,,,,,,,
,,,,,56,2020-07-04_15h50.25.284,retriever_ti,2020.1.3,Win32,60,Chrome,1366,768,,,,,,,,,,,,,,,,,1,,,,,,,,,,,,,,,,,,,,,,,,,,,336.86294,12,right,0.87143,slipper     ,6,8,-1,0,1,336.8797,336.8797,339.371265,0,11,11,11,1,12,7,6,seaturtle     ,slipper     ,html/resources/sequences_IDs/A/02_seaturtle.jpg,html/resources/sequences_IDs/B/08_slipper.jpg,2,8,2,1,3,2,2,6,1,56,,,,,,,,,,,,,,,,,,,,
,,,,,56,2020-07-04_15h50.25.284,retriever_ti,2020.1.3,Win32,60,Chrome,1366,768,,,,,,,,,,,,,,,,,1,,,,,,,,,,,,,,,,,,,,,,,,,,,340.475325,13,right,1.683055,gloves      ,2,6,1,1,1,340.49246,340.49246,342.9839,0,12,12,12,1,13,1,2,peacock       ,gloves      ,html/resources/sequences_IDs/A/05_peacock.jpg,html/resources/sequences_IDs/B/06_gloves.jpg,5,6,2,1,3,2,4,5,0,56,,,,,,,,,,,,,,,,,,,,
,,,,,56,2020-07-04_15h50.25.284,retriever_ti,2020.1.3,Win32,60,Chrome,1366,768,,,,,,,,,,,,,,,,,1,,,,,,,,,,,,,,,,,,,,,,,,,,,344.088285,14,right,0.52016,gloves      ,2,6,1,1,1,344.12191,344.12191,346.61333,0,13,13,13,1,14,1,2,peacock       ,gloves      ,html/resources/sequences_IDs/A/05_peacock.jpg,html/resources/sequences_IDs/B/06_gloves.jpg,5,6,2,1,3,2,4,5,0,56,,,,,,,,,,,,,,,,,,,,
,,,,,56,2020-07-04_15h50.25.284,retriever_ti,2020.1.3,Win32,60,Chrome,1366,768,,,,,,,,,,,,,,,,,1,,,,,,,,,,,,,,,,,,,,,,,,,,,347.717755,15,right,1.45171,wolf          ,3,1,2,1,3,347.751285,347.751285,350.242775,0,14,14,14,1,15,1,3,peacock       ,wolf          ,html/resources/sequences_IDs/A/05_peacock.jpg,html/resources/sequences_IDs/A/01_wolf.jpg,5,1,2,1,1,1,4,1,0,56,,,,,,,,,,,,,,,,,,,,
,,,,,56,2020-07-04_15h50.25.284,retriever_ti,2020.1.3,Win32,60,Chrome,1366,768,,,,,,,,,,,,,,,,,1,,,,,,,,,,,,,,,,,,,,,,,,,,,350.84535,16,left,1.953165,peacock       ,1,5,-4,0,3,350.87893,350.87893,353.3705,0,15,15,15,1,16,1,5,peacock       ,camel         ,html/resources/sequences_IDs/A/05_peacock.jpg,html/resources/sequences_IDs/A/03_camel.jpg,5,3,2,1,1,1,4,3,0,56,,,,,,,,,,,,,,,,,,,,
,,,,,56,2020-07-04_15h50.25.284,retriever_ti,2020.1.3,Win32,60,Chrome,1366,768,,,,,,,,,,,,,,,,,1,,,,,,,,,,,,,,,,,,,,,,,,,,,353.97283,17,right,1.95222,wolf          ,3,1,-2,0,3,353.989855,353.989855,356.48139,0,16,16,16,1,17,5,3,camel         ,wolf          ,html/resources/sequences_IDs/A/03_camel.jpg,html/resources/sequences_IDs/A/01_wolf.jpg,3,1,1,1,1,1,3,1,0,56,,,,,,,,,,,,,,,,,,,,
,,,,,56,2020-07-04_15h50.25.284,retriever_ti,2020.1.3,Win32,60,Chrome,1366,768,,,,,,,,,,,,,,,,,1,,,,,,,,,,,,,,,,,,,,,,,,,,,357.08399,18,right,1.916995,seaturtle     ,7,2,3,1,3,357.10083,357.10083,359.592285,0,17,17,17,1,18,4,7,radio       ,seaturtle     ,html/resources/sequences_IDs/B/10_radio.jpg,html/resources/sequences_IDs/A/02_seaturtle.jpg,10,2,4,2,2,1,8,2,0,56,,,,,,,,,,,,,,,,,,,,
,,,,,56,2020-07-04_15h50.25.284,retriever_ti,2020.1.3,Win32,60,Chrome,1366,768,,,,,,,,,,,,,,,,,1,,,,,,,,,,,,,,,,,,,,,,,,,,,360.196155,19,right,0.663825,slipper     ,6,8,1,1,1,360.22847,360.22847,362.720065,0,18,18,18,1,19,5,6,camel         ,slipper     ,html/resources/sequences_IDs/A/03_camel.jpg,html/resources/sequences_IDs/B/08_slipper.jpg,3,8,1,1,3,2,3,6,0,56,,,,,,,,,,,,,,,,,,,,
,,,,,56,2020-07-04_15h50.25.284,retriever_ti,2020.1.3,Win32,60,Chrome,1366,768,,,,,,,,,,,,,,,,,1,,,,,,,,,,,,,,,,,,,,,,,,,,,363.825015,20,left,0.966155,gloves      ,2,6,-5,0,3,363.85813,363.85813,366.349405,0,19,19,19,1,20,2,7,gloves      ,seaturtle     ,html/resources/sequences_IDs/B/06_gloves.jpg,html/resources/sequences_IDs/A/02_seaturtle.jpg,6,2,3,2,2,1,5,2,0,56,,,,,,,,,,,,,,,,,,,,
,,,,,56,2020-07-04_15h50.25.284,retriever_ti,2020.1.3,Win32,60,Chrome,1366,768,,,,,,,,,,,,,,,,,1,,,,,,,,,,,,,,,,,,,,,,,,,,,366.951985,21,right,1.22396,peacock       ,1,5,-4,0,3,366.9856,366.9856,369.477045,0,20,20,20,1,21,5,1,camel         ,peacock       ,html/resources/sequences_IDs/A/03_camel.jpg,html/resources/sequences_IDs/A/05_peacock.jpg,3,5,1,1,2,1,3,4,0,56,,,,,,,,,,,,,,,,,,,,
,,,,,56,2020-07-04_15h50.25.284,retriever_ti,2020.1.3,Win32,60,Chrome,1366,768,,,,,,,,,,,,,,,,,1,,,,,,,,,,,,,,,,,,,,,,,,,,,370.07942,22,left,0.6272,wolf          ,3,1,-1,0,0,370.113245,370.113245,372.60477,0,21,21,21,1,22,3,4,wolf          ,radio       ,html/resources/sequences_IDs/A/01_wolf.jpg,html/resources/sequences_IDs/B/10_radio.jpg,1,10,1,1,4,2,1,8,0,56,,,,,,,,,,,,,,,,,,,,
,,,,,56,2020-07-04_15h50.25.284,retriever_ti,2020.1.3,Win32,60,Chrome,1366,768,,,,,,,,,,,,,,,,,1,,,,,,,,,,,,,,,,,,,,,,,,,,,373.709175,23,right,1.364815,phone       ,8,9,3,1,3,373.742655,373.742655,376.234165,0,22,22,22,1,23,5,8,camel         ,phone       ,html/resources/sequences_IDs/A/03_camel.jpg,html/resources/sequences_IDs/B/09_phone.jpg,3,9,1,1,4,2,3,7,0,56,,,,,,,,,,,,,,,,,,,,
,,,,,56,2020-07-04_15h50.25.284,retriever_ti,2020.1.3,Win32,60,Chrome,1366,768,,,,,,,,,,,,,,,,,1,,,,,,,,,,,,,,,,,,,,,,,,,,,376.836835,24,left,1.419585,wolf          ,3,1,1,1,1,376.87033,376.87033,379.361795,0,23,23,23,1,24,3,2,wolf          ,gloves      ,html/resources/sequences_IDs/A/01_wolf.jpg,html/resources/sequences_IDs/B/06_gloves.jpg,1,6,1,1,3,2,1,5,0,56,,,,,,,,,,,,,,,,,,,,
,,,,,56,2020-07-04_15h50.25.284,retriever_ti,2020.1.3,Win32,60,Chrome,1366,768,,,,,,,,,,,,,,,,,1,,,,,,,,,,,,,,,,,,,,,,,,,,,380.46599,25,left,0.8762,phone       ,8,9,4,1,3,380.49974,380.49974,382.99128,0,24,24,24,1,25,8,4,phone       ,radio       ,html/resources/sequences_IDs/B/09_phone.jpg,html/resources/sequences_IDs/B/10_radio.jpg,9,10,4,2,4,2,7,8,0,56,,,,,,,,,,,,,,,,,,,,
,,,,,56,2020-07-04_15h50.25.284,retriever_ti,2020.1.3,Win32,60,Chrome,1366,768,,,,,,,,,,,,,,,,,1,,,,,,,,,,,,,,,,,,,,,,,,,,,383.593865,26,left,1.351115,seaturtle     ,7,2,5,1,3,383.61069,383.61069,386.102155,0,25,25,25,1,26,7,2,seaturtle     ,gloves      ,html/resources/sequences_IDs/A/02_seaturtle.jpg,html/resources/sequences_IDs/B/06_gloves.jpg,2,6,2,1,3,2,2,5,0,56,,,,,,,,,,,,,,,,,,,,
,,,,,56,2020-07-04_15h50.25.284,retriever_ti,2020.1.3,Win32,60,Chrome,1366,768,,,,,,,,,,,,,,,,,1,,,,,,,,,,,,,,,,,,,,,,,,,,,386.704535,27,right,0.955375,phone       ,8,9,7,1,3,386.721655,386.721655,389.213145,0,26,26,26,1,27,1,8,peacock       ,phone       ,html/resources/sequences_IDs/A/05_peacock.jpg,html/resources/sequences_IDs/B/09_phone.jpg,5,9,2,1,4,2,4,7,0,56,,,,,,,,,,,,,,,,,,,,
,,,,,56,2020-07-04_15h50.25.284,retriever_ti,2020.1.3,Win32,60,Chrome,1366,768,,,,,,,,,,,,,,,,,1,,,,,,,,,,,,,,,,,,,,,,,,,,,389.815775,28,right,1.139365,slipper     ,6,8,4,1,3,389.849365,389.849365,392.340815,0,27,27,27,1,28,2,6,gloves      ,slipper     ,html/resources/sequences_IDs/B/06_gloves.jpg,html/resources/sequences_IDs/B/08_slipper.jpg,6,8,3,2,3,2,5,6,0,56,,,,,,,,,,,,,,,,,,,,
,,,,,56,2020-07-04_15h50.25.284,retriever_ti,2020.1.3,Win32,60,Chrome,1366,768,,,,,,,,,,,,,,,,,1,,,,,,,,,,,,,,,,,,,,,,,,,,,392.9434,29,left,0.59551,slipper     ,6,8,-1,0,0,392.960275,392.960275,395.451725,0,28,28,28,1,29,6,7,slipper     ,seaturtle     ,html/resources/sequences_IDs/B/08_slipper.jpg,html/resources/sequences_IDs/A/02_seaturtle.jpg,8,2,3,2,2,1,6,2,0,56,,,,,,,,,,,,,,,,,,,,
,,,,,56,2020-07-04_15h50.25.284,retriever_ti,2020.1.3,Win32,60,Chrome,1366,768,,,,,,,,,,,,,,,,,1,,,,,,,,,,,,,,,,,,,,,,,,,,,396.555845,30,right,0.735125,seaturtle     ,7,2,6,1,3,396.58967,396.58967,399.08116,0,29,29,29,1,30,1,7,peacock       ,seaturtle     ,html/resources/sequences_IDs/A/05_peacock.jpg,html/resources/sequences_IDs/A/02_seaturtle.jpg,5,2,2,1,2,1,4,2,0,56,,,,,,,,,,,,,,,,,,,,
,,,,,56,2020-07-04_15h50.25.284,retriever_ti,2020.1.3,Win32,60,Chrome,1366,768,,,,,,,,,,,,,,,,,1,,,,,,,,,,,,,,,,,,,,,,,,,,,399.683815,31,left,0.64754,seaturtle     ,7,2,-1,0,0,399.700575,399.700575,402.19211,0,30,30,30,1,31,7,8,seaturtle     ,phone       ,html/resources/sequences_IDs/A/02_seaturtle.jpg,html/resources/sequences_IDs/B/09_phone.jpg,2,9,2,1,4,2,2,7,0,56,,,,,,,,,,,,,,,,,,,,
,,,,,56,2020-07-04_15h50.25.284,retriever_ti,2020.1.3,Win32,60,Chrome,1366,768,,,,,,,,,,,,,,,,,1,,,,,,,,,,,,,,,,,,,,,,,,,,,403.29656,32,left,0.72712,phone       ,8,9,1,1,1,403.330015,403.330015,405.8216,0,31,31,31,1,32,8,7,phone       ,seaturtle     ,html/resources/sequences_IDs/B/09_phone.jpg,html/resources/sequences_IDs/A/02_seaturtle.jpg,9,2,4,2,2,1,7,2,0,56,,,,,,,,,,,,,,,,,,,,
,,,,,56,2020-07-04_15h50.25.284,retriever_ti,2020.1.3,Win32,60,Chrome,1366,768,,,,,,,,,,,,,,,,,1,,,,,,,,,,,,,,,,,,,,,,,,,,,406.925915,33,left,1.344215,seaturtle     ,7,2,3,1,3,406.959485,406.959485,409.450955,0,32,32,32,1,33,7,4,seaturtle     ,radio       ,html/resources/sequences_IDs/A/02_seaturtle.jpg,html/resources/sequences_IDs/B/10_radio.jpg,2,10,2,1,4,2,2,8,0,56,,,,,,,,,,,,,,,,,,,,
,,,,,56,2020-07-04_15h50.25.284,retriever_ti,2020.1.3,Win32,60,Chrome,1366,768,,,,,,,,,,,,,,,,,1,,,,,,,,,,,,,,,,,,,,,,,,,,,410.053295,34,right,0.78344,wolf          ,3,1,-1,0,0,410.07042,410.07042,412.56195,0,33,33,33,1,34,4,3,radio       ,wolf          ,html/resources/sequences_IDs/B/10_radio.jpg,html/resources/sequences_IDs/A/01_wolf.jpg,10,1,4,2,1,1,8,1,0,56,,,,,,,,,,,,,,,,,,,,
,,,,,56,2020-07-04_15h50.25.284,retriever_ti,2020.1.3,Win32,60,Chrome,1366,768,,,,,,,,,,,,,,,,,1,,,,,,,,,,,,,,,,,,,,,,,,,,,413.666285,35,right,1.41356,seaturtle     ,7,2,4,1,3,413.68305,413.68305,416.17457,0,34,34,34,1,35,3,7,wolf          ,seaturtle     ,html/resources/sequences_IDs/A/01_wolf.jpg,html/resources/sequences_IDs/A/02_seaturtle.jpg,1,2,1,1,2,1,1,2,0,56,,,,,,,,,,,,,,,,,,,,
,,,,,56,2020-07-04_15h50.25.284,retriever_ti,2020.1.3,Win32,60,Chrome,1366,768,,,,,,,,,,,,,,,,,1,,,,,,,,,,,,,,,,,,,,,,,,,,,416.77693,36,right,1.46773,radio       ,4,10,-1,0,0,416.81078,416.81078,419.302235,0,35,35,35,1,36,5,4,camel         ,radio       ,html/resources/sequences_IDs/A/03_camel.jpg,html/resources/sequences_IDs/B/10_radio.jpg,3,10,1,1,4,2,3,8,0,56,,,,,,,,,,,,,,,,,,,,
,,,,,56,2020-07-04_15h50.25.284,retriever_ti,2020.1.3,Win32,60,Chrome,1366,768,,,,,,,,,,,,,,,,,1,,,,,,,,,,,,,,,,,,,,,,,,,,,420.40662,37,NaN,NaN,No_response,NaN,NaN,NaN,2,2,420.423415,420.423415,422.91496,0,36,36,36,1,37,8,3,phone       ,wolf          ,html/resources/sequences_IDs/B/09_phone.jpg,html/resources/sequences_IDs/A/01_wolf.jpg,9,1,4,2,1,1,7,1,0,56,,,,,,,,,,,,,,,,,,,,
,,,,,56,2020-07-04_15h50.25.284,retriever_ti,2020.1.3,Win32,60,Chrome,1366,768,,,,,,,,,,,,,,,,,1,,,,,,,,,,,,,,,,,,,,,,,,,,,424.019425,38,right,1.171295,radio       ,4,10,-1,0,0,424.052865,424.052865,426.544395,0,37,37,37,1,38,5,4,camel         ,radio       ,html/resources/sequences_IDs/A/03_camel.jpg,html/resources/sequences_IDs/B/10_radio.jpg,3,10,1,1,4,2,3,8,0,56,,,,,,,,,,,,,,,,,,,,
,,,,,56,2020-07-04_15h50.25.284,retriever_ti,2020.1.3,Win32,60,Chrome,1366,768,,,,,,,,,,,,,,,,,1,,,,,,,,,,,,,,,,,,,,,,,,,,,427.64878,39,right,0.655675,slipper     ,6,8,2,1,3,427.682285,427.682285,430.17381,0,38,38,38,1,39,4,6,radio       ,slipper     ,html/resources/sequences_IDs/B/10_radio.jpg,html/resources/sequences_IDs/B/08_slipper.jpg,10,8,4,2,3,2,8,6,0,56,,,,,,,,,,,,,,,,,,,,
,,,,,56,2020-07-04_15h50.25.284,retriever_ti,2020.1.3,Win32,60,Chrome,1366,768,,,,,,,,,,,,,,,,,1,,,,,,,,,,,,,,,,,,,,,,,,,,,430.77621,40,right,0.683955,slipper     ,6,8,-1,0,0,430.809965,430.809965,433.30146,0,39,39,39,1,40,7,6,seaturtle     ,slipper     ,html/resources/sequences_IDs/A/02_seaturtle.jpg,html/resources/sequences_IDs/B/08_slipper.jpg,2,8,2,1,3,2,2,6,0,56,,,,,,,,,,,,,,,,,,,,
,,,,,56,2020-07-04_15h50.25.284,retriever_ti,2020.1.3,Win32,60,Chrome,1366,768,,,,,,,,,,,,,,,,,1,,,,,,,,,,,,,,,,,,,,,,,,,,,434.405815,41,left,0.697795,seaturtle     ,7,2,1,1,1,434.43939,434.43939,436.930885,0,40,40,40,1,41,7,6,seaturtle     ,slipper     ,html/resources/sequences_IDs/A/02_seaturtle.jpg,html/resources/sequences_IDs/B/08_slipper.jpg,2,8,2,1,3,2,2,6,0,56,,,,,,,,,,,,,,,,,,,,
,,,,,56,2020-07-04_15h50.25.284,retriever_ti,2020.1.3,Win32,60,Chrome,1366,768,,,,,,,,,,,,,,,,,1,,,,,,,,,,,,,,,,,,,,,,,,,,,438.03531,42,right,0.66844,seaturtle     ,7,2,1,1,1,438.068855,438.068855,440.560315,0,41,41,41,1,42,6,7,slipper     ,seaturtle     ,html/resources/sequences_IDs/B/08_slipper.jpg,html/resources/sequences_IDs/A/02_seaturtle.jpg,8,2,3,2,2,1,6,2,0,56,,,,,,,,,,,,,,,,,,,,
,,,,,56,2020-07-04_15h50.25.284,retriever_ti,2020.1.3,Win32,60,Chrome,1366,768,,,,,,,,,,,,,,,,,1,,,,,,,,,,,,,,,,,,,,,,,,,,,441.6647,43,left,1.805895,wolf          ,3,1,1,1,0,441.681585,441.681585,444.172995,0,42,42,42,1,43,3,2,wolf          ,gloves      ,html/resources/sequences_IDs/A/01_wolf.jpg,html/resources/sequences_IDs/B/06_gloves.jpg,1,6,1,1,3,2,1,5,1,56,,,,,,,,,,,,,,,,,,,,
,,,,,56,2020-07-04_15h50.25.284,retriever_ti,2020.1.3,Win32,60,Chrome,1366,768,,,,,,,,,,,,,,,,,1,,,,,,,,,,,,,,,,,,,,,,,,,,,445.27744,44,right,1.121915,gloves      ,2,6,-4,0,3,445.31121,445.31121,447.80242,0,43,43,43,1,44,6,2,slipper     ,gloves      ,html/resources/sequences_IDs/B/08_slipper.jpg,html/resources/sequences_IDs/B/06_gloves.jpg,8,6,3,2,3,2,6,5,0,56,,,,,,,,,,,,,,,,,,,,
,,,,,56,2020-07-04_15h50.25.284,retriever_ti,2020.1.3,Win32,60,Chrome,1366,768,,,,,,,,,,,,,,,,,1,,,,,,,,,,,,,,,,,,,,,,,,,,,448.404825,45,left,1.15205,seaturtle     ,7,2,-1,0,1,448.43862,448.43862,450.930165,0,44,44,44,1,45,7,8,seaturtle     ,phone       ,html/resources/sequences_IDs/A/02_seaturtle.jpg,html/resources/sequences_IDs/B/09_phone.jpg,2,9,2,1,4,2,2,7,1,56,,,,,,,,,,,,,,,,,,,,
,,,,,56,2020-07-04_15h50.25.284,retriever_ti,2020.1.3,Win32,60,Chrome,1366,768,,,,,,,,,,,,,,,,,1,,,,,,,,,,,,,,,,,,,,,,,,,,,452.03454,46,right,1.441905,camel         ,5,3,1,1,1,452.051355,452.051355,454.5428,0,45,45,45,1,46,4,5,radio       ,camel         ,html/resources/sequences_IDs/B/10_radio.jpg,html/resources/sequences_IDs/A/03_camel.jpg,10,3,4,2,1,1,8,3,0,56,,,,,,,,,,,,,,,,,,,,
,,,,,56,2020-07-04_15h50.25.284,retriever_ti,2020.1.3,Win32,60,Chrome,1366,768,,,,,,,,,,,,,,,,,1,,,,,,,,,,,,,,,,,,,,,,,,,,,455.647175,47,right,0.94167,camel         ,5,3,2,1,3,455.66397,455.66397,458.155545,0,46,46,46,1,47,3,5,wolf          ,camel         ,html/resources/sequences_IDs/A/01_wolf.jpg,html/resources/sequences_IDs/A/03_camel.jpg,1,3,1,1,1,1,1,3,0,56,,,,,,,,,,,,,,,,,,,,
,,,,,56,2020-07-04_15h50.25.284,retriever_ti,2020.1.3,Win32,60,Chrome,1366,768,,,,,,,,,,,,,,,,,1,,,,,,,,,,,,,,,,,,,,,,,,,,,458.75804,48,left,1.493725,gloves      ,2,6,-2,0,3,458.775175,458.775175,461.26648,0,47,47,47,1,48,2,4,gloves      ,radio       ,html/resources/sequences_IDs/B/06_gloves.jpg,html/resources/sequences_IDs/B/10_radio.jpg,6,10,3,2,4,2,5,8,0,56,,,,,,,,,,,,,,,,,,,,
,,,,,56,2020-07-04_15h50.25.284,retriever_ti,2020.1.3,Win32,60,Chrome,1366,768,,,,,,,,,,,,,,,,,1,,,,,,,,,,,,,,,,,,,,,,,,,,,461.869115,49,right,0.48644,gloves      ,2,6,-1,0,0,461.885945,461.885945,464.377375,0,48,48,48,1,49,3,2,wolf          ,gloves      ,html/resources/sequences_IDs/A/01_wolf.jpg,html/resources/sequences_IDs/B/06_gloves.jpg,1,6,1,1,3,2,1,5,0,56,,,,,,,,,,,,,,,,,,,,
,,,,,56,2020-07-04_15h50.25.284,retriever_ti,2020.1.3,Win32,60,Chrome,1366,768,,,,,,,,,,,,,,,,,1,,,,,,,,,,,,,,,,,,,,,,,,,,,465.481745,50,left,2.23906,gloves      ,2,6,1,1,1,465.51533,465.51533,468.00686,0,49,49,49,1,50,2,1,gloves      ,peacock       ,html/resources/sequences_IDs/B/06_gloves.jpg,html/resources/sequences_IDs/A/05_peacock.jpg,6,5,3,2,2,1,5,4,0,56,,,,,,,,,,,,,,,,,,,,
,,,,,56,2020-07-04_15h50.25.284,retriever_ti,2020.1.3,Win32,60,Chrome,1366,768,,,,,,,,,,,,,,,,,1,,,,,,,,,,,,,,,,,,,,,,,,,,,469.111265,51,right,1.03459,seaturtle     ,7,2,2,1,3,469.144695,469.144695,471.63625,0,50,50,50,1,51,5,7,camel         ,seaturtle     ,html/resources/sequences_IDs/A/03_camel.jpg,html/resources/sequences_IDs/A/02_seaturtle.jpg,3,2,1,1,2,1,3,2,0,56,,,,,,,,,,,,,,,,,,,,
,,,,,56,2020-07-04_15h50.25.284,retriever_ti,2020.1.3,Win32,60,Chrome,1366,768,,,,,,,,,,,,,,,,,1,,,,,,,,,,,,,,,,,,,,,,,,,,,472.238575,52,left,1.14954,slipper     ,6,8,2,1,3,472.27246,472.27246,474.763875,0,51,51,51,1,52,6,4,slipper     ,radio       ,html/resources/sequences_IDs/B/08_slipper.jpg,html/resources/sequences_IDs/B/10_radio.jpg,8,10,3,2,4,2,6,8,0,56,,,,,,,,,,,,,,,,,,,,
,,,,,56,2020-07-04_15h50.25.284,retriever_ti,2020.1.3,Win32,60,Chrome,1366,768,,,,,,,,,,,,,,,,,1,,,,,,,,,,,,,,,,,,,,,,,,,,,475.36653,53,left,1.274395,camel         ,5,3,3,1,3,475.38335,475.38335,477.87484,0,52,52,52,1,53,5,2,camel         ,gloves      ,html/resources/sequences_IDs/A/03_camel.jpg,html/resources/sequences_IDs/B/06_gloves.jpg,3,6,1,1,3,2,3,5,0,56,,,,,,,,,,,,,,,,,,,,
,,,,,56,2020-07-04_15h50.25.284,retriever_ti,2020.1.3,Win32,60,Chrome,1366,768,,,,,,,,,,,,,,,,,1,,,,,,,,,,,,,,,,,,,,,,,,,,,478.4772,54,left,1.06346,wolf          ,3,1,-3,0,3,478.4943,478.4943,480.985765,0,53,53,53,1,54,3,6,wolf          ,slipper     ,html/resources/sequences_IDs/A/01_wolf.jpg,html/resources/sequences_IDs/B/08_slipper.jpg,1,8,1,1,3,2,1,6,0,56,,,,,,,,,,,,,,,,,,,,
,,,,,56,2020-07-04_15h50.25.284,retriever_ti,2020.1.3,Win32,60,Chrome,1366,768,,,,,,,,,,,,,,,,,1,,,,,,,,,,,,,,,,,,,,,,,,,,,481.58839,55,left,0.8765,slipper     ,6,8,5,1,3,481.605185,481.605185,484.096705,0,54,54,54,1,55,6,1,slipper     ,peacock       ,html/resources/sequences_IDs/B/08_slipper.jpg,html/resources/sequences_IDs/A/05_peacock.jpg,8,5,3,2,2,1,6,4,0,56,,,,,,,,,,,,,,,,,,,,
,,,,,56,2020-07-04_15h50.25.284,retriever_ti,2020.1.3,Win32,60,Chrome,1366,768,,,,,,,,,,,,,,,,,1,,,,,,,,,,,,,,,,,,,,,,,,,,,484.699035,56,right,1.204555,camel         ,5,3,3,1,3,484.73287,484.73287,487.22437,0,55,55,55,1,56,2,5,gloves      ,camel         ,html/resources/sequences_IDs/B/06_gloves.jpg,html/resources/sequences_IDs/A/03_camel.jpg,6,3,3,2,1,1,5,3,0,56,,,,,,,,,,,,,,,,,,,,
,,,,,56,2020-07-04_15h50.25.284,retriever_ti,2020.1.3,Win32,60,Chrome,1366,768,,,,,,,,,,,,,,,,,1,,,,,,,,,,,,,,,,,,,,,,,,,,,487.82707,57,right,0.6936,wolf          ,3,1,-1,0,0,487.843785,487.843785,490.3353,0,56,56,56,1,57,4,3,radio       ,wolf          ,html/resources/sequences_IDs/B/10_radio.jpg,html/resources/sequences_IDs/A/01_wolf.jpg,10,1,4,2,1,1,8,1,0,56,,,,,,,,,,,,,,,,,,,,
,,,,,56,2020-07-04_15h50.25.284,retriever_ti,2020.1.3,Win32,60,Chrome,1366,768,,,,,,,,,,,,,,,,,1,,,,,,,,,,,,,,,,,,,,,,,,,,,491.439695,58,right,1.480825,wolf          ,3,1,1,1,1,491.456615,491.456615,493.94803,0,57,57,57,1,58,2,3,gloves      ,wolf          ,html/resources/sequences_IDs/B/06_gloves.jpg,html/resources/sequences_IDs/A/01_wolf.jpg,6,1,3,2,1,1,5,1,0,56,,,,,,,,,,,,,,,,,,,,
,,,,,56,2020-07-04_15h50.25.284,retriever_ti,2020.1.3,Win32,60,Chrome,1366,768,,,,,,,,,,,,,,,,,1,,,,,,,,,,,,,,,,,,,,,,,,,,,495.05238,59,left,0.93375,seaturtle     ,7,2,4,1,3,495.085985,495.085985,497.577505,0,58,58,58,1,59,7,3,seaturtle     ,wolf          ,html/resources/sequences_IDs/A/02_seaturtle.jpg,html/resources/sequences_IDs/A/01_wolf.jpg,2,1,2,1,1,1,2,1,0,56,,,,,,,,,,,,,,,,,,,,
,,,,,56,2020-07-04_15h50.25.284,retriever_ti,2020.1.3,Win32,60,Chrome,1366,768,,,,,,,,,,,,,,,,,1,,,,,,,,,,,,,,,,,,,,,,,,,,,498.17982,60,right,1.2087,slipper     ,6,8,-2,0,3,498.19684,498.19684,500.688365,0,59,59,59,1,60,8,6,phone       ,slipper     ,html/resources/sequences_IDs/B/09_phone.jpg,html/resources/sequences_IDs/B/08_slipper.jpg,9,8,4,2,3,2,7,6,0,56,,,,,,,,,,,,,,,,,,,,
,,,,,56,2020-07-04_15h50.25.284,retriever_ti,2020.1.3,Win32,60,Chrome,1366,768,,,,,,,,,,,,,,,,,1,,,,,,,,,,,,,,,,,,,,,,,,,,,501.29099,61,right,0.85637,slipper     ,6,8,5,1,3,501.32457,501.32457,503.816055,0,60,60,60,1,61,1,6,peacock       ,slipper     ,html/resources/sequences_IDs/A/05_peacock.jpg,html/resources/sequences_IDs/B/08_slipper.jpg,5,8,2,1,3,2,4,6,0,56,,,,,,,,,,,,,,,,,,,,
,,,,,56,2020-07-04_15h50.25.284,retriever_ti,2020.1.3,Win32,60,Chrome,1366,768,,,,,,,,,,,,,,,,,1,,,,,,,,,,,,,,,,,,,,,,,,,,,504.4184,62,left,1.419165,gloves      ,2,6,-6,0,3,504.45214,504.45214,506.94379,0,61,61,61,1,62,2,8,gloves      ,phone       ,html/resources/sequences_IDs/B/06_gloves.jpg,html/resources/sequences_IDs/B/09_phone.jpg,6,9,3,2,4,2,5,7,0,56,,,,,,,,,,,,,,,,,,,,
,,,,,56,2020-07-04_15h50.25.284,retriever_ti,2020.1.3,Win32,60,Chrome,1366,768,,,,,,,,,,,,,,,,,1,,,,,,,,,,,,,,,,,,,,,,,,,,,507.54636,63,right,1.334645,gloves      ,2,6,1,1,0,507.57989,507.57989,510.071345,0,62,62,62,1,63,1,2,peacock       ,gloves      ,html/resources/sequences_IDs/A/05_peacock.jpg,html/resources/sequences_IDs/B/06_gloves.jpg,5,6,2,1,3,2,4,5,1,56,,,,,,,,,,,,,,,,,,,,
,,,,,56,2020-07-04_15h50.25.284,retriever_ti,2020.1.3,Win32,60,Chrome,1366,768,,,,,,,,,,,,,,,,,1,,,,,,,,,,,,,,,,,,,,,,,,,,,511.17579,64,right,1.03778,phone       ,8,9,5,1,3,511.20934,511.20934,513.70081,0,63,63,63,1,64,3,8,wolf          ,phone       ,html/resources/sequences_IDs/A/01_wolf.jpg,html/resources/sequences_IDs/B/09_phone.jpg,1,9,1,1,4,2,1,7,0,56,,,,,,,,,,,,,,,,,,,,
,,,,,56,2020-07-04_15h50.25.284,retriever_ti,2020.1.3,Win32,60,Chrome,1366,768,,,,,,,,,,,,,,,,,1,,,,,,,,,,,,,,,,,,,,,,,,,,,514.303115,65,right,0.92792,seaturtle     ,7,2,-1,0,0,514.320235,514.320235,516.811745,0,64,64,64,1,65,8,7,phone       ,seaturtle     ,html/resources/sequences_IDs/B/09_phone.jpg,html/resources/sequences_IDs/A/02_seaturtle.jpg,9,2,4,2,2,1,7,2,0,56,,,,,,,,,,,,,,,,,,,,
,,,,,56,2020-07-04_15h50.25.284,retriever_ti,2020.1.3,Win32,60,Chrome,1366,768,,,,,,,,,,,,,,,,,1,,,,,,,,,,,,,,,,,,,,,,,,,,,517.916085,66,right,1.174745,peacock       ,1,5,-2,0,3,517.949605,517.949605,520.441175,0,65,65,65,1,66,3,1,wolf          ,peacock       ,html/resources/sequences_IDs/A/01_wolf.jpg,html/resources/sequences_IDs/A/05_peacock.jpg,1,5,1,1,2,1,1,4,0,56,,,,,,,,,,,,,,,,,,,,
,,,,,56,2020-07-04_15h50.25.284,retriever_ti,2020.1.3,Win32,60,Chrome,1366,768,,,,,,,,,,,,,,,,,1,,,,,,,,,,,,,,,,,,,,,,,,,,,521.04385,67,left,0.82098,gloves      ,2,6,-1,0,0,521.077315,521.077315,523.568835,0,66,66,66,1,67,2,3,gloves      ,wolf          ,html/resources/sequences_IDs/B/06_gloves.jpg,html/resources/sequences_IDs/A/01_wolf.jpg,6,1,3,2,1,1,5,1,0,56,,,,,,,,,,,,,,,,,,,,
,,,,,56,2020-07-04_15h50.25.284,retriever_ti,2020.1.3,Win32,60,Chrome,1366,768,,,,,,,,,,,,,,,,,1,,,,,,,,,,,,,,,,,,,,,,,,,,,524.67292,68,right,0.691175,camel         ,5,3,1,1,1,524.706715,524.706715,527.19821,0,67,67,67,1,68,4,5,radio       ,camel         ,html/resources/sequences_IDs/B/10_radio.jpg,html/resources/sequences_IDs/A/03_camel.jpg,10,3,4,2,1,1,8,3,0,56,,,,,,,,,,,,,,,,,,,,
,,,,,56,2020-07-04_15h50.25.284,retriever_ti,2020.1.3,Win32,60,Chrome,1366,768,,,,,,,,,,,,,,,,,1,,,,,,,,,,,,,,,,,,,,,,,,,,,528.302615,69,right,2.384185,gloves      ,2,6,-2,0,3,528.319385,528.319385,530.81099,0,68,68,68,1,69,4,2,radio       ,gloves      ,html/resources/sequences_IDs/B/10_radio.jpg,html/resources/sequences_IDs/B/06_gloves.jpg,10,6,4,2,3,2,8,5,0,56,,,,,,,,,,,,,,,,,,,,
,,,,,56,2020-07-04_15h50.25.284,retriever_ti,2020.1.3,Win32,60,Chrome,1366,768,,,,,,,,,,,,,,,,,1,,,,,,,,,,,,,,,,,,,,,,,,,,,531.41363,70,right,1.46594,slipper     ,6,8,1,1,0,531.44709,531.44709,533.938645,0,69,69,69,1,70,5,6,camel         ,slipper     ,html/resources/sequences_IDs/A/03_camel.jpg,html/resources/sequences_IDs/B/08_slipper.jpg,3,8,1,1,3,2,3,6,1,56,,,,,,,,,,,,,,,,,,,,
,,,,,56,2020-07-04_15h50.25.284,retriever_ti,2020.1.3,Win32,60,Chrome,1366,768,,,,,,,,,,,,,,,,,1,,,,,,,,,,,,,,,,,,,,,,,,,,,535.043035,71,left,1.34523,seaturtle     ,7,2,6,1,3,535.076645,535.076645,537.568035,0,70,70,70,1,71,7,1,seaturtle     ,peacock       ,html/resources/sequences_IDs/A/02_seaturtle.jpg,html/resources/sequences_IDs/A/05_peacock.jpg,2,5,2,1,2,1,2,4,0,56,,,,,,,,,,,,,,,,,,,,
,,,,,56,2020-07-04_15h50.25.284,retriever_ti,2020.1.3,Win32,60,Chrome,1366,768,,,,,,,,,,,,,,,,,1,,,,,,,,,,,,,,,,,,,,,,,,,,,538.17033,72,left,0.487935,seaturtle     ,7,2,2,1,3,538.2043,538.2043,540.695695,0,71,71,71,1,72,7,5,seaturtle     ,camel         ,html/resources/sequences_IDs/A/02_seaturtle.jpg,html/resources/sequences_IDs/A/03_camel.jpg,2,3,2,1,1,1,2,3,0,56,,,,,,,,,,,,,,,,,,,,
,,,,,56,2020-07-04_15h50.25.284,retriever_ti,2020.1.3,Win32,60,Chrome,1366,768,,,,,,,,,,,,,,,,,1,,,,,,,,,,,,,,,,,,,,,,,,,,,541.29834,73,right,0.900775,peacock       ,1,5,-3,0,3,541.31516,541.31516,543.80661,0,72,72,72,1,73,4,1,radio       ,peacock       ,html/resources/sequences_IDs/B/10_radio.jpg,html/resources/sequences_IDs/A/05_peacock.jpg,10,5,4,2,2,1,8,4,0,56,,,,,,,,,,,,,,,,,,,,
,,,,,56,2020-07-04_15h50.25.284,retriever_ti,2020.1.3,Win32,60,Chrome,1366,768,,,,,,,,,,,,,,,,,1,,,,,,,,,,,,,,,,,,,,,,,,,,,544.40904,74,right,0.870045,peacock       ,1,5,-1,0,0,544.42605,544.42605,546.917575,0,73,73,73,1,74,2,1,gloves      ,peacock       ,html/resources/sequences_IDs/B/06_gloves.jpg,html/resources/sequences_IDs/A/05_peacock.jpg,6,5,3,2,2,1,5,4,0,56,,,,,,,,,,,,,,,,,,,,
,,,,,56,2020-07-04_15h50.25.284,retriever_ti,2020.1.3,Win32,60,Chrome,1366,768,,,,,,,,,,,,,,,,,1,,,,,,,,,,,,,,,,,,,,,,,,,,,548.022085,75,left,0.753065,radio       ,4,10,-4,0,3,548.03874,548.03874,550.530255,0,74,74,74,1,75,4,8,radio       ,phone       ,html/resources/sequences_IDs/B/10_radio.jpg,html/resources/sequences_IDs/B/09_phone.jpg,10,9,4,2,4,2,8,7,0,56,,,,,,,,,,,,,,,,,,,,
,,,,,56,2020-07-04_15h50.25.284,retriever_ti,2020.1.3,Win32,60,Chrome,1366,768,,,,,,,,,,,,,,,,,1,,,,,,,,,,,,,,,,,,,,,,,,,,,551.13291,76,left,1.15197,wolf          ,3,1,-1,0,1,551.149675,551.149675,553.641185,0,75,75,75,1,76,3,4,wolf          ,radio       ,html/resources/sequences_IDs/A/01_wolf.jpg,html/resources/sequences_IDs/B/10_radio.jpg,1,10,1,1,4,2,1,8,1,56,,,,,,,,,,,,,,,,,,,,
,,,,,56,2020-07-04_15h50.25.284,retriever_ti,2020.1.3,Win32,60,Chrome,1366,768,,,,,,,,,,,,,,,,,1,,,,,,,,,,,,,,,,,,,,,,,,,,,554.745315,77,left,1.532055,camel         ,5,3,1,1,0,554.762365,554.762365,557.253885,0,76,76,76,1,77,5,4,camel         ,radio       ,html/resources/sequences_IDs/A/03_camel.jpg,html/resources/sequences_IDs/B/10_radio.jpg,3,10,1,1,4,2,3,8,1,56,,,,,,,,,,,,,,,,,,,,
,,,,,56,2020-07-04_15h50.25.284,retriever_ti,2020.1.3,Win32,60,Chrome,1366,768,,,,,,,,,,,,,,,,,,,,,,,,,,,,,,,,,,,,,0,6.248515,,,,,,,,,,,,,,,,,,,,,,,,,,,,,,,,,,,,,,,,,0,0,0,0,1,,,,,,,,,,,,,,,
,,,,,56,2020-07-04_15h50.25.284,retriever_ti,2020.1.3,Win32,60,Chrome,1366,768,,,,,,,,,,,,,,,,,2,,,,,,,,,,,,,,,,,,,,,,,,,,,658.37675,78,left,1.257195,slipper     ,6,8,2,1,3,658.410375,658.410375,660.90167,0,0,0,0,1,78,6,4,slipper     ,radio       ,html/resources/sequences_IDs/B/08_slipper.jpg,html/resources/sequences_IDs/B/10_radio.jpg,8,10,3,2,4,2,6,8,0,56,,,,,,,,,,,,,,,,,,,,
,,,,,56,2020-07-04_15h50.25.284,retriever_ti,2020.1.3,Win32,60,Chrome,1366,768,,,,,,,,,,,,,,,,,2,,,,,,,,,,,,,,,,,,,,,,,,,,,661.504045,79,right,1.988835,gloves      ,2,6,-2,0,3,661.537825,661.537825,664.029325,0,1,1,1,1,79,4,2,radio       ,gloves      ,html/resources/sequences_IDs/B/10_radio.jpg,html/resources/sequences_IDs/B/06_gloves.jpg,10,6,4,2,3,2,8,5,0,56,,,,,,,,,,,,,,,,,,,,
,,,,,56,2020-07-04_15h50.25.284,retriever_ti,2020.1.3,Win32,60,Chrome,1366,768,,,,,,,,,,,,,,,,,2,,,,,,,,,,,,,,,,,,,,,,,,,,,664.63188,80,right,1.98958,phone       ,8,9,1,1,1,664.665445,664.665445,667.15698,0,2,2,2,1,80,7,8,seaturtle     ,phone       ,html/resources/sequences_IDs/A/02_seaturtle.jpg,html/resources/sequences_IDs/B/09_phone.jpg,2,9,2,1,4,2,2,7,0,56,,,,,,,,,,,,,,,,,,,,
,,,,,56,2020-07-04_15h50.25.284,retriever_ti,2020.1.3,Win32,60,Chrome,1366,768,,,,,,,,,,,,,,,,,2,,,,,,,,,,,,,,,,,,,,,,,,,,,668.26106,81,left,1.913505,wolf          ,3,1,1,1,0,668.278145,668.278145,670.7699,0,3,3,3,1,81,3,2,wolf          ,gloves      ,html/resources/sequences_IDs/A/01_wolf.jpg,html/resources/sequences_IDs/B/06_gloves.jpg,1,6,1,1,3,2,1,5,1,56,,,,,,,,,,,,,,,,,,,,
,,,,,56,2020-07-04_15h50.25.284,retriever_ti,2020.1.3,Win32,60,Chrome,1366,768,,,,,,,,,,,,,,,,,2,,,,,,,,,,,,,,,,,,,,,,,,,,,671.87407,82,right,0.630765,gloves      ,2,6,-1,0,0,671.89087,671.89087,674.382385,0,4,4,4,1,82,3,2,wolf          ,gloves      ,html/resources/sequences_IDs/A/01_wolf.jpg,html/resources/sequences_IDs/B/06_gloves.jpg,1,6,1,1,3,2,1,5,0,56,,,,,,,,,,,,,,,,,,,,
,,,,,56,2020-07-04_15h50.25.284,retriever_ti,2020.1.3,Win32,60,Chrome,1366,768,,,,,,,,,,,,,,,,,2,,,,,,,,,,,,,,,,,,,,,,,,,,,675.48681,83,left,1.06616,radio       ,4,10,-2,0,3,675.52026,675.52026,678.01183,0,5,5,5,1,83,4,6,radio       ,slipper     ,html/resources/sequences_IDs/B/10_radio.jpg,html/resources/sequences_IDs/B/08_slipper.jpg,10,8,4,2,3,2,8,6,0,56,,,,,,,,,,,,,,,,,,,,
,,,,,56,2020-07-04_15h50.25.284,retriever_ti,2020.1.3,Win32,60,Chrome,1366,768,,,,,,,,,,,,,,,,,2,,,,,,,,,,,,,,,,,,,,,,,,,,,678.61436,84,right,1.57263,gloves      ,2,6,1,1,0,678.63122,678.63122,681.122735,0,6,6,6,1,84,1,2,peacock       ,gloves      ,html/resources/sequences_IDs/A/05_peacock.jpg,html/resources/sequences_IDs/B/06_gloves.jpg,5,6,2,1,3,2,4,5,1,56,,,,,,,,,,,,,,,,,,,,
,,,,,56,2020-07-04_15h50.25.284,retriever_ti,2020.1.3,Win32,60,Chrome,1366,768,,,,,,,,,,,,,,,,,2,,,,,,,,,,,,,,,,,,,,,,,,,,,682.22681,85,right,2.0882,radio       ,4,10,-1,0,0,682.243855,682.243855,684.73541,0,7,7,7,1,85,5,4,camel         ,radio       ,html/resources/sequences_IDs/A/03_camel.jpg,html/resources/sequences_IDs/B/10_radio.jpg,3,10,1,1,4,2,3,8,0,56,,,,,,,,,,,,,,,,,,,,
,,,,,56,2020-07-04_15h50.25.284,retriever_ti,2020.1.3,Win32,60,Chrome,1366,768,,,,,,,,,,,,,,,,,2,,,,,,,,,,,,,,,,,,,,,,,,,,,685.840025,86,right,1.52909,gloves      ,2,6,-4,0,3,685.873335,685.873335,688.36482,0,8,8,8,1,86,6,2,slipper     ,gloves      ,html/resources/sequences_IDs/B/08_slipper.jpg,html/resources/sequences_IDs/B/06_gloves.jpg,8,6,3,2,3,2,6,5,0,56,,,,,,,,,,,,,,,,,,,,
,,,,,56,2020-07-04_15h50.25.284,retriever_ti,2020.1.3,Win32,60,Chrome,1366,768,,,,,,,,,,,,,,,,,2,,,,,,,,,,,,,,,,,,,,,,,,,,,688.96753,87,right,1.152245,wolf          ,3,1,-2,0,3,689.000985,689.000985,691.49248,0,9,9,9,1,87,5,3,camel         ,wolf          ,html/resources/sequences_IDs/A/03_camel.jpg,html/resources/sequences_IDs/A/01_wolf.jpg,3,1,1,1,1,1,3,1,0,56,,,,,,,,,,,,,,,,,,,,
,,,,,56,2020-07-04_15h50.25.284,retriever_ti,2020.1.3,Win32,60,Chrome,1366,768,,,,,,,,,,,,,,,,,2,,,,,,,,,,,,,,,,,,,,,,,,,,,692.094845,88,left,1.28797,gloves      ,2,6,-1,0,0,692.11194,692.11194,694.6035,0,10,10,10,1,88,2,3,gloves      ,wolf          ,html/resources/sequences_IDs/B/06_gloves.jpg,html/resources/sequences_IDs/A/01_wolf.jpg,6,1,3,2,1,1,5,1,0,56,,,,,,,,,,,,,,,,,,,,
,,,,,56,2020-07-04_15h50.25.284,retriever_ti,2020.1.3,Win32,60,Chrome,1366,768,,,,,,,,,,,,,,,,,2,,,,,,,,,,,,,,,,,,,,,,,,,,,695.7079,89,right,0.68903,wolf          ,3,1,1,1,1,695.724625,695.724625,698.216195,0,11,11,11,1,89,2,3,gloves      ,wolf          ,html/resources/sequences_IDs/B/06_gloves.jpg,html/resources/sequences_IDs/A/01_wolf.jpg,6,1,3,2,1,1,5,1,0,56,,,,,,,,,,,,,,,,,,,,
,,,,,56,2020-07-04_15h50.25.284,retriever_ti,2020.1.3,Win32,60,Chrome,1366,768,,,,,,,,,,,,,,,,,2,,,,,,,,,,,,,,,,,,,,,,,,,,,699.320525,90,left,0.77869,wolf          ,3,1,-1,0,0,699.354035,699.354035,701.845565,0,12,12,12,1,90,3,4,wolf          ,radio       ,html/resources/sequences_IDs/A/01_wolf.jpg,html/resources/sequences_IDs/B/10_radio.jpg,1,10,1,1,4,2,1,8,0,56,,,,,,,,,,,,,,,,,,,,
,,,,,56,2020-07-04_15h50.25.284,retriever_ti,2020.1.3,Win32,60,Chrome,1366,768,,,,,,,,,,,,,,,,,2,,,,,,,,,,,,,,,,,,,,,,,,,,,702.94996,91,right,1.18451,wolf          ,3,1,-5,0,3,702.96681,702.96681,705.458285,0,13,13,13,1,91,8,3,phone       ,wolf          ,html/resources/sequences_IDs/B/09_phone.jpg,html/resources/sequences_IDs/A/01_wolf.jpg,9,1,4,2,1,1,7,1,0,56,,,,,,,,,,,,,,,,,,,,
,,,,,56,2020-07-04_15h50.25.284,retriever_ti,2020.1.3,Win32,60,Chrome,1366,768,,,,,,,,,,,,,,,,,2,,,,,,,,,,,,,,,,,,,,,,,,,,,706.060615,92,right,0.45751,radio       ,4,10,1,1,0,706.0944,706.0944,708.58592,0,14,14,14,1,92,3,4,wolf          ,radio       ,html/resources/sequences_IDs/A/01_wolf.jpg,html/resources/sequences_IDs/B/10_radio.jpg,1,10,1,1,4,2,1,8,1,56,,,,,,,,,,,,,,,,,,,,
,,,,,56,2020-07-04_15h50.25.284,retriever_ti,2020.1.3,Win32,60,Chrome,1366,768,,,,,,,,,,,,,,,,,2,,,,,,,,,,,,,,,,,,,,,,,,,,,709.69083,93,right,1.037875,seaturtle     ,7,2,-1,0,0,709.723865,709.723865,712.21535,0,15,15,15,1,93,8,7,phone       ,seaturtle     ,html/resources/sequences_IDs/B/09_phone.jpg,html/resources/sequences_IDs/A/02_seaturtle.jpg,9,2,4,2,2,1,7,2,0,56,,,,,,,,,,,,,,,,,,,,
,,,,,56,2020-07-04_15h50.25.284,retriever_ti,2020.1.3,Win32,60,Chrome,1366,768,,,,,,,,,,,,,,,,,2,,,,,,,,,,,,,,,,,,,,,,,,,,,713.319785,94,left,1.828905,gloves      ,2,6,-3,0,3,713.353295,713.353295,715.844795,0,16,16,16,1,94,2,5,gloves      ,camel         ,html/resources/sequences_IDs/B/06_gloves.jpg,html/resources/sequences_IDs/A/03_camel.jpg,6,3,3,2,1,1,5,3,0,56,,,,,,,,,,,,,,,,,,,,
,,,,,56,2020-07-04_15h50.25.284,retriever_ti,2020.1.3,Win32,60,Chrome,1366,768,,,,,,,,,,,,,,,,,2,,,,,,,,,,,,,,,,,,,,,,,,,,,716.447365,95,left,1.316695,wolf          ,3,1,-3,0,3,716.464185,716.464185,718.95574,0,17,17,17,1,95,3,6,wolf          ,slipper     ,html/resources/sequences_IDs/A/01_wolf.jpg,html/resources/sequences_IDs/B/08_slipper.jpg,1,8,1,1,3,2,1,6,0,56,,,,,,,,,,,,,,,,,,,,
,,,,,56,2020-07-04_15h50.25.284,retriever_ti,2020.1.3,Win32,60,Chrome,1366,768,,,,,,,,,,,,,,,,,2,,,,,,,,,,,,,,,,,,,,,,,,,,,719.5581,96,left,0.837315,radio       ,4,10,-3,0,3,719.575135,719.575135,722.066665,0,18,18,18,1,96,4,7,radio       ,seaturtle     ,html/resources/sequences_IDs/B/10_radio.jpg,html/resources/sequences_IDs/A/02_seaturtle.jpg,10,2,4,2,2,1,8,2,0,56,,,,,,,,,,,,,,,,,,,,
,,,,,56,2020-07-04_15h50.25.284,retriever_ti,2020.1.3,Win32,60,Chrome,1366,768,,,,,,,,,,,,,,,,,2,,,,,,,,,,,,,,,,,,,,,,,,,,,722.66932,97,left,1.797305,peacock       ,1,5,-6,0,3,722.70284,722.70284,725.194335,0,19,19,19,1,97,1,7,peacock       ,seaturtle     ,html/resources/sequences_IDs/A/05_peacock.jpg,html/resources/sequences_IDs/A/02_seaturtle.jpg,5,2,2,1,2,1,4,2,0,56,,,,,,,,,,,,,,,,,,,,
,,,,,56,2020-07-04_15h50.25.284,retriever_ti,2020.1.3,Win32,60,Chrome,1366,768,,,,,,,,,,,,,,,,,2,,,,,,,,,,,,,,,,,,,,,,,,,,,725.79666,98,right,1.438975,slipper     ,6,8,1,1,0,725.830555,725.830555,728.32195,0,20,20,20,1,98,5,6,camel         ,slipper     ,html/resources/sequences_IDs/A/03_camel.jpg,html/resources/sequences_IDs/B/08_slipper.jpg,3,8,1,1,3,2,3,6,1,56,,,,,,,,,,,,,,,,,,,,
,,,,,56,2020-07-04_15h50.25.284,retriever_ti,2020.1.3,Win32,60,Chrome,1366,768,,,,,,,,,,,,,,,,,2,,,,,,,,,,,,,,,,,,,,,,,,,,,729.426375,99,left,0.46069,camel         ,5,3,-1,0,0,729.459965,729.459965,731.951385,0,21,21,21,1,99,5,6,camel         ,slipper     ,html/resources/sequences_IDs/A/03_camel.jpg,html/resources/sequences_IDs/B/08_slipper.jpg,3,8,1,1,3,2,3,6,0,56,,,,,,,,,,,,,,,,,,,,
,,,,,56,2020-07-04_15h50.25.284,retriever_ti,2020.1.3,Win32,60,Chrome,1366,768,,,,,,,,,,,,,,,,,2,,,,,,,,,,,,,,,,,,,,,,,,,,,733.055775,100,left,1.040255,camel         ,5,3,4,1,3,733.089365,733.089365,735.58087,0,22,22,22,1,100,5,1,camel         ,peacock       ,html/resources/sequences_IDs/A/03_camel.jpg,html/resources/sequences_IDs/A/05_peacock.jpg,3,5,1,1,2,1,3,4,0,56,,,,,,,,,,,,,,,,,,,,
,,,,,56,2020-07-04_15h50.25.284,retriever_ti,2020.1.3,Win32,60,Chrome,1366,768,,,,,,,,,,,,,,,,,2,,,,,,,,,,,,,,,,,,,,,,,,,,,736.1832,101,NaN,NaN,No_response,NaN,NaN,NaN,2,2,736.200275,736.200275,738.691805,0,23,23,23,1,101,2,7,gloves      ,seaturtle     ,html/resources/sequences_IDs/B/06_gloves.jpg,html/resources/sequences_IDs/A/02_seaturtle.jpg,6,2,3,2,2,1,5,2,0,56,,,,,,,,,,,,,,,,,,,,
,,,,,56,2020-07-04_15h50.25.284,retriever_ti,2020.1.3,Win32,60,Chrome,1366,768,,,,,,,,,,,,,,,,,2,,,,,,,,,,,,,,,,,,,,,,,,,,,739.796155,102,right,0.9548,camel         ,5,3,-1,0,0,739.829765,739.829765,742.32124,0,24,24,24,1,102,6,5,slipper     ,camel         ,html/resources/sequences_IDs/B/08_slipper.jpg,html/resources/sequences_IDs/A/03_camel.jpg,8,3,3,2,1,1,6,3,0,56,,,,,,,,,,,,,,,,,,,,
,,,,,56,2020-07-04_15h50.25.284,retriever_ti,2020.1.3,Win32,60,Chrome,1366,768,,,,,,,,,,,,,,,,,2,,,,,,,,,,,,,,,,,,,,,,,,,,,743.425635,103,left,0.569875,camel         ,5,3,-1,0,0,743.45915,743.45915,745.950675,0,25,25,25,1,103,5,6,camel         ,slipper     ,html/resources/sequences_IDs/A/03_camel.jpg,html/resources/sequences_IDs/B/08_slipper.jpg,3,8,1,1,3,2,3,6,0,56,,,,,,,,,,,,,,,,,,,,
,,,,,56,2020-07-04_15h50.25.284,retriever_ti,2020.1.3,Win32,60,Chrome,1366,768,,,,,,,,,,,,,,,,,2,,,,,,,,,,,,,,,,,,,,,,,,,,,747.055025,104,left,1.11961,gloves      ,2,6,-2,0,3,747.088565,747.088565,749.58006,0,26,26,26,1,104,2,4,gloves      ,radio       ,html/resources/sequences_IDs/B/06_gloves.jpg,html/resources/sequences_IDs/B/10_radio.jpg,6,10,3,2,4,2,5,8,0,56,,,,,,,,,,,,,,,,,,,,
,,,,,56,2020-07-04_15h50.25.284,retriever_ti,2020.1.3,Win32,60,Chrome,1366,768,,,,,,,,,,,,,,,,,2,,,,,,,,,,,,,,,,,,,,,,,,,,,750.182395,105,right,1.288615,seaturtle     ,7,2,1,1,1,750.21624,750.21624,752.707725,0,27,27,27,1,105,6,7,slipper     ,seaturtle     ,html/resources/sequences_IDs/B/08_slipper.jpg,html/resources/sequences_IDs/A/02_seaturtle.jpg,8,2,3,2,2,1,6,2,0,56,,,,,,,,,,,,,,,,,,,,
,,,,,56,2020-07-04_15h50.25.284,retriever_ti,2020.1.3,Win32,60,Chrome,1366,768,,,,,,,,,,,,,,,,,2,,,,,,,,,,,,,,,,,,,,,,,,,,,753.812165,106,right,1.297085,gloves      ,2,6,1,1,1,753.828965,753.828965,756.32045,0,28,28,28,1,106,1,2,peacock       ,gloves      ,html/resources/sequences_IDs/A/05_peacock.jpg,html/resources/sequences_IDs/B/06_gloves.jpg,5,6,2,1,3,2,4,5,0,56,,,,,,,,,,,,,,,,,,,,
,,,,,56,2020-07-04_15h50.25.284,retriever_ti,2020.1.3,Win32,60,Chrome,1366,768,,,,,,,,,,,,,,,,,2,,,,,,,,,,,,,,,,,,,,,,,,,,,757.42478,107,left,1.4184,phone       ,8,9,3,1,3,757.45837,757.45837,759.94981,0,29,29,29,1,107,8,5,phone       ,camel         ,html/resources/sequences_IDs/B/09_phone.jpg,html/resources/sequences_IDs/A/03_camel.jpg,9,3,4,2,1,1,7,3,0,56,,,,,,,,,,,,,,,,,,,,
,,,,,56,2020-07-04_15h50.25.284,retriever_ti,2020.1.3,Win32,60,Chrome,1366,768,,,,,,,,,,,,,,,,,2,,,,,,,,,,,,,,,,,,,,,,,,,,,760.552435,108,right,1.4444,seaturtle     ,7,2,1,1,1,760.569345,760.569345,763.060755,0,30,30,30,1,108,6,7,slipper     ,seaturtle     ,html/resources/sequences_IDs/B/08_slipper.jpg,html/resources/sequences_IDs/A/02_seaturtle.jpg,8,2,3,2,2,1,6,2,0,56,,,,,,,,,,,,,,,,,,,,
,,,,,56,2020-07-04_15h50.25.284,retriever_ti,2020.1.3,Win32,60,Chrome,1366,768,,,,,,,,,,,,,,,,,2,,,,,,,,,,,,,,,,,,,,,,,,,,,764.164845,109,left,1.108215,wolf          ,3,1,-5,0,3,764.198705,764.198705,766.690255,0,31,31,31,1,109,3,8,wolf          ,phone       ,html/resources/sequences_IDs/A/01_wolf.jpg,html/resources/sequences_IDs/B/09_phone.jpg,1,9,1,1,4,2,1,7,0,56,,,,,,,,,,,,,,,,,,,,
,,,,,56,2020-07-04_15h50.25.284,retriever_ti,2020.1.3,Win32,60,Chrome,1366,768,,,,,,,,,,,,,,,,,2,,,,,,,,,,,,,,,,,,,,,,,,,,,767.29285,110,right,1.109845,radio       ,4,10,-1,0,0,767.326315,767.326315,769.817875,0,32,32,32,1,110,5,4,camel         ,radio       ,html/resources/sequences_IDs/A/03_camel.jpg,html/resources/sequences_IDs/B/10_radio.jpg,3,10,1,1,4,2,3,8,0,56,,,,,,,,,,,,,,,,,,,,
,,,,,56,2020-07-04_15h50.25.284,retriever_ti,2020.1.3,Win32,60,Chrome,1366,768,,,,,,,,,,,,,,,,,2,,,,,,,,,,,,,,,,,,,,,,,,,,,770.922245,111,right,1.18902,wolf          ,3,1,2,1,3,770.955795,770.955795,773.44729,0,33,33,33,1,111,1,3,peacock       ,wolf          ,html/resources/sequences_IDs/A/05_peacock.jpg,html/resources/sequences_IDs/A/01_wolf.jpg,5,1,2,1,1,1,4,1,0,56,,,,,,,,,,,,,,,,,,,,
,,,,,56,2020-07-04_15h50.25.284,retriever_ti,2020.1.3,Win32,60,Chrome,1366,768,,,,,,,,,,,,,,,,,2,,,,,,,,,,,,,,,,,,,,,,,,,,,774.049675,112,left,1.399405,seaturtle     ,7,2,1,1,1,774.066715,774.066715,776.55824,0,34,34,34,1,112,7,6,seaturtle     ,slipper     ,html/resources/sequences_IDs/A/02_seaturtle.jpg,html/resources/sequences_IDs/B/08_slipper.jpg,2,8,2,1,3,2,2,6,0,56,,,,,,,,,,,,,,,,,,,,
,,,,,56,2020-07-04_15h50.25.284,retriever_ti,2020.1.3,Win32,60,Chrome,1366,768,,,,,,,,,,,,,,,,,2,,,,,,,,,,,,,,,,,,,,,,,,,,,777.662615,113,left,1.334365,phone       ,8,9,2,1,3,777.679455,777.679455,780.17092,0,35,35,35,1,113,8,6,phone       ,slipper     ,html/resources/sequences_IDs/B/09_phone.jpg,html/resources/sequences_IDs/B/08_slipper.jpg,9,8,4,2,3,2,7,6,0,56,,,,,,,,,,,,,,,,,,,,
,,,,,56,2020-07-04_15h50.25.284,retriever_ti,2020.1.3,Win32,60,Chrome,1366,768,,,,,,,,,,,,,,,,,2,,,,,,,,,,,,,,,,,,,,,,,,,,,780.77359,114,right,2.27973,gloves      ,2,6,1,1,1,780.790335,780.790335,783.281845,0,36,36,36,1,114,1,2,peacock       ,gloves      ,html/resources/sequences_IDs/A/05_peacock.jpg,html/resources/sequences_IDs/B/06_gloves.jpg,5,6,2,1,3,2,4,5,0,56,,,,,,,,,,,,,,,,,,,,
,,,,,56,2020-07-04_15h50.25.284,retriever_ti,2020.1.3,Win32,60,Chrome,1366,768,,,,,,,,,,,,,,,,,2,,,,,,,,,,,,,,,,,,,,,,,,,,,784.38596,115,right,1.142955,radio       ,4,10,3,1,3,784.403055,784.403055,786.894545,0,37,37,37,1,115,1,4,peacock       ,radio       ,html/resources/sequences_IDs/A/05_peacock.jpg,html/resources/sequences_IDs/B/10_radio.jpg,5,10,2,1,4,2,4,8,0,56,,,,,,,,,,,,,,,,,,,,
,,,,,56,2020-07-04_15h50.25.284,retriever_ti,2020.1.3,Win32,60,Chrome,1366,768,,,,,,,,,,,,,,,,,2,,,,,,,,,,,,,,,,,,,,,,,,,,,787.49718,116,right,1.94401,phone       ,8,9,1,1,0,787.53073,787.53073,790.022285,0,38,38,38,1,116,7,8,seaturtle     ,phone       ,html/resources/sequences_IDs/A/02_seaturtle.jpg,html/resources/sequences_IDs/B/09_phone.jpg,2,9,2,1,4,2,2,7,1,56,,,,,,,,,,,,,,,,,,,,
,,,,,56,2020-07-04_15h50.25.284,retriever_ti,2020.1.3,Win32,60,Chrome,1366,768,,,,,,,,,,,,,,,,,2,,,,,,,,,,,,,,,,,,,,,,,,,,,791.12664,117,right,1.473255,phone       ,8,9,4,1,3,791.16017,791.16017,793.652575,0,39,39,39,1,117,4,8,radio       ,phone       ,html/resources/sequences_IDs/B/10_radio.jpg,html/resources/sequences_IDs/B/09_phone.jpg,10,9,4,2,4,2,8,7,0,56,,,,,,,,,,,,,,,,,,,,
,,,,,56,2020-07-04_15h50.25.284,retriever_ti,2020.1.3,Win32,60,Chrome,1366,768,,,,,,,,,,,,,,,,,2,,,,,,,,,,,,,,,,,,,,,,,,,,,794.25396,118,right,1.380335,camel         ,5,3,1,1,1,794.27111,794.27111,796.7626,0,40,40,40,1,118,4,5,radio       ,camel         ,html/resources/sequences_IDs/B/10_radio.jpg,html/resources/sequences_IDs/A/03_camel.jpg,10,3,4,2,1,1,8,3,0,56,,,,,,,,,,,,,,,,,,,,
,,,,,56,2020-07-04_15h50.25.284,retriever_ti,2020.1.3,Win32,60,Chrome,1366,768,,,,,,,,,,,,,,,,,2,,,,,,,,,,,,,,,,,,,,,,,,,,,797.86701,119,left,0.94624,gloves      ,2,6,-4,0,3,797.88376,797.88376,800.37532,0,41,41,41,1,119,2,6,gloves      ,slipper     ,html/resources/sequences_IDs/B/06_gloves.jpg,html/resources/sequences_IDs/B/08_slipper.jpg,6,8,3,2,3,2,5,6,0,56,,,,,,,,,,,,,,,,,,,,
,,,,,56,2020-07-04_15h50.25.284,retriever_ti,2020.1.3,Win32,60,Chrome,1366,768,,,,,,,,,,,,,,,,,2,,,,,,,,,,,,,,,,,,,,,,,,,,,800.97791,120,left,1.098555,seaturtle     ,7,2,1,1,0,801.011455,801.011455,803.503005,0,42,42,42,1,120,7,6,seaturtle     ,slipper     ,html/resources/sequences_IDs/A/02_seaturtle.jpg,html/resources/sequences_IDs/B/08_slipper.jpg,2,8,2,1,3,2,2,6,1,56,,,,,,,,,,,,,,,,,,,,
,,,,,56,2020-07-04_15h50.25.284,retriever_ti,2020.1.3,Win32,60,Chrome,1366,768,,,,,,,,,,,,,,,,,2,,,,,,,,,,,,,,,,,,,,,,,,,,,804.607295,121,left,2.34279,seaturtle     ,7,2,3,1,3,804.640925,804.640925,807.13248,0,43,43,43,1,121,7,4,seaturtle     ,radio       ,html/resources/sequences_IDs/A/02_seaturtle.jpg,html/resources/sequences_IDs/B/10_radio.jpg,2,10,2,1,4,2,2,8,0,56,,,,,,,,,,,,,,,,,,,,
,,,,,56,2020-07-04_15h50.25.284,retriever_ti,2020.1.3,Win32,60,Chrome,1366,768,,,,,,,,,,,,,,,,,2,,,,,,,,,,,,,,,,,,,,,,,,,,,807.734795,122,right,0.802,camel         ,5,3,-1,0,0,807.751815,807.751815,810.243335,0,44,44,44,1,122,6,5,slipper     ,camel         ,html/resources/sequences_IDs/B/08_slipper.jpg,html/resources/sequences_IDs/A/03_camel.jpg,8,3,3,2,1,1,6,3,0,56,,,,,,,,,,,,,,,,,,,,
,,,,,56,2020-07-04_15h50.25.284,retriever_ti,2020.1.3,Win32,60,Chrome,1366,768,,,,,,,,,,,,,,,,,2,,,,,,,,,,,,,,,,,,,,,,,,,,,811.34766,123,left,0.723835,camel         ,5,3,3,1,3,811.38121,811.38121,813.872725,0,45,45,45,1,123,5,2,camel         ,gloves      ,html/resources/sequences_IDs/A/03_camel.jpg,html/resources/sequences_IDs/B/06_gloves.jpg,3,6,1,1,3,2,3,5,0,56,,,,,,,,,,,,,,,,,,,,
,,,,,56,2020-07-04_15h50.25.284,retriever_ti,2020.1.3,Win32,60,Chrome,1366,768,,,,,,,,,,,,,,,,,2,,,,,,,,,,,,,,,,,,,,,,,,,,,814.47531,124,right,1.109485,wolf          ,3,1,-1,0,0,814.50894,814.50894,817.00045,0,46,46,46,1,124,4,3,radio       ,wolf          ,html/resources/sequences_IDs/B/10_radio.jpg,html/resources/sequences_IDs/A/01_wolf.jpg,10,1,4,2,1,1,8,1,0,56,,,,,,,,,,,,,,,,,,,,
,,,,,56,2020-07-04_15h50.25.284,retriever_ti,2020.1.3,Win32,60,Chrome,1366,768,,,,,,,,,,,,,,,,,2,,,,,,,,,,,,,,,,,,,,,,,,,,,818.10451,125,left,0.84478,seaturtle     ,7,2,2,1,3,818.13834,818.13834,820.62988,0,47,47,47,1,125,7,5,seaturtle     ,camel         ,html/resources/sequences_IDs/A/02_seaturtle.jpg,html/resources/sequences_IDs/A/03_camel.jpg,2,3,2,1,1,1,2,3,0,56,,,,,,,,,,,,,,,,,,,,
,,,,,56,2020-07-04_15h50.25.284,retriever_ti,2020.1.3,Win32,60,Chrome,1366,768,,,,,,,,,,,,,,,,,2,,,,,,,,,,,,,,,,,,,,,,,,,,,821.23243,126,right,0.65251,camel         ,5,3,4,1,3,821.266065,821.266065,823.757465,0,48,48,48,1,126,1,5,peacock       ,camel         ,html/resources/sequences_IDs/A/05_peacock.jpg,html/resources/sequences_IDs/A/03_camel.jpg,5,3,2,1,1,1,4,3,0,56,,,,,,,,,,,,,,,,,,,,
,,,,,56,2020-07-04_15h50.25.284,retriever_ti,2020.1.3,Win32,60,Chrome,1366,768,,,,,,,,,,,,,,,,,2,,,,,,,,,,,,,,,,,,,,,,,,,,,824.359835,127,left,0.75475,gloves      ,2,6,1,1,1,824.39371,824.39371,826.88521,0,49,49,49,1,127,2,1,gloves      ,peacock       ,html/resources/sequences_IDs/B/06_gloves.jpg,html/resources/sequences_IDs/A/05_peacock.jpg,6,5,3,2,2,1,5,4,0,56,,,,,,,,,,,,,,,,,,,,
,,,,,56,2020-07-04_15h50.25.284,retriever_ti,2020.1.3,Win32,60,Chrome,1366,768,,,,,,,,,,,,,,,,,2,,,,,,,,,,,,,,,,,,,,,,,,,,,827.98959,128,right,1.611345,slipper     ,6,8,5,1,3,828.00634,828.00634,830.497885,0,50,50,50,1,128,1,6,peacock       ,slipper     ,html/resources/sequences_IDs/A/05_peacock.jpg,html/resources/sequences_IDs/B/08_slipper.jpg,5,8,2,1,3,2,4,6,0,56,,,,,,,,,,,,,,,,,,,,
,,,,,56,2020-07-04_15h50.25.284,retriever_ti,2020.1.3,Win32,60,Chrome,1366,768,,,,,,,,,,,,,,,,,2,,,,,,,,,,,,,,,,,,,,,,,,,,,831.10054,129,left,1.58992,wolf          ,3,1,2,1,3,831.13439,831.13439,833.62549,0,51,51,51,1,129,3,1,wolf          ,peacock       ,html/resources/sequences_IDs/A/01_wolf.jpg,html/resources/sequences_IDs/A/05_peacock.jpg,1,5,1,1,2,1,1,4,0,56,,,,,,,,,,,,,,,,,,,,
,,,,,56,2020-07-04_15h50.25.284,retriever_ti,2020.1.3,Win32,60,Chrome,1366,768,,,,,,,,,,,,,,,,,2,,,,,,,,,,,,,,,,,,,,,,,,,,,834.227855,130,left,1.25585,seaturtle     ,7,2,5,1,3,834.244935,834.244935,836.73646,0,52,52,52,1,130,7,2,seaturtle     ,gloves      ,html/resources/sequences_IDs/A/02_seaturtle.jpg,html/resources/sequences_IDs/B/06_gloves.jpg,2,6,2,1,3,2,2,5,0,56,,,,,,,,,,,,,,,,,,,,
,,,,,56,2020-07-04_15h50.25.284,retriever_ti,2020.1.3,Win32,60,Chrome,1366,768,,,,,,,,,,,,,,,,,2,,,,,,,,,,,,,,,,,,,,,,,,,,,837.339095,131,left,0.676875,wolf          ,3,1,-1,0,0,837.35599,837.35599,839.84737,0,53,53,53,1,131,3,4,wolf          ,radio       ,html/resources/sequences_IDs/A/01_wolf.jpg,html/resources/sequences_IDs/B/10_radio.jpg,1,10,1,1,4,2,1,8,0,56,,,,,,,,,,,,,,,,,,,,
,,,,,56,2020-07-04_15h50.25.284,retriever_ti,2020.1.3,Win32,60,Chrome,1366,768,,,,,,,,,,,,,,,,,2,,,,,,,,,,,,,,,,,,,,,,,,,,,840.95179,132,left,1.207955,wolf          ,3,1,1,1,1,840.98533,840.98533,843.476835,0,54,54,54,1,132,3,2,wolf          ,gloves      ,html/resources/sequences_IDs/A/01_wolf.jpg,html/resources/sequences_IDs/B/06_gloves.jpg,1,6,1,1,3,2,1,5,0,56,,,,,,,,,,,,,,,,,,,,
,,,,,56,2020-07-04_15h50.25.284,retriever_ti,2020.1.3,Win32,60,Chrome,1366,768,,,,,,,,,,,,,,,,,2,,,,,,,,,,,,,,,,,,,,,,,,,,,844.581205,133,left,1.63192,slipper     ,6,8,-2,0,3,844.614765,844.614765,847.10623,0,55,55,55,1,133,6,8,slipper     ,phone       ,html/resources/sequences_IDs/B/08_slipper.jpg,html/resources/sequences_IDs/B/09_phone.jpg,8,9,3,2,4,2,6,7,0,56,,,,,,,,,,,,,,,,,,,,
,,,,,56,2020-07-04_15h50.25.284,retriever_ti,2020.1.3,Win32,60,Chrome,1366,768,,,,,,,,,,,,,,,,,2,,,,,,,,,,,,,,,,,,,,,,,,,,,847.708615,134,right,0.773735,seaturtle     ,7,2,4,1,3,847.742475,847.742475,850.233925,0,56,56,56,1,134,3,7,wolf          ,seaturtle     ,html/resources/sequences_IDs/A/01_wolf.jpg,html/resources/sequences_IDs/A/02_seaturtle.jpg,1,2,1,1,2,1,1,2,0,56,,,,,,,,,,,,,,,,,,,,
,,,,,56,2020-07-04_15h50.25.284,retriever_ti,2020.1.3,Win32,60,Chrome,1366,768,,,,,,,,,,,,,,,,,2,,,,,,,,,,,,,,,,,,,,,,,,,,,850.83663,135,left,1.536035,camel         ,5,3,-2,0,3,850.8533,850.8533,853.34482,0,57,57,57,1,135,5,7,camel         ,seaturtle     ,html/resources/sequences_IDs/A/03_camel.jpg,html/resources/sequences_IDs/A/02_seaturtle.jpg,3,2,1,1,2,1,3,2,0,56,,,,,,,,,,,,,,,,,,,,
,,,,,56,2020-07-04_15h50.25.284,retriever_ti,2020.1.3,Win32,60,Chrome,1366,768,,,,,,,,,,,,,,,,,2,,,,,,,,,,,,,,,,,,,,,,,,,,,853.947215,136,left,0.624735,seaturtle     ,7,2,-1,0,0,853.981045,853.981045,856.47258,0,58,58,58,1,136,7,8,seaturtle     ,phone       ,html/resources/sequences_IDs/A/02_seaturtle.jpg,html/resources/sequences_IDs/B/09_phone.jpg,2,9,2,1,4,2,2,7,0,56,,,,,,,,,,,,,,,,,,,,
,,,,,56,2020-07-04_15h50.25.284,retriever_ti,2020.1.3,Win32,60,Chrome,1366,768,,,,,,,,,,,,,,,,,2,,,,,,,,,,,,,,,,,,,,,,,,,,,857.5769,137,left,0.83476,gloves      ,2,6,-6,0,3,857.59373,857.59373,860.085205,0,59,59,59,1,137,2,8,gloves      ,phone       ,html/resources/sequences_IDs/B/06_gloves.jpg,html/resources/sequences_IDs/B/09_phone.jpg,6,9,3,2,4,2,5,7,0,56,,,,,,,,,,,,,,,,,,,,
,,,,,56,2020-07-04_15h50.25.284,retriever_ti,2020.1.3,Win32,60,Chrome,1366,768,,,,,,,,,,,,,,,,,2,,,,,,,,,,,,,,,,,,,,,,,,,,,860.68783,138,left,1.923545,seaturtle     ,7,2,1,1,1,860.721375,860.721375,863.21287,0,60,60,60,1,138,7,6,seaturtle     ,slipper     ,html/resources/sequences_IDs/A/02_seaturtle.jpg,html/resources/sequences_IDs/B/08_slipper.jpg,2,8,2,1,3,2,2,6,0,56,,,,,,,,,,,,,,,,,,,,
,,,,,56,2020-07-04_15h50.25.284,retriever_ti,2020.1.3,Win32,60,Chrome,1366,768,,,,,,,,,,,,,,,,,2,,,,,,,,,,,,,,,,,,,,,,,,,,,864.31698,139,left,1.52418,radio       ,4,10,1,1,1,864.334085,864.334085,866.825625,0,61,61,61,1,139,4,3,radio       ,wolf          ,html/resources/sequences_IDs/B/10_radio.jpg,html/resources/sequences_IDs/A/01_wolf.jpg,10,1,4,2,1,1,8,1,0,56,,,,,,,,,,,,,,,,,,,,
,,,,,56,2020-07-04_15h50.25.284,retriever_ti,2020.1.3,Win32,60,Chrome,1366,768,,,,,,,,,,,,,,,,,2,,,,,,,,,,,,,,,,,,,,,,,,,,,867.92995,140,left,1.884075,seaturtle     ,7,2,4,1,3,867.96364,867.96364,870.454975,0,62,62,62,1,140,7,3,seaturtle     ,wolf          ,html/resources/sequences_IDs/A/02_seaturtle.jpg,html/resources/sequences_IDs/A/01_wolf.jpg,2,1,2,1,1,1,2,1,0,56,,,,,,,,,,,,,,,,,,,,
,,,,,56,2020-07-04_15h50.25.284,retriever_ti,2020.1.3,Win32,60,Chrome,1366,768,,,,,,,,,,,,,,,,,2,,,,,,,,,,,,,,,,,,,,,,,,,,,871.05763,141,right,0.903875,seaturtle     ,7,2,-1,0,0,871.091155,871.091155,873.5827,0,63,63,63,1,141,8,7,phone       ,seaturtle     ,html/resources/sequences_IDs/B/09_phone.jpg,html/resources/sequences_IDs/A/02_seaturtle.jpg,9,2,4,2,2,1,7,2,0,56,,,,,,,,,,,,,,,,,,,,
,,,,,56,2020-07-04_15h50.25.284,retriever_ti,2020.1.3,Win32,60,Chrome,1366,768,,,,,,,,,,,,,,,,,2,,,,,,,,,,,,,,,,,,,,,,,,,,,874.687095,142,left,0.76751,slipper     ,6,8,5,1,3,874.72067,874.72067,877.212155,0,64,64,64,1,142,6,1,slipper     ,peacock       ,html/resources/sequences_IDs/B/08_slipper.jpg,html/resources/sequences_IDs/A/05_peacock.jpg,8,5,3,2,2,1,6,4,0,56,,,,,,,,,,,,,,,,,,,,
,,,,,56,2020-07-04_15h50.25.284,retriever_ti,2020.1.3,Win32,60,Chrome,1366,768,,,,,,,,,,,,,,,,,2,,,,,,,,,,,,,,,,,,,,,,,,,,,877.814425,143,left,0.8464,phone       ,8,9,4,1,3,877.831595,877.831595,880.323045,0,65,65,65,1,143,8,4,phone       ,radio       ,html/resources/sequences_IDs/B/09_phone.jpg,html/resources/sequences_IDs/B/10_radio.jpg,9,10,4,2,4,2,7,8,0,56,,,,,,,,,,,,,,,,,,,,
,,,,,56,2020-07-04_15h50.25.284,retriever_ti,2020.1.3,Win32,60,Chrome,1366,768,,,,,,,,,,,,,,,,,2,,,,,,,,,,,,,,,,,,,,,,,,,,,880.92564,144,left,1.045125,phone       ,8,9,6,1,3,880.959215,880.959215,883.450685,0,66,66,66,1,144,8,2,phone       ,gloves      ,html/resources/sequences_IDs/B/09_phone.jpg,html/resources/sequences_IDs/B/06_gloves.jpg,9,6,4,2,3,2,7,5,0,56,,,,,,,,,,,,,,,,,,,,
,,,,,56,2020-07-04_15h50.25.284,retriever_ti,2020.1.3,Win32,60,Chrome,1366,768,,,,,,,,,,,,,,,,,2,,,,,,,,,,,,,,,,,,,,,,,,,,,884.05302,145,NaN,NaN,No_response,NaN,NaN,NaN,2,2,884.08685,884.08685,886.578405,0,67,67,67,1,145,5,8,camel         ,phone       ,html/resources/sequences_IDs/A/03_camel.jpg,html/resources/sequences_IDs/B/09_phone.jpg,3,9,1,1,4,2,3,7,0,56,,,,,,,,,,,,,,,,,,,,
,,,,,56,2020-07-04_15h50.25.284,retriever_ti,2020.1.3,Win32,60,Chrome,1366,768,,,,,,,,,,,,,,,,,2,,,,,,,,,,,,,,,,,,,,,,,,,,,887.68282,146,left,1.14686,radio       ,4,10,3,1,3,887.69954,887.69954,890.191085,0,68,68,68,1,146,4,1,radio       ,peacock       ,html/resources/sequences_IDs/B/10_radio.jpg,html/resources/sequences_IDs/A/05_peacock.jpg,10,5,4,2,2,1,8,4,0,56,,,,,,,,,,,,,,,,,,,,
,,,,,56,2020-07-04_15h50.25.284,retriever_ti,2020.1.3,Win32,60,Chrome,1366,768,,,,,,,,,,,,,,,,,2,,,,,,,,,,,,,,,,,,,,,,,,,,,890.79371,147,left,0.63477,seaturtle     ,7,2,6,1,3,890.82729,890.82729,893.31871,0,69,69,69,1,147,7,1,seaturtle     ,peacock       ,html/resources/sequences_IDs/A/02_seaturtle.jpg,html/resources/sequences_IDs/A/05_peacock.jpg,2,5,2,1,2,1,2,4,0,56,,,,,,,,,,,,,,,,,,,,
,,,,,56,2020-07-04_15h50.25.284,retriever_ti,2020.1.3,Win32,60,Chrome,1366,768,,,,,,,,,,,,,,,,,2,,,,,,,,,,,,,,,,,,,,,,,,,,,893.9211,148,left,0.528205,camel         ,5,3,1,1,0,893.938155,893.938155,896.429645,0,70,70,70,1,148,5,4,camel         ,radio       ,html/resources/sequences_IDs/A/03_camel.jpg,html/resources/sequences_IDs/B/10_radio.jpg,3,10,1,1,4,2,3,8,1,56,,,,,,,,,,,,,,,,,,,,
,,,,,56,2020-07-04_15h50.25.284,retriever_ti,2020.1.3,Win32,60,Chrome,1366,768,,,,,,,,,,,,,,,,,2,,,,,,,,,,,,,,,,,,,,,,,,,,,897.534065,149,left,1.525225,gloves      ,2,6,1,1,1,897.5676,897.5676,900.0591,0,71,71,71,1,149,2,1,gloves      ,peacock       ,html/resources/sequences_IDs/B/06_gloves.jpg,html/resources/sequences_IDs/A/05_peacock.jpg,6,5,3,2,2,1,5,4,0,56,,,,,,,,,,,,,,,,,,,,
,,,,,56,2020-07-04_15h50.25.284,retriever_ti,2020.1.3,Win32,60,Chrome,1366,768,,,,,,,,,,,,,,,,,2,,,,,,,,,,,,,,,,,,,,,,,,,,,901.16357,150,left,1.350575,wolf          ,3,1,-2,0,3,901.19709,901.19709,903.68853,0,72,72,72,1,150,3,5,wolf          ,camel         ,html/resources/sequences_IDs/A/01_wolf.jpg,html/resources/sequences_IDs/A/03_camel.jpg,1,3,1,1,1,1,1,3,0,56,,,,,,,,,,,,,,,,,,,,
,,,,,56,2020-07-04_15h50.25.284,retriever_ti,2020.1.3,Win32,60,Chrome,1366,768,,,,,,,,,,,,,,,,,2,,,,,,,,,,,,,,,,,,,,,,,,,,,904.29081,151,right,0.929815,phone       ,8,9,7,1,3,904.32468,904.32468,906.81626,0,73,73,73,1,151,1,8,peacock       ,phone       ,html/resources/sequences_IDs/A/05_peacock.jpg,html/resources/sequences_IDs/B/09_phone.jpg,5,9,2,1,4,2,4,7,0,56,,,,,,,,,,,,,,,,,,,,
,,,,,56,2020-07-04_15h50.25.284,retriever_ti,2020.1.3,Win32,60,Chrome,1366,768,,,,,,,,,,,,,,,,,2,,,,,,,,,,,,,,,,,,,,,,,,,,,907.418875,152,right,1.18599,camel         ,5,3,1,1,1,907.435595,907.435595,909.92713,0,74,74,74,1,152,4,5,radio       ,camel         ,html/resources/sequences_IDs/B/10_radio.jpg,html/resources/sequences_IDs/A/03_camel.jpg,10,3,4,2,1,1,8,3,0,56,,,,,,,,,,,,,,,,,,,,
,,,,,56,2020-07-04_15h50.25.284,retriever_ti,2020.1.3,Win32,60,Chrome,1366,768,,,,,,,,,,,,,,,,,2,,,,,,,,,,,,,,,,,,,,,,,,,,,911.031585,153,left,0.701715,phone       ,8,9,7,1,3,911.06511,911.06511,913.556555,0,75,75,75,1,153,8,1,phone       ,peacock       ,html/resources/sequences_IDs/B/09_phone.jpg,html/resources/sequences_IDs/A/05_peacock.jpg,9,5,4,2,2,1,7,4,0,56,,,,,,,,,,,,,,,,,,,,
,,,,,56,2020-07-04_15h50.25.284,retriever_ti,2020.1.3,Win32,60,Chrome,1366,768,,,,,,,,,,,,,,,,,2,,,,,,,,,,,,,,,,,,,,,,,,,,,914.159025,154,left,0.62117,slipper     ,6,8,3,1,3,914.192725,914.192725,916.684245,0,76,76,76,1,154,6,3,slipper     ,wolf          ,html/resources/sequences_IDs/B/08_slipper.jpg,html/resources/sequences_IDs/A/01_wolf.jpg,8,1,3,2,1,1,6,1,0,56,,,,,,,,,,,,,,,,,,,,
,,,,,56,2020-07-04_15h50.25.284,retriever_ti,2020.1.3,Win32,60,Chrome,1366,768,,,,,,,,,,,,,,,,,,,,,,,,,,,,,,,,,,,,,0,3.665865,,,,,,,,,,,,,,,,,,,,,,,,,,,,,,,,,,,,,,,,,1,0,1,0,1,,,,,,,,,,,,,,,
,,,,,56,2020-07-04_15h50.25.284,retriever_ti,2020.1.3,Win32,60,Chrome,1366,768,,,,,,,,,,,,,,,,,3,,,,,,,,,,,,,,,,,,,,,,,,,,,930.98146,155,left,1.2069,seaturtle     ,7,2,1,1,1,931.0188,931.0188,933.51003,0,0,0,0,1,155,7,6,seaturtle     ,slipper     ,html/resources/sequences_IDs/A/02_seaturtle.jpg,html/resources/sequences_IDs/B/08_slipper.jpg,2,8,2,1,3,2,2,6,0,56,,,,,,,,,,,,,,,,,,,,
,,,,,56,2020-07-04_15h50.25.284,retriever_ti,2020.1.3,Win32,60,Chrome,1366,768,,,,,,,,,,,,,,,,,3,,,,,,,,,,,,,,,,,,,,,,,,,,,934.614435,156,left,0.944685,camel         ,5,3,1,1,1,934.647965,934.647965,937.139525,0,1,1,1,1,156,5,4,camel         ,radio       ,html/resources/sequences_IDs/A/03_camel.jpg,html/resources/sequences_IDs/B/10_radio.jpg,3,10,1,1,4,2,3,8,0,56,,,,,,,,,,,,,,,,,,,,
,,,,,56,2020-07-04_15h50.25.284,retriever_ti,2020.1.3,Win32,60,Chrome,1366,768,,,,,,,,,,,,,,,,,3,,,,,,,,,,,,,,,,,,,,,,,,,,,938.243915,157,left,1.820595,wolf          ,3,1,1,1,1,938.260685,938.260685,940.75212,0,2,2,2,1,157,3,2,wolf          ,gloves      ,html/resources/sequences_IDs/A/01_wolf.jpg,html/resources/sequences_IDs/B/06_gloves.jpg,1,6,1,1,3,2,1,5,0,56,,,,,,,,,,,,,,,,,,,,
,,,,,56,2020-07-04_15h50.25.284,retriever_ti,2020.1.3,Win32,60,Chrome,1366,768,,,,,,,,,,,,,,,,,3,,,,,,,,,,,,,,,,,,,,,,,,,,,941.85653,158,right,0.985315,seaturtle     ,7,2,3,1,3,941.89008,941.89008,944.381565,0,3,3,3,1,158,4,7,radio       ,seaturtle     ,html/resources/sequences_IDs/B/10_radio.jpg,html/resources/sequences_IDs/A/02_seaturtle.jpg,10,2,4,2,2,1,8,2,0,56,,,,,,,,,,,,,,,,,,,,
,,,,,56,2020-07-04_15h50.25.284,retriever_ti,2020.1.3,Win32,60,Chrome,1366,768,,,,,,,,,,,,,,,,,3,,,,,,,,,,,,,,,,,,,,,,,,,,,944.98388,159,left,0.824305,camel         ,5,3,1,1,1,945.0178,945.0178,947.50925,0,4,4,4,1,159,5,4,camel         ,radio       ,html/resources/sequences_IDs/A/03_camel.jpg,html/resources/sequences_IDs/B/10_radio.jpg,3,10,1,1,4,2,3,8,0,56,,,,,,,,,,,,,,,,,,,,
,,,,,56,2020-07-04_15h50.25.284,retriever_ti,2020.1.3,Win32,60,Chrome,1366,768,,,,,,,,,,,,,,,,,3,,,,,,,,,,,,,,,,,,,,,,,,,,,948.61362,160,right,1.65064,wolf          ,3,1,1,1,1,948.63042,948.63042,951.121975,0,5,5,5,1,160,2,3,gloves      ,wolf          ,html/resources/sequences_IDs/B/06_gloves.jpg,html/resources/sequences_IDs/A/01_wolf.jpg,6,1,3,2,1,1,5,1,0,56,,,,,,,,,,,,,,,,,,,,
,,,,,56,2020-07-04_15h50.25.284,retriever_ti,2020.1.3,Win32,60,Chrome,1366,768,,,,,,,,,,,,,,,,,3,,,,,,,,,,,,,,,,,,,,,,,,,,,952.226295,161,right,0.69362,camel         ,5,3,3,1,3,952.25993,952.25993,954.751375,0,6,6,6,1,161,2,5,gloves      ,camel         ,html/resources/sequences_IDs/B/06_gloves.jpg,html/resources/sequences_IDs/A/03_camel.jpg,6,3,3,2,1,1,5,3,0,56,,,,,,,,,,,,,,,,,,,,
,,,,,56,2020-07-04_15h50.25.284,retriever_ti,2020.1.3,Win32,60,Chrome,1366,768,,,,,,,,,,,,,,,,,3,,,,,,,,,,,,,,,,,,,,,,,,,,,955.353935,162,right,0.83953,seaturtle     ,7,2,1,1,1,955.370775,955.370775,957.86231,0,7,7,7,1,162,6,7,slipper     ,seaturtle     ,html/resources/sequences_IDs/B/08_slipper.jpg,html/resources/sequences_IDs/A/02_seaturtle.jpg,8,2,3,2,2,1,6,2,0,56,,,,,,,,,,,,,,,,,,,,
,,,,,56,2020-07-04_15h50.25.284,retriever_ti,2020.1.3,Win32,60,Chrome,1366,768,,,,,,,,,,,,,,,,,3,,,,,,,,,,,,,,,,,,,,,,,,,,,958.96641,163,right,0.910055,wolf          ,3,1,-1,0,0,959.000235,959.000235,961.4917,0,8,8,8,1,163,4,3,radio       ,wolf          ,html/resources/sequences_IDs/B/10_radio.jpg,html/resources/sequences_IDs/A/01_wolf.jpg,10,1,4,2,1,1,8,1,0,56,,,,,,,,,,,,,,,,,,,,
,,,,,56,2020-07-04_15h50.25.284,retriever_ti,2020.1.3,Win32,60,Chrome,1366,768,,,,,,,,,,,,,,,,,3,,,,,,,,,,,,,,,,,,,,,,,,,,,962.596095,164,left,1.04338,slipper     ,6,8,5,1,3,962.612955,962.612955,965.10442,0,9,9,9,1,164,6,1,slipper     ,peacock       ,html/resources/sequences_IDs/B/08_slipper.jpg,html/resources/sequences_IDs/A/05_peacock.jpg,8,5,3,2,2,1,6,4,0,56,,,,,,,,,,,,,,,,,,,,
,,,,,56,2020-07-04_15h50.25.284,retriever_ti,2020.1.3,Win32,60,Chrome,1366,768,,,,,,,,,,,,,,,,,3,,,,,,,,,,,,,,,,,,,,,,,,,,,965.707065,165,right,0.85629,camel         ,5,3,-2,0,3,965.72387,965.72387,968.215365,0,10,10,10,1,165,7,5,seaturtle     ,camel         ,html/resources/sequences_IDs/A/02_seaturtle.jpg,html/resources/sequences_IDs/A/03_camel.jpg,2,3,2,1,1,1,2,3,0,56,,,,,,,,,,,,,,,,,,,,
,,,,,56,2020-07-04_15h50.25.284,retriever_ti,2020.1.3,Win32,60,Chrome,1366,768,,,,,,,,,,,,,,,,,3,,,,,,,,,,,,,,,,,,,,,,,,,,,968.817795,166,left,0.85823,gloves      ,2,6,1,1,0,968.85154,968.85154,971.34299,0,11,11,11,1,166,2,1,gloves      ,peacock       ,html/resources/sequences_IDs/B/06_gloves.jpg,html/resources/sequences_IDs/A/05_peacock.jpg,6,5,3,2,2,1,5,4,1,56,,,,,,,,,,,,,,,,,,,,
,,,,,56,2020-07-04_15h50.25.284,retriever_ti,2020.1.3,Win32,60,Chrome,1366,768,,,,,,,,,,,,,,,,,3,,,,,,,,,,,,,,,,,,,,,,,,,,,972.44743,167,left,0.67591,radio       ,4,10,2,1,3,972.48099,972.48099,974.97245,0,12,12,12,1,167,4,2,radio       ,gloves      ,html/resources/sequences_IDs/B/10_radio.jpg,html/resources/sequences_IDs/B/06_gloves.jpg,10,6,4,2,3,2,8,5,0,56,,,,,,,,,,,,,,,,,,,,
,,,,,56,2020-07-04_15h50.25.284,retriever_ti,2020.1.3,Win32,60,Chrome,1366,768,,,,,,,,,,,,,,,,,3,,,,,,,,,,,,,,,,,,,,,,,,,,,975.575065,168,right,1.36696,camel         ,5,3,-1,0,0,975.608625,975.608625,978.100145,0,13,13,13,1,168,6,5,slipper     ,camel         ,html/resources/sequences_IDs/B/08_slipper.jpg,html/resources/sequences_IDs/A/03_camel.jpg,8,3,3,2,1,1,6,3,0,56,,,,,,,,,,,,,,,,,,,,
,,,,,56,2020-07-04_15h50.25.284,retriever_ti,2020.1.3,Win32,60,Chrome,1366,768,,,,,,,,,,,,,,,,,3,,,,,,,,,,,,,,,,,,,,,,,,,,,979.20449,169,left,1.243995,peacock       ,1,5,-7,0,3,979.23815,979.23815,981.729605,0,14,14,14,1,169,1,8,peacock       ,phone       ,html/resources/sequences_IDs/A/05_peacock.jpg,html/resources/sequences_IDs/B/09_phone.jpg,5,9,2,1,4,2,4,7,0,56,,,,,,,,,,,,,,,,,,,,
,,,,,56,2020-07-04_15h50.25.284,retriever_ti,2020.1.3,Win32,60,Chrome,1366,768,,,,,,,,,,,,,,,,,3,,,,,,,,,,,,,,,,,,,,,,,,,,,982.331865,170,left,1.29349,slipper     ,6,8,-2,0,3,982.365695,982.365695,984.857175,0,15,15,15,1,170,6,8,slipper     ,phone       ,html/resources/sequences_IDs/B/08_slipper.jpg,html/resources/sequences_IDs/B/09_phone.jpg,8,9,3,2,4,2,6,7,0,56,,,,,,,,,,,,,,,,,,,,
,,,,,56,2020-07-04_15h50.25.284,retriever_ti,2020.1.3,Win32,60,Chrome,1366,768,,,,,,,,,,,,,,,,,3,,,,,,,,,,,,,,,,,,,,,,,,,,,985.459835,171,right,1.06163,seaturtle     ,7,2,6,1,3,985.47666,985.47666,987.96827,0,16,16,16,1,171,1,7,peacock       ,seaturtle     ,html/resources/sequences_IDs/A/05_peacock.jpg,html/resources/sequences_IDs/A/02_seaturtle.jpg,5,2,2,1,2,1,4,2,0,56,,,,,,,,,,,,,,,,,,,,
,,,,,56,2020-07-04_15h50.25.284,retriever_ti,2020.1.3,Win32,60,Chrome,1366,768,,,,,,,,,,,,,,,,,3,,,,,,,,,,,,,,,,,,,,,,,,,,,988.570585,172,left,1.40039,radio       ,4,10,-2,0,3,988.587625,988.587625,991.079165,0,17,17,17,1,172,4,6,radio       ,slipper     ,html/resources/sequences_IDs/B/10_radio.jpg,html/resources/sequences_IDs/B/08_slipper.jpg,10,8,4,2,3,2,8,6,0,56,,,,,,,,,,,,,,,,,,,,
,,,,,56,2020-07-04_15h50.25.284,retriever_ti,2020.1.3,Win32,60,Chrome,1366,768,,,,,,,,,,,,,,,,,3,,,,,,,,,,,,,,,,,,,,,,,,,,,991.6817,173,left,0.81226,radio       ,4,10,-4,0,3,991.715245,991.715245,994.206735,0,18,18,18,1,173,4,8,radio       ,phone       ,html/resources/sequences_IDs/B/10_radio.jpg,html/resources/sequences_IDs/B/09_phone.jpg,10,9,4,2,4,2,8,7,0,56,,,,,,,,,,,,,,,,,,,,
,,,,,56,2020-07-04_15h50.25.284,retriever_ti,2020.1.3,Win32,60,Chrome,1366,768,,,,,,,,,,,,,,,,,3,,,,,,,,,,,,,,,,,,,,,,,,,,,994.809105,174,right,1.12457,camel         ,5,3,-1,0,1,994.842865,994.842865,997.334395,0,19,19,19,1,174,6,5,slipper     ,camel         ,html/resources/sequences_IDs/B/08_slipper.jpg,html/resources/sequences_IDs/A/03_camel.jpg,8,3,3,2,1,1,6,3,1,56,,,,,,,,,,,,,,,,,,,,
,,,,,56,2020-07-04_15h50.25.284,retriever_ti,2020.1.3,Win32,60,Chrome,1366,768,,,,,,,,,,,,,,,,,3,,,,,,,,,,,,,,,,,,,,,,,,,,,998.43882,175,left,0.97076,camel         ,5,3,3,1,3,998.472335,998.472335,1000.963915,0,20,20,20,1,175,5,2,camel         ,gloves      ,html/resources/sequences_IDs/A/03_camel.jpg,html/resources/sequences_IDs/B/06_gloves.jpg,3,6,1,1,3,2,3,5,0,56,,,,,,,,,,,,,,,,,,,,
,,,,,56,2020-07-04_15h50.25.284,retriever_ti,2020.1.3,Win32,60,Chrome,1366,768,,,,,,,,,,,,,,,,,3,,,,,,,,,,,,,,,,,,,,,,,,,,,1001.56647,176,right,0.974205,phone       ,8,9,5,1,3,1001.60005,1001.60005,1004.091485,0,21,21,21,1,176,3,8,wolf          ,phone       ,html/resources/sequences_IDs/A/01_wolf.jpg,html/resources/sequences_IDs/B/09_phone.jpg,1,9,1,1,4,2,1,7,0,56,,,,,,,,,,,,,,,,,,,,
,,,,,56,2020-07-04_15h50.25.284,retriever_ti,2020.1.3,Win32,60,Chrome,1366,768,,,,,,,,,,,,,,,,,3,,,,,,,,,,,,,,,,,,,,,,,,,,,1004.693875,177,right,1.23535,wolf          ,3,1,-3,0,3,1004.71093,1004.71093,1007.20243,0,22,22,22,1,177,6,3,slipper     ,wolf          ,html/resources/sequences_IDs/B/08_slipper.jpg,html/resources/sequences_IDs/A/01_wolf.jpg,8,1,3,2,1,1,6,1,0,56,,,,,,,,,,,,,,,,,,,,
,,,,,56,2020-07-04_15h50.25.284,retriever_ti,2020.1.3,Win32,60,Chrome,1366,768,,,,,,,,,,,,,,,,,3,,,,,,,,,,,,,,,,,,,,,,,,,,,1007.80502,178,left,0.942715,phone       ,8,9,1,1,1,1007.82204,1007.82204,1010.313405,0,23,23,23,1,178,8,7,phone       ,seaturtle     ,html/resources/sequences_IDs/B/09_phone.jpg,html/resources/sequences_IDs/A/02_seaturtle.jpg,9,2,4,2,2,1,7,2,0,56,,,,,,,,,,,,,,,,,,,,
,,,,,56,2020-07-04_15h50.25.284,retriever_ti,2020.1.3,Win32,60,Chrome,1366,768,,,,,,,,,,,,,,,,,3,,,,,,,,,,,,,,,,,,,,,,,,,,,1011.417735,179,left,1.12806,peacock       ,1,5,-1,0,0,1011.434595,1011.434595,1013.926095,0,24,24,24,1,179,1,2,peacock       ,gloves      ,html/resources/sequences_IDs/A/05_peacock.jpg,html/resources/sequences_IDs/B/06_gloves.jpg,5,6,2,1,3,2,4,5,0,56,,,,,,,,,,,,,,,,,,,,
,,,,,56,2020-07-04_15h50.25.284,retriever_ti,2020.1.3,Win32,60,Chrome,1366,768,,,,,,,,,,,,,,,,,3,,,,,,,,,,,,,,,,,,,,,,,,,,,1015.030235,180,left,0.948045,seaturtle     ,7,2,5,1,3,1015.047445,1015.047445,1017.538745,0,25,25,25,1,180,7,2,seaturtle     ,gloves      ,html/resources/sequences_IDs/A/02_seaturtle.jpg,html/resources/sequences_IDs/B/06_gloves.jpg,2,6,2,1,3,2,2,5,0,56,,,,,,,,,,,,,,,,,,,,
,,,,,56,2020-07-04_15h50.25.284,retriever_ti,2020.1.3,Win32,60,Chrome,1366,768,,,,,,,,,,,,,,,,,3,,,,,,,,,,,,,,,,,,,,,,,,,,,1018.14144,181,right,0.67968,seaturtle     ,7,2,5,1,3,1018.174955,1018.174955,1020.666445,0,26,26,26,1,181,2,7,gloves      ,seaturtle     ,html/resources/sequences_IDs/B/06_gloves.jpg,html/resources/sequences_IDs/A/02_seaturtle.jpg,6,2,3,2,2,1,5,2,0,56,,,,,,,,,,,,,,,,,,,,
,,,,,56,2020-07-04_15h50.25.284,retriever_ti,2020.1.3,Win32,60,Chrome,1366,768,,,,,,,,,,,,,,,,,3,,,,,,,,,,,,,,,,,,,,,,,,,,,1021.26906,182,left,1.98994,gloves      ,2,6,-1,0,1,1021.302635,1021.302635,1023.79411,0,27,27,27,1,182,2,3,gloves      ,wolf          ,html/resources/sequences_IDs/B/06_gloves.jpg,html/resources/sequences_IDs/A/01_wolf.jpg,6,1,3,2,1,1,5,1,1,56,,,,,,,,,,,,,,,,,,,,
,,,,,56,2020-07-04_15h50.25.284,retriever_ti,2020.1.3,Win32,60,Chrome,1366,768,,,,,,,,,,,,,,,,,3,,,,,,,,,,,,,,,,,,,,,,,,,,,1024.89861,183,right,1.410555,wolf          ,3,1,-5,0,3,1024.91524,1024.91524,1027.406815,0,28,28,28,1,183,8,3,phone       ,wolf          ,html/resources/sequences_IDs/B/09_phone.jpg,html/resources/sequences_IDs/A/01_wolf.jpg,9,1,4,2,1,1,7,1,0,56,,,,,,,,,,,,,,,,,,,,
,,,,,56,2020-07-04_15h50.25.284,retriever_ti,2020.1.3,Win32,60,Chrome,1366,768,,,,,,,,,,,,,,,,,3,,,,,,,,,,,,,,,,,,,,,,,,,,,1028.00946,184,right,1.61126,camel         ,5,3,4,1,3,1028.042935,1028.042935,1030.53446,0,29,29,29,1,184,1,5,peacock       ,camel         ,html/resources/sequences_IDs/A/05_peacock.jpg,html/resources/sequences_IDs/A/03_camel.jpg,5,3,2,1,1,1,4,3,0,56,,,,,,,,,,,,,,,,,,,,
,,,,,56,2020-07-04_15h50.25.284,retriever_ti,2020.1.3,Win32,60,Chrome,1366,768,,,,,,,,,,,,,,,,,3,,,,,,,,,,,,,,,,,,,,,,,,,,,1031.137075,185,left,1.432825,radio       ,4,10,-1,0,1,1031.170625,1031.170625,1033.662125,0,30,30,30,1,185,4,5,radio       ,camel         ,html/resources/sequences_IDs/B/10_radio.jpg,html/resources/sequences_IDs/A/03_camel.jpg,10,3,4,2,1,1,8,3,1,56,,,,,,,,,,,,,,,,,,,,
,,,,,56,2020-07-04_15h50.25.284,retriever_ti,2020.1.3,Win32,60,Chrome,1366,768,,,,,,,,,,,,,,,,,3,,,,,,,,,,,,,,,,,,,,,,,,,,,1034.76625,186,left,0.94394,radio       ,4,10,1,1,1,1034.80004,1034.80004,1037.291565,0,31,31,31,1,186,4,3,radio       ,wolf          ,html/resources/sequences_IDs/B/10_radio.jpg,html/resources/sequences_IDs/A/01_wolf.jpg,10,1,4,2,1,1,8,1,0,56,,,,,,,,,,,,,,,,,,,,
,,,,,56,2020-07-04_15h50.25.284,retriever_ti,2020.1.3,Win32,60,Chrome,1366,768,,,,,,,,,,,,,,,,,3,,,,,,,,,,,,,,,,,,,,,,,,,,,1038.3962,187,right,0.57707,radio       ,4,10,1,1,1,1038.41289,1038.41289,1040.904245,0,32,32,32,1,187,3,4,wolf          ,radio       ,html/resources/sequences_IDs/A/01_wolf.jpg,html/resources/sequences_IDs/B/10_radio.jpg,1,10,1,1,4,2,1,8,0,56,,,,,,,,,,,,,,,,,,,,
,,,,,56,2020-07-04_15h50.25.284,retriever_ti,2020.1.3,Win32,60,Chrome,1366,768,,,,,,,,,,,,,,,,,3,,,,,,,,,,,,,,,,,,,,,,,,,,,1042.00874,188,right,0.626985,radio       ,4,10,1,1,1,1042.04218,1042.04218,1044.53365,0,33,33,33,1,188,3,4,wolf          ,radio       ,html/resources/sequences_IDs/A/01_wolf.jpg,html/resources/sequences_IDs/B/10_radio.jpg,1,10,1,1,4,2,1,8,0,56,,,,,,,,,,,,,,,,,,,,
,,,,,56,2020-07-04_15h50.25.284,retriever_ti,2020.1.3,Win32,60,Chrome,1366,768,,,,,,,,,,,,,,,,,3,,,,,,,,,,,,,,,,,,,,,,,,,,,1045.63807,189,left,0.747305,gloves      ,2,6,-2,0,3,1045.6549,1045.6549,1048.146395,0,34,34,34,1,189,2,4,gloves      ,radio       ,html/resources/sequences_IDs/B/06_gloves.jpg,html/resources/sequences_IDs/B/10_radio.jpg,6,10,3,2,4,2,5,8,0,56,,,,,,,,,,,,,,,,,,,,
,,,,,56,2020-07-04_15h50.25.284,retriever_ti,2020.1.3,Win32,60,Chrome,1366,768,,,,,,,,,,,,,,,,,3,,,,,,,,,,,,,,,,,,,,,,,,,,,1048.7487,190,left,0.677075,gloves      ,2,6,-6,0,3,1048.782525,1048.782525,1051.274025,0,35,35,35,1,190,2,8,gloves      ,phone       ,html/resources/sequences_IDs/B/06_gloves.jpg,html/resources/sequences_IDs/B/09_phone.jpg,6,9,3,2,4,2,5,7,0,56,,,,,,,,,,,,,,,,,,,,
,,,,,56,2020-07-04_15h50.25.284,retriever_ti,2020.1.3,Win32,60,Chrome,1366,768,,,,,,,,,,,,,,,,,3,,,,,,,,,,,,,,,,,,,,,,,,,,,1051.87667,191,right,1.834075,radio       ,4,10,3,1,3,1051.910205,1051.910205,1054.40175,0,36,36,36,1,191,1,4,peacock       ,radio       ,html/resources/sequences_IDs/A/05_peacock.jpg,html/resources/sequences_IDs/B/10_radio.jpg,5,10,2,1,4,2,4,8,0,56,,,,,,,,,,,,,,,,,,,,
,,,,,56,2020-07-04_15h50.25.284,retriever_ti,2020.1.3,Win32,60,Chrome,1366,768,,,,,,,,,,,,,,,,,3,,,,,,,,,,,,,,,,,,,,,,,,,,,1055.00405,192,left,0.875155,gloves      ,2,6,-4,0,3,1055.02117,1055.02117,1057.51266,0,37,37,37,1,192,2,6,gloves      ,slipper     ,html/resources/sequences_IDs/B/06_gloves.jpg,html/resources/sequences_IDs/B/08_slipper.jpg,6,8,3,2,3,2,5,6,0,56,,,,,,,,,,,,,,,,,,,,
,,,,,56,2020-07-04_15h50.25.284,retriever_ti,2020.1.3,Win32,60,Chrome,1366,768,,,,,,,,,,,,,,,,,3,,,,,,,,,,,,,,,,,,,,,,,,,,,1058.115325,193,right,1.163165,seaturtle     ,7,2,-1,0,1,1058.14881,1058.14881,1060.640295,0,38,38,38,1,193,8,7,phone       ,seaturtle     ,html/resources/sequences_IDs/B/09_phone.jpg,html/resources/sequences_IDs/A/02_seaturtle.jpg,9,2,4,2,2,1,7,2,1,56,,,,,,,,,,,,,,,,,,,,
,,,,,56,2020-07-04_15h50.25.284,retriever_ti,2020.1.3,Win32,60,Chrome,1366,768,,,,,,,,,,,,,,,,,3,,,,,,,,,,,,,,,,,,,,,,,,,,,1061.744705,194,left,0.591125,seaturtle     ,7,2,4,1,3,1061.76148,1061.76148,1064.25298,0,39,39,39,1,194,7,3,seaturtle     ,wolf          ,html/resources/sequences_IDs/A/02_seaturtle.jpg,html/resources/sequences_IDs/A/01_wolf.jpg,2,1,2,1,1,1,2,1,0,56,,,,,,,,,,,,,,,,,,,,
,,,,,56,2020-07-04_15h50.25.284,retriever_ti,2020.1.3,Win32,60,Chrome,1366,768,,,,,,,,,,,,,,,,,3,,,,,,,,,,,,,,,,,,,,,,,,,,,1064.855405,195,left,1.901465,camel         ,5,3,-3,0,3,1064.87243,1064.87243,1067.363955,0,40,40,40,1,195,5,8,camel         ,phone       ,html/resources/sequences_IDs/A/03_camel.jpg,html/resources/sequences_IDs/B/09_phone.jpg,3,9,1,1,4,2,3,7,0,56,,,,,,,,,,,,,,,,,,,,
,,,,,56,2020-07-04_15h50.25.284,retriever_ti,2020.1.3,Win32,60,Chrome,1366,768,,,,,,,,,,,,,,,,,3,,,,,,,,,,,,,,,,,,,,,,,,,,,1067.966605,196,left,0.595555,radio       ,4,10,1,1,0,1067.98345,1067.98345,1070.474925,0,41,41,41,1,196,4,3,radio       ,wolf          ,html/resources/sequences_IDs/B/10_radio.jpg,html/resources/sequences_IDs/A/01_wolf.jpg,10,1,4,2,1,1,8,1,1,56,,,,,,,,,,,,,,,,,,,,
,,,,,56,2020-07-04_15h50.25.284,retriever_ti,2020.1.3,Win32,60,Chrome,1366,768,,,,,,,,,,,,,,,,,3,,,,,,,,,,,,,,,,,,,,,,,,,,,1071.57928,197,left,0.811545,radio       ,4,10,3,1,3,1071.59606,1071.59606,1074.08758,0,42,42,42,1,197,4,1,radio       ,peacock       ,html/resources/sequences_IDs/B/10_radio.jpg,html/resources/sequences_IDs/A/05_peacock.jpg,10,5,4,2,2,1,8,4,0,56,,,,,,,,,,,,,,,,,,,,
,,,,,56,2020-07-04_15h50.25.284,retriever_ti,2020.1.3,Win32,60,Chrome,1366,768,,,,,,,,,,,,,,,,,3,,,,,,,,,,,,,,,,,,,,,,,,,,,1074.689915,198,left,0.43959,wolf          ,3,1,-4,0,3,1074.707065,1074.707065,1077.19853,0,43,43,43,1,198,3,7,wolf          ,seaturtle     ,html/resources/sequences_IDs/A/01_wolf.jpg,html/resources/sequences_IDs/A/02_seaturtle.jpg,1,2,1,1,2,1,1,2,0,56,,,,,,,,,,,,,,,,,,,,
,,,,,56,2020-07-04_15h50.25.284,retriever_ti,2020.1.3,Win32,60,Chrome,1366,768,,,,,,,,,,,,,,,,,3,,,,,,,,,,,,,,,,,,,,,,,,,,,1077.801155,199,right,0.76833,seaturtle     ,7,2,1,1,0,1077.818015,1077.818015,1080.309455,0,44,44,44,1,199,6,7,slipper     ,seaturtle     ,html/resources/sequences_IDs/B/08_slipper.jpg,html/resources/sequences_IDs/A/02_seaturtle.jpg,8,2,3,2,2,1,6,2,1,56,,,,,,,,,,,,,,,,,,,,
,,,,,56,2020-07-04_15h50.25.284,retriever_ti,2020.1.3,Win32,60,Chrome,1366,768,,,,,,,,,,,,,,,,,3,,,,,,,,,,,,,,,,,,,,,,,,,,,1081.41385,200,left,0.856035,wolf          ,3,1,-2,0,3,1081.430615,1081.430615,1083.92224,0,45,45,45,1,200,3,5,wolf          ,camel         ,html/resources/sequences_IDs/A/01_wolf.jpg,html/resources/sequences_IDs/A/03_camel.jpg,1,3,1,1,1,1,1,3,0,56,,,,,,,,,,,,,,,,,,,,
,,,,,56,2020-07-04_15h50.25.284,retriever_ti,2020.1.3,Win32,60,Chrome,1366,768,,,,,,,,,,,,,,,,,3,,,,,,,,,,,,,,,,,,,,,,,,,,,1084.52454,201,left,2.24787,seaturtle     ,7,2,1,1,1,1084.55835,1084.55835,1087.04982,0,46,46,46,1,201,7,6,seaturtle     ,slipper     ,html/resources/sequences_IDs/A/02_seaturtle.jpg,html/resources/sequences_IDs/B/08_slipper.jpg,2,8,2,1,3,2,2,6,0,56,,,,,,,,,,,,,,,,,,,,
,,,,,56,2020-07-04_15h50.25.284,retriever_ti,2020.1.3,Win32,60,Chrome,1366,768,,,,,,,,,,,,,,,,,3,,,,,,,,,,,,,,,,,,,,,,,,,,,1088.15419,202,left,1.644165,phone       ,8,9,6,1,3,1088.171015,1088.171015,1090.662515,0,47,47,47,1,202,8,2,phone       ,gloves      ,html/resources/sequences_IDs/B/09_phone.jpg,html/resources/sequences_IDs/B/06_gloves.jpg,9,6,4,2,3,2,7,5,0,56,,,,,,,,,,,,,,,,,,,,
,,,,,56,2020-07-04_15h50.25.284,retriever_ti,2020.1.3,Win32,60,Chrome,1366,768,,,,,,,,,,,,,,,,,3,,,,,,,,,,,,,,,,,,,,,,,,,,,1091.265115,203,left,0.937115,seaturtle     ,7,2,-1,0,0,1091.29865,1091.29865,1093.79025,0,48,48,48,1,203,7,8,seaturtle     ,phone       ,html/resources/sequences_IDs/A/02_seaturtle.jpg,html/resources/sequences_IDs/B/09_phone.jpg,2,9,2,1,4,2,2,7,0,56,,,,,,,,,,,,,,,,,,,,
,,,,,56,2020-07-04_15h50.25.284,retriever_ti,2020.1.3,Win32,60,Chrome,1366,768,,,,,,,,,,,,,,,,,3,,,,,,,,,,,,,,,,,,,,,,,,,,,1094.894325,204,right,0.963335,wolf          ,3,1,2,1,3,1094.928155,1094.928155,1097.41961,0,49,49,49,1,204,1,3,peacock       ,wolf          ,html/resources/sequences_IDs/A/05_peacock.jpg,html/resources/sequences_IDs/A/01_wolf.jpg,5,1,2,1,1,1,4,1,0,56,,,,,,,,,,,,,,,,,,,,
,,,,,56,2020-07-04_15h50.25.284,retriever_ti,2020.1.3,Win32,60,Chrome,1366,768,,,,,,,,,,,,,,,,,3,,,,,,,,,,,,,,,,,,,,,,,,,,,1098.022265,205,left,1.805605,camel         ,5,3,-1,0,0,1098.039035,1098.039035,1100.530535,0,50,50,50,1,205,5,6,camel         ,slipper     ,html/resources/sequences_IDs/A/03_camel.jpg,html/resources/sequences_IDs/B/08_slipper.jpg,3,8,1,1,3,2,3,6,0,56,,,,,,,,,,,,,,,,,,,,
,,,,,56,2020-07-04_15h50.25.284,retriever_ti,2020.1.3,Win32,60,Chrome,1366,768,,,,,,,,,,,,,,,,,3,,,,,,,,,,,,,,,,,,,,,,,,,,,1101.6349,206,left,0.78554,wolf          ,3,1,2,1,3,1101.66852,1101.66852,1104.159995,0,51,51,51,1,206,3,1,wolf          ,peacock       ,html/resources/sequences_IDs/A/01_wolf.jpg,html/resources/sequences_IDs/A/05_peacock.jpg,1,5,1,1,2,1,1,4,0,56,,,,,,,,,,,,,,,,,,,,
,,,,,56,2020-07-04_15h50.25.284,retriever_ti,2020.1.3,Win32,60,Chrome,1366,768,,,,,,,,,,,,,,,,,3,,,,,,,,,,,,,,,,,,,,,,,,,,,1104.76232,207,right,0.731225,seaturtle     ,7,2,-1,0,0,1104.77948,1104.77948,1107.27095,0,52,52,52,1,207,8,7,phone       ,seaturtle     ,html/resources/sequences_IDs/B/09_phone.jpg,html/resources/sequences_IDs/A/02_seaturtle.jpg,9,2,4,2,2,1,7,2,0,56,,,,,,,,,,,,,,,,,,,,
,,,,,56,2020-07-04_15h50.25.284,retriever_ti,2020.1.3,Win32,60,Chrome,1366,768,,,,,,,,,,,,,,,,,3,,,,,,,,,,,,,,,,,,,,,,,,,,,1108.375265,208,left,1.355175,gloves      ,2,6,1,1,1,1108.408815,1108.408815,1110.90035,0,53,53,53,1,208,2,1,gloves      ,peacock       ,html/resources/sequences_IDs/B/06_gloves.jpg,html/resources/sequences_IDs/A/05_peacock.jpg,6,5,3,2,2,1,5,4,0,56,,,,,,,,,,,,,,,,,,,,
,,,,,56,2020-07-04_15h50.25.284,retriever_ti,2020.1.3,Win32,60,Chrome,1366,768,,,,,,,,,,,,,,,,,3,,,,,,,,,,,,,,,,,,,,,,,,,,,1112.004715,209,right,1.888085,slipper     ,6,8,-2,0,3,1112.038255,1112.038255,1114.52978,0,54,54,54,1,209,8,6,phone       ,slipper     ,html/resources/sequences_IDs/B/09_phone.jpg,html/resources/sequences_IDs/B/08_slipper.jpg,9,8,4,2,3,2,7,6,0,56,,,,,,,,,,,,,,,,,,,,
,,,,,56,2020-07-04_15h50.25.284,retriever_ti,2020.1.3,Win32,60,Chrome,1366,768,,,,,,,,,,,,,,,,,3,,,,,,,,,,,,,,,,,,,,,,,,,,,1115.13214,210,left,1.00208,radio       ,4,10,-1,0,0,1115.149315,1115.149315,1117.640695,0,55,55,55,1,210,4,5,radio       ,camel         ,html/resources/sequences_IDs/B/10_radio.jpg,html/resources/sequences_IDs/A/03_camel.jpg,10,3,4,2,1,1,8,3,0,56,,,,,,,,,,,,,,,,,,,,
,,,,,56,2020-07-04_15h50.25.284,retriever_ti,2020.1.3,Win32,60,Chrome,1366,768,,,,,,,,,,,,,,,,,3,,,,,,,,,,,,,,,,,,,,,,,,,,,1118.744755,211,right,1.001325,gloves      ,2,6,1,1,1,1118.761905,1118.761905,1121.253395,0,56,56,56,1,211,1,2,peacock       ,gloves      ,html/resources/sequences_IDs/A/05_peacock.jpg,html/resources/sequences_IDs/B/06_gloves.jpg,5,6,2,1,3,2,4,5,0,56,,,,,,,,,,,,,,,,,,,,
,,,,,56,2020-07-04_15h50.25.284,retriever_ti,2020.1.3,Win32,60,Chrome,1366,768,,,,,,,,,,,,,,,,,3,,,,,,,,,,,,,,,,,,,,,,,,,,,1122.357815,212,left,0.94488,seaturtle     ,7,2,6,1,3,1122.391415,1122.391415,1124.882795,0,57,57,57,1,212,7,1,seaturtle     ,peacock       ,html/resources/sequences_IDs/A/02_seaturtle.jpg,html/resources/sequences_IDs/A/05_peacock.jpg,2,5,2,1,2,1,2,4,0,56,,,,,,,,,,,,,,,,,,,,
,,,,,56,2020-07-04_15h50.25.284,retriever_ti,2020.1.3,Win32,60,Chrome,1366,768,,,,,,,,,,,,,,,,,3,,,,,,,,,,,,,,,,,,,,,,,,,,,1125.48551,213,right,1.456315,gloves      ,2,6,-4,0,3,1125.50227,1125.50227,1127.993875,0,58,58,58,1,213,6,2,slipper     ,gloves      ,html/resources/sequences_IDs/B/08_slipper.jpg,html/resources/sequences_IDs/B/06_gloves.jpg,8,6,3,2,3,2,6,5,0,56,,,,,,,,,,,,,,,,,,,,
,,,,,56,2020-07-04_15h50.25.284,retriever_ti,2020.1.3,Win32,60,Chrome,1366,768,,,,,,,,,,,,,,,,,3,,,,,,,,,,,,,,,,,,,,,,,,,,,1128.596095,214,left,1.869745,phone       ,8,9,3,1,3,1128.61317,1128.61317,1131.104815,0,59,59,59,1,214,8,5,phone       ,camel         ,html/resources/sequences_IDs/B/09_phone.jpg,html/resources/sequences_IDs/A/03_camel.jpg,9,3,4,2,1,1,7,3,0,56,,,,,,,,,,,,,,,,,,,,
,,,,,56,2020-07-04_15h50.25.284,retriever_ti,2020.1.3,Win32,60,Chrome,1366,768,,,,,,,,,,,,,,,,,3,,,,,,,,,,,,,,,,,,,,,,,,,,,1131.70749,215,left,1.271285,radio       ,4,10,-1,0,0,1131.72422,1131.72422,1134.215625,0,60,60,60,1,215,4,5,radio       ,camel         ,html/resources/sequences_IDs/B/10_radio.jpg,html/resources/sequences_IDs/A/03_camel.jpg,10,3,4,2,1,1,8,3,0,56,,,,,,,,,,,,,,,,,,,,
,,,,,56,2020-07-04_15h50.25.284,retriever_ti,2020.1.3,Win32,60,Chrome,1366,768,,,,,,,,,,,,,,,,,3,,,,,,,,,,,,,,,,,,,,,,,,,,,1135.31997,216,right,1.01796,gloves      ,2,6,-1,0,0,1135.33681,1135.33681,1137.828355,0,61,61,61,1,216,3,2,wolf          ,gloves      ,html/resources/sequences_IDs/A/01_wolf.jpg,html/resources/sequences_IDs/B/06_gloves.jpg,1,6,1,1,3,2,1,5,0,56,,,,,,,,,,,,,,,,,,,,
,,,,,56,2020-07-04_15h50.25.284,retriever_ti,2020.1.3,Win32,60,Chrome,1366,768,,,,,,,,,,,,,,,,,3,,,,,,,,,,,,,,,,,,,,,,,,,,,1138.932405,217,right,0.50167,wolf          ,3,1,-2,0,3,1138.94962,1138.94962,1141.441045,0,62,62,62,1,217,5,3,camel         ,wolf          ,html/resources/sequences_IDs/A/03_camel.jpg,html/resources/sequences_IDs/A/01_wolf.jpg,3,1,1,1,1,1,3,1,0,56,,,,,,,,,,,,,,,,,,,,
,,,,,56,2020-07-04_15h50.25.284,retriever_ti,2020.1.3,Win32,60,Chrome,1366,768,,,,,,,,,,,,,,,,,3,,,,,,,,,,,,,,,,,,,,,,,,,,,1142.04364,218,right,1.74736,phone       ,8,9,1,1,1,1142.077215,1142.077215,1144.568695,0,63,63,63,1,218,7,8,seaturtle     ,phone       ,html/resources/sequences_IDs/A/02_seaturtle.jpg,html/resources/sequences_IDs/B/09_phone.jpg,2,9,2,1,4,2,2,7,0,56,,,,,,,,,,,,,,,,,,,,
,,,,,56,2020-07-04_15h50.25.284,retriever_ti,2020.1.3,Win32,60,Chrome,1366,768,,,,,,,,,,,,,,,,,3,,,,,,,,,,,,,,,,,,,,,,,,,,,1145.67307,219,right,1.453505,slipper     ,6,8,1,1,1,1145.70663,1145.70663,1148.198165,0,64,64,64,1,219,5,6,camel         ,slipper     ,html/resources/sequences_IDs/A/03_camel.jpg,html/resources/sequences_IDs/B/08_slipper.jpg,3,8,1,1,3,2,3,6,0,56,,,,,,,,,,,,,,,,,,,,
,,,,,56,2020-07-04_15h50.25.284,retriever_ti,2020.1.3,Win32,60,Chrome,1366,768,,,,,,,,,,,,,,,,,3,,,,,,,,,,,,,,,,,,,,,,,,,,,1149.30246,220,right,0.590215,slipper     ,6,8,5,1,3,1149.319335,1149.319335,1151.810815,0,65,65,65,1,220,1,6,peacock       ,slipper     ,html/resources/sequences_IDs/A/05_peacock.jpg,html/resources/sequences_IDs/B/08_slipper.jpg,5,8,2,1,3,2,4,6,0,56,,,,,,,,,,,,,,,,,,,,
,,,,,56,2020-07-04_15h50.25.284,retriever_ti,2020.1.3,Win32,60,Chrome,1366,768,,,,,,,,,,,,,,,,,3,,,,,,,,,,,,,,,,,,,,,,,,,,,1152.413195,221,left,0.94353,camel         ,5,3,4,1,3,1152.43026,1152.43026,1154.921825,0,66,66,66,1,221,5,1,camel         ,peacock       ,html/resources/sequences_IDs/A/03_camel.jpg,html/resources/sequences_IDs/A/05_peacock.jpg,3,5,1,1,2,1,3,4,0,56,,,,,,,,,,,,,,,,,,,,
,,,,,56,2020-07-04_15h50.25.284,retriever_ti,2020.1.3,Win32,60,Chrome,1366,768,,,,,,,,,,,,,,,,,3,,,,,,,,,,,,,,,,,,,,,,,,,,,1155.524395,222,left,2.207545,slipper     ,6,8,1,1,1,1155.541195,1155.541195,1158.03271,0,67,67,67,1,222,6,5,slipper     ,camel         ,html/resources/sequences_IDs/B/08_slipper.jpg,html/resources/sequences_IDs/A/03_camel.jpg,8,3,3,2,1,1,6,3,0,56,,,,,,,,,,,,,,,,,,,,
,,,,,56,2020-07-04_15h50.25.284,retriever_ti,2020.1.3,Win32,60,Chrome,1366,768,,,,,,,,,,,,,,,,,3,,,,,,,,,,,,,,,,,,,,,,,,,,,1159.13684,223,left,0.680535,phone       ,8,9,7,1,3,1159.17068,1159.17068,1161.662105,0,68,68,68,1,223,8,1,phone       ,peacock       ,html/resources/sequences_IDs/B/09_phone.jpg,html/resources/sequences_IDs/A/05_peacock.jpg,9,5,4,2,2,1,7,4,0,56,,,,,,,,,,,,,,,,,,,,
,,,,,56,2020-07-04_15h50.25.284,retriever_ti,2020.1.3,Win32,60,Chrome,1366,768,,,,,,,,,,,,,,,,,3,,,,,,,,,,,,,,,,,,,,,,,,,,,1162.264455,224,left,0.77549,gloves      ,2,6,1,1,1,1162.29831,1162.29831,1164.78982,0,69,69,69,1,224,2,1,gloves      ,peacock       ,html/resources/sequences_IDs/B/06_gloves.jpg,html/resources/sequences_IDs/A/05_peacock.jpg,6,5,3,2,2,1,5,4,0,56,,,,,,,,,,,,,,,,,,,,
