instructionsLoop.thisRepN,instructionsLoop.thisTrialN,instructionsLoop.thisN,instructionsLoop.thisIndex,instructionsLoop.ran,participant,date,expName,psychopyVersion,OS,frameRate,browser,xResolution,yResolution,fix_onset,tprac,practiceKey.keys,practiceKey.rt,pracitem_chosen_name,acc_practice,P1_onsetPrac,P2_onsetPrac,onsetFeedbPrac,practiceTrials.thisRepN,practiceTrials.thisTrialN,practiceTrials.thisN,practiceTrials.thisIndex,practiceTrials.ran,P1,P2,Block,LocItem1,LocItem2,NameItem1,NameItem2,key_respAC_prac.keys,key_respAC_prac.corr,key_respAC_prac.rt,AC_acc,Attentions.thisRepN,Attentions.thisTrialN,Attentions.thisN,Attentions.thisIndex,Attentions.ran,Stim,Loc1,Loc2,Loc3,Loc4,CorrAns,keyDisturbed.keys,keyDisturbed.rt,repPractice.thisRepN,repPractice.thisTrialN,repPractice.thisN,repPractice.thisIndex,repPractice.ran,fixcross_onsetMain,trialNumber,key_resp.keys,key_resp.rt,item_chosen_name,item_chosen_value,item_chosen_ID,diff_chosen_minus_reject,acc_real,acc_feedback,P1_onset,P2_onset,feedb_onset,trials.thisRepN,trials.thisTrialN,trials.thisN,trials.thisIndex,trials.ran,Trial,ValueP1,ValueP2,P1name,P2name,P1Loc,P2Loc,P1id,P2id,Micro_categoryP1,Macro_categoryP1,Micro_categoryP2,Macro_categoryP2,ID_sequenceP1,ID_sequenceP2,InverseFb,pNumber,repBlocks.thisRepN,repBlocks.thisTrialN,repBlocks.thisN,repBlocks.thisIndex,repBlocks.ran,key_respAC.keys,key_respAC.corr,key_respAC.rt,trials_AC.thisRepN,trials_AC.thisTrialN,trials_AC.thisN,trials_AC.thisIndex,trials_AC.ran,Bonus,BonusLoop.thisRepN,BonusLoop.thisTrialN,BonusLoop.thisN,BonusLoop.thisIndex,BonusLoop.ran,comments
0,0,0,0,1,57,2020-07-04_10h55.02.127,retriever_ti,2020.1.3,MacIntel,60,Chrome,1440,900,,,,,,,,,,,,,,,,,,,,,,,,,,,,,,,,,,,,,,,,,,,,,,,,,,,,,,,,,,,,,,,,,,,,,,,,,,,,,,,,,,,,,,,,,,,,,,,,,,
1,0,1,0,1,57,2020-07-04_10h55.02.127,retriever_ti,2020.1.3,MacIntel,60,Chrome,1440,900,,,,,,,,,,,,,,,,,,,,,,,,,,,,,,,,,,,,,,,,,,,,,,,,,,,,,,,,,,,,,,,,,,,,,,,,,,,,,,,,,,,,,,,,,,,,,,,,,,
2,0,2,0,1,57,2020-07-04_10h55.02.127,retriever_ti,2020.1.3,MacIntel,60,Chrome,1440,900,,,,,,,,,,,,,,,,,,,,,,,,,,,,,,,,,,,,,,,,,,,,,,,,,,,,,,,,,,,,,,,,,,,,,,,,,,,,,,,,,,,,,,,,,,,,,,,,,,
3,0,3,0,1,57,2020-07-04_10h55.02.127,retriever_ti,2020.1.3,MacIntel,60,Chrome,1440,900,,,,,,,,,,,,,,,,,,,,,,,,,,,,,,,,,,,,,,,,,,,,,,,,,,,,,,,,,,,,,,,,,,,,,,,,,,,,,,,,,,,,,,,,,,,,,,,,,,
4,0,4,0,1,57,2020-07-04_10h55.02.127,retriever_ti,2020.1.3,MacIntel,60,Chrome,1440,900,,,,,,,,,,,,,,,,,,,,,,,,,,,,,,,,,,,,,,,,,,,,,,,,,,,,,,,,,,,,,,,,,,,,,,,,,,,,,,,,,,,,,,,,,,,,,,,,,,
5,0,5,0,1,57,2020-07-04_10h55.02.127,retriever_ti,2020.1.3,MacIntel,60,Chrome,1440,900,,,,,,,,,,,,,,,,,,,,,,,,,,,,,,,,,,,,,,,,,,,,,,,,,,,,,,,,,,,,,,,,,,,,,,,,,,,,,,,,,,,,,,,,,,,,,,,,,,
6,0,6,0,1,57,2020-07-04_10h55.02.127,retriever_ti,2020.1.3,MacIntel,60,Chrome,1440,900,,,,,,,,,,,,,,,,,,,,,,,,,,,,,,,,,,,,,,,,,,,,,,,,,,,,,,,,,,,,,,,,,,,,,,,,,,,,,,,,,,,,,,,,,,,,,,,,,,
7,0,7,0,1,57,2020-07-04_10h55.02.127,retriever_ti,2020.1.3,MacIntel,60,Chrome,1440,900,,,,,,,,,,,,,,,,,,,,,,,,,,,,,,,,,,,,,,,,,,,,,,,,,,,,,,,,,,,,,,,,,,,,,,,,,,,,,,,,,,,,,,,,,,,,,,,,,,
8,0,8,0,1,57,2020-07-04_10h55.02.127,retriever_ti,2020.1.3,MacIntel,60,Chrome,1440,900,,,,,,,,,,,,,,,,,,,,,,,,,,,,,,,,,,,,,,,,,,,,,,,,,,,,,,,,,,,,,,,,,,,,,,,,,,,,,,,,,,,,,,,,,,,,,,,,,,
9,0,9,0,1,57,2020-07-04_10h55.02.127,retriever_ti,2020.1.3,MacIntel,60,Chrome,1440,900,,,,,,,,,,,,,,,,,,,,,,,,,,,,,,,,,,,,,,,,,,,,,,,,,,,,,,,,,,,,,,,,,,,,,,,,,,,,,,,,,,,,,,,,,,,,,,,,,,
10,0,10,0,1,57,2020-07-04_10h55.02.127,retriever_ti,2020.1.3,MacIntel,60,Chrome,1440,900,,,,,,,,,,,,,,,,,,,,,,,,,,,,,,,,,,,,,,,,,,,,,,,,,,,,,,,,,,,,,,,,,,,,,,,,,,,,,,,,,,,,,,,,,,,,,,,,,,
11,0,11,0,1,57,2020-07-04_10h55.02.127,retriever_ti,2020.1.3,MacIntel,60,Chrome,1440,900,,,,,,,,,,,,,,,,,,,,,,,,,,,,,,,,,,,,,,,,,,,,,,,,,,,,,,,,,,,,,,,,,,,,,,,,,,,,,,,,,,,,,,,,,,,,,,,,,,
12,0,12,0,1,57,2020-07-04_10h55.02.127,retriever_ti,2020.1.3,MacIntel,60,Chrome,1440,900,,,,,,,,,,,,,,,,,,,,,,,,,,,,,,,,,,,,,,,,,,,,,,,,,,,,,,,,,,,,,,,,,,,,,,,,,,,,,,,,,,,,,,,,,,,,,,,,,,
13,0,13,0,1,57,2020-07-04_10h55.02.127,retriever_ti,2020.1.3,MacIntel,60,Chrome,1440,900,,,,,,,,,,,,,,,,,,,,,,,,,,,,,,,,,,,,,,,,,,,,,,,,,,,,,,,,,,,,,,,,,,,,,,,,,,,,,,,,,,,,,,,,,,,,,,,,,,
14,0,14,0,1,57,2020-07-04_10h55.02.127,retriever_ti,2020.1.3,MacIntel,60,Chrome,1440,900,,,,,,,,,,,,,,,,,,,,,,,,,,,,,,,,,,,,,,,,,,,,,,,,,,,,,,,,,,,,,,,,,,,,,,,,,,,,,,,,,,,,,,,,,,,,,,,,,,
15,0,15,0,1,57,2020-07-04_10h55.02.127,retriever_ti,2020.1.3,MacIntel,60,Chrome,1440,900,,,,,,,,,,,,,,,,,,,,,,,,,,,,,,,,,,,,,,,,,,,,,,,,,,,,,,,,,,,,,,,,,,,,,,,,,,,,,,,,,,,,,,,,,,,,,,,,,,
16,0,16,0,1,57,2020-07-04_10h55.02.127,retriever_ti,2020.1.3,MacIntel,60,Chrome,1440,900,,,,,,,,,,,,,,,,,,,,,,,,,,,,,,,,,,,,,,,,,,,,,,,,,,,,,,,,,,,,,,,,,,,,,,,,,,,,,,,,,,,,,,,,,,,,,,,,,,
17,0,17,0,1,57,2020-07-04_10h55.02.127,retriever_ti,2020.1.3,MacIntel,60,Chrome,1440,900,,,,,,,,,,,,,,,,,,,,,,,,,,,,,,,,,,,,,,,,,,,,,,,,,,,,,,,,,,,,,,,,,,,,,,,,,,,,,,,,,,,,,,,,,,,,,,,,,,
18,0,18,0,1,57,2020-07-04_10h55.02.127,retriever_ti,2020.1.3,MacIntel,60,Chrome,1440,900,,,,,,,,,,,,,,,,,,,,,,,,,,,,,,,,,,,,,,,,,,,,,,,,,,,,,,,,,,,,,,,,,,,,,,,,,,,,,,,,,,,,,,,,,,,,,,,,,,
19,0,19,0,1,57,2020-07-04_10h55.02.127,retriever_ti,2020.1.3,MacIntel,60,Chrome,1440,900,,,,,,,,,,,,,,,,,,,,,,,,,,,,,,,,,,,,,,,,,,,,,,,,,,,,,,,,,,,,,,,,,,,,,,,,,,,,,,,,,,,,,,,,,,,,,,,,,,
20,0,20,0,1,57,2020-07-04_10h55.02.127,retriever_ti,2020.1.3,MacIntel,60,Chrome,1440,900,,,,,,,,,,,,,,,,,,,,,,,,,,,,,,,,,,,,,,,,,,,,,,,,,,,,,,,,,,,,,,,,,,,,,,,,,,,,,,,,,,,,,,,,,,,,,,,,,,
,,,,,57,2020-07-04_10h55.02.127,retriever_ti,2020.1.3,MacIntel,60,Chrome,1440,900,463.945585,1,right,1.991025,canary,1,464.006,464.006,466.49306,0,0,0,0,1,2,5,1,html/resources/stimuli_practice_decision/04_beetle.jpg,html/resources/stimuli_practice_decision/02_canary.jpg,beetle,canary,,,,,,,,,,,,,,,,,,,,,,,,,,,,,,,,,,,,,,,,,,,,,,,,,,,,,,,,,,,,,,,,,,,,,,,,,,,,,
,,,,,57,2020-07-04_10h55.02.127,retriever_ti,2020.1.3,MacIntel,60,Chrome,1440,900,467.02493,2,left,1.674825,rabbit,1,467.05341,467.05341,469.54629,0,1,1,1,1,4,3,1,html/resources/stimuli_practice_decision/01_rabbit.jpg,html/resources/stimuli_practice_decision/07_sock.jpg,rabbit,sock,,,,,,,,,,,,,,,,,,,,,,,,,,,,,,,,,,,,,,,,,,,,,,,,,,,,,,,,,,,,,,,,,,,,,,,,,,,,,
,,,,,57,2020-07-04_10h55.02.127,retriever_ti,2020.1.3,MacIntel,60,Chrome,1440,900,470.54305,3,right,1.436025,beetle,0,470.576115,470.576115,473.068375,0,2,2,2,1,6,2,1,html/resources/stimuli_practice_decision/06_pullover.jpg,html/resources/stimuli_practice_decision/04_beetle.jpg,pullover,beetle,,,,,,,,,,,,,,,,,,,,,,,,,,,,,,,,,,,,,,,,,,,,,,,,,,,,,,,,,,,,,,,,,,,,,,,,,,,,,
,,,,,57,2020-07-04_10h55.02.127,retriever_ti,2020.1.3,MacIntel,60,Chrome,1440,900,473.57557,4,right,1.20426,handmixer,0,473.609915,473.609915,476.098405,0,3,3,3,1,7,1,1,html/resources/stimuli_practice_decision/05_glasses.jpg,html/resources/stimuli_practice_decision/08_handmixer.jpg,glasses,handmixer,,,,,,,,,,,,,,,,,,,,,,,,,,,,,,,,,,,,,,,,,,,,,,,,,,,,,,,,,,,,,,,,,,,,,,,,,,,,,
,,,,,57,2020-07-04_10h55.02.127,retriever_ti,2020.1.3,MacIntel,60,Chrome,1440,900,476.609055,5,right,1.42066,pullover,0,476.62956,476.62956,479.127305,0,4,4,4,1,7,6,1,html/resources/stimuli_practice_decision/05_glasses.jpg,html/resources/stimuli_practice_decision/06_pullover.jpg,glasses,pullover,,,,,,,,,,,,,,,,,,,,,,,,,,,,,,,,,,,,,,,,,,,,,,,,,,,,,,,,,,,,,,,,,,,,,,,,,,,,,
,,,,,57,2020-07-04_10h55.02.127,retriever_ti,2020.1.3,MacIntel,60,Chrome,1440,900,480.125645,6,NaN,NaN,No_response,2,480.15877,480.15877,482.658685,0,5,5,5,1,4,7,1,html/resources/stimuli_practice_decision/01_rabbit.jpg,html/resources/stimuli_practice_decision/05_glasses.jpg,rabbit,glasses,,,,,,,,,,,,,,,,,,,,,,,,,,,,,,,,,,,,,,,,,,,,,,,,,,,,,,,,,,,,,,,,,,,,,,,,,,,,,
,,,,,57,2020-07-04_10h55.02.127,retriever_ti,2020.1.3,MacIntel,60,Chrome,1440,900,483.66053,7,left,1.31552,handmixer,0,483.67619,483.67619,486.178375,0,6,6,6,1,1,2,1,html/resources/stimuli_practice_decision/08_handmixer.jpg,html/resources/stimuli_practice_decision/04_beetle.jpg,handmixer,beetle,,,,,,,,,,,,,,,,,,,,,,,,,,,,,,,,,,,,,,,,,,,,,,,,,,,,,,,,,,,,,,,,,,,,,,,,,,,,,
,,,,,57,2020-07-04_10h55.02.127,retriever_ti,2020.1.3,MacIntel,60,Chrome,1440,900,487.178,8,left,1.460865,rabbit,1,487.209095,487.209095,489.7079,0,7,7,7,1,4,3,1,html/resources/stimuli_practice_decision/01_rabbit.jpg,html/resources/stimuli_practice_decision/07_sock.jpg,rabbit,sock,,,,,,,,,,,,,,,,,,,,,,,,,,,,,,,,,,,,,,,,,,,,,,,,,,,,,,,,,,,,,,,,,,,,,,,,,,,,,
,,,,,57,2020-07-04_10h55.02.127,retriever_ti,2020.1.3,MacIntel,60,Chrome,1440,900,,,,,,,,,,,,,,,,,,,,,,down,1,5.835525,1,0,0,0,1,1,html/resources/sequences_IDs/star.png,square ↑,circle →,star ↓,← triangle,down,,,,,,,,,,,,,,,,,,,,,,,,,,,,,,,,,,,,,,,,,,,,,,,,,,,,,,,,,,,,,,
,,,,,57,2020-07-04_10h55.02.127,retriever_ti,2020.1.3,MacIntel,60,Chrome,1440,900,,,,,,,,,,,,,,,,,,,,,,left,1,2.22048,1,0,1,1,2,1,html/resources/sequences_IDs/square1.png,star ↑,triangle →,circle ↓,← square,left,,,,,,,,,,,,,,,,,,,,,,,,,,,,,,,,,,,,,,,,,,,,,,,,,,,,,,,,,,,,,,
,,,,,57,2020-07-04_10h55.02.127,retriever_ti,2020.1.3,MacIntel,60,Chrome,1440,900,,,,,,,,,,,,,,,,,,,,,,up,1,4.090575,1,0,2,2,0,1,html/resources/sequences_IDs/circle.png,circle ↑,square →,triangle ↓,← star ,up,,,,,,,,,,,,,,,,,,,,,,,,,,,,,,,,,,,,,,,,,,,,,,,,,,,,,,,,,,,,,,
,,,,,57,2020-07-04_10h55.02.127,retriever_ti,2020.1.3,MacIntel,60,Chrome,1440,900,,,,,,,,,,,,,,,,,,,,,,down,1,2.34689,1,0,3,3,3,1,html/resources/sequences_IDs/triangle.png,star ↑,square →,triangle ↓,← circle,down,,,,,,,,,,,,,,,,,,,,,,,,,,,,,,,,,,,,,,,,,,,,,,,,,,,,,,,,,,,,,,
,,,,,57,2020-07-04_10h55.02.127,retriever_ti,2020.1.3,MacIntel,60,Chrome,1440,900,,,,,,,,,,,,,,,,,,,,,,,,,,,,,,,,,,,,,0,39.78677,0,0,0,0,1,,,,,,,,,,,,,,,,,,,,,,,,,,,,,,,,,,,,,,,,,,,,,,,,,,,,,,,
,,,,,57,2020-07-04_10h55.02.127,retriever_ti,2020.1.3,MacIntel,60,Chrome,1440,900,551.73085,9,left,1.172495,pullover,0,551.789525,551.789525,554.29454,0,0,0,0,1,6,7,1,html/resources/stimuli_practice_decision/06_pullover.jpg,html/resources/stimuli_practice_decision/05_glasses.jpg,pullover,glasses,,,,,,,,,,,,,,,,,,,,,,,,,,,,,,,,,,,,,,,,,,,,,,,,,,,,,,,,,,,,,,,,,,,,,,,,,,,,,
,,,,,57,2020-07-04_10h55.02.127,retriever_ti,2020.1.3,MacIntel,60,Chrome,1440,900,555.290735,10,right,0.804725,beetle,0,555.31113,555.31113,557.8076,0,1,1,1,1,6,2,1,html/resources/stimuli_practice_decision/06_pullover.jpg,html/resources/stimuli_practice_decision/04_beetle.jpg,pullover,beetle,,,,,,,,,,,,,,,,,,,,,,,,,,,,,,,,,,,,,,,,,,,,,,,,,,,,,,,,,,,,,,,,,,,,,,,,,,,,,
,,,,,57,2020-07-04_10h55.02.127,retriever_ti,2020.1.3,MacIntel,60,Chrome,1440,900,558.32475,11,left,0.67843,canary,0,558.342095,558.342095,560.84002,0,2,2,2,1,5,6,1,html/resources/stimuli_practice_decision/02_canary.jpg,html/resources/stimuli_practice_decision/06_pullover.jpg,canary,pullover,,,,,,,,,,,,,,,,,,,,,,,,,,,,,,,,,,,,,,,,,,,,,,,,,,,,,,,,,,,,,,,,,,,,,,,,,,,,,
,,,,,57,2020-07-04_10h55.02.127,retriever_ti,2020.1.3,MacIntel,60,Chrome,1440,900,561.84223,12,left,1.999735,squirrel,1,561.85872,561.85872,564.356945,0,3,3,3,1,8,7,1,html/resources/stimuli_practice_decision/03_squirrel.jpg,html/resources/stimuli_practice_decision/05_glasses.jpg,squirrel,glasses,,,,,,,,,,,,,,,,,,,,,,,,,,,,,,,,,,,,,,,,,,,,,,,,,,,,,,,,,,,,,,,,,,,,,,,,,,,,,
,,,,,57,2020-07-04_10h55.02.127,retriever_ti,2020.1.3,MacIntel,60,Chrome,1440,900,565.357395,13,left,0.64999,canary,1,565.37807,565.37807,567.87398,0,4,4,4,1,5,3,1,html/resources/stimuli_practice_decision/02_canary.jpg,html/resources/stimuli_practice_decision/07_sock.jpg,canary,sock,,,,,,,,,,,,,,,,,,,,,,,,,,,,,,,,,,,,,,,,,,,,,,,,,,,,,,,,,,,,,,,,,,,,,,,,,,,,,
,,,,,57,2020-07-04_10h55.02.127,retriever_ti,2020.1.3,MacIntel,60,Chrome,1440,900,568.390155,14,right,0.754035,squirrel,1,568.4267,568.4267,570.92248,0,5,5,5,1,7,8,1,html/resources/stimuli_practice_decision/05_glasses.jpg,html/resources/stimuli_practice_decision/03_squirrel.jpg,glasses,squirrel,,,,,,,,,,,,,,,,,,,,,,,,,,,,,,,,,,,,,,,,,,,,,,,,,,,,,,,,,,,,,,,,,,,,,,,,,,,,,
,,,,,57,2020-07-04_10h55.02.127,retriever_ti,2020.1.3,MacIntel,60,Chrome,1440,900,571.92395,15,right,0.721715,rabbit,0,571.940525,571.940525,574.427815,0,6,6,6,1,5,4,1,html/resources/stimuli_practice_decision/02_canary.jpg,html/resources/stimuli_practice_decision/01_rabbit.jpg,canary,rabbit,,,,,,,,,,,,,,,,,,,,,,,,,,,,,,,,,,,,,,,,,,,,,,,,,,,,,,,,,,,,,,,,,,,,,,,,,,,,,
,,,,,57,2020-07-04_10h55.02.127,retriever_ti,2020.1.3,MacIntel,60,Chrome,1440,900,575.42457,16,left,0.51663,canary,1,575.458375,575.458375,577.957055,0,7,7,7,1,5,3,1,html/resources/stimuli_practice_decision/02_canary.jpg,html/resources/stimuli_practice_decision/07_sock.jpg,canary,sock,,,,,,,,,,,,,,,,,,,,,,,,,,,,,,,,,,,,,,,,,,,,,,,,,,,,,,,,,,,,,,,,,,,,,,,,,,,,,
,,,,,57,2020-07-04_10h55.02.127,retriever_ti,2020.1.3,MacIntel,60,Chrome,1440,900,,,,,,,,,,,,,,,,,,,,,,up,1,9.11979,1,0,0,0,0,1,html/resources/sequences_IDs/circle.png,circle ↑,square →,triangle ↓,← star ,up,,,,,,,,,,,,,,,,,,,,,,,,,,,,,,,,,,,,,,,,,,,,,,,,,,,,,,,,,,,,,,
,,,,,57,2020-07-04_10h55.02.127,retriever_ti,2020.1.3,MacIntel,60,Chrome,1440,900,,,,,,,,,,,,,,,,,,,,,,down,1,1.819235,1,0,1,1,1,1,html/resources/sequences_IDs/star.png,square ↑,circle →,star ↓,← triangle,down,,,,,,,,,,,,,,,,,,,,,,,,,,,,,,,,,,,,,,,,,,,,,,,,,,,,,,,,,,,,,,
,,,,,57,2020-07-04_10h55.02.127,retriever_ti,2020.1.3,MacIntel,60,Chrome,1440,900,,,,,,,,,,,,,,,,,,,,,,down,1,1.66663,1,0,2,2,3,1,html/resources/sequences_IDs/triangle.png,star ↑,square →,triangle ↓,← circle,down,,,,,,,,,,,,,,,,,,,,,,,,,,,,,,,,,,,,,,,,,,,,,,,,,,,,,,,,,,,,,,
,,,,,57,2020-07-04_10h55.02.127,retriever_ti,2020.1.3,MacIntel,60,Chrome,1440,900,,,,,,,,,,,,,,,,,,,,,,left,1,1.86017,1,0,3,3,2,1,html/resources/sequences_IDs/square1.png,star ↑,triangle →,circle ↓,← square,left,,,,,,,,,,,,,,,,,,,,,,,,,,,,,,,,,,,,,,,,,,,,,,,,,,,,,,,,,,,,,,
,,,,,57,2020-07-04_10h55.02.127,retriever_ti,2020.1.3,MacIntel,60,Chrome,1440,900,,,,,,,,,,,,,,,,,,,,,,,,,,,,,,,,,,,,,0,3.19071,1,0,1,0,1,,,,,,,,,,,,,,,,,,,,,,,,,,,,,,,,,,,,,,,,,,,,,,,,,,,,,,,
,,,,,57,2020-07-04_10h55.02.127,retriever_ti,2020.1.3,MacIntel,60,Chrome,1440,900,,,,,,,,,,,,,,,,,1,,,,,,,,,,,,,,,,,,,,,,,,,,,609.13794,1,left,0.96528,clownfish     ,1,4,-2,0,3,609.16849,609.16849,611.65903,0,0,0,0,1,1,1,3,clownfish     ,calculator    ,html/resources/sequences_IDs/A/04_clownfish.jpg,html/resources/sequences_IDs/A/09_calculator.jpg,4,9,2,1,4,2,4,7,0,57,,,,,,,,,,,,,,,,,,,,
,,,,,57,2020-07-04_10h55.02.127,retriever_ti,2020.1.3,MacIntel,60,Chrome,1440,900,,,,,,,,,,,,,,,,,1,,,,,,,,,,,,,,,,,,,,,,,,,,,612.276335,2,right,0.823485,redfox      ,6,1,-1,0,0,612.307305,612.307305,614.805895,0,1,1,1,1,2,7,6,scarf         ,redfox      ,html/resources/sequences_IDs/A/06_scarf.jpg,html/resources/sequences_IDs/B/01_redfox.jpg,6,1,3,2,1,1,5,1,0,57,,,,,,,,,,,,,,,,,,,,
,,,,,57,2020-07-04_10h55.02.127,retriever_ti,2020.1.3,MacIntel,60,Chrome,1440,900,,,,,,,,,,,,,,,,,1,,,,,,,,,,,,,,,,,,,,,,,,,,,615.90524,3,left,0.67754,giraffe     ,2,3,-4,0,3,615.94077,615.94077,618.4399,0,2,2,2,1,3,2,6,giraffe     ,redfox      ,html/resources/sequences_IDs/B/03_giraffe.jpg,html/resources/sequences_IDs/B/01_redfox.jpg,3,1,1,1,1,1,3,1,0,57,,,,,,,,,,,,,,,,,,,,
,,,,,57,2020-07-04_10h55.02.127,retriever_ti,2020.1.3,MacIntel,60,Chrome,1440,900,,,,,,,,,,,,,,,,,1,,,,,,,,,,,,,,,,,,,,,,,,,,,619.05776,4,left,0.586355,slipper     ,4,8,-2,0,3,619.07806,619.07806,621.57292,0,3,3,3,1,4,4,6,slipper     ,redfox      ,html/resources/sequences_IDs/B/08_slipper.jpg,html/resources/sequences_IDs/B/01_redfox.jpg,8,1,3,2,1,1,6,1,0,57,,,,,,,,,,,,,,,,,,,,
,,,,,57,2020-07-04_10h55.02.127,retriever_ti,2020.1.3,MacIntel,60,Chrome,1440,900,,,,,,,,,,,,,,,,,1,,,,,,,,,,,,,,,,,,,,,,,,,,,622.1887,5,left,0.626645,calculator    ,3,9,-3,0,3,622.20661,622.20661,624.706235,0,4,4,4,1,5,3,6,calculator    ,redfox      ,html/resources/sequences_IDs/A/09_calculator.jpg,html/resources/sequences_IDs/B/01_redfox.jpg,9,1,4,2,1,1,7,1,0,57,,,,,,,,,,,,,,,,,,,,
,,,,,57,2020-07-04_10h55.02.127,retriever_ti,2020.1.3,MacIntel,60,Chrome,1440,900,,,,,,,,,,,,,,,,,1,,,,,,,,,,,,,,,,,,,,,,,,,,,625.308245,6,left,1.808165,giraffe     ,2,3,-2,0,3,625.34061,625.34061,627.83984,0,5,5,5,1,6,2,4,giraffe     ,slipper     ,html/resources/sequences_IDs/B/03_giraffe.jpg,html/resources/sequences_IDs/B/08_slipper.jpg,3,8,1,1,3,2,3,6,0,57,,,,,,,,,,,,,,,,,,,,
,,,,,57,2020-07-04_10h55.02.127,retriever_ti,2020.1.3,MacIntel,60,Chrome,1440,900,,,,,,,,,,,,,,,,,1,,,,,,,,,,,,,,,,,,,,,,,,,,,628.458345,7,NaN,NaN,No_response,NaN,NaN,NaN,2,2,628.49065,628.49065,630.992,0,6,6,6,1,7,4,7,slipper     ,scarf         ,html/resources/sequences_IDs/B/08_slipper.jpg,html/resources/sequences_IDs/A/06_scarf.jpg,8,6,3,2,3,2,6,5,0,57,,,,,,,,,,,,,,,,,,,,
,,,,,57,2020-07-04_10h55.02.127,retriever_ti,2020.1.3,MacIntel,60,Chrome,1440,900,,,,,,,,,,,,,,,,,1,,,,,,,,,,,,,,,,,,,,,,,,,,,632.088505,8,left,1.164795,giraffe     ,2,3,1,1,0,632.12481,632.12481,634.621245,0,7,7,7,1,8,2,1,giraffe     ,clownfish     ,html/resources/sequences_IDs/B/03_giraffe.jpg,html/resources/sequences_IDs/A/04_clownfish.jpg,3,4,1,1,2,1,3,4,1,57,,,,,,,,,,,,,,,,,,,,
,,,,,57,2020-07-04_10h55.02.127,retriever_ti,2020.1.3,MacIntel,60,Chrome,1440,900,,,,,,,,,,,,,,,,,1,,,,,,,,,,,,,,,,,,,,,,,,,,,635.72315,9,left,0.960225,clownfish     ,1,4,-3,0,3,635.757515,635.757515,638.25061,0,8,8,8,1,9,1,4,clownfish     ,slipper     ,html/resources/sequences_IDs/A/04_clownfish.jpg,html/resources/sequences_IDs/B/08_slipper.jpg,4,8,2,1,3,2,4,6,0,57,,,,,,,,,,,,,,,,,,,,
,,,,,57,2020-07-04_10h55.02.127,retriever_ti,2020.1.3,MacIntel,60,Chrome,1440,900,,,,,,,,,,,,,,,,,1,,,,,,,,,,,,,,,,,,,,,,,,,,,638.857125,10,left,1.308255,seaturtle     ,5,2,1,1,1,638.874755,638.874755,641.37883,0,9,9,9,1,10,5,4,seaturtle     ,slipper     ,html/resources/sequences_IDs/A/02_seaturtle.jpg,html/resources/sequences_IDs/B/08_slipper.jpg,2,8,2,1,3,2,2,6,0,57,,,,,,,,,,,,,,,,,,,,
,,,,,57,2020-07-04_10h55.02.127,retriever_ti,2020.1.3,MacIntel,60,Chrome,1440,900,,,,,,,,,,,,,,,,,1,,,,,,,,,,,,,,,,,,,,,,,,,,,642.471865,11,left,1.106645,redfox      ,6,1,1,1,1,642.49588,642.49588,644.989695,0,10,10,10,1,11,6,5,redfox      ,seaturtle     ,html/resources/sequences_IDs/B/01_redfox.jpg,html/resources/sequences_IDs/A/02_seaturtle.jpg,1,2,1,1,2,1,1,2,0,57,,,,,,,,,,,,,,,,,,,,
,,,,,57,2020-07-04_10h55.02.127,retriever_ti,2020.1.3,MacIntel,60,Chrome,1440,900,,,,,,,,,,,,,,,,,1,,,,,,,,,,,,,,,,,,,,,,,,,,,646.090515,12,right,1.147865,redfox      ,6,1,-1,0,0,646.106235,646.106235,648.594925,0,11,11,11,1,12,7,6,scarf         ,redfox      ,html/resources/sequences_IDs/A/06_scarf.jpg,html/resources/sequences_IDs/B/01_redfox.jpg,6,1,3,2,1,1,5,1,0,57,,,,,,,,,,,,,,,,,,,,
,,,,,57,2020-07-04_10h55.02.127,retriever_ti,2020.1.3,MacIntel,60,Chrome,1440,900,,,,,,,,,,,,,,,,,1,,,,,,,,,,,,,,,,,,,,,,,,,,,649.689325,13,left,1.171665,calculator    ,3,9,-5,0,3,649.72388,649.72388,652.225775,0,12,12,12,1,13,3,8,calculator    ,radio       ,html/resources/sequences_IDs/A/09_calculator.jpg,html/resources/sequences_IDs/B/10_radio.jpg,9,10,4,2,4,2,7,8,0,57,,,,,,,,,,,,,,,,,,,,
,,,,,57,2020-07-04_10h55.02.127,retriever_ti,2020.1.3,MacIntel,60,Chrome,1440,900,,,,,,,,,,,,,,,,,1,,,,,,,,,,,,,,,,,,,,,,,,,,,652.840155,14,right,1.143205,clownfish     ,1,4,-2,0,3,652.858045,652.858045,655.35458,0,13,13,13,1,14,3,1,calculator    ,clownfish     ,html/resources/sequences_IDs/A/09_calculator.jpg,html/resources/sequences_IDs/A/04_clownfish.jpg,9,4,4,2,2,1,7,4,0,57,,,,,,,,,,,,,,,,,,,,
,,,,,57,2020-07-04_10h55.02.127,retriever_ti,2020.1.3,MacIntel,60,Chrome,1440,900,,,,,,,,,,,,,,,,,1,,,,,,,,,,,,,,,,,,,,,,,,,,,655.95605,15,left,0.561265,clownfish     ,1,4,-4,0,3,655.97566,655.97566,658.47226,0,14,14,14,1,15,1,5,clownfish     ,seaturtle     ,html/resources/sequences_IDs/A/04_clownfish.jpg,html/resources/sequences_IDs/A/02_seaturtle.jpg,4,2,2,1,2,1,4,2,0,57,,,,,,,,,,,,,,,,,,,,
,,,,,57,2020-07-04_10h55.02.127,retriever_ti,2020.1.3,MacIntel,60,Chrome,1440,900,,,,,,,,,,,,,,,,,1,,,,,,,,,,,,,,,,,,,,,,,,,,,659.073465,16,right,1.0319,giraffe     ,2,3,-3,0,3,659.105265,659.105265,661.606865,0,15,15,15,1,16,5,2,seaturtle     ,giraffe     ,html/resources/sequences_IDs/A/02_seaturtle.jpg,html/resources/sequences_IDs/B/03_giraffe.jpg,2,3,2,1,1,1,2,3,0,57,,,,,,,,,,,,,,,,,,,,
,,,,,57,2020-07-04_10h55.02.127,retriever_ti,2020.1.3,MacIntel,60,Chrome,1440,900,,,,,,,,,,,,,,,,,1,,,,,,,,,,,,,,,,,,,,,,,,,,,662.20735,17,left,0.6827,giraffe     ,2,3,-1,0,0,662.24396,662.24396,664.739055,0,16,16,16,1,17,2,3,giraffe     ,calculator    ,html/resources/sequences_IDs/B/03_giraffe.jpg,html/resources/sequences_IDs/A/09_calculator.jpg,3,9,1,1,4,2,3,7,0,57,,,,,,,,,,,,,,,,,,,,
,,,,,57,2020-07-04_10h55.02.127,retriever_ti,2020.1.3,MacIntel,60,Chrome,1440,900,,,,,,,,,,,,,,,,,1,,,,,,,,,,,,,,,,,,,,,,,,,,,665.84017,18,right,1.110725,radio       ,8,10,1,1,1,665.85729,665.85729,668.35741,0,17,17,17,1,18,7,8,scarf         ,radio       ,html/resources/sequences_IDs/A/06_scarf.jpg,html/resources/sequences_IDs/B/10_radio.jpg,6,10,3,2,4,2,5,8,0,57,,,,,,,,,,,,,,,,,,,,
,,,,,57,2020-07-04_10h55.02.127,retriever_ti,2020.1.3,MacIntel,60,Chrome,1440,900,,,,,,,,,,,,,,,,,1,,,,,,,,,,,,,,,,,,,,,,,,,,,669.45491,19,right,0.72599,giraffe     ,2,3,-2,0,3,669.48996,669.48996,671.990205,0,18,18,18,1,19,4,2,slipper     ,giraffe     ,html/resources/sequences_IDs/B/08_slipper.jpg,html/resources/sequences_IDs/B/03_giraffe.jpg,8,3,3,2,1,1,6,3,0,57,,,,,,,,,,,,,,,,,,,,
,,,,,57,2020-07-04_10h55.02.127,retriever_ti,2020.1.3,MacIntel,60,Chrome,1440,900,,,,,,,,,,,,,,,,,1,,,,,,,,,,,,,,,,,,,,,,,,,,,672.835155,20,right,1.03401,slipper     ,4,8,1,1,1,672.85593,672.85593,675.354115,0,19,19,19,1,20,3,4,calculator    ,slipper     ,html/resources/sequences_IDs/A/09_calculator.jpg,html/resources/sequences_IDs/B/08_slipper.jpg,9,8,4,2,3,2,7,6,0,57,,,,,,,,,,,,,,,,,,,,
,,,,,57,2020-07-04_10h55.02.127,retriever_ti,2020.1.3,MacIntel,60,Chrome,1440,900,,,,,,,,,,,,,,,,,1,,,,,,,,,,,,,,,,,,,,,,,,,,,676.455395,21,right,1.10015,giraffe     ,2,3,-4,0,3,676.472945,676.472945,678.97164,0,20,20,20,1,21,6,2,redfox      ,giraffe     ,html/resources/sequences_IDs/B/01_redfox.jpg,html/resources/sequences_IDs/B/03_giraffe.jpg,1,3,1,1,1,1,1,3,0,57,,,,,,,,,,,,,,,,,,,,
,,,,,57,2020-07-04_10h55.02.127,retriever_ti,2020.1.3,MacIntel,60,Chrome,1440,900,,,,,,,,,,,,,,,,,1,,,,,,,,,,,,,,,,,,,,,,,,,,,679.59153,22,left,1.44636,radio       ,8,10,5,1,3,679.608865,679.608865,682.106785,0,21,21,21,1,22,8,3,radio       ,calculator    ,html/resources/sequences_IDs/B/10_radio.jpg,html/resources/sequences_IDs/A/09_calculator.jpg,10,9,4,2,4,2,8,7,0,57,,,,,,,,,,,,,,,,,,,,
,,,,,57,2020-07-04_10h55.02.127,retriever_ti,2020.1.3,MacIntel,60,Chrome,1440,900,,,,,,,,,,,,,,,,,1,,,,,,,,,,,,,,,,,,,,,,,,,,,682.722705,23,right,1.033595,giraffe     ,2,3,-1,0,0,682.742535,682.742535,685.242405,0,22,22,22,1,23,3,2,calculator    ,giraffe     ,html/resources/sequences_IDs/A/09_calculator.jpg,html/resources/sequences_IDs/B/03_giraffe.jpg,9,3,4,2,1,1,7,3,0,57,,,,,,,,,,,,,,,,,,,,
,,,,,57,2020-07-04_10h55.02.127,retriever_ti,2020.1.3,MacIntel,60,Chrome,1440,900,,,,,,,,,,,,,,,,,1,,,,,,,,,,,,,,,,,,,,,,,,,,,686.34155,24,left,0.80162,giraffe     ,2,3,-6,0,3,686.355625,686.355625,688.85508,0,23,23,23,1,24,2,8,giraffe     ,radio       ,html/resources/sequences_IDs/B/03_giraffe.jpg,html/resources/sequences_IDs/B/10_radio.jpg,3,10,1,1,4,2,3,8,0,57,,,,,,,,,,,,,,,,,,,,
,,,,,57,2020-07-04_10h55.02.127,retriever_ti,2020.1.3,MacIntel,60,Chrome,1440,900,,,,,,,,,,,,,,,,,1,,,,,,,,,,,,,,,,,,,,,,,,,,,689.473875,25,left,2.264385,calculator    ,3,9,-4,0,3,689.49175,689.49175,691.98806,0,24,24,24,1,25,3,7,calculator    ,scarf         ,html/resources/sequences_IDs/A/09_calculator.jpg,html/resources/sequences_IDs/A/06_scarf.jpg,9,6,4,2,3,2,7,5,0,57,,,,,,,,,,,,,,,,,,,,
,,,,,57,2020-07-04_10h55.02.127,retriever_ti,2020.1.3,MacIntel,60,Chrome,1440,900,,,,,,,,,,,,,,,,,1,,,,,,,,,,,,,,,,,,,,,,,,,,,692.59143,26,right,0.864285,clownfish     ,1,4,-5,0,3,692.622475,692.622475,695.12227,0,25,25,25,1,26,6,1,redfox      ,clownfish     ,html/resources/sequences_IDs/B/01_redfox.jpg,html/resources/sequences_IDs/A/04_clownfish.jpg,1,4,1,1,2,1,1,4,0,57,,,,,,,,,,,,,,,,,,,,
,,,,,57,2020-07-04_10h55.02.127,retriever_ti,2020.1.3,MacIntel,60,Chrome,1440,900,,,,,,,,,,,,,,,,,1,,,,,,,,,,,,,,,,,,,,,,,,,,,695.739905,27,right,0.835655,clownfish     ,1,4,-6,0,3,695.773535,695.773535,698.2601,0,26,26,26,1,27,7,1,scarf         ,clownfish     ,html/resources/sequences_IDs/A/06_scarf.jpg,html/resources/sequences_IDs/A/04_clownfish.jpg,6,4,3,2,2,1,5,4,0,57,,,,,,,,,,,,,,,,,,,,
,,,,,57,2020-07-04_10h55.02.127,retriever_ti,2020.1.3,MacIntel,60,Chrome,1440,900,,,,,,,,,,,,,,,,,1,,,,,,,,,,,,,,,,,,,,,,,,,,,698.872095,28,left,0.937475,calculator    ,3,9,-2,0,3,698.918425,698.918425,701.40528,0,27,27,27,1,28,3,5,calculator    ,seaturtle     ,html/resources/sequences_IDs/A/09_calculator.jpg,html/resources/sequences_IDs/A/02_seaturtle.jpg,9,2,4,2,2,1,7,2,0,57,,,,,,,,,,,,,,,,,,,,
,,,,,57,2020-07-04_10h55.02.127,retriever_ti,2020.1.3,MacIntel,60,Chrome,1440,900,,,,,,,,,,,,,,,,,1,,,,,,,,,,,,,,,,,,,,,,,,,,,702.02211,29,right,1.09095,redfox      ,6,1,1,1,1,702.041945,702.041945,704.539865,0,28,28,28,1,29,5,6,seaturtle     ,redfox      ,html/resources/sequences_IDs/A/02_seaturtle.jpg,html/resources/sequences_IDs/B/01_redfox.jpg,2,1,2,1,1,1,2,1,0,57,,,,,,,,,,,,,,,,,,,,
,,,,,57,2020-07-04_10h55.02.127,retriever_ti,2020.1.3,MacIntel,60,Chrome,1440,900,,,,,,,,,,,,,,,,,1,,,,,,,,,,,,,,,,,,,,,,,,,,,705.642305,30,left,0.546075,redfox      ,6,1,-2,0,3,705.67336,705.67336,708.17466,0,29,29,29,1,30,6,8,redfox      ,radio       ,html/resources/sequences_IDs/B/01_redfox.jpg,html/resources/sequences_IDs/B/10_radio.jpg,1,10,1,1,4,2,1,8,0,57,,,,,,,,,,,,,,,,,,,,
,,,,,57,2020-07-04_10h55.02.127,retriever_ti,2020.1.3,MacIntel,60,Chrome,1440,900,,,,,,,,,,,,,,,,,1,,,,,,,,,,,,,,,,,,,,,,,,,,,708.775805,31,right,0.42201,redfox      ,6,1,5,1,3,708.80922,708.80922,711.30773,0,30,30,30,1,31,1,6,clownfish     ,redfox      ,html/resources/sequences_IDs/A/04_clownfish.jpg,html/resources/sequences_IDs/B/01_redfox.jpg,4,1,2,1,1,1,4,1,0,57,,,,,,,,,,,,,,,,,,,,
,,,,,57,2020-07-04_10h55.02.127,retriever_ti,2020.1.3,MacIntel,60,Chrome,1440,900,,,,,,,,,,,,,,,,,1,,,,,,,,,,,,,,,,,,,,,,,,,,,711.919615,32,left,0.8422,giraffe     ,2,3,-5,0,3,711.954415,711.954415,714.44524,0,31,31,31,1,32,2,7,giraffe     ,scarf         ,html/resources/sequences_IDs/B/03_giraffe.jpg,html/resources/sequences_IDs/A/06_scarf.jpg,3,6,1,1,3,2,3,5,0,57,,,,,,,,,,,,,,,,,,,,
,,,,,57,2020-07-04_10h55.02.127,retriever_ti,2020.1.3,MacIntel,60,Chrome,1440,900,,,,,,,,,,,,,,,,,1,,,,,,,,,,,,,,,,,,,,,,,,,,,715.055265,33,right,0.98809,scarf         ,7,6,2,1,3,715.07896,715.07896,717.57472,0,32,32,32,1,33,5,7,seaturtle     ,scarf         ,html/resources/sequences_IDs/A/02_seaturtle.jpg,html/resources/sequences_IDs/A/06_scarf.jpg,2,6,2,1,3,2,2,5,0,57,,,,,,,,,,,,,,,,,,,,
,,,,,57,2020-07-04_10h55.02.127,retriever_ti,2020.1.3,MacIntel,60,Chrome,1440,900,,,,,,,,,,,,,,,,,1,,,,,,,,,,,,,,,,,,,,,,,,,,,718.193335,34,left,0.67529,seaturtle     ,5,2,2,1,3,718.21069,718.21069,720.70852,0,33,33,33,1,34,5,3,seaturtle     ,calculator    ,html/resources/sequences_IDs/A/02_seaturtle.jpg,html/resources/sequences_IDs/A/09_calculator.jpg,2,9,2,1,4,2,2,7,0,57,,,,,,,,,,,,,,,,,,,,
,,,,,57,2020-07-04_10h55.02.127,retriever_ti,2020.1.3,MacIntel,60,Chrome,1440,900,,,,,,,,,,,,,,,,,1,,,,,,,,,,,,,,,,,,,,,,,,,,,721.31617,35,left,0.712735,redfox      ,6,1,-1,0,0,721.326155,721.326155,723.825245,0,34,34,34,1,35,6,7,redfox      ,scarf         ,html/resources/sequences_IDs/B/01_redfox.jpg,html/resources/sequences_IDs/A/06_scarf.jpg,1,6,1,1,3,2,1,5,0,57,,,,,,,,,,,,,,,,,,,,
,,,,,57,2020-07-04_10h55.02.127,retriever_ti,2020.1.3,MacIntel,60,Chrome,1440,900,,,,,,,,,,,,,,,,,1,,,,,,,,,,,,,,,,,,,,,,,,,,,724.92526,36,left,0.58691,scarf         ,7,6,5,1,3,724.95707,724.95707,727.457035,0,35,35,35,1,36,7,2,scarf         ,giraffe     ,html/resources/sequences_IDs/A/06_scarf.jpg,html/resources/sequences_IDs/B/03_giraffe.jpg,6,3,3,2,1,1,5,3,0,57,,,,,,,,,,,,,,,,,,,,
,,,,,57,2020-07-04_10h55.02.127,retriever_ti,2020.1.3,MacIntel,60,Chrome,1440,900,,,,,,,,,,,,,,,,,1,,,,,,,,,,,,,,,,,,,,,,,,,,,728.073435,37,right,0.57521,clownfish     ,1,4,-4,0,3,728.10773,728.10773,730.60421,0,36,36,36,1,37,5,1,seaturtle     ,clownfish     ,html/resources/sequences_IDs/A/02_seaturtle.jpg,html/resources/sequences_IDs/A/04_clownfish.jpg,2,4,2,1,2,1,2,4,0,57,,,,,,,,,,,,,,,,,,,,
,,,,,57,2020-07-04_10h55.02.127,retriever_ti,2020.1.3,MacIntel,60,Chrome,1440,900,,,,,,,,,,,,,,,,,1,,,,,,,,,,,,,,,,,,,,,,,,,,,731.22163,38,left,1.26527,radio       ,8,10,3,1,3,731.243635,731.243635,733.739375,0,37,37,37,1,38,8,5,radio       ,seaturtle     ,html/resources/sequences_IDs/B/10_radio.jpg,html/resources/sequences_IDs/A/02_seaturtle.jpg,10,2,4,2,2,1,8,2,0,57,,,,,,,,,,,,,,,,,,,,
,,,,,57,2020-07-04_10h55.02.127,retriever_ti,2020.1.3,MacIntel,60,Chrome,1440,900,,,,,,,,,,,,,,,,,1,,,,,,,,,,,,,,,,,,,,,,,,,,,734.345065,39,left,0.94985,slipper     ,4,8,-1,0,0,734.36757,734.36757,736.856885,0,38,38,38,1,39,4,5,slipper     ,seaturtle     ,html/resources/sequences_IDs/B/08_slipper.jpg,html/resources/sequences_IDs/A/02_seaturtle.jpg,8,2,3,2,2,1,6,2,0,57,,,,,,,,,,,,,,,,,,,,
,,,,,57,2020-07-04_10h55.02.127,retriever_ti,2020.1.3,MacIntel,60,Chrome,1440,900,,,,,,,,,,,,,,,,,1,,,,,,,,,,,,,,,,,,,,,,,,,,,737.96442,40,left,1.172775,scarf         ,7,6,3,1,3,737.978105,737.978105,740.471225,0,39,39,39,1,40,7,4,scarf         ,slipper     ,html/resources/sequences_IDs/A/06_scarf.jpg,html/resources/sequences_IDs/B/08_slipper.jpg,6,8,3,2,3,2,5,6,0,57,,,,,,,,,,,,,,,,,,,,
,,,,,57,2020-07-04_10h55.02.127,retriever_ti,2020.1.3,MacIntel,60,Chrome,1440,900,,,,,,,,,,,,,,,,,1,,,,,,,,,,,,,,,,,,,,,,,,,,,741.094435,41,right,0.946395,calculator    ,3,9,-1,0,0,741.10837,741.10837,743.621575,0,40,40,40,1,41,4,3,slipper     ,calculator    ,html/resources/sequences_IDs/B/08_slipper.jpg,html/resources/sequences_IDs/A/09_calculator.jpg,8,9,3,2,4,2,6,7,0,57,,,,,,,,,,,,,,,,,,,,
,,,,,57,2020-07-04_10h55.02.127,retriever_ti,2020.1.3,MacIntel,60,Chrome,1440,900,,,,,,,,,,,,,,,,,1,,,,,,,,,,,,,,,,,,,,,,,,,,,744.72266,42,right,0.869415,radio       ,8,10,3,1,3,744.757885,744.757885,747.25776,0,41,41,41,1,42,5,8,seaturtle     ,radio       ,html/resources/sequences_IDs/A/02_seaturtle.jpg,html/resources/sequences_IDs/B/10_radio.jpg,2,10,2,1,4,2,2,8,0,57,,,,,,,,,,,,,,,,,,,,
,,,,,57,2020-07-04_10h55.02.127,retriever_ti,2020.1.3,MacIntel,60,Chrome,1440,900,,,,,,,,,,,,,,,,,1,,,,,,,,,,,,,,,,,,,,,,,,,,,747.87145,43,right,0.897145,clownfish     ,1,4,-7,0,3,747.897685,747.897685,750.387345,0,42,42,42,1,43,8,1,radio       ,clownfish     ,html/resources/sequences_IDs/B/10_radio.jpg,html/resources/sequences_IDs/A/04_clownfish.jpg,10,4,4,2,2,1,8,4,0,57,,,,,,,,,,,,,,,,,,,,
,,,,,57,2020-07-04_10h55.02.127,retriever_ti,2020.1.3,MacIntel,60,Chrome,1440,900,,,,,,,,,,,,,,,,,1,,,,,,,,,,,,,,,,,,,,,,,,,,,750.990015,44,left,1.91914,radio       ,8,10,2,1,3,751.016005,751.016005,753.50397,0,43,43,43,1,44,8,6,radio       ,redfox      ,html/resources/sequences_IDs/B/10_radio.jpg,html/resources/sequences_IDs/B/01_redfox.jpg,10,1,4,2,1,1,8,1,0,57,,,,,,,,,,,,,,,,,,,,
,,,,,57,2020-07-04_10h55.02.127,retriever_ti,2020.1.3,MacIntel,60,Chrome,1440,900,,,,,,,,,,,,,,,,,1,,,,,,,,,,,,,,,,,,,,,,,,,,,754.111315,45,left,1.835065,calculator    ,3,9,-1,0,0,754.13896,754.13896,756.63773,0,44,44,44,1,45,3,4,calculator    ,slipper     ,html/resources/sequences_IDs/A/09_calculator.jpg,html/resources/sequences_IDs/B/08_slipper.jpg,9,8,4,2,3,2,7,6,0,57,,,,,,,,,,,,,,,,,,,,
,,,,,57,2020-07-04_10h55.02.127,retriever_ti,2020.1.3,MacIntel,60,Chrome,1440,900,,,,,,,,,,,,,,,,,1,,,,,,,,,,,,,,,,,,,,,,,,,,,757.74279,46,right,1.301595,giraffe     ,2,3,-6,0,3,757.76328,757.76328,760.256955,0,45,45,45,1,46,8,2,radio       ,giraffe     ,html/resources/sequences_IDs/B/10_radio.jpg,html/resources/sequences_IDs/B/03_giraffe.jpg,10,3,4,2,1,1,8,3,0,57,,,,,,,,,,,,,,,,,,,,
,,,,,57,2020-07-04_10h55.02.127,retriever_ti,2020.1.3,MacIntel,60,Chrome,1440,900,,,,,,,,,,,,,,,,,1,,,,,,,,,,,,,,,,,,,,,,,,,,,760.875345,47,left,1.004395,slipper     ,4,8,-1,0,0,760.90908,760.90908,763.404285,0,46,46,46,1,47,4,5,slipper     ,seaturtle     ,html/resources/sequences_IDs/B/08_slipper.jpg,html/resources/sequences_IDs/A/02_seaturtle.jpg,8,2,3,2,2,1,6,2,0,57,,,,,,,,,,,,,,,,,,,,
,,,,,57,2020-07-04_10h55.02.127,retriever_ti,2020.1.3,MacIntel,60,Chrome,1440,900,,,,,,,,,,,,,,,,,1,,,,,,,,,,,,,,,,,,,,,,,,,,,764.505815,48,right,0.95656,clownfish     ,1,4,-1,0,0,764.539125,764.539125,767.04007,0,47,47,47,1,48,2,1,giraffe     ,clownfish     ,html/resources/sequences_IDs/B/03_giraffe.jpg,html/resources/sequences_IDs/A/04_clownfish.jpg,3,4,1,1,2,1,3,4,0,57,,,,,,,,,,,,,,,,,,,,
,,,,,57,2020-07-04_10h55.02.127,retriever_ti,2020.1.3,MacIntel,60,Chrome,1440,900,,,,,,,,,,,,,,,,,1,,,,,,,,,,,,,,,,,,,,,,,,,,,768.136985,49,left,0.93596,slipper     ,4,8,3,1,3,768.15634,768.15634,770.653345,0,48,48,48,1,49,4,1,slipper     ,clownfish     ,html/resources/sequences_IDs/B/08_slipper.jpg,html/resources/sequences_IDs/A/04_clownfish.jpg,8,4,3,2,2,1,6,4,0,57,,,,,,,,,,,,,,,,,,,,
,,,,,57,2020-07-04_10h55.02.127,retriever_ti,2020.1.3,MacIntel,60,Chrome,1440,900,,,,,,,,,,,,,,,,,1,,,,,,,,,,,,,,,,,,,,,,,,,,,771.25662,50,left,0.933175,giraffe     ,2,3,-3,0,3,771.28867,771.28867,773.78716,0,49,49,49,1,50,2,5,giraffe     ,seaturtle     ,html/resources/sequences_IDs/B/03_giraffe.jpg,html/resources/sequences_IDs/A/02_seaturtle.jpg,3,2,1,1,2,1,3,2,0,57,,,,,,,,,,,,,,,,,,,,
,,,,,57,2020-07-04_10h55.02.127,retriever_ti,2020.1.3,MacIntel,60,Chrome,1440,900,,,,,,,,,,,,,,,,,1,,,,,,,,,,,,,,,,,,,,,,,,,,,774.39061,51,right,1.131,radio       ,8,10,4,1,3,774.476735,774.476735,776.921145,0,50,50,50,1,51,4,8,slipper     ,radio       ,html/resources/sequences_IDs/B/08_slipper.jpg,html/resources/sequences_IDs/B/10_radio.jpg,8,10,3,2,4,2,6,8,0,57,,,,,,,,,,,,,,,,,,,,
,,,,,57,2020-07-04_10h55.02.127,retriever_ti,2020.1.3,MacIntel,60,Chrome,1440,900,,,,,,,,,,,,,,,,,1,,,,,,,,,,,,,,,,,,,,,,,,,,,777.550985,52,right,1.39779,calculator    ,3,9,-3,0,3,777.59873,777.59873,780.10877,0,51,51,51,1,52,6,3,redfox      ,calculator    ,html/resources/sequences_IDs/B/01_redfox.jpg,html/resources/sequences_IDs/A/09_calculator.jpg,1,9,1,1,4,2,1,7,0,57,,,,,,,,,,,,,,,,,,,,
,,,,,57,2020-07-04_10h55.02.127,retriever_ti,2020.1.3,MacIntel,60,Chrome,1440,900,,,,,,,,,,,,,,,,,1,,,,,,,,,,,,,,,,,,,,,,,,,,,780.72772,53,left,1.255685,scarf         ,7,6,4,1,3,780.764735,780.764735,783.2574,0,52,52,52,1,53,7,3,scarf         ,calculator    ,html/resources/sequences_IDs/A/06_scarf.jpg,html/resources/sequences_IDs/A/09_calculator.jpg,6,9,3,2,4,2,5,7,0,57,,,,,,,,,,,,,,,,,,,,
,,,,,57,2020-07-04_10h55.02.127,retriever_ti,2020.1.3,MacIntel,60,Chrome,1440,900,,,,,,,,,,,,,,,,,1,,,,,,,,,,,,,,,,,,,,,,,,,,,783.874,54,left,1.40782,redfox      ,6,1,1,1,0,783.89217,783.89217,786.390065,0,53,53,53,1,54,6,5,redfox      ,seaturtle     ,html/resources/sequences_IDs/B/01_redfox.jpg,html/resources/sequences_IDs/A/02_seaturtle.jpg,1,2,1,1,2,1,1,2,1,57,,,,,,,,,,,,,,,,,,,,
,,,,,57,2020-07-04_10h55.02.127,retriever_ti,2020.1.3,MacIntel,60,Chrome,1440,900,,,,,,,,,,,,,,,,,1,,,,,,,,,,,,,,,,,,,,,,,,,,,787.4882,55,left,1.023865,giraffe     ,2,3,-1,0,0,787.508205,787.508205,790.00372,0,54,54,54,1,55,2,3,giraffe     ,calculator    ,html/resources/sequences_IDs/B/03_giraffe.jpg,html/resources/sequences_IDs/A/09_calculator.jpg,3,9,1,1,4,2,3,7,0,57,,,,,,,,,,,,,,,,,,,,
,,,,,57,2020-07-04_10h55.02.127,retriever_ti,2020.1.3,MacIntel,60,Chrome,1440,900,,,,,,,,,,,,,,,,,1,,,,,,,,,,,,,,,,,,,,,,,,,,,791.111325,56,right,1.00189,radio       ,8,10,1,1,0,791.127255,791.127255,793.62328,0,55,55,55,1,56,7,8,scarf         ,radio       ,html/resources/sequences_IDs/A/06_scarf.jpg,html/resources/sequences_IDs/B/10_radio.jpg,6,10,3,2,4,2,5,8,1,57,,,,,,,,,,,,,,,,,,,,
,,,,,57,2020-07-04_10h55.02.127,retriever_ti,2020.1.3,MacIntel,60,Chrome,1440,900,,,,,,,,,,,,,,,,,1,,,,,,,,,,,,,,,,,,,,,,,,,,,794.721835,57,left,0.777385,clownfish     ,1,4,-7,0,3,794.760765,794.760765,797.250165,0,56,56,56,1,57,1,8,clownfish     ,radio       ,html/resources/sequences_IDs/A/04_clownfish.jpg,html/resources/sequences_IDs/B/10_radio.jpg,4,10,2,1,4,2,4,8,0,57,,,,,,,,,,,,,,,,,,,,
,,,,,57,2020-07-04_10h55.02.127,retriever_ti,2020.1.3,MacIntel,60,Chrome,1440,900,,,,,,,,,,,,,,,,,1,,,,,,,,,,,,,,,,,,,,,,,,,,,797.870705,58,left,1.21679,seaturtle     ,5,2,1,1,0,797.943995,797.943995,800.44397,0,57,57,57,1,58,5,4,seaturtle     ,slipper     ,html/resources/sequences_IDs/A/02_seaturtle.jpg,html/resources/sequences_IDs/B/08_slipper.jpg,2,8,2,1,3,2,2,6,1,57,,,,,,,,,,,,,,,,,,,,
,,,,,57,2020-07-04_10h55.02.127,retriever_ti,2020.1.3,MacIntel,60,Chrome,1440,900,,,,,,,,,,,,,,,,,1,,,,,,,,,,,,,,,,,,,,,,,,,,,801.56668,59,right,1.57469,calculator    ,3,9,-1,0,1,801.597635,801.597635,804.084935,0,58,58,58,1,59,4,3,slipper     ,calculator    ,html/resources/sequences_IDs/B/08_slipper.jpg,html/resources/sequences_IDs/A/09_calculator.jpg,8,9,3,2,4,2,6,7,1,57,,,,,,,,,,,,,,,,,,,,
,,,,,57,2020-07-04_10h55.02.127,retriever_ti,2020.1.3,MacIntel,60,Chrome,1440,900,,,,,,,,,,,,,,,,,1,,,,,,,,,,,,,,,,,,,,,,,,,,,805.22702,60,NaN,NaN,No_response,NaN,NaN,NaN,2,2,805.24645,805.24645,807.73858,0,59,59,59,1,60,6,7,redfox      ,scarf         ,html/resources/sequences_IDs/B/01_redfox.jpg,html/resources/sequences_IDs/A/06_scarf.jpg,1,6,1,1,3,2,1,5,1,57,,,,,,,,,,,,,,,,,,,,
,,,,,57,2020-07-04_10h55.02.127,retriever_ti,2020.1.3,MacIntel,60,Chrome,1440,900,,,,,,,,,,,,,,,,,1,,,,,,,,,,,,,,,,,,,,,,,,,,,809.45851,61,left,1.505385,radio       ,8,10,1,1,1,809.474985,809.474985,811.969805,0,60,60,60,1,61,8,7,radio       ,scarf         ,html/resources/sequences_IDs/B/10_radio.jpg,html/resources/sequences_IDs/A/06_scarf.jpg,10,6,4,2,3,2,8,5,0,57,,,,,,,,,,,,,,,,,,,,
,,,,,57,2020-07-04_10h55.02.127,retriever_ti,2020.1.3,MacIntel,60,Chrome,1440,900,,,,,,,,,,,,,,,,,1,,,,,,,,,,,,,,,,,,,,,,,,,,,813.072255,62,right,0.90849,scarf         ,7,6,1,1,1,813.111805,813.111805,815.62189,0,61,61,61,1,62,6,7,redfox      ,scarf         ,html/resources/sequences_IDs/B/01_redfox.jpg,html/resources/sequences_IDs/A/06_scarf.jpg,1,6,1,1,3,2,1,5,0,57,,,,,,,,,,,,,,,,,,,,
,,,,,57,2020-07-04_10h55.02.127,retriever_ti,2020.1.3,MacIntel,60,Chrome,1440,900,,,,,,,,,,,,,,,,,1,,,,,,,,,,,,,,,,,,,,,,,,,,,816.71948,63,right,1.11077,giraffe     ,2,3,-1,0,0,816.796875,816.796875,819.243775,0,62,62,62,1,63,3,2,calculator    ,giraffe     ,html/resources/sequences_IDs/A/09_calculator.jpg,html/resources/sequences_IDs/B/03_giraffe.jpg,9,3,4,2,1,1,7,3,0,57,,,,,,,,,,,,,,,,,,,,
,,,,,57,2020-07-04_10h55.02.127,retriever_ti,2020.1.3,MacIntel,60,Chrome,1440,900,,,,,,,,,,,,,,,,,1,,,,,,,,,,,,,,,,,,,,,,,,,,,820.345035,64,right,1.90117,clownfish     ,1,4,-1,0,0,820.36147,820.36147,822.850595,0,63,63,63,1,64,2,1,giraffe     ,clownfish     ,html/resources/sequences_IDs/B/03_giraffe.jpg,html/resources/sequences_IDs/A/04_clownfish.jpg,3,4,1,1,2,1,3,4,0,57,,,,,,,,,,,,,,,,,,,,
,,,,,57,2020-07-04_10h55.02.127,retriever_ti,2020.1.3,MacIntel,60,Chrome,1440,900,,,,,,,,,,,,,,,,,1,,,,,,,,,,,,,,,,,,,,,,,,,,,823.942145,65,right,1.246935,scarf         ,7,6,-1,0,0,823.97626,823.97626,826.491145,0,64,64,64,1,65,8,7,radio       ,scarf         ,html/resources/sequences_IDs/B/10_radio.jpg,html/resources/sequences_IDs/A/06_scarf.jpg,10,6,4,2,3,2,8,5,0,57,,,,,,,,,,,,,,,,,,,,
,,,,,57,2020-07-04_10h55.02.127,retriever_ti,2020.1.3,MacIntel,60,Chrome,1440,900,,,,,,,,,,,,,,,,,1,,,,,,,,,,,,,,,,,,,,,,,,,,,827.590715,66,left,1.05816,clownfish     ,1,4,-1,0,0,827.61996,827.61996,830.106905,0,65,65,65,1,66,1,2,clownfish     ,giraffe     ,html/resources/sequences_IDs/A/04_clownfish.jpg,html/resources/sequences_IDs/B/03_giraffe.jpg,4,3,2,1,1,1,4,3,0,57,,,,,,,,,,,,,,,,,,,,
,,,,,57,2020-07-04_10h55.02.127,retriever_ti,2020.1.3,MacIntel,60,Chrome,1440,900,,,,,,,,,,,,,,,,,1,,,,,,,,,,,,,,,,,,,,,,,,,,,831.20452,67,left,1.22295,radio       ,8,10,4,1,3,831.220465,831.220465,833.718045,0,66,66,66,1,67,8,4,radio       ,slipper     ,html/resources/sequences_IDs/B/10_radio.jpg,html/resources/sequences_IDs/B/08_slipper.jpg,10,8,4,2,3,2,8,6,0,57,,,,,,,,,,,,,,,,,,,,
,,,,,57,2020-07-04_10h55.02.127,retriever_ti,2020.1.3,MacIntel,60,Chrome,1440,900,,,,,,,,,,,,,,,,,1,,,,,,,,,,,,,,,,,,,,,,,,,,,834.32965,68,left,1.013765,seaturtle     ,5,2,1,1,1,834.3695,834.3695,836.853335,0,67,67,67,1,68,5,4,seaturtle     ,slipper     ,html/resources/sequences_IDs/A/02_seaturtle.jpg,html/resources/sequences_IDs/B/08_slipper.jpg,2,8,2,1,3,2,2,6,0,57,,,,,,,,,,,,,,,,,,,,
,,,,,57,2020-07-04_10h55.02.127,retriever_ti,2020.1.3,MacIntel,60,Chrome,1440,900,,,,,,,,,,,,,,,,,1,,,,,,,,,,,,,,,,,,,,,,,,,,,837.952205,69,left,2.074665,scarf         ,7,6,-1,0,0,837.97827,837.97827,840.494425,0,68,68,68,1,69,7,8,scarf         ,radio       ,html/resources/sequences_IDs/A/06_scarf.jpg,html/resources/sequences_IDs/B/10_radio.jpg,6,10,3,2,4,2,5,8,0,57,,,,,,,,,,,,,,,,,,,,
,,,,,57,2020-07-04_10h55.02.127,retriever_ti,2020.1.3,MacIntel,60,Chrome,1440,900,,,,,,,,,,,,,,,,,1,,,,,,,,,,,,,,,,,,,,,,,,,,,841.602455,70,right,1.362885,redfox      ,6,1,1,1,1,841.65282,841.65282,844.12748,0,69,69,69,1,70,5,6,seaturtle     ,redfox      ,html/resources/sequences_IDs/A/02_seaturtle.jpg,html/resources/sequences_IDs/B/01_redfox.jpg,2,1,2,1,1,1,2,1,0,57,,,,,,,,,,,,,,,,,,,,
,,,,,57,2020-07-04_10h55.02.127,retriever_ti,2020.1.3,MacIntel,60,Chrome,1440,900,,,,,,,,,,,,,,,,,1,,,,,,,,,,,,,,,,,,,,,,,,,,,845.223645,71,right,1.28286,slipper     ,4,8,-2,0,3,845.25313,845.25313,847.902175,0,70,70,70,1,71,6,4,redfox      ,slipper     ,html/resources/sequences_IDs/B/01_redfox.jpg,html/resources/sequences_IDs/B/08_slipper.jpg,1,8,1,1,3,2,1,6,0,57,,,,,,,,,,,,,,,,,,,,
,,,,,57,2020-07-04_10h55.02.127,retriever_ti,2020.1.3,MacIntel,60,Chrome,1440,900,,,,,,,,,,,,,,,,,1,,,,,,,,,,,,,,,,,,,,,,,,,,,848.544395,72,NaN,NaN,No_response,NaN,NaN,NaN,2,2,848.63021,848.63021,851.196845,0,71,71,71,1,72,4,3,slipper     ,calculator    ,html/resources/sequences_IDs/B/08_slipper.jpg,html/resources/sequences_IDs/A/09_calculator.jpg,8,9,3,2,4,2,6,7,0,57,,,,,,,,,,,,,,,,,,,,
,,,,,57,2020-07-04_10h55.02.127,retriever_ti,2020.1.3,MacIntel,60,Chrome,1440,900,,,,,,,,,,,,,,,,,1,,,,,,,,,,,,,,,,,,,,,,,,,,,852.296325,73,NaN,NaN,No_response,NaN,NaN,NaN,2,2,852.33397,852.33397,854.83049,0,72,72,72,1,73,2,3,giraffe     ,calculator    ,html/resources/sequences_IDs/B/03_giraffe.jpg,html/resources/sequences_IDs/A/09_calculator.jpg,3,9,1,1,4,2,3,7,1,57,,,,,,,,,,,,,,,,,,,,
,,,,,57,2020-07-04_10h55.02.127,retriever_ti,2020.1.3,MacIntel,60,Chrome,1440,900,,,,,,,,,,,,,,,,,1,,,,,,,,,,,,,,,,,,,,,,,,,,,855.95322,74,left,1.00663,scarf         ,7,6,2,1,3,855.98496,855.98496,858.479755,0,73,73,73,1,74,7,5,scarf         ,seaturtle     ,html/resources/sequences_IDs/A/06_scarf.jpg,html/resources/sequences_IDs/A/02_seaturtle.jpg,6,2,3,2,2,1,5,2,0,57,,,,,,,,,,,,,,,,,,,,
,,,,,57,2020-07-04_10h55.02.127,retriever_ti,2020.1.3,MacIntel,60,Chrome,1440,900,,,,,,,,,,,,,,,,,1,,,,,,,,,,,,,,,,,,,,,,,,,,,859.584,75,NaN,NaN,No_response,NaN,NaN,NaN,2,2,859.64863,859.64863,862.32748,0,74,74,74,1,75,6,5,redfox      ,seaturtle     ,html/resources/sequences_IDs/B/01_redfox.jpg,html/resources/sequences_IDs/A/02_seaturtle.jpg,1,2,1,1,2,1,1,2,0,57,,,,,,,,,,,,,,,,,,,,
,,,,,57,2020-07-04_10h55.02.127,retriever_ti,2020.1.3,MacIntel,60,Chrome,1440,900,,,,,,,,,,,,,,,,,1,,,,,,,,,,,,,,,,,,,,,,,,,,,863.45763,76,NaN,NaN,No_response,NaN,NaN,NaN,2,2,863.51955,863.51955,867.89956,0,75,75,75,1,76,1,7,clownfish     ,scarf         ,html/resources/sequences_IDs/A/04_clownfish.jpg,html/resources/sequences_IDs/A/06_scarf.jpg,4,6,2,1,3,2,4,5,0,57,,,,,,,,,,,,,,,,,,,,
,,,,,57,2020-07-04_10h55.02.127,retriever_ti,2020.1.3,MacIntel,60,Chrome,1440,900,,,,,,,,,,,,,,,,,1,,,,,,,,,,,,,,,,,,,,,,,,,,,869.02739,77,left,0.574625,clownfish     ,1,4,-1,0,0,869.044895,869.044895,871.5432,0,76,76,76,1,77,1,2,clownfish     ,giraffe     ,html/resources/sequences_IDs/A/04_clownfish.jpg,html/resources/sequences_IDs/B/03_giraffe.jpg,4,3,2,1,1,1,4,3,0,57,,,,,,,,,,,,,,,,,,,,
,,,,,57,2020-07-04_10h55.02.127,retriever_ti,2020.1.3,MacIntel,60,Chrome,1440,900,,,,,,,,,,,,,,,,,,,,,,,,,,,,,,,,,,,,,0,7.59366,,,,,,,,,,,,,,,,,,,,,,,,,,,,,,,,,,,,,,,,,0,0,0,0,1,,,,,,,,,,,,,,,
,,,,,57,2020-07-04_10h55.02.127,retriever_ti,2020.1.3,MacIntel,60,Chrome,1440,900,,,,,,,,,,,,,,,,,2,,,,,,,,,,,,,,,,,,,,,,,,,,,928.923525,78,left,1.07856,redfox      ,6,1,-1,0,0,929.276635,929.276635,931.75667,0,0,0,0,1,78,6,7,redfox      ,scarf         ,html/resources/sequences_IDs/B/01_redfox.jpg,html/resources/sequences_IDs/A/06_scarf.jpg,1,6,1,1,3,2,1,5,0,57,,,,,,,,,,,,,,,,,,,,
,,,,,57,2020-07-04_10h55.02.127,retriever_ti,2020.1.3,MacIntel,60,Chrome,1440,900,,,,,,,,,,,,,,,,,2,,,,,,,,,,,,,,,,,,,,,,,,,,,932.86946,79,right,1.049315,giraffe     ,2,3,-2,0,3,932.880195,932.880195,935.366965,0,1,1,1,1,79,4,2,slipper     ,giraffe     ,html/resources/sequences_IDs/B/08_slipper.jpg,html/resources/sequences_IDs/B/03_giraffe.jpg,8,3,3,2,1,1,6,3,0,57,,,,,,,,,,,,,,,,,,,,
,,,,,57,2020-07-04_10h55.02.127,retriever_ti,2020.1.3,MacIntel,60,Chrome,1440,900,,,,,,,,,,,,,,,,,2,,,,,,,,,,,,,,,,,,,,,,,,,,,935.98483,80,right,0.835815,radio       ,8,10,3,1,3,936.01931,936.01931,938.51587,0,2,2,2,1,80,5,8,seaturtle     ,radio       ,html/resources/sequences_IDs/A/02_seaturtle.jpg,html/resources/sequences_IDs/B/10_radio.jpg,2,10,2,1,4,2,2,8,0,57,,,,,,,,,,,,,,,,,,,,
,,,,,57,2020-07-04_10h55.02.127,retriever_ti,2020.1.3,MacIntel,60,Chrome,1440,900,,,,,,,,,,,,,,,,,2,,,,,,,,,,,,,,,,,,,,,,,,,,,939.1395,81,right,0.83045,clownfish     ,1,4,-7,0,3,939.25437,939.25437,941.69065,0,3,3,3,1,81,8,1,radio       ,clownfish     ,html/resources/sequences_IDs/B/10_radio.jpg,html/resources/sequences_IDs/A/04_clownfish.jpg,10,4,4,2,2,1,8,4,0,57,,,,,,,,,,,,,,,,,,,,
,,,,,57,2020-07-04_10h55.02.127,retriever_ti,2020.1.3,MacIntel,60,Chrome,1440,900,,,,,,,,,,,,,,,,,2,,,,,,,,,,,,,,,,,,,,,,,,,,,942.325275,82,left,0.595995,clownfish     ,1,4,-1,0,0,942.33702,942.33702,944.82504,0,4,4,4,1,82,1,2,clownfish     ,giraffe     ,html/resources/sequences_IDs/A/04_clownfish.jpg,html/resources/sequences_IDs/B/03_giraffe.jpg,4,3,2,1,1,1,4,3,0,57,,,,,,,,,,,,,,,,,,,,
,,,,,57,2020-07-04_10h55.02.127,retriever_ti,2020.1.3,MacIntel,60,Chrome,1440,900,,,,,,,,,,,,,,,,,2,,,,,,,,,,,,,,,,,,,,,,,,,,,945.91771,83,right,0.70133,calculator    ,3,9,-3,0,3,945.972665,945.972665,948.488135,0,5,5,5,1,83,6,3,redfox      ,calculator    ,html/resources/sequences_IDs/B/01_redfox.jpg,html/resources/sequences_IDs/A/09_calculator.jpg,1,9,1,1,4,2,1,7,0,57,,,,,,,,,,,,,,,,,,,,
,,,,,57,2020-07-04_10h55.02.127,retriever_ti,2020.1.3,MacIntel,60,Chrome,1440,900,,,,,,,,,,,,,,,,,2,,,,,,,,,,,,,,,,,,,,,,,,,,,949.095925,84,right,0.6446,calculator    ,3,9,1,1,1,949.122445,949.122445,951.62047,0,6,6,6,1,84,2,3,giraffe     ,calculator    ,html/resources/sequences_IDs/B/03_giraffe.jpg,html/resources/sequences_IDs/A/09_calculator.jpg,3,9,1,1,4,2,3,7,0,57,,,,,,,,,,,,,,,,,,,,
,,,,,57,2020-07-04_10h55.02.127,retriever_ti,2020.1.3,MacIntel,60,Chrome,1440,900,,,,,,,,,,,,,,,,,2,,,,,,,,,,,,,,,,,,,,,,,,,,,952.717195,85,left,0.88467,seaturtle     ,5,2,-1,0,0,952.75132,952.75132,955.244525,0,7,7,7,1,85,5,6,seaturtle     ,redfox      ,html/resources/sequences_IDs/A/02_seaturtle.jpg,html/resources/sequences_IDs/B/01_redfox.jpg,2,1,2,1,1,1,2,1,0,57,,,,,,,,,,,,,,,,,,,,
,,,,,57,2020-07-04_10h55.02.127,retriever_ti,2020.1.3,MacIntel,60,Chrome,1440,900,,,,,,,,,,,,,,,,,2,,,,,,,,,,,,,,,,,,,,,,,,,,,956.338915,86,left,1.05056,calculator    ,3,9,-5,0,3,956.371235,956.371235,958.882545,0,8,8,8,1,86,3,8,calculator    ,radio       ,html/resources/sequences_IDs/A/09_calculator.jpg,html/resources/sequences_IDs/B/10_radio.jpg,9,10,4,2,4,2,7,8,0,57,,,,,,,,,,,,,,,,,,,,
,,,,,57,2020-07-04_10h55.02.127,retriever_ti,2020.1.3,MacIntel,60,Chrome,1440,900,,,,,,,,,,,,,,,,,2,,,,,,,,,,,,,,,,,,,,,,,,,,,959.50388,87,left,0.7617,scarf         ,7,6,-1,0,0,959.54025,959.54025,962.03401,0,9,9,9,1,87,7,8,scarf         ,radio       ,html/resources/sequences_IDs/A/06_scarf.jpg,html/resources/sequences_IDs/B/10_radio.jpg,6,10,3,2,4,2,5,8,0,57,,,,,,,,,,,,,,,,,,,,
,,,,,57,2020-07-04_10h55.02.127,retriever_ti,2020.1.3,MacIntel,60,Chrome,1440,900,,,,,,,,,,,,,,,,,2,,,,,,,,,,,,,,,,,,,,,,,,,,,963.130335,88,left,1.32335,scarf         ,7,6,1,1,0,963.14786,963.14786,965.635235,0,10,10,10,1,88,7,6,scarf         ,redfox      ,html/resources/sequences_IDs/A/06_scarf.jpg,html/resources/sequences_IDs/B/01_redfox.jpg,6,1,3,2,1,1,5,1,1,57,,,,,,,,,,,,,,,,,,,,
,,,,,57,2020-07-04_10h55.02.127,retriever_ti,2020.1.3,MacIntel,60,Chrome,1440,900,,,,,,,,,,,,,,,,,2,,,,,,,,,,,,,,,,,,,,,,,,,,,966.73225,89,left,0.98804,calculator    ,3,9,-3,0,3,966.786155,966.786155,969.283435,0,11,11,11,1,89,3,6,calculator    ,redfox      ,html/resources/sequences_IDs/A/09_calculator.jpg,html/resources/sequences_IDs/B/01_redfox.jpg,9,1,4,2,1,1,7,1,0,57,,,,,,,,,,,,,,,,,,,,
,,,,,57,2020-07-04_10h55.02.127,retriever_ti,2020.1.3,MacIntel,60,Chrome,1440,900,,,,,,,,,,,,,,,,,2,,,,,,,,,,,,,,,,,,,,,,,,,,,969.89752,90,left,1.19512,slipper     ,4,8,-3,0,3,969.937625,969.937625,972.42977,0,12,12,12,1,90,4,7,slipper     ,scarf         ,html/resources/sequences_IDs/B/08_slipper.jpg,html/resources/sequences_IDs/A/06_scarf.jpg,8,6,3,2,3,2,6,5,0,57,,,,,,,,,,,,,,,,,,,,
,,,,,57,2020-07-04_10h55.02.127,retriever_ti,2020.1.3,MacIntel,60,Chrome,1440,900,,,,,,,,,,,,,,,,,2,,,,,,,,,,,,,,,,,,,,,,,,,,,973.032365,91,right,1.31045,giraffe     ,2,3,-3,0,3,973.06574,973.06574,975.56471,0,13,13,13,1,91,5,2,seaturtle     ,giraffe     ,html/resources/sequences_IDs/A/02_seaturtle.jpg,html/resources/sequences_IDs/B/03_giraffe.jpg,2,3,2,1,1,1,2,3,0,57,,,,,,,,,,,,,,,,,,,,
,,,,,57,2020-07-04_10h55.02.127,retriever_ti,2020.1.3,MacIntel,60,Chrome,1440,900,,,,,,,,,,,,,,,,,2,,,,,,,,,,,,,,,,,,,,,,,,,,,976.185165,92,left,1.07709,scarf         ,7,6,2,1,3,976.201895,976.201895,978.716275,0,14,14,14,1,92,7,5,scarf         ,seaturtle     ,html/resources/sequences_IDs/A/06_scarf.jpg,html/resources/sequences_IDs/A/02_seaturtle.jpg,6,2,3,2,2,1,5,2,0,57,,,,,,,,,,,,,,,,,,,,
,,,,,57,2020-07-04_10h55.02.127,retriever_ti,2020.1.3,MacIntel,60,Chrome,1440,900,,,,,,,,,,,,,,,,,2,,,,,,,,,,,,,,,,,,,,,,,,,,,979.334195,93,right,0.746185,calculator    ,3,9,-1,0,0,979.34903,979.34903,981.84787,0,15,15,15,1,93,4,3,slipper     ,calculator    ,html/resources/sequences_IDs/B/08_slipper.jpg,html/resources/sequences_IDs/A/09_calculator.jpg,8,9,3,2,4,2,6,7,0,57,,,,,,,,,,,,,,,,,,,,
,,,,,57,2020-07-04_10h55.02.127,retriever_ti,2020.1.3,MacIntel,60,Chrome,1440,900,,,,,,,,,,,,,,,,,2,,,,,,,,,,,,,,,,,,,,,,,,,,,982.949325,94,right,0.975085,clownfish     ,1,4,-4,0,3,982.97592,982.97592,985.4661,0,16,16,16,1,94,5,1,seaturtle     ,clownfish     ,html/resources/sequences_IDs/A/02_seaturtle.jpg,html/resources/sequences_IDs/A/04_clownfish.jpg,2,4,2,1,2,1,2,4,0,57,,,,,,,,,,,,,,,,,,,,
,,,,,57,2020-07-04_10h55.02.127,retriever_ti,2020.1.3,MacIntel,60,Chrome,1440,900,,,,,,,,,,,,,,,,,2,,,,,,,,,,,,,,,,,,,,,,,,,,,986.082075,95,left,1.074545,slipper     ,4,8,-1,0,0,986.117635,986.117635,988.61563,0,17,17,17,1,95,4,5,slipper     ,seaturtle     ,html/resources/sequences_IDs/B/08_slipper.jpg,html/resources/sequences_IDs/A/02_seaturtle.jpg,8,2,3,2,2,1,6,2,0,57,,,,,,,,,,,,,,,,,,,,
,,,,,57,2020-07-04_10h55.02.127,retriever_ti,2020.1.3,MacIntel,60,Chrome,1440,900,,,,,,,,,,,,,,,,,2,,,,,,,,,,,,,,,,,,,,,,,,,,,989.716775,96,right,1.1298,scarf         ,7,6,-1,0,1,989.736935,989.736935,992.23205,0,18,18,18,1,96,8,7,radio       ,scarf         ,html/resources/sequences_IDs/B/10_radio.jpg,html/resources/sequences_IDs/A/06_scarf.jpg,10,6,4,2,3,2,8,5,1,57,,,,,,,,,,,,,,,,,,,,
,,,,,57,2020-07-04_10h55.02.127,retriever_ti,2020.1.3,MacIntel,60,Chrome,1440,900,,,,,,,,,,,,,,,,,2,,,,,,,,,,,,,,,,,,,,,,,,,,,993.331185,97,right,0.588445,scarf         ,7,6,1,1,1,993.34926,993.34926,995.851735,0,19,19,19,1,97,6,7,redfox      ,scarf         ,html/resources/sequences_IDs/B/01_redfox.jpg,html/resources/sequences_IDs/A/06_scarf.jpg,1,6,1,1,3,2,1,5,0,57,,,,,,,,,,,,,,,,,,,,
,,,,,57,2020-07-04_10h55.02.127,retriever_ti,2020.1.3,MacIntel,60,Chrome,1440,900,,,,,,,,,,,,,,,,,2,,,,,,,,,,,,,,,,,,,,,,,,,,,996.94973,98,left,0.951955,scarf         ,7,6,1,1,1,996.98451,996.98451,999.4816,0,20,20,20,1,98,7,6,scarf         ,redfox      ,html/resources/sequences_IDs/A/06_scarf.jpg,html/resources/sequences_IDs/B/01_redfox.jpg,6,1,3,2,1,1,5,1,0,57,,,,,,,,,,,,,,,,,,,,
,,,,,57,2020-07-04_10h55.02.127,retriever_ti,2020.1.3,MacIntel,60,Chrome,1440,900,,,,,,,,,,,,,,,,,2,,,,,,,,,,,,,,,,,,,,,,,,,,,1000.584535,99,right,1.059015,giraffe     ,2,3,-6,0,3,1000.602775,1000.602775,1003.11281,0,21,21,21,1,99,8,2,radio       ,giraffe     ,html/resources/sequences_IDs/B/10_radio.jpg,html/resources/sequences_IDs/B/03_giraffe.jpg,10,3,4,2,1,1,8,3,0,57,,,,,,,,,,,,,,,,,,,,
,,,,,57,2020-07-04_10h55.02.127,retriever_ti,2020.1.3,MacIntel,60,Chrome,1440,900,,,,,,,,,,,,,,,,,2,,,,,,,,,,,,,,,,,,,,,,,,,,,1003.73058,100,left,1.361465,giraffe     ,2,3,-4,0,3,1003.765425,1003.765425,1006.25502,0,22,22,22,1,100,2,6,giraffe     ,redfox      ,html/resources/sequences_IDs/B/03_giraffe.jpg,html/resources/sequences_IDs/B/01_redfox.jpg,3,1,1,1,1,1,3,1,0,57,,,,,,,,,,,,,,,,,,,,
,,,,,57,2020-07-04_10h55.02.127,retriever_ti,2020.1.3,MacIntel,60,Chrome,1440,900,,,,,,,,,,,,,,,,,2,,,,,,,,,,,,,,,,,,,,,,,,,,,1006.859005,101,left,0.801405,radio       ,8,10,2,1,3,1006.872715,1006.872715,1010.053805,0,23,23,23,1,101,8,6,radio       ,redfox      ,html/resources/sequences_IDs/B/10_radio.jpg,html/resources/sequences_IDs/B/01_redfox.jpg,10,1,4,2,1,1,8,1,0,57,,,,,,,,,,,,,,,,,,,,
,,,,,57,2020-07-04_10h55.02.127,retriever_ti,2020.1.3,MacIntel,60,Chrome,1440,900,,,,,,,,,,,,,,,,,2,,,,,,,,,,,,,,,,,,,,,,,,,,,1010.66836,102,left,0.76259,calculator    ,3,9,1,1,0,1010.70047,1010.70047,1013.19961,0,24,24,24,1,102,3,2,calculator    ,giraffe     ,html/resources/sequences_IDs/A/09_calculator.jpg,html/resources/sequences_IDs/B/03_giraffe.jpg,9,3,4,2,1,1,7,3,1,57,,,,,,,,,,,,,,,,,,,,
,,,,,57,2020-07-04_10h55.02.127,retriever_ti,2020.1.3,MacIntel,60,Chrome,1440,900,,,,,,,,,,,,,,,,,2,,,,,,,,,,,,,,,,,,,,,,,,,,,1014.29842,103,left,1.848125,redfox      ,6,1,1,1,1,1014.331935,1014.331935,1016.83489,0,25,25,25,1,103,6,5,redfox      ,seaturtle     ,html/resources/sequences_IDs/B/01_redfox.jpg,html/resources/sequences_IDs/A/02_seaturtle.jpg,1,2,1,1,2,1,1,2,0,57,,,,,,,,,,,,,,,,,,,,
,,,,,57,2020-07-04_10h55.02.127,retriever_ti,2020.1.3,MacIntel,60,Chrome,1440,900,,,,,,,,,,,,,,,,,2,,,,,,,,,,,,,,,,,,,,,,,,,,,1017.970845,104,right,1.76129,scarf         ,7,6,-1,0,0,1018.003205,1018.003205,1020.49956,0,26,26,26,1,104,8,7,radio       ,scarf         ,html/resources/sequences_IDs/B/10_radio.jpg,html/resources/sequences_IDs/A/06_scarf.jpg,10,6,4,2,3,2,8,5,0,57,,,,,,,,,,,,,,,,,,,,
,,,,,57,2020-07-04_10h55.02.127,retriever_ti,2020.1.3,MacIntel,60,Chrome,1440,900,,,,,,,,,,,,,,,,,2,,,,,,,,,,,,,,,,,,,,,,,,,,,1021.59958,105,right,0.785535,clownfish     ,1,4,-5,0,3,1021.633555,1021.633555,1024.13218,0,27,27,27,1,105,6,1,redfox      ,clownfish     ,html/resources/sequences_IDs/B/01_redfox.jpg,html/resources/sequences_IDs/A/04_clownfish.jpg,1,4,1,1,2,1,1,4,0,57,,,,,,,,,,,,,,,,,,,,
,,,,,57,2020-07-04_10h55.02.127,retriever_ti,2020.1.3,MacIntel,60,Chrome,1440,900,,,,,,,,,,,,,,,,,2,,,,,,,,,,,,,,,,,,,,,,,,,,,1024.747165,106,left,0.671935,clownfish     ,1,4,-6,0,3,1024.76487,1024.76487,1027.26362,0,28,28,28,1,106,1,7,clownfish     ,scarf         ,html/resources/sequences_IDs/A/04_clownfish.jpg,html/resources/sequences_IDs/A/06_scarf.jpg,4,6,2,1,3,2,4,5,0,57,,,,,,,,,,,,,,,,,,,,
,,,,,57,2020-07-04_10h55.02.127,retriever_ti,2020.1.3,MacIntel,60,Chrome,1440,900,,,,,,,,,,,,,,,,,2,,,,,,,,,,,,,,,,,,,,,,,,,,,1027.864645,107,left,1.338125,calculator    ,3,9,-1,0,0,1027.88364,1027.88364,1030.37981,0,29,29,29,1,107,3,4,calculator    ,slipper     ,html/resources/sequences_IDs/A/09_calculator.jpg,html/resources/sequences_IDs/B/08_slipper.jpg,9,8,4,2,3,2,7,6,0,57,,,,,,,,,,,,,,,,,,,,
,,,,,57,2020-07-04_10h55.02.127,retriever_ti,2020.1.3,MacIntel,60,Chrome,1440,900,,,,,,,,,,,,,,,,,2,,,,,,,,,,,,,,,,,,,,,,,,,,,1031.481935,108,left,1.44291,calculator    ,3,9,-4,0,3,1031.50169,1031.50169,1033.998965,0,30,30,30,1,108,3,7,calculator    ,scarf         ,html/resources/sequences_IDs/A/09_calculator.jpg,html/resources/sequences_IDs/A/06_scarf.jpg,9,6,4,2,3,2,7,5,0,57,,,,,,,,,,,,,,,,,,,,
,,,,,57,2020-07-04_10h55.02.127,retriever_ti,2020.1.3,MacIntel,60,Chrome,1440,900,,,,,,,,,,,,,,,,,2,,,,,,,,,,,,,,,,,,,,,,,,,,,1034.614235,109,left,1.68006,giraffe     ,2,3,-5,0,3,1034.651555,1034.651555,1037.148185,0,31,31,31,1,109,2,7,giraffe     ,scarf         ,html/resources/sequences_IDs/B/03_giraffe.jpg,html/resources/sequences_IDs/A/06_scarf.jpg,3,6,1,1,3,2,3,5,0,57,,,,,,,,,,,,,,,,,,,,
,,,,,57,2020-07-04_10h55.02.127,retriever_ti,2020.1.3,MacIntel,60,Chrome,1440,900,,,,,,,,,,,,,,,,,2,,,,,,,,,,,,,,,,,,,,,,,,,,,1037.74932,110,left,1.08976,radio       ,8,10,1,1,1,1037.765375,1037.765375,1040.263345,0,32,32,32,1,110,8,7,radio       ,scarf         ,html/resources/sequences_IDs/B/10_radio.jpg,html/resources/sequences_IDs/A/06_scarf.jpg,10,6,4,2,3,2,8,5,0,57,,,,,,,,,,,,,,,,,,,,
,,,,,57,2020-07-04_10h55.02.127,retriever_ti,2020.1.3,MacIntel,60,Chrome,1440,900,,,,,,,,,,,,,,,,,2,,,,,,,,,,,,,,,,,,,,,,,,,,,1041.36705,111,right,1.505985,redfox      ,6,1,2,1,3,1041.38306,1041.38306,1043.88191,0,33,33,33,1,111,4,6,slipper     ,redfox      ,html/resources/sequences_IDs/B/08_slipper.jpg,html/resources/sequences_IDs/B/01_redfox.jpg,8,1,3,2,1,1,6,1,0,57,,,,,,,,,,,,,,,,,,,,
,,,,,57,2020-07-04_10h55.02.127,retriever_ti,2020.1.3,MacIntel,60,Chrome,1440,900,,,,,,,,,,,,,,,,,2,,,,,,,,,,,,,,,,,,,,,,,,,,,1044.497925,112,left,0.65689,giraffe     ,2,3,-6,0,3,1044.53537,1044.53537,1047.03427,0,34,34,34,1,112,2,8,giraffe     ,radio       ,html/resources/sequences_IDs/B/03_giraffe.jpg,html/resources/sequences_IDs/B/10_radio.jpg,3,10,1,1,4,2,3,8,0,57,,,,,,,,,,,,,,,,,,,,
,,,,,57,2020-07-04_10h55.02.127,retriever_ti,2020.1.3,MacIntel,60,Chrome,1440,900,,,,,,,,,,,,,,,,,2,,,,,,,,,,,,,,,,,,,,,,,,,,,1047.646645,113,right,0.700805,clownfish     ,1,4,-6,0,3,1047.66771,1047.66771,1050.163085,0,35,35,35,1,113,7,1,scarf         ,clownfish     ,html/resources/sequences_IDs/A/06_scarf.jpg,html/resources/sequences_IDs/A/04_clownfish.jpg,6,4,3,2,2,1,5,4,0,57,,,,,,,,,,,,,,,,,,,,
,,,,,57,2020-07-04_10h55.02.127,retriever_ti,2020.1.3,MacIntel,60,Chrome,1440,900,,,,,,,,,,,,,,,,,2,,,,,,,,,,,,,,,,,,,,,,,,,,,1050.76533,114,right,0.76017,giraffe     ,2,3,-1,0,0,1050.800625,1050.800625,1053.29698,0,36,36,36,1,114,3,2,calculator    ,giraffe     ,html/resources/sequences_IDs/A/09_calculator.jpg,html/resources/sequences_IDs/B/03_giraffe.jpg,9,3,4,2,1,1,7,3,0,57,,,,,,,,,,,,,,,,,,,,
,,,,,57,2020-07-04_10h55.02.127,retriever_ti,2020.1.3,MacIntel,60,Chrome,1440,900,,,,,,,,,,,,,,,,,2,,,,,,,,,,,,,,,,,,,,,,,,,,,1054.397175,115,left,0.70429,scarf         ,7,6,-1,0,0,1054.416225,1054.416225,1056.90802,0,37,37,37,1,115,7,8,scarf         ,radio       ,html/resources/sequences_IDs/A/06_scarf.jpg,html/resources/sequences_IDs/B/10_radio.jpg,6,10,3,2,4,2,5,8,0,57,,,,,,,,,,,,,,,,,,,,
,,,,,57,2020-07-04_10h55.02.127,retriever_ti,2020.1.3,MacIntel,60,Chrome,1440,900,,,,,,,,,,,,,,,,,2,,,,,,,,,,,,,,,,,,,,,,,,,,,1058.008965,116,left,1.358775,calculator    ,3,9,-1,0,0,1058.030275,1058.030275,1060.532955,0,38,38,38,1,116,3,4,calculator    ,slipper     ,html/resources/sequences_IDs/A/09_calculator.jpg,html/resources/sequences_IDs/B/08_slipper.jpg,9,8,4,2,3,2,7,6,0,57,,,,,,,,,,,,,,,,,,,,
,,,,,57,2020-07-04_10h55.02.127,retriever_ti,2020.1.3,MacIntel,60,Chrome,1440,900,,,,,,,,,,,,,,,,,2,,,,,,,,,,,,,,,,,,,,,,,,,,,1061.630685,117,right,0.720615,clownfish     ,1,4,-2,0,3,1061.664425,1061.664425,1064.151065,0,39,39,39,1,117,3,1,calculator    ,clownfish     ,html/resources/sequences_IDs/A/09_calculator.jpg,html/resources/sequences_IDs/A/04_clownfish.jpg,9,4,4,2,2,1,7,4,0,57,,,,,,,,,,,,,,,,,,,,
,,,,,57,2020-07-04_10h55.02.127,retriever_ti,2020.1.3,MacIntel,60,Chrome,1440,900,,,,,,,,,,,,,,,,,2,,,,,,,,,,,,,,,,,,,,,,,,,,,1064.764825,118,right,1.1443,redfox      ,6,1,1,1,1,1064.784875,1064.784875,1067.280835,0,40,40,40,1,118,5,6,seaturtle     ,redfox      ,html/resources/sequences_IDs/A/02_seaturtle.jpg,html/resources/sequences_IDs/B/01_redfox.jpg,2,1,2,1,1,1,2,1,0,57,,,,,,,,,,,,,,,,,,,,
,,,,,57,2020-07-04_10h55.02.127,retriever_ti,2020.1.3,MacIntel,60,Chrome,1440,900,,,,,,,,,,,,,,,,,2,,,,,,,,,,,,,,,,,,,,,,,,,,,1068.382115,119,left,0.918035,radio       ,8,10,3,1,3,1068.4161,1068.4161,1070.91506,0,41,41,41,1,119,8,5,radio       ,seaturtle     ,html/resources/sequences_IDs/B/10_radio.jpg,html/resources/sequences_IDs/A/02_seaturtle.jpg,10,2,4,2,2,1,8,2,0,57,,,,,,,,,,,,,,,,,,,,
,,,,,57,2020-07-04_10h55.02.127,retriever_ti,2020.1.3,MacIntel,60,Chrome,1440,900,,,,,,,,,,,,,,,,,2,,,,,,,,,,,,,,,,,,,,,,,,,,,1071.530785,120,right,1.082015,calculator    ,3,9,-5,0,3,1071.549915,1071.549915,1074.04853,0,42,42,42,1,120,8,3,radio       ,calculator    ,html/resources/sequences_IDs/B/10_radio.jpg,html/resources/sequences_IDs/A/09_calculator.jpg,10,9,4,2,4,2,8,7,0,57,,,,,,,,,,,,,,,,,,,,
,,,,,57,2020-07-04_10h55.02.127,retriever_ti,2020.1.3,MacIntel,60,Chrome,1440,900,,,,,,,,,,,,,,,,,2,,,,,,,,,,,,,,,,,,,,,,,,,,,1074.662675,121,right,0.828165,scarf         ,7,6,2,1,3,1074.696975,1074.696975,1077.204805,0,43,43,43,1,121,5,7,seaturtle     ,scarf         ,html/resources/sequences_IDs/A/02_seaturtle.jpg,html/resources/sequences_IDs/A/06_scarf.jpg,2,6,2,1,3,2,2,5,0,57,,,,,,,,,,,,,,,,,,,,
,,,,,57,2020-07-04_10h55.02.127,retriever_ti,2020.1.3,MacIntel,60,Chrome,1440,900,,,,,,,,,,,,,,,,,2,,,,,,,,,,,,,,,,,,,,,,,,,,,1077.81473,122,NaN,NaN,No_response,NaN,NaN,NaN,2,2,1077.836935,1077.836935,1082.503115,0,44,44,44,1,122,2,3,giraffe     ,calculator    ,html/resources/sequences_IDs/B/03_giraffe.jpg,html/resources/sequences_IDs/A/09_calculator.jpg,3,9,1,1,4,2,3,7,0,57,,,,,,,,,,,,,,,,,,,,
,,,,,57,2020-07-04_10h55.02.127,retriever_ti,2020.1.3,MacIntel,60,Chrome,1440,900,,,,,,,,,,,,,,,,,2,,,,,,,,,,,,,,,,,,,,,,,,,,,1083.619055,123,NaN,NaN,No_response,NaN,NaN,NaN,2,2,1083.71506,1083.71506,1086.18994,0,45,45,45,1,123,7,2,scarf         ,giraffe     ,html/resources/sequences_IDs/A/06_scarf.jpg,html/resources/sequences_IDs/B/03_giraffe.jpg,6,3,3,2,1,1,5,3,0,57,,,,,,,,,,,,,,,,,,,,
,,,,,57,2020-07-04_10h55.02.127,retriever_ti,2020.1.3,MacIntel,60,Chrome,1440,900,,,,,,,,,,,,,,,,,2,,,,,,,,,,,,,,,,,,,,,,,,,,,1087.465565,124,NaN,NaN,No_response,NaN,NaN,NaN,2,2,1087.50372,1087.50372,1089.98771,0,46,46,46,1,124,6,2,redfox      ,giraffe     ,html/resources/sequences_IDs/B/01_redfox.jpg,html/resources/sequences_IDs/B/03_giraffe.jpg,1,3,1,1,1,1,1,3,0,57,,,,,,,,,,,,,,,,,,,,
,,,,,57,2020-07-04_10h55.02.127,retriever_ti,2020.1.3,MacIntel,60,Chrome,1440,900,,,,,,,,,,,,,,,,,2,,,,,,,,,,,,,,,,,,,,,,,,,,,1091.09221,125,right,0.006385,slipper     ,4,8,-1,0,0,1091.10764,1091.10764,1093.596715,0,47,47,47,1,125,5,4,seaturtle     ,slipper     ,html/resources/sequences_IDs/A/02_seaturtle.jpg,html/resources/sequences_IDs/B/08_slipper.jpg,2,8,2,1,3,2,2,6,0,57,,,,,,,,,,,,,,,,,,,,
,,,,,57,2020-07-04_10h55.02.127,retriever_ti,2020.1.3,MacIntel,60,Chrome,1440,900,,,,,,,,,,,,,,,,,2,,,,,,,,,,,,,,,,,,,,,,,,,,,1094.69687,126,NaN,NaN,No_response,NaN,NaN,NaN,2,2,1094.739335,1094.739335,1097.249915,0,48,48,48,1,126,1,3,clownfish     ,calculator    ,html/resources/sequences_IDs/A/04_clownfish.jpg,html/resources/sequences_IDs/A/09_calculator.jpg,4,9,2,1,4,2,4,7,0,57,,,,,,,,,,,,,,,,,,,,
,,,,,57,2020-07-04_10h55.02.127,retriever_ti,2020.1.3,MacIntel,60,Chrome,1440,900,,,,,,,,,,,,,,,,,2,,,,,,,,,,,,,,,,,,,,,,,,,,,1098.346575,127,NaN,NaN,No_response,NaN,NaN,NaN,2,2,1098.381565,1098.381565,1100.86716,0,49,49,49,1,127,4,1,slipper     ,clownfish     ,html/resources/sequences_IDs/B/08_slipper.jpg,html/resources/sequences_IDs/A/04_clownfish.jpg,8,4,3,2,2,1,6,4,0,57,,,,,,,,,,,,,,,,,,,,
,,,,,57,2020-07-04_10h55.02.127,retriever_ti,2020.1.3,MacIntel,60,Chrome,1440,900,,,,,,,,,,,,,,,,,2,,,,,,,,,,,,,,,,,,,,,,,,,,,1101.971705,128,left,0.00673,clownfish     ,1,4,-3,0,3,1102.021795,1102.021795,1104.523325,0,50,50,50,1,128,1,4,clownfish     ,slipper     ,html/resources/sequences_IDs/A/04_clownfish.jpg,html/resources/sequences_IDs/B/08_slipper.jpg,4,8,2,1,3,2,4,6,0,57,,,,,,,,,,,,,,,,,,,,
,,,,,57,2020-07-04_10h55.02.127,retriever_ti,2020.1.3,MacIntel,60,Chrome,1440,900,,,,,,,,,,,,,,,,,2,,,,,,,,,,,,,,,,,,,,,,,,,,,1105.43831,129,right,0.723985,giraffe     ,2,3,-1,0,0,1105.484975,1105.484975,1107.976105,0,51,51,51,1,129,3,2,calculator    ,giraffe     ,html/resources/sequences_IDs/A/09_calculator.jpg,html/resources/sequences_IDs/B/03_giraffe.jpg,9,3,4,2,1,1,7,3,0,57,,,,,,,,,,,,,,,,,,,,
,,,,,57,2020-07-04_10h55.02.127,retriever_ti,2020.1.3,MacIntel,60,Chrome,1440,900,,,,,,,,,,,,,,,,,2,,,,,,,,,,,,,,,,,,,,,,,,,,,1109.079115,130,left,0.645655,slipper     ,4,8,-1,0,1,1109.10222,1109.10222,1111.582115,0,52,52,52,1,130,4,5,slipper     ,seaturtle     ,html/resources/sequences_IDs/B/08_slipper.jpg,html/resources/sequences_IDs/A/02_seaturtle.jpg,8,2,3,2,2,1,6,2,1,57,,,,,,,,,,,,,,,,,,,,
,,,,,57,2020-07-04_10h55.02.127,retriever_ti,2020.1.3,MacIntel,60,Chrome,1440,900,,,,,,,,,,,,,,,,,2,,,,,,,,,,,,,,,,,,,,,,,,,,,1112.680895,131,left,0.677475,slipper     ,4,8,-1,0,0,1112.69858,1112.69858,1115.209695,0,53,53,53,1,131,4,5,slipper     ,seaturtle     ,html/resources/sequences_IDs/B/08_slipper.jpg,html/resources/sequences_IDs/A/02_seaturtle.jpg,8,2,3,2,2,1,6,2,0,57,,,,,,,,,,,,,,,,,,,,
,,,,,57,2020-07-04_10h55.02.127,retriever_ti,2020.1.3,MacIntel,60,Chrome,1440,900,,,,,,,,,,,,,,,,,2,,,,,,,,,,,,,,,,,,,,,,,,,,,1116.3648,132,right,0.48644,clownfish     ,1,4,-1,0,0,1116.37565,1116.37565,1118.87775,0,54,54,54,1,132,2,1,giraffe     ,clownfish     ,html/resources/sequences_IDs/B/03_giraffe.jpg,html/resources/sequences_IDs/A/04_clownfish.jpg,3,4,1,1,2,1,3,4,0,57,,,,,,,,,,,,,,,,,,,,
,,,,,57,2020-07-04_10h55.02.127,retriever_ti,2020.1.3,MacIntel,60,Chrome,1440,900,,,,,,,,,,,,,,,,,2,,,,,,,,,,,,,,,,,,,,,,,,,,,1119.97616,133,right,0.716515,calculator    ,3,9,-1,0,0,1120.00963,1120.00963,1122.508515,0,55,55,55,1,133,4,3,slipper     ,calculator    ,html/resources/sequences_IDs/B/08_slipper.jpg,html/resources/sequences_IDs/A/09_calculator.jpg,8,9,3,2,4,2,6,7,0,57,,,,,,,,,,,,,,,,,,,,
,,,,,57,2020-07-04_10h55.02.127,retriever_ti,2020.1.3,MacIntel,60,Chrome,1440,900,,,,,,,,,,,,,,,,,2,,,,,,,,,,,,,,,,,,,,,,,,,,,1123.614605,134,left,0.65493,redfox      ,6,1,-2,0,3,1123.627595,1123.627595,1126.138765,0,56,56,56,1,134,6,8,redfox      ,radio       ,html/resources/sequences_IDs/B/01_redfox.jpg,html/resources/sequences_IDs/B/10_radio.jpg,1,10,1,1,4,2,1,8,0,57,,,,,,,,,,,,,,,,,,,,
,,,,,57,2020-07-04_10h55.02.127,retriever_ti,2020.1.3,MacIntel,60,Chrome,1440,900,,,,,,,,,,,,,,,,,2,,,,,,,,,,,,,,,,,,,,,,,,,,,1126.74272,135,right,1.34218,giraffe     ,2,3,1,1,0,1126.76408,1126.76408,1129.285735,0,57,57,57,1,135,1,2,clownfish     ,giraffe     ,html/resources/sequences_IDs/A/04_clownfish.jpg,html/resources/sequences_IDs/B/03_giraffe.jpg,4,3,2,1,1,1,4,3,1,57,,,,,,,,,,,,,,,,,,,,
,,,,,57,2020-07-04_10h55.02.127,retriever_ti,2020.1.3,MacIntel,60,Chrome,1440,900,,,,,,,,,,,,,,,,,2,,,,,,,,,,,,,,,,,,,,,,,,,,,1130.3787,136,right,0.72336,calculator    ,3,9,-2,0,3,1130.41339,1130.41339,1132.9095,0,58,58,58,1,136,5,3,seaturtle     ,calculator    ,html/resources/sequences_IDs/A/02_seaturtle.jpg,html/resources/sequences_IDs/A/09_calculator.jpg,2,9,2,1,4,2,2,7,0,57,,,,,,,,,,,,,,,,,,,,
,,,,,57,2020-07-04_10h55.02.127,retriever_ti,2020.1.3,MacIntel,60,Chrome,1440,900,,,,,,,,,,,,,,,,,2,,,,,,,,,,,,,,,,,,,,,,,,,,,1133.5118,137,right,0.6984,clownfish     ,1,4,-1,0,0,1133.54575,1133.54575,1136.032975,0,59,59,59,1,137,2,1,giraffe     ,clownfish     ,html/resources/sequences_IDs/B/03_giraffe.jpg,html/resources/sequences_IDs/A/04_clownfish.jpg,3,4,1,1,2,1,3,4,0,57,,,,,,,,,,,,,,,,,,,,
,,,,,57,2020-07-04_10h55.02.127,retriever_ti,2020.1.3,MacIntel,60,Chrome,1440,900,,,,,,,,,,,,,,,,,2,,,,,,,,,,,,,,,,,,,,,,,,,,,1137.12562,138,NaN,NaN,No_response,NaN,NaN,NaN,2,2,1137.18472,1137.18472,1139.678015,0,60,60,60,1,138,6,4,redfox      ,slipper     ,html/resources/sequences_IDs/B/01_redfox.jpg,html/resources/sequences_IDs/B/08_slipper.jpg,1,8,1,1,3,2,1,6,0,57,,,,,,,,,,,,,,,,,,,,
,,,,,57,2020-07-04_10h55.02.127,retriever_ti,2020.1.3,MacIntel,60,Chrome,1440,900,,,,,,,,,,,,,,,,,2,,,,,,,,,,,,,,,,,,,,,,,,,,,1140.846235,139,right,0.682895,redfox      ,6,1,1,1,0,1140.877695,1140.877695,1143.37055,0,61,61,61,1,139,5,6,seaturtle     ,redfox      ,html/resources/sequences_IDs/A/02_seaturtle.jpg,html/resources/sequences_IDs/B/01_redfox.jpg,2,1,2,1,1,1,2,1,1,57,,,,,,,,,,,,,,,,,,,,
,,,,,57,2020-07-04_10h55.02.127,retriever_ti,2020.1.3,MacIntel,60,Chrome,1440,900,,,,,,,,,,,,,,,,,2,,,,,,,,,,,,,,,,,,,,,,,,,,,1144.46616,140,left,1.26349,clownfish     ,1,4,-1,0,0,1144.48206,1144.48206,1146.974465,0,62,62,62,1,140,1,2,clownfish     ,giraffe     ,html/resources/sequences_IDs/A/04_clownfish.jpg,html/resources/sequences_IDs/B/03_giraffe.jpg,4,3,2,1,1,1,4,3,0,57,,,,,,,,,,,,,,,,,,,,
,,,,,57,2020-07-04_10h55.02.127,retriever_ti,2020.1.3,MacIntel,60,Chrome,1440,900,,,,,,,,,,,,,,,,,2,,,,,,,,,,,,,,,,,,,,,,,,,,,1148.17892,141,right,0.848405,radio       ,8,10,7,1,3,1148.25197,1148.25197,1150.731975,0,63,63,63,1,141,1,8,clownfish     ,radio       ,html/resources/sequences_IDs/A/04_clownfish.jpg,html/resources/sequences_IDs/B/10_radio.jpg,4,10,2,1,4,2,4,8,0,57,,,,,,,,,,,,,,,,,,,,
,,,,,57,2020-07-04_10h55.02.127,retriever_ti,2020.1.3,MacIntel,60,Chrome,1440,900,,,,,,,,,,,,,,,,,2,,,,,,,,,,,,,,,,,,,,,,,,,,,1151.340455,142,right,1.25309,seaturtle     ,5,2,3,1,3,1151.38465,1151.38465,1153.87865,0,64,64,64,1,142,2,5,giraffe     ,seaturtle     ,html/resources/sequences_IDs/B/03_giraffe.jpg,html/resources/sequences_IDs/A/02_seaturtle.jpg,3,2,1,1,2,1,3,2,0,57,,,,,,,,,,,,,,,,,,,,
,,,,,57,2020-07-04_10h55.02.127,retriever_ti,2020.1.3,MacIntel,60,Chrome,1440,900,,,,,,,,,,,,,,,,,2,,,,,,,,,,,,,,,,,,,,,,,,,,,1154.5109,143,NaN,NaN,No_response,NaN,NaN,NaN,2,2,1154.55593,1154.55593,1158.791625,0,65,65,65,1,143,5,4,seaturtle     ,slipper     ,html/resources/sequences_IDs/A/02_seaturtle.jpg,html/resources/sequences_IDs/B/08_slipper.jpg,2,8,2,1,3,2,2,6,0,57,,,,,,,,,,,,,,,,,,,,
,,,,,57,2020-07-04_10h55.02.127,retriever_ti,2020.1.3,MacIntel,60,Chrome,1440,900,,,,,,,,,,,,,,,,,2,,,,,,,,,,,,,,,,,,,,,,,,,,,1161.819445,144,NaN,NaN,No_response,NaN,NaN,NaN,2,2,1162.00646,1162.00646,1164.5557,0,66,66,66,1,144,2,4,giraffe     ,slipper     ,html/resources/sequences_IDs/B/03_giraffe.jpg,html/resources/sequences_IDs/B/08_slipper.jpg,3,8,1,1,3,2,3,6,0,57,,,,,,,,,,,,,,,,,,,,
,,,,,57,2020-07-04_10h55.02.127,retriever_ti,2020.1.3,MacIntel,60,Chrome,1440,900,,,,,,,,,,,,,,,,,2,,,,,,,,,,,,,,,,,,,,,,,,,,,1165.99126,145,NaN,NaN,No_response,NaN,NaN,NaN,2,2,1166.279315,1166.279315,1169.37816,0,67,67,67,1,145,6,5,redfox      ,seaturtle     ,html/resources/sequences_IDs/B/01_redfox.jpg,html/resources/sequences_IDs/A/02_seaturtle.jpg,1,2,1,1,2,1,1,2,0,57,,,,,,,,,,,,,,,,,,,,
,,,,,57,2020-07-04_10h55.02.127,retriever_ti,2020.1.3,MacIntel,60,Chrome,1440,900,,,,,,,,,,,,,,,,,2,,,,,,,,,,,,,,,,,,,,,,,,,,,1170.49165,146,right,0.80345,slipper     ,4,8,-3,0,3,1170.55512,1170.55512,1173.044845,0,68,68,68,1,146,7,4,scarf         ,slipper     ,html/resources/sequences_IDs/A/06_scarf.jpg,html/resources/sequences_IDs/B/08_slipper.jpg,6,8,3,2,3,2,5,6,0,57,,,,,,,,,,,,,,,,,,,,
,,,,,57,2020-07-04_10h55.02.127,retriever_ti,2020.1.3,MacIntel,60,Chrome,1440,900,,,,,,,,,,,,,,,,,2,,,,,,,,,,,,,,,,,,,,,,,,,,,1173.658165,147,right,1.128085,radio       ,8,10,4,1,3,1173.695445,1173.695445,1176.19235,0,69,69,69,1,147,4,8,slipper     ,radio       ,html/resources/sequences_IDs/B/08_slipper.jpg,html/resources/sequences_IDs/B/10_radio.jpg,8,10,3,2,4,2,6,8,0,57,,,,,,,,,,,,,,,,,,,,
,,,,,57,2020-07-04_10h55.02.127,retriever_ti,2020.1.3,MacIntel,60,Chrome,1440,900,,,,,,,,,,,,,,,,,2,,,,,,,,,,,,,,,,,,,,,,,,,,,1176.81715,148,right,0.74278,slipper     ,4,8,1,1,0,1176.894265,1176.894265,1179.378645,0,70,70,70,1,148,3,4,calculator    ,slipper     ,html/resources/sequences_IDs/A/09_calculator.jpg,html/resources/sequences_IDs/B/08_slipper.jpg,9,8,4,2,3,2,7,6,1,57,,,,,,,,,,,,,,,,,,,,
,,,,,57,2020-07-04_10h55.02.127,retriever_ti,2020.1.3,MacIntel,60,Chrome,1440,900,,,,,,,,,,,,,,,,,2,,,,,,,,,,,,,,,,,,,,,,,,,,,1180.481295,149,left,0.68898,radio       ,8,10,4,1,3,1180.493645,1180.493645,1182.98697,0,71,71,71,1,149,8,4,radio       ,slipper     ,html/resources/sequences_IDs/B/10_radio.jpg,html/resources/sequences_IDs/B/08_slipper.jpg,10,8,4,2,3,2,8,6,0,57,,,,,,,,,,,,,,,,,,,,
,,,,,57,2020-07-04_10h55.02.127,retriever_ti,2020.1.3,MacIntel,60,Chrome,1440,900,,,,,,,,,,,,,,,,,2,,,,,,,,,,,,,,,,,,,,,,,,,,,1183.59709,150,right,1.38195,redfox      ,6,1,5,1,3,1183.63805,1183.63805,1186.132455,0,72,72,72,1,150,1,6,clownfish     ,redfox      ,html/resources/sequences_IDs/A/04_clownfish.jpg,html/resources/sequences_IDs/B/01_redfox.jpg,4,1,2,1,1,1,4,1,0,57,,,,,,,,,,,,,,,,,,,,
,,,,,57,2020-07-04_10h55.02.127,retriever_ti,2020.1.3,MacIntel,60,Chrome,1440,900,,,,,,,,,,,,,,,,,2,,,,,,,,,,,,,,,,,,,,,,,,,,,1186.7393,151,right,1.000395,seaturtle     ,5,2,4,1,3,1186.796675,1186.796675,1189.29165,0,73,73,73,1,151,1,5,clownfish     ,seaturtle     ,html/resources/sequences_IDs/A/04_clownfish.jpg,html/resources/sequences_IDs/A/02_seaturtle.jpg,4,2,2,1,2,1,4,2,0,57,,,,,,,,,,,,,,,,,,,,
,,,,,57,2020-07-04_10h55.02.127,retriever_ti,2020.1.3,MacIntel,60,Chrome,1440,900,,,,,,,,,,,,,,,,,2,,,,,,,,,,,,,,,,,,,,,,,,,,,1189.905805,152,left,0.630985,calculator    ,3,9,-2,0,3,1189.94213,1189.94213,1192.425295,0,74,74,74,1,152,3,5,calculator    ,seaturtle     ,html/resources/sequences_IDs/A/09_calculator.jpg,html/resources/sequences_IDs/A/02_seaturtle.jpg,9,2,4,2,2,1,7,2,0,57,,,,,,,,,,,,,,,,,,,,
,,,,,57,2020-07-04_10h55.02.127,retriever_ti,2020.1.3,MacIntel,60,Chrome,1440,900,,,,,,,,,,,,,,,,,2,,,,,,,,,,,,,,,,,,,,,,,,,,,1193.03662,153,left,0.667235,scarf         ,7,6,1,1,1,1193.07158,1193.07158,1195.566215,0,75,75,75,1,153,7,6,scarf         ,redfox      ,html/resources/sequences_IDs/A/06_scarf.jpg,html/resources/sequences_IDs/B/01_redfox.jpg,6,1,3,2,1,1,5,1,0,57,,,,,,,,,,,,,,,,,,,,
,,,,,57,2020-07-04_10h55.02.127,retriever_ti,2020.1.3,MacIntel,60,Chrome,1440,900,,,,,,,,,,,,,,,,,2,,,,,,,,,,,,,,,,,,,,,,,,,,,1196.67263,154,left,0.496625,scarf         ,7,6,4,1,3,1196.71194,1196.71194,1199.204615,0,76,76,76,1,154,7,3,scarf         ,calculator    ,html/resources/sequences_IDs/A/06_scarf.jpg,html/resources/sequences_IDs/A/09_calculator.jpg,6,9,3,2,4,2,5,7,0,57,,,,,,,,,,,,,,,,,,,,
,,,,,57,2020-07-04_10h55.02.127,retriever_ti,2020.1.3,MacIntel,60,Chrome,1440,900,,,,,,,,,,,,,,,,,,,,,,,,,,,,,,,,,,,,,0,2.916095,,,,,,,,,,,,,,,,,,,,,,,,,,,,,,,,,,,,,,,,,1,0,1,0,1,,,,,,,,,,,,,,,
,,,,,57,2020-07-04_10h55.02.127,retriever_ti,2020.1.3,MacIntel,60,Chrome,1440,900,,,,,,,,,,,,,,,,,3,,,,,,,,,,,,,,,,,,,,,,,,,,,1216.39147,155,right,0.727975,seaturtle     ,5,2,2,1,3,1216.446625,1216.446625,1218.92137,0,0,0,0,1,155,3,5,calculator    ,seaturtle     ,html/resources/sequences_IDs/A/09_calculator.jpg,html/resources/sequences_IDs/A/02_seaturtle.jpg,9,2,4,2,2,1,7,2,0,57,,,,,,,,,,,,,,,,,,,,
,,,,,57,2020-07-04_10h55.02.127,retriever_ti,2020.1.3,MacIntel,60,Chrome,1440,900,,,,,,,,,,,,,,,,,3,,,,,,,,,,,,,,,,,,,,,,,,,,,1219.543825,156,right,1.18521,clownfish     ,1,4,-1,0,0,1219.56935,1219.56935,1222.06144,0,1,1,1,1,156,2,1,giraffe     ,clownfish     ,html/resources/sequences_IDs/B/03_giraffe.jpg,html/resources/sequences_IDs/A/04_clownfish.jpg,3,4,1,1,2,1,3,4,0,57,,,,,,,,,,,,,,,,,,,,
,,,,,57,2020-07-04_10h55.02.127,retriever_ti,2020.1.3,MacIntel,60,Chrome,1440,900,,,,,,,,,,,,,,,,,3,,,,,,,,,,,,,,,,,,,,,,,,,,,1223.150755,157,left,1.596995,scarf         ,7,6,6,1,3,1223.210715,1223.210715,1225.683915,0,2,2,2,1,157,7,1,scarf         ,clownfish     ,html/resources/sequences_IDs/A/06_scarf.jpg,html/resources/sequences_IDs/A/04_clownfish.jpg,6,4,3,2,2,1,5,4,0,57,,,,,,,,,,,,,,,,,,,,
,,,,,57,2020-07-04_10h55.02.127,retriever_ti,2020.1.3,MacIntel,60,Chrome,1440,900,,,,,,,,,,,,,,,,,3,,,,,,,,,,,,,,,,,,,,,,,,,,,1226.30176,158,left,1.26897,calculator    ,3,9,-1,0,0,1226.33925,1226.33925,1228.835045,0,3,3,3,1,158,3,4,calculator    ,slipper     ,html/resources/sequences_IDs/A/09_calculator.jpg,html/resources/sequences_IDs/B/08_slipper.jpg,9,8,4,2,3,2,7,6,0,57,,,,,,,,,,,,,,,,,,,,
,,,,,57,2020-07-04_10h55.02.127,retriever_ti,2020.1.3,MacIntel,60,Chrome,1440,900,,,,,,,,,,,,,,,,,3,,,,,,,,,,,,,,,,,,,,,,,,,,,1229.944665,159,right,1.11379,giraffe     ,2,3,-1,0,0,1229.98499,1229.98499,1232.486595,0,4,4,4,1,159,3,2,calculator    ,giraffe     ,html/resources/sequences_IDs/A/09_calculator.jpg,html/resources/sequences_IDs/B/03_giraffe.jpg,9,3,4,2,1,1,7,3,0,57,,,,,,,,,,,,,,,,,,,,
,,,,,57,2020-07-04_10h55.02.127,retriever_ti,2020.1.3,MacIntel,60,Chrome,1440,900,,,,,,,,,,,,,,,,,3,,,,,,,,,,,,,,,,,,,,,,,,,,,1233.586835,160,right,1.522035,radio       ,8,10,3,1,3,1233.60627,1233.60627,1236.097225,0,5,5,5,1,160,5,8,seaturtle     ,radio       ,html/resources/sequences_IDs/A/02_seaturtle.jpg,html/resources/sequences_IDs/B/10_radio.jpg,2,10,2,1,4,2,2,8,0,57,,,,,,,,,,,,,,,,,,,,
,,,,,57,2020-07-04_10h55.02.127,retriever_ti,2020.1.3,MacIntel,60,Chrome,1440,900,,,,,,,,,,,,,,,,,3,,,,,,,,,,,,,,,,,,,,,,,,,,,1236.70143,161,right,1.03065,scarf         ,7,6,2,1,3,1236.72225,1236.72225,1239.21625,0,6,6,6,1,161,5,7,seaturtle     ,scarf         ,html/resources/sequences_IDs/A/02_seaturtle.jpg,html/resources/sequences_IDs/A/06_scarf.jpg,2,6,2,1,3,2,2,5,0,57,,,,,,,,,,,,,,,,,,,,
,,,,,57,2020-07-04_10h55.02.127,retriever_ti,2020.1.3,MacIntel,60,Chrome,1440,900,,,,,,,,,,,,,,,,,3,,,,,,,,,,,,,,,,,,,,,,,,,,,1239.822935,162,left,1.18252,scarf         ,7,6,4,1,3,1239.835875,1239.835875,1242.338365,0,7,7,7,1,162,7,3,scarf         ,calculator    ,html/resources/sequences_IDs/A/06_scarf.jpg,html/resources/sequences_IDs/A/09_calculator.jpg,6,9,3,2,4,2,5,7,0,57,,,,,,,,,,,,,,,,,,,,
,,,,,57,2020-07-04_10h55.02.127,retriever_ti,2020.1.3,MacIntel,60,Chrome,1440,900,,,,,,,,,,,,,,,,,3,,,,,,,,,,,,,,,,,,,,,,,,,,,1242.95328,163,left,0.993485,scarf         ,7,6,-1,0,0,1242.969175,1242.969175,1245.46819,0,8,8,8,1,163,7,8,scarf         ,radio       ,html/resources/sequences_IDs/A/06_scarf.jpg,html/resources/sequences_IDs/B/10_radio.jpg,6,10,3,2,4,2,5,8,0,57,,,,,,,,,,,,,,,,,,,,
,,,,,57,2020-07-04_10h55.02.127,retriever_ti,2020.1.3,MacIntel,60,Chrome,1440,900,,,,,,,,,,,,,,,,,3,,,,,,,,,,,,,,,,,,,,,,,,,,,1246.570505,164,right,0.759145,slipper     ,4,8,-1,0,0,1246.60461,1246.60461,1249.088235,0,9,9,9,1,164,5,4,seaturtle     ,slipper     ,html/resources/sequences_IDs/A/02_seaturtle.jpg,html/resources/sequences_IDs/B/08_slipper.jpg,2,8,2,1,3,2,2,6,0,57,,,,,,,,,,,,,,,,,,,,
,,,,,57,2020-07-04_10h55.02.127,retriever_ti,2020.1.3,MacIntel,60,Chrome,1440,900,,,,,,,,,,,,,,,,,3,,,,,,,,,,,,,,,,,,,,,,,,,,,1250.19421,165,right,0.78179,redfox      ,6,1,3,1,3,1250.211175,1250.211175,1252.695475,0,10,10,10,1,165,3,6,calculator    ,redfox      ,html/resources/sequences_IDs/A/09_calculator.jpg,html/resources/sequences_IDs/B/01_redfox.jpg,9,1,4,2,1,1,7,1,0,57,,,,,,,,,,,,,,,,,,,,
,,,,,57,2020-07-04_10h55.02.127,retriever_ti,2020.1.3,MacIntel,60,Chrome,1440,900,,,,,,,,,,,,,,,,,3,,,,,,,,,,,,,,,,,,,,,,,,,,,1253.320525,166,right,0.878895,slipper     ,4,8,-1,0,0,1253.36461,1253.36461,1255.87624,0,11,11,11,1,166,5,4,seaturtle     ,slipper     ,html/resources/sequences_IDs/A/02_seaturtle.jpg,html/resources/sequences_IDs/B/08_slipper.jpg,2,8,2,1,3,2,2,6,0,57,,,,,,,,,,,,,,,,,,,,
,,,,,57,2020-07-04_10h55.02.127,retriever_ti,2020.1.3,MacIntel,60,Chrome,1440,900,,,,,,,,,,,,,,,,,3,,,,,,,,,,,,,,,,,,,,,,,,,,,1256.98799,167,left,1.325025,giraffe     ,2,3,-1,0,0,1257.01989,1257.01989,1259.50096,0,12,12,12,1,167,2,3,giraffe     ,calculator    ,html/resources/sequences_IDs/B/03_giraffe.jpg,html/resources/sequences_IDs/A/09_calculator.jpg,3,9,1,1,4,2,3,7,0,57,,,,,,,,,,,,,,,,,,,,
,,,,,57,2020-07-04_10h55.02.127,retriever_ti,2020.1.3,MacIntel,60,Chrome,1440,900,,,,,,,,,,,,,,,,,3,,,,,,,,,,,,,,,,,,,,,,,,,,,1260.60747,168,left,1.50915,seaturtle     ,5,2,2,1,3,1260.64,1260.64,1263.13438,0,13,13,13,1,168,5,3,seaturtle     ,calculator    ,html/resources/sequences_IDs/A/02_seaturtle.jpg,html/resources/sequences_IDs/A/09_calculator.jpg,2,9,2,1,4,2,2,7,0,57,,,,,,,,,,,,,,,,,,,,
,,,,,57,2020-07-04_10h55.02.127,retriever_ti,2020.1.3,MacIntel,60,Chrome,1440,900,,,,,,,,,,,,,,,,,3,,,,,,,,,,,,,,,,,,,,,,,,,,,1263.756395,169,right,0.744065,slipper     ,4,8,-2,0,3,1263.79083,1263.79083,1266.291655,0,14,14,14,1,169,6,4,redfox      ,slipper     ,html/resources/sequences_IDs/B/01_redfox.jpg,html/resources/sequences_IDs/B/08_slipper.jpg,1,8,1,1,3,2,1,6,0,57,,,,,,,,,,,,,,,,,,,,
,,,,,57,2020-07-04_10h55.02.127,retriever_ti,2020.1.3,MacIntel,60,Chrome,1440,900,,,,,,,,,,,,,,,,,3,,,,,,,,,,,,,,,,,,,,,,,,,,,1266.91806,170,right,0.986375,scarf         ,7,6,-1,0,0,1266.98856,1266.98856,1269.486315,0,15,15,15,1,170,8,7,radio       ,scarf         ,html/resources/sequences_IDs/B/10_radio.jpg,html/resources/sequences_IDs/A/06_scarf.jpg,10,6,4,2,3,2,8,5,0,57,,,,,,,,,,,,,,,,,,,,
,,,,,57,2020-07-04_10h55.02.127,retriever_ti,2020.1.3,MacIntel,60,Chrome,1440,900,,,,,,,,,,,,,,,,,3,,,,,,,,,,,,,,,,,,,,,,,,,,,1270.605045,171,left,0.77818,slipper     ,4,8,-3,0,3,1270.628075,1270.628075,1273.126385,0,16,16,16,1,171,4,7,slipper     ,scarf         ,html/resources/sequences_IDs/B/08_slipper.jpg,html/resources/sequences_IDs/A/06_scarf.jpg,8,6,3,2,3,2,6,5,0,57,,,,,,,,,,,,,,,,,,,,
,,,,,57,2020-07-04_10h55.02.127,retriever_ti,2020.1.3,MacIntel,60,Chrome,1440,900,,,,,,,,,,,,,,,,,3,,,,,,,,,,,,,,,,,,,,,,,,,,,1273.736045,172,left,1.576265,calculator    ,3,9,-4,0,3,1273.840695,1273.840695,1276.337525,0,17,17,17,1,172,3,7,calculator    ,scarf         ,html/resources/sequences_IDs/A/09_calculator.jpg,html/resources/sequences_IDs/A/06_scarf.jpg,9,6,4,2,3,2,7,5,0,57,,,,,,,,,,,,,,,,,,,,
,,,,,57,2020-07-04_10h55.02.127,retriever_ti,2020.1.3,MacIntel,60,Chrome,1440,900,,,,,,,,,,,,,,,,,3,,,,,,,,,,,,,,,,,,,,,,,,,,,1276.960175,173,left,0.998575,radio       ,8,10,1,1,0,1276.973355,1276.973355,1279.46043,0,18,18,18,1,173,8,7,radio       ,scarf         ,html/resources/sequences_IDs/B/10_radio.jpg,html/resources/sequences_IDs/A/06_scarf.jpg,10,6,4,2,3,2,8,5,1,57,,,,,,,,,,,,,,,,,,,,
,,,,,57,2020-07-04_10h55.02.127,retriever_ti,2020.1.3,MacIntel,60,Chrome,1440,900,,,,,,,,,,,,,,,,,3,,,,,,,,,,,,,,,,,,,,,,,,,,,1280.56298,174,right,0.574545,redfox      ,6,1,-2,0,3,1280.5801,1280.5801,1283.0924,0,19,19,19,1,174,8,6,radio       ,redfox      ,html/resources/sequences_IDs/B/10_radio.jpg,html/resources/sequences_IDs/B/01_redfox.jpg,10,1,4,2,1,1,8,1,0,57,,,,,,,,,,,,,,,,,,,,
,,,,,57,2020-07-04_10h55.02.127,retriever_ti,2020.1.3,MacIntel,60,Chrome,1440,900,,,,,,,,,,,,,,,,,3,,,,,,,,,,,,,,,,,,,,,,,,,,,1283.703515,175,right,1.09457,clownfish     ,1,4,-7,0,3,1283.7369,1283.7369,1286.220925,0,20,20,20,1,175,8,1,radio       ,clownfish     ,html/resources/sequences_IDs/B/10_radio.jpg,html/resources/sequences_IDs/A/04_clownfish.jpg,10,4,4,2,2,1,8,4,0,57,,,,,,,,,,,,,,,,,,,,
,,,,,57,2020-07-04_10h55.02.127,retriever_ti,2020.1.3,MacIntel,60,Chrome,1440,900,,,,,,,,,,,,,,,,,3,,,,,,,,,,,,,,,,,,,,,,,,,,,1286.833885,176,left,0.7023,scarf         ,7,6,1,1,1,1286.857375,1286.857375,1289.36585,0,21,21,21,1,176,7,6,scarf         ,redfox      ,html/resources/sequences_IDs/A/06_scarf.jpg,html/resources/sequences_IDs/B/01_redfox.jpg,6,1,3,2,1,1,5,1,0,57,,,,,,,,,,,,,,,,,,,,
,,,,,57,2020-07-04_10h55.02.127,retriever_ti,2020.1.3,MacIntel,60,Chrome,1440,900,,,,,,,,,,,,,,,,,3,,,,,,,,,,,,,,,,,,,,,,,,,,,1290.47153,177,left,0.69327,scarf         ,7,6,1,1,0,1290.48901,1290.48901,1292.9872,0,22,22,22,1,177,7,6,scarf         ,redfox      ,html/resources/sequences_IDs/A/06_scarf.jpg,html/resources/sequences_IDs/B/01_redfox.jpg,6,1,3,2,1,1,5,1,1,57,,,,,,,,,,,,,,,,,,,,
,,,,,57,2020-07-04_10h55.02.127,retriever_ti,2020.1.3,MacIntel,60,Chrome,1440,900,,,,,,,,,,,,,,,,,3,,,,,,,,,,,,,,,,,,,,,,,,,,,1294.086185,178,left,1.47346,slipper     ,4,8,2,1,3,1294.11745,1294.11745,1297.73394,0,23,23,23,1,178,4,2,slipper     ,giraffe     ,html/resources/sequences_IDs/B/08_slipper.jpg,html/resources/sequences_IDs/B/03_giraffe.jpg,8,3,3,2,1,1,6,3,0,57,,,,,,,,,,,,,,,,,,,,
,,,,,57,2020-07-04_10h55.02.127,retriever_ti,2020.1.3,MacIntel,60,Chrome,1440,900,,,,,,,,,,,,,,,,,3,,,,,,,,,,,,,,,,,,,,,,,,,,,1298.37346,179,left,1.162585,seaturtle     ,5,2,-1,0,0,1298.38811,1298.38811,1300.87469,0,24,24,24,1,179,5,6,seaturtle     ,redfox      ,html/resources/sequences_IDs/A/02_seaturtle.jpg,html/resources/sequences_IDs/B/01_redfox.jpg,2,1,2,1,1,1,2,1,0,57,,,,,,,,,,,,,,,,,,,,
,,,,,57,2020-07-04_10h55.02.127,retriever_ti,2020.1.3,MacIntel,60,Chrome,1440,900,,,,,,,,,,,,,,,,,3,,,,,,,,,,,,,,,,,,,,,,,,,,,1301.96587,180,left,1.166135,calculator    ,3,9,-5,0,3,1302.002545,1302.002545,1304.499105,0,25,25,25,1,180,3,8,calculator    ,radio       ,html/resources/sequences_IDs/A/09_calculator.jpg,html/resources/sequences_IDs/B/10_radio.jpg,9,10,4,2,4,2,7,8,0,57,,,,,,,,,,,,,,,,,,,,
,,,,,57,2020-07-04_10h55.02.127,retriever_ti,2020.1.3,MacIntel,60,Chrome,1440,900,,,,,,,,,,,,,,,,,3,,,,,,,,,,,,,,,,,,,,,,,,,,,1305.11609,181,left,0.90349,redfox      ,6,1,1,1,1,1305.16144,1305.16144,1307.632185,0,26,26,26,1,181,6,5,redfox      ,seaturtle     ,html/resources/sequences_IDs/B/01_redfox.jpg,html/resources/sequences_IDs/A/02_seaturtle.jpg,1,2,1,1,2,1,1,2,0,57,,,,,,,,,,,,,,,,,,,,
,,,,,57,2020-07-04_10h55.02.127,retriever_ti,2020.1.3,MacIntel,60,Chrome,1440,900,,,,,,,,,,,,,,,,,3,,,,,,,,,,,,,,,,,,,,,,,,,,,1308.72973,182,right,0.971495,giraffe     ,2,3,1,1,1,1308.74988,1308.74988,1311.25408,0,27,27,27,1,182,1,2,clownfish     ,giraffe     ,html/resources/sequences_IDs/A/04_clownfish.jpg,html/resources/sequences_IDs/B/03_giraffe.jpg,4,3,2,1,1,1,4,3,0,57,,,,,,,,,,,,,,,,,,,,
,,,,,57,2020-07-04_10h55.02.127,retriever_ti,2020.1.3,MacIntel,60,Chrome,1440,900,,,,,,,,,,,,,,,,,3,,,,,,,,,,,,,,,,,,,,,,,,,,,1312.35212,183,right,0.82064,calculator    ,3,9,-5,0,3,1312.37147,1312.37147,1314.862725,0,28,28,28,1,183,8,3,radio       ,calculator    ,html/resources/sequences_IDs/B/10_radio.jpg,html/resources/sequences_IDs/A/09_calculator.jpg,10,9,4,2,4,2,8,7,0,57,,,,,,,,,,,,,,,,,,,,
,,,,,57,2020-07-04_10h55.02.127,retriever_ti,2020.1.3,MacIntel,60,Chrome,1440,900,,,,,,,,,,,,,,,,,3,,,,,,,,,,,,,,,,,,,,,,,,,,,1315.478625,184,right,1.272525,seaturtle     ,5,2,1,1,1,1315.52753,1315.52753,1318.012525,0,29,29,29,1,184,4,5,slipper     ,seaturtle     ,html/resources/sequences_IDs/B/08_slipper.jpg,html/resources/sequences_IDs/A/02_seaturtle.jpg,8,2,3,2,2,1,6,2,0,57,,,,,,,,,,,,,,,,,,,,
,,,,,57,2020-07-04_10h55.02.127,retriever_ti,2020.1.3,MacIntel,60,Chrome,1440,900,,,,,,,,,,,,,,,,,3,,,,,,,,,,,,,,,,,,,,,,,,,,,1319.102135,185,left,1.057915,slipper     ,4,8,1,1,1,1319.13644,1319.13644,1321.630575,0,30,30,30,1,185,4,3,slipper     ,calculator    ,html/resources/sequences_IDs/B/08_slipper.jpg,html/resources/sequences_IDs/A/09_calculator.jpg,8,9,3,2,4,2,6,7,0,57,,,,,,,,,,,,,,,,,,,,
,,,,,57,2020-07-04_10h55.02.127,retriever_ti,2020.1.3,MacIntel,60,Chrome,1440,900,,,,,,,,,,,,,,,,,3,,,,,,,,,,,,,,,,,,,,,,,,,,,1322.747925,186,left,1.177695,calculator    ,3,9,1,1,0,1322.780775,1322.780775,1325.28574,0,31,31,31,1,186,3,2,calculator    ,giraffe     ,html/resources/sequences_IDs/A/09_calculator.jpg,html/resources/sequences_IDs/B/03_giraffe.jpg,9,3,4,2,1,1,7,3,1,57,,,,,,,,,,,,,,,,,,,,
,,,,,57,2020-07-04_10h55.02.127,retriever_ti,2020.1.3,MacIntel,60,Chrome,1440,900,,,,,,,,,,,,,,,,,3,,,,,,,,,,,,,,,,,,,,,,,,,,,1326.380065,187,right,0.929635,redfox      ,6,1,2,1,3,1326.413635,1326.413635,1328.914045,0,32,32,32,1,187,4,6,slipper     ,redfox      ,html/resources/sequences_IDs/B/08_slipper.jpg,html/resources/sequences_IDs/B/01_redfox.jpg,8,1,3,2,1,1,6,1,0,57,,,,,,,,,,,,,,,,,,,,
,,,,,57,2020-07-04_10h55.02.127,retriever_ti,2020.1.3,MacIntel,60,Chrome,1440,900,,,,,,,,,,,,,,,,,3,,,,,,,,,,,,,,,,,,,,,,,,,,,1329.529275,188,right,0.87683,seaturtle     ,5,2,4,1,3,1329.574615,1329.574615,1332.064845,0,33,33,33,1,188,1,5,clownfish     ,seaturtle     ,html/resources/sequences_IDs/A/04_clownfish.jpg,html/resources/sequences_IDs/A/02_seaturtle.jpg,4,2,2,1,2,1,4,2,0,57,,,,,,,,,,,,,,,,,,,,
,,,,,57,2020-07-04_10h55.02.127,retriever_ti,2020.1.3,MacIntel,60,Chrome,1440,900,,,,,,,,,,,,,,,,,3,,,,,,,,,,,,,,,,,,,,,,,,,,,1332.68014,189,right,0.868045,redfox      ,6,1,5,1,3,1332.698405,1332.698405,1335.19652,0,34,34,34,1,189,1,6,clownfish     ,redfox      ,html/resources/sequences_IDs/A/04_clownfish.jpg,html/resources/sequences_IDs/B/01_redfox.jpg,4,1,2,1,1,1,4,1,0,57,,,,,,,,,,,,,,,,,,,,
,,,,,57,2020-07-04_10h55.02.127,retriever_ti,2020.1.3,MacIntel,60,Chrome,1440,900,,,,,,,,,,,,,,,,,3,,,,,,,,,,,,,,,,,,,,,,,,,,,1335.81294,190,right,1.02499,clownfish     ,1,4,-5,0,3,1335.846845,1335.846845,1338.34787,0,35,35,35,1,190,6,1,redfox      ,clownfish     ,html/resources/sequences_IDs/B/01_redfox.jpg,html/resources/sequences_IDs/A/04_clownfish.jpg,1,4,1,1,2,1,1,4,0,57,,,,,,,,,,,,,,,,,,,,
,,,,,57,2020-07-04_10h55.02.127,retriever_ti,2020.1.3,MacIntel,60,Chrome,1440,900,,,,,,,,,,,,,,,,,3,,,,,,,,,,,,,,,,,,,,,,,,,,,1338.96475,191,right,1.355335,slipper     ,4,8,-4,0,3,1338.98101,1338.98101,1341.478885,0,36,36,36,1,191,8,4,radio       ,slipper     ,html/resources/sequences_IDs/B/10_radio.jpg,html/resources/sequences_IDs/B/08_slipper.jpg,10,8,4,2,3,2,8,6,0,57,,,,,,,,,,,,,,,,,,,,
,,,,,57,2020-07-04_10h55.02.127,retriever_ti,2020.1.3,MacIntel,60,Chrome,1440,900,,,,,,,,,,,,,,,,,3,,,,,,,,,,,,,,,,,,,,,,,,,,,1342.08239,192,left,0.911955,giraffe     ,2,3,-1,0,0,1342.130205,1342.130205,1344.630215,0,37,37,37,1,192,2,3,giraffe     ,calculator    ,html/resources/sequences_IDs/B/03_giraffe.jpg,html/resources/sequences_IDs/A/09_calculator.jpg,3,9,1,1,4,2,3,7,0,57,,,,,,,,,,,,,,,,,,,,
,,,,,57,2020-07-04_10h55.02.127,retriever_ti,2020.1.3,MacIntel,60,Chrome,1440,900,,,,,,,,,,,,,,,,,3,,,,,,,,,,,,,,,,,,,,,,,,,,,1345.733625,193,right,1.004475,radio       ,8,10,1,1,1,1345.752235,1345.752235,1348.23644,0,38,38,38,1,193,7,8,scarf         ,radio       ,html/resources/sequences_IDs/A/06_scarf.jpg,html/resources/sequences_IDs/B/10_radio.jpg,6,10,3,2,4,2,5,8,0,57,,,,,,,,,,,,,,,,,,,,
,,,,,57,2020-07-04_10h55.02.127,retriever_ti,2020.1.3,MacIntel,60,Chrome,1440,900,,,,,,,,,,,,,,,,,3,,,,,,,,,,,,,,,,,,,,,,,,,,,1349.33952,194,left,1.237055,calculator    ,3,9,-1,0,1,1349.36015,1349.36015,1351.8611,0,39,39,39,1,194,3,4,calculator    ,slipper     ,html/resources/sequences_IDs/A/09_calculator.jpg,html/resources/sequences_IDs/B/08_slipper.jpg,9,8,4,2,3,2,7,6,1,57,,,,,,,,,,,,,,,,,,,,
,,,,,57,2020-07-04_10h55.02.127,retriever_ti,2020.1.3,MacIntel,60,Chrome,1440,900,,,,,,,,,,,,,,,,,3,,,,,,,,,,,,,,,,,,,,,,,,,,,1352.96519,195,left,1.053715,giraffe     ,2,3,-3,0,3,1353.006045,1353.006045,1355.492445,0,40,40,40,1,195,2,5,giraffe     ,seaturtle     ,html/resources/sequences_IDs/B/03_giraffe.jpg,html/resources/sequences_IDs/A/02_seaturtle.jpg,3,2,1,1,2,1,3,2,0,57,,,,,,,,,,,,,,,,,,,,
,,,,,57,2020-07-04_10h55.02.127,retriever_ti,2020.1.3,MacIntel,60,Chrome,1440,900,,,,,,,,,,,,,,,,,3,,,,,,,,,,,,,,,,,,,,,,,,,,,1356.09561,196,right,0.98083,slipper     ,4,8,2,1,3,1356.203265,1356.203265,1358.69684,0,41,41,41,1,196,2,4,giraffe     ,slipper     ,html/resources/sequences_IDs/B/03_giraffe.jpg,html/resources/sequences_IDs/B/08_slipper.jpg,3,8,1,1,3,2,3,6,0,57,,,,,,,,,,,,,,,,,,,,
,,,,,57,2020-07-04_10h55.02.127,retriever_ti,2020.1.3,MacIntel,60,Chrome,1440,900,,,,,,,,,,,,,,,,,3,,,,,,,,,,,,,,,,,,,,,,,,,,,1359.313575,197,right,0.90267,radio       ,8,10,7,1,3,1359.351215,1359.351215,1361.86935,0,42,42,42,1,197,1,8,clownfish     ,radio       ,html/resources/sequences_IDs/A/04_clownfish.jpg,html/resources/sequences_IDs/B/10_radio.jpg,4,10,2,1,4,2,4,8,0,57,,,,,,,,,,,,,,,,,,,,
,,,,,57,2020-07-04_10h55.02.127,retriever_ti,2020.1.3,MacIntel,60,Chrome,1440,900,,,,,,,,,,,,,,,,,3,,,,,,,,,,,,,,,,,,,,,,,,,,,1362.52141,198,right,0.87815,radio       ,8,10,4,1,3,1362.534755,1362.534755,1365.05671,0,43,43,43,1,198,4,8,slipper     ,radio       ,html/resources/sequences_IDs/B/08_slipper.jpg,html/resources/sequences_IDs/B/10_radio.jpg,8,10,3,2,4,2,6,8,0,57,,,,,,,,,,,,,,,,,,,,
,,,,,57,2020-07-04_10h55.02.127,retriever_ti,2020.1.3,MacIntel,60,Chrome,1440,900,,,,,,,,,,,,,,,,,3,,,,,,,,,,,,,,,,,,,,,,,,,,,1365.66524,199,left,0.816065,calculator    ,3,9,2,1,3,1365.67956,1365.67956,1368.180715,0,44,44,44,1,199,3,1,calculator    ,clownfish     ,html/resources/sequences_IDs/A/09_calculator.jpg,html/resources/sequences_IDs/A/04_clownfish.jpg,9,4,4,2,2,1,7,4,0,57,,,,,,,,,,,,,,,,,,,,
,,,,,57,2020-07-04_10h55.02.127,retriever_ti,2020.1.3,MacIntel,60,Chrome,1440,900,,,,,,,,,,,,,,,,,3,,,,,,,,,,,,,,,,,,,,,,,,,,,1368.7958,200,right,1.18453,scarf         ,7,6,5,1,3,1368.832765,1368.832765,1371.332125,0,45,45,45,1,200,2,7,giraffe     ,scarf         ,html/resources/sequences_IDs/B/03_giraffe.jpg,html/resources/sequences_IDs/A/06_scarf.jpg,3,6,1,1,3,2,3,5,0,57,,,,,,,,,,,,,,,,,,,,
,,,,,57,2020-07-04_10h55.02.127,retriever_ti,2020.1.3,MacIntel,60,Chrome,1440,900,,,,,,,,,,,,,,,,,3,,,,,,,,,,,,,,,,,,,,,,,,,,,1371.948275,201,left,0.916395,scarf         ,7,6,3,1,3,1371.9618,1371.9618,1374.46189,0,46,46,46,1,201,7,4,scarf         ,slipper     ,html/resources/sequences_IDs/A/06_scarf.jpg,html/resources/sequences_IDs/B/08_slipper.jpg,6,8,3,2,3,2,5,6,0,57,,,,,,,,,,,,,,,,,,,,
,,,,,57,2020-07-04_10h55.02.127,retriever_ti,2020.1.3,MacIntel,60,Chrome,1440,900,,,,,,,,,,,,,,,,,3,,,,,,,,,,,,,,,,,,,,,,,,,,,1375.0859,202,left,0.911855,seaturtle     ,5,2,3,1,3,1375.113535,1375.113535,1377.61348,0,47,47,47,1,202,5,2,seaturtle     ,giraffe     ,html/resources/sequences_IDs/A/02_seaturtle.jpg,html/resources/sequences_IDs/B/03_giraffe.jpg,2,3,2,1,1,1,2,3,0,57,,,,,,,,,,,,,,,,,,,,
,,,,,57,2020-07-04_10h55.02.127,retriever_ti,2020.1.3,MacIntel,60,Chrome,1440,900,,,,,,,,,,,,,,,,,3,,,,,,,,,,,,,,,,,,,,,,,,,,,1378.22923,203,left,0.973155,redfox      ,6,1,-1,0,0,1378.281445,1378.281445,1380.7805,0,48,48,48,1,203,6,7,redfox      ,scarf         ,html/resources/sequences_IDs/B/01_redfox.jpg,html/resources/sequences_IDs/A/06_scarf.jpg,1,6,1,1,3,2,1,5,0,57,,,,,,,,,,,,,,,,,,,,
,,,,,57,2020-07-04_10h55.02.127,retriever_ti,2020.1.3,MacIntel,60,Chrome,1440,900,,,,,,,,,,,,,,,,,3,,,,,,,,,,,,,,,,,,,,,,,,,,,1381.88155,204,right,0.73316,radio       ,8,10,2,1,3,1381.925875,1381.925875,1384.41253,0,49,49,49,1,204,6,8,redfox      ,radio       ,html/resources/sequences_IDs/B/01_redfox.jpg,html/resources/sequences_IDs/B/10_radio.jpg,1,10,1,1,4,2,1,8,0,57,,,,,,,,,,,,,,,,,,,,
,,,,,57,2020-07-04_10h55.02.127,retriever_ti,2020.1.3,MacIntel,60,Chrome,1440,900,,,,,,,,,,,,,,,,,3,,,,,,,,,,,,,,,,,,,,,,,,,,,1385.018905,205,left,0.8885,scarf         ,7,6,2,1,3,1385.02956,1385.02956,1387.532065,0,50,50,50,1,205,7,5,scarf         ,seaturtle     ,html/resources/sequences_IDs/A/06_scarf.jpg,html/resources/sequences_IDs/A/02_seaturtle.jpg,6,2,3,2,2,1,5,2,0,57,,,,,,,,,,,,,,,,,,,,
,,,,,57,2020-07-04_10h55.02.127,retriever_ti,2020.1.3,MacIntel,60,Chrome,1440,900,,,,,,,,,,,,,,,,,3,,,,,,,,,,,,,,,,,,,,,,,,,,,1388.145765,206,left,0.778655,clownfish     ,1,4,-1,0,0,1388.17933,1388.17933,1390.681735,0,51,51,51,1,206,1,2,clownfish     ,giraffe     ,html/resources/sequences_IDs/A/04_clownfish.jpg,html/resources/sequences_IDs/B/03_giraffe.jpg,4,3,2,1,1,1,4,3,0,57,,,,,,,,,,,,,,,,,,,,
,,,,,57,2020-07-04_10h55.02.127,retriever_ti,2020.1.3,MacIntel,60,Chrome,1440,900,,,,,,,,,,,,,,,,,3,,,,,,,,,,,,,,,,,,,,,,,,,,,1391.780135,207,right,0.480445,giraffe     ,2,3,1,1,0,1391.79656,1391.79656,1394.28317,0,52,52,52,1,207,1,2,clownfish     ,giraffe     ,html/resources/sequences_IDs/A/04_clownfish.jpg,html/resources/sequences_IDs/B/03_giraffe.jpg,4,3,2,1,1,1,4,3,1,57,,,,,,,,,,,,,,,,,,,,
,,,,,57,2020-07-04_10h55.02.127,retriever_ti,2020.1.3,MacIntel,60,Chrome,1440,900,,,,,,,,,,,,,,,,,3,,,,,,,,,,,,,,,,,,,,,,,,,,,1395.380365,208,right,0.79885,calculator    ,3,9,-1,0,0,1395.39874,1395.39874,1397.8966,0,53,53,53,1,208,4,3,slipper     ,calculator    ,html/resources/sequences_IDs/B/08_slipper.jpg,html/resources/sequences_IDs/A/09_calculator.jpg,8,9,3,2,4,2,6,7,0,57,,,,,,,,,,,,,,,,,,,,
,,,,,57,2020-07-04_10h55.02.127,retriever_ti,2020.1.3,MacIntel,60,Chrome,1440,900,,,,,,,,,,,,,,,,,3,,,,,,,,,,,,,,,,,,,,,,,,,,,1398.998295,209,left,0.68485,radio       ,8,10,1,1,1,1399.014245,1399.014245,1401.5153,0,54,54,54,1,209,8,7,radio       ,scarf         ,html/resources/sequences_IDs/B/10_radio.jpg,html/resources/sequences_IDs/A/06_scarf.jpg,10,6,4,2,3,2,8,5,0,57,,,,,,,,,,,,,,,,,,,,
,,,,,57,2020-07-04_10h55.02.127,retriever_ti,2020.1.3,MacIntel,60,Chrome,1440,900,,,,,,,,,,,,,,,,,3,,,,,,,,,,,,,,,,,,,,,,,,,,,1402.61562,210,left,0.62055,clownfish     ,1,4,-6,0,3,1402.628385,1402.628385,1405.127815,0,55,55,55,1,210,1,7,clownfish     ,scarf         ,html/resources/sequences_IDs/A/04_clownfish.jpg,html/resources/sequences_IDs/A/06_scarf.jpg,4,6,2,1,3,2,4,5,0,57,,,,,,,,,,,,,,,,,,,,
,,,,,57,2020-07-04_10h55.02.127,retriever_ti,2020.1.3,MacIntel,60,Chrome,1440,900,,,,,,,,,,,,,,,,,3,,,,,,,,,,,,,,,,,,,,,,,,,,,1405.73184,211,left,0.963135,giraffe     ,2,3,-6,0,3,1405.75362,1405.75362,1408.244565,0,56,56,56,1,211,2,8,giraffe     ,radio       ,html/resources/sequences_IDs/B/03_giraffe.jpg,html/resources/sequences_IDs/B/10_radio.jpg,3,10,1,1,4,2,3,8,0,57,,,,,,,,,,,,,,,,,,,,
,,,,,57,2020-07-04_10h55.02.127,retriever_ti,2020.1.3,MacIntel,60,Chrome,1440,900,,,,,,,,,,,,,,,,,3,,,,,,,,,,,,,,,,,,,,,,,,,,,1408.84631,212,left,0.474435,giraffe     ,2,3,1,1,1,1408.869,1408.869,1411.361245,0,57,57,57,1,212,2,1,giraffe     ,clownfish     ,html/resources/sequences_IDs/B/03_giraffe.jpg,html/resources/sequences_IDs/A/04_clownfish.jpg,3,4,1,1,2,1,3,4,0,57,,,,,,,,,,,,,,,,,,,,
,,,,,57,2020-07-04_10h55.02.127,retriever_ti,2020.1.3,MacIntel,60,Chrome,1440,900,,,,,,,,,,,,,,,,,3,,,,,,,,,,,,,,,,,,,,,,,,,,,1412.462115,213,right,0.36792,slipper     ,4,8,1,1,1,1412.49807,1412.49807,1414.98994,0,58,58,58,1,213,3,4,calculator    ,slipper     ,html/resources/sequences_IDs/A/09_calculator.jpg,html/resources/sequences_IDs/B/08_slipper.jpg,9,8,4,2,3,2,7,6,0,57,,,,,,,,,,,,,,,,,,,,
,,,,,57,2020-07-04_10h55.02.127,retriever_ti,2020.1.3,MacIntel,60,Chrome,1440,900,,,,,,,,,,,,,,,,,3,,,,,,,,,,,,,,,,,,,,,,,,,,,1416.08005,214,left,0.18013,scarf         ,7,6,1,1,1,1416.10075,1416.10075,1418.596225,0,59,59,59,1,214,7,6,scarf         ,redfox      ,html/resources/sequences_IDs/A/06_scarf.jpg,html/resources/sequences_IDs/B/01_redfox.jpg,6,1,3,2,1,1,5,1,0,57,,,,,,,,,,,,,,,,,,,,
,,,,,57,2020-07-04_10h55.02.127,retriever_ti,2020.1.3,MacIntel,60,Chrome,1440,900,,,,,,,,,,,,,,,,,3,,,,,,,,,,,,,,,,,,,,,,,,,,,1419.69547,215,right,0.155365,slipper     ,4,8,3,1,3,1419.7299,1419.7299,1422.23032,0,60,60,60,1,215,1,4,clownfish     ,slipper     ,html/resources/sequences_IDs/A/04_clownfish.jpg,html/resources/sequences_IDs/B/08_slipper.jpg,4,8,2,1,3,2,4,6,0,57,,,,,,,,,,,,,,,,,,,,
,,,,,57,2020-07-04_10h55.02.127,retriever_ti,2020.1.3,MacIntel,60,Chrome,1440,900,,,,,,,,,,,,,,,,,3,,,,,,,,,,,,,,,,,,,,,,,,,,,1422.843685,216,right,0.49816,giraffe     ,2,3,-1,0,0,1422.883585,1422.883585,1425.377715,0,61,61,61,1,216,3,2,calculator    ,giraffe     ,html/resources/sequences_IDs/A/09_calculator.jpg,html/resources/sequences_IDs/B/03_giraffe.jpg,9,3,4,2,1,1,7,3,0,57,,,,,,,,,,,,,,,,,,,,
,,,,,57,2020-07-04_10h55.02.127,retriever_ti,2020.1.3,MacIntel,60,Chrome,1440,900,,,,,,,,,,,,,,,,,3,,,,,,,,,,,,,,,,,,,,,,,,,,,1426.469885,217,left,0.264715,redfox      ,6,1,-1,0,0,1426.48299,1426.48299,1428.97812,0,62,62,62,1,217,6,7,redfox      ,scarf         ,html/resources/sequences_IDs/B/01_redfox.jpg,html/resources/sequences_IDs/A/06_scarf.jpg,1,6,1,1,3,2,1,5,0,57,,,,,,,,,,,,,,,,,,,,
