instructionsLoop.thisRepN,instructionsLoop.thisTrialN,instructionsLoop.thisN,instructionsLoop.thisIndex,instructionsLoop.ran,participant,date,expName,psychopyVersion,OS,frameRate,browser,xResolution,yResolution,fix_onset,tprac,practiceKey.keys,practiceKey.rt,pracitem_chosen_name,acc_practice,P1_onsetPrac,P2_onsetPrac,onsetFeedbPrac,practiceTrials.thisRepN,practiceTrials.thisTrialN,practiceTrials.thisN,practiceTrials.thisIndex,practiceTrials.ran,P1,P2,Block,LocItem1,LocItem2,NameItem1,NameItem2,key_respAC_prac.keys,key_respAC_prac.corr,key_respAC_prac.rt,AC_acc,Attentions.thisRepN,Attentions.thisTrialN,Attentions.thisN,Attentions.thisIndex,Attentions.ran,Stim,Loc1,Loc2,Loc3,Loc4,CorrAns,keyDisturbed.keys,keyDisturbed.rt,repPractice.thisRepN,repPractice.thisTrialN,repPractice.thisN,repPractice.thisIndex,repPractice.ran,fixcross_onsetMain,trialNumber,key_resp.keys,key_resp.rt,item_chosen_name,item_chosen_value,item_chosen_ID,diff_chosen_minus_reject,acc_real,acc_feedback,P1_onset,P2_onset,feedb_onset,trials.thisRepN,trials.thisTrialN,trials.thisN,trials.thisIndex,trials.ran,Trial,ValueP1,ValueP2,P1name,P2name,P1Loc,P2Loc,P1id,P2id,Micro_categoryP1,Macro_categoryP1,Micro_categoryP2,Macro_categoryP2,ID_sequenceP1,ID_sequenceP2,InverseFb,pNumber,repBlocks.thisRepN,repBlocks.thisTrialN,repBlocks.thisN,repBlocks.thisIndex,repBlocks.ran
0,0,0,0,1,58,2020-07-04_15h59.19.643,retriever_ti,2020.1.3,Win32,60,Chrome,1920,1080,,,,,,,,,,,,,,,,,,,,,,,,,,,,,,,,,,,,,,,,,,,,,,,,,,,,,,,,,,,,,,,,,,,,,,,,,,,,,,,,,,,
1,0,1,0,1,58,2020-07-04_15h59.19.643,retriever_ti,2020.1.3,Win32,60,Chrome,1920,1080,,,,,,,,,,,,,,,,,,,,,,,,,,,,,,,,,,,,,,,,,,,,,,,,,,,,,,,,,,,,,,,,,,,,,,,,,,,,,,,,,,,
2,0,2,0,1,58,2020-07-04_15h59.19.643,retriever_ti,2020.1.3,Win32,60,Chrome,1920,1080,,,,,,,,,,,,,,,,,,,,,,,,,,,,,,,,,,,,,,,,,,,,,,,,,,,,,,,,,,,,,,,,,,,,,,,,,,,,,,,,,,,
3,0,3,0,1,58,2020-07-04_15h59.19.643,retriever_ti,2020.1.3,Win32,60,Chrome,1920,1080,,,,,,,,,,,,,,,,,,,,,,,,,,,,,,,,,,,,,,,,,,,,,,,,,,,,,,,,,,,,,,,,,,,,,,,,,,,,,,,,,,,
4,0,4,0,1,58,2020-07-04_15h59.19.643,retriever_ti,2020.1.3,Win32,60,Chrome,1920,1080,,,,,,,,,,,,,,,,,,,,,,,,,,,,,,,,,,,,,,,,,,,,,,,,,,,,,,,,,,,,,,,,,,,,,,,,,,,,,,,,,,,
5,0,5,0,1,58,2020-07-04_15h59.19.643,retriever_ti,2020.1.3,Win32,60,Chrome,1920,1080,,,,,,,,,,,,,,,,,,,,,,,,,,,,,,,,,,,,,,,,,,,,,,,,,,,,,,,,,,,,,,,,,,,,,,,,,,,,,,,,,,,
6,0,6,0,1,58,2020-07-04_15h59.19.643,retriever_ti,2020.1.3,Win32,60,Chrome,1920,1080,,,,,,,,,,,,,,,,,,,,,,,,,,,,,,,,,,,,,,,,,,,,,,,,,,,,,,,,,,,,,,,,,,,,,,,,,,,,,,,,,,,
7,0,7,0,1,58,2020-07-04_15h59.19.643,retriever_ti,2020.1.3,Win32,60,Chrome,1920,1080,,,,,,,,,,,,,,,,,,,,,,,,,,,,,,,,,,,,,,,,,,,,,,,,,,,,,,,,,,,,,,,,,,,,,,,,,,,,,,,,,,,
8,0,8,0,1,58,2020-07-04_15h59.19.643,retriever_ti,2020.1.3,Win32,60,Chrome,1920,1080,,,,,,,,,,,,,,,,,,,,,,,,,,,,,,,,,,,,,,,,,,,,,,,,,,,,,,,,,,,,,,,,,,,,,,,,,,,,,,,,,,,
9,0,9,0,1,58,2020-07-04_15h59.19.643,retriever_ti,2020.1.3,Win32,60,Chrome,1920,1080,,,,,,,,,,,,,,,,,,,,,,,,,,,,,,,,,,,,,,,,,,,,,,,,,,,,,,,,,,,,,,,,,,,,,,,,,,,,,,,,,,,
10,0,10,0,1,58,2020-07-04_15h59.19.643,retriever_ti,2020.1.3,Win32,60,Chrome,1920,1080,,,,,,,,,,,,,,,,,,,,,,,,,,,,,,,,,,,,,,,,,,,,,,,,,,,,,,,,,,,,,,,,,,,,,,,,,,,,,,,,,,,
11,0,11,0,1,58,2020-07-04_15h59.19.643,retriever_ti,2020.1.3,Win32,60,Chrome,1920,1080,,,,,,,,,,,,,,,,,,,,,,,,,,,,,,,,,,,,,,,,,,,,,,,,,,,,,,,,,,,,,,,,,,,,,,,,,,,,,,,,,,,
12,0,12,0,1,58,2020-07-04_15h59.19.643,retriever_ti,2020.1.3,Win32,60,Chrome,1920,1080,,,,,,,,,,,,,,,,,,,,,,,,,,,,,,,,,,,,,,,,,,,,,,,,,,,,,,,,,,,,,,,,,,,,,,,,,,,,,,,,,,,
13,0,13,0,1,58,2020-07-04_15h59.19.643,retriever_ti,2020.1.3,Win32,60,Chrome,1920,1080,,,,,,,,,,,,,,,,,,,,,,,,,,,,,,,,,,,,,,,,,,,,,,,,,,,,,,,,,,,,,,,,,,,,,,,,,,,,,,,,,,,
14,0,14,0,1,58,2020-07-04_15h59.19.643,retriever_ti,2020.1.3,Win32,60,Chrome,1920,1080,,,,,,,,,,,,,,,,,,,,,,,,,,,,,,,,,,,,,,,,,,,,,,,,,,,,,,,,,,,,,,,,,,,,,,,,,,,,,,,,,,,
15,0,15,0,1,58,2020-07-04_15h59.19.643,retriever_ti,2020.1.3,Win32,60,Chrome,1920,1080,,,,,,,,,,,,,,,,,,,,,,,,,,,,,,,,,,,,,,,,,,,,,,,,,,,,,,,,,,,,,,,,,,,,,,,,,,,,,,,,,,,
16,0,16,0,1,58,2020-07-04_15h59.19.643,retriever_ti,2020.1.3,Win32,60,Chrome,1920,1080,,,,,,,,,,,,,,,,,,,,,,,,,,,,,,,,,,,,,,,,,,,,,,,,,,,,,,,,,,,,,,,,,,,,,,,,,,,,,,,,,,,
17,0,17,0,1,58,2020-07-04_15h59.19.643,retriever_ti,2020.1.3,Win32,60,Chrome,1920,1080,,,,,,,,,,,,,,,,,,,,,,,,,,,,,,,,,,,,,,,,,,,,,,,,,,,,,,,,,,,,,,,,,,,,,,,,,,,,,,,,,,,
18,0,18,0,1,58,2020-07-04_15h59.19.643,retriever_ti,2020.1.3,Win32,60,Chrome,1920,1080,,,,,,,,,,,,,,,,,,,,,,,,,,,,,,,,,,,,,,,,,,,,,,,,,,,,,,,,,,,,,,,,,,,,,,,,,,,,,,,,,,,
19,0,19,0,1,58,2020-07-04_15h59.19.643,retriever_ti,2020.1.3,Win32,60,Chrome,1920,1080,,,,,,,,,,,,,,,,,,,,,,,,,,,,,,,,,,,,,,,,,,,,,,,,,,,,,,,,,,,,,,,,,,,,,,,,,,,,,,,,,,,
20,0,20,0,1,58,2020-07-04_15h59.19.643,retriever_ti,2020.1.3,Win32,60,Chrome,1920,1080,,,,,,,,,,,,,,,,,,,,,,,,,,,,,,,,,,,,,,,,,,,,,,,,,,,,,,,,,,,,,,,,,,,,,,,,,,,,,,,,,,,
21,0,21,0,1,58,2020-07-04_15h59.19.643,retriever_ti,2020.1.3,Win32,60,Chrome,1920,1080,,,,,,,,,,,,,,,,,,,,,,,,,,,,,,,,,,,,,,,,,,,,,,,,,,,,,,,,,,,,,,,,,,,,,,,,,,,,,,,,,,,
22,0,22,0,1,58,2020-07-04_15h59.19.643,retriever_ti,2020.1.3,Win32,60,Chrome,1920,1080,,,,,,,,,,,,,,,,,,,,,,,,,,,,,,,,,,,,,,,,,,,,,,,,,,,,,,,,,,,,,,,,,,,,,,,,,,,,,,,,,,,
23,0,23,0,1,58,2020-07-04_15h59.19.643,retriever_ti,2020.1.3,Win32,60,Chrome,1920,1080,,,,,,,,,,,,,,,,,,,,,,,,,,,,,,,,,,,,,,,,,,,,,,,,,,,,,,,,,,,,,,,,,,,,,,,,,,,,,,,,,,,
24,0,24,0,1,58,2020-07-04_15h59.19.643,retriever_ti,2020.1.3,Win32,60,Chrome,1920,1080,,,,,,,,,,,,,,,,,,,,,,,,,,,,,,,,,,,,,,,,,,,,,,,,,,,,,,,,,,,,,,,,,,,,,,,,,,,,,,,,,,,
25,0,25,0,1,58,2020-07-04_15h59.19.643,retriever_ti,2020.1.3,Win32,60,Chrome,1920,1080,,,,,,,,,,,,,,,,,,,,,,,,,,,,,,,,,,,,,,,,,,,,,,,,,,,,,,,,,,,,,,,,,,,,,,,,,,,,,,,,,,,
,,,,,58,2020-07-04_15h59.19.643,retriever_ti,2020.1.3,Win32,60,Chrome,1920,1080,94.46844,1,NaN,NaN,No_response,2,94.51119,94.51119,97.023005,0,0,0,0,1,2,5,1,html/resources/stimuli_practice_decision/04_beetle.jpg,html/resources/stimuli_practice_decision/02_canary.jpg,beetle,canary,,,,,,,,,,,,,,,,,,,,,,,,,,,,,,,,,,,,,,,,,,,,,,,,,,,,,,,,,,,,,,
,,,,,58,2020-07-04_15h59.19.643,retriever_ti,2020.1.3,Win32,60,Chrome,1920,1080,97.572025,2,left,1.354995,rabbit,1,97.58659,97.58659,100.078335,0,1,1,1,1,4,3,1,html/resources/stimuli_practice_decision/01_rabbit.jpg,html/resources/stimuli_practice_decision/07_sock.jpg,rabbit,sock,,,,,,,,,,,,,,,,,,,,,,,,,,,,,,,,,,,,,,,,,,,,,,,,,,,,,,,,,,,,,,
,,,,,58,2020-07-04_15h59.19.643,retriever_ti,2020.1.3,Win32,60,Chrome,1920,1080,101.076985,3,left,1.40988,pullover,1,101.102975,101.102975,103.591135,0,2,2,2,1,6,2,1,html/resources/stimuli_practice_decision/06_pullover.jpg,html/resources/stimuli_practice_decision/04_beetle.jpg,pullover,beetle,,,,,,,,,,,,,,,,,,,,,,,,,,,,,,,,,,,,,,,,,,,,,,,,,,,,,,,,,,,,,,
,,,,,58,2020-07-04_15h59.19.643,retriever_ti,2020.1.3,Win32,60,Chrome,1920,1080,104.09817,4,left,2.42135,glasses,1,104.12319,104.12319,106.620955,0,3,3,3,1,7,1,1,html/resources/stimuli_practice_decision/05_glasses.jpg,html/resources/stimuli_practice_decision/08_handmixer.jpg,glasses,handmixer,,,,,,,,,,,,,,,,,,,,,,,,,,,,,,,,,,,,,,,,,,,,,,,,,,,,,,,,,,,,,,
,,,,,58,2020-07-04_15h59.19.643,retriever_ti,2020.1.3,Win32,60,Chrome,1920,1080,107.13732,5,left,1.7101,glasses,1,107.18703,107.18703,109.67561,0,4,4,4,1,7,6,1,html/resources/stimuli_practice_decision/05_glasses.jpg,html/resources/stimuli_practice_decision/06_pullover.jpg,glasses,pullover,,,,,,,,,,,,,,,,,,,,,,,,,,,,,,,,,,,,,,,,,,,,,,,,,,,,,,,,,,,,,,
,,,,,58,2020-07-04_15h59.19.643,retriever_ti,2020.1.3,Win32,60,Chrome,1920,1080,110.67773,6,left,1.05514,rabbit,0,110.734705,110.734705,113.232835,0,5,5,5,1,4,7,1,html/resources/stimuli_practice_decision/01_rabbit.jpg,html/resources/stimuli_practice_decision/05_glasses.jpg,rabbit,glasses,,,,,,,,,,,,,,,,,,,,,,,,,,,,,,,,,,,,,,,,,,,,,,,,,,,,,,,,,,,,,,
,,,,,58,2020-07-04_15h59.19.643,retriever_ti,2020.1.3,Win32,60,Chrome,1920,1080,113.747685,7,left,1.227995,handmixer,0,113.777215,113.777215,116.28514,0,6,6,6,1,1,2,1,html/resources/stimuli_practice_decision/08_handmixer.jpg,html/resources/stimuli_practice_decision/04_beetle.jpg,handmixer,beetle,,,,,,,,,,,,,,,,,,,,,,,,,,,,,,,,,,,,,,,,,,,,,,,,,,,,,,,,,,,,,,
,,,,,58,2020-07-04_15h59.19.643,retriever_ti,2020.1.3,Win32,60,Chrome,1920,1080,117.297425,8,left,0.986915,rabbit,1,117.331925,117.331925,119.83623,0,7,7,7,1,4,3,1,html/resources/stimuli_practice_decision/01_rabbit.jpg,html/resources/stimuli_practice_decision/07_sock.jpg,rabbit,sock,,,,,,,,,,,,,,,,,,,,,,,,,,,,,,,,,,,,,,,,,,,,,,,,,,,,,,,,,,,,,,
,,,,,58,2020-07-04_15h59.19.643,retriever_ti,2020.1.3,Win32,60,Chrome,1920,1080,,,,,,,,,,,,,,,,,,,,,,down,1,2.734165,1,0,0,0,3,1,html/resources/sequences_IDs/triangle.png,star ↑,square →,triangle ↓,← circle,down,,,,,,,,,,,,,,,,,,,,,,,,,,,,,,,,,,,,,,,,,,,,,,,
,,,,,58,2020-07-04_15h59.19.643,retriever_ti,2020.1.3,Win32,60,Chrome,1920,1080,,,,,,,,,,,,,,,,,,,,,,down,1,2.308285,1,0,1,1,1,1,html/resources/sequences_IDs/star.png,square ↑,circle →,star ↓,← triangle,down,,,,,,,,,,,,,,,,,,,,,,,,,,,,,,,,,,,,,,,,,,,,,,,
,,,,,58,2020-07-04_15h59.19.643,retriever_ti,2020.1.3,Win32,60,Chrome,1920,1080,,,,,,,,,,,,,,,,,,,,,,up,1,1.001655,1,0,2,2,0,1,html/resources/sequences_IDs/circle.png,circle ↑,square →,triangle ↓,← star ,up,,,,,,,,,,,,,,,,,,,,,,,,,,,,,,,,,,,,,,,,,,,,,,,
,,,,,58,2020-07-04_15h59.19.643,retriever_ti,2020.1.3,Win32,60,Chrome,1920,1080,,,,,,,,,,,,,,,,,,,,,,left,1,1.523035,1,0,3,3,2,1,html/resources/sequences_IDs/square1.png,star ↑,triangle →,circle ↓,← square,left,,,,,,,,,,,,,,,,,,,,,,,,,,,,,,,,,,,,,,,,,,,,,,,
,,,,,58,2020-07-04_15h59.19.643,retriever_ti,2020.1.3,Win32,60,Chrome,1920,1080,,,,,,,,,,,,,,,,,,,,,,,,,,,,,,,,,,,,,0,6.890965,0,0,0,0,1,,,,,,,,,,,,,,,,,,,,,,,,,,,,,,,,,,,,,,,,
,,,,,58,2020-07-04_15h59.19.643,retriever_ti,2020.1.3,Win32,60,Chrome,1920,1080,138.407895,9,NaN,NaN,No_response,2,138.45573,138.45573,140.955175,0,0,0,0,1,6,7,1,html/resources/stimuli_practice_decision/06_pullover.jpg,html/resources/stimuli_practice_decision/05_glasses.jpg,pullover,glasses,,,,,,,,,,,,,,,,,,,,,,,,,,,,,,,,,,,,,,,,,,,,,,,,,,,,,,,,,,,,,,
,,,,,58,2020-07-04_15h59.19.643,retriever_ti,2020.1.3,Win32,60,Chrome,1920,1080,141.958745,10,left,0.94611,pullover,1,141.986915,141.986915,144.483655,0,1,1,1,1,6,2,1,html/resources/stimuli_practice_decision/06_pullover.jpg,html/resources/stimuli_practice_decision/04_beetle.jpg,pullover,beetle,,,,,,,,,,,,,,,,,,,,,,,,,,,,,,,,,,,,,,,,,,,,,,,,,,,,,,,,,,,,,,
,,,,,58,2020-07-04_15h59.19.643,retriever_ti,2020.1.3,Win32,60,Chrome,1920,1080,145.00068,11,left,0.9108,canary,0,145.02134,145.02134,147.520755,0,2,2,2,1,5,6,1,html/resources/stimuli_practice_decision/02_canary.jpg,html/resources/stimuli_practice_decision/06_pullover.jpg,canary,pullover,,,,,,,,,,,,,,,,,,,,,,,,,,,,,,,,,,,,,,,,,,,,,,,,,,,,,,,,,,,,,,
,,,,,58,2020-07-04_15h59.19.643,retriever_ti,2020.1.3,Win32,60,Chrome,1920,1080,148.517165,12,left,1.476595,squirrel,1,148.547085,148.547085,151.051335,0,3,3,3,1,8,7,1,html/resources/stimuli_practice_decision/03_squirrel.jpg,html/resources/stimuli_practice_decision/05_glasses.jpg,squirrel,glasses,,,,,,,,,,,,,,,,,,,,,,,,,,,,,,,,,,,,,,,,,,,,,,,,,,,,,,,,,,,,,,
,,,,,58,2020-07-04_15h59.19.643,retriever_ti,2020.1.3,Win32,60,Chrome,1920,1080,152.062025,13,left,1.834435,canary,1,152.107555,152.107555,154.593825,0,4,4,4,1,5,3,1,html/resources/stimuli_practice_decision/02_canary.jpg,html/resources/stimuli_practice_decision/07_sock.jpg,canary,sock,,,,,,,,,,,,,,,,,,,,,,,,,,,,,,,,,,,,,,,,,,,,,,,,,,,,,,,,,,,,,,
,,,,,58,2020-07-04_15h59.19.643,retriever_ti,2020.1.3,Win32,60,Chrome,1920,1080,155.104185,14,right,2.06931,squirrel,1,155.126135,155.126135,157.621135,0,5,5,5,1,7,8,1,html/resources/stimuli_practice_decision/05_glasses.jpg,html/resources/stimuli_practice_decision/03_squirrel.jpg,glasses,squirrel,,,,,,,,,,,,,,,,,,,,,,,,,,,,,,,,,,,,,,,,,,,,,,,,,,,,,,,,,,,,,,
,,,,,58,2020-07-04_15h59.19.643,retriever_ti,2020.1.3,Win32,60,Chrome,1920,1080,158.6245,15,right,1.49978,rabbit,0,158.68178,158.68178,161.188535,0,6,6,6,1,5,4,1,html/resources/stimuli_practice_decision/02_canary.jpg,html/resources/stimuli_practice_decision/01_rabbit.jpg,canary,rabbit,,,,,,,,,,,,,,,,,,,,,,,,,,,,,,,,,,,,,,,,,,,,,,,,,,,,,,,,,,,,,,
,,,,,58,2020-07-04_15h59.19.643,retriever_ti,2020.1.3,Win32,60,Chrome,1920,1080,162.204985,16,left,2.10096,canary,1,162.250315,162.250315,164.759535,0,7,7,7,1,5,3,1,html/resources/stimuli_practice_decision/02_canary.jpg,html/resources/stimuli_practice_decision/07_sock.jpg,canary,sock,,,,,,,,,,,,,,,,,,,,,,,,,,,,,,,,,,,,,,,,,,,,,,,,,,,,,,,,,,,,,,
,,,,,58,2020-07-04_15h59.19.643,retriever_ti,2020.1.3,Win32,60,Chrome,1920,1080,,,,,,,,,,,,,,,,,,,,,,down,1,2.773125,1,0,0,0,1,1,html/resources/sequences_IDs/star.png,square ↑,circle →,star ↓,← triangle,down,,,,,,,,,,,,,,,,,,,,,,,,,,,,,,,,,,,,,,,,,,,,,,,
,,,,,58,2020-07-04_15h59.19.643,retriever_ti,2020.1.3,Win32,60,Chrome,1920,1080,,,,,,,,,,,,,,,,,,,,,,down,1,1.753705,1,0,1,1,3,1,html/resources/sequences_IDs/triangle.png,star ↑,square →,triangle ↓,← circle,down,,,,,,,,,,,,,,,,,,,,,,,,,,,,,,,,,,,,,,,,,,,,,,,
,,,,,58,2020-07-04_15h59.19.643,retriever_ti,2020.1.3,Win32,60,Chrome,1920,1080,,,,,,,,,,,,,,,,,,,,,,up,1,1.010195,1,0,2,2,0,1,html/resources/sequences_IDs/circle.png,circle ↑,square →,triangle ↓,← star ,up,,,,,,,,,,,,,,,,,,,,,,,,,,,,,,,,,,,,,,,,,,,,,,,
,,,,,58,2020-07-04_15h59.19.643,retriever_ti,2020.1.3,Win32,60,Chrome,1920,1080,,,,,,,,,,,,,,,,,,,,,,left,1,1.01071,1,0,3,3,2,1,html/resources/sequences_IDs/square1.png,star ↑,triangle →,circle ↓,← square,left,,,,,,,,,,,,,,,,,,,,,,,,,,,,,,,,,,,,,,,,,,,,,,,
,,,,,58,2020-07-04_15h59.19.643,retriever_ti,2020.1.3,Win32,60,Chrome,1920,1080,,,,,,,,,,,,,,,,,,,,,,,,,,,,,,,,,,,,,0,2.126895,1,0,1,0,1,,,,,,,,,,,,,,,,,,,,,,,,,,,,,,,,,,,,,,,,
,,,,,58,2020-07-04_15h59.19.643,retriever_ti,2020.1.3,Win32,60,Chrome,1920,1080,,,,,,,,,,,,,,,,,1,,,,,,,,,,,,,,,,,,,,,,,,,,,177.64166,1,right,1.28123,dolphin     ,6,2,3,1,3,177.67806,177.67806,180.175005,0,0,0,0,1,1,3,6,hat           ,dolphin     ,html/resources/sequences_IDs/A/08_hat.jpg,html/resources/sequences_IDs/B/02_dolphin.jpg,8,2,3,2,1,1,7,2,0,58,,,,,
,,,,,58,2020-07-04_15h59.19.643,retriever_ti,2020.1.3,Win32,60,Chrome,1920,1080,,,,,,,,,,,,,,,,,1,,,,,,,,,,,,,,,,,,,,,,,,,,,180.78279,2,NaN,NaN,No_response,NaN,NaN,NaN,2,2,180.81308,180.81308,183.30932,0,1,1,1,1,2,8,7,sport_tshirt,calculator    ,html/resources/sequences_IDs/B/07_sport_tshirt.jpg,html/resources/sequences_IDs/A/09_calculator.jpg,7,9,3,2,4,2,6,8,0,58,,,,,
,,,,,58,2020-07-04_15h59.19.643,retriever_ti,2020.1.3,Win32,60,Chrome,1920,1080,,,,,,,,,,,,,,,,,1,,,,,,,,,,,,,,,,,,,,,,,,,,,184.42172,3,left,1.11313,sport_tshirt,8,7,1,1,0,184.44117,184.44117,186.947295,0,2,2,2,1,3,8,7,sport_tshirt,calculator    ,html/resources/sequences_IDs/B/07_sport_tshirt.jpg,html/resources/sequences_IDs/A/09_calculator.jpg,7,9,3,2,4,2,6,8,1,58,,,,,
,,,,,58,2020-07-04_15h59.19.643,retriever_ti,2020.1.3,Win32,60,Chrome,1920,1080,,,,,,,,,,,,,,,,,1,,,,,,,,,,,,,,,,,,,,,,,,,,,188.04765,4,left,0.95569,camel         ,1,3,-1,0,1,188.099145,188.099145,190.60623,0,3,3,3,1,4,1,2,camel         ,holdfast    ,html/resources/sequences_IDs/A/03_camel.jpg,html/resources/sequences_IDs/B/04_holdfast.jpg,3,4,1,1,2,1,3,4,1,58,,,,,
,,,,,58,2020-07-04_15h59.19.643,retriever_ti,2020.1.3,Win32,60,Chrome,1920,1080,,,,,,,,,,,,,,,,,1,,,,,,,,,,,,,,,,,,,,,,,,,,,191.697975,5,left,1.42064,camel         ,1,3,-1,0,0,191.722955,191.722955,194.23051,0,4,4,4,1,5,1,2,camel         ,holdfast    ,html/resources/sequences_IDs/A/03_camel.jpg,html/resources/sequences_IDs/B/04_holdfast.jpg,3,4,1,1,2,1,3,4,0,58,,,,,
,,,,,58,2020-07-04_15h59.19.643,retriever_ti,2020.1.3,Win32,60,Chrome,1920,1080,,,,,,,,,,,,,,,,,1,,,,,,,,,,,,,,,,,,,,,,,,,,,195.34693,6,right,1.565815,wolf          ,5,1,3,1,3,195.3791,195.3791,197.882175,0,5,5,5,1,6,2,5,holdfast    ,wolf          ,html/resources/sequences_IDs/B/04_holdfast.jpg,html/resources/sequences_IDs/A/01_wolf.jpg,4,1,2,1,1,1,4,1,0,58,,,,,
,,,,,58,2020-07-04_15h59.19.643,retriever_ti,2020.1.3,Win32,60,Chrome,1920,1080,,,,,,,,,,,,,,,,,1,,,,,,,,,,,,,,,,,,,,,,,,,,,198.49022,7,left,1.960915,dolphin     ,6,2,-2,0,3,198.515215,198.515215,201.003125,0,6,6,6,1,7,6,8,dolphin     ,sport_tshirt,html/resources/sequences_IDs/B/02_dolphin.jpg,html/resources/sequences_IDs/B/07_sport_tshirt.jpg,2,7,1,1,3,2,2,6,0,58,,,,,
,,,,,58,2020-07-04_15h59.19.643,retriever_ti,2020.1.3,Win32,60,Chrome,1920,1080,,,,,,,,,,,,,,,,,1,,,,,,,,,,,,,,,,,,,,,,,,,,,201.62295,8,right,1.855185,wolf          ,5,1,1,1,1,201.65311,201.65311,204.16497,0,7,7,7,1,8,4,5,gloves      ,wolf          ,html/resources/sequences_IDs/B/06_gloves.jpg,html/resources/sequences_IDs/A/01_wolf.jpg,6,1,3,2,1,1,5,1,0,58,,,,,
,,,,,58,2020-07-04_15h59.19.643,retriever_ti,2020.1.3,Win32,60,Chrome,1920,1080,,,,,,,,,,,,,,,,,1,,,,,,,,,,,,,,,,,,,,,,,,,,,205.289205,9,left,1.33577,hat           ,3,8,-1,0,0,205.343385,205.343385,207.82926,0,8,8,8,1,9,3,4,hat           ,gloves      ,html/resources/sequences_IDs/A/08_hat.jpg,html/resources/sequences_IDs/B/06_gloves.jpg,8,6,3,2,3,2,7,5,0,58,,,,,
,,,,,58,2020-07-04_15h59.19.643,retriever_ti,2020.1.3,Win32,60,Chrome,1920,1080,,,,,,,,,,,,,,,,,1,,,,,,,,,,,,,,,,,,,,,,,,,,,208.9266,10,left,1.457675,holdfast    ,2,4,-6,0,3,208.98489,208.98489,211.48419,0,9,9,9,1,10,2,8,holdfast    ,sport_tshirt,html/resources/sequences_IDs/B/04_holdfast.jpg,html/resources/sequences_IDs/B/07_sport_tshirt.jpg,4,7,2,1,3,2,4,6,0,58,,,,,
,,,,,58,2020-07-04_15h59.19.643,retriever_ti,2020.1.3,Win32,60,Chrome,1920,1080,,,,,,,,,,,,,,,,,1,,,,,,,,,,,,,,,,,,,,,,,,,,,212.110545,11,right,0.829005,camel         ,1,3,-3,0,3,212.13202,212.13202,214.6208,0,10,10,10,1,11,4,1,gloves      ,camel         ,html/resources/sequences_IDs/B/06_gloves.jpg,html/resources/sequences_IDs/A/03_camel.jpg,6,3,3,2,1,1,5,3,0,58,,,,,
,,,,,58,2020-07-04_15h59.19.643,retriever_ti,2020.1.3,Win32,60,Chrome,1920,1080,,,,,,,,,,,,,,,,,1,,,,,,,,,,,,,,,,,,,,,,,,,,,215.242555,12,left,1.22574,wolf          ,5,1,-1,0,1,215.274205,215.274205,217.783475,0,11,11,11,1,12,5,6,wolf          ,dolphin     ,html/resources/sequences_IDs/A/01_wolf.jpg,html/resources/sequences_IDs/B/02_dolphin.jpg,1,2,1,1,1,1,1,2,1,58,,,,,
,,,,,58,2020-07-04_15h59.19.643,retriever_ti,2020.1.3,Win32,60,Chrome,1920,1080,,,,,,,,,,,,,,,,,1,,,,,,,,,,,,,,,,,,,,,,,,,,,218.87364,13,right,1.280225,holdfast    ,2,4,1,1,1,218.89978,218.89978,221.39026,0,12,12,12,1,13,1,2,camel         ,holdfast    ,html/resources/sequences_IDs/A/03_camel.jpg,html/resources/sequences_IDs/B/04_holdfast.jpg,3,4,1,1,2,1,3,4,0,58,,,,,
,,,,,58,2020-07-04_15h59.19.643,retriever_ti,2020.1.3,Win32,60,Chrome,1920,1080,,,,,,,,,,,,,,,,,1,,,,,,,,,,,,,,,,,,,,,,,,,,,222.49167,14,right,1.026225,wolf          ,5,1,-3,0,3,222.51407,222.51407,225.006875,0,13,13,13,1,14,8,5,sport_tshirt,wolf          ,html/resources/sequences_IDs/B/07_sport_tshirt.jpg,html/resources/sequences_IDs/A/01_wolf.jpg,7,1,3,2,1,1,6,1,0,58,,,,,
,,,,,58,2020-07-04_15h59.19.643,retriever_ti,2020.1.3,Win32,60,Chrome,1920,1080,,,,,,,,,,,,,,,,,1,,,,,,,,,,,,,,,,,,,,,,,,,,,225.62354,15,left,1.147265,wolf          ,5,1,-3,0,3,225.67381,225.67381,228.164895,0,14,14,14,1,15,5,8,wolf          ,sport_tshirt,html/resources/sequences_IDs/A/01_wolf.jpg,html/resources/sequences_IDs/B/07_sport_tshirt.jpg,1,7,1,1,3,2,1,6,0,58,,,,,
,,,,,58,2020-07-04_15h59.19.643,retriever_ti,2020.1.3,Win32,60,Chrome,1920,1080,,,,,,,,,,,,,,,,,1,,,,,,,,,,,,,,,,,,,,,,,,,,,228.76798,16,right,1.19429,wolf          ,5,1,1,1,1,228.795005,228.795005,231.28427,0,15,15,15,1,16,4,5,gloves      ,wolf          ,html/resources/sequences_IDs/B/06_gloves.jpg,html/resources/sequences_IDs/A/01_wolf.jpg,6,1,3,2,1,1,5,1,0,58,,,,,
,,,,,58,2020-07-04_15h59.19.643,retriever_ti,2020.1.3,Win32,60,Chrome,1920,1080,,,,,,,,,,,,,,,,,1,,,,,,,,,,,,,,,,,,,,,,,,,,,232.37346,17,left,1.01293,camel         ,1,3,-4,0,3,232.4002,232.4002,234.888415,0,16,16,16,1,17,1,5,camel         ,wolf          ,html/resources/sequences_IDs/A/03_camel.jpg,html/resources/sequences_IDs/A/01_wolf.jpg,3,1,1,1,1,1,3,1,0,58,,,,,
,,,,,58,2020-07-04_15h59.19.643,retriever_ti,2020.1.3,Win32,60,Chrome,1920,1080,,,,,,,,,,,,,,,,,1,,,,,,,,,,,,,,,,,,,,,,,,,,,235.506085,18,left,0.936135,wolf          ,5,1,-1,0,0,235.55282,235.55282,238.06176,0,17,17,17,1,18,5,6,wolf          ,dolphin     ,html/resources/sequences_IDs/A/01_wolf.jpg,html/resources/sequences_IDs/B/02_dolphin.jpg,1,2,1,1,1,1,1,2,0,58,,,,,
,,,,,58,2020-07-04_15h59.19.643,retriever_ti,2020.1.3,Win32,60,Chrome,1920,1080,,,,,,,,,,,,,,,,,1,,,,,,,,,,,,,,,,,,,,,,,,,,,239.178985,19,left,1.272645,holdfast    ,2,4,-2,0,3,239.238015,239.238015,241.73646,0,18,18,18,1,19,2,4,holdfast    ,gloves      ,html/resources/sequences_IDs/B/04_holdfast.jpg,html/resources/sequences_IDs/B/06_gloves.jpg,4,6,2,1,3,2,4,5,0,58,,,,,
,,,,,58,2020-07-04_15h59.19.643,retriever_ti,2020.1.3,Win32,60,Chrome,1920,1080,,,,,,,,,,,,,,,,,1,,,,,,,,,,,,,,,,,,,,,,,,,,,242.349965,20,right,1.22629,wolf          ,5,1,-1,0,0,242.390625,242.390625,244.88434,0,19,19,19,1,20,6,5,dolphin     ,wolf          ,html/resources/sequences_IDs/B/02_dolphin.jpg,html/resources/sequences_IDs/A/01_wolf.jpg,2,1,1,1,1,1,2,1,0,58,,,,,
,,,,,58,2020-07-04_15h59.19.643,retriever_ti,2020.1.3,Win32,60,Chrome,1920,1080,,,,,,,,,,,,,,,,,1,,,,,,,,,,,,,,,,,,,,,,,,,,,245.98629,21,left,1.335395,hat           ,3,8,1,1,1,246.009865,246.009865,248.500825,0,20,20,20,1,21,3,2,hat           ,holdfast    ,html/resources/sequences_IDs/A/08_hat.jpg,html/resources/sequences_IDs/B/04_holdfast.jpg,8,4,3,2,2,1,7,4,0,58,,,,,
,,,,,58,2020-07-04_15h59.19.643,retriever_ti,2020.1.3,Win32,60,Chrome,1920,1080,,,,,,,,,,,,,,,,,1,,,,,,,,,,,,,,,,,,,,,,,,,,,249.59319,22,right,1.02514,hat           ,3,8,-1,0,0,249.657365,249.657365,252.152445,0,21,21,21,1,22,4,3,gloves      ,hat           ,html/resources/sequences_IDs/B/06_gloves.jpg,html/resources/sequences_IDs/A/08_hat.jpg,6,8,3,2,3,2,5,7,0,58,,,,,
,,,,,58,2020-07-04_15h59.19.643,retriever_ti,2020.1.3,Win32,60,Chrome,1920,1080,,,,,,,,,,,,,,,,,1,,,,,,,,,,,,,,,,,,,,,,,,,,,253.251205,23,left,1.731125,holdfast    ,2,4,-5,0,3,253.271165,253.271165,255.7727,0,22,22,22,1,23,2,7,holdfast    ,calculator    ,html/resources/sequences_IDs/B/04_holdfast.jpg,html/resources/sequences_IDs/A/09_calculator.jpg,4,9,2,1,4,2,4,8,0,58,,,,,
,,,,,58,2020-07-04_15h59.19.643,retriever_ti,2020.1.3,Win32,60,Chrome,1920,1080,,,,,,,,,,,,,,,,,1,,,,,,,,,,,,,,,,,,,,,,,,,,,256.38616,24,right,1.922415,hat           ,3,8,-3,0,3,256.420165,256.420165,258.927485,0,23,23,23,1,24,6,3,dolphin     ,hat           ,html/resources/sequences_IDs/B/02_dolphin.jpg,html/resources/sequences_IDs/A/08_hat.jpg,2,8,1,1,3,2,2,7,0,58,,,,,
,,,,,58,2020-07-04_15h59.19.643,retriever_ti,2020.1.3,Win32,60,Chrome,1920,1080,,,,,,,,,,,,,,,,,1,,,,,,,,,,,,,,,,,,,,,,,,,,,259.548375,25,right,1.031795,camel         ,1,3,-2,0,3,259.57181,259.57181,262.07363,0,24,24,24,1,25,3,1,hat           ,camel         ,html/resources/sequences_IDs/A/08_hat.jpg,html/resources/sequences_IDs/A/03_camel.jpg,8,3,3,2,1,1,7,3,0,58,,,,,
,,,,,58,2020-07-04_15h59.19.643,retriever_ti,2020.1.3,Win32,60,Chrome,1920,1080,,,,,,,,,,,,,,,,,1,,,,,,,,,,,,,,,,,,,,,,,,,,,262.6792,26,left,1.75558,calculator    ,7,9,4,1,3,262.72574,262.72574,265.2354,0,25,25,25,1,26,7,3,calculator    ,hat           ,html/resources/sequences_IDs/A/09_calculator.jpg,html/resources/sequences_IDs/A/08_hat.jpg,9,8,4,2,3,2,8,7,0,58,,,,,
,,,,,58,2020-07-04_15h59.19.643,retriever_ti,2020.1.3,Win32,60,Chrome,1920,1080,,,,,,,,,,,,,,,,,1,,,,,,,,,,,,,,,,,,,,,,,,,,,265.86031,27,right,1.99367,gloves      ,4,6,-2,0,3,265.885085,265.885085,268.384975,0,26,26,26,1,27,6,4,dolphin     ,gloves      ,html/resources/sequences_IDs/B/02_dolphin.jpg,html/resources/sequences_IDs/B/06_gloves.jpg,2,6,1,1,3,2,2,5,0,58,,,,,
,,,,,58,2020-07-04_15h59.19.643,retriever_ti,2020.1.3,Win32,60,Chrome,1920,1080,,,,,,,,,,,,,,,,,1,,,,,,,,,,,,,,,,,,,,,,,,,,,269.017485,28,left,1.6163,sport_tshirt,8,7,4,1,3,269.061985,269.061985,271.548175,0,27,27,27,1,28,8,4,sport_tshirt,gloves      ,html/resources/sequences_IDs/B/07_sport_tshirt.jpg,html/resources/sequences_IDs/B/06_gloves.jpg,7,6,3,2,3,2,6,5,0,58,,,,,
,,,,,58,2020-07-04_15h59.19.643,retriever_ti,2020.1.3,Win32,60,Chrome,1920,1080,,,,,,,,,,,,,,,,,1,,,,,,,,,,,,,,,,,,,,,,,,,,,272.16878,29,left,1.52446,wolf          ,5,1,1,1,1,272.19224,272.19224,274.67824,0,28,28,28,1,29,5,4,wolf          ,gloves      ,html/resources/sequences_IDs/A/01_wolf.jpg,html/resources/sequences_IDs/B/06_gloves.jpg,1,6,1,1,3,2,1,5,0,58,,,,,
,,,,,58,2020-07-04_15h59.19.643,retriever_ti,2020.1.3,Win32,60,Chrome,1920,1080,,,,,,,,,,,,,,,,,1,,,,,,,,,,,,,,,,,,,,,,,,,,,275.78788,30,right,1.66756,holdfast    ,2,4,-6,0,3,275.816625,275.816625,278.305045,0,29,29,29,1,30,8,2,sport_tshirt,holdfast    ,html/resources/sequences_IDs/B/07_sport_tshirt.jpg,html/resources/sequences_IDs/B/04_holdfast.jpg,7,4,3,2,2,1,6,4,0,58,,,,,
,,,,,58,2020-07-04_15h59.19.643,retriever_ti,2020.1.3,Win32,60,Chrome,1920,1080,,,,,,,,,,,,,,,,,1,,,,,,,,,,,,,,,,,,,,,,,,,,,278.936165,31,right,2.12286,calculator    ,7,9,4,1,3,278.9934,278.9934,281.498145,0,30,30,30,1,31,3,7,hat           ,calculator    ,html/resources/sequences_IDs/A/08_hat.jpg,html/resources/sequences_IDs/A/09_calculator.jpg,8,9,3,2,4,2,7,8,0,58,,,,,
,,,,,58,2020-07-04_15h59.19.643,retriever_ti,2020.1.3,Win32,60,Chrome,1920,1080,,,,,,,,,,,,,,,,,1,,,,,,,,,,,,,,,,,,,,,,,,,,,282.099365,32,left,1.255085,wolf          ,5,1,3,1,3,282.118205,282.118205,284.61324,0,31,31,31,1,32,5,2,wolf          ,holdfast    ,html/resources/sequences_IDs/A/01_wolf.jpg,html/resources/sequences_IDs/B/04_holdfast.jpg,1,4,1,1,2,1,1,4,0,58,,,,,
,,,,,58,2020-07-04_15h59.19.643,retriever_ti,2020.1.3,Win32,60,Chrome,1920,1080,,,,,,,,,,,,,,,,,1,,,,,,,,,,,,,,,,,,,,,,,,,,,285.22438,33,right,0.988675,camel         ,1,3,-1,0,0,285.245265,285.245265,287.74257,0,32,32,32,1,33,2,1,holdfast    ,camel         ,html/resources/sequences_IDs/B/04_holdfast.jpg,html/resources/sequences_IDs/A/03_camel.jpg,4,3,2,1,1,1,4,3,0,58,,,,,
,,,,,58,2020-07-04_15h59.19.643,retriever_ti,2020.1.3,Win32,60,Chrome,1920,1080,,,,,,,,,,,,,,,,,1,,,,,,,,,,,,,,,,,,,,,,,,,,,288.83173,34,left,0.98263,wolf          ,5,1,-2,0,3,288.87094,288.87094,291.37167,0,33,33,33,1,34,5,7,wolf          ,calculator    ,html/resources/sequences_IDs/A/01_wolf.jpg,html/resources/sequences_IDs/A/09_calculator.jpg,1,9,1,1,4,2,1,8,0,58,,,,,
,,,,,58,2020-07-04_15h59.19.643,retriever_ti,2020.1.3,Win32,60,Chrome,1920,1080,,,,,,,,,,,,,,,,,1,,,,,,,,,,,,,,,,,,,,,,,,,,,291.98875,35,left,0.78831,wolf          ,5,1,1,1,0,292.019765,292.019765,294.510375,0,34,34,34,1,35,5,4,wolf          ,gloves      ,html/resources/sequences_IDs/A/01_wolf.jpg,html/resources/sequences_IDs/B/06_gloves.jpg,1,6,1,1,3,2,1,5,1,58,,,,,
,,,,,58,2020-07-04_15h59.19.643,retriever_ti,2020.1.3,Win32,60,Chrome,1920,1080,,,,,,,,,,,,,,,,,1,,,,,,,,,,,,,,,,,,,,,,,,,,,295.620135,36,right,1.199795,calculator    ,7,9,-1,0,0,295.638195,295.638195,298.12713,0,35,35,35,1,36,8,7,sport_tshirt,calculator    ,html/resources/sequences_IDs/B/07_sport_tshirt.jpg,html/resources/sequences_IDs/A/09_calculator.jpg,7,9,3,2,4,2,6,8,0,58,,,,,
,,,,,58,2020-07-04_15h59.19.643,retriever_ti,2020.1.3,Win32,60,Chrome,1920,1080,,,,,,,,,,,,,,,,,1,,,,,,,,,,,,,,,,,,,,,,,,,,,299.2314,37,right,0.999275,holdfast    ,2,4,-1,0,0,299.27323,299.27323,301.77154,0,36,36,36,1,37,3,2,hat           ,holdfast    ,html/resources/sequences_IDs/A/08_hat.jpg,html/resources/sequences_IDs/B/04_holdfast.jpg,8,4,3,2,2,1,7,4,0,58,,,,,
,,,,,58,2020-07-04_15h59.19.643,retriever_ti,2020.1.3,Win32,60,Chrome,1920,1080,,,,,,,,,,,,,,,,,1,,,,,,,,,,,,,,,,,,,,,,,,,,,302.87618,38,left,0.80272,camel         ,1,3,-3,0,3,302.920925,302.920925,305.41414,0,37,37,37,1,38,1,4,camel         ,gloves      ,html/resources/sequences_IDs/A/03_camel.jpg,html/resources/sequences_IDs/B/06_gloves.jpg,3,6,1,1,3,2,3,5,0,58,,,,,
,,,,,58,2020-07-04_15h59.19.643,retriever_ti,2020.1.3,Win32,60,Chrome,1920,1080,,,,,,,,,,,,,,,,,1,,,,,,,,,,,,,,,,,,,,,,,,,,,306.05095,39,left,0.61709,camel         ,1,3,-2,0,3,306.0972,306.0972,308.58826,0,38,38,38,1,39,1,3,camel         ,hat           ,html/resources/sequences_IDs/A/03_camel.jpg,html/resources/sequences_IDs/A/08_hat.jpg,3,8,1,1,3,2,3,7,0,58,,,,,
,,,,,58,2020-07-04_15h59.19.643,retriever_ti,2020.1.3,Win32,60,Chrome,1920,1080,,,,,,,,,,,,,,,,,1,,,,,,,,,,,,,,,,,,,,,,,,,,,309.195,40,left,1.130555,wolf          ,5,1,-1,0,0,309.243595,309.243595,311.736515,0,39,39,39,1,40,5,6,wolf          ,dolphin     ,html/resources/sequences_IDs/A/01_wolf.jpg,html/resources/sequences_IDs/B/02_dolphin.jpg,1,2,1,1,1,1,1,2,0,58,,,,,
,,,,,58,2020-07-04_15h59.19.643,retriever_ti,2020.1.3,Win32,60,Chrome,1920,1080,,,,,,,,,,,,,,,,,1,,,,,,,,,,,,,,,,,,,,,,,,,,,312.8398,41,right,1.25481,sport_tshirt,8,7,1,1,1,312.894445,312.894445,315.38442,0,40,40,40,1,41,7,8,calculator    ,sport_tshirt,html/resources/sequences_IDs/A/09_calculator.jpg,html/resources/sequences_IDs/B/07_sport_tshirt.jpg,9,7,4,2,3,2,8,6,0,58,,,,,
,,,,,58,2020-07-04_15h59.19.643,retriever_ti,2020.1.3,Win32,60,Chrome,1920,1080,,,,,,,,,,,,,,,,,1,,,,,,,,,,,,,,,,,,,,,,,,,,,316.491775,42,left,1.06747,hat           ,3,8,-1,0,0,316.55219,316.55219,319.06344,0,41,41,41,1,42,3,4,hat           ,gloves      ,html/resources/sequences_IDs/A/08_hat.jpg,html/resources/sequences_IDs/B/06_gloves.jpg,8,6,3,2,3,2,7,5,0,58,,,,,
,,,,,58,2020-07-04_15h59.19.643,retriever_ti,2020.1.3,Win32,60,Chrome,1920,1080,,,,,,,,,,,,,,,,,1,,,,,,,,,,,,,,,,,,,,,,,,,,,320.15558,43,left,0.89832,gloves      ,4,6,-3,0,3,320.204395,320.204395,322.701605,0,42,42,42,1,43,4,7,gloves      ,calculator    ,html/resources/sequences_IDs/B/06_gloves.jpg,html/resources/sequences_IDs/A/09_calculator.jpg,6,9,3,2,4,2,5,8,0,58,,,,,
,,,,,58,2020-07-04_15h59.19.643,retriever_ti,2020.1.3,Win32,60,Chrome,1920,1080,,,,,,,,,,,,,,,,,1,,,,,,,,,,,,,,,,,,,,,,,,,,,323.30613,44,right,0.8137,gloves      ,4,6,-3,0,3,323.328445,323.328445,325.831575,0,43,43,43,1,44,7,4,calculator    ,gloves      ,html/resources/sequences_IDs/A/09_calculator.jpg,html/resources/sequences_IDs/B/06_gloves.jpg,9,6,4,2,3,2,8,5,0,58,,,,,
,,,,,58,2020-07-04_15h59.19.643,retriever_ti,2020.1.3,Win32,60,Chrome,1920,1080,,,,,,,,,,,,,,,,,1,,,,,,,,,,,,,,,,,,,,,,,,,,,326.44188,45,left,1.032,wolf          ,5,1,2,1,3,326.48454,326.48454,328.99172,0,44,44,44,1,45,5,3,wolf          ,hat           ,html/resources/sequences_IDs/A/01_wolf.jpg,html/resources/sequences_IDs/A/08_hat.jpg,1,8,1,1,3,2,1,7,0,58,,,,,
,,,,,58,2020-07-04_15h59.19.643,retriever_ti,2020.1.3,Win32,60,Chrome,1920,1080,,,,,,,,,,,,,,,,,1,,,,,,,,,,,,,,,,,,,,,,,,,,,329.5967,46,left,1.0093,sport_tshirt,8,7,2,1,3,329.646245,329.646245,332.141865,0,45,45,45,1,46,8,6,sport_tshirt,dolphin     ,html/resources/sequences_IDs/B/07_sport_tshirt.jpg,html/resources/sequences_IDs/B/02_dolphin.jpg,7,2,3,2,1,1,6,2,0,58,,,,,
,,,,,58,2020-07-04_15h59.19.643,retriever_ti,2020.1.3,Win32,60,Chrome,1920,1080,,,,,,,,,,,,,,,,,1,,,,,,,,,,,,,,,,,,,,,,,,,,,332.751425,47,right,1.539385,sport_tshirt,8,7,1,1,1,332.78342,332.78342,335.290425,0,46,46,46,1,47,7,8,calculator    ,sport_tshirt,html/resources/sequences_IDs/A/09_calculator.jpg,html/resources/sequences_IDs/B/07_sport_tshirt.jpg,9,7,4,2,3,2,8,6,0,58,,,,,
,,,,,58,2020-07-04_15h59.19.643,retriever_ti,2020.1.3,Win32,60,Chrome,1920,1080,,,,,,,,,,,,,,,,,1,,,,,,,,,,,,,,,,,,,,,,,,,,,336.40047,48,right,1.133535,holdfast    ,2,4,-5,0,3,336.457005,336.457005,338.966165,0,47,47,47,1,48,7,2,calculator    ,holdfast    ,html/resources/sequences_IDs/A/09_calculator.jpg,html/resources/sequences_IDs/B/04_holdfast.jpg,9,4,4,2,2,1,8,4,0,58,,,,,
,,,,,58,2020-07-04_15h59.19.643,retriever_ti,2020.1.3,Win32,60,Chrome,1920,1080,,,,,,,,,,,,,,,,,1,,,,,,,,,,,,,,,,,,,,,,,,,,,339.578605,49,left,1.164615,gloves      ,4,6,-2,0,3,339.60106,339.60106,342.11255,0,48,48,48,1,49,4,6,gloves      ,dolphin     ,html/resources/sequences_IDs/B/06_gloves.jpg,html/resources/sequences_IDs/B/02_dolphin.jpg,6,2,3,2,1,1,5,2,0,58,,,,,
,,,,,58,2020-07-04_15h59.19.643,retriever_ti,2020.1.3,Win32,60,Chrome,1920,1080,,,,,,,,,,,,,,,,,1,,,,,,,,,,,,,,,,,,,,,,,,,,,342.724145,50,left,2.243135,gloves      ,4,6,1,1,1,342.771305,342.771305,345.256885,0,49,49,49,1,50,4,3,gloves      ,hat           ,html/resources/sequences_IDs/B/06_gloves.jpg,html/resources/sequences_IDs/A/08_hat.jpg,6,8,3,2,3,2,5,7,0,58,,,,,
,,,,,58,2020-07-04_15h59.19.643,retriever_ti,2020.1.3,Win32,60,Chrome,1920,1080,,,,,,,,,,,,,,,,,1,,,,,,,,,,,,,,,,,,,,,,,,,,,346.3716,51,left,1.39717,holdfast    ,2,4,-1,0,1,346.3974,346.3974,348.889415,0,50,50,50,1,51,2,3,holdfast    ,hat           ,html/resources/sequences_IDs/B/04_holdfast.jpg,html/resources/sequences_IDs/A/08_hat.jpg,4,8,2,1,3,2,4,7,1,58,,,,,
,,,,,58,2020-07-04_15h59.19.643,retriever_ti,2020.1.3,Win32,60,Chrome,1920,1080,,,,,,,,,,,,,,,,,1,,,,,,,,,,,,,,,,,,,,,,,,,,,349.99048,52,left,1.20782,camel         ,1,3,-6,0,3,350.040875,350.040875,352.53515,0,51,51,51,1,52,1,7,camel         ,calculator    ,html/resources/sequences_IDs/A/03_camel.jpg,html/resources/sequences_IDs/A/09_calculator.jpg,3,9,1,1,4,2,3,8,0,58,,,,,
,,,,,58,2020-07-04_15h59.19.643,retriever_ti,2020.1.3,Win32,60,Chrome,1920,1080,,,,,,,,,,,,,,,,,1,,,,,,,,,,,,,,,,,,,,,,,,,,,353.137335,53,left,1.509345,wolf          ,5,1,1,1,1,353.197395,353.197395,355.67692,0,52,52,52,1,53,5,4,wolf          ,gloves      ,html/resources/sequences_IDs/A/01_wolf.jpg,html/resources/sequences_IDs/B/06_gloves.jpg,1,6,1,1,3,2,1,5,0,58,,,,,
,,,,,58,2020-07-04_15h59.19.643,retriever_ti,2020.1.3,Win32,60,Chrome,1920,1080,,,,,,,,,,,,,,,,,1,,,,,,,,,,,,,,,,,,,,,,,,,,,356.78597,54,right,1.12679,camel         ,1,3,-4,0,3,356.818985,356.818985,359.31077,0,53,53,53,1,54,5,1,wolf          ,camel         ,html/resources/sequences_IDs/A/01_wolf.jpg,html/resources/sequences_IDs/A/03_camel.jpg,1,3,1,1,1,1,1,3,0,58,,,,,
,,,,,58,2020-07-04_15h59.19.643,retriever_ti,2020.1.3,Win32,60,Chrome,1920,1080,,,,,,,,,,,,,,,,,1,,,,,,,,,,,,,,,,,,,,,,,,,,,359.928345,55,left,1.21719,sport_tshirt,8,7,5,1,3,359.958165,359.958165,362.45188,0,54,54,54,1,55,8,3,sport_tshirt,hat           ,html/resources/sequences_IDs/B/07_sport_tshirt.jpg,html/resources/sequences_IDs/A/08_hat.jpg,7,8,3,2,3,2,6,7,0,58,,,,,
,,,,,58,2020-07-04_15h59.19.643,retriever_ti,2020.1.3,Win32,60,Chrome,1920,1080,,,,,,,,,,,,,,,,,1,,,,,,,,,,,,,,,,,,,,,,,,,,,363.073275,56,right,1.097115,camel         ,1,3,-6,0,3,363.10049,363.10049,365.61071,0,55,55,55,1,56,7,1,calculator    ,camel         ,html/resources/sequences_IDs/A/09_calculator.jpg,html/resources/sequences_IDs/A/03_camel.jpg,9,3,4,2,1,1,8,3,0,58,,,,,
,,,,,58,2020-07-04_15h59.19.643,retriever_ti,2020.1.3,Win32,60,Chrome,1920,1080,,,,,,,,,,,,,,,,,1,,,,,,,,,,,,,,,,,,,,,,,,,,,366.22833,57,left,0.90091,holdfast    ,2,4,1,1,1,366.292335,366.292335,368.775275,0,56,56,56,1,57,2,1,holdfast    ,camel         ,html/resources/sequences_IDs/B/04_holdfast.jpg,html/resources/sequences_IDs/A/03_camel.jpg,4,3,2,1,1,1,4,3,0,58,,,,,
,,,,,58,2020-07-04_15h59.19.643,retriever_ti,2020.1.3,Win32,60,Chrome,1920,1080,,,,,,,,,,,,,,,,,1,,,,,,,,,,,,,,,,,,,,,,,,,,,369.877005,58,right,1.49886,calculator    ,7,9,1,1,0,369.90782,369.90782,372.41387,0,57,57,57,1,58,6,7,dolphin     ,calculator    ,html/resources/sequences_IDs/B/02_dolphin.jpg,html/resources/sequences_IDs/A/09_calculator.jpg,2,9,1,1,4,2,2,8,1,58,,,,,
,,,,,58,2020-07-04_15h59.19.643,retriever_ti,2020.1.3,Win32,60,Chrome,1920,1080,,,,,,,,,,,,,,,,,1,,,,,,,,,,,,,,,,,,,,,,,,,,,373.528045,59,right,1.130085,camel         ,1,3,-5,0,3,373.56722,373.56722,376.05418,0,58,58,58,1,59,6,1,dolphin     ,camel         ,html/resources/sequences_IDs/B/02_dolphin.jpg,html/resources/sequences_IDs/A/03_camel.jpg,2,3,1,1,1,1,2,3,0,58,,,,,
,,,,,58,2020-07-04_15h59.19.643,retriever_ti,2020.1.3,Win32,60,Chrome,1920,1080,,,,,,,,,,,,,,,,,1,,,,,,,,,,,,,,,,,,,,,,,,,,,376.68931,60,right,0.984355,wolf          ,5,1,-1,0,0,376.708405,376.708405,379.20608,0,59,59,59,1,60,6,5,dolphin     ,wolf          ,html/resources/sequences_IDs/B/02_dolphin.jpg,html/resources/sequences_IDs/A/01_wolf.jpg,2,1,1,1,1,1,2,1,0,58,,,,,
,,,,,58,2020-07-04_15h59.19.643,retriever_ti,2020.1.3,Win32,60,Chrome,1920,1080,,,,,,,,,,,,,,,,,1,,,,,,,,,,,,,,,,,,,,,,,,,,,380.31022,61,left,0.91054,holdfast    ,2,4,-4,0,3,380.336375,380.336375,382.848145,0,60,60,60,1,61,2,6,holdfast    ,dolphin     ,html/resources/sequences_IDs/B/04_holdfast.jpg,html/resources/sequences_IDs/B/02_dolphin.jpg,4,2,2,1,1,1,4,2,0,58,,,,,
,,,,,58,2020-07-04_15h59.19.643,retriever_ti,2020.1.3,Win32,60,Chrome,1920,1080,,,,,,,,,,,,,,,,,1,,,,,,,,,,,,,,,,,,,,,,,,,,,383.45096,62,right,0.88604,holdfast    ,2,4,-2,0,3,383.50335,383.50335,385.99206,0,61,61,61,1,62,4,2,gloves      ,holdfast    ,html/resources/sequences_IDs/B/06_gloves.jpg,html/resources/sequences_IDs/B/04_holdfast.jpg,6,4,3,2,2,1,5,4,0,58,,,,,
,,,,,58,2020-07-04_15h59.19.643,retriever_ti,2020.1.3,Win32,60,Chrome,1920,1080,,,,,,,,,,,,,,,,,1,,,,,,,,,,,,,,,,,,,,,,,,,,,386.613545,63,right,1.263095,holdfast    ,2,4,-4,0,3,386.636845,386.636845,389.14057,0,62,62,62,1,63,6,2,dolphin     ,holdfast    ,html/resources/sequences_IDs/B/02_dolphin.jpg,html/resources/sequences_IDs/B/04_holdfast.jpg,2,4,1,1,2,1,2,4,0,58,,,,,
,,,,,58,2020-07-04_15h59.19.643,retriever_ti,2020.1.3,Win32,60,Chrome,1920,1080,,,,,,,,,,,,,,,,,1,,,,,,,,,,,,,,,,,,,,,,,,,,,389.760845,64,right,1.150115,camel         ,1,3,-7,0,3,389.806735,389.806735,392.293985,0,63,63,63,1,64,8,1,sport_tshirt,camel         ,html/resources/sequences_IDs/B/07_sport_tshirt.jpg,html/resources/sequences_IDs/A/03_camel.jpg,7,3,3,2,1,1,6,3,0,58,,,,,
,,,,,58,2020-07-04_15h59.19.643,retriever_ti,2020.1.3,Win32,60,Chrome,1920,1080,,,,,,,,,,,,,,,,,1,,,,,,,,,,,,,,,,,,,,,,,,,,,392.8989,65,left,1.633815,hat           ,3,8,-5,0,3,392.948435,392.948435,395.44044,0,64,64,64,1,65,3,8,hat           ,sport_tshirt,html/resources/sequences_IDs/A/08_hat.jpg,html/resources/sequences_IDs/B/07_sport_tshirt.jpg,8,7,3,2,3,2,7,6,0,58,,,,,
,,,,,58,2020-07-04_15h59.19.643,retriever_ti,2020.1.3,Win32,60,Chrome,1920,1080,,,,,,,,,,,,,,,,,1,,,,,,,,,,,,,,,,,,,,,,,,,,,396.05455,66,right,0.968855,calculator    ,7,9,1,1,1,396.119165,396.119165,398.60457,0,65,65,65,1,66,6,7,dolphin     ,calculator    ,html/resources/sequences_IDs/B/02_dolphin.jpg,html/resources/sequences_IDs/A/09_calculator.jpg,2,9,1,1,4,2,2,8,0,58,,,,,
,,,,,58,2020-07-04_15h59.19.643,retriever_ti,2020.1.3,Win32,60,Chrome,1920,1080,,,,,,,,,,,,,,,,,1,,,,,,,,,,,,,,,,,,,,,,,,,,,399.714985,67,right,1.533855,wolf          ,5,1,2,1,3,399.745025,399.745025,402.248895,0,66,66,66,1,67,3,5,hat           ,wolf          ,html/resources/sequences_IDs/A/08_hat.jpg,html/resources/sequences_IDs/A/01_wolf.jpg,8,1,3,2,1,1,7,1,0,58,,,,,
,,,,,58,2020-07-04_15h59.19.643,retriever_ti,2020.1.3,Win32,60,Chrome,1920,1080,,,,,,,,,,,,,,,,,1,,,,,,,,,,,,,,,,,,,,,,,,,,,402.852165,68,left,0.74667,camel         ,1,3,-5,0,3,402.90251,402.90251,405.389195,0,67,67,67,1,68,1,6,camel         ,dolphin     ,html/resources/sequences_IDs/A/03_camel.jpg,html/resources/sequences_IDs/B/02_dolphin.jpg,3,2,1,1,1,1,3,2,0,58,,,,,
,,,,,58,2020-07-04_15h59.19.643,retriever_ti,2020.1.3,Win32,60,Chrome,1920,1080,,,,,,,,,,,,,,,,,1,,,,,,,,,,,,,,,,,,,,,,,,,,,406.00096,69,NaN,NaN,No_response,NaN,NaN,NaN,2,2,406.05681,406.05681,408.56051,0,68,68,68,1,69,4,3,gloves      ,hat           ,html/resources/sequences_IDs/B/06_gloves.jpg,html/resources/sequences_IDs/A/08_hat.jpg,6,8,3,2,3,2,5,7,1,58,,,,,
,,,,,58,2020-07-04_15h59.19.643,retriever_ti,2020.1.3,Win32,60,Chrome,1920,1080,,,,,,,,,,,,,,,,,1,,,,,,,,,,,,,,,,,,,,,,,,,,,409.656755,70,left,0.94594,dolphin     ,6,2,-1,0,0,409.70185,409.70185,412.204215,0,69,69,69,1,70,6,7,dolphin     ,calculator    ,html/resources/sequences_IDs/B/02_dolphin.jpg,html/resources/sequences_IDs/A/09_calculator.jpg,2,9,1,1,4,2,2,8,0,58,,,,,
,,,,,58,2020-07-04_15h59.19.643,retriever_ti,2020.1.3,Win32,60,Chrome,1920,1080,,,,,,,,,,,,,,,,,1,,,,,,,,,,,,,,,,,,,,,,,,,,,413.29794,71,right,0.857325,sport_tshirt,8,7,4,1,3,413.36033,413.36033,415.86071,0,70,70,70,1,71,4,8,gloves      ,sport_tshirt,html/resources/sequences_IDs/B/06_gloves.jpg,html/resources/sequences_IDs/B/07_sport_tshirt.jpg,6,7,3,2,3,2,5,6,0,58,,,,,
,,,,,58,2020-07-04_15h59.19.643,retriever_ti,2020.1.3,Win32,60,Chrome,1920,1080,,,,,,,,,,,,,,,,,1,,,,,,,,,,,,,,,,,,,,,,,,,,,416.470145,72,left,0.669525,calculator    ,7,9,1,1,1,416.48914,416.48914,418.98013,0,71,71,71,1,72,7,6,calculator    ,dolphin     ,html/resources/sequences_IDs/A/09_calculator.jpg,html/resources/sequences_IDs/B/02_dolphin.jpg,9,2,4,2,1,1,8,2,0,58,,,,,
,,,,,58,2020-07-04_15h59.19.643,retriever_ti,2020.1.3,Win32,60,Chrome,1920,1080,,,,,,,,,,,,,,,,,1,,,,,,,,,,,,,,,,,,,,,,,,,,,420.09228,73,left,1.09482,holdfast    ,2,4,-1,0,0,420.13986,420.13986,422.62967,0,72,72,72,1,73,2,3,holdfast    ,hat           ,html/resources/sequences_IDs/B/04_holdfast.jpg,html/resources/sequences_IDs/A/08_hat.jpg,4,8,2,1,3,2,4,7,0,58,,,,,
,,,,,58,2020-07-04_15h59.19.643,retriever_ti,2020.1.3,Win32,60,Chrome,1920,1080,,,,,,,,,,,,,,,,,1,,,,,,,,,,,,,,,,,,,,,,,,,,,423.732575,74,right,0.73566,hat           ,3,8,1,1,1,423.76272,423.76272,426.24755,0,73,73,73,1,74,2,3,holdfast    ,hat           ,html/resources/sequences_IDs/B/04_holdfast.jpg,html/resources/sequences_IDs/A/08_hat.jpg,4,8,2,1,3,2,4,7,0,58,,,,,
,,,,,58,2020-07-04_15h59.19.643,retriever_ti,2020.1.3,Win32,60,Chrome,1920,1080,,,,,,,,,,,,,,,,,1,,,,,,,,,,,,,,,,,,,,,,,,,,,427.360785,75,right,1.40746,wolf          ,5,1,-2,0,3,427.40586,427.40586,429.907605,0,74,74,74,1,75,7,5,calculator    ,wolf          ,html/resources/sequences_IDs/A/09_calculator.jpg,html/resources/sequences_IDs/A/01_wolf.jpg,9,1,4,2,1,1,8,1,0,58,,,,,
,,,,,58,2020-07-04_15h59.19.643,retriever_ti,2020.1.3,Win32,60,Chrome,1920,1080,,,,,,,,,,,,,,,,,1,,,,,,,,,,,,,,,,,,,,,,,,,,,430.52707,76,left,1.669585,calculator    ,7,9,1,1,1,430.61229,430.61229,433.10856,0,75,75,75,1,76,7,6,calculator    ,dolphin     ,html/resources/sequences_IDs/A/09_calculator.jpg,html/resources/sequences_IDs/B/02_dolphin.jpg,9,2,4,2,1,1,8,2,0,58,,,,,
,,,,,58,2020-07-04_15h59.19.643,retriever_ti,2020.1.3,Win32,60,Chrome,1920,1080,,,,,,,,,,,,,,,,,1,,,,,,,,,,,,,,,,,,,,,,,,,,,434.209395,77,right,1.93409,sport_tshirt,8,7,7,1,3,434.2618,434.2618,436.77384,0,76,76,76,1,77,1,8,camel         ,sport_tshirt,html/resources/sequences_IDs/A/03_camel.jpg,html/resources/sequences_IDs/B/07_sport_tshirt.jpg,3,7,1,1,3,2,3,6,0,58,,,,,
,,,,,58,2020-07-04_15h59.19.643,retriever_ti,2020.1.3,Win32,60,Chrome,1920,1080,,,,,,,,,,,,,,,,,,,,,,,,,,,,,,,,,,,,,0,2.328905,,,,,,,,,,,,,,,,,,,,,,,,,,,,,,,,,,,,,,,,,0,0,0,0,1
,,,,,58,2020-07-04_15h59.19.643,retriever_ti,2020.1.3,Win32,60,Chrome,1920,1080,,,,,,,,,,,,,,,,,2,,,,,,,,,,,,,,,,,,,,,,,,,,,450.330005,78,left,1.161195,dolphin     ,6,2,-2,0,3,450.36413,450.36413,452.860535,0,0,0,0,1,78,6,8,dolphin     ,sport_tshirt,html/resources/sequences_IDs/B/02_dolphin.jpg,html/resources/sequences_IDs/B/07_sport_tshirt.jpg,2,7,1,1,3,2,2,6,0,58,,,,,
,,,,,58,2020-07-04_15h59.19.643,retriever_ti,2020.1.3,Win32,60,Chrome,1920,1080,,,,,,,,,,,,,,,,,2,,,,,,,,,,,,,,,,,,,,,,,,,,,453.47277,79,right,2.209455,dolphin     ,6,2,2,1,3,453.52095,453.52095,456.01526,0,1,1,1,1,79,4,6,gloves      ,dolphin     ,html/resources/sequences_IDs/B/06_gloves.jpg,html/resources/sequences_IDs/B/02_dolphin.jpg,6,2,3,2,1,1,5,2,0,58,,,,,
,,,,,58,2020-07-04_15h59.19.643,retriever_ti,2020.1.3,Win32,60,Chrome,1920,1080,,,,,,,,,,,,,,,,,2,,,,,,,,,,,,,,,,,,,,,,,,,,,456.61839,80,left,0.955685,camel         ,1,3,-1,0,0,456.657595,456.657595,459.155625,0,2,2,2,1,80,1,2,camel         ,holdfast    ,html/resources/sequences_IDs/A/03_camel.jpg,html/resources/sequences_IDs/B/04_holdfast.jpg,3,4,1,1,2,1,3,4,0,58,,,,,
,,,,,58,2020-07-04_15h59.19.643,retriever_ti,2020.1.3,Win32,60,Chrome,1920,1080,,,,,,,,,,,,,,,,,2,,,,,,,,,,,,,,,,,,,,,,,,,,,460.2517,81,left,1.00488,wolf          ,5,1,-1,0,0,460.27851,460.27851,462.7702,0,3,3,3,1,81,5,6,wolf          ,dolphin     ,html/resources/sequences_IDs/A/01_wolf.jpg,html/resources/sequences_IDs/B/02_dolphin.jpg,1,2,1,1,1,1,1,2,0,58,,,,,
,,,,,58,2020-07-04_15h59.19.643,retriever_ti,2020.1.3,Win32,60,Chrome,1920,1080,,,,,,,,,,,,,,,,,2,,,,,,,,,,,,,,,,,,,,,,,,,,,463.863615,82,right,1.15815,calculator    ,7,9,-1,0,1,463.912025,463.912025,466.419355,0,4,4,4,1,82,8,7,sport_tshirt,calculator    ,html/resources/sequences_IDs/B/07_sport_tshirt.jpg,html/resources/sequences_IDs/A/09_calculator.jpg,7,9,3,2,4,2,6,8,1,58,,,,,
,,,,,58,2020-07-04_15h59.19.643,retriever_ti,2020.1.3,Win32,60,Chrome,1920,1080,,,,,,,,,,,,,,,,,2,,,,,,,,,,,,,,,,,,,,,,,,,,,467.51408,83,right,0.77418,camel         ,1,3,-3,0,3,467.53109,467.53109,470.020905,0,5,5,5,1,83,4,1,gloves      ,camel         ,html/resources/sequences_IDs/B/06_gloves.jpg,html/resources/sequences_IDs/A/03_camel.jpg,6,3,3,2,1,1,5,3,0,58,,,,,
,,,,,58,2020-07-04_15h59.19.643,retriever_ti,2020.1.3,Win32,60,Chrome,1920,1080,,,,,,,,,,,,,,,,,2,,,,,,,,,,,,,,,,,,,,,,,,,,,470.64119,84,left,1.3564,calculator    ,7,9,3,1,3,470.692685,470.692685,473.17929,0,6,6,6,1,84,7,4,calculator    ,gloves      ,html/resources/sequences_IDs/A/09_calculator.jpg,html/resources/sequences_IDs/B/06_gloves.jpg,9,6,4,2,3,2,8,5,0,58,,,,,
,,,,,58,2020-07-04_15h59.19.643,retriever_ti,2020.1.3,Win32,60,Chrome,1920,1080,,,,,,,,,,,,,,,,,2,,,,,,,,,,,,,,,,,,,,,,,,,,,473.78441,85,right,1.408165,sport_tshirt,8,7,5,1,3,473.8291,473.8291,476.32342,0,7,7,7,1,85,3,8,hat           ,sport_tshirt,html/resources/sequences_IDs/A/08_hat.jpg,html/resources/sequences_IDs/B/07_sport_tshirt.jpg,8,7,3,2,3,2,7,6,0,58,,,,,
,,,,,58,2020-07-04_15h59.19.643,retriever_ti,2020.1.3,Win32,60,Chrome,1920,1080,,,,,,,,,,,,,,,,,2,,,,,,,,,,,,,,,,,,,,,,,,,,,476.94899,86,left,0.77612,camel         ,1,3,-6,0,3,476.99678,476.99678,479.494655,0,8,8,8,1,86,1,7,camel         ,calculator    ,html/resources/sequences_IDs/A/03_camel.jpg,html/resources/sequences_IDs/A/09_calculator.jpg,3,9,1,1,4,2,3,8,0,58,,,,,
,,,,,58,2020-07-04_15h59.19.643,retriever_ti,2020.1.3,Win32,60,Chrome,1920,1080,,,,,,,,,,,,,,,,,2,,,,,,,,,,,,,,,,,,,,,,,,,,,480.114525,87,right,0.99588,calculator    ,7,9,1,1,1,480.148125,480.148125,482.648765,0,9,9,9,1,87,6,7,dolphin     ,calculator    ,html/resources/sequences_IDs/B/02_dolphin.jpg,html/resources/sequences_IDs/A/09_calculator.jpg,2,9,1,1,4,2,2,8,0,58,,,,,
,,,,,58,2020-07-04_15h59.19.643,retriever_ti,2020.1.3,Win32,60,Chrome,1920,1080,,,,,,,,,,,,,,,,,2,,,,,,,,,,,,,,,,,,,,,,,,,,,483.750215,88,left,1.09201,hat           ,3,8,-1,0,0,483.77017,483.77017,486.27511,0,10,10,10,1,88,3,4,hat           ,gloves      ,html/resources/sequences_IDs/A/08_hat.jpg,html/resources/sequences_IDs/B/06_gloves.jpg,8,6,3,2,3,2,7,5,0,58,,,,,
,,,,,58,2020-07-04_15h59.19.643,retriever_ti,2020.1.3,Win32,60,Chrome,1920,1080,,,,,,,,,,,,,,,,,2,,,,,,,,,,,,,,,,,,,,,,,,,,,487.38146,89,NaN,NaN,No_response,NaN,NaN,NaN,2,2,487.426615,487.426615,489.909585,0,11,11,11,1,89,7,6,calculator    ,dolphin     ,html/resources/sequences_IDs/A/09_calculator.jpg,html/resources/sequences_IDs/B/02_dolphin.jpg,9,2,4,2,1,1,8,2,0,58,,,,,
,,,,,58,2020-07-04_15h59.19.643,retriever_ti,2020.1.3,Win32,60,Chrome,1920,1080,,,,,,,,,,,,,,,,,2,,,,,,,,,,,,,,,,,,,,,,,,,,,491.000435,90,NaN,NaN,No_response,NaN,NaN,NaN,2,2,491.03275,491.03275,493.519795,0,12,12,12,1,90,7,3,calculator    ,hat           ,html/resources/sequences_IDs/A/09_calculator.jpg,html/resources/sequences_IDs/A/08_hat.jpg,9,8,4,2,3,2,8,7,0,58,,,,,
