instructionsLoop.thisRepN,instructionsLoop.thisTrialN,instructionsLoop.thisN,instructionsLoop.thisIndex,instructionsLoop.ran,participant,date,expName,psychopyVersion,OS,frameRate,browser,xResolution,yResolution,fix_onset,tprac,practiceKey.keys,practiceKey.rt,pracitem_chosen_name,acc_practice,P1_onsetPrac,P2_onsetPrac,onsetFeedbPrac,practiceTrials.thisRepN,practiceTrials.thisTrialN,practiceTrials.thisN,practiceTrials.thisIndex,practiceTrials.ran,P1,P2,Block,LocItem1,LocItem2,NameItem1,NameItem2,key_respAC_prac.keys,key_respAC_prac.corr,key_respAC_prac.rt,AC_acc,Attentions.thisRepN,Attentions.thisTrialN,Attentions.thisN,Attentions.thisIndex,Attentions.ran,Stim,Loc1,Loc2,Loc3,Loc4,CorrAns,keyDisturbed.keys,keyDisturbed.rt,repPractice.thisRepN,repPractice.thisTrialN,repPractice.thisN,repPractice.thisIndex,repPractice.ran,fixcross_onsetMain,trialNumber,key_resp.keys,key_resp.rt,item_chosen_name,item_chosen_value,item_chosen_ID,diff_chosen_minus_reject,acc_real,acc_feedback,P1_onset,P2_onset,feedb_onset,trials.thisRepN,trials.thisTrialN,trials.thisN,trials.thisIndex,trials.ran,Trial,ValueP1,ValueP2,P1name,P2name,P1Loc,P2Loc,P1id,P2id,Micro_categoryP1,Macro_categoryP1,Micro_categoryP2,Macro_categoryP2,ID_sequenceP1,ID_sequenceP2,InverseFb,pNumber,repBlocks.thisRepN,repBlocks.thisTrialN,repBlocks.thisN,repBlocks.thisIndex,repBlocks.ran,key_respAC.keys,key_respAC.corr,key_respAC.rt,trials_AC.thisRepN,trials_AC.thisTrialN,trials_AC.thisN,trials_AC.thisIndex,trials_AC.ran,Bonus,BonusLoop.thisRepN,BonusLoop.thisTrialN,BonusLoop.thisN,BonusLoop.thisIndex,BonusLoop.ran,comments
0,0,0,0,1,59,2020-07-04_16h02.14.282,retriever_ti,2020.1.3,Win32,60,Chrome,1366,768,,,,,,,,,,,,,,,,,,,,,,,,,,,,,,,,,,,,,,,,,,,,,,,,,,,,,,,,,,,,,,,,,,,,,,,,,,,,,,,,,,,,,,,,,,,,,,,,,,
1,0,1,0,1,59,2020-07-04_16h02.14.282,retriever_ti,2020.1.3,Win32,60,Chrome,1366,768,,,,,,,,,,,,,,,,,,,,,,,,,,,,,,,,,,,,,,,,,,,,,,,,,,,,,,,,,,,,,,,,,,,,,,,,,,,,,,,,,,,,,,,,,,,,,,,,,,
2,0,2,0,1,59,2020-07-04_16h02.14.282,retriever_ti,2020.1.3,Win32,60,Chrome,1366,768,,,,,,,,,,,,,,,,,,,,,,,,,,,,,,,,,,,,,,,,,,,,,,,,,,,,,,,,,,,,,,,,,,,,,,,,,,,,,,,,,,,,,,,,,,,,,,,,,,
3,0,3,0,1,59,2020-07-04_16h02.14.282,retriever_ti,2020.1.3,Win32,60,Chrome,1366,768,,,,,,,,,,,,,,,,,,,,,,,,,,,,,,,,,,,,,,,,,,,,,,,,,,,,,,,,,,,,,,,,,,,,,,,,,,,,,,,,,,,,,,,,,,,,,,,,,,
4,0,4,0,1,59,2020-07-04_16h02.14.282,retriever_ti,2020.1.3,Win32,60,Chrome,1366,768,,,,,,,,,,,,,,,,,,,,,,,,,,,,,,,,,,,,,,,,,,,,,,,,,,,,,,,,,,,,,,,,,,,,,,,,,,,,,,,,,,,,,,,,,,,,,,,,,,
5,0,5,0,1,59,2020-07-04_16h02.14.282,retriever_ti,2020.1.3,Win32,60,Chrome,1366,768,,,,,,,,,,,,,,,,,,,,,,,,,,,,,,,,,,,,,,,,,,,,,,,,,,,,,,,,,,,,,,,,,,,,,,,,,,,,,,,,,,,,,,,,,,,,,,,,,,
6,0,6,0,1,59,2020-07-04_16h02.14.282,retriever_ti,2020.1.3,Win32,60,Chrome,1366,768,,,,,,,,,,,,,,,,,,,,,,,,,,,,,,,,,,,,,,,,,,,,,,,,,,,,,,,,,,,,,,,,,,,,,,,,,,,,,,,,,,,,,,,,,,,,,,,,,,
7,0,7,0,1,59,2020-07-04_16h02.14.282,retriever_ti,2020.1.3,Win32,60,Chrome,1366,768,,,,,,,,,,,,,,,,,,,,,,,,,,,,,,,,,,,,,,,,,,,,,,,,,,,,,,,,,,,,,,,,,,,,,,,,,,,,,,,,,,,,,,,,,,,,,,,,,,
8,0,8,0,1,59,2020-07-04_16h02.14.282,retriever_ti,2020.1.3,Win32,60,Chrome,1366,768,,,,,,,,,,,,,,,,,,,,,,,,,,,,,,,,,,,,,,,,,,,,,,,,,,,,,,,,,,,,,,,,,,,,,,,,,,,,,,,,,,,,,,,,,,,,,,,,,,
9,0,9,0,1,59,2020-07-04_16h02.14.282,retriever_ti,2020.1.3,Win32,60,Chrome,1366,768,,,,,,,,,,,,,,,,,,,,,,,,,,,,,,,,,,,,,,,,,,,,,,,,,,,,,,,,,,,,,,,,,,,,,,,,,,,,,,,,,,,,,,,,,,,,,,,,,,
10,0,10,0,1,59,2020-07-04_16h02.14.282,retriever_ti,2020.1.3,Win32,60,Chrome,1366,768,,,,,,,,,,,,,,,,,,,,,,,,,,,,,,,,,,,,,,,,,,,,,,,,,,,,,,,,,,,,,,,,,,,,,,,,,,,,,,,,,,,,,,,,,,,,,,,,,,
11,0,11,0,1,59,2020-07-04_16h02.14.282,retriever_ti,2020.1.3,Win32,60,Chrome,1366,768,,,,,,,,,,,,,,,,,,,,,,,,,,,,,,,,,,,,,,,,,,,,,,,,,,,,,,,,,,,,,,,,,,,,,,,,,,,,,,,,,,,,,,,,,,,,,,,,,,
12,0,12,0,1,59,2020-07-04_16h02.14.282,retriever_ti,2020.1.3,Win32,60,Chrome,1366,768,,,,,,,,,,,,,,,,,,,,,,,,,,,,,,,,,,,,,,,,,,,,,,,,,,,,,,,,,,,,,,,,,,,,,,,,,,,,,,,,,,,,,,,,,,,,,,,,,,
13,0,13,0,1,59,2020-07-04_16h02.14.282,retriever_ti,2020.1.3,Win32,60,Chrome,1366,768,,,,,,,,,,,,,,,,,,,,,,,,,,,,,,,,,,,,,,,,,,,,,,,,,,,,,,,,,,,,,,,,,,,,,,,,,,,,,,,,,,,,,,,,,,,,,,,,,,
14,0,14,0,1,59,2020-07-04_16h02.14.282,retriever_ti,2020.1.3,Win32,60,Chrome,1366,768,,,,,,,,,,,,,,,,,,,,,,,,,,,,,,,,,,,,,,,,,,,,,,,,,,,,,,,,,,,,,,,,,,,,,,,,,,,,,,,,,,,,,,,,,,,,,,,,,,
15,0,15,0,1,59,2020-07-04_16h02.14.282,retriever_ti,2020.1.3,Win32,60,Chrome,1366,768,,,,,,,,,,,,,,,,,,,,,,,,,,,,,,,,,,,,,,,,,,,,,,,,,,,,,,,,,,,,,,,,,,,,,,,,,,,,,,,,,,,,,,,,,,,,,,,,,,
16,0,16,0,1,59,2020-07-04_16h02.14.282,retriever_ti,2020.1.3,Win32,60,Chrome,1366,768,,,,,,,,,,,,,,,,,,,,,,,,,,,,,,,,,,,,,,,,,,,,,,,,,,,,,,,,,,,,,,,,,,,,,,,,,,,,,,,,,,,,,,,,,,,,,,,,,,
17,0,17,0,1,59,2020-07-04_16h02.14.282,retriever_ti,2020.1.3,Win32,60,Chrome,1366,768,,,,,,,,,,,,,,,,,,,,,,,,,,,,,,,,,,,,,,,,,,,,,,,,,,,,,,,,,,,,,,,,,,,,,,,,,,,,,,,,,,,,,,,,,,,,,,,,,,
,,,,,59,2020-07-04_16h02.14.282,retriever_ti,2020.1.3,Win32,60,Chrome,1366,768,131.611965,1,NaN,NaN,No_response,2,131.66466,131.66466,134.182075,0,0,0,0,1,2,5,1,html/resources/stimuli_practice_decision/04_beetle.jpg,html/resources/stimuli_practice_decision/02_canary.jpg,beetle,canary,,,,,,,,,,,,,,,,,,,,,,,,,,,,,,,,,,,,,,,,,,,,,,,,,,,,,,,,,,,,,,,,,,,,,,,,,,,,,
,,,,,59,2020-07-04_16h02.14.282,retriever_ti,2020.1.3,Win32,60,Chrome,1366,768,134.972695,2,left,0.90024,rabbit,1,134.997915,134.997915,137.50012,0,1,1,1,1,4,3,1,html/resources/stimuli_practice_decision/01_rabbit.jpg,html/resources/stimuli_practice_decision/07_sock.jpg,rabbit,sock,,,,,,,,,,,,,,,,,,,,,,,,,,,,,,,,,,,,,,,,,,,,,,,,,,,,,,,,,,,,,,,,,,,,,,,,,,,,,
,,,,,59,2020-07-04_16h02.14.282,retriever_ti,2020.1.3,Win32,60,Chrome,1366,768,138.49871,3,right,1.896835,beetle,0,138.51552,138.51552,141.00433,0,2,2,2,1,6,2,1,html/resources/stimuli_practice_decision/06_pullover.jpg,html/resources/stimuli_practice_decision/04_beetle.jpg,pullover,beetle,,,,,,,,,,,,,,,,,,,,,,,,,,,,,,,,,,,,,,,,,,,,,,,,,,,,,,,,,,,,,,,,,,,,,,,,,,,,,
,,,,,59,2020-07-04_16h02.14.282,retriever_ti,2020.1.3,Win32,60,Chrome,1366,768,141.515095,4,right,2.08469,handmixer,0,141.531195,141.531195,144.033925,0,3,3,3,1,7,1,1,html/resources/stimuli_practice_decision/05_glasses.jpg,html/resources/stimuli_practice_decision/08_handmixer.jpg,glasses,handmixer,,,,,,,,,,,,,,,,,,,,,,,,,,,,,,,,,,,,,,,,,,,,,,,,,,,,,,,,,,,,,,,,,,,,,,,,,,,,,
,,,,,59,2020-07-04_16h02.14.282,retriever_ti,2020.1.3,Win32,60,Chrome,1366,768,144.548195,5,right,1.670285,pullover,0,144.56537,144.56537,147.068605,0,4,4,4,1,7,6,1,html/resources/stimuli_practice_decision/05_glasses.jpg,html/resources/stimuli_practice_decision/06_pullover.jpg,glasses,pullover,,,,,,,,,,,,,,,,,,,,,,,,,,,,,,,,,,,,,,,,,,,,,,,,,,,,,,,,,,,,,,,,,,,,,,,,,,,,,
,,,,,59,2020-07-04_16h02.14.282,retriever_ti,2020.1.3,Win32,60,Chrome,1366,768,148.06491,6,NaN,NaN,No_response,2,148.09814,148.09814,150.600005,0,5,5,5,1,4,7,1,html/resources/stimuli_practice_decision/01_rabbit.jpg,html/resources/stimuli_practice_decision/05_glasses.jpg,rabbit,glasses,,,,,,,,,,,,,,,,,,,,,,,,,,,,,,,,,,,,,,,,,,,,,,,,,,,,,,,,,,,,,,,,,,,,,,,,,,,,,
,,,,,59,2020-07-04_16h02.14.282,retriever_ti,2020.1.3,Win32,60,Chrome,1366,768,151.596505,7,right,0.925805,beetle,1,151.613345,151.613345,154.099605,0,6,6,6,1,1,2,1,html/resources/stimuli_practice_decision/08_handmixer.jpg,html/resources/stimuli_practice_decision/04_beetle.jpg,handmixer,beetle,,,,,,,,,,,,,,,,,,,,,,,,,,,,,,,,,,,,,,,,,,,,,,,,,,,,,,,,,,,,,,,,,,,,,,,,,,,,,
,,,,,59,2020-07-04_16h02.14.282,retriever_ti,2020.1.3,Win32,60,Chrome,1366,768,155.095695,8,left,1.92278,rabbit,1,155.128705,155.128705,157.63235,0,7,7,7,1,4,3,1,html/resources/stimuli_practice_decision/01_rabbit.jpg,html/resources/stimuli_practice_decision/07_sock.jpg,rabbit,sock,,,,,,,,,,,,,,,,,,,,,,,,,,,,,,,,,,,,,,,,,,,,,,,,,,,,,,,,,,,,,,,,,,,,,,,,,,,,,
,,,,,59,2020-07-04_16h02.14.282,retriever_ti,2020.1.3,Win32,60,Chrome,1366,768,,,,,,,,,,,,,,,,,,,,,,up,1,7.177305,1,0,0,0,0,1,html/resources/sequences_IDs/circle.png,circle ↑,square →,triangle ↓,← star ,up,,,,,,,,,,,,,,,,,,,,,,,,,,,,,,,,,,,,,,,,,,,,,,,,,,,,,,,,,,,,,,
,,,,,59,2020-07-04_16h02.14.282,retriever_ti,2020.1.3,Win32,60,Chrome,1366,768,,,,,,,,,,,,,,,,,,,,,,down,1,2.174425,1,0,1,1,1,1,html/resources/sequences_IDs/star.png,square ↑,circle →,star ↓,← triangle,down,,,,,,,,,,,,,,,,,,,,,,,,,,,,,,,,,,,,,,,,,,,,,,,,,,,,,,,,,,,,,,
,,,,,59,2020-07-04_16h02.14.282,retriever_ti,2020.1.3,Win32,60,Chrome,1366,768,,,,,,,,,,,,,,,,,,,,,,left,1,1.66141,1,0,2,2,2,1,html/resources/sequences_IDs/square1.png,star ↑,triangle →,circle ↓,← square,left,,,,,,,,,,,,,,,,,,,,,,,,,,,,,,,,,,,,,,,,,,,,,,,,,,,,,,,,,,,,,,
,,,,,59,2020-07-04_16h02.14.282,retriever_ti,2020.1.3,Win32,60,Chrome,1366,768,,,,,,,,,,,,,,,,,,,,,,down,1,1.546465,1,0,3,3,3,1,html/resources/sequences_IDs/triangle.png,star ↑,square →,triangle ↓,← circle,down,,,,,,,,,,,,,,,,,,,,,,,,,,,,,,,,,,,,,,,,,,,,,,,,,,,,,,,,,,,,,,
,,,,,59,2020-07-04_16h02.14.282,retriever_ti,2020.1.3,Win32,60,Chrome,1366,768,,,,,,,,,,,,,,,,,,,,,,,,,,,,,,,,,,,,,0,4.16463,0,0,0,0,1,,,,,,,,,,,,,,,,,,,,,,,,,,,,,,,,,,,,,,,,,,,,,,,,,,,,,,,
,,,,,59,2020-07-04_16h02.14.282,retriever_ti,2020.1.3,Win32,60,Chrome,1366,768,202.89221,9,NaN,NaN,No_response,2,202.92207,202.92207,205.408995,0,0,0,0,1,6,7,1,html/resources/stimuli_practice_decision/06_pullover.jpg,html/resources/stimuli_practice_decision/05_glasses.jpg,pullover,glasses,,,,,,,,,,,,,,,,,,,,,,,,,,,,,,,,,,,,,,,,,,,,,,,,,,,,,,,,,,,,,,,,,,,,,,,,,,,,,
,,,,,59,2020-07-04_16h02.14.282,retriever_ti,2020.1.3,Win32,60,Chrome,1366,768,206.40421,10,right,1.357195,beetle,0,206.421765,206.421765,208.92406,0,1,1,1,1,6,2,1,html/resources/stimuli_practice_decision/06_pullover.jpg,html/resources/stimuli_practice_decision/04_beetle.jpg,pullover,beetle,,,,,,,,,,,,,,,,,,,,,,,,,,,,,,,,,,,,,,,,,,,,,,,,,,,,,,,,,,,,,,,,,,,,,,,,,,,,,
,,,,,59,2020-07-04_16h02.14.282,retriever_ti,2020.1.3,Win32,60,Chrome,1366,768,209.43937,11,left,1.18074,canary,0,209.457,209.457,211.958995,0,2,2,2,1,5,6,1,html/resources/stimuli_practice_decision/02_canary.jpg,html/resources/stimuli_practice_decision/06_pullover.jpg,canary,pullover,,,,,,,,,,,,,,,,,,,,,,,,,,,,,,,,,,,,,,,,,,,,,,,,,,,,,,,,,,,,,,,,,,,,,,,,,,,,,
,,,,,59,2020-07-04_16h02.14.282,retriever_ti,2020.1.3,Win32,60,Chrome,1366,768,212.95501,12,right,1.737275,glasses,0,212.98761,212.98761,215.47432,0,3,3,3,1,8,7,1,html/resources/stimuli_practice_decision/03_squirrel.jpg,html/resources/stimuli_practice_decision/05_glasses.jpg,squirrel,glasses,,,,,,,,,,,,,,,,,,,,,,,,,,,,,,,,,,,,,,,,,,,,,,,,,,,,,,,,,,,,,,,,,,,,,,,,,,,,,
,,,,,59,2020-07-04_16h02.14.282,retriever_ti,2020.1.3,Win32,60,Chrome,1366,768,216.47009,13,right,2.154315,sock,0,216.486765,216.486765,218.973985,0,4,4,4,1,5,3,1,html/resources/stimuli_practice_decision/02_canary.jpg,html/resources/stimuli_practice_decision/07_sock.jpg,canary,sock,,,,,,,,,,,,,,,,,,,,,,,,,,,,,,,,,,,,,,,,,,,,,,,,,,,,,,,,,,,,,,,,,,,,,,,,,,,,,
,,,,,59,2020-07-04_16h02.14.282,retriever_ti,2020.1.3,Win32,60,Chrome,1366,768,219.489585,14,left,2.06012,glasses,0,219.5226,219.5226,222.008575,0,5,5,5,1,7,8,1,html/resources/stimuli_practice_decision/05_glasses.jpg,html/resources/stimuli_practice_decision/03_squirrel.jpg,glasses,squirrel,,,,,,,,,,,,,,,,,,,,,,,,,,,,,,,,,,,,,,,,,,,,,,,,,,,,,,,,,,,,,,,,,,,,,,,,,,,,,
,,,,,59,2020-07-04_16h02.14.282,retriever_ti,2020.1.3,Win32,60,Chrome,1366,768,223.005095,15,NaN,NaN,No_response,2,223.02189,223.02189,225.508035,0,6,6,6,1,5,4,1,html/resources/stimuli_practice_decision/02_canary.jpg,html/resources/stimuli_practice_decision/01_rabbit.jpg,canary,rabbit,,,,,,,,,,,,,,,,,,,,,,,,,,,,,,,,,,,,,,,,,,,,,,,,,,,,,,,,,,,,,,,,,,,,,,,,,,,,,
,,,,,59,2020-07-04_16h02.14.282,retriever_ti,2020.1.3,Win32,60,Chrome,1366,768,226.5031,16,left,0.873875,canary,1,226.519925,226.519925,229.07374,0,7,7,7,1,5,3,1,html/resources/stimuli_practice_decision/02_canary.jpg,html/resources/stimuli_practice_decision/07_sock.jpg,canary,sock,,,,,,,,,,,,,,,,,,,,,,,,,,,,,,,,,,,,,,,,,,,,,,,,,,,,,,,,,,,,,,,,,,,,,,,,,,,,,
,,,,,59,2020-07-04_16h02.14.282,retriever_ti,2020.1.3,Win32,60,Chrome,1366,768,,,,,,,,,,,,,,,,,,,,,,left,1,1.37667,1,0,0,0,2,1,html/resources/sequences_IDs/square1.png,star ↑,triangle →,circle ↓,← square,left,,,,,,,,,,,,,,,,,,,,,,,,,,,,,,,,,,,,,,,,,,,,,,,,,,,,,,,,,,,,,,
,,,,,59,2020-07-04_16h02.14.282,retriever_ti,2020.1.3,Win32,60,Chrome,1366,768,,,,,,,,,,,,,,,,,,,,,,down,1,1.1372,1,0,1,1,3,1,html/resources/sequences_IDs/triangle.png,star ↑,square →,triangle ↓,← circle,down,,,,,,,,,,,,,,,,,,,,,,,,,,,,,,,,,,,,,,,,,,,,,,,,,,,,,,,,,,,,,,
,,,,,59,2020-07-04_16h02.14.282,retriever_ti,2020.1.3,Win32,60,Chrome,1366,768,,,,,,,,,,,,,,,,,,,,,,down,1,1.77346,1,0,2,2,1,1,html/resources/sequences_IDs/star.png,square ↑,circle →,star ↓,← triangle,down,,,,,,,,,,,,,,,,,,,,,,,,,,,,,,,,,,,,,,,,,,,,,,,,,,,,,,,,,,,,,,
,,,,,59,2020-07-04_16h02.14.282,retriever_ti,2020.1.3,Win32,60,Chrome,1366,768,,,,,,,,,,,,,,,,,,,,,,up,1,1.29973,1,0,3,3,0,1,html/resources/sequences_IDs/circle.png,circle ↑,square →,triangle ↓,← star ,up,,,,,,,,,,,,,,,,,,,,,,,,,,,,,,,,,,,,,,,,,,,,,,,,,,,,,,,,,,,,,,
,,,,,59,2020-07-04_16h02.14.282,retriever_ti,2020.1.3,Win32,60,Chrome,1366,768,,,,,,,,,,,,,,,,,,,,,,,,,,,,,,,,,,,,,0,2.393905,1,0,1,0,1,,,,,,,,,,,,,,,,,,,,,,,,,,,,,,,,,,,,,,,,,,,,,,,,,,,,,,,
,,,,,59,2020-07-04_16h02.14.282,retriever_ti,2020.1.3,Win32,60,Chrome,1366,768,,,,,,,,,,,,,,,,,1,,,,,,,,,,,,,,,,,,,,,,,,,,,261.75057,1,right,1.025475,seaturtle     ,1,2,-3,0,3,261.77918,261.77918,264.280515,0,0,0,0,1,1,4,1,phone       ,seaturtle     ,html/resources/sequences_IDs/B/09_phone.jpg,html/resources/sequences_IDs/A/02_seaturtle.jpg,9,2,4,2,2,1,7,2,0,59,,,,,,,,,,,,,,,,,,,,
,,,,,59,2020-07-04_16h02.14.282,retriever_ti,2020.1.3,Win32,60,Chrome,1366,768,,,,,,,,,,,,,,,,,1,,,,,,,,,,,,,,,,,,,,,,,,,,,264.89464,2,left,1.113015,seaturtle     ,1,2,-1,0,0,264.90977,264.90977,267.39704,0,1,1,1,1,2,1,2,seaturtle     ,redfox      ,html/resources/sequences_IDs/A/02_seaturtle.jpg,html/resources/sequences_IDs/B/01_redfox.jpg,2,1,2,1,1,1,2,1,0,59,,,,,,,,,,,,,,,,,,,,
,,,,,59,2020-07-04_16h02.14.282,retriever_ti,2020.1.3,Win32,60,Chrome,1366,768,,,,,,,,,,,,,,,,,1,,,,,,,,,,,,,,,,,,,,,,,,,,,268.49201,3,left,1.01856,redfox      ,2,1,-4,0,3,268.526055,268.526055,271.029165,0,2,2,2,1,3,2,6,redfox      ,radio       ,html/resources/sequences_IDs/B/01_redfox.jpg,html/resources/sequences_IDs/B/10_radio.jpg,1,10,1,1,4,2,1,8,0,59,,,,,,,,,,,,,,,,,,,,
,,,,,59,2020-07-04_16h02.14.282,retriever_ti,2020.1.3,Win32,60,Chrome,1366,768,,,,,,,,,,,,,,,,,1,,,,,,,,,,,,,,,,,,,,,,,,,,,271.642595,4,left,1.19508,parrot      ,8,5,3,1,3,271.659835,271.659835,274.14646,0,3,3,3,1,4,8,5,parrot      ,scarf         ,html/resources/sequences_IDs/B/05_parrot.jpg,html/resources/sequences_IDs/A/06_scarf.jpg,5,6,2,1,3,2,4,5,0,59,,,,,,,,,,,,,,,,,,,,
,,,,,59,2020-07-04_16h02.14.282,retriever_ti,2020.1.3,Win32,60,Chrome,1366,768,,,,,,,,,,,,,,,,,1,,,,,,,,,,,,,,,,,,,,,,,,,,,274.760975,5,left,1.470435,redfox      ,2,1,-1,0,0,274.77804,274.77804,277.28133,0,4,4,4,1,5,2,3,redfox      ,dress         ,html/resources/sequences_IDs/B/01_redfox.jpg,html/resources/sequences_IDs/A/07_dress.jpg,1,7,1,1,3,2,1,6,0,59,,,,,,,,,,,,,,,,,,,,
,,,,,59,2020-07-04_16h02.14.282,retriever_ti,2020.1.3,Win32,60,Chrome,1366,768,,,,,,,,,,,,,,,,,1,,,,,,,,,,,,,,,,,,,,,,,,,,,278.37724,6,right,1.392335,parrot      ,8,5,1,1,1,278.41237,278.41237,280.89665,0,5,5,5,1,6,7,8,clownfish     ,parrot      ,html/resources/sequences_IDs/A/04_clownfish.jpg,html/resources/sequences_IDs/B/05_parrot.jpg,4,5,2,1,2,1,3,4,0,59,,,,,,,,,,,,,,,,,,,,
,,,,,59,2020-07-04_16h02.14.282,retriever_ti,2020.1.3,Win32,60,Chrome,1366,768,,,,,,,,,,,,,,,,,1,,,,,,,,,,,,,,,,,,,,,,,,,,,281.9913,7,left,1.273715,scarf         ,5,6,-1,0,0,282.008145,282.008145,284.511785,0,6,6,6,1,7,5,6,scarf         ,radio       ,html/resources/sequences_IDs/A/06_scarf.jpg,html/resources/sequences_IDs/B/10_radio.jpg,6,10,3,2,4,2,5,8,0,59,,,,,,,,,,,,,,,,,,,,
,,,,,59,2020-07-04_16h02.14.282,retriever_ti,2020.1.3,Win32,60,Chrome,1366,768,,,,,,,,,,,,,,,,,1,,,,,,,,,,,,,,,,,,,,,,,,,,,285.606305,8,right,1.62028,clownfish     ,7,4,3,1,3,285.62353,285.62353,288.126355,0,7,7,7,1,8,4,7,phone       ,clownfish     ,html/resources/sequences_IDs/B/09_phone.jpg,html/resources/sequences_IDs/A/04_clownfish.jpg,9,4,4,2,2,1,7,3,0,59,,,,,,,,,,,,,,,,,,,,
,,,,,59,2020-07-04_16h02.14.282,retriever_ti,2020.1.3,Win32,60,Chrome,1366,768,,,,,,,,,,,,,,,,,1,,,,,,,,,,,,,,,,,,,,,,,,,,,288.740865,9,right,1.317445,clownfish     ,7,4,6,1,3,288.774165,288.774165,291.290685,0,8,8,8,1,9,1,7,seaturtle     ,clownfish     ,html/resources/sequences_IDs/A/02_seaturtle.jpg,html/resources/sequences_IDs/A/04_clownfish.jpg,2,4,2,1,2,1,2,3,0,59,,,,,,,,,,,,,,,,,,,,
,,,,,59,2020-07-04_16h02.14.282,retriever_ti,2020.1.3,Win32,60,Chrome,1366,768,,,,,,,,,,,,,,,,,1,,,,,,,,,,,,,,,,,,,,,,,,,,,291.891505,10,left,1.31592,scarf         ,5,6,2,1,3,291.908355,291.908355,294.39493,0,9,9,9,1,10,5,3,scarf         ,dress         ,html/resources/sequences_IDs/A/06_scarf.jpg,html/resources/sequences_IDs/A/07_dress.jpg,6,7,3,2,3,2,5,6,0,59,,,,,,,,,,,,,,,,,,,,
,,,,,59,2020-07-04_16h02.14.282,retriever_ti,2020.1.3,Win32,60,Chrome,1366,768,,,,,,,,,,,,,,,,,1,,,,,,,,,,,,,,,,,,,,,,,,,,,295.008775,11,left,0.970465,scarf         ,5,6,1,1,1,295.042915,295.042915,297.52962,0,10,10,10,1,11,5,4,scarf         ,phone       ,html/resources/sequences_IDs/A/06_scarf.jpg,html/resources/sequences_IDs/B/09_phone.jpg,6,9,3,2,4,2,5,7,0,59,,,,,,,,,,,,,,,,,,,,
,,,,,59,2020-07-04_16h02.14.282,retriever_ti,2020.1.3,Win32,60,Chrome,1366,768,,,,,,,,,,,,,,,,,1,,,,,,,,,,,,,,,,,,,,,,,,,,,298.623585,12,left,1.29081,scarf         ,5,6,-2,0,3,298.657985,298.657985,301.16149,0,11,11,11,1,12,5,7,scarf         ,clownfish     ,html/resources/sequences_IDs/A/06_scarf.jpg,html/resources/sequences_IDs/A/04_clownfish.jpg,6,4,3,2,2,1,5,3,0,59,,,,,,,,,,,,,,,,,,,,
,,,,,59,2020-07-04_16h02.14.282,retriever_ti,2020.1.3,Win32,60,Chrome,1366,768,,,,,,,,,,,,,,,,,1,,,,,,,,,,,,,,,,,,,,,,,,,,,301.775115,13,left,1.417735,parrot      ,8,5,2,1,3,301.80928,301.80928,304.29572,0,12,12,12,1,13,8,6,parrot      ,radio       ,html/resources/sequences_IDs/B/05_parrot.jpg,html/resources/sequences_IDs/B/10_radio.jpg,5,10,2,1,4,2,4,8,0,59,,,,,,,,,,,,,,,,,,,,
,,,,,59,2020-07-04_16h02.14.282,retriever_ti,2020.1.3,Win32,60,Chrome,1366,768,,,,,,,,,,,,,,,,,1,,,,,,,,,,,,,,,,,,,,,,,,,,,304.909645,14,right,1.14381,dress         ,3,7,-3,0,3,304.926815,304.926815,307.4296,0,13,13,13,1,14,6,3,radio       ,dress         ,html/resources/sequences_IDs/B/10_radio.jpg,html/resources/sequences_IDs/A/07_dress.jpg,10,7,4,2,3,2,8,6,0,59,,,,,,,,,,,,,,,,,,,,
,,,,,59,2020-07-04_16h02.14.282,retriever_ti,2020.1.3,Win32,60,Chrome,1366,768,,,,,,,,,,,,,,,,,1,,,,,,,,,,,,,,,,,,,,,,,,,,,308.04273,15,right,1.27077,redfox      ,2,1,-6,0,3,308.077905,308.077905,310.580655,0,14,14,14,1,15,8,2,parrot      ,redfox      ,html/resources/sequences_IDs/B/05_parrot.jpg,html/resources/sequences_IDs/B/01_redfox.jpg,5,1,2,1,1,1,4,1,0,59,,,,,,,,,,,,,,,,,,,,
,,,,,59,2020-07-04_16h02.14.282,retriever_ti,2020.1.3,Win32,60,Chrome,1366,768,,,,,,,,,,,,,,,,,1,,,,,,,,,,,,,,,,,,,,,,,,,,,311.195285,16,left,1.55462,dress         ,3,7,1,1,1,311.212175,311.212175,313.71501,0,15,15,15,1,16,3,2,dress         ,redfox      ,html/resources/sequences_IDs/A/07_dress.jpg,html/resources/sequences_IDs/B/01_redfox.jpg,7,1,3,2,1,1,6,1,0,59,,,,,,,,,,,,,,,,,,,,
,,,,,59,2020-07-04_16h02.14.282,retriever_ti,2020.1.3,Win32,60,Chrome,1366,768,,,,,,,,,,,,,,,,,1,,,,,,,,,,,,,,,,,,,,,,,,,,,314.81009,17,right,1.813385,phone       ,4,9,-4,0,3,314.843385,314.843385,317.346465,0,16,16,16,1,17,8,4,parrot      ,phone       ,html/resources/sequences_IDs/B/05_parrot.jpg,html/resources/sequences_IDs/B/09_phone.jpg,5,9,2,1,4,2,4,7,0,59,,,,,,,,,,,,,,,,,,,,
,,,,,59,2020-07-04_16h02.14.282,retriever_ti,2020.1.3,Win32,60,Chrome,1366,768,,,,,,,,,,,,,,,,,1,,,,,,,,,,,,,,,,,,,,,,,,,,,317.9606,18,right,1.43371,redfox      ,2,1,-4,0,3,317.97766,317.97766,320.48053,0,17,17,17,1,18,6,2,radio       ,redfox      ,html/resources/sequences_IDs/B/10_radio.jpg,html/resources/sequences_IDs/B/01_redfox.jpg,10,1,4,2,1,1,8,1,0,59,,,,,,,,,,,,,,,,,,,,
,,,,,59,2020-07-04_16h02.14.282,retriever_ti,2020.1.3,Win32,60,Chrome,1366,768,,,,,,,,,,,,,,,,,1,,,,,,,,,,,,,,,,,,,,,,,,,,,321.09528,19,right,1.553365,parrot      ,8,5,4,1,3,321.12871,321.12871,323.631745,0,18,18,18,1,19,4,8,phone       ,parrot      ,html/resources/sequences_IDs/B/09_phone.jpg,html/resources/sequences_IDs/B/05_parrot.jpg,9,5,4,2,2,1,7,4,0,59,,,,,,,,,,,,,,,,,,,,
,,,,,59,2020-07-04_16h02.14.282,retriever_ti,2020.1.3,Win32,60,Chrome,1366,768,,,,,,,,,,,,,,,,,1,,,,,,,,,,,,,,,,,,,,,,,,,,,324.24461,20,right,1.92989,radio       ,6,10,2,1,3,324.278395,324.278395,326.76605,0,19,19,19,1,20,4,6,phone       ,radio       ,html/resources/sequences_IDs/B/09_phone.jpg,html/resources/sequences_IDs/B/10_radio.jpg,9,10,4,2,4,2,7,8,0,59,,,,,,,,,,,,,,,,,,,,
,,,,,59,2020-07-04_16h02.14.282,retriever_ti,2020.1.3,Win32,60,Chrome,1366,768,,,,,,,,,,,,,,,,,1,,,,,,,,,,,,,,,,,,,,,,,,,,,327.379535,21,right,1.20705,clownfish     ,7,4,1,1,1,327.413625,327.413625,329.91715,0,20,20,20,1,21,6,7,radio       ,clownfish     ,html/resources/sequences_IDs/B/10_radio.jpg,html/resources/sequences_IDs/A/04_clownfish.jpg,10,4,4,2,2,1,8,3,0,59,,,,,,,,,,,,,,,,,,,,
,,,,,59,2020-07-04_16h02.14.282,retriever_ti,2020.1.3,Win32,60,Chrome,1366,768,,,,,,,,,,,,,,,,,1,,,,,,,,,,,,,,,,,,,,,,,,,,,331.01201,22,right,2.064375,seaturtle     ,1,2,-2,0,3,331.0292,331.0292,333.681165,0,21,21,21,1,22,3,1,dress         ,seaturtle     ,html/resources/sequences_IDs/A/07_dress.jpg,html/resources/sequences_IDs/A/02_seaturtle.jpg,7,2,3,2,2,1,6,2,0,59,,,,,,,,,,,,,,,,,,,,
,,,,,59,2020-07-04_16h02.14.282,retriever_ti,2020.1.3,Win32,60,Chrome,1366,768,,,,,,,,,,,,,,,,,1,,,,,,,,,,,,,,,,,,,,,,,,,,,334.295335,23,left,1.23808,dress         ,3,7,-2,0,3,334.311855,334.311855,336.798855,0,22,22,22,1,23,3,5,dress         ,scarf         ,html/resources/sequences_IDs/A/07_dress.jpg,html/resources/sequences_IDs/A/06_scarf.jpg,7,6,3,2,3,2,6,5,0,59,,,,,,,,,,,,,,,,,,,,
,,,,,59,2020-07-04_16h02.14.282,retriever_ti,2020.1.3,Win32,60,Chrome,1366,768,,,,,,,,,,,,,,,,,1,,,,,,,,,,,,,,,,,,,,,,,,,,,337.412445,24,left,1.94235,scarf         ,5,6,1,1,1,337.430425,337.430425,340.336215,0,23,23,23,1,24,5,4,scarf         ,phone       ,html/resources/sequences_IDs/A/06_scarf.jpg,html/resources/sequences_IDs/B/09_phone.jpg,6,9,3,2,4,2,5,7,0,59,,,,,,,,,,,,,,,,,,,,
,,,,,59,2020-07-04_16h02.14.282,retriever_ti,2020.1.3,Win32,60,Chrome,1366,768,,,,,,,,,,,,,,,,,1,,,,,,,,,,,,,,,,,,,,,,,,,,,341.42587,25,left,2.02605,scarf         ,5,6,3,1,3,341.443085,341.443085,344.446285,0,24,24,24,1,25,5,2,scarf         ,redfox      ,html/resources/sequences_IDs/A/06_scarf.jpg,html/resources/sequences_IDs/B/01_redfox.jpg,6,1,3,2,1,1,5,1,0,59,,,,,,,,,,,,,,,,,,,,
,,,,,59,2020-07-04_16h02.14.282,retriever_ti,2020.1.3,Win32,60,Chrome,1366,768,,,,,,,,,,,,,,,,,1,,,,,,,,,,,,,,,,,,,,,,,,,,,352.95088,26,right,1.539745,clownfish     ,7,4,1,1,1,353.004095,353.004095,355.62291,0,25,25,25,1,26,6,7,radio       ,clownfish     ,html/resources/sequences_IDs/B/10_radio.jpg,html/resources/sequences_IDs/A/04_clownfish.jpg,10,4,4,2,2,1,8,3,0,59,,,,,,,,,,,,,,,,,,,,
,,,,,59,2020-07-04_16h02.14.282,retriever_ti,2020.1.3,Win32,60,Chrome,1366,768,,,,,,,,,,,,,,,,,1,,,,,,,,,,,,,,,,,,,,,,,,,,,356.715555,27,left,1.594935,dress         ,3,7,-1,0,0,356.74963,356.74963,359.253315,0,26,26,26,1,27,3,4,dress         ,phone       ,html/resources/sequences_IDs/A/07_dress.jpg,html/resources/sequences_IDs/B/09_phone.jpg,7,9,3,2,4,2,6,7,0,59,,,,,,,,,,,,,,,,,,,,
,,,,,59,2020-07-04_16h02.14.282,retriever_ti,2020.1.3,Win32,60,Chrome,1366,768,,,,,,,,,,,,,,,,,1,,,,,,,,,,,,,,,,,,,,,,,,,,,360.3487,28,left,1.796325,clownfish     ,7,4,1,1,1,360.381795,360.381795,362.88452,0,27,27,27,1,28,7,6,clownfish     ,radio       ,html/resources/sequences_IDs/A/04_clownfish.jpg,html/resources/sequences_IDs/B/10_radio.jpg,4,10,2,1,4,2,3,8,0,59,,,,,,,,,,,,,,,,,,,,
,,,,,59,2020-07-04_16h02.14.282,retriever_ti,2020.1.3,Win32,60,Chrome,1366,768,,,,,,,,,,,,,,,,,1,,,,,,,,,,,,,,,,,,,,,,,,,,,363.978845,29,left,1.885725,phone       ,4,9,1,1,0,364.0132,364.0132,366.51634,0,28,28,28,1,29,4,3,phone       ,dress         ,html/resources/sequences_IDs/B/09_phone.jpg,html/resources/sequences_IDs/A/07_dress.jpg,9,7,4,2,3,2,7,6,1,59,,,,,,,,,,,,,,,,,,,,
,,,,,59,2020-07-04_16h02.14.282,retriever_ti,2020.1.3,Win32,60,Chrome,1366,768,,,,,,,,,,,,,,,,,1,,,,,,,,,,,,,,,,,,,,,,,,,,,367.61119,30,left,1.837965,dress         ,3,7,-3,0,3,367.628525,367.628525,370.11582,0,29,29,29,1,30,3,6,dress         ,radio       ,html/resources/sequences_IDs/A/07_dress.jpg,html/resources/sequences_IDs/B/10_radio.jpg,7,10,3,2,4,2,6,8,0,59,,,,,,,,,,,,,,,,,,,,
,,,,,59,2020-07-04_16h02.14.282,retriever_ti,2020.1.3,Win32,60,Chrome,1366,768,,,,,,,,,,,,,,,,,1,,,,,,,,,,,,,,,,,,,,,,,,,,,370.72802,31,left,1.38312,redfox      ,2,1,1,1,1,370.749025,370.749025,373.24934,0,30,30,30,1,31,2,1,redfox      ,seaturtle     ,html/resources/sequences_IDs/B/01_redfox.jpg,html/resources/sequences_IDs/A/02_seaturtle.jpg,1,2,1,1,2,1,1,2,0,59,,,,,,,,,,,,,,,,,,,,
,,,,,59,2020-07-04_16h02.14.282,retriever_ti,2020.1.3,Win32,60,Chrome,1366,768,,,,,,,,,,,,,,,,,1,,,,,,,,,,,,,,,,,,,,,,,,,,,374.343955,32,right,1.41395,dress         ,3,7,-5,0,3,374.377745,374.377745,376.880735,0,31,31,31,1,32,8,3,parrot      ,dress         ,html/resources/sequences_IDs/B/05_parrot.jpg,html/resources/sequences_IDs/A/07_dress.jpg,5,7,2,1,3,2,4,6,0,59,,,,,,,,,,,,,,,,,,,,
,,,,,59,2020-07-04_16h02.14.282,retriever_ti,2020.1.3,Win32,60,Chrome,1366,768,,,,,,,,,,,,,,,,,1,,,,,,,,,,,,,,,,,,,,,,,,,,,377.494415,33,left,1.52846,redfox      ,2,1,-6,0,3,377.511625,377.511625,380.014535,0,32,32,32,1,33,2,8,redfox      ,parrot      ,html/resources/sequences_IDs/B/01_redfox.jpg,html/resources/sequences_IDs/B/05_parrot.jpg,1,5,1,1,2,1,1,4,0,59,,,,,,,,,,,,,,,,,,,,
,,,,,59,2020-07-04_16h02.14.282,retriever_ti,2020.1.3,Win32,60,Chrome,1366,768,,,,,,,,,,,,,,,,,1,,,,,,,,,,,,,,,,,,,,,,,,,,,380.62905,34,right,1.13727,scarf         ,5,6,1,1,1,380.64586,380.64586,383.132825,0,33,33,33,1,34,4,5,phone       ,scarf         ,html/resources/sequences_IDs/B/09_phone.jpg,html/resources/sequences_IDs/A/06_scarf.jpg,9,6,4,2,3,2,7,5,0,59,,,,,,,,,,,,,,,,,,,,
,,,,,59,2020-07-04_16h02.14.282,retriever_ti,2020.1.3,Win32,60,Chrome,1366,768,,,,,,,,,,,,,,,,,1,,,,,,,,,,,,,,,,,,,,,,,,,,,384.228155,35,left,1.31272,redfox      ,2,1,-2,0,3,384.2453,384.2453,386.747575,0,34,34,34,1,35,2,4,redfox      ,phone       ,html/resources/sequences_IDs/B/01_redfox.jpg,html/resources/sequences_IDs/B/09_phone.jpg,1,9,1,1,4,2,1,7,0,59,,,,,,,,,,,,,,,,,,,,
,,,,,59,2020-07-04_16h02.14.282,retriever_ti,2020.1.3,Win32,60,Chrome,1366,768,,,,,,,,,,,,,,,,,1,,,,,,,,,,,,,,,,,,,,,,,,,,,387.361845,36,right,2.308515,scarf         ,5,6,-1,0,1,387.378825,387.378825,389.86552,0,35,35,35,1,36,6,5,radio       ,scarf         ,html/resources/sequences_IDs/B/10_radio.jpg,html/resources/sequences_IDs/A/06_scarf.jpg,10,6,4,2,3,2,8,5,1,59,,,,,,,,,,,,,,,,,,,,
,,,,,59,2020-07-04_16h02.14.282,retriever_ti,2020.1.3,Win32,60,Chrome,1366,768,,,,,,,,,,,,,,,,,1,,,,,,,,,,,,,,,,,,,,,,,,,,,390.95929,37,right,1.836475,dress         ,3,7,-1,0,0,390.99429,390.99429,393.4809,0,36,36,36,1,37,4,3,phone       ,dress         ,html/resources/sequences_IDs/B/09_phone.jpg,html/resources/sequences_IDs/A/07_dress.jpg,9,7,4,2,3,2,7,6,0,59,,,,,,,,,,,,,,,,,,,,
,,,,,59,2020-07-04_16h02.14.282,retriever_ti,2020.1.3,Win32,60,Chrome,1366,768,,,,,,,,,,,,,,,,,1,,,,,,,,,,,,,,,,,,,,,,,,,,,394.575425,38,right,2.11851,parrot      ,8,5,1,1,1,394.59295,394.59295,397.079805,0,37,37,37,1,38,7,8,clownfish     ,parrot      ,html/resources/sequences_IDs/A/04_clownfish.jpg,html/resources/sequences_IDs/B/05_parrot.jpg,4,5,2,1,2,1,3,4,0,59,,,,,,,,,,,,,,,,,,,,
,,,,,59,2020-07-04_16h02.14.282,retriever_ti,2020.1.3,Win32,60,Chrome,1366,768,,,,,,,,,,,,,,,,,1,,,,,,,,,,,,,,,,,,,,,,,,,,,398.17436,39,right,1.798595,redfox      ,2,1,1,1,1,398.20977,398.20977,400.71089,0,38,38,38,1,39,1,2,seaturtle     ,redfox      ,html/resources/sequences_IDs/A/02_seaturtle.jpg,html/resources/sequences_IDs/B/01_redfox.jpg,2,1,2,1,1,1,2,1,0,59,,,,,,,,,,,,,,,,,,,,
,,,,,59,2020-07-04_16h02.14.282,retriever_ti,2020.1.3,Win32,60,Chrome,1366,768,,,,,,,,,,,,,,,,,1,,,,,,,,,,,,,,,,,,,,,,,,,,,401.806225,40,right,1.494345,parrot      ,8,5,7,1,3,401.82339,401.82339,404.32666,0,39,39,39,1,40,1,8,seaturtle     ,parrot      ,html/resources/sequences_IDs/A/02_seaturtle.jpg,html/resources/sequences_IDs/B/05_parrot.jpg,2,5,2,1,2,1,2,4,0,59,,,,,,,,,,,,,,,,,,,,
,,,,,59,2020-07-04_16h02.14.282,retriever_ti,2020.1.3,Win32,60,Chrome,1366,768,,,,,,,,,,,,,,,,,1,,,,,,,,,,,,,,,,,,,,,,,,,,,404.940695,41,right,1.502395,redfox      ,2,1,-2,0,3,404.95729,404.95729,407.44386,0,40,40,40,1,41,4,2,phone       ,redfox      ,html/resources/sequences_IDs/B/09_phone.jpg,html/resources/sequences_IDs/B/01_redfox.jpg,9,1,4,2,1,1,7,1,0,59,,,,,,,,,,,,,,,,,,,,
,,,,,59,2020-07-04_16h02.14.282,retriever_ti,2020.1.3,Win32,60,Chrome,1366,768,,,,,,,,,,,,,,,,,1,,,,,,,,,,,,,,,,,,,,,,,,,,,408.058605,42,left,1.54575,dress         ,3,7,1,1,1,408.074875,408.074875,410.562475,0,41,41,41,1,42,3,2,dress         ,redfox      ,html/resources/sequences_IDs/A/07_dress.jpg,html/resources/sequences_IDs/B/01_redfox.jpg,7,1,3,2,1,1,6,1,0,59,,,,,,,,,,,,,,,,,,,,
,,,,,59,2020-07-04_16h02.14.282,retriever_ti,2020.1.3,Win32,60,Chrome,1366,768,,,,,,,,,,,,,,,,,1,,,,,,,,,,,,,,,,,,,,,,,,,,,411.65602,43,left,1.71457,radio       ,6,10,5,1,3,411.674305,411.674305,414.17723,0,42,42,42,1,43,6,1,radio       ,seaturtle     ,html/resources/sequences_IDs/B/10_radio.jpg,html/resources/sequences_IDs/A/02_seaturtle.jpg,10,2,4,2,2,1,8,2,0,59,,,,,,,,,,,,,,,,,,,,
,,,,,59,2020-07-04_16h02.14.282,retriever_ti,2020.1.3,Win32,60,Chrome,1366,768,,,,,,,,,,,,,,,,,1,,,,,,,,,,,,,,,,,,,,,,,,,,,414.790475,44,right,2.005595,scarf         ,5,6,4,1,3,414.80821,414.80821,417.29492,0,43,43,43,1,44,1,5,seaturtle     ,scarf         ,html/resources/sequences_IDs/A/02_seaturtle.jpg,html/resources/sequences_IDs/A/06_scarf.jpg,2,6,2,1,3,2,2,5,0,59,,,,,,,,,,,,,,,,,,,,
,,,,,59,2020-07-04_16h02.14.282,retriever_ti,2020.1.3,Win32,60,Chrome,1366,768,,,,,,,,,,,,,,,,,1,,,,,,,,,,,,,,,,,,,,,,,,,,,417.90957,45,right,0.95923,phone       ,4,9,3,1,3,417.926445,417.926445,420.42809,0,44,44,44,1,45,1,4,seaturtle     ,phone       ,html/resources/sequences_IDs/A/02_seaturtle.jpg,html/resources/sequences_IDs/B/09_phone.jpg,2,9,2,1,4,2,2,7,0,59,,,,,,,,,,,,,,,,,,,,
,,,,,59,2020-07-04_16h02.14.282,retriever_ti,2020.1.3,Win32,60,Chrome,1366,768,,,,,,,,,,,,,,,,,1,,,,,,,,,,,,,,,,,,,,,,,,,,,421.04326,46,right,1.08541,dress         ,3,7,1,1,1,421.06029,421.06029,423.56314,0,45,45,45,1,46,2,3,redfox      ,dress         ,html/resources/sequences_IDs/B/01_redfox.jpg,html/resources/sequences_IDs/A/07_dress.jpg,1,7,1,1,3,2,1,6,0,59,,,,,,,,,,,,,,,,,,,,
,,,,,59,2020-07-04_16h02.14.282,retriever_ti,2020.1.3,Win32,60,Chrome,1366,768,,,,,,,,,,,,,,,,,1,,,,,,,,,,,,,,,,,,,,,,,,,,,424.658395,47,left,1.039565,redfox      ,2,1,-5,0,3,424.691535,424.691535,427.194885,0,46,46,46,1,47,2,7,redfox      ,clownfish     ,html/resources/sequences_IDs/B/01_redfox.jpg,html/resources/sequences_IDs/A/04_clownfish.jpg,1,4,1,1,2,1,1,3,0,59,,,,,,,,,,,,,,,,,,,,
,,,,,59,2020-07-04_16h02.14.282,retriever_ti,2020.1.3,Win32,60,Chrome,1366,768,,,,,,,,,,,,,,,,,1,,,,,,,,,,,,,,,,,,,,,,,,,,,427.81214,48,right,2.122605,scarf         ,5,6,1,1,0,427.82656,427.82656,430.329225,0,47,47,47,1,48,4,5,phone       ,scarf         ,html/resources/sequences_IDs/B/09_phone.jpg,html/resources/sequences_IDs/A/06_scarf.jpg,9,6,4,2,3,2,7,5,1,59,,,,,,,,,,,,,,,,,,,,
,,,,,59,2020-07-04_16h02.14.282,retriever_ti,2020.1.3,Win32,60,Chrome,1366,768,,,,,,,,,,,,,,,,,1,,,,,,,,,,,,,,,,,,,,,,,,,,,431.424595,49,left,1.2203,scarf         ,5,6,4,1,3,431.45692,431.45692,433.944015,0,48,48,48,1,49,5,1,scarf         ,seaturtle     ,html/resources/sequences_IDs/A/06_scarf.jpg,html/resources/sequences_IDs/A/02_seaturtle.jpg,6,2,3,2,2,1,5,2,0,59,,,,,,,,,,,,,,,,,,,,
,,,,,59,2020-07-04_16h02.14.282,retriever_ti,2020.1.3,Win32,60,Chrome,1366,768,,,,,,,,,,,,,,,,,1,,,,,,,,,,,,,,,,,,,,,,,,,,,434.55729,50,right,1.94982,phone       ,4,9,1,1,1,434.59212,434.59212,437.09515,0,49,49,49,1,50,3,4,dress         ,phone       ,html/resources/sequences_IDs/A/07_dress.jpg,html/resources/sequences_IDs/B/09_phone.jpg,7,9,3,2,4,2,6,7,0,59,,,,,,,,,,,,,,,,,,,,
,,,,,59,2020-07-04_16h02.14.282,retriever_ti,2020.1.3,Win32,60,Chrome,1366,768,,,,,,,,,,,,,,,,,1,,,,,,,,,,,,,,,,,,,,,,,,,,,438.19063,51,left,1.249865,dress         ,3,7,-5,0,3,438.263825,438.263825,440.835205,0,50,50,50,1,51,3,8,dress         ,parrot      ,html/resources/sequences_IDs/A/07_dress.jpg,html/resources/sequences_IDs/B/05_parrot.jpg,7,5,3,2,2,1,6,4,0,59,,,,,,,,,,,,,,,,,,,,
,,,,,59,2020-07-04_16h02.14.282,retriever_ti,2020.1.3,Win32,60,Chrome,1366,768,,,,,,,,,,,,,,,,,1,,,,,,,,,,,,,,,,,,,,,,,,,,,441.441395,52,right,1.207905,parrot      ,8,5,2,1,3,441.457075,441.457075,443.944385,0,51,51,51,1,52,6,8,radio       ,parrot      ,html/resources/sequences_IDs/B/10_radio.jpg,html/resources/sequences_IDs/B/05_parrot.jpg,10,5,4,2,2,1,8,4,0,59,,,,,,,,,,,,,,,,,,,,
,,,,,59,2020-07-04_16h02.14.282,retriever_ti,2020.1.3,Win32,60,Chrome,1366,768,,,,,,,,,,,,,,,,,1,,,,,,,,,,,,,,,,,,,,,,,,,,,444.55778,53,right,1.289255,redfox      ,2,1,-5,0,3,444.591475,444.591475,447.078265,0,52,52,52,1,53,7,2,clownfish     ,redfox      ,html/resources/sequences_IDs/A/04_clownfish.jpg,html/resources/sequences_IDs/B/01_redfox.jpg,4,1,2,1,1,1,3,1,0,59,,,,,,,,,,,,,,,,,,,,
,,,,,59,2020-07-04_16h02.14.282,retriever_ti,2020.1.3,Win32,60,Chrome,1366,768,,,,,,,,,,,,,,,,,1,,,,,,,,,,,,,,,,,,,,,,,,,,,447.69237,54,left,1.065225,dress         ,3,7,1,1,0,447.72628,447.72628,450.21305,0,53,53,53,1,54,3,2,dress         ,redfox      ,html/resources/sequences_IDs/A/07_dress.jpg,html/resources/sequences_IDs/B/01_redfox.jpg,7,1,3,2,1,1,6,1,1,59,,,,,,,,,,,,,,,,,,,,
,,,,,59,2020-07-04_16h02.14.282,retriever_ti,2020.1.3,Win32,60,Chrome,1366,768,,,,,,,,,,,,,,,,,1,,,,,,,,,,,,,,,,,,,,,,,,,,,451.307935,55,left,1.93313,scarf         ,5,6,-1,0,0,451.34162,451.34162,453.843715,0,54,54,54,1,55,5,6,scarf         ,radio       ,html/resources/sequences_IDs/A/06_scarf.jpg,html/resources/sequences_IDs/B/10_radio.jpg,6,10,3,2,4,2,5,8,0,59,,,,,,,,,,,,,,,,,,,,
,,,,,59,2020-07-04_16h02.14.282,retriever_ti,2020.1.3,Win32,60,Chrome,1366,768,,,,,,,,,,,,,,,,,1,,,,,,,,,,,,,,,,,,,,,,,,,,,454.939475,56,right,1.830285,phone       ,4,9,-2,0,3,454.973045,454.973045,457.475245,0,55,55,55,1,56,6,4,radio       ,phone       ,html/resources/sequences_IDs/B/10_radio.jpg,html/resources/sequences_IDs/B/09_phone.jpg,10,9,4,2,4,2,8,7,0,59,,,,,,,,,,,,,,,,,,,,
,,,,,59,2020-07-04_16h02.14.282,retriever_ti,2020.1.3,Win32,60,Chrome,1366,768,,,,,,,,,,,,,,,,,1,,,,,,,,,,,,,,,,,,,,,,,,,,,458.0906,57,right,1.67393,redfox      ,2,1,1,1,0,458.107545,458.107545,460.609425,0,56,56,56,1,57,1,2,seaturtle     ,redfox      ,html/resources/sequences_IDs/A/02_seaturtle.jpg,html/resources/sequences_IDs/B/01_redfox.jpg,2,1,2,1,1,1,2,1,1,59,,,,,,,,,,,,,,,,,,,,
,,,,,59,2020-07-04_16h02.14.282,retriever_ti,2020.1.3,Win32,60,Chrome,1366,768,,,,,,,,,,,,,,,,,1,,,,,,,,,,,,,,,,,,,,,,,,,,,461.704985,58,right,1.86174,clownfish     ,7,4,-1,0,0,461.73917,461.73917,464.242045,0,57,57,57,1,58,8,7,parrot      ,clownfish     ,html/resources/sequences_IDs/B/05_parrot.jpg,html/resources/sequences_IDs/A/04_clownfish.jpg,5,4,2,1,2,1,4,3,0,59,,,,,,,,,,,,,,,,,,,,
,,,,,59,2020-07-04_16h02.14.282,retriever_ti,2020.1.3,Win32,60,Chrome,1366,768,,,,,,,,,,,,,,,,,1,,,,,,,,,,,,,,,,,,,,,,,,,,,465.337685,59,right,1.87473,phone       ,4,9,-3,0,3,465.354685,465.354685,467.84088,0,58,58,58,1,59,7,4,clownfish     ,phone       ,html/resources/sequences_IDs/A/04_clownfish.jpg,html/resources/sequences_IDs/B/09_phone.jpg,4,9,2,1,4,2,3,7,0,59,,,,,,,,,,,,,,,,,,,,
,,,,,59,2020-07-04_16h02.14.282,retriever_ti,2020.1.3,Win32,60,Chrome,1366,768,,,,,,,,,,,,,,,,,1,,,,,,,,,,,,,,,,,,,,,,,,,,,468.454935,60,right,1.66693,dress         ,3,7,-1,0,0,468.489795,468.489795,470.990985,0,59,59,59,1,60,4,3,phone       ,dress         ,html/resources/sequences_IDs/B/09_phone.jpg,html/resources/sequences_IDs/A/07_dress.jpg,9,7,4,2,3,2,7,6,0,59,,,,,,,,,,,,,,,,,,,,
,,,,,59,2020-07-04_16h02.14.282,retriever_ti,2020.1.3,Win32,60,Chrome,1366,768,,,,,,,,,,,,,,,,,1,,,,,,,,,,,,,,,,,,,,,,,,,,,472.086875,61,right,1.72461,scarf         ,5,6,-1,0,0,472.103245,472.103245,474.590675,0,60,60,60,1,61,6,5,radio       ,scarf         ,html/resources/sequences_IDs/B/10_radio.jpg,html/resources/sequences_IDs/A/06_scarf.jpg,10,6,4,2,3,2,8,5,0,59,,,,,,,,,,,,,,,,,,,,
,,,,,59,2020-07-04_16h02.14.282,retriever_ti,2020.1.3,Win32,60,Chrome,1366,768,,,,,,,,,,,,,,,,,1,,,,,,,,,,,,,,,,,,,,,,,,,,,475.684475,62,right,2.019465,radio       ,6,10,-1,0,0,475.702575,475.702575,478.20488,0,61,61,61,1,62,7,6,clownfish     ,radio       ,html/resources/sequences_IDs/A/04_clownfish.jpg,html/resources/sequences_IDs/B/10_radio.jpg,4,10,2,1,4,2,3,8,0,59,,,,,,,,,,,,,,,,,,,,
,,,,,59,2020-07-04_16h02.14.282,retriever_ti,2020.1.3,Win32,60,Chrome,1366,768,,,,,,,,,,,,,,,,,1,,,,,,,,,,,,,,,,,,,,,,,,,,,479.300825,63,right,1.502855,parrot      ,8,5,3,1,3,479.317545,479.317545,481.803995,0,62,62,62,1,63,5,8,scarf         ,parrot      ,html/resources/sequences_IDs/A/06_scarf.jpg,html/resources/sequences_IDs/B/05_parrot.jpg,6,5,3,2,2,1,5,4,0,59,,,,,,,,,,,,,,,,,,,,
,,,,,59,2020-07-04_16h02.14.282,retriever_ti,2020.1.3,Win32,60,Chrome,1366,768,,,,,,,,,,,,,,,,,1,,,,,,,,,,,,,,,,,,,,,,,,,,,482.417215,64,left,1.778165,radio       ,6,10,1,1,1,482.435585,482.435585,484.937715,0,63,63,63,1,64,6,5,radio       ,scarf         ,html/resources/sequences_IDs/B/10_radio.jpg,html/resources/sequences_IDs/A/06_scarf.jpg,10,6,4,2,3,2,8,5,0,59,,,,,,,,,,,,,,,,,,,,
,,,,,59,2020-07-04_16h02.14.282,retriever_ti,2020.1.3,Win32,60,Chrome,1366,768,,,,,,,,,,,,,,,,,1,,,,,,,,,,,,,,,,,,,,,,,,,,,486.033635,65,left,1.75498,parrot      ,8,5,7,1,3,486.050235,486.050235,488.553295,0,64,64,64,1,65,8,1,parrot      ,seaturtle     ,html/resources/sequences_IDs/B/05_parrot.jpg,html/resources/sequences_IDs/A/02_seaturtle.jpg,5,2,2,1,2,1,4,2,0,59,,,,,,,,,,,,,,,,,,,,
,,,,,59,2020-07-04_16h02.14.282,retriever_ti,2020.1.3,Win32,60,Chrome,1366,768,,,,,,,,,,,,,,,,,1,,,,,,,,,,,,,,,,,,,,,,,,,,,489.167925,66,left,1.20009,radio       ,6,10,-1,0,1,489.20149,489.20149,491.704275,0,65,65,65,1,66,6,7,radio       ,clownfish     ,html/resources/sequences_IDs/B/10_radio.jpg,html/resources/sequences_IDs/A/04_clownfish.jpg,10,4,4,2,2,1,8,3,1,59,,,,,,,,,,,,,,,,,,,,
,,,,,59,2020-07-04_16h02.14.282,retriever_ti,2020.1.3,Win32,60,Chrome,1366,768,,,,,,,,,,,,,,,,,1,,,,,,,,,,,,,,,,,,,,,,,,,,,492.79932,67,left,1.705835,clownfish     ,7,4,4,1,3,492.816865,492.816865,495.318875,0,66,66,66,1,67,7,3,clownfish     ,dress         ,html/resources/sequences_IDs/A/04_clownfish.jpg,html/resources/sequences_IDs/A/07_dress.jpg,4,7,2,1,3,2,3,6,0,59,,,,,,,,,,,,,,,,,,,,
,,,,,59,2020-07-04_16h02.14.282,retriever_ti,2020.1.3,Win32,60,Chrome,1366,768,,,,,,,,,,,,,,,,,1,,,,,,,,,,,,,,,,,,,,,,,,,,,495.9351,68,right,1.57078,radio       ,6,10,5,1,3,495.951095,495.951095,498.452925,0,67,67,67,1,68,1,6,seaturtle     ,radio       ,html/resources/sequences_IDs/A/02_seaturtle.jpg,html/resources/sequences_IDs/B/10_radio.jpg,2,10,2,1,4,2,2,8,0,59,,,,,,,,,,,,,,,,,,,,
,,,,,59,2020-07-04_16h02.14.282,retriever_ti,2020.1.3,Win32,60,Chrome,1366,768,,,,,,,,,,,,,,,,,1,,,,,,,,,,,,,,,,,,,,,,,,,,,499.066965,69,left,1.301555,redfox      ,2,1,1,1,1,499.08579,499.08579,501.58739,0,68,68,68,1,69,2,1,redfox      ,seaturtle     ,html/resources/sequences_IDs/B/01_redfox.jpg,html/resources/sequences_IDs/A/02_seaturtle.jpg,1,2,1,1,2,1,1,2,0,59,,,,,,,,,,,,,,,,,,,,
,,,,,59,2020-07-04_16h02.14.282,retriever_ti,2020.1.3,Win32,60,Chrome,1366,768,,,,,,,,,,,,,,,,,1,,,,,,,,,,,,,,,,,,,,,,,,,,,502.683035,70,right,1.687745,scarf         ,5,6,3,1,3,502.717025,502.717025,505.21921,0,69,69,69,1,70,2,5,redfox      ,scarf         ,html/resources/sequences_IDs/B/01_redfox.jpg,html/resources/sequences_IDs/A/06_scarf.jpg,1,6,1,1,3,2,1,5,0,59,,,,,,,,,,,,,,,,,,,,
,,,,,59,2020-07-04_16h02.14.282,retriever_ti,2020.1.3,Win32,60,Chrome,1366,768,,,,,,,,,,,,,,,,,1,,,,,,,,,,,,,,,,,,,,,,,,,,,505.83479,71,left,1.258535,clownfish     ,7,4,2,1,3,505.851085,505.851085,508.35409,0,70,70,70,1,71,7,5,clownfish     ,scarf         ,html/resources/sequences_IDs/A/04_clownfish.jpg,html/resources/sequences_IDs/A/06_scarf.jpg,4,6,2,1,3,2,3,5,0,59,,,,,,,,,,,,,,,,,,,,
,,,,,59,2020-07-04_16h02.14.282,retriever_ti,2020.1.3,Win32,60,Chrome,1366,768,,,,,,,,,,,,,,,,,1,,,,,,,,,,,,,,,,,,,,,,,,,,,509.068765,72,right,1.39374,clownfish     ,7,4,-1,0,0,509.304355,509.304355,511.80313,0,71,71,71,1,72,8,7,parrot      ,clownfish     ,html/resources/sequences_IDs/B/05_parrot.jpg,html/resources/sequences_IDs/A/04_clownfish.jpg,5,4,2,1,2,1,4,3,0,59,,,,,,,,,,,,,,,,,,,,
,,,,,59,2020-07-04_16h02.14.282,retriever_ti,2020.1.3,Win32,60,Chrome,1366,768,,,,,,,,,,,,,,,,,1,,,,,,,,,,,,,,,,,,,,,,,,,,,512.89721,73,left,1.83707,clownfish     ,7,4,6,1,3,512.93191,512.93191,515.43401,0,72,72,72,1,73,7,1,clownfish     ,seaturtle     ,html/resources/sequences_IDs/A/04_clownfish.jpg,html/resources/sequences_IDs/A/02_seaturtle.jpg,4,2,2,1,2,1,3,2,0,59,,,,,,,,,,,,,,,,,,,,
,,,,,59,2020-07-04_16h02.14.282,retriever_ti,2020.1.3,Win32,60,Chrome,1366,768,,,,,,,,,,,,,,,,,1,,,,,,,,,,,,,,,,,,,,,,,,,,,516.048795,74,left,1.05203,parrot      ,8,5,1,1,0,516.082935,516.082935,518.585895,0,73,73,73,1,74,8,7,parrot      ,clownfish     ,html/resources/sequences_IDs/B/05_parrot.jpg,html/resources/sequences_IDs/A/04_clownfish.jpg,5,4,2,1,2,1,4,3,1,59,,,,,,,,,,,,,,,,,,,,
,,,,,59,2020-07-04_16h02.14.282,retriever_ti,2020.1.3,Win32,60,Chrome,1366,768,,,,,,,,,,,,,,,,,1,,,,,,,,,,,,,,,,,,,,,,,,,,,519.681135,75,left,2.056075,seaturtle     ,1,2,-2,0,3,519.714005,519.714005,522.200895,0,74,74,74,1,75,1,3,seaturtle     ,dress         ,html/resources/sequences_IDs/A/02_seaturtle.jpg,html/resources/sequences_IDs/A/07_dress.jpg,2,7,2,1,3,2,2,6,0,59,,,,,,,,,,,,,,,,,,,,
,,,,,59,2020-07-04_16h02.14.282,retriever_ti,2020.1.3,Win32,60,Chrome,1366,768,,,,,,,,,,,,,,,,,1,,,,,,,,,,,,,,,,,,,,,,,,,,,522.814545,76,left,1.901495,phone       ,4,9,-1,0,0,522.83276,522.83276,525.335405,0,75,75,75,1,76,4,5,phone       ,scarf         ,html/resources/sequences_IDs/B/09_phone.jpg,html/resources/sequences_IDs/A/06_scarf.jpg,9,6,4,2,3,2,7,5,0,59,,,,,,,,,,,,,,,,,,,,
,,,,,59,2020-07-04_16h02.14.282,retriever_ti,2020.1.3,Win32,60,Chrome,1366,768,,,,,,,,,,,,,,,,,1,,,,,,,,,,,,,,,,,,,,,,,,,,,526.429685,77,left,2.17274,dress         ,3,7,-4,0,3,526.447795,526.447795,528.95013,0,76,76,76,1,77,3,7,dress         ,clownfish     ,html/resources/sequences_IDs/A/07_dress.jpg,html/resources/sequences_IDs/A/04_clownfish.jpg,7,4,3,2,2,1,6,3,0,59,,,,,,,,,,,,,,,,,,,,
,,,,,59,2020-07-04_16h02.14.282,retriever_ti,2020.1.3,Win32,60,Chrome,1366,768,,,,,,,,,,,,,,,,,,,,,,,,,,,,,,,,,,,,,0,2.40932,,,,,,,,,,,,,,,,,,,,,,,,,,,,,,,,,,,,,,,,,0,0,0,0,1,,,,,,,,,,,,,,,
,,,,,59,2020-07-04_16h02.14.282,retriever_ti,2020.1.3,Win32,60,Chrome,1366,768,,,,,,,,,,,,,,,,,2,,,,,,,,,,,,,,,,,,,,,,,,,,,551.394835,78,left,0.95001,scarf         ,5,6,3,1,3,551.406975,551.406975,553.90903,0,0,0,0,1,78,5,2,scarf         ,redfox      ,html/resources/sequences_IDs/A/06_scarf.jpg,html/resources/sequences_IDs/B/01_redfox.jpg,6,1,3,2,1,1,5,1,0,59,,,,,,,,,,,,,,,,,,,,
,,,,,59,2020-07-04_16h02.14.282,retriever_ti,2020.1.3,Win32,60,Chrome,1366,768,,,,,,,,,,,,,,,,,2,,,,,,,,,,,,,,,,,,,,,,,,,,,554.52147,79,left,1.338135,redfox      ,2,1,-1,0,0,554.55609,554.55609,557.043175,0,1,1,1,1,79,2,3,redfox      ,dress         ,html/resources/sequences_IDs/B/01_redfox.jpg,html/resources/sequences_IDs/A/07_dress.jpg,1,7,1,1,3,2,1,6,0,59,,,,,,,,,,,,,,,,,,,,
,,,,,59,2020-07-04_16h02.14.282,retriever_ti,2020.1.3,Win32,60,Chrome,1366,768,,,,,,,,,,,,,,,,,2,,,,,,,,,,,,,,,,,,,,,,,,,,,558.14456,80,right,1.455405,phone       ,4,9,-2,0,3,558.15596,558.15596,560.657885,0,2,2,2,1,80,6,4,radio       ,phone       ,html/resources/sequences_IDs/B/10_radio.jpg,html/resources/sequences_IDs/B/09_phone.jpg,10,9,4,2,4,2,8,7,0,59,,,,,,,,,,,,,,,,,,,,
,,,,,59,2020-07-04_16h02.14.282,retriever_ti,2020.1.3,Win32,60,Chrome,1366,768,,,,,,,,,,,,,,,,,2,,,,,,,,,,,,,,,,,,,,,,,,,,,561.27101,81,left,1.66488,phone       ,4,9,-2,0,3,561.30588,561.30588,563.792445,0,3,3,3,1,81,4,6,phone       ,radio       ,html/resources/sequences_IDs/B/09_phone.jpg,html/resources/sequences_IDs/B/10_radio.jpg,9,10,4,2,4,2,7,8,0,59,,,,,,,,,,,,,,,,,,,,
,,,,,59,2020-07-04_16h02.14.282,retriever_ti,2020.1.3,Win32,60,Chrome,1366,768,,,,,,,,,,,,,,,,,2,,,,,,,,,,,,,,,,,,,,,,,,,,,564.40562,82,right,1.27109,radio       ,6,10,3,1,3,564.42329,564.42329,566.92575,0,4,4,4,1,82,3,6,dress         ,radio       ,html/resources/sequences_IDs/A/07_dress.jpg,html/resources/sequences_IDs/B/10_radio.jpg,7,10,3,2,4,2,6,8,0,59,,,,,,,,,,,,,,,,,,,,
,,,,,59,2020-07-04_16h02.14.282,retriever_ti,2020.1.3,Win32,60,Chrome,1366,768,,,,,,,,,,,,,,,,,2,,,,,,,,,,,,,,,,,,,,,,,,,,,567.54069,83,right,1.2188,redfox      ,2,1,1,1,1,567.5749,567.5749,570.076205,0,5,5,5,1,83,1,2,seaturtle     ,redfox      ,html/resources/sequences_IDs/A/02_seaturtle.jpg,html/resources/sequences_IDs/B/01_redfox.jpg,2,1,2,1,1,1,2,1,0,59,,,,,,,,,,,,,,,,,,,,
,,,,,59,2020-07-04_16h02.14.282,retriever_ti,2020.1.3,Win32,60,Chrome,1366,768,,,,,,,,,,,,,,,,,2,,,,,,,,,,,,,,,,,,,,,,,,,,,571.172165,84,right,1.283125,redfox      ,2,1,-1,0,0,571.205095,571.205095,573.692435,0,6,6,6,1,84,3,2,dress         ,redfox      ,html/resources/sequences_IDs/A/07_dress.jpg,html/resources/sequences_IDs/B/01_redfox.jpg,7,1,3,2,1,1,6,1,0,59,,,,,,,,,,,,,,,,,,,,
,,,,,59,2020-07-04_16h02.14.282,retriever_ti,2020.1.3,Win32,60,Chrome,1366,768,,,,,,,,,,,,,,,,,2,,,,,,,,,,,,,,,,,,,,,,,,,,,574.787605,85,left,0.76152,dress         ,3,7,-1,0,0,574.82066,574.82066,577.30742,0,7,7,7,1,85,3,4,dress         ,phone       ,html/resources/sequences_IDs/A/07_dress.jpg,html/resources/sequences_IDs/B/09_phone.jpg,7,9,3,2,4,2,6,7,0,59,,,,,,,,,,,,,,,,,,,,
,,,,,59,2020-07-04_16h02.14.282,retriever_ti,2020.1.3,Win32,60,Chrome,1366,768,,,,,,,,,,,,,,,,,2,,,,,,,,,,,,,,,,,,,,,,,,,,,578.403615,86,left,1.54188,redfox      ,2,1,1,1,1,578.436845,578.436845,580.923075,0,8,8,8,1,86,2,1,redfox      ,seaturtle     ,html/resources/sequences_IDs/B/01_redfox.jpg,html/resources/sequences_IDs/A/02_seaturtle.jpg,1,2,1,1,2,1,1,2,0,59,,,,,,,,,,,,,,,,,,,,
,,,,,59,2020-07-04_16h02.14.282,retriever_ti,2020.1.3,Win32,60,Chrome,1366,768,,,,,,,,,,,,,,,,,2,,,,,,,,,,,,,,,,,,,,,,,,,,,582.018825,87,right,1.13099,parrot      ,8,5,1,1,1,582.05133,582.05133,584.538105,0,9,9,9,1,87,7,8,clownfish     ,parrot      ,html/resources/sequences_IDs/A/04_clownfish.jpg,html/resources/sequences_IDs/B/05_parrot.jpg,4,5,2,1,2,1,3,4,0,59,,,,,,,,,,,,,,,,,,,,
,,,,,59,2020-07-04_16h02.14.282,retriever_ti,2020.1.3,Win32,60,Chrome,1366,768,,,,,,,,,,,,,,,,,2,,,,,,,,,,,,,,,,,,,,,,,,,,,585.632555,88,right,2.031595,scarf         ,5,6,1,1,1,585.650805,585.650805,588.13691,0,10,10,10,1,88,4,5,phone       ,scarf         ,html/resources/sequences_IDs/B/09_phone.jpg,html/resources/sequences_IDs/A/06_scarf.jpg,9,6,4,2,3,2,7,5,0,59,,,,,,,,,,,,,,,,,,,,
,,,,,59,2020-07-04_16h02.14.282,retriever_ti,2020.1.3,Win32,60,Chrome,1366,768,,,,,,,,,,,,,,,,,2,,,,,,,,,,,,,,,,,,,,,,,,,,,589.23177,89,left,2.04922,scarf         ,5,6,-1,0,0,589.24882,589.24882,591.735295,0,11,11,11,1,89,5,6,scarf         ,radio       ,html/resources/sequences_IDs/A/06_scarf.jpg,html/resources/sequences_IDs/B/10_radio.jpg,6,10,3,2,4,2,5,8,0,59,,,,,,,,,,,,,,,,,,,,
,,,,,59,2020-07-04_16h02.14.282,retriever_ti,2020.1.3,Win32,60,Chrome,1366,768,,,,,,,,,,,,,,,,,2,,,,,,,,,,,,,,,,,,,,,,,,,,,592.830295,90,right,2.006935,radio       ,6,10,4,1,3,592.847265,592.847265,595.35035,0,12,12,12,1,90,2,6,redfox      ,radio       ,html/resources/sequences_IDs/B/01_redfox.jpg,html/resources/sequences_IDs/B/10_radio.jpg,1,10,1,1,4,2,1,8,0,59,,,,,,,,,,,,,,,,,,,,
,,,,,59,2020-07-04_16h02.14.282,retriever_ti,2020.1.3,Win32,60,Chrome,1366,768,,,,,,,,,,,,,,,,,2,,,,,,,,,,,,,,,,,,,,,,,,,,,595.964705,91,right,2.143375,dress         ,3,7,2,1,3,595.99791,595.99791,598.5012,0,13,13,13,1,91,1,3,seaturtle     ,dress         ,html/resources/sequences_IDs/A/02_seaturtle.jpg,html/resources/sequences_IDs/A/07_dress.jpg,2,7,2,1,3,2,2,6,0,59,,,,,,,,,,,,,,,,,,,,
,,,,,59,2020-07-04_16h02.14.282,retriever_ti,2020.1.3,Win32,60,Chrome,1366,768,,,,,,,,,,,,,,,,,2,,,,,,,,,,,,,,,,,,,,,,,,,,,599.11569,92,right,1.91541,scarf         ,5,6,-3,0,3,599.150335,599.150335,601.651525,0,14,14,14,1,92,8,5,parrot      ,scarf         ,html/resources/sequences_IDs/B/05_parrot.jpg,html/resources/sequences_IDs/A/06_scarf.jpg,5,6,2,1,3,2,4,5,0,59,,,,,,,,,,,,,,,,,,,,
,,,,,59,2020-07-04_16h02.14.282,retriever_ti,2020.1.3,Win32,60,Chrome,1366,768,,,,,,,,,,,,,,,,,2,,,,,,,,,,,,,,,,,,,,,,,,,,,602.26554,93,right,1.22037,scarf         ,5,6,3,1,3,602.299655,602.299655,604.786715,0,15,15,15,1,93,2,5,redfox      ,scarf         ,html/resources/sequences_IDs/B/01_redfox.jpg,html/resources/sequences_IDs/A/06_scarf.jpg,1,6,1,1,3,2,1,5,0,59,,,,,,,,,,,,,,,,,,,,
,,,,,59,2020-07-04_16h02.14.282,retriever_ti,2020.1.3,Win32,60,Chrome,1366,768,,,,,,,,,,,,,,,,,2,,,,,,,,,,,,,,,,,,,,,,,,,,,605.399875,94,left,1.70216,dress         ,3,7,1,1,1,605.4341,605.4341,607.937395,0,16,16,16,1,94,3,2,dress         ,redfox      ,html/resources/sequences_IDs/A/07_dress.jpg,html/resources/sequences_IDs/B/01_redfox.jpg,7,1,3,2,1,1,6,1,0,59,,,,,,,,,,,,,,,,,,,,
,,,,,59,2020-07-04_16h02.14.282,retriever_ti,2020.1.3,Win32,60,Chrome,1366,768,,,,,,,,,,,,,,,,,2,,,,,,,,,,,,,,,,,,,,,,,,,,,609.033055,95,right,1.253705,dress         ,3,7,-1,0,0,609.066905,609.066905,611.55231,0,17,17,17,1,95,4,3,phone       ,dress         ,html/resources/sequences_IDs/B/09_phone.jpg,html/resources/sequences_IDs/A/07_dress.jpg,9,7,4,2,3,2,7,6,0,59,,,,,,,,,,,,,,,,,,,,
,,,,,59,2020-07-04_16h02.14.282,retriever_ti,2020.1.3,Win32,60,Chrome,1366,768,,,,,,,,,,,,,,,,,2,,,,,,,,,,,,,,,,,,,,,,,,,,,612.64675,96,right,1.562745,dress         ,3,7,1,1,1,612.68113,612.68113,615.18439,0,18,18,18,1,96,2,3,redfox      ,dress         ,html/resources/sequences_IDs/B/01_redfox.jpg,html/resources/sequences_IDs/A/07_dress.jpg,1,7,1,1,3,2,1,6,0,59,,,,,,,,,,,,,,,,,,,,
,,,,,59,2020-07-04_16h02.14.282,retriever_ti,2020.1.3,Win32,60,Chrome,1366,768,,,,,,,,,,,,,,,,,2,,,,,,,,,,,,,,,,,,,,,,,,,,,616.27924,97,left,1.156835,phone       ,4,9,3,1,3,616.31338,616.31338,618.81529,0,19,19,19,1,97,4,1,phone       ,seaturtle     ,html/resources/sequences_IDs/B/09_phone.jpg,html/resources/sequences_IDs/A/02_seaturtle.jpg,9,2,4,2,2,1,7,2,0,59,,,,,,,,,,,,,,,,,,,,
,,,,,59,2020-07-04_16h02.14.282,retriever_ti,2020.1.3,Win32,60,Chrome,1366,768,,,,,,,,,,,,,,,,,2,,,,,,,,,,,,,,,,,,,,,,,,,,,619.433095,98,right,1.072235,redfox      ,2,1,-5,0,3,619.448755,619.448755,621.965605,0,20,20,20,1,98,7,2,clownfish     ,redfox      ,html/resources/sequences_IDs/A/04_clownfish.jpg,html/resources/sequences_IDs/B/01_redfox.jpg,4,1,2,1,1,1,3,1,0,59,,,,,,,,,,,,,,,,,,,,
,,,,,59,2020-07-04_16h02.14.282,retriever_ti,2020.1.3,Win32,60,Chrome,1366,768,,,,,,,,,,,,,,,,,2,,,,,,,,,,,,,,,,,,,,,,,,,,,622.580315,99,left,0.81242,parrot      ,8,5,1,1,0,622.598385,622.598385,625.100915,0,21,21,21,1,99,8,7,parrot      ,clownfish     ,html/resources/sequences_IDs/B/05_parrot.jpg,html/resources/sequences_IDs/A/04_clownfish.jpg,5,4,2,1,2,1,4,3,1,59,,,,,,,,,,,,,,,,,,,,
,,,,,59,2020-07-04_16h02.14.282,retriever_ti,2020.1.3,Win32,60,Chrome,1366,768,,,,,,,,,,,,,,,,,2,,,,,,,,,,,,,,,,,,,,,,,,,,,626.19622,100,right,2.015295,parrot      ,8,5,4,1,3,626.213525,626.213525,628.715295,0,22,22,22,1,100,4,8,phone       ,parrot      ,html/resources/sequences_IDs/B/09_phone.jpg,html/resources/sequences_IDs/B/05_parrot.jpg,9,5,4,2,2,1,7,4,0,59,,,,,,,,,,,,,,,,,,,,
,,,,,59,2020-07-04_16h02.14.282,retriever_ti,2020.1.3,Win32,60,Chrome,1366,768,,,,,,,,,,,,,,,,,2,,,,,,,,,,,,,,,,,,,,,,,,,,,629.56342,101,right,2.266865,dress         ,3,7,-1,0,1,630.07454,630.07454,632.56298,0,23,23,23,1,101,4,3,phone       ,dress         ,html/resources/sequences_IDs/B/09_phone.jpg,html/resources/sequences_IDs/A/07_dress.jpg,9,7,4,2,3,2,7,6,1,59,,,,,,,,,,,,,,,,,,,,
,,,,,59,2020-07-04_16h02.14.282,retriever_ti,2020.1.3,Win32,60,Chrome,1366,768,,,,,,,,,,,,,,,,,2,,,,,,,,,,,,,,,,,,,,,,,,,,,633.658875,102,left,0.959035,dress         ,3,7,-1,0,0,633.6758,633.6758,636.178575,0,24,24,24,1,102,3,4,dress         ,phone       ,html/resources/sequences_IDs/A/07_dress.jpg,html/resources/sequences_IDs/B/09_phone.jpg,7,9,3,2,4,2,6,7,0,59,,,,,,,,,,,,,,,,,,,,
,,,,,59,2020-07-04_16h02.14.282,retriever_ti,2020.1.3,Win32,60,Chrome,1366,768,,,,,,,,,,,,,,,,,2,,,,,,,,,,,,,,,,,,,,,,,,,,,637.27405,103,right,2.130285,scarf         ,5,6,-1,0,1,637.291165,637.291165,639.793765,0,25,25,25,1,103,6,5,radio       ,scarf         ,html/resources/sequences_IDs/B/10_radio.jpg,html/resources/sequences_IDs/A/06_scarf.jpg,10,6,4,2,3,2,8,5,1,59,,,,,,,,,,,,,,,,,,,,
,,,,,59,2020-07-04_16h02.14.282,retriever_ti,2020.1.3,Win32,60,Chrome,1366,768,,,,,,,,,,,,,,,,,2,,,,,,,,,,,,,,,,,,,,,,,,,,,640.889675,104,left,2.066645,radio       ,6,10,5,1,3,640.90629,640.90629,643.408495,0,26,26,26,1,104,6,1,radio       ,seaturtle     ,html/resources/sequences_IDs/B/10_radio.jpg,html/resources/sequences_IDs/A/02_seaturtle.jpg,10,2,4,2,2,1,8,2,0,59,,,,,,,,,,,,,,,,,,,,
,,,,,59,2020-07-04_16h02.14.282,retriever_ti,2020.1.3,Win32,60,Chrome,1366,768,,,,,,,,,,,,,,,,,2,,,,,,,,,,,,,,,,,,,,,,,,,,,644.02284,105,left,1.416215,scarf         ,5,6,2,1,3,644.03976,644.03976,646.526455,0,27,27,27,1,105,5,3,scarf         ,dress         ,html/resources/sequences_IDs/A/06_scarf.jpg,html/resources/sequences_IDs/A/07_dress.jpg,6,7,3,2,3,2,5,6,0,59,,,,,,,,,,,,,,,,,,,,
,,,,,59,2020-07-04_16h02.14.282,retriever_ti,2020.1.3,Win32,60,Chrome,1366,768,,,,,,,,,,,,,,,,,2,,,,,,,,,,,,,,,,,,,,,,,,,,,647.1413,106,right,2.079585,dress         ,3,7,-4,0,3,647.174475,647.174475,649.6779,0,28,28,28,1,106,7,3,clownfish     ,dress         ,html/resources/sequences_IDs/A/04_clownfish.jpg,html/resources/sequences_IDs/A/07_dress.jpg,4,7,2,1,3,2,3,6,0,59,,,,,,,,,,,,,,,,,,,,
,,,,,59,2020-07-04_16h02.14.282,retriever_ti,2020.1.3,Win32,60,Chrome,1366,768,,,,,,,,,,,,,,,,,2,,,,,,,,,,,,,,,,,,,,,,,,,,,650.29239,107,left,1.573935,scarf         ,5,6,-3,0,3,650.30879,650.30879,652.81218,0,29,29,29,1,107,5,8,scarf         ,parrot      ,html/resources/sequences_IDs/A/06_scarf.jpg,html/resources/sequences_IDs/B/05_parrot.jpg,6,5,3,2,2,1,5,4,0,59,,,,,,,,,,,,,,,,,,,,
,,,,,59,2020-07-04_16h02.14.282,retriever_ti,2020.1.3,Win32,60,Chrome,1366,768,,,,,,,,,,,,,,,,,2,,,,,,,,,,,,,,,,,,,,,,,,,,,653.424565,108,right,1.33003,scarf         ,5,6,4,1,3,653.443235,653.443235,655.946255,0,30,30,30,1,108,1,5,seaturtle     ,scarf         ,html/resources/sequences_IDs/A/02_seaturtle.jpg,html/resources/sequences_IDs/A/06_scarf.jpg,2,6,2,1,3,2,2,5,0,59,,,,,,,,,,,,,,,,,,,,
,,,,,59,2020-07-04_16h02.14.282,retriever_ti,2020.1.3,Win32,60,Chrome,1366,768,,,,,,,,,,,,,,,,,2,,,,,,,,,,,,,,,,,,,,,,,,,,,656.55997,109,NaN,NaN,No_response,NaN,NaN,NaN,2,2,656.575955,656.575955,659.080165,0,31,31,31,1,109,1,6,seaturtle     ,radio       ,html/resources/sequences_IDs/A/02_seaturtle.jpg,html/resources/sequences_IDs/B/10_radio.jpg,2,10,2,1,4,2,2,8,0,59,,,,,,,,,,,,,,,,,,,,
,,,,,59,2020-07-04_16h02.14.282,retriever_ti,2020.1.3,Win32,60,Chrome,1366,768,,,,,,,,,,,,,,,,,2,,,,,,,,,,,,,,,,,,,,,,,,,,,660.175045,110,left,1.26833,scarf         ,5,6,1,1,1,660.208335,660.208335,662.69534,0,32,32,32,1,110,5,4,scarf         ,phone       ,html/resources/sequences_IDs/A/06_scarf.jpg,html/resources/sequences_IDs/B/09_phone.jpg,6,9,3,2,4,2,5,7,0,59,,,,,,,,,,,,,,,,,,,,
,,,,,59,2020-07-04_16h02.14.282,retriever_ti,2020.1.3,Win32,60,Chrome,1366,768,,,,,,,,,,,,,,,,,2,,,,,,,,,,,,,,,,,,,,,,,,,,,663.78974,111,left,0.572205,scarf         ,5,6,1,1,1,663.824355,663.824355,666.327685,0,33,33,33,1,111,5,4,scarf         ,phone       ,html/resources/sequences_IDs/A/06_scarf.jpg,html/resources/sequences_IDs/B/09_phone.jpg,6,9,3,2,4,2,5,7,0,59,,,,,,,,,,,,,,,,,,,,
,,,,,59,2020-07-04_16h02.14.282,retriever_ti,2020.1.3,Win32,60,Chrome,1366,768,,,,,,,,,,,,,,,,,2,,,,,,,,,,,,,,,,,,,,,,,,,,,667.422545,112,left,0.578015,scarf         ,5,6,4,1,3,667.45554,667.45554,669.94321,0,34,34,34,1,112,5,1,scarf         ,seaturtle     ,html/resources/sequences_IDs/A/06_scarf.jpg,html/resources/sequences_IDs/A/02_seaturtle.jpg,6,2,3,2,2,1,5,2,0,59,,,,,,,,,,,,,,,,,,,,
,,,,,59,2020-07-04_16h02.14.282,retriever_ti,2020.1.3,Win32,60,Chrome,1366,768,,,,,,,,,,,,,,,,,2,,,,,,,,,,,,,,,,,,,,,,,,,,,670.55672,113,right,1.11258,phone       ,4,9,3,1,3,670.57363,670.57363,673.060265,0,35,35,35,1,113,1,4,seaturtle     ,phone       ,html/resources/sequences_IDs/A/02_seaturtle.jpg,html/resources/sequences_IDs/B/09_phone.jpg,2,9,2,1,4,2,2,7,0,59,,,,,,,,,,,,,,,,,,,,
,,,,,59,2020-07-04_16h02.14.282,retriever_ti,2020.1.3,Win32,60,Chrome,1366,768,,,,,,,,,,,,,,,,,2,,,,,,,,,,,,,,,,,,,,,,,,,,,673.673745,114,left,1.46157,radio       ,6,10,-1,0,0,673.708135,673.708135,676.194655,0,36,36,36,1,114,6,7,radio       ,clownfish     ,html/resources/sequences_IDs/B/10_radio.jpg,html/resources/sequences_IDs/A/04_clownfish.jpg,10,4,4,2,2,1,8,3,0,59,,,,,,,,,,,,,,,,,,,,
,,,,,59,2020-07-04_16h02.14.282,retriever_ti,2020.1.3,Win32,60,Chrome,1366,768,,,,,,,,,,,,,,,,,2,,,,,,,,,,,,,,,,,,,,,,,,,,,677.290475,115,right,1.22906,scarf         ,5,6,-1,0,0,677.30792,677.30792,679.80855,0,37,37,37,1,115,6,5,radio       ,scarf         ,html/resources/sequences_IDs/B/10_radio.jpg,html/resources/sequences_IDs/A/06_scarf.jpg,10,6,4,2,3,2,8,5,0,59,,,,,,,,,,,,,,,,,,,,
,,,,,59,2020-07-04_16h02.14.282,retriever_ti,2020.1.3,Win32,60,Chrome,1366,768,,,,,,,,,,,,,,,,,2,,,,,,,,,,,,,,,,,,,,,,,,,,,680.904885,116,right,1.446175,clownfish     ,7,4,1,1,1,680.93815,680.93815,683.4247,0,38,38,38,1,116,6,7,radio       ,clownfish     ,html/resources/sequences_IDs/B/10_radio.jpg,html/resources/sequences_IDs/A/04_clownfish.jpg,10,4,4,2,2,1,8,3,0,59,,,,,,,,,,,,,,,,,,,,
,,,,,59,2020-07-04_16h02.14.282,retriever_ti,2020.1.3,Win32,60,Chrome,1366,768,,,,,,,,,,,,,,,,,2,,,,,,,,,,,,,,,,,,,,,,,,,,,684.519905,117,left,1.47539,dress         ,3,7,2,1,3,684.553925,684.553925,687.056145,0,39,39,39,1,117,3,1,dress         ,seaturtle     ,html/resources/sequences_IDs/A/07_dress.jpg,html/resources/sequences_IDs/A/02_seaturtle.jpg,7,2,3,2,2,1,6,2,0,59,,,,,,,,,,,,,,,,,,,,
,,,,,59,2020-07-04_16h02.14.282,retriever_ti,2020.1.3,Win32,60,Chrome,1366,768,,,,,,,,,,,,,,,,,2,,,,,,,,,,,,,,,,,,,,,,,,,,,687.66933,118,left,1.891615,phone       ,4,9,-1,0,0,687.687375,687.687375,690.174615,0,40,40,40,1,118,4,5,phone       ,scarf         ,html/resources/sequences_IDs/B/09_phone.jpg,html/resources/sequences_IDs/A/06_scarf.jpg,9,6,4,2,3,2,7,5,0,59,,,,,,,,,,,,,,,,,,,,
,,,,,59,2020-07-04_16h02.14.282,retriever_ti,2020.1.3,Win32,60,Chrome,1366,768,,,,,,,,,,,,,,,,,2,,,,,,,,,,,,,,,,,,,,,,,,,,,691.269915,119,right,1.80783,redfox      ,2,1,-4,0,3,691.30514,691.30514,693.80536,0,41,41,41,1,119,6,2,radio       ,redfox      ,html/resources/sequences_IDs/B/10_radio.jpg,html/resources/sequences_IDs/B/01_redfox.jpg,10,1,4,2,1,1,8,1,0,59,,,,,,,,,,,,,,,,,,,,
,,,,,59,2020-07-04_16h02.14.282,retriever_ti,2020.1.3,Win32,60,Chrome,1366,768,,,,,,,,,,,,,,,,,2,,,,,,,,,,,,,,,,,,,,,,,,,,,694.420025,120,left,1.49079,phone       ,4,9,1,1,1,694.453015,694.453015,696.94018,0,42,42,42,1,120,4,3,phone       ,dress         ,html/resources/sequences_IDs/B/09_phone.jpg,html/resources/sequences_IDs/A/07_dress.jpg,9,7,4,2,3,2,7,6,0,59,,,,,,,,,,,,,,,,,,,,
,,,,,59,2020-07-04_16h02.14.282,retriever_ti,2020.1.3,Win32,60,Chrome,1366,768,,,,,,,,,,,,,,,,,2,,,,,,,,,,,,,,,,,,,,,,,,,,,698.05249,121,left,1.33356,parrot      ,8,5,1,1,1,698.090645,698.090645,700.587695,0,43,43,43,1,121,8,7,parrot      ,clownfish     ,html/resources/sequences_IDs/B/05_parrot.jpg,html/resources/sequences_IDs/A/04_clownfish.jpg,5,4,2,1,2,1,4,3,0,59,,,,,,,,,,,,,,,,,,,,
,,,,,59,2020-07-04_16h02.14.282,retriever_ti,2020.1.3,Win32,60,Chrome,1366,768,,,,,,,,,,,,,,,,,2,,,,,,,,,,,,,,,,,,,,,,,,,,,701.68356,122,right,1.530115,phone       ,4,9,2,1,3,701.699885,701.699885,704.204095,0,44,44,44,1,122,2,4,redfox      ,phone       ,html/resources/sequences_IDs/B/01_redfox.jpg,html/resources/sequences_IDs/B/09_phone.jpg,1,9,1,1,4,2,1,7,0,59,,,,,,,,,,,,,,,,,,,,
,,,,,59,2020-07-04_16h02.14.282,retriever_ti,2020.1.3,Win32,60,Chrome,1366,768,,,,,,,,,,,,,,,,,2,,,,,,,,,,,,,,,,,,,,,,,,,,,704.81819,123,right,1.51316,scarf         ,5,6,-1,0,0,704.835215,704.835215,707.338285,0,45,45,45,1,123,6,5,radio       ,scarf         ,html/resources/sequences_IDs/B/10_radio.jpg,html/resources/sequences_IDs/A/06_scarf.jpg,10,6,4,2,3,2,8,5,0,59,,,,,,,,,,,,,,,,,,,,
,,,,,59,2020-07-04_16h02.14.282,retriever_ti,2020.1.3,Win32,60,Chrome,1366,768,,,,,,,,,,,,,,,,,2,,,,,,,,,,,,,,,,,,,,,,,,,,,708.432845,124,left,1.942215,redfox      ,2,1,1,1,1,708.45037,708.45037,710.95306,0,46,46,46,1,124,2,1,redfox      ,seaturtle     ,html/resources/sequences_IDs/B/01_redfox.jpg,html/resources/sequences_IDs/A/02_seaturtle.jpg,1,2,1,1,2,1,1,2,0,59,,,,,,,,,,,,,,,,,,,,
,,,,,59,2020-07-04_16h02.14.282,retriever_ti,2020.1.3,Win32,60,Chrome,1366,768,,,,,,,,,,,,,,,,,2,,,,,,,,,,,,,,,,,,,,,,,,,,,712.04767,125,left,1.093195,dress         ,3,7,-5,0,3,712.06541,712.06541,714.56842,0,47,47,47,1,125,3,8,dress         ,parrot      ,html/resources/sequences_IDs/A/07_dress.jpg,html/resources/sequences_IDs/B/05_parrot.jpg,7,5,3,2,2,1,6,4,0,59,,,,,,,,,,,,,,,,,,,,
,,,,,59,2020-07-04_16h02.14.282,retriever_ti,2020.1.3,Win32,60,Chrome,1366,768,,,,,,,,,,,,,,,,,2,,,,,,,,,,,,,,,,,,,,,,,,,,,715.182935,126,left,1.56262,seaturtle     ,1,2,-7,0,3,715.199965,715.199965,717.70289,0,48,48,48,1,126,1,8,seaturtle     ,parrot      ,html/resources/sequences_IDs/A/02_seaturtle.jpg,html/resources/sequences_IDs/B/05_parrot.jpg,2,5,2,1,2,1,2,4,0,59,,,,,,,,,,,,,,,,,,,,
,,,,,59,2020-07-04_16h02.14.282,retriever_ti,2020.1.3,Win32,60,Chrome,1366,768,,,,,,,,,,,,,,,,,2,,,,,,,,,,,,,,,,,,,,,,,,,,,718.317385,127,left,1.08686,phone       ,4,9,-1,0,1,718.350615,718.350615,720.85367,0,49,49,49,1,127,4,5,phone       ,scarf         ,html/resources/sequences_IDs/B/09_phone.jpg,html/resources/sequences_IDs/A/06_scarf.jpg,9,6,4,2,3,2,7,5,1,59,,,,,,,,,,,,,,,,,,,,
,,,,,59,2020-07-04_16h02.14.282,retriever_ti,2020.1.3,Win32,60,Chrome,1366,768,,,,,,,,,,,,,,,,,2,,,,,,,,,,,,,,,,,,,,,,,,,,,721.948645,128,left,1.03248,parrot      ,8,5,1,1,1,721.965345,721.965345,724.45239,0,50,50,50,1,128,8,7,parrot      ,clownfish     ,html/resources/sequences_IDs/B/05_parrot.jpg,html/resources/sequences_IDs/A/04_clownfish.jpg,5,4,2,1,2,1,4,3,0,59,,,,,,,,,,,,,,,,,,,,
,,,,,59,2020-07-04_16h02.14.282,retriever_ti,2020.1.3,Win32,60,Chrome,1366,768,,,,,,,,,,,,,,,,,2,,,,,,,,,,,,,,,,,,,,,,,,,,,725.54707,129,left,1.184325,dress         ,3,7,-4,0,3,725.564115,725.564115,728.054465,0,51,51,51,1,129,3,7,dress         ,clownfish     ,html/resources/sequences_IDs/A/07_dress.jpg,html/resources/sequences_IDs/A/04_clownfish.jpg,7,4,3,2,2,1,6,3,0,59,,,,,,,,,,,,,,,,,,,,
,,,,,59,2020-07-04_16h02.14.282,retriever_ti,2020.1.3,Win32,60,Chrome,1366,768,,,,,,,,,,,,,,,,,2,,,,,,,,,,,,,,,,,,,,,,,,,,,728.665285,130,right,1.81249,parrot      ,8,5,2,1,3,728.700425,728.700425,731.200265,0,52,52,52,1,130,6,8,radio       ,parrot      ,html/resources/sequences_IDs/B/10_radio.jpg,html/resources/sequences_IDs/B/05_parrot.jpg,10,5,4,2,2,1,8,4,0,59,,,,,,,,,,,,,,,,,,,,
,,,,,59,2020-07-04_16h02.14.282,retriever_ti,2020.1.3,Win32,60,Chrome,1366,768,,,,,,,,,,,,,,,,,2,,,,,,,,,,,,,,,,,,,,,,,,,,,731.814605,131,left,0.722555,parrot      ,8,5,2,1,3,731.849225,731.849225,734.352695,0,53,53,53,1,131,8,6,parrot      ,radio       ,html/resources/sequences_IDs/B/05_parrot.jpg,html/resources/sequences_IDs/B/10_radio.jpg,5,10,2,1,4,2,4,8,0,59,,,,,,,,,,,,,,,,,,,,
,,,,,59,2020-07-04_16h02.14.282,retriever_ti,2020.1.3,Win32,60,Chrome,1366,768,,,,,,,,,,,,,,,,,2,,,,,,,,,,,,,,,,,,,,,,,,,,,734.966235,132,right,1.53516,dress         ,3,7,-3,0,3,734.982455,734.982455,737.47012,0,54,54,54,1,132,6,3,radio       ,dress         ,html/resources/sequences_IDs/B/10_radio.jpg,html/resources/sequences_IDs/A/07_dress.jpg,10,7,4,2,3,2,8,6,0,59,,,,,,,,,,,,,,,,,,,,
,,,,,59,2020-07-04_16h02.14.282,retriever_ti,2020.1.3,Win32,60,Chrome,1366,768,,,,,,,,,,,,,,,,,2,,,,,,,,,,,,,,,,,,,,,,,,,,,738.083655,133,right,1.4105,seaturtle     ,1,2,-6,0,3,738.1236,738.1236,740.620225,0,55,55,55,1,133,7,1,clownfish     ,seaturtle     ,html/resources/sequences_IDs/A/04_clownfish.jpg,html/resources/sequences_IDs/A/02_seaturtle.jpg,4,2,2,1,2,1,3,2,0,59,,,,,,,,,,,,,,,,,,,,
,,,,,59,2020-07-04_16h02.14.282,retriever_ti,2020.1.3,Win32,60,Chrome,1366,768,,,,,,,,,,,,,,,,,2,,,,,,,,,,,,,,,,,,,,,,,,,,,741.235225,134,right,1.305355,redfox      ,2,1,1,1,1,741.2683,741.2683,743.755405,0,56,56,56,1,134,1,2,seaturtle     ,redfox      ,html/resources/sequences_IDs/A/02_seaturtle.jpg,html/resources/sequences_IDs/B/01_redfox.jpg,2,1,2,1,1,1,2,1,0,59,,,,,,,,,,,,,,,,,,,,
,,,,,59,2020-07-04_16h02.14.282,retriever_ti,2020.1.3,Win32,60,Chrome,1366,768,,,,,,,,,,,,,,,,,2,,,,,,,,,,,,,,,,,,,,,,,,,,,744.84991,135,right,0.583775,redfox      ,2,1,1,1,0,744.88309,744.88309,747.370575,0,57,57,57,1,135,1,2,seaturtle     ,redfox      ,html/resources/sequences_IDs/A/02_seaturtle.jpg,html/resources/sequences_IDs/B/01_redfox.jpg,2,1,2,1,1,1,2,1,1,59,,,,,,,,,,,,,,,,,,,,
,,,,,59,2020-07-04_16h02.14.282,retriever_ti,2020.1.3,Win32,60,Chrome,1366,768,,,,,,,,,,,,,,,,,2,,,,,,,,,,,,,,,,,,,,,,,,,,,748.46553,136,right,1.66749,radio       ,6,10,-1,0,0,748.48226,748.48226,750.968955,0,58,58,58,1,136,7,6,clownfish     ,radio       ,html/resources/sequences_IDs/A/04_clownfish.jpg,html/resources/sequences_IDs/B/10_radio.jpg,4,10,2,1,4,2,3,8,0,59,,,,,,,,,,,,,,,,,,,,
,,,,,59,2020-07-04_16h02.14.282,retriever_ti,2020.1.3,Win32,60,Chrome,1366,768,,,,,,,,,,,,,,,,,2,,,,,,,,,,,,,,,,,,,,,,,,,,,752.06345,137,left,0.805005,radio       ,6,10,-1,0,1,752.081075,752.081075,754.584215,0,59,59,59,1,137,6,7,radio       ,clownfish     ,html/resources/sequences_IDs/B/10_radio.jpg,html/resources/sequences_IDs/A/04_clownfish.jpg,10,4,4,2,2,1,8,3,1,59,,,,,,,,,,,,,,,,,,,,
,,,,,59,2020-07-04_16h02.14.282,retriever_ti,2020.1.3,Win32,60,Chrome,1366,768,,,,,,,,,,,,,,,,,2,,,,,,,,,,,,,,,,,,,,,,,,,,,755.678205,138,right,1.79131,parrot      ,8,5,1,1,1,755.71255,755.71255,758.215635,0,60,60,60,1,138,7,8,clownfish     ,parrot      ,html/resources/sequences_IDs/A/04_clownfish.jpg,html/resources/sequences_IDs/B/05_parrot.jpg,4,5,2,1,2,1,3,4,0,59,,,,,,,,,,,,,,,,,,,,
,,,,,59,2020-07-04_16h02.14.282,retriever_ti,2020.1.3,Win32,60,Chrome,1366,768,,,,,,,,,,,,,,,,,2,,,,,,,,,,,,,,,,,,,,,,,,,,,759.31128,139,left,1.50907,redfox      ,2,1,-5,0,3,759.33015,759.33015,761.831115,0,61,61,61,1,139,2,7,redfox      ,clownfish     ,html/resources/sequences_IDs/B/01_redfox.jpg,html/resources/sequences_IDs/A/04_clownfish.jpg,1,4,1,1,2,1,1,3,0,59,,,,,,,,,,,,,,,,,,,,
,,,,,59,2020-07-04_16h02.14.282,retriever_ti,2020.1.3,Win32,60,Chrome,1366,768,,,,,,,,,,,,,,,,,2,,,,,,,,,,,,,,,,,,,,,,,,,,,762.44551,140,left,0.80098,dress         ,3,7,1,1,0,762.478215,762.478215,764.98226,0,62,62,62,1,140,3,2,dress         ,redfox      ,html/resources/sequences_IDs/A/07_dress.jpg,html/resources/sequences_IDs/B/01_redfox.jpg,7,1,3,2,1,1,6,1,1,59,,,,,,,,,,,,,,,,,,,,
,,,,,59,2020-07-04_16h02.14.282,retriever_ti,2020.1.3,Win32,60,Chrome,1366,768,,,,,,,,,,,,,,,,,2,,,,,,,,,,,,,,,,,,,,,,,,,,,766.076895,141,left,1.45992,phone       ,4,9,-3,0,3,766.11067,766.11067,768.597345,0,63,63,63,1,141,4,7,phone       ,clownfish     ,html/resources/sequences_IDs/B/09_phone.jpg,html/resources/sequences_IDs/A/04_clownfish.jpg,9,4,4,2,2,1,7,3,0,59,,,,,,,,,,,,,,,,,,,,
,,,,,59,2020-07-04_16h02.14.282,retriever_ti,2020.1.3,Win32,60,Chrome,1366,768,,,,,,,,,,,,,,,,,2,,,,,,,,,,,,,,,,,,,,,,,,,,,769.21261,142,right,1.12193,clownfish     ,7,4,6,1,3,769.246495,769.246495,771.747585,0,64,64,64,1,142,1,7,seaturtle     ,clownfish     ,html/resources/sequences_IDs/A/02_seaturtle.jpg,html/resources/sequences_IDs/A/04_clownfish.jpg,2,4,2,1,2,1,2,3,0,59,,,,,,,,,,,,,,,,,,,,
,,,,,59,2020-07-04_16h02.14.282,retriever_ti,2020.1.3,Win32,60,Chrome,1366,768,,,,,,,,,,,,,,,,,2,,,,,,,,,,,,,,,,,,,,,,,,,,,772.361705,143,right,0.769865,phone       ,4,9,-4,0,3,772.37786,772.37786,774.86603,0,65,65,65,1,143,8,4,parrot      ,phone       ,html/resources/sequences_IDs/B/05_parrot.jpg,html/resources/sequences_IDs/B/09_phone.jpg,5,9,2,1,4,2,4,7,0,59,,,,,,,,,,,,,,,,,,,,
,,,,,59,2020-07-04_16h02.14.282,retriever_ti,2020.1.3,Win32,60,Chrome,1366,768,,,,,,,,,,,,,,,,,2,,,,,,,,,,,,,,,,,,,,,,,,,,,775.478335,144,right,1.03807,dress         ,3,7,-5,0,3,775.49702,775.49702,777.99933,0,66,66,66,1,144,8,3,parrot      ,dress         ,html/resources/sequences_IDs/B/05_parrot.jpg,html/resources/sequences_IDs/A/07_dress.jpg,5,7,2,1,3,2,4,6,0,59,,,,,,,,,,,,,,,,,,,,
,,,,,59,2020-07-04_16h02.14.282,retriever_ti,2020.1.3,Win32,60,Chrome,1366,768,,,,,,,,,,,,,,,,,2,,,,,,,,,,,,,,,,,,,,,,,,,,,778.614,145,right,1.55592,radio       ,6,10,1,1,1,778.648365,778.648365,781.150265,0,67,67,67,1,145,5,6,scarf         ,radio       ,html/resources/sequences_IDs/A/06_scarf.jpg,html/resources/sequences_IDs/B/10_radio.jpg,6,10,3,2,4,2,5,8,0,59,,,,,,,,,,,,,,,,,,,,
,,,,,59,2020-07-04_16h02.14.282,retriever_ti,2020.1.3,Win32,60,Chrome,1366,768,,,,,,,,,,,,,,,,,2,,,,,,,,,,,,,,,,,,,,,,,,,,,782.24462,146,left,1.205665,redfox      ,2,1,-6,0,3,782.278445,782.278445,784.764925,0,68,68,68,1,146,2,8,redfox      ,parrot      ,html/resources/sequences_IDs/B/01_redfox.jpg,html/resources/sequences_IDs/B/05_parrot.jpg,1,5,1,1,2,1,1,4,0,59,,,,,,,,,,,,,,,,,,,,
,,,,,59,2020-07-04_16h02.14.282,retriever_ti,2020.1.3,Win32,60,Chrome,1366,768,,,,,,,,,,,,,,,,,2,,,,,,,,,,,,,,,,,,,,,,,,,,,785.38009,147,left,0.916455,scarf         ,5,6,-2,0,3,785.413585,785.413585,787.91601,0,69,69,69,1,147,5,7,scarf         ,clownfish     ,html/resources/sequences_IDs/A/06_scarf.jpg,html/resources/sequences_IDs/A/04_clownfish.jpg,6,4,3,2,2,1,5,3,0,59,,,,,,,,,,,,,,,,,,,,
,,,,,59,2020-07-04_16h02.14.282,retriever_ti,2020.1.3,Win32,60,Chrome,1366,768,,,,,,,,,,,,,,,,,2,,,,,,,,,,,,,,,,,,,,,,,,,,,788.531,148,left,0.91552,parrot      ,8,5,6,1,3,788.547855,788.547855,791.0511,0,70,70,70,1,148,8,2,parrot      ,redfox      ,html/resources/sequences_IDs/B/05_parrot.jpg,html/resources/sequences_IDs/B/01_redfox.jpg,5,1,2,1,1,1,4,1,0,59,,,,,,,,,,,,,,,,,,,,
,,,,,59,2020-07-04_16h02.14.282,retriever_ti,2020.1.3,Win32,60,Chrome,1366,768,,,,,,,,,,,,,,,,,2,,,,,,,,,,,,,,,,,,,,,,,,,,,791.664675,149,left,0.79808,phone       ,4,9,2,1,3,791.698375,791.698375,794.201635,0,71,71,71,1,149,4,2,phone       ,redfox      ,html/resources/sequences_IDs/B/09_phone.jpg,html/resources/sequences_IDs/B/01_redfox.jpg,9,1,4,2,1,1,7,1,0,59,,,,,,,,,,,,,,,,,,,,
,,,,,59,2020-07-04_16h02.14.282,retriever_ti,2020.1.3,Win32,60,Chrome,1366,768,,,,,,,,,,,,,,,,,2,,,,,,,,,,,,,,,,,,,,,,,,,,,794.81634,150,left,1.05793,dress         ,3,7,-2,0,3,794.83258,794.83258,797.319545,0,72,72,72,1,150,3,5,dress         ,scarf         ,html/resources/sequences_IDs/A/07_dress.jpg,html/resources/sequences_IDs/A/06_scarf.jpg,7,6,3,2,3,2,6,5,0,59,,,,,,,,,,,,,,,,,,,,
,,,,,59,2020-07-04_16h02.14.282,retriever_ti,2020.1.3,Win32,60,Chrome,1366,768,,,,,,,,,,,,,,,,,2,,,,,,,,,,,,,,,,,,,,,,,,,,,797.933165,151,right,1.493655,radio       ,6,10,-1,0,0,797.96789,797.96789,800.47021,0,73,73,73,1,151,7,6,clownfish     ,radio       ,html/resources/sequences_IDs/A/04_clownfish.jpg,html/resources/sequences_IDs/B/10_radio.jpg,4,10,2,1,4,2,3,8,0,59,,,,,,,,,,,,,,,,,,,,
,,,,,59,2020-07-04_16h02.14.282,retriever_ti,2020.1.3,Win32,60,Chrome,1366,768,,,,,,,,,,,,,,,,,2,,,,,,,,,,,,,,,,,,,,,,,,,,,801.56518,152,left,0.77259,clownfish     ,7,4,3,1,3,801.581235,801.581235,804.069335,0,74,74,74,1,152,7,4,clownfish     ,phone       ,html/resources/sequences_IDs/A/04_clownfish.jpg,html/resources/sequences_IDs/B/09_phone.jpg,4,9,2,1,4,2,3,7,0,59,,,,,,,,,,,,,,,,,,,,
,,,,,59,2020-07-04_16h02.14.282,retriever_ti,2020.1.3,Win32,60,Chrome,1366,768,,,,,,,,,,,,,,,,,2,,,,,,,,,,,,,,,,,,,,,,,,,,,804.682875,153,left,0.8199,parrot      ,8,5,7,1,3,804.70006,804.70006,807.18704,0,75,75,75,1,153,8,1,parrot      ,seaturtle     ,html/resources/sequences_IDs/B/05_parrot.jpg,html/resources/sequences_IDs/A/02_seaturtle.jpg,5,2,2,1,2,1,4,2,0,59,,,,,,,,,,,,,,,,,,,,
,,,,,59,2020-07-04_16h02.14.282,retriever_ti,2020.1.3,Win32,60,Chrome,1366,768,,,,,,,,,,,,,,,,,2,,,,,,,,,,,,,,,,,,,,,,,,,,,807.799375,154,left,0.892575,clownfish     ,7,4,2,1,3,807.82077,807.82077,810.30643,0,76,76,76,1,154,7,5,clownfish     ,scarf         ,html/resources/sequences_IDs/A/04_clownfish.jpg,html/resources/sequences_IDs/A/06_scarf.jpg,4,6,2,1,3,2,3,5,0,59,,,,,,,,,,,,,,,,,,,,
,,,,,59,2020-07-04_16h02.14.282,retriever_ti,2020.1.3,Win32,60,Chrome,1366,768,,,,,,,,,,,,,,,,,,,,,,,,,,,,,,,,,,,,,0,1.561855,,,,,,,,,,,,,,,,,,,,,,,,,,,,,,,,,,,,,,,,,1,0,1,0,1,,,,,,,,,,,,,,,
,,,,,59,2020-07-04_16h02.14.282,retriever_ti,2020.1.3,Win32,60,Chrome,1366,768,,,,,,,,,,,,,,,,,3,,,,,,,,,,,,,,,,,,,,,,,,,,,818.74135,155,left,1.338925,clownfish     ,7,4,-1,0,0,818.76601,818.76601,821.26604,0,0,0,0,1,155,7,8,clownfish     ,parrot      ,html/resources/sequences_IDs/A/04_clownfish.jpg,html/resources/sequences_IDs/B/05_parrot.jpg,4,5,2,1,2,1,3,4,0,59,,,,,,,,,,,,,,,,,,,,
,,,,,59,2020-07-04_16h02.14.282,retriever_ti,2020.1.3,Win32,60,Chrome,1366,768,,,,,,,,,,,,,,,,,3,,,,,,,,,,,,,,,,,,,,,,,,,,,822.360955,156,right,1.261405,dress         ,3,7,-1,0,0,822.37765,822.37765,824.88115,0,1,1,1,1,156,4,3,phone       ,dress         ,html/resources/sequences_IDs/B/09_phone.jpg,html/resources/sequences_IDs/A/07_dress.jpg,9,7,4,2,3,2,7,6,0,59,,,,,,,,,,,,,,,,,,,,
,,,,,59,2020-07-04_16h02.14.282,retriever_ti,2020.1.3,Win32,60,Chrome,1366,768,,,,,,,,,,,,,,,,,3,,,,,,,,,,,,,,,,,,,,,,,,,,,825.976015,157,right,1.51313,scarf         ,5,6,-1,0,0,826.0095,826.0095,828.496315,0,2,2,2,1,157,6,5,radio       ,scarf         ,html/resources/sequences_IDs/B/10_radio.jpg,html/resources/sequences_IDs/A/06_scarf.jpg,10,6,4,2,3,2,8,5,0,59,,,,,,,,,,,,,,,,,,,,
,,,,,59,2020-07-04_16h02.14.282,retriever_ti,2020.1.3,Win32,60,Chrome,1366,768,,,,,,,,,,,,,,,,,3,,,,,,,,,,,,,,,,,,,,,,,,,,,829.59292,158,left,0.3114,clownfish     ,7,4,-1,0,0,829.62713,829.62713,832.12727,0,3,3,3,1,158,7,8,clownfish     ,parrot      ,html/resources/sequences_IDs/A/04_clownfish.jpg,html/resources/sequences_IDs/B/05_parrot.jpg,4,5,2,1,2,1,3,4,0,59,,,,,,,,,,,,,,,,,,,,
,,,,,59,2020-07-04_16h02.14.282,retriever_ti,2020.1.3,Win32,60,Chrome,1366,768,,,,,,,,,,,,,,,,,3,,,,,,,,,,,,,,,,,,,,,,,,,,,833.222985,159,left,1.06603,dress         ,3,7,-2,0,3,833.23923,833.23923,835.72672,0,4,4,4,1,159,3,5,dress         ,scarf         ,html/resources/sequences_IDs/A/07_dress.jpg,html/resources/sequences_IDs/A/06_scarf.jpg,7,6,3,2,3,2,6,5,0,59,,,,,,,,,,,,,,,,,,,,
,,,,,59,2020-07-04_16h02.14.282,retriever_ti,2020.1.3,Win32,60,Chrome,1366,768,,,,,,,,,,,,,,,,,3,,,,,,,,,,,,,,,,,,,,,,,,,,,836.340455,160,left,1.093755,parrot      ,8,5,5,1,3,836.37403,836.37403,838.860835,0,5,5,5,1,160,8,3,parrot      ,dress         ,html/resources/sequences_IDs/B/05_parrot.jpg,html/resources/sequences_IDs/A/07_dress.jpg,5,7,2,1,3,2,4,6,0,59,,,,,,,,,,,,,,,,,,,,
,,,,,59,2020-07-04_16h02.14.282,retriever_ti,2020.1.3,Win32,60,Chrome,1366,768,,,,,,,,,,,,,,,,,3,,,,,,,,,,,,,,,,,,,,,,,,,,,839.475675,161,left,0.90315,redfox      ,2,1,1,1,1,839.49215,839.49215,841.995315,0,6,6,6,1,161,2,1,redfox      ,seaturtle     ,html/resources/sequences_IDs/B/01_redfox.jpg,html/resources/sequences_IDs/A/02_seaturtle.jpg,1,2,1,1,2,1,1,2,0,59,,,,,,,,,,,,,,,,,,,,
,,,,,59,2020-07-04_16h02.14.282,retriever_ti,2020.1.3,Win32,60,Chrome,1366,768,,,,,,,,,,,,,,,,,3,,,,,,,,,,,,,,,,,,,,,,,,,,,843.08999,162,left,0.565345,redfox      ,2,1,-1,0,0,843.10774,843.10774,845.59388,0,7,7,7,1,162,2,3,redfox      ,dress         ,html/resources/sequences_IDs/B/01_redfox.jpg,html/resources/sequences_IDs/A/07_dress.jpg,1,7,1,1,3,2,1,6,0,59,,,,,,,,,,,,,,,,,,,,
,,,,,59,2020-07-04_16h02.14.282,retriever_ti,2020.1.3,Win32,60,Chrome,1366,768,,,,,,,,,,,,,,,,,3,,,,,,,,,,,,,,,,,,,,,,,,,,,846.68887,163,left,1.152095,radio       ,6,10,5,1,3,846.722555,846.722555,849.22555,0,8,8,8,1,163,6,1,radio       ,seaturtle     ,html/resources/sequences_IDs/B/10_radio.jpg,html/resources/sequences_IDs/A/02_seaturtle.jpg,10,2,4,2,2,1,8,2,0,59,,,,,,,,,,,,,,,,,,,,
,,,,,59,2020-07-04_16h02.14.282,retriever_ti,2020.1.3,Win32,60,Chrome,1366,768,,,,,,,,,,,,,,,,,3,,,,,,,,,,,,,,,,,,,,,,,,,,,849.84153,164,left,0.625285,clownfish     ,7,4,1,1,1,849.857265,849.857265,852.359675,0,9,9,9,1,164,7,6,clownfish     ,radio       ,html/resources/sequences_IDs/A/04_clownfish.jpg,html/resources/sequences_IDs/B/10_radio.jpg,4,10,2,1,4,2,3,8,0,59,,,,,,,,,,,,,,,,,,,,
,,,,,59,2020-07-04_16h02.14.282,retriever_ti,2020.1.3,Win32,60,Chrome,1366,768,,,,,,,,,,,,,,,,,3,,,,,,,,,,,,,,,,,,,,,,,,,,,853.45512,165,left,1.67728,redfox      ,2,1,-3,0,3,853.48856,853.48856,855.991325,0,10,10,10,1,165,2,5,redfox      ,scarf         ,html/resources/sequences_IDs/B/01_redfox.jpg,html/resources/sequences_IDs/A/06_scarf.jpg,1,6,1,1,3,2,1,5,0,59,,,,,,,,,,,,,,,,,,,,
,,,,,59,2020-07-04_16h02.14.282,retriever_ti,2020.1.3,Win32,60,Chrome,1366,768,,,,,,,,,,,,,,,,,3,,,,,,,,,,,,,,,,,,,,,,,,,,,856.604775,166,right,1.5768,parrot      ,8,5,3,1,3,856.639395,856.639395,859.14942,0,11,11,11,1,166,5,8,scarf         ,parrot      ,html/resources/sequences_IDs/A/06_scarf.jpg,html/resources/sequences_IDs/B/05_parrot.jpg,6,5,3,2,2,1,5,4,0,59,,,,,,,,,,,,,,,,,,,,
,,,,,59,2020-07-04_16h02.14.282,retriever_ti,2020.1.3,Win32,60,Chrome,1366,768,,,,,,,,,,,,,,,,,3,,,,,,,,,,,,,,,,,,,,,,,,,,,859.756965,167,left,1.11047,scarf         ,5,6,-1,0,0,859.772965,859.772965,862.260355,0,12,12,12,1,167,5,6,scarf         ,radio       ,html/resources/sequences_IDs/A/06_scarf.jpg,html/resources/sequences_IDs/B/10_radio.jpg,6,10,3,2,4,2,5,8,0,59,,,,,,,,,,,,,,,,,,,,
,,,,,59,2020-07-04_16h02.14.282,retriever_ti,2020.1.3,Win32,60,Chrome,1366,768,,,,,,,,,,,,,,,,,3,,,,,,,,,,,,,,,,,,,,,,,,,,,863.3549,168,left,1.610445,clownfish     ,7,4,6,1,3,863.37207,863.37207,865.87495,0,13,13,13,1,168,7,1,clownfish     ,seaturtle     ,html/resources/sequences_IDs/A/04_clownfish.jpg,html/resources/sequences_IDs/A/02_seaturtle.jpg,4,2,2,1,2,1,3,2,0,59,,,,,,,,,,,,,,,,,,,,
,,,,,59,2020-07-04_16h02.14.282,retriever_ti,2020.1.3,Win32,60,Chrome,1366,768,,,,,,,,,,,,,,,,,3,,,,,,,,,,,,,,,,,,,,,,,,,,,866.48909,169,left,1.442935,scarf         ,5,6,-2,0,3,866.50567,866.50567,868.99287,0,14,14,14,1,169,5,7,scarf         ,clownfish     ,html/resources/sequences_IDs/A/06_scarf.jpg,html/resources/sequences_IDs/A/04_clownfish.jpg,6,4,3,2,2,1,5,3,0,59,,,,,,,,,,,,,,,,,,,,
,,,,,59,2020-07-04_16h02.14.282,retriever_ti,2020.1.3,Win32,60,Chrome,1366,768,,,,,,,,,,,,,,,,,3,,,,,,,,,,,,,,,,,,,,,,,,,,,869.60627,170,left,1.75306,radio       ,6,10,-1,0,1,869.624305,869.624305,872.12699,0,15,15,15,1,170,6,7,radio       ,clownfish     ,html/resources/sequences_IDs/B/10_radio.jpg,html/resources/sequences_IDs/A/04_clownfish.jpg,10,4,4,2,2,1,8,3,1,59,,,,,,,,,,,,,,,,,,,,
,,,,,59,2020-07-04_16h02.14.282,retriever_ti,2020.1.3,Win32,60,Chrome,1366,768,,,,,,,,,,,,,,,,,3,,,,,,,,,,,,,,,,,,,,,,,,,,,873.222425,171,left,1.45705,dress         ,3,7,1,1,1,873.239405,873.239405,875.74211,0,16,16,16,1,171,3,2,dress         ,redfox      ,html/resources/sequences_IDs/A/07_dress.jpg,html/resources/sequences_IDs/B/01_redfox.jpg,7,1,3,2,1,1,6,1,0,59,,,,,,,,,,,,,,,,,,,,
,,,,,59,2020-07-04_16h02.14.282,retriever_ti,2020.1.3,Win32,60,Chrome,1366,768,,,,,,,,,,,,,,,,,3,,,,,,,,,,,,,,,,,,,,,,,,,,,876.837645,172,right,1.757065,dress         ,3,7,-1,0,1,876.870985,876.870985,879.373705,0,17,17,17,1,172,4,3,phone       ,dress         ,html/resources/sequences_IDs/B/09_phone.jpg,html/resources/sequences_IDs/A/07_dress.jpg,9,7,4,2,3,2,7,6,1,59,,,,,,,,,,,,,,,,,,,,
,,,,,59,2020-07-04_16h02.14.282,retriever_ti,2020.1.3,Win32,60,Chrome,1366,768,,,,,,,,,,,,,,,,,3,,,,,,,,,,,,,,,,,,,,,,,,,,,880.468835,173,left,1.399365,dress         ,3,7,-1,0,0,880.485115,880.485115,882.972485,0,18,18,18,1,173,3,4,dress         ,phone       ,html/resources/sequences_IDs/A/07_dress.jpg,html/resources/sequences_IDs/B/09_phone.jpg,7,9,3,2,4,2,6,7,0,59,,,,,,,,,,,,,,,,,,,,
,,,,,59,2020-07-04_16h02.14.282,retriever_ti,2020.1.3,Win32,60,Chrome,1366,768,,,,,,,,,,,,,,,,,3,,,,,,,,,,,,,,,,,,,,,,,,,,,884.06796,174,right,1.846415,radio       ,6,10,5,1,3,884.084965,884.084965,886.587495,0,19,19,19,1,174,1,6,seaturtle     ,radio       ,html/resources/sequences_IDs/A/02_seaturtle.jpg,html/resources/sequences_IDs/B/10_radio.jpg,2,10,2,1,4,2,2,8,0,59,,,,,,,,,,,,,,,,,,,,
,,,,,59,2020-07-04_16h02.14.282,retriever_ti,2020.1.3,Win32,60,Chrome,1366,768,,,,,,,,,,,,,,,,,3,,,,,,,,,,,,,,,,,,,,,,,,,,,887.20135,175,right,1.317615,dress         ,3,7,2,1,3,887.23458,887.23458,889.721945,0,20,20,20,1,175,1,3,seaturtle     ,dress         ,html/resources/sequences_IDs/A/02_seaturtle.jpg,html/resources/sequences_IDs/A/07_dress.jpg,2,7,2,1,3,2,2,6,0,59,,,,,,,,,,,,,,,,,,,,
,,,,,59,2020-07-04_16h02.14.282,retriever_ti,2020.1.3,Win32,60,Chrome,1366,768,,,,,,,,,,,,,,,,,3,,,,,,,,,,,,,,,,,,,,,,,,,,,890.33525,176,right,1.84165,dress         ,3,7,-4,0,3,890.353175,890.353175,892.84027,0,21,21,21,1,176,7,3,clownfish     ,dress         ,html/resources/sequences_IDs/A/04_clownfish.jpg,html/resources/sequences_IDs/A/07_dress.jpg,4,7,2,1,3,2,3,6,0,59,,,,,,,,,,,,,,,,,,,,
,,,,,59,2020-07-04_16h02.14.282,retriever_ti,2020.1.3,Win32,60,Chrome,1366,768,,,,,,,,,,,,,,,,,3,,,,,,,,,,,,,,,,,,,,,,,,,,,893.454005,177,left,1.383005,parrot      ,8,5,1,1,1,893.48631,893.48631,895.974,0,22,22,22,1,177,8,7,parrot      ,clownfish     ,html/resources/sequences_IDs/B/05_parrot.jpg,html/resources/sequences_IDs/A/04_clownfish.jpg,5,4,2,1,2,1,4,3,0,59,,,,,,,,,,,,,,,,,,,,
,,,,,59,2020-07-04_16h02.14.282,retriever_ti,2020.1.3,Win32,60,Chrome,1366,768,,,,,,,,,,,,,,,,,3,,,,,,,,,,,,,,,,,,,,,,,,,,,897.06913,178,right,1.9955,redfox      ,2,1,-5,0,3,897.086065,897.086065,899.591635,0,23,23,23,1,178,7,2,clownfish     ,redfox      ,html/resources/sequences_IDs/A/04_clownfish.jpg,html/resources/sequences_IDs/B/01_redfox.jpg,4,1,2,1,1,1,3,1,0,59,,,,,,,,,,,,,,,,,,,,
,,,,,59,2020-07-04_16h02.14.282,retriever_ti,2020.1.3,Win32,60,Chrome,1366,768,,,,,,,,,,,,,,,,,3,,,,,,,,,,,,,,,,,,,,,,,,,,,900.20272,179,left,1.603985,phone       ,4,9,-4,0,3,900.237245,900.237245,902.740325,0,24,24,24,1,179,4,8,phone       ,parrot      ,html/resources/sequences_IDs/B/09_phone.jpg,html/resources/sequences_IDs/B/05_parrot.jpg,9,5,4,2,2,1,7,4,0,59,,,,,,,,,,,,,,,,,,,,
,,,,,59,2020-07-04_16h02.14.282,retriever_ti,2020.1.3,Win32,60,Chrome,1366,768,,,,,,,,,,,,,,,,,3,,,,,,,,,,,,,,,,,,,,,,,,,,,903.35388,180,left,1.741615,scarf         ,5,6,2,1,3,903.38753,903.38753,905.874155,0,25,25,25,1,180,5,3,scarf         ,dress         ,html/resources/sequences_IDs/A/06_scarf.jpg,html/resources/sequences_IDs/A/07_dress.jpg,6,7,3,2,3,2,5,6,0,59,,,,,,,,,,,,,,,,,,,,
,,,,,59,2020-07-04_16h02.14.282,retriever_ti,2020.1.3,Win32,60,Chrome,1366,768,,,,,,,,,,,,,,,,,3,,,,,,,,,,,,,,,,,,,,,,,,,,,906.48747,181,right,0.895445,scarf         ,5,6,4,1,3,906.52209,906.52209,909.025285,0,26,26,26,1,181,1,5,seaturtle     ,scarf         ,html/resources/sequences_IDs/A/02_seaturtle.jpg,html/resources/sequences_IDs/A/06_scarf.jpg,2,6,2,1,3,2,2,5,0,59,,,,,,,,,,,,,,,,,,,,
,,,,,59,2020-07-04_16h02.14.282,retriever_ti,2020.1.3,Win32,60,Chrome,1366,768,,,,,,,,,,,,,,,,,3,,,,,,,,,,,,,,,,,,,,,,,,,,,909.64055,182,left,1.588885,dress         ,3,7,2,1,3,909.657045,909.657045,912.143175,0,27,27,27,1,182,3,1,dress         ,seaturtle     ,html/resources/sequences_IDs/A/07_dress.jpg,html/resources/sequences_IDs/A/02_seaturtle.jpg,7,2,3,2,2,1,6,2,0,59,,,,,,,,,,,,,,,,,,,,
,,,,,59,2020-07-04_16h02.14.282,retriever_ti,2020.1.3,Win32,60,Chrome,1366,768,,,,,,,,,,,,,,,,,3,,,,,,,,,,,,,,,,,,,,,,,,,,,912.756795,183,left,1.42363,parrot      ,8,5,3,1,3,912.790565,912.790565,915.277565,0,28,28,28,1,183,8,5,parrot      ,scarf         ,html/resources/sequences_IDs/B/05_parrot.jpg,html/resources/sequences_IDs/A/06_scarf.jpg,5,6,2,1,3,2,4,5,0,59,,,,,,,,,,,,,,,,,,,,
,,,,,59,2020-07-04_16h02.14.282,retriever_ti,2020.1.3,Win32,60,Chrome,1366,768,,,,,,,,,,,,,,,,,3,,,,,,,,,,,,,,,,,,,,,,,,,,,915.89118,184,right,1.9581,phone       ,4,9,-3,0,3,915.924665,915.924665,918.428005,0,29,29,29,1,184,7,4,clownfish     ,phone       ,html/resources/sequences_IDs/A/04_clownfish.jpg,html/resources/sequences_IDs/B/09_phone.jpg,4,9,2,1,4,2,3,7,0,59,,,,,,,,,,,,,,,,,,,,
,,,,,59,2020-07-04_16h02.14.282,retriever_ti,2020.1.3,Win32,60,Chrome,1366,768,,,,,,,,,,,,,,,,,3,,,,,,,,,,,,,,,,,,,,,,,,,,,919.075895,185,left,1.543505,scarf         ,5,6,1,1,1,919.092015,919.092015,921.59413,0,30,30,30,1,185,5,4,scarf         ,phone       ,html/resources/sequences_IDs/A/06_scarf.jpg,html/resources/sequences_IDs/B/09_phone.jpg,6,9,3,2,4,2,5,7,0,59,,,,,,,,,,,,,,,,,,,,
,,,,,59,2020-07-04_16h02.14.282,retriever_ti,2020.1.3,Win32,60,Chrome,1366,768,,,,,,,,,,,,,,,,,3,,,,,,,,,,,,,,,,,,,,,,,,,,,922.69021,186,left,1.00856,dress         ,3,7,-5,0,3,922.723095,922.723095,925.210845,0,31,31,31,1,186,3,8,dress         ,parrot      ,html/resources/sequences_IDs/A/07_dress.jpg,html/resources/sequences_IDs/B/05_parrot.jpg,7,5,3,2,2,1,6,4,0,59,,,,,,,,,,,,,,,,,,,,
,,,,,59,2020-07-04_16h02.14.282,retriever_ti,2020.1.3,Win32,60,Chrome,1366,768,,,,,,,,,,,,,,,,,3,,,,,,,,,,,,,,,,,,,,,,,,,,,925.824935,187,right,0.71307,redfox      ,2,1,1,1,1,925.85811,925.85811,928.36113,0,32,32,32,1,187,1,2,seaturtle     ,redfox      ,html/resources/sequences_IDs/A/02_seaturtle.jpg,html/resources/sequences_IDs/B/01_redfox.jpg,2,1,2,1,1,1,2,1,0,59,,,,,,,,,,,,,,,,,,,,
,,,,,59,2020-07-04_16h02.14.282,retriever_ti,2020.1.3,Win32,60,Chrome,1366,768,,,,,,,,,,,,,,,,,3,,,,,,,,,,,,,,,,,,,,,,,,,,,929.45647,188,left,0.971025,radio       ,6,10,1,1,1,929.49016,929.49016,931.99324,0,33,33,33,1,188,6,5,radio       ,scarf         ,html/resources/sequences_IDs/B/10_radio.jpg,html/resources/sequences_IDs/A/06_scarf.jpg,10,6,4,2,3,2,8,5,0,59,,,,,,,,,,,,,,,,,,,,
,,,,,59,2020-07-04_16h02.14.282,retriever_ti,2020.1.3,Win32,60,Chrome,1366,768,,,,,,,,,,,,,,,,,3,,,,,,,,,,,,,,,,,,,,,,,,,,,933.08803,189,left,1.081705,phone       ,4,9,-1,0,1,933.121375,933.121375,935.624665,0,34,34,34,1,189,4,5,phone       ,scarf         ,html/resources/sequences_IDs/B/09_phone.jpg,html/resources/sequences_IDs/A/06_scarf.jpg,9,6,4,2,3,2,7,5,1,59,,,,,,,,,,,,,,,,,,,,
,,,,,59,2020-07-04_16h02.14.282,retriever_ti,2020.1.3,Win32,60,Chrome,1366,768,,,,,,,,,,,,,,,,,3,,,,,,,,,,,,,,,,,,,,,,,,,,,936.719835,190,left,1.827255,radio       ,6,10,4,1,3,936.75347,936.75347,939.25638,0,35,35,35,1,190,6,2,radio       ,redfox      ,html/resources/sequences_IDs/B/10_radio.jpg,html/resources/sequences_IDs/B/01_redfox.jpg,10,1,4,2,1,1,8,1,0,59,,,,,,,,,,,,,,,,,,,,
,,,,,59,2020-07-04_16h02.14.282,retriever_ti,2020.1.3,Win32,60,Chrome,1366,768,,,,,,,,,,,,,,,,,3,,,,,,,,,,,,,,,,,,,,,,,,,,,939.87096,191,right,1.727135,clownfish     ,7,4,3,1,3,939.904065,939.904065,942.391045,0,36,36,36,1,191,4,7,phone       ,clownfish     ,html/resources/sequences_IDs/B/09_phone.jpg,html/resources/sequences_IDs/A/04_clownfish.jpg,9,4,4,2,2,1,7,3,0,59,,,,,,,,,,,,,,,,,,,,
,,,,,59,2020-07-04_16h02.14.282,retriever_ti,2020.1.3,Win32,60,Chrome,1366,768,,,,,,,,,,,,,,,,,3,,,,,,,,,,,,,,,,,,,,,,,,,,,943.00499,192,left,0.73268,parrot      ,8,5,4,1,3,943.022335,943.022335,945.508965,0,37,37,37,1,192,8,4,parrot      ,phone       ,html/resources/sequences_IDs/B/05_parrot.jpg,html/resources/sequences_IDs/B/09_phone.jpg,5,9,2,1,4,2,4,7,0,59,,,,,,,,,,,,,,,,,,,,
,,,,,59,2020-07-04_16h02.14.282,retriever_ti,2020.1.3,Win32,60,Chrome,1366,768,,,,,,,,,,,,,,,,,3,,,,,,,,,,,,,,,,,,,,,,,,,,,946.12207,193,right,0.82137,radio       ,6,10,2,1,3,946.156575,946.156575,948.659365,0,38,38,38,1,193,4,6,phone       ,radio       ,html/resources/sequences_IDs/B/09_phone.jpg,html/resources/sequences_IDs/B/10_radio.jpg,9,10,4,2,4,2,7,8,0,59,,,,,,,,,,,,,,,,,,,,
,,,,,59,2020-07-04_16h02.14.282,retriever_ti,2020.1.3,Win32,60,Chrome,1366,768,,,,,,,,,,,,,,,,,3,,,,,,,,,,,,,,,,,,,,,,,,,,,949.273495,194,right,0.693285,redfox      ,2,1,-1,0,0,949.290395,949.290395,951.776725,0,39,39,39,1,194,3,2,dress         ,redfox      ,html/resources/sequences_IDs/A/07_dress.jpg,html/resources/sequences_IDs/B/01_redfox.jpg,7,1,3,2,1,1,6,1,0,59,,,,,,,,,,,,,,,,,,,,
,,,,,59,2020-07-04_16h02.14.282,retriever_ti,2020.1.3,Win32,60,Chrome,1366,768,,,,,,,,,,,,,,,,,3,,,,,,,,,,,,,,,,,,,,,,,,,,,952.871935,195,left,1.00039,seaturtle     ,1,2,-7,0,3,952.905805,952.905805,955.40914,0,40,40,40,1,195,1,8,seaturtle     ,parrot      ,html/resources/sequences_IDs/A/02_seaturtle.jpg,html/resources/sequences_IDs/B/05_parrot.jpg,2,5,2,1,2,1,2,4,0,59,,,,,,,,,,,,,,,,,,,,
,,,,,59,2020-07-04_16h02.14.282,retriever_ti,2020.1.3,Win32,60,Chrome,1366,768,,,,,,,,,,,,,,,,,3,,,,,,,,,,,,,,,,,,,,,,,,,,,956.02288,196,right,1.04723,seaturtle     ,1,2,-1,0,0,956.040045,956.040045,958.542685,0,41,41,41,1,196,2,1,redfox      ,seaturtle     ,html/resources/sequences_IDs/B/01_redfox.jpg,html/resources/sequences_IDs/A/02_seaturtle.jpg,1,2,1,1,2,1,1,2,0,59,,,,,,,,,,,,,,,,,,,,
,,,,,59,2020-07-04_16h02.14.282,retriever_ti,2020.1.3,Win32,60,Chrome,1366,768,,,,,,,,,,,,,,,,,3,,,,,,,,,,,,,,,,,,,,,,,,,,,959.67202,197,right,0.794175,redfox      ,2,1,-2,0,3,959.72159,959.72159,962.208515,0,42,42,42,1,197,4,2,phone       ,redfox      ,html/resources/sequences_IDs/B/09_phone.jpg,html/resources/sequences_IDs/B/01_redfox.jpg,9,1,4,2,1,1,7,1,0,59,,,,,,,,,,,,,,,,,,,,
,,,,,59,2020-07-04_16h02.14.282,retriever_ti,2020.1.3,Win32,60,Chrome,1366,768,,,,,,,,,,,,,,,,,3,,,,,,,,,,,,,,,,,,,,,,,,,,,962.82194,198,left,0.77835,radio       ,6,10,-1,0,0,962.85573,962.85573,965.342445,0,43,43,43,1,198,6,7,radio       ,clownfish     ,html/resources/sequences_IDs/B/10_radio.jpg,html/resources/sequences_IDs/A/04_clownfish.jpg,10,4,4,2,2,1,8,3,0,59,,,,,,,,,,,,,,,,,,,,
,,,,,59,2020-07-04_16h02.14.282,retriever_ti,2020.1.3,Win32,60,Chrome,1366,768,,,,,,,,,,,,,,,,,3,,,,,,,,,,,,,,,,,,,,,,,,,,,966.438545,199,left,2.360475,scarf         ,5,6,1,1,1,966.454645,966.454645,968.94076,0,44,44,44,1,199,5,4,scarf         ,phone       ,html/resources/sequences_IDs/A/06_scarf.jpg,html/resources/sequences_IDs/B/09_phone.jpg,6,9,3,2,4,2,5,7,0,59,,,,,,,,,,,,,,,,,,,,
,,,,,59,2020-07-04_16h02.14.282,retriever_ti,2020.1.3,Win32,60,Chrome,1366,768,,,,,,,,,,,,,,,,,3,,,,,,,,,,,,,,,,,,,,,,,,,,,970.036075,200,right,1.31331,scarf         ,5,6,-2,0,3,970.05352,970.05352,972.554955,0,45,45,45,1,200,7,5,clownfish     ,scarf         ,html/resources/sequences_IDs/A/04_clownfish.jpg,html/resources/sequences_IDs/A/06_scarf.jpg,4,6,2,1,3,2,3,5,0,59,,,,,,,,,,,,,,,,,,,,
,,,,,59,2020-07-04_16h02.14.282,retriever_ti,2020.1.3,Win32,60,Chrome,1366,768,,,,,,,,,,,,,,,,,3,,,,,,,,,,,,,,,,,,,,,,,,,,,973.169665,201,left,1.049685,redfox      ,2,1,-2,0,3,973.2039,973.2039,975.706215,0,46,46,46,1,201,2,4,redfox      ,phone       ,html/resources/sequences_IDs/B/01_redfox.jpg,html/resources/sequences_IDs/B/09_phone.jpg,1,9,1,1,4,2,1,7,0,59,,,,,,,,,,,,,,,,,,,,
,,,,,59,2020-07-04_16h02.14.282,retriever_ti,2020.1.3,Win32,60,Chrome,1366,768,,,,,,,,,,,,,,,,,3,,,,,,,,,,,,,,,,,,,,,,,,,,,976.31985,202,right,1.132675,redfox      ,2,1,-3,0,3,976.338375,976.338375,978.841295,0,47,47,47,1,202,5,2,scarf         ,redfox      ,html/resources/sequences_IDs/A/06_scarf.jpg,html/resources/sequences_IDs/B/01_redfox.jpg,6,1,3,2,1,1,5,1,0,59,,,,,,,,,,,,,,,,,,,,
,,,,,59,2020-07-04_16h02.14.282,retriever_ti,2020.1.3,Win32,60,Chrome,1366,768,,,,,,,,,,,,,,,,,3,,,,,,,,,,,,,,,,,,,,,,,,,,,979.44983,203,left,0.85198,dress         ,3,7,-1,0,0,979.472535,979.472535,981.959155,0,48,48,48,1,203,3,4,dress         ,phone       ,html/resources/sequences_IDs/A/07_dress.jpg,html/resources/sequences_IDs/B/09_phone.jpg,7,9,3,2,4,2,6,7,0,59,,,,,,,,,,,,,,,,,,,,
,,,,,59,2020-07-04_16h02.14.282,retriever_ti,2020.1.3,Win32,60,Chrome,1366,768,,,,,,,,,,,,,,,,,3,,,,,,,,,,,,,,,,,,,,,,,,,,,983.053685,204,left,1.13467,parrot      ,8,5,7,1,3,983.08794,983.08794,985.590305,0,49,49,49,1,204,8,1,parrot      ,seaturtle     ,html/resources/sequences_IDs/B/05_parrot.jpg,html/resources/sequences_IDs/A/02_seaturtle.jpg,5,2,2,1,2,1,4,2,0,59,,,,,,,,,,,,,,,,,,,,
,,,,,59,2020-07-04_16h02.14.282,retriever_ti,2020.1.3,Win32,60,Chrome,1366,768,,,,,,,,,,,,,,,,,3,,,,,,,,,,,,,,,,,,,,,,,,,,,986.20351,205,left,2.008865,dress         ,3,7,-4,0,3,986.23815,986.23815,988.7249,0,50,50,50,1,205,3,7,dress         ,clownfish     ,html/resources/sequences_IDs/A/07_dress.jpg,html/resources/sequences_IDs/A/04_clownfish.jpg,7,4,3,2,2,1,6,3,0,59,,,,,,,,,,,,,,,,,,,,
,,,,,59,2020-07-04_16h02.14.282,retriever_ti,2020.1.3,Win32,60,Chrome,1366,768,,,,,,,,,,,,,,,,,3,,,,,,,,,,,,,,,,,,,,,,,,,,,989.33931,206,left,1.030555,parrot      ,8,5,1,1,0,989.37384,989.37384,991.8755,0,51,51,51,1,206,8,7,parrot      ,clownfish     ,html/resources/sequences_IDs/B/05_parrot.jpg,html/resources/sequences_IDs/A/04_clownfish.jpg,5,4,2,1,2,1,4,3,1,59,,,,,,,,,,,,,,,,,,,,
,,,,,59,2020-07-04_16h02.14.282,retriever_ti,2020.1.3,Win32,60,Chrome,1366,768,,,,,,,,,,,,,,,,,3,,,,,,,,,,,,,,,,,,,,,,,,,,,992.97084,207,left,0.956895,clownfish     ,7,4,1,1,1,993.004745,993.004745,995.49125,0,52,52,52,1,207,7,6,clownfish     ,radio       ,html/resources/sequences_IDs/A/04_clownfish.jpg,html/resources/sequences_IDs/B/10_radio.jpg,4,10,2,1,4,2,3,8,0,59,,,,,,,,,,,,,,,,,,,,
,,,,,59,2020-07-04_16h02.14.282,retriever_ti,2020.1.3,Win32,60,Chrome,1366,768,,,,,,,,,,,,,,,,,3,,,,,,,,,,,,,,,,,,,,,,,,,,,996.58598,208,left,1.59368,radio       ,6,10,-1,0,0,996.602855,996.602855,999.112585,0,53,53,53,1,208,6,7,radio       ,clownfish     ,html/resources/sequences_IDs/B/10_radio.jpg,html/resources/sequences_IDs/A/04_clownfish.jpg,10,4,4,2,2,1,8,3,0,59,,,,,,,,,,,,,,,,,,,,
,,,,,59,2020-07-04_16h02.14.282,retriever_ti,2020.1.3,Win32,60,Chrome,1366,768,,,,,,,,,,,,,,,,,3,,,,,,,,,,,,,,,,,,,,,,,,,,,1000.217555,209,left,1.405605,radio       ,6,10,1,1,0,1000.23375,1000.23375,1002.721065,0,54,54,54,1,209,6,5,radio       ,scarf         ,html/resources/sequences_IDs/B/10_radio.jpg,html/resources/sequences_IDs/A/06_scarf.jpg,10,6,4,2,3,2,8,5,1,59,,,,,,,,,,,,,,,,,,,,
,,,,,59,2020-07-04_16h02.14.282,retriever_ti,2020.1.3,Win32,60,Chrome,1366,768,,,,,,,,,,,,,,,,,3,,,,,,,,,,,,,,,,,,,,,,,,,,,1003.816005,210,right,0.836085,clownfish     ,7,4,5,1,3,1003.84916,1003.84916,1006.336255,0,55,55,55,1,210,2,7,redfox      ,clownfish     ,html/resources/sequences_IDs/B/01_redfox.jpg,html/resources/sequences_IDs/A/04_clownfish.jpg,1,4,1,1,2,1,1,3,0,59,,,,,,,,,,,,,,,,,,,,
,,,,,59,2020-07-04_16h02.14.282,retriever_ti,2020.1.3,Win32,60,Chrome,1366,768,,,,,,,,,,,,,,,,,3,,,,,,,,,,,,,,,,,,,,,,,,,,,1006.94933,211,left,1.33396,scarf         ,5,6,4,1,3,1006.984,1006.984,1009.47679,0,56,56,56,1,211,5,1,scarf         ,seaturtle     ,html/resources/sequences_IDs/A/06_scarf.jpg,html/resources/sequences_IDs/A/02_seaturtle.jpg,6,2,3,2,2,1,5,2,0,59,,,,,,,,,,,,,,,,,,,,
,,,,,59,2020-07-04_16h02.14.282,retriever_ti,2020.1.3,Win32,60,Chrome,1366,768,,,,,,,,,,,,,,,,,3,,,,,,,,,,,,,,,,,,,,,,,,,,,1010.084515,212,left,0.620165,phone       ,4,9,3,1,3,1010.118485,1010.118485,1012.621205,0,57,57,57,1,212,4,1,phone       ,seaturtle     ,html/resources/sequences_IDs/B/09_phone.jpg,html/resources/sequences_IDs/A/02_seaturtle.jpg,9,2,4,2,2,1,7,2,0,59,,,,,,,,,,,,,,,,,,,,
,,,,,59,2020-07-04_16h02.14.282,retriever_ti,2020.1.3,Win32,60,Chrome,1366,768,,,,,,,,,,,,,,,,,3,,,,,,,,,,,,,,,,,,,,,,,,,,,1013.23491,213,left,0.721005,phone       ,4,9,1,1,1,1013.252975,1013.252975,1015.75535,0,58,58,58,1,213,4,3,phone       ,dress         ,html/resources/sequences_IDs/B/09_phone.jpg,html/resources/sequences_IDs/A/07_dress.jpg,9,7,4,2,3,2,7,6,0,59,,,,,,,,,,,,,,,,,,,,
,,,,,59,2020-07-04_16h02.14.282,retriever_ti,2020.1.3,Win32,60,Chrome,1366,768,,,,,,,,,,,,,,,,,3,,,,,,,,,,,,,,,,,,,,,,,,,,,1016.849975,214,right,1.67836,scarf         ,5,6,1,1,1,1016.88457,1016.88457,1019.387575,0,59,59,59,1,214,4,5,phone       ,scarf         ,html/resources/sequences_IDs/B/09_phone.jpg,html/resources/sequences_IDs/A/06_scarf.jpg,9,6,4,2,3,2,7,5,0,59,,,,,,,,,,,,,,,,,,,,
,,,,,59,2020-07-04_16h02.14.282,retriever_ti,2020.1.3,Win32,60,Chrome,1366,768,,,,,,,,,,,,,,,,,3,,,,,,,,,,,,,,,,,,,,,,,,,,,1020.48233,215,left,1.961175,scarf         ,5,6,-1,0,0,1020.499755,1020.499755,1022.98656,0,60,60,60,1,215,5,6,scarf         ,radio       ,html/resources/sequences_IDs/A/06_scarf.jpg,html/resources/sequences_IDs/B/10_radio.jpg,6,10,3,2,4,2,5,8,0,59,,,,,,,,,,,,,,,,,,,,
,,,,,59,2020-07-04_16h02.14.282,retriever_ti,2020.1.3,Win32,60,Chrome,1366,768,,,,,,,,,,,,,,,,,3,,,,,,,,,,,,,,,,,,,,,,,,,,,1024.08105,216,right,2.02443,redfox      ,2,1,-1,0,1,1024.09824,1024.09824,1026.585,0,61,61,61,1,216,3,2,dress         ,redfox      ,html/resources/sequences_IDs/A/07_dress.jpg,html/resources/sequences_IDs/B/01_redfox.jpg,7,1,3,2,1,1,6,1,1,59,,,,,,,,,,,,,,,,,,,,
,,,,,59,2020-07-04_16h02.14.282,retriever_ti,2020.1.3,Win32,60,Chrome,1366,768,,,,,,,,,,,,,,,,,3,,,,,,,,,,,,,,,,,,,,,,,,,,,1027.67996,217,left,1.65981,parrot      ,8,5,6,1,3,1027.697035,1027.697035,1030.199945,0,62,62,62,1,217,8,2,parrot      ,redfox      ,html/resources/sequences_IDs/B/05_parrot.jpg,html/resources/sequences_IDs/B/01_redfox.jpg,5,1,2,1,1,1,4,1,0,59,,,,,,,,,,,,,,,,,,,,
,,,,,59,2020-07-04_16h02.14.282,retriever_ti,2020.1.3,Win32,60,Chrome,1366,768,,,,,,,,,,,,,,,,,3,,,,,,,,,,,,,,,,,,,,,,,,,,,1030.812985,218,right,1.758455,radio       ,6,10,3,1,3,1030.847715,1030.847715,1033.35028,0,63,63,63,1,218,3,6,dress         ,radio       ,html/resources/sequences_IDs/A/07_dress.jpg,html/resources/sequences_IDs/B/10_radio.jpg,7,10,3,2,4,2,6,8,0,59,,,,,,,,,,,,,,,,,,,,
,,,,,59,2020-07-04_16h02.14.282,retriever_ti,2020.1.3,Win32,60,Chrome,1366,768,,,,,,,,,,,,,,,,,3,,,,,,,,,,,,,,,,,,,,,,,,,,,1033.96412,219,left,1.73203,redfox      ,2,1,-6,0,3,1033.99891,1033.99891,1036.501235,0,64,64,64,1,219,2,8,redfox      ,parrot      ,html/resources/sequences_IDs/B/01_redfox.jpg,html/resources/sequences_IDs/B/05_parrot.jpg,1,5,1,1,2,1,1,4,0,59,,,,,,,,,,,,,,,,,,,,
,,,,,59,2020-07-04_16h02.14.282,retriever_ti,2020.1.3,Win32,60,Chrome,1366,768,,,,,,,,,,,,,,,,,3,,,,,,,,,,,,,,,,,,,,,,,,,,,1037.11504,220,right,0.983995,redfox      ,2,1,1,1,0,1037.133085,1037.133085,1039.635815,0,65,65,65,1,220,1,2,seaturtle     ,redfox      ,html/resources/sequences_IDs/A/02_seaturtle.jpg,html/resources/sequences_IDs/B/01_redfox.jpg,2,1,2,1,1,1,2,1,1,59,,,,,,,,,,,,,,,,,,,,
,,,,,59,2020-07-04_16h02.14.282,retriever_ti,2020.1.3,Win32,60,Chrome,1366,768,,,,,,,,,,,,,,,,,3,,,,,,,,,,,,,,,,,,,,,,,,,,,1040.730645,221,left,0.727735,redfox      ,2,1,-4,0,3,1040.747965,1040.747965,1043.25085,0,66,66,66,1,221,2,6,redfox      ,radio       ,html/resources/sequences_IDs/B/01_redfox.jpg,html/resources/sequences_IDs/B/10_radio.jpg,1,10,1,1,4,2,1,8,0,59,,,,,,,,,,,,,,,,,,,,
,,,,,59,2020-07-04_16h02.14.282,retriever_ti,2020.1.3,Win32,60,Chrome,1366,768,,,,,,,,,,,,,,,,,3,,,,,,,,,,,,,,,,,,,,,,,,,,,1043.8643,222,left,0.865495,phone       ,4,9,-1,0,0,1043.88244,1043.88244,1046.384295,0,67,67,67,1,222,4,5,phone       ,scarf         ,html/resources/sequences_IDs/B/09_phone.jpg,html/resources/sequences_IDs/A/06_scarf.jpg,9,6,4,2,3,2,7,5,0,59,,,,,,,,,,,,,,,,,,,,
,,,,,59,2020-07-04_16h02.14.282,retriever_ti,2020.1.3,Win32,60,Chrome,1366,768,,,,,,,,,,,,,,,,,3,,,,,,,,,,,,,,,,,,,,,,,,,,,1047.480855,223,left,0.900575,seaturtle     ,1,2,-6,0,3,1047.514085,1047.514085,1050.01704,0,68,68,68,1,223,1,7,seaturtle     ,clownfish     ,html/resources/sequences_IDs/A/02_seaturtle.jpg,html/resources/sequences_IDs/A/04_clownfish.jpg,2,4,2,1,2,1,2,3,0,59,,,,,,,,,,,,,,,,,,,,
