instructionsLoop.thisRepN,instructionsLoop.thisTrialN,instructionsLoop.thisN,instructionsLoop.thisIndex,instructionsLoop.ran,participant,date,expName,psychopyVersion,OS,frameRate,browser,xResolution,yResolution,fix_onset,tprac,practiceKey.keys,practiceKey.rt,pracitem_chosen_name,acc_practice,P1_onsetPrac,P2_onsetPrac,onsetFeedbPrac,practiceTrials.thisRepN,practiceTrials.thisTrialN,practiceTrials.thisN,practiceTrials.thisIndex,practiceTrials.ran,P1,P2,Block,LocItem1,LocItem2,NameItem1,NameItem2,key_respAC_prac.keys,key_respAC_prac.corr,key_respAC_prac.rt,AC_acc,Attentions.thisRepN,Attentions.thisTrialN,Attentions.thisN,Attentions.thisIndex,Attentions.ran,Stim,Loc1,Loc2,Loc3,Loc4,CorrAns,keyDisturbed.keys,keyDisturbed.rt,repPractice.thisRepN,repPractice.thisTrialN,repPractice.thisN,repPractice.thisIndex,repPractice.ran,fixcross_onsetMain,trialNumber,key_resp.keys,key_resp.rt,item_chosen_name,item_chosen_value,item_chosen_ID,diff_chosen_minus_reject,acc_real,acc_feedback,P1_onset,P2_onset,feedb_onset,trials.thisRepN,trials.thisTrialN,trials.thisN,trials.thisIndex,trials.ran,Trial,ValueP1,ValueP2,P1name,P2name,P1Loc,P2Loc,P1id,P2id,Micro_categoryP1,Macro_categoryP1,Micro_categoryP2,Macro_categoryP2,ID_sequenceP1,ID_sequenceP2,InverseFb,pNumber,repBlocks.thisRepN,repBlocks.thisTrialN,repBlocks.thisN,repBlocks.thisIndex,repBlocks.ran,key_respAC.keys,key_respAC.corr,key_respAC.rt,trials_AC.thisRepN,trials_AC.thisTrialN,trials_AC.thisN,trials_AC.thisIndex,trials_AC.ran,Bonus,BonusLoop.thisRepN,BonusLoop.thisTrialN,BonusLoop.thisN,BonusLoop.thisIndex,BonusLoop.ran,comments
0,0,0,0,1,60,2020-07-04_17h05.29.904,retriever_ti,2020.1.3,Win32,60,Chrome,1536,864,,,,,,,,,,,,,,,,,,,,,,,,,,,,,,,,,,,,,,,,,,,,,,,,,,,,,,,,,,,,,,,,,,,,,,,,,,,,,,,,,,,,,,,,,,,,,,,,,,
1,0,1,0,1,60,2020-07-04_17h05.29.904,retriever_ti,2020.1.3,Win32,60,Chrome,1536,864,,,,,,,,,,,,,,,,,,,,,,,,,,,,,,,,,,,,,,,,,,,,,,,,,,,,,,,,,,,,,,,,,,,,,,,,,,,,,,,,,,,,,,,,,,,,,,,,,,
2,0,2,0,1,60,2020-07-04_17h05.29.904,retriever_ti,2020.1.3,Win32,60,Chrome,1536,864,,,,,,,,,,,,,,,,,,,,,,,,,,,,,,,,,,,,,,,,,,,,,,,,,,,,,,,,,,,,,,,,,,,,,,,,,,,,,,,,,,,,,,,,,,,,,,,,,,
3,0,3,0,1,60,2020-07-04_17h05.29.904,retriever_ti,2020.1.3,Win32,60,Chrome,1536,864,,,,,,,,,,,,,,,,,,,,,,,,,,,,,,,,,,,,,,,,,,,,,,,,,,,,,,,,,,,,,,,,,,,,,,,,,,,,,,,,,,,,,,,,,,,,,,,,,,
4,0,4,0,1,60,2020-07-04_17h05.29.904,retriever_ti,2020.1.3,Win32,60,Chrome,1536,864,,,,,,,,,,,,,,,,,,,,,,,,,,,,,,,,,,,,,,,,,,,,,,,,,,,,,,,,,,,,,,,,,,,,,,,,,,,,,,,,,,,,,,,,,,,,,,,,,,
5,0,5,0,1,60,2020-07-04_17h05.29.904,retriever_ti,2020.1.3,Win32,60,Chrome,1536,864,,,,,,,,,,,,,,,,,,,,,,,,,,,,,,,,,,,,,,,,,,,,,,,,,,,,,,,,,,,,,,,,,,,,,,,,,,,,,,,,,,,,,,,,,,,,,,,,,,
6,0,6,0,1,60,2020-07-04_17h05.29.904,retriever_ti,2020.1.3,Win32,60,Chrome,1536,864,,,,,,,,,,,,,,,,,,,,,,,,,,,,,,,,,,,,,,,,,,,,,,,,,,,,,,,,,,,,,,,,,,,,,,,,,,,,,,,,,,,,,,,,,,,,,,,,,,
7,0,7,0,1,60,2020-07-04_17h05.29.904,retriever_ti,2020.1.3,Win32,60,Chrome,1536,864,,,,,,,,,,,,,,,,,,,,,,,,,,,,,,,,,,,,,,,,,,,,,,,,,,,,,,,,,,,,,,,,,,,,,,,,,,,,,,,,,,,,,,,,,,,,,,,,,,
8,0,8,0,1,60,2020-07-04_17h05.29.904,retriever_ti,2020.1.3,Win32,60,Chrome,1536,864,,,,,,,,,,,,,,,,,,,,,,,,,,,,,,,,,,,,,,,,,,,,,,,,,,,,,,,,,,,,,,,,,,,,,,,,,,,,,,,,,,,,,,,,,,,,,,,,,,
9,0,9,0,1,60,2020-07-04_17h05.29.904,retriever_ti,2020.1.3,Win32,60,Chrome,1536,864,,,,,,,,,,,,,,,,,,,,,,,,,,,,,,,,,,,,,,,,,,,,,,,,,,,,,,,,,,,,,,,,,,,,,,,,,,,,,,,,,,,,,,,,,,,,,,,,,,
10,0,10,0,1,60,2020-07-04_17h05.29.904,retriever_ti,2020.1.3,Win32,60,Chrome,1536,864,,,,,,,,,,,,,,,,,,,,,,,,,,,,,,,,,,,,,,,,,,,,,,,,,,,,,,,,,,,,,,,,,,,,,,,,,,,,,,,,,,,,,,,,,,,,,,,,,,
11,0,11,0,1,60,2020-07-04_17h05.29.904,retriever_ti,2020.1.3,Win32,60,Chrome,1536,864,,,,,,,,,,,,,,,,,,,,,,,,,,,,,,,,,,,,,,,,,,,,,,,,,,,,,,,,,,,,,,,,,,,,,,,,,,,,,,,,,,,,,,,,,,,,,,,,,,
12,0,12,0,1,60,2020-07-04_17h05.29.904,retriever_ti,2020.1.3,Win32,60,Chrome,1536,864,,,,,,,,,,,,,,,,,,,,,,,,,,,,,,,,,,,,,,,,,,,,,,,,,,,,,,,,,,,,,,,,,,,,,,,,,,,,,,,,,,,,,,,,,,,,,,,,,,
13,0,13,0,1,60,2020-07-04_17h05.29.904,retriever_ti,2020.1.3,Win32,60,Chrome,1536,864,,,,,,,,,,,,,,,,,,,,,,,,,,,,,,,,,,,,,,,,,,,,,,,,,,,,,,,,,,,,,,,,,,,,,,,,,,,,,,,,,,,,,,,,,,,,,,,,,,
14,0,14,0,1,60,2020-07-04_17h05.29.904,retriever_ti,2020.1.3,Win32,60,Chrome,1536,864,,,,,,,,,,,,,,,,,,,,,,,,,,,,,,,,,,,,,,,,,,,,,,,,,,,,,,,,,,,,,,,,,,,,,,,,,,,,,,,,,,,,,,,,,,,,,,,,,,
,,,,,60,2020-07-04_17h05.29.904,retriever_ti,2020.1.3,Win32,60,Chrome,1536,864,451.289755,1,right,1.27871,canary,1,451.326675,451.326675,453.824945,0,0,0,0,1,2,5,1,html/resources/stimuli_practice_decision/04_beetle.jpg,html/resources/stimuli_practice_decision/02_canary.jpg,beetle,canary,,,,,,,,,,,,,,,,,,,,,,,,,,,,,,,,,,,,,,,,,,,,,,,,,,,,,,,,,,,,,,,,,,,,,,,,,,,,,
,,,,,60,2020-07-04_17h05.29.904,retriever_ti,2020.1.3,Win32,60,Chrome,1536,864,454.364205,2,left,1.58818,rabbit,1,454.37483,454.37483,456.87289,0,1,1,1,1,4,3,1,html/resources/stimuli_practice_decision/01_rabbit.jpg,html/resources/stimuli_practice_decision/07_sock.jpg,rabbit,sock,,,,,,,,,,,,,,,,,,,,,,,,,,,,,,,,,,,,,,,,,,,,,,,,,,,,,,,,,,,,,,,,,,,,,,,,,,,,,
,,,,,60,2020-07-04_17h05.29.904,retriever_ti,2020.1.3,Win32,60,Chrome,1536,864,457.873095,3,left,1.79,pullover,1,457.89002,457.89002,460.38828,0,2,2,2,1,6,2,1,html/resources/stimuli_practice_decision/06_pullover.jpg,html/resources/stimuli_practice_decision/04_beetle.jpg,pullover,beetle,,,,,,,,,,,,,,,,,,,,,,,,,,,,,,,,,,,,,,,,,,,,,,,,,,,,,,,,,,,,,,,,,,,,,,,,,,,,,
,,,,,60,2020-07-04_17h05.29.904,retriever_ti,2020.1.3,Win32,60,Chrome,1536,864,460.904915,4,right,1.467165,handmixer,0,460.921585,460.921585,463.42024,0,3,3,3,1,7,1,1,html/resources/stimuli_practice_decision/05_glasses.jpg,html/resources/stimuli_practice_decision/08_handmixer.jpg,glasses,handmixer,,,,,,,,,,,,,,,,,,,,,,,,,,,,,,,,,,,,,,,,,,,,,,,,,,,,,,,,,,,,,,,,,,,,,,,,,,,,,
,,,,,60,2020-07-04_17h05.29.904,retriever_ti,2020.1.3,Win32,60,Chrome,1536,864,463.936855,5,left,2.12497,glasses,1,463.970625,463.970625,466.468745,0,4,4,4,1,7,6,1,html/resources/stimuli_practice_decision/05_glasses.jpg,html/resources/stimuli_practice_decision/06_pullover.jpg,glasses,pullover,,,,,,,,,,,,,,,,,,,,,,,,,,,,,,,,,,,,,,,,,,,,,,,,,,,,,,,,,,,,,,,,,,,,,,,,,,,,,
,,,,,60,2020-07-04_17h05.29.904,retriever_ti,2020.1.3,Win32,60,Chrome,1536,864,467.46868,6,left,1.611715,rabbit,0,467.50242,467.50242,470.00067,0,5,5,5,1,4,7,1,html/resources/stimuli_practice_decision/01_rabbit.jpg,html/resources/stimuli_practice_decision/05_glasses.jpg,rabbit,glasses,,,,,,,,,,,,,,,,,,,,,,,,,,,,,,,,,,,,,,,,,,,,,,,,,,,,,,,,,,,,,,,,,,,,,,,,,,,,,
,,,,,60,2020-07-04_17h05.29.904,retriever_ti,2020.1.3,Win32,60,Chrome,1536,864,470.517085,7,right,1.856935,beetle,1,470.551005,470.551005,473.04934,0,6,6,6,1,1,2,1,html/resources/stimuli_practice_decision/08_handmixer.jpg,html/resources/stimuli_practice_decision/04_beetle.jpg,handmixer,beetle,,,,,,,,,,,,,,,,,,,,,,,,,,,,,,,,,,,,,,,,,,,,,,,,,,,,,,,,,,,,,,,,,,,,,,,,,,,,,
,,,,,60,2020-07-04_17h05.29.904,retriever_ti,2020.1.3,Win32,60,Chrome,1536,864,474.049075,8,left,1.50465,rabbit,1,474.066,474.066,476.564235,0,7,7,7,1,4,3,1,html/resources/stimuli_practice_decision/01_rabbit.jpg,html/resources/stimuli_practice_decision/07_sock.jpg,rabbit,sock,,,,,,,,,,,,,,,,,,,,,,,,,,,,,,,,,,,,,,,,,,,,,,,,,,,,,,,,,,,,,,,,,,,,,,,,,,,,,
,,,,,60,2020-07-04_17h05.29.904,retriever_ti,2020.1.3,Win32,60,Chrome,1536,864,,,,,,,,,,,,,,,,,,,,,,down,1,2.230675,1,0,0,0,1,1,html/resources/sequences_IDs/star.png,square ↑,circle →,star ↓,← triangle,down,,,,,,,,,,,,,,,,,,,,,,,,,,,,,,,,,,,,,,,,,,,,,,,,,,,,,,,,,,,,,,
,,,,,60,2020-07-04_17h05.29.904,retriever_ti,2020.1.3,Win32,60,Chrome,1536,864,,,,,,,,,,,,,,,,,,,,,,up,1,1.83231,1,0,1,1,0,1,html/resources/sequences_IDs/circle.png,circle ↑,square →,triangle ↓,← star ,up,,,,,,,,,,,,,,,,,,,,,,,,,,,,,,,,,,,,,,,,,,,,,,,,,,,,,,,,,,,,,,
,,,,,60,2020-07-04_17h05.29.904,retriever_ti,2020.1.3,Win32,60,Chrome,1536,864,,,,,,,,,,,,,,,,,,,,,,left,1,1.94003,1,0,2,2,2,1,html/resources/sequences_IDs/square1.png,star ↑,triangle →,circle ↓,← square,left,,,,,,,,,,,,,,,,,,,,,,,,,,,,,,,,,,,,,,,,,,,,,,,,,,,,,,,,,,,,,,
,,,,,60,2020-07-04_17h05.29.904,retriever_ti,2020.1.3,Win32,60,Chrome,1536,864,,,,,,,,,,,,,,,,,,,,,,down,1,1.80384,1,0,3,3,3,1,html/resources/sequences_IDs/triangle.png,star ↑,square →,triangle ↓,← circle,down,,,,,,,,,,,,,,,,,,,,,,,,,,,,,,,,,,,,,,,,,,,,,,,,,,,,,,,,,,,,,,
,,,,,60,2020-07-04_17h05.29.904,retriever_ti,2020.1.3,Win32,60,Chrome,1536,864,,,,,,,,,,,,,,,,,,,,,,,,,,,,,,,,,,,,,0,81.831955,0,0,0,0,1,,,,,,,,,,,,,,,,,,,,,,,,,,,,,,,,,,,,,,,,,,,,,,,,,,,,,,,
,,,,,60,2020-07-04_17h05.29.904,retriever_ti,2020.1.3,Win32,60,Chrome,1536,864,573.81643,9,left,1.567135,pullover,0,573.82242,573.82242,576.320085,0,0,0,0,1,6,7,1,html/resources/stimuli_practice_decision/06_pullover.jpg,html/resources/stimuli_practice_decision/05_glasses.jpg,pullover,glasses,,,,,,,,,,,,,,,,,,,,,,,,,,,,,,,,,,,,,,,,,,,,,,,,,,,,,,,,,,,,,,,,,,,,,,,,,,,,,
,,,,,60,2020-07-04_17h05.29.904,retriever_ti,2020.1.3,Win32,60,Chrome,1536,864,577.319675,10,left,2.095235,pullover,1,577.336795,577.336795,579.8351,0,1,1,1,1,6,2,1,html/resources/stimuli_practice_decision/06_pullover.jpg,html/resources/stimuli_practice_decision/04_beetle.jpg,pullover,beetle,,,,,,,,,,,,,,,,,,,,,,,,,,,,,,,,,,,,,,,,,,,,,,,,,,,,,,,,,,,,,,,,,,,,,,,,,,,,,
,,,,,60,2020-07-04_17h05.29.904,retriever_ti,2020.1.3,Win32,60,Chrome,1536,864,580.351795,11,left,2.354815,canary,0,580.38565,580.38565,582.88392,0,2,2,2,1,5,6,1,html/resources/stimuli_practice_decision/02_canary.jpg,html/resources/stimuli_practice_decision/06_pullover.jpg,canary,pullover,,,,,,,,,,,,,,,,,,,,,,,,,,,,,,,,,,,,,,,,,,,,,,,,,,,,,,,,,,,,,,,,,,,,,,,,,,,,,
,,,,,60,2020-07-04_17h05.29.904,retriever_ti,2020.1.3,Win32,60,Chrome,1536,864,583.883845,12,left,1.33344,squirrel,1,583.900695,583.900695,586.398925,0,3,3,3,1,8,7,1,html/resources/stimuli_practice_decision/03_squirrel.jpg,html/resources/stimuli_practice_decision/05_glasses.jpg,squirrel,glasses,,,,,,,,,,,,,,,,,,,,,,,,,,,,,,,,,,,,,,,,,,,,,,,,,,,,,,,,,,,,,,,,,,,,,,,,,,,,,
,,,,,60,2020-07-04_17h05.29.904,retriever_ti,2020.1.3,Win32,60,Chrome,1536,864,587.398455,13,left,1.48577,canary,1,587.41588,587.41588,589.91379,0,4,4,4,1,5,3,1,html/resources/stimuli_practice_decision/02_canary.jpg,html/resources/stimuli_practice_decision/07_sock.jpg,canary,sock,,,,,,,,,,,,,,,,,,,,,,,,,,,,,,,,,,,,,,,,,,,,,,,,,,,,,,,,,,,,,,,,,,,,,,,,,,,,,
,,,,,60,2020-07-04_17h05.29.904,retriever_ti,2020.1.3,Win32,60,Chrome,1536,864,590.414335,14,NaN,NaN,No_response,2,590.4308,590.4308,592.929375,0,5,5,5,1,7,8,1,html/resources/stimuli_practice_decision/05_glasses.jpg,html/resources/stimuli_practice_decision/03_squirrel.jpg,glasses,squirrel,,,,,,,,,,,,,,,,,,,,,,,,,,,,,,,,,,,,,,,,,,,,,,,,,,,,,,,,,,,,,,,,,,,,,,,,,,,,,
,,,,,60,2020-07-04_17h05.29.904,retriever_ti,2020.1.3,Win32,60,Chrome,1536,864,593.446105,15,right,1.09257,rabbit,0,593.47958,593.47958,595.977915,0,6,6,6,1,5,4,1,html/resources/stimuli_practice_decision/02_canary.jpg,html/resources/stimuli_practice_decision/01_rabbit.jpg,canary,rabbit,,,,,,,,,,,,,,,,,,,,,,,,,,,,,,,,,,,,,,,,,,,,,,,,,,,,,,,,,,,,,,,,,,,,,,,,,,,,,
,,,,,60,2020-07-04_17h05.29.904,retriever_ti,2020.1.3,Win32,60,Chrome,1536,864,596.978065,16,left,0.583255,canary,1,597.01146,597.01146,599.50967,0,7,7,7,1,5,3,1,html/resources/stimuli_practice_decision/02_canary.jpg,html/resources/stimuli_practice_decision/07_sock.jpg,canary,sock,,,,,,,,,,,,,,,,,,,,,,,,,,,,,,,,,,,,,,,,,,,,,,,,,,,,,,,,,,,,,,,,,,,,,,,,,,,,,
,,,,,60,2020-07-04_17h05.29.904,retriever_ti,2020.1.3,Win32,60,Chrome,1536,864,,,,,,,,,,,,,,,,,,,,,,down,1,2.13937,1,0,0,0,1,1,html/resources/sequences_IDs/star.png,square ↑,circle →,star ↓,← triangle,down,,,,,,,,,,,,,,,,,,,,,,,,,,,,,,,,,,,,,,,,,,,,,,,,,,,,,,,,,,,,,,
,,,,,60,2020-07-04_17h05.29.904,retriever_ti,2020.1.3,Win32,60,Chrome,1536,864,,,,,,,,,,,,,,,,,,,,,,up,1,1.21819,1,0,1,1,0,1,html/resources/sequences_IDs/circle.png,circle ↑,square →,triangle ↓,← star ,up,,,,,,,,,,,,,,,,,,,,,,,,,,,,,,,,,,,,,,,,,,,,,,,,,,,,,,,,,,,,,,
,,,,,60,2020-07-04_17h05.29.904,retriever_ti,2020.1.3,Win32,60,Chrome,1536,864,,,,,,,,,,,,,,,,,,,,,,left,1,1.297375,1,0,2,2,2,1,html/resources/sequences_IDs/square1.png,star ↑,triangle →,circle ↓,← square,left,,,,,,,,,,,,,,,,,,,,,,,,,,,,,,,,,,,,,,,,,,,,,,,,,,,,,,,,,,,,,,
,,,,,60,2020-07-04_17h05.29.904,retriever_ti,2020.1.3,Win32,60,Chrome,1536,864,,,,,,,,,,,,,,,,,,,,,,down,1,1.23551,1,0,3,3,3,1,html/resources/sequences_IDs/triangle.png,star ↑,square →,triangle ↓,← circle,down,,,,,,,,,,,,,,,,,,,,,,,,,,,,,,,,,,,,,,,,,,,,,,,,,,,,,,,,,,,,,,
,,,,,60,2020-07-04_17h05.29.904,retriever_ti,2020.1.3,Win32,60,Chrome,1536,864,,,,,,,,,,,,,,,,,,,,,,,,,,,,,,,,,,,,,0,3.124035,1,0,1,0,1,,,,,,,,,,,,,,,,,,,,,,,,,,,,,,,,,,,,,,,,,,,,,,,,,,,,,,,
,,,,,60,2020-07-04_17h05.29.904,retriever_ti,2020.1.3,Win32,60,Chrome,1536,864,,,,,,,,,,,,,,,,,1,,,,,,,,,,,,,,,,,,,,,,,,,,,669.018135,1,right,0.976405,peacock       ,5,5,1,1,1,669.0465,669.0465,671.54474,0,0,0,0,1,1,4,5,sport_tshirt,peacock       ,html/resources/sequences_IDs/B/07_sport_tshirt.jpg,html/resources/sequences_IDs/A/05_peacock.jpg,7,5,3,2,2,1,6,4,0,60,,,,,,,,,,,,,,,,,,,,
,,,,,60,2020-07-04_17h05.29.904,retriever_ti,2020.1.3,Win32,60,Chrome,1536,864,,,,,,,,,,,,,,,,,1,,,,,,,,,,,,,,,,,,,,,,,,,,,672.644415,2,right,0.99953,peacock       ,5,5,3,1,3,672.66145,672.66145,675.15974,0,1,1,1,1,2,2,5,dolphin     ,peacock       ,html/resources/sequences_IDs/B/02_dolphin.jpg,html/resources/sequences_IDs/A/05_peacock.jpg,2,5,1,1,2,1,2,4,0,60,,,,,,,,,,,,,,,,,,,,
,,,,,60,2020-07-04_17h05.29.904,retriever_ti,2020.1.3,Win32,60,Chrome,1536,864,,,,,,,,,,,,,,,,,1,,,,,,,,,,,,,,,,,,,,,,,,,,,675.77657,3,left,1.26183,sport_tshirt,4,7,1,1,1,675.793185,675.793185,678.291545,0,2,2,2,1,3,4,3,sport_tshirt,scarf         ,html/resources/sequences_IDs/B/07_sport_tshirt.jpg,html/resources/sequences_IDs/A/06_scarf.jpg,7,6,3,2,3,2,6,5,0,60,,,,,,,,,,,,,,,,,,,,
,,,,,60,2020-07-04_17h05.29.904,retriever_ti,2020.1.3,Win32,60,Chrome,1536,864,,,,,,,,,,,,,,,,,1,,,,,,,,,,,,,,,,,,,,,,,,,,,679.391335,4,right,1.28665,wolf          ,1,1,-6,0,3,679.425275,679.425275,681.92315,0,3,3,3,1,4,7,1,satellite_dish,wolf          ,html/resources/sequences_IDs/A/10_satellite_dish.jpg,html/resources/sequences_IDs/A/01_wolf.jpg,10,1,4,2,1,1,8,1,0,60,,,,,,,,,,,,,,,,,,,,
,,,,,60,2020-07-04_17h05.29.904,retriever_ti,2020.1.3,Win32,60,Chrome,1536,864,,,,,,,,,,,,,,,,,1,,,,,,,,,,,,,,,,,,,,,,,,,,,682.54001,5,right,1.136135,satellite_dish,7,10,1,1,1,682.55671,682.55671,685.054955,0,4,4,4,1,5,6,7,holdfast    ,satellite_dish,html/resources/sequences_IDs/B/04_holdfast.jpg,html/resources/sequences_IDs/A/10_satellite_dish.jpg,4,10,2,1,4,2,3,8,0,60,,,,,,,,,,,,,,,,,,,,
,,,,,60,2020-07-04_17h05.29.904,retriever_ti,2020.1.3,Win32,60,Chrome,1536,864,,,,,,,,,,,,,,,,,1,,,,,,,,,,,,,,,,,,,,,,,,,,,686.154925,6,left,1.323935,dolphin     ,2,2,-1,0,0,686.1719,686.1719,688.67024,0,5,5,5,1,6,2,3,dolphin     ,scarf         ,html/resources/sequences_IDs/B/02_dolphin.jpg,html/resources/sequences_IDs/A/06_scarf.jpg,2,6,1,1,3,2,2,5,0,60,,,,,,,,,,,,,,,,,,,,
,,,,,60,2020-07-04_17h05.29.904,retriever_ti,2020.1.3,Win32,60,Chrome,1536,864,,,,,,,,,,,,,,,,,1,,,,,,,,,,,,,,,,,,,,,,,,,,,689.770285,7,right,0.9645,scarf         ,3,6,-1,0,1,689.803375,689.803375,692.301975,0,6,6,6,1,7,4,3,sport_tshirt,scarf         ,html/resources/sequences_IDs/B/07_sport_tshirt.jpg,html/resources/sequences_IDs/A/06_scarf.jpg,7,6,3,2,3,2,6,5,1,60,,,,,,,,,,,,,,,,,,,,
,,,,,60,2020-07-04_17h05.29.904,retriever_ti,2020.1.3,Win32,60,Chrome,1536,864,,,,,,,,,,,,,,,,,1,,,,,,,,,,,,,,,,,,,,,,,,,,,693.401775,8,left,1.110025,scarf         ,3,6,2,1,3,693.435345,693.435345,695.93327,0,7,7,7,1,8,3,1,scarf         ,wolf          ,html/resources/sequences_IDs/A/06_scarf.jpg,html/resources/sequences_IDs/A/01_wolf.jpg,6,1,3,2,1,1,5,1,0,60,,,,,,,,,,,,,,,,,,,,
,,,,,60,2020-07-04_17h05.29.904,retriever_ti,2020.1.3,Win32,60,Chrome,1536,864,,,,,,,,,,,,,,,,,1,,,,,,,,,,,,,,,,,,,,,,,,,,,696.54991,9,right,1.337275,slipper     ,8,8,1,1,1,696.567235,696.567235,699.06555,0,8,8,8,1,9,7,8,satellite_dish,slipper     ,html/resources/sequences_IDs/A/10_satellite_dish.jpg,html/resources/sequences_IDs/B/08_slipper.jpg,10,8,4,2,3,2,8,7,0,60,,,,,,,,,,,,,,,,,,,,
,,,,,60,2020-07-04_17h05.29.904,retriever_ti,2020.1.3,Win32,60,Chrome,1536,864,,,,,,,,,,,,,,,,,1,,,,,,,,,,,,,,,,,,,,,,,,,,,700.165605,10,right,1.36376,satellite_dish,7,10,3,1,3,700.19905,700.19905,702.69715,0,9,9,9,1,10,4,7,sport_tshirt,satellite_dish,html/resources/sequences_IDs/B/07_sport_tshirt.jpg,html/resources/sequences_IDs/A/10_satellite_dish.jpg,7,10,3,2,4,2,6,8,0,60,,,,,,,,,,,,,,,,,,,,
,,,,,60,2020-07-04_17h05.29.904,retriever_ti,2020.1.3,Win32,60,Chrome,1536,864,,,,,,,,,,,,,,,,,1,,,,,,,,,,,,,,,,,,,,,,,,,,,703.314055,11,right,1.68788,scarf         ,3,6,-2,0,3,703.330985,703.330985,705.82916,0,10,10,10,1,11,5,3,peacock       ,scarf         ,html/resources/sequences_IDs/A/05_peacock.jpg,html/resources/sequences_IDs/A/06_scarf.jpg,5,6,2,1,3,2,4,5,0,60,,,,,,,,,,,,,,,,,,,,
,,,,,60,2020-07-04_17h05.29.904,retriever_ti,2020.1.3,Win32,60,Chrome,1536,864,,,,,,,,,,,,,,,,,1,,,,,,,,,,,,,,,,,,,,,,,,,,,706.445815,12,left,1.1128,peacock       ,5,5,-1,0,0,706.462535,706.462535,708.960915,0,11,11,11,1,12,5,6,peacock       ,holdfast    ,html/resources/sequences_IDs/A/05_peacock.jpg,html/resources/sequences_IDs/B/04_holdfast.jpg,5,4,2,1,2,1,4,3,0,60,,,,,,,,,,,,,,,,,,,,
,,,,,60,2020-07-04_17h05.29.904,retriever_ti,2020.1.3,Win32,60,Chrome,1536,864,,,,,,,,,,,,,,,,,1,,,,,,,,,,,,,,,,,,,,,,,,,,,710.061305,13,right,1.160615,scarf         ,3,6,-1,0,0,710.09469,710.09469,712.592915,0,12,12,12,1,13,4,3,sport_tshirt,scarf         ,html/resources/sequences_IDs/B/07_sport_tshirt.jpg,html/resources/sequences_IDs/A/06_scarf.jpg,7,6,3,2,3,2,6,5,0,60,,,,,,,,,,,,,,,,,,,,
,,,,,60,2020-07-04_17h05.29.904,retriever_ti,2020.1.3,Win32,60,Chrome,1536,864,,,,,,,,,,,,,,,,,1,,,,,,,,,,,,,,,,,,,,,,,,,,,713.692755,14,left,1.04944,satellite_dish,7,10,4,1,3,713.7261,713.7261,716.22472,0,13,13,13,1,14,7,3,satellite_dish,scarf         ,html/resources/sequences_IDs/A/10_satellite_dish.jpg,html/resources/sequences_IDs/A/06_scarf.jpg,10,6,4,2,3,2,8,5,0,60,,,,,,,,,,,,,,,,,,,,
,,,,,60,2020-07-04_17h05.29.904,retriever_ti,2020.1.3,Win32,60,Chrome,1536,864,,,,,,,,,,,,,,,,,1,,,,,,,,,,,,,,,,,,,,,,,,,,,716.84123,15,right,1.446365,dolphin     ,2,2,-3,0,3,716.87467,716.87467,719.373,0,14,14,14,1,15,5,2,peacock       ,dolphin     ,html/resources/sequences_IDs/A/05_peacock.jpg,html/resources/sequences_IDs/B/02_dolphin.jpg,5,2,2,1,1,1,4,2,0,60,,,,,,,,,,,,,,,,,,,,
,,,,,60,2020-07-04_17h05.29.904,retriever_ti,2020.1.3,Win32,60,Chrome,1536,864,,,,,,,,,,,,,,,,,1,,,,,,,,,,,,,,,,,,,,,,,,,,,719.990275,16,left,1.3688,holdfast    ,6,4,-1,0,0,720.023075,720.023075,722.521515,0,15,15,15,1,16,6,7,holdfast    ,satellite_dish,html/resources/sequences_IDs/B/04_holdfast.jpg,html/resources/sequences_IDs/A/10_satellite_dish.jpg,4,10,2,1,4,2,3,8,0,60,,,,,,,,,,,,,,,,,,,,
,,,,,60,2020-07-04_17h05.29.904,retriever_ti,2020.1.3,Win32,60,Chrome,1536,864,,,,,,,,,,,,,,,,,1,,,,,,,,,,,,,,,,,,,,,,,,,,,723.622105,17,right,1.34521,sport_tshirt,4,7,2,1,3,723.655185,723.655185,726.15355,0,16,16,16,1,17,2,4,dolphin     ,sport_tshirt,html/resources/sequences_IDs/B/02_dolphin.jpg,html/resources/sequences_IDs/B/07_sport_tshirt.jpg,2,7,1,1,3,2,2,6,0,60,,,,,,,,,,,,,,,,,,,,
,,,,,60,2020-07-04_17h05.29.904,retriever_ti,2020.1.3,Win32,60,Chrome,1536,864,,,,,,,,,,,,,,,,,1,,,,,,,,,,,,,,,,,,,,,,,,,,,726.7699,18,right,1.33453,sport_tshirt,4,7,-3,0,3,726.803855,726.803855,729.302105,0,17,17,17,1,18,7,4,satellite_dish,sport_tshirt,html/resources/sequences_IDs/A/10_satellite_dish.jpg,html/resources/sequences_IDs/B/07_sport_tshirt.jpg,10,7,4,2,3,2,8,6,0,60,,,,,,,,,,,,,,,,,,,,
,,,,,60,2020-07-04_17h05.29.904,retriever_ti,2020.1.3,Win32,60,Chrome,1536,864,,,,,,,,,,,,,,,,,1,,,,,,,,,,,,,,,,,,,,,,,,,,,729.918845,19,right,1.30343,slipper     ,8,8,7,1,3,729.952615,729.952615,732.450825,0,18,18,18,1,19,1,8,wolf          ,slipper     ,html/resources/sequences_IDs/A/01_wolf.jpg,html/resources/sequences_IDs/B/08_slipper.jpg,1,8,1,1,3,2,1,7,0,60,,,,,,,,,,,,,,,,,,,,
,,,,,60,2020-07-04_17h05.29.904,retriever_ti,2020.1.3,Win32,60,Chrome,1536,864,,,,,,,,,,,,,,,,,1,,,,,,,,,,,,,,,,,,,,,,,,,,,733.067635,20,right,1.079245,holdfast    ,6,4,3,1,3,733.084205,733.084205,735.58244,0,19,19,19,1,20,3,6,scarf         ,holdfast    ,html/resources/sequences_IDs/A/06_scarf.jpg,html/resources/sequences_IDs/B/04_holdfast.jpg,6,4,3,2,2,1,5,3,0,60,,,,,,,,,,,,,,,,,,,,
,,,,,60,2020-07-04_17h05.29.904,retriever_ti,2020.1.3,Win32,60,Chrome,1536,864,,,,,,,,,,,,,,,,,1,,,,,,,,,,,,,,,,,,,,,,,,,,,736.19897,21,left,1.490395,dolphin     ,2,2,1,1,1,736.23284,736.23284,738.73112,0,20,20,20,1,21,2,1,dolphin     ,wolf          ,html/resources/sequences_IDs/B/02_dolphin.jpg,html/resources/sequences_IDs/A/01_wolf.jpg,2,1,1,1,1,1,2,1,0,60,,,,,,,,,,,,,,,,,,,,
,,,,,60,2020-07-04_17h05.29.904,retriever_ti,2020.1.3,Win32,60,Chrome,1536,864,,,,,,,,,,,,,,,,,1,,,,,,,,,,,,,,,,,,,,,,,,,,,739.88128,22,right,0.867795,slipper     ,8,8,1,1,1,739.91435,739.91435,742.412785,0,21,21,21,1,22,7,8,satellite_dish,slipper     ,html/resources/sequences_IDs/A/10_satellite_dish.jpg,html/resources/sequences_IDs/B/08_slipper.jpg,10,8,4,2,3,2,8,7,0,60,,,,,,,,,,,,,,,,,,,,
,,,,,60,2020-07-04_17h05.29.904,retriever_ti,2020.1.3,Win32,60,Chrome,1536,864,,,,,,,,,,,,,,,,,1,,,,,,,,,,,,,,,,,,,,,,,,,,,743.513055,23,left,1.01742,slipper     ,8,8,6,1,3,743.5462,743.5462,746.044525,0,22,22,22,1,23,8,2,slipper     ,dolphin     ,html/resources/sequences_IDs/B/08_slipper.jpg,html/resources/sequences_IDs/B/02_dolphin.jpg,8,2,3,2,1,1,7,2,0,60,,,,,,,,,,,,,,,,,,,,
,,,,,60,2020-07-04_17h05.29.904,retriever_ti,2020.1.3,Win32,60,Chrome,1536,864,,,,,,,,,,,,,,,,,1,,,,,,,,,,,,,,,,,,,,,,,,,,,746.66104,24,right,1.391275,dolphin     ,2,2,-1,0,0,746.678395,746.678395,749.1767,0,23,23,23,1,24,3,2,scarf         ,dolphin     ,html/resources/sequences_IDs/A/06_scarf.jpg,html/resources/sequences_IDs/B/02_dolphin.jpg,6,2,3,2,1,1,5,2,0,60,,,,,,,,,,,,,,,,,,,,
,,,,,60,2020-07-04_17h05.29.904,retriever_ti,2020.1.3,Win32,60,Chrome,1536,864,,,,,,,,,,,,,,,,,1,,,,,,,,,,,,,,,,,,,,,,,,,,,750.27644,25,right,1.184315,holdfast    ,6,4,-2,0,3,750.29308,750.29308,752.791605,0,24,24,24,1,25,8,6,slipper     ,holdfast    ,html/resources/sequences_IDs/B/08_slipper.jpg,html/resources/sequences_IDs/B/04_holdfast.jpg,8,4,3,2,2,1,7,3,0,60,,,,,,,,,,,,,,,,,,,,
,,,,,60,2020-07-04_17h05.29.904,retriever_ti,2020.1.3,Win32,60,Chrome,1536,864,,,,,,,,,,,,,,,,,1,,,,,,,,,,,,,,,,,,,,,,,,,,,753.40851,26,right,1.10165,peacock       ,5,5,-2,0,3,753.44179,753.44179,755.94013,0,25,25,25,1,26,7,5,satellite_dish,peacock       ,html/resources/sequences_IDs/A/10_satellite_dish.jpg,html/resources/sequences_IDs/A/05_peacock.jpg,10,5,4,2,2,1,8,4,0,60,,,,,,,,,,,,,,,,,,,,
,,,,,60,2020-07-04_17h05.29.904,retriever_ti,2020.1.3,Win32,60,Chrome,1536,864,,,,,,,,,,,,,,,,,1,,,,,,,,,,,,,,,,,,,,,,,,,,,756.5567,27,left,1.21857,scarf         ,3,6,-2,0,3,756.573925,756.573925,759.07213,0,26,26,26,1,27,3,5,scarf         ,peacock       ,html/resources/sequences_IDs/A/06_scarf.jpg,html/resources/sequences_IDs/A/05_peacock.jpg,6,5,3,2,2,1,5,4,0,60,,,,,,,,,,,,,,,,,,,,
,,,,,60,2020-07-04_17h05.29.904,retriever_ti,2020.1.3,Win32,60,Chrome,1536,864,,,,,,,,,,,,,,,,,1,,,,,,,,,,,,,,,,,,,,,,,,,,,759.689215,28,left,0.92975,peacock       ,5,5,1,1,1,759.705975,759.705975,762.203855,0,27,27,27,1,28,5,4,peacock       ,sport_tshirt,html/resources/sequences_IDs/A/05_peacock.jpg,html/resources/sequences_IDs/B/07_sport_tshirt.jpg,5,7,2,1,3,2,4,6,0,60,,,,,,,,,,,,,,,,,,,,
,,,,,60,2020-07-04_17h05.29.904,retriever_ti,2020.1.3,Win32,60,Chrome,1536,864,,,,,,,,,,,,,,,,,1,,,,,,,,,,,,,,,,,,,,,,,,,,,763.304225,29,left,1.25501,scarf         ,3,6,1,1,1,763.337645,763.337645,765.835745,0,28,28,28,1,29,3,2,scarf         ,dolphin     ,html/resources/sequences_IDs/A/06_scarf.jpg,html/resources/sequences_IDs/B/02_dolphin.jpg,6,2,3,2,1,1,5,2,0,60,,,,,,,,,,,,,,,,,,,,
,,,,,60,2020-07-04_17h05.29.904,retriever_ti,2020.1.3,Win32,60,Chrome,1536,864,,,,,,,,,,,,,,,,,1,,,,,,,,,,,,,,,,,,,,,,,,,,,766.93547,30,left,0.973815,scarf         ,3,6,-1,0,0,766.95283,766.95283,769.450765,0,29,29,29,1,30,3,4,scarf         ,sport_tshirt,html/resources/sequences_IDs/A/06_scarf.jpg,html/resources/sequences_IDs/B/07_sport_tshirt.jpg,6,7,3,2,3,2,5,6,0,60,,,,,,,,,,,,,,,,,,,,
,,,,,60,2020-07-04_17h05.29.904,retriever_ti,2020.1.3,Win32,60,Chrome,1536,864,,,,,,,,,,,,,,,,,1,,,,,,,,,,,,,,,,,,,,,,,,,,,770.550855,31,right,1.22829,peacock       ,5,5,1,1,0,770.567765,770.567765,773.065975,0,30,30,30,1,31,4,5,sport_tshirt,peacock       ,html/resources/sequences_IDs/B/07_sport_tshirt.jpg,html/resources/sequences_IDs/A/05_peacock.jpg,7,5,3,2,2,1,6,4,1,60,,,,,,,,,,,,,,,,,,,,
,,,,,60,2020-07-04_17h05.29.904,retriever_ti,2020.1.3,Win32,60,Chrome,1536,864,,,,,,,,,,,,,,,,,1,,,,,,,,,,,,,,,,,,,,,,,,,,,774.166095,32,left,0.7853,scarf         ,3,6,-1,0,0,774.182585,774.182585,776.681135,0,31,31,31,1,32,3,4,scarf         ,sport_tshirt,html/resources/sequences_IDs/A/06_scarf.jpg,html/resources/sequences_IDs/B/07_sport_tshirt.jpg,6,7,3,2,3,2,5,6,0,60,,,,,,,,,,,,,,,,,,,,
,,,,,60,2020-07-04_17h05.29.904,retriever_ti,2020.1.3,Win32,60,Chrome,1536,864,,,,,,,,,,,,,,,,,1,,,,,,,,,,,,,,,,,,,,,,,,,,,777.781165,33,right,1.50645,scarf         ,3,6,1,1,1,777.814655,777.814655,780.312655,0,32,32,32,1,33,2,3,dolphin     ,scarf         ,html/resources/sequences_IDs/B/02_dolphin.jpg,html/resources/sequences_IDs/A/06_scarf.jpg,2,6,1,1,3,2,2,5,0,60,,,,,,,,,,,,,,,,,,,,
,,,,,60,2020-07-04_17h05.29.904,retriever_ti,2020.1.3,Win32,60,Chrome,1536,864,,,,,,,,,,,,,,,,,1,,,,,,,,,,,,,,,,,,,,,,,,,,,781.41288,34,left,0.93412,peacock       ,5,5,4,1,3,781.429695,781.429695,783.927575,0,33,33,33,1,34,5,1,peacock       ,wolf          ,html/resources/sequences_IDs/A/05_peacock.jpg,html/resources/sequences_IDs/A/01_wolf.jpg,5,1,2,1,1,1,4,1,0,60,,,,,,,,,,,,,,,,,,,,
,,,,,60,2020-07-04_17h05.29.904,retriever_ti,2020.1.3,Win32,60,Chrome,1536,864,,,,,,,,,,,,,,,,,1,,,,,,,,,,,,,,,,,,,,,,,,,,,784.54454,35,left,0.96982,holdfast    ,6,4,3,1,3,784.577885,784.577885,787.076505,0,34,34,34,1,35,6,3,holdfast    ,scarf         ,html/resources/sequences_IDs/B/04_holdfast.jpg,html/resources/sequences_IDs/A/06_scarf.jpg,4,6,2,1,3,2,3,5,0,60,,,,,,,,,,,,,,,,,,,,
,,,,,60,2020-07-04_17h05.29.904,retriever_ti,2020.1.3,Win32,60,Chrome,1536,864,,,,,,,,,,,,,,,,,1,,,,,,,,,,,,,,,,,,,,,,,,,,,787.693115,36,right,1.040805,peacock       ,5,5,4,1,3,787.72653,787.72653,790.225125,0,35,35,35,1,36,1,5,wolf          ,peacock       ,html/resources/sequences_IDs/A/01_wolf.jpg,html/resources/sequences_IDs/A/05_peacock.jpg,1,5,1,1,2,1,1,4,0,60,,,,,,,,,,,,,,,,,,,,
,,,,,60,2020-07-04_17h05.29.904,retriever_ti,2020.1.3,Win32,60,Chrome,1536,864,,,,,,,,,,,,,,,,,1,,,,,,,,,,,,,,,,,,,,,,,,,,,790.841615,37,right,1.05901,slipper     ,8,8,4,1,3,790.858515,790.858515,793.356735,0,36,36,36,1,37,4,8,sport_tshirt,slipper     ,html/resources/sequences_IDs/B/07_sport_tshirt.jpg,html/resources/sequences_IDs/B/08_slipper.jpg,7,8,3,2,3,2,6,7,0,60,,,,,,,,,,,,,,,,,,,,
,,,,,60,2020-07-04_17h05.29.904,retriever_ti,2020.1.3,Win32,60,Chrome,1536,864,,,,,,,,,,,,,,,,,1,,,,,,,,,,,,,,,,,,,,,,,,,,,793.973995,38,right,1.09128,holdfast    ,6,4,-1,0,1,793.99036,793.99036,796.488885,0,37,37,37,1,38,7,6,satellite_dish,holdfast    ,html/resources/sequences_IDs/A/10_satellite_dish.jpg,html/resources/sequences_IDs/B/04_holdfast.jpg,10,4,4,2,2,1,8,3,1,60,,,,,,,,,,,,,,,,,,,,
,,,,,60,2020-07-04_17h05.29.904,retriever_ti,2020.1.3,Win32,60,Chrome,1536,864,,,,,,,,,,,,,,,,,1,,,,,,,,,,,,,,,,,,,,,,,,,,,797.589035,39,right,0.666925,holdfast    ,6,4,-1,0,0,797.622235,797.622235,800.12066,0,38,38,38,1,39,7,6,satellite_dish,holdfast    ,html/resources/sequences_IDs/A/10_satellite_dish.jpg,html/resources/sequences_IDs/B/04_holdfast.jpg,10,4,4,2,2,1,8,3,0,60,,,,,,,,,,,,,,,,,,,,
,,,,,60,2020-07-04_17h05.29.904,retriever_ti,2020.1.3,Win32,60,Chrome,1536,864,,,,,,,,,,,,,,,,,1,,,,,,,,,,,,,,,,,,,,,,,,,,,801.220425,40,right,1.29921,satellite_dish,7,10,5,1,3,801.237385,801.237385,803.735505,0,39,39,39,1,40,2,7,dolphin     ,satellite_dish,html/resources/sequences_IDs/B/02_dolphin.jpg,html/resources/sequences_IDs/A/10_satellite_dish.jpg,2,10,1,1,4,2,2,8,0,60,,,,,,,,,,,,,,,,,,,,
,,,,,60,2020-07-04_17h05.29.904,retriever_ti,2020.1.3,Win32,60,Chrome,1536,864,,,,,,,,,,,,,,,,,1,,,,,,,,,,,,,,,,,,,,,,,,,,,804.352,41,left,1.14208,dolphin     ,2,2,1,1,0,804.36908,804.36908,806.93392,0,40,40,40,1,41,2,1,dolphin     ,wolf          ,html/resources/sequences_IDs/B/02_dolphin.jpg,html/resources/sequences_IDs/A/01_wolf.jpg,2,1,1,1,1,1,2,1,1,60,,,,,,,,,,,,,,,,,,,,
,,,,,60,2020-07-04_17h05.29.904,retriever_ti,2020.1.3,Win32,60,Chrome,1536,864,,,,,,,,,,,,,,,,,1,,,,,,,,,,,,,,,,,,,,,,,,,,,808.034565,42,left,0.88409,scarf         ,3,6,-4,0,3,808.067445,808.067445,810.566115,0,41,41,41,1,42,3,7,scarf         ,satellite_dish,html/resources/sequences_IDs/A/06_scarf.jpg,html/resources/sequences_IDs/A/10_satellite_dish.jpg,6,10,3,2,4,2,5,8,0,60,,,,,,,,,,,,,,,,,,,,
,,,,,60,2020-07-04_17h05.29.904,retriever_ti,2020.1.3,Win32,60,Chrome,1536,864,,,,,,,,,,,,,,,,,1,,,,,,,,,,,,,,,,,,,,,,,,,,,811.182655,43,right,0.687205,holdfast    ,6,4,2,1,3,811.19938,811.19938,813.697905,0,42,42,42,1,43,4,6,sport_tshirt,holdfast    ,html/resources/sequences_IDs/B/07_sport_tshirt.jpg,html/resources/sequences_IDs/B/04_holdfast.jpg,7,4,3,2,2,1,6,3,0,60,,,,,,,,,,,,,,,,,,,,
,,,,,60,2020-07-04_17h05.29.904,retriever_ti,2020.1.3,Win32,60,Chrome,1536,864,,,,,,,,,,,,,,,,,1,,,,,,,,,,,,,,,,,,,,,,,,,,,814.31461,44,left,0.95874,holdfast    ,6,4,1,1,1,814.34799,814.34799,816.84637,0,43,43,43,1,44,6,5,holdfast    ,peacock       ,html/resources/sequences_IDs/B/04_holdfast.jpg,html/resources/sequences_IDs/A/05_peacock.jpg,4,5,2,1,2,1,3,4,0,60,,,,,,,,,,,,,,,,,,,,
,,,,,60,2020-07-04_17h05.29.904,retriever_ti,2020.1.3,Win32,60,Chrome,1536,864,,,,,,,,,,,,,,,,,1,,,,,,,,,,,,,,,,,,,,,,,,,,,817.946365,45,right,0.96994,scarf         ,3,6,2,1,3,817.979865,817.979865,820.47805,0,44,44,44,1,45,1,3,wolf          ,scarf         ,html/resources/sequences_IDs/A/01_wolf.jpg,html/resources/sequences_IDs/A/06_scarf.jpg,1,6,1,1,3,2,1,5,0,60,,,,,,,,,,,,,,,,,,,,
,,,,,60,2020-07-04_17h05.29.904,retriever_ti,2020.1.3,Win32,60,Chrome,1536,864,,,,,,,,,,,,,,,,,1,,,,,,,,,,,,,,,,,,,,,,,,,,,821.0949,46,left,1.020675,sport_tshirt,4,7,2,1,3,821.12908,821.12908,823.626775,0,45,45,45,1,46,4,2,sport_tshirt,dolphin     ,html/resources/sequences_IDs/B/07_sport_tshirt.jpg,html/resources/sequences_IDs/B/02_dolphin.jpg,7,2,3,2,1,1,6,2,0,60,,,,,,,,,,,,,,,,,,,,
,,,,,60,2020-07-04_17h05.29.904,retriever_ti,2020.1.3,Win32,60,Chrome,1536,864,,,,,,,,,,,,,,,,,1,,,,,,,,,,,,,,,,,,,,,,,,,,,824.24356,47,right,0.975845,dolphin     ,2,2,1,1,1,824.27716,824.27716,826.7755,0,46,46,46,1,47,1,2,wolf          ,dolphin     ,html/resources/sequences_IDs/A/01_wolf.jpg,html/resources/sequences_IDs/B/02_dolphin.jpg,1,2,1,1,1,1,1,2,0,60,,,,,,,,,,,,,,,,,,,,
,,,,,60,2020-07-04_17h05.29.904,retriever_ti,2020.1.3,Win32,60,Chrome,1536,864,,,,,,,,,,,,,,,,,1,,,,,,,,,,,,,,,,,,,,,,,,,,,827.875365,48,right,1.022515,sport_tshirt,4,7,3,1,3,827.90869,827.90869,830.406945,0,47,47,47,1,48,1,4,wolf          ,sport_tshirt,html/resources/sequences_IDs/A/01_wolf.jpg,html/resources/sequences_IDs/B/07_sport_tshirt.jpg,1,7,1,1,3,2,1,6,0,60,,,,,,,,,,,,,,,,,,,,
,,,,,60,2020-07-04_17h05.29.904,retriever_ti,2020.1.3,Win32,60,Chrome,1536,864,,,,,,,,,,,,,,,,,1,,,,,,,,,,,,,,,,,,,,,,,,,,,831.02376,49,left,1.025465,peacock       ,5,5,-2,0,3,831.05801,831.05801,833.555645,0,48,48,48,1,49,5,7,peacock       ,satellite_dish,html/resources/sequences_IDs/A/05_peacock.jpg,html/resources/sequences_IDs/A/10_satellite_dish.jpg,5,10,2,1,4,2,4,8,0,60,,,,,,,,,,,,,,,,,,,,
,,,,,60,2020-07-04_17h05.29.904,retriever_ti,2020.1.3,Win32,60,Chrome,1536,864,,,,,,,,,,,,,,,,,1,,,,,,,,,,,,,,,,,,,,,,,,,,,834.17252,50,right,0.593875,slipper     ,8,8,6,1,3,834.20626,834.20626,836.7045,0,49,49,49,1,50,2,8,dolphin     ,slipper     ,html/resources/sequences_IDs/B/02_dolphin.jpg,html/resources/sequences_IDs/B/08_slipper.jpg,2,8,1,1,3,2,2,7,0,60,,,,,,,,,,,,,,,,,,,,
,,,,,60,2020-07-04_17h05.29.904,retriever_ti,2020.1.3,Win32,60,Chrome,1536,864,,,,,,,,,,,,,,,,,1,,,,,,,,,,,,,,,,,,,,,,,,,,,837.321325,51,left,0.80029,slipper     ,8,8,5,1,3,837.354605,837.354605,839.852845,0,50,50,50,1,51,8,3,slipper     ,scarf         ,html/resources/sequences_IDs/B/08_slipper.jpg,html/resources/sequences_IDs/A/06_scarf.jpg,8,6,3,2,3,2,7,5,0,60,,,,,,,,,,,,,,,,,,,,
,,,,,60,2020-07-04_17h05.29.904,retriever_ti,2020.1.3,Win32,60,Chrome,1536,864,,,,,,,,,,,,,,,,,1,,,,,,,,,,,,,,,,,,,,,,,,,,,840.469675,52,right,0.760705,holdfast    ,6,4,4,1,3,840.503155,840.503155,843.00169,0,51,51,51,1,52,2,6,dolphin     ,holdfast    ,html/resources/sequences_IDs/B/02_dolphin.jpg,html/resources/sequences_IDs/B/04_holdfast.jpg,2,4,1,1,2,1,2,3,0,60,,,,,,,,,,,,,,,,,,,,
,,,,,60,2020-07-04_17h05.29.904,retriever_ti,2020.1.3,Win32,60,Chrome,1536,864,,,,,,,,,,,,,,,,,1,,,,,,,,,,,,,,,,,,,,,,,,,,,843.618805,53,left,1.33155,slipper     ,8,8,1,1,1,843.635095,843.635095,846.13328,0,52,52,52,1,53,8,7,slipper     ,satellite_dish,html/resources/sequences_IDs/B/08_slipper.jpg,html/resources/sequences_IDs/A/10_satellite_dish.jpg,8,10,3,2,4,2,7,8,0,60,,,,,,,,,,,,,,,,,,,,
,,,,,60,2020-07-04_17h05.29.904,retriever_ti,2020.1.3,Win32,60,Chrome,1536,864,,,,,,,,,,,,,,,,,1,,,,,,,,,,,,,,,,,,,,,,,,,,,847.23352,54,right,1.00043,sport_tshirt,4,7,-1,0,0,847.25049,847.25049,849.748395,0,53,53,53,1,54,5,4,peacock       ,sport_tshirt,html/resources/sequences_IDs/A/05_peacock.jpg,html/resources/sequences_IDs/B/07_sport_tshirt.jpg,5,7,2,1,3,2,4,6,0,60,,,,,,,,,,,,,,,,,,,,
,,,,,60,2020-07-04_17h05.29.904,retriever_ti,2020.1.3,Win32,60,Chrome,1536,864,,,,,,,,,,,,,,,,,1,,,,,,,,,,,,,,,,,,,,,,,,,,,850.84814,55,left,0.86724,holdfast    ,6,4,5,1,3,850.866135,850.866135,853.36379,0,54,54,54,1,55,6,1,holdfast    ,wolf          ,html/resources/sequences_IDs/B/04_holdfast.jpg,html/resources/sequences_IDs/A/01_wolf.jpg,4,1,2,1,1,1,3,1,0,60,,,,,,,,,,,,,,,,,,,,
,,,,,60,2020-07-04_17h05.29.904,retriever_ti,2020.1.3,Win32,60,Chrome,1536,864,,,,,,,,,,,,,,,,,1,,,,,,,,,,,,,,,,,,,,,,,,,,,853.980845,56,right,0.602145,slipper     ,8,8,2,1,3,854.01394,854.01394,856.512085,0,55,55,55,1,56,6,8,holdfast    ,slipper     ,html/resources/sequences_IDs/B/04_holdfast.jpg,html/resources/sequences_IDs/B/08_slipper.jpg,4,8,2,1,3,2,3,7,0,60,,,,,,,,,,,,,,,,,,,,
,,,,,60,2020-07-04_17h05.29.904,retriever_ti,2020.1.3,Win32,60,Chrome,1536,864,,,,,,,,,,,,,,,,,1,,,,,,,,,,,,,,,,,,,,,,,,,,,857.12898,57,left,0.79639,slipper     ,8,8,1,1,1,857.14561,857.14561,859.644305,0,56,56,56,1,57,8,7,slipper     ,satellite_dish,html/resources/sequences_IDs/B/08_slipper.jpg,html/resources/sequences_IDs/A/10_satellite_dish.jpg,8,10,3,2,4,2,7,8,0,60,,,,,,,,,,,,,,,,,,,,
,,,,,60,2020-07-04_17h05.29.904,retriever_ti,2020.1.3,Win32,60,Chrome,1536,864,,,,,,,,,,,,,,,,,1,,,,,,,,,,,,,,,,,,,,,,,,,,,860.74408,58,left,1.08417,sport_tshirt,4,7,-1,0,0,860.76083,860.76083,863.25929,0,57,57,57,1,58,4,5,sport_tshirt,peacock       ,html/resources/sequences_IDs/B/07_sport_tshirt.jpg,html/resources/sequences_IDs/A/05_peacock.jpg,7,5,3,2,2,1,6,4,0,60,,,,,,,,,,,,,,,,,,,,
,,,,,60,2020-07-04_17h05.29.904,retriever_ti,2020.1.3,Win32,60,Chrome,1536,864,,,,,,,,,,,,,,,,,1,,,,,,,,,,,,,,,,,,,,,,,,,,,864.35908,59,right,1.23218,holdfast    ,6,4,-1,0,0,864.37606,864.37606,866.87403,0,58,58,58,1,59,7,6,satellite_dish,holdfast    ,html/resources/sequences_IDs/A/10_satellite_dish.jpg,html/resources/sequences_IDs/B/04_holdfast.jpg,10,4,4,2,2,1,8,3,0,60,,,,,,,,,,,,,,,,,,,,
,,,,,60,2020-07-04_17h05.29.904,retriever_ti,2020.1.3,Win32,60,Chrome,1536,864,,,,,,,,,,,,,,,,,1,,,,,,,,,,,,,,,,,,,,,,,,,,,867.974315,60,left,0.720275,wolf          ,1,1,-1,0,0,868.00759,868.00759,870.50611,0,59,59,59,1,60,1,2,wolf          ,dolphin     ,html/resources/sequences_IDs/A/01_wolf.jpg,html/resources/sequences_IDs/B/02_dolphin.jpg,1,2,1,1,1,1,1,2,0,60,,,,,,,,,,,,,,,,,,,,
,,,,,60,2020-07-04_17h05.29.904,retriever_ti,2020.1.3,Win32,60,Chrome,1536,864,,,,,,,,,,,,,,,,,1,,,,,,,,,,,,,,,,,,,,,,,,,,,871.605835,61,right,1.01281,sport_tshirt,4,7,-2,0,3,871.63937,871.63937,874.13757,0,60,60,60,1,61,6,4,holdfast    ,sport_tshirt,html/resources/sequences_IDs/B/04_holdfast.jpg,html/resources/sequences_IDs/B/07_sport_tshirt.jpg,4,7,2,1,3,2,3,6,0,60,,,,,,,,,,,,,,,,,,,,
,,,,,60,2020-07-04_17h05.29.904,retriever_ti,2020.1.3,Win32,60,Chrome,1536,864,,,,,,,,,,,,,,,,,1,,,,,,,,,,,,,,,,,,,,,,,,,,,874.754415,62,left,1.293685,scarf         ,3,6,1,1,0,874.77141,874.77141,877.2698,0,61,61,61,1,62,3,2,scarf         ,dolphin     ,html/resources/sequences_IDs/A/06_scarf.jpg,html/resources/sequences_IDs/B/02_dolphin.jpg,6,2,3,2,1,1,5,2,1,60,,,,,,,,,,,,,,,,,,,,
,,,,,60,2020-07-04_17h05.29.904,retriever_ti,2020.1.3,Win32,60,Chrome,1536,864,,,,,,,,,,,,,,,,,1,,,,,,,,,,,,,,,,,,,,,,,,,,,878.36974,63,left,0.562245,slipper     ,8,8,7,1,3,878.40331,878.40331,880.901485,0,62,62,62,1,63,8,1,slipper     ,wolf          ,html/resources/sequences_IDs/B/08_slipper.jpg,html/resources/sequences_IDs/A/01_wolf.jpg,8,1,3,2,1,1,7,1,0,60,,,,,,,,,,,,,,,,,,,,
,,,,,60,2020-07-04_17h05.29.904,retriever_ti,2020.1.3,Win32,60,Chrome,1536,864,,,,,,,,,,,,,,,,,1,,,,,,,,,,,,,,,,,,,,,,,,,,,881.51853,64,left,0.827445,sport_tshirt,4,7,3,1,3,881.535105,881.535105,884.03357,0,63,63,63,1,64,4,1,sport_tshirt,wolf          ,html/resources/sequences_IDs/B/07_sport_tshirt.jpg,html/resources/sequences_IDs/A/01_wolf.jpg,7,1,3,2,1,1,6,1,0,60,,,,,,,,,,,,,,,,,,,,
,,,,,60,2020-07-04_17h05.29.904,retriever_ti,2020.1.3,Win32,60,Chrome,1536,864,,,,,,,,,,,,,,,,,1,,,,,,,,,,,,,,,,,,,,,,,,,,,884.64989,65,right,0.88987,satellite_dish,7,10,6,1,3,884.683555,884.683555,887.18194,0,64,64,64,1,65,1,7,wolf          ,satellite_dish,html/resources/sequences_IDs/A/01_wolf.jpg,html/resources/sequences_IDs/A/10_satellite_dish.jpg,1,10,1,1,4,2,1,8,0,60,,,,,,,,,,,,,,,,,,,,
,,,,,60,2020-07-04_17h05.29.904,retriever_ti,2020.1.3,Win32,60,Chrome,1536,864,,,,,,,,,,,,,,,,,1,,,,,,,,,,,,,,,,,,,,,,,,,,,887.79864,66,left,1.0689,dolphin     ,2,2,1,1,1,887.815665,887.815665,890.313745,0,65,65,65,1,66,2,1,dolphin     ,wolf          ,html/resources/sequences_IDs/B/02_dolphin.jpg,html/resources/sequences_IDs/A/01_wolf.jpg,2,1,1,1,1,1,2,1,0,60,,,,,,,,,,,,,,,,,,,,
,,,,,60,2020-07-04_17h05.29.904,retriever_ti,2020.1.3,Win32,60,Chrome,1536,864,,,,,,,,,,,,,,,,,1,,,,,,,,,,,,,,,,,,,,,,,,,,,891.414115,67,left,0.90527,holdfast    ,6,4,1,1,1,891.447145,891.447145,893.94578,0,66,66,66,1,67,6,5,holdfast    ,peacock       ,html/resources/sequences_IDs/B/04_holdfast.jpg,html/resources/sequences_IDs/A/05_peacock.jpg,4,5,2,1,2,1,3,4,0,60,,,,,,,,,,,,,,,,,,,,
,,,,,60,2020-07-04_17h05.29.904,retriever_ti,2020.1.3,Win32,60,Chrome,1536,864,,,,,,,,,,,,,,,,,1,,,,,,,,,,,,,,,,,,,,,,,,,,,895.045455,68,right,0.93599,holdfast    ,6,4,5,1,3,895.06224,895.06224,897.560805,0,67,67,67,1,68,1,6,wolf          ,holdfast    ,html/resources/sequences_IDs/A/01_wolf.jpg,html/resources/sequences_IDs/B/04_holdfast.jpg,1,4,1,1,2,1,1,3,0,60,,,,,,,,,,,,,,,,,,,,
,,,,,60,2020-07-04_17h05.29.904,retriever_ti,2020.1.3,Win32,60,Chrome,1536,864,,,,,,,,,,,,,,,,,1,,,,,,,,,,,,,,,,,,,,,,,,,,,898.177365,69,left,0.95714,satellite_dish,7,10,5,1,3,898.19423,898.19423,900.69251,0,68,68,68,1,69,7,2,satellite_dish,dolphin     ,html/resources/sequences_IDs/A/10_satellite_dish.jpg,html/resources/sequences_IDs/B/02_dolphin.jpg,10,2,4,2,1,1,8,2,0,60,,,,,,,,,,,,,,,,,,,,
,,,,,60,2020-07-04_17h05.29.904,retriever_ti,2020.1.3,Win32,60,Chrome,1536,864,,,,,,,,,,,,,,,,,1,,,,,,,,,,,,,,,,,,,,,,,,,,,901.309555,70,right,0.543245,slipper     ,8,8,1,1,0,901.32641,901.32641,903.82468,0,69,69,69,1,70,7,8,satellite_dish,slipper     ,html/resources/sequences_IDs/A/10_satellite_dish.jpg,html/resources/sequences_IDs/B/08_slipper.jpg,10,8,4,2,3,2,8,7,1,60,,,,,,,,,,,,,,,,,,,,
,,,,,60,2020-07-04_17h05.29.904,retriever_ti,2020.1.3,Win32,60,Chrome,1536,864,,,,,,,,,,,,,,,,,1,,,,,,,,,,,,,,,,,,,,,,,,,,,904.924415,71,left,1.23693,holdfast    ,6,4,4,1,3,904.941425,904.941425,907.439325,0,70,70,70,1,71,6,2,holdfast    ,dolphin     ,html/resources/sequences_IDs/B/04_holdfast.jpg,html/resources/sequences_IDs/B/02_dolphin.jpg,4,2,2,1,1,1,3,2,0,60,,,,,,,,,,,,,,,,,,,,
,,,,,60,2020-07-04_17h05.29.904,retriever_ti,2020.1.3,Win32,60,Chrome,1536,864,,,,,,,,,,,,,,,,,1,,,,,,,,,,,,,,,,,,,,,,,,,,,908.056605,72,right,0.705315,holdfast    ,6,4,1,1,1,908.089935,908.089935,910.588475,0,71,71,71,1,72,5,6,peacock       ,holdfast    ,html/resources/sequences_IDs/A/05_peacock.jpg,html/resources/sequences_IDs/B/04_holdfast.jpg,5,4,2,1,2,1,4,3,0,60,,,,,,,,,,,,,,,,,,,,
,,,,,60,2020-07-04_17h05.29.904,retriever_ti,2020.1.3,Win32,60,Chrome,1536,864,,,,,,,,,,,,,,,,,1,,,,,,,,,,,,,,,,,,,,,,,,,,,911.6882,73,left,0.63665,slipper     ,8,8,4,1,3,911.705085,911.705085,914.20351,0,72,72,72,1,73,8,4,slipper     ,sport_tshirt,html/resources/sequences_IDs/B/08_slipper.jpg,html/resources/sequences_IDs/B/07_sport_tshirt.jpg,8,7,3,2,3,2,7,6,0,60,,,,,,,,,,,,,,,,,,,,
,,,,,60,2020-07-04_17h05.29.904,retriever_ti,2020.1.3,Win32,60,Chrome,1536,864,,,,,,,,,,,,,,,,,1,,,,,,,,,,,,,,,,,,,,,,,,,,,914.81998,74,right,0.6188,slipper     ,8,8,5,1,3,914.85365,914.85365,917.35225,0,73,73,73,1,74,3,8,scarf         ,slipper     ,html/resources/sequences_IDs/A/06_scarf.jpg,html/resources/sequences_IDs/B/08_slipper.jpg,6,8,3,2,3,2,5,7,0,60,,,,,,,,,,,,,,,,,,,,
,,,,,60,2020-07-04_17h05.29.904,retriever_ti,2020.1.3,Win32,60,Chrome,1536,864,,,,,,,,,,,,,,,,,1,,,,,,,,,,,,,,,,,,,,,,,,,,,917.96886,75,right,0.88818,holdfast    ,6,4,1,1,0,918.002325,918.002325,920.50065,0,74,74,74,1,75,5,6,peacock       ,holdfast    ,html/resources/sequences_IDs/A/05_peacock.jpg,html/resources/sequences_IDs/B/04_holdfast.jpg,5,4,2,1,2,1,4,3,1,60,,,,,,,,,,,,,,,,,,,,
,,,,,60,2020-07-04_17h05.29.904,retriever_ti,2020.1.3,Win32,60,Chrome,1536,864,,,,,,,,,,,,,,,,,1,,,,,,,,,,,,,,,,,,,,,,,,,,,921.600275,76,right,0.789345,slipper     ,8,8,3,1,3,921.61736,921.61736,924.11556,0,75,75,75,1,76,5,8,peacock       ,slipper     ,html/resources/sequences_IDs/A/05_peacock.jpg,html/resources/sequences_IDs/B/08_slipper.jpg,5,8,2,1,3,2,4,7,0,60,,,,,,,,,,,,,,,,,,,,
,,,,,60,2020-07-04_17h05.29.904,retriever_ti,2020.1.3,Win32,60,Chrome,1536,864,,,,,,,,,,,,,,,,,1,,,,,,,,,,,,,,,,,,,,,,,,,,,924.73229,77,left,0.69099,slipper     ,8,8,3,1,3,924.765935,924.765935,927.26439,0,76,76,76,1,77,8,5,slipper     ,peacock       ,html/resources/sequences_IDs/B/08_slipper.jpg,html/resources/sequences_IDs/A/05_peacock.jpg,8,5,3,2,2,1,7,4,0,60,,,,,,,,,,,,,,,,,,,,
,,,,,60,2020-07-04_17h05.29.904,retriever_ti,2020.1.3,Win32,60,Chrome,1536,864,,,,,,,,,,,,,,,,,,,,,,,,,,,,,,,,,,,,,0,5.67579,,,,,,,,,,,,,,,,,,,,,,,,,,,,,,,,,,,,,,,,,0,0,0,0,1,,,,,,,,,,,,,,,
,,,,,60,2020-07-04_17h05.29.904,retriever_ti,2020.1.3,Win32,60,Chrome,1536,864,,,,,,,,,,,,,,,,,2,,,,,,,,,,,,,,,,,,,,,,,,,,,957.970235,78,right,1.16198,sport_tshirt,4,7,-1,0,0,957.98475,957.98475,960.482905,0,0,0,0,1,78,5,4,peacock       ,sport_tshirt,html/resources/sequences_IDs/A/05_peacock.jpg,html/resources/sequences_IDs/B/07_sport_tshirt.jpg,5,7,2,1,3,2,4,6,0,60,,,,,,,,,,,,,,,,,,,,
,,,,,60,2020-07-04_17h05.29.904,retriever_ti,2020.1.3,Win32,60,Chrome,1536,864,,,,,,,,,,,,,,,,,2,,,,,,,,,,,,,,,,,,,,,,,,,,,961.582785,79,right,1.12499,peacock       ,5,5,-1,0,0,961.59964,961.59964,964.09793,0,1,1,1,1,79,6,5,holdfast    ,peacock       ,html/resources/sequences_IDs/B/04_holdfast.jpg,html/resources/sequences_IDs/A/05_peacock.jpg,4,5,2,1,2,1,3,4,0,60,,,,,,,,,,,,,,,,,,,,
,,,,,60,2020-07-04_17h05.29.904,retriever_ti,2020.1.3,Win32,60,Chrome,1536,864,,,,,,,,,,,,,,,,,2,,,,,,,,,,,,,,,,,,,,,,,,,,,965.197805,80,left,0.903295,slipper     ,8,8,7,1,3,965.23098,965.23098,967.729555,0,2,2,2,1,80,8,1,slipper     ,wolf          ,html/resources/sequences_IDs/B/08_slipper.jpg,html/resources/sequences_IDs/A/01_wolf.jpg,8,1,3,2,1,1,7,1,0,60,,,,,,,,,,,,,,,,,,,,
,,,,,60,2020-07-04_17h05.29.904,retriever_ti,2020.1.3,Win32,60,Chrome,1536,864,,,,,,,,,,,,,,,,,2,,,,,,,,,,,,,,,,,,,,,,,,,,,968.34611,81,left,0.935745,dolphin     ,2,2,-1,0,0,968.379745,968.379745,970.8779,0,3,3,3,1,81,2,3,dolphin     ,scarf         ,html/resources/sequences_IDs/B/02_dolphin.jpg,html/resources/sequences_IDs/A/06_scarf.jpg,2,6,1,1,3,2,2,5,0,60,,,,,,,,,,,,,,,,,,,,
,,,,,60,2020-07-04_17h05.29.904,retriever_ti,2020.1.3,Win32,60,Chrome,1536,864,,,,,,,,,,,,,,,,,2,,,,,,,,,,,,,,,,,,,,,,,,,,,971.978045,82,right,0.787195,slipper     ,8,8,1,1,1,972.01133,972.01133,974.509735,0,4,4,4,1,82,7,8,satellite_dish,slipper     ,html/resources/sequences_IDs/A/10_satellite_dish.jpg,html/resources/sequences_IDs/B/08_slipper.jpg,10,8,4,2,3,2,8,7,0,60,,,,,,,,,,,,,,,,,,,,
,,,,,60,2020-07-04_17h05.29.904,retriever_ti,2020.1.3,Win32,60,Chrome,1536,864,,,,,,,,,,,,,,,,,2,,,,,,,,,,,,,,,,,,,,,,,,,,,975.60995,83,left,1.30883,scarf         ,3,6,1,1,1,975.64326,975.64326,978.14147,0,5,5,5,1,83,3,2,scarf         ,dolphin     ,html/resources/sequences_IDs/A/06_scarf.jpg,html/resources/sequences_IDs/B/02_dolphin.jpg,6,2,3,2,1,1,5,2,0,60,,,,,,,,,,,,,,,,,,,,
,,,,,60,2020-07-04_17h05.29.904,retriever_ti,2020.1.3,Win32,60,Chrome,1536,864,,,,,,,,,,,,,,,,,2,,,,,,,,,,,,,,,,,,,,,,,,,,,979.241265,84,right,1.150795,scarf         ,3,6,-1,0,1,979.27496,979.27496,981.773255,0,6,6,6,1,84,4,3,sport_tshirt,scarf         ,html/resources/sequences_IDs/B/07_sport_tshirt.jpg,html/resources/sequences_IDs/A/06_scarf.jpg,7,6,3,2,3,2,6,5,1,60,,,,,,,,,,,,,,,,,,,,
,,,,,60,2020-07-04_17h05.29.904,retriever_ti,2020.1.3,Win32,60,Chrome,1536,864,,,,,,,,,,,,,,,,,2,,,,,,,,,,,,,,,,,,,,,,,,,,,982.873115,85,left,1.04522,dolphin     ,2,2,1,1,1,982.889885,982.889885,985.38844,0,7,7,7,1,85,2,1,dolphin     ,wolf          ,html/resources/sequences_IDs/B/02_dolphin.jpg,html/resources/sequences_IDs/A/01_wolf.jpg,2,1,1,1,1,1,2,1,0,60,,,,,,,,,,,,,,,,,,,,
,,,,,60,2020-07-04_17h05.29.904,retriever_ti,2020.1.3,Win32,60,Chrome,1536,864,,,,,,,,,,,,,,,,,2,,,,,,,,,,,,,,,,,,,,,,,,,,,986.488295,86,left,1.33675,sport_tshirt,4,7,-1,0,0,986.50537,986.50537,989.00594,0,8,8,8,1,86,4,5,sport_tshirt,peacock       ,html/resources/sequences_IDs/B/07_sport_tshirt.jpg,html/resources/sequences_IDs/A/05_peacock.jpg,7,5,3,2,2,1,6,4,0,60,,,,,,,,,,,,,,,,,,,,
,,,,,60,2020-07-04_17h05.29.904,retriever_ti,2020.1.3,Win32,60,Chrome,1536,864,,,,,,,,,,,,,,,,,2,,,,,,,,,,,,,,,,,,,,,,,,,,,990.103035,87,left,0.784365,wolf          ,1,1,-1,0,0,990.12023,990.12023,992.618565,0,9,9,9,1,87,1,2,wolf          ,dolphin     ,html/resources/sequences_IDs/A/01_wolf.jpg,html/resources/sequences_IDs/B/02_dolphin.jpg,1,2,1,1,1,1,1,2,0,60,,,,,,,,,,,,,,,,,,,,
,,,,,60,2020-07-04_17h05.29.904,retriever_ti,2020.1.3,Win32,60,Chrome,1536,864,,,,,,,,,,,,,,,,,2,,,,,,,,,,,,,,,,,,,,,,,,,,,993.718275,88,right,0.80218,sport_tshirt,4,7,-2,0,3,993.75208,993.75208,996.250025,0,10,10,10,1,88,6,4,holdfast    ,sport_tshirt,html/resources/sequences_IDs/B/04_holdfast.jpg,html/resources/sequences_IDs/B/07_sport_tshirt.jpg,4,7,2,1,3,2,3,6,0,60,,,,,,,,,,,,,,,,,,,,
,,,,,60,2020-07-04_17h05.29.904,retriever_ti,2020.1.3,Win32,60,Chrome,1536,864,,,,,,,,,,,,,,,,,2,,,,,,,,,,,,,,,,,,,,,,,,,,,996.867015,89,right,0.976235,sport_tshirt,4,7,-1,0,0,996.900735,996.900735,999.398605,0,11,11,11,1,89,5,4,peacock       ,sport_tshirt,html/resources/sequences_IDs/A/05_peacock.jpg,html/resources/sequences_IDs/B/07_sport_tshirt.jpg,5,7,2,1,3,2,4,6,0,60,,,,,,,,,,,,,,,,,,,,
,,,,,60,2020-07-04_17h05.29.904,retriever_ti,2020.1.3,Win32,60,Chrome,1536,864,,,,,,,,,,,,,,,,,2,,,,,,,,,,,,,,,,,,,,,,,,,,,1000.49888,90,left,1.269645,peacock       ,5,5,-1,0,0,1000.53201,1000.53201,1003.03061,0,12,12,12,1,90,5,6,peacock       ,holdfast    ,html/resources/sequences_IDs/A/05_peacock.jpg,html/resources/sequences_IDs/B/04_holdfast.jpg,5,4,2,1,2,1,4,3,0,60,,,,,,,,,,,,,,,,,,,,
,,,,,60,2020-07-04_17h05.29.904,retriever_ti,2020.1.3,Win32,60,Chrome,1536,864,,,,,,,,,,,,,,,,,2,,,,,,,,,,,,,,,,,,,,,,,,,,,1004.13008,91,right,0.7875,peacock       ,5,5,-3,0,3,1004.14716,1004.14716,1006.64574,0,13,13,13,1,91,8,5,slipper     ,peacock       ,html/resources/sequences_IDs/B/08_slipper.jpg,html/resources/sequences_IDs/A/05_peacock.jpg,8,5,3,2,2,1,7,4,0,60,,,,,,,,,,,,,,,,,,,,
,,,,,60,2020-07-04_17h05.29.904,retriever_ti,2020.1.3,Win32,60,Chrome,1536,864,,,,,,,,,,,,,,,,,2,,,,,,,,,,,,,,,,,,,,,,,,,,,1007.26244,92,left,0.62858,sport_tshirt,4,7,-1,0,1,1007.295705,1007.295705,1009.794335,0,14,14,14,1,92,4,5,sport_tshirt,peacock       ,html/resources/sequences_IDs/B/07_sport_tshirt.jpg,html/resources/sequences_IDs/A/05_peacock.jpg,7,5,3,2,2,1,6,4,1,60,,,,,,,,,,,,,,,,,,,,
,,,,,60,2020-07-04_17h05.29.904,retriever_ti,2020.1.3,Win32,60,Chrome,1536,864,,,,,,,,,,,,,,,,,2,,,,,,,,,,,,,,,,,,,,,,,,,,,1010.894735,93,left,1.139125,slipper     ,8,8,4,1,3,1010.91079,1010.91079,1013.40911,0,15,15,15,1,93,8,4,slipper     ,sport_tshirt,html/resources/sequences_IDs/B/08_slipper.jpg,html/resources/sequences_IDs/B/07_sport_tshirt.jpg,8,7,3,2,3,2,7,6,0,60,,,,,,,,,,,,,,,,,,,,
,,,,,60,2020-07-04_17h05.29.904,retriever_ti,2020.1.3,Win32,60,Chrome,1536,864,,,,,,,,,,,,,,,,,2,,,,,,,,,,,,,,,,,,,,,,,,,,,1014.02576,94,left,1.034585,slipper     ,8,8,6,1,3,1014.043055,1014.043055,1016.5413,0,16,16,16,1,94,8,2,slipper     ,dolphin     ,html/resources/sequences_IDs/B/08_slipper.jpg,html/resources/sequences_IDs/B/02_dolphin.jpg,8,2,3,2,1,1,7,2,0,60,,,,,,,,,,,,,,,,,,,,
,,,,,60,2020-07-04_17h05.29.904,retriever_ti,2020.1.3,Win32,60,Chrome,1536,864,,,,,,,,,,,,,,,,,2,,,,,,,,,,,,,,,,,,,,,,,,,,,1017.15795,95,right,1.749605,scarf         ,3,6,2,1,3,1017.175265,1017.175265,1019.67294,0,17,17,17,1,95,1,3,wolf          ,scarf         ,html/resources/sequences_IDs/A/01_wolf.jpg,html/resources/sequences_IDs/A/06_scarf.jpg,1,6,1,1,3,2,1,5,0,60,,,,,,,,,,,,,,,,,,,,
,,,,,60,2020-07-04_17h05.29.904,retriever_ti,2020.1.3,Win32,60,Chrome,1536,864,,,,,,,,,,,,,,,,,2,,,,,,,,,,,,,,,,,,,,,,,,,,,1020.289585,96,left,0.93757,scarf         ,3,6,-2,0,3,1020.306995,1020.306995,1022.805305,0,18,18,18,1,96,3,5,scarf         ,peacock       ,html/resources/sequences_IDs/A/06_scarf.jpg,html/resources/sequences_IDs/A/05_peacock.jpg,6,5,3,2,2,1,5,4,0,60,,,,,,,,,,,,,,,,,,,,
,,,,,60,2020-07-04_17h05.29.904,retriever_ti,2020.1.3,Win32,60,Chrome,1536,864,,,,,,,,,,,,,,,,,2,,,,,,,,,,,,,,,,,,,,,,,,,,,1023.42201,97,left,1.48994,dolphin     ,2,2,-1,0,0,1023.438885,1023.438885,1025.936815,0,19,19,19,1,97,2,3,dolphin     ,scarf         ,html/resources/sequences_IDs/B/02_dolphin.jpg,html/resources/sequences_IDs/A/06_scarf.jpg,2,6,1,1,3,2,2,5,0,60,,,,,,,,,,,,,,,,,,,,
,,,,,60,2020-07-04_17h05.29.904,retriever_ti,2020.1.3,Win32,60,Chrome,1536,864,,,,,,,,,,,,,,,,,2,,,,,,,,,,,,,,,,,,,,,,,,,,,1027.03698,98,right,1.292515,holdfast    ,6,4,3,1,3,1027.053845,1027.053845,1029.552205,0,20,20,20,1,98,3,6,scarf         ,holdfast    ,html/resources/sequences_IDs/A/06_scarf.jpg,html/resources/sequences_IDs/B/04_holdfast.jpg,6,4,3,2,2,1,5,3,0,60,,,,,,,,,,,,,,,,,,,,
,,,,,60,2020-07-04_17h05.29.904,retriever_ti,2020.1.3,Win32,60,Chrome,1536,864,,,,,,,,,,,,,,,,,2,,,,,,,,,,,,,,,,,,,,,,,,,,,1030.1687,99,right,1.500645,holdfast    ,6,4,-1,0,1,1030.202575,1030.202575,1032.70094,0,21,21,21,1,99,7,6,satellite_dish,holdfast    ,html/resources/sequences_IDs/A/10_satellite_dish.jpg,html/resources/sequences_IDs/B/04_holdfast.jpg,10,4,4,2,2,1,8,3,1,60,,,,,,,,,,,,,,,,,,,,
,,,,,60,2020-07-04_17h05.29.904,retriever_ti,2020.1.3,Win32,60,Chrome,1536,864,,,,,,,,,,,,,,,,,2,,,,,,,,,,,,,,,,,,,,,,,,,,,1033.800765,100,left,0.99406,satellite_dish,7,10,2,1,3,1033.83395,1033.83395,1036.332545,0,22,22,22,1,100,7,5,satellite_dish,peacock       ,html/resources/sequences_IDs/A/10_satellite_dish.jpg,html/resources/sequences_IDs/A/05_peacock.jpg,10,5,4,2,2,1,8,4,0,60,,,,,,,,,,,,,,,,,,,,
,,,,,60,2020-07-04_17h05.29.904,retriever_ti,2020.1.3,Win32,60,Chrome,1536,864,,,,,,,,,,,,,,,,,2,,,,,,,,,,,,,,,,,,,,,,,,,,,1036.94918,101,left,1.019675,holdfast    ,6,4,1,1,1,1036.96592,1036.96592,1039.464105,0,23,23,23,1,101,6,5,holdfast    ,peacock       ,html/resources/sequences_IDs/B/04_holdfast.jpg,html/resources/sequences_IDs/A/05_peacock.jpg,4,5,2,1,2,1,3,4,0,60,,,,,,,,,,,,,,,,,,,,
,,,,,60,2020-07-04_17h05.29.904,retriever_ti,2020.1.3,Win32,60,Chrome,1536,864,,,,,,,,,,,,,,,,,2,,,,,,,,,,,,,,,,,,,,,,,,,,,1040.5641,102,left,0.53506,holdfast    ,6,4,-2,0,3,1040.581155,1040.581155,1043.07933,0,24,24,24,1,102,6,8,holdfast    ,slipper     ,html/resources/sequences_IDs/B/04_holdfast.jpg,html/resources/sequences_IDs/B/08_slipper.jpg,4,8,2,1,3,2,3,7,0,60,,,,,,,,,,,,,,,,,,,,
,,,,,60,2020-07-04_17h05.29.904,retriever_ti,2020.1.3,Win32,60,Chrome,1536,864,,,,,,,,,,,,,,,,,2,,,,,,,,,,,,,,,,,,,,,,,,,,,1043.696195,103,right,1.469525,dolphin     ,2,2,1,1,1,1043.71303,1043.71303,1046.21147,0,25,25,25,1,103,1,2,wolf          ,dolphin     ,html/resources/sequences_IDs/A/01_wolf.jpg,html/resources/sequences_IDs/B/02_dolphin.jpg,1,2,1,1,1,1,1,2,0,60,,,,,,,,,,,,,,,,,,,,
,,,,,60,2020-07-04_17h05.29.904,retriever_ti,2020.1.3,Win32,60,Chrome,1536,864,,,,,,,,,,,,,,,,,2,,,,,,,,,,,,,,,,,,,,,,,,,,,1047.311435,104,left,1.391145,wolf          ,1,1,-6,0,3,1047.328025,1047.328025,1049.82653,0,26,26,26,1,104,1,7,wolf          ,satellite_dish,html/resources/sequences_IDs/A/01_wolf.jpg,html/resources/sequences_IDs/A/10_satellite_dish.jpg,1,10,1,1,4,2,1,8,0,60,,,,,,,,,,,,,,,,,,,,
,,,,,60,2020-07-04_17h05.29.904,retriever_ti,2020.1.3,Win32,60,Chrome,1536,864,,,,,,,,,,,,,,,,,2,,,,,,,,,,,,,,,,,,,,,,,,,,,1050.44323,105,right,1.04897,dolphin     ,2,2,-5,0,3,1050.476565,1050.476565,1052.975165,0,27,27,27,1,105,7,2,satellite_dish,dolphin     ,html/resources/sequences_IDs/A/10_satellite_dish.jpg,html/resources/sequences_IDs/B/02_dolphin.jpg,10,2,4,2,1,1,8,2,0,60,,,,,,,,,,,,,,,,,,,,
,,,,,60,2020-07-04_17h05.29.904,retriever_ti,2020.1.3,Win32,60,Chrome,1536,864,,,,,,,,,,,,,,,,,2,,,,,,,,,,,,,,,,,,,,,,,,,,,1053.591615,106,left,0.604985,slipper     ,8,8,1,1,1,1053.60859,1053.60859,1056.10707,0,28,28,28,1,106,8,7,slipper     ,satellite_dish,html/resources/sequences_IDs/B/08_slipper.jpg,html/resources/sequences_IDs/A/10_satellite_dish.jpg,8,10,3,2,4,2,7,8,0,60,,,,,,,,,,,,,,,,,,,,
,,,,,60,2020-07-04_17h05.29.904,retriever_ti,2020.1.3,Win32,60,Chrome,1536,864,,,,,,,,,,,,,,,,,2,,,,,,,,,,,,,,,,,,,,,,,,,,,1057.20712,107,left,0.982885,scarf         ,3,6,2,1,3,1057.223875,1057.223875,1059.72203,0,29,29,29,1,107,3,1,scarf         ,wolf          ,html/resources/sequences_IDs/A/06_scarf.jpg,html/resources/sequences_IDs/A/01_wolf.jpg,6,1,3,2,1,1,5,1,0,60,,,,,,,,,,,,,,,,,,,,
,,,,,60,2020-07-04_17h05.29.904,retriever_ti,2020.1.3,Win32,60,Chrome,1536,864,,,,,,,,,,,,,,,,,2,,,,,,,,,,,,,,,,,,,,,,,,,,,1060.338725,108,right,0.84098,scarf         ,3,6,-4,0,3,1060.372115,1060.372115,1062.8705,0,30,30,30,1,108,7,3,satellite_dish,scarf         ,html/resources/sequences_IDs/A/10_satellite_dish.jpg,html/resources/sequences_IDs/A/06_scarf.jpg,10,6,4,2,3,2,8,5,0,60,,,,,,,,,,,,,,,,,,,,
,,,,,60,2020-07-04_17h05.29.904,retriever_ti,2020.1.3,Win32,60,Chrome,1536,864,,,,,,,,,,,,,,,,,2,,,,,,,,,,,,,,,,,,,,,,,,,,,1063.487265,109,left,1.06709,peacock       ,5,5,-3,0,3,1063.50432,1063.50432,1066.00258,0,31,31,31,1,109,5,8,peacock       ,slipper     ,html/resources/sequences_IDs/A/05_peacock.jpg,html/resources/sequences_IDs/B/08_slipper.jpg,5,8,2,1,3,2,4,7,0,60,,,,,,,,,,,,,,,,,,,,
,,,,,60,2020-07-04_17h05.29.904,retriever_ti,2020.1.3,Win32,60,Chrome,1536,864,,,,,,,,,,,,,,,,,2,,,,,,,,,,,,,,,,,,,,,,,,,,,1066.619265,110,left,1.05923,peacock       ,5,5,-1,0,0,1066.636395,1066.636395,1069.134415,0,32,32,32,1,110,5,6,peacock       ,holdfast    ,html/resources/sequences_IDs/A/05_peacock.jpg,html/resources/sequences_IDs/B/04_holdfast.jpg,5,4,2,1,2,1,4,3,0,60,,,,,,,,,,,,,,,,,,,,
,,,,,60,2020-07-04_17h05.29.904,retriever_ti,2020.1.3,Win32,60,Chrome,1536,864,,,,,,,,,,,,,,,,,2,,,,,,,,,,,,,,,,,,,,,,,,,,,1070.2345,111,right,0.68698,holdfast    ,6,4,5,1,3,1070.26809,1070.26809,1072.765955,0,33,33,33,1,111,1,6,wolf          ,holdfast    ,html/resources/sequences_IDs/A/01_wolf.jpg,html/resources/sequences_IDs/B/04_holdfast.jpg,1,4,1,1,2,1,1,3,0,60,,,,,,,,,,,,,,,,,,,,
,,,,,60,2020-07-04_17h05.29.904,retriever_ti,2020.1.3,Win32,60,Chrome,1536,864,,,,,,,,,,,,,,,,,2,,,,,,,,,,,,,,,,,,,,,,,,,,,1073.366535,112,left,0.98953,sport_tshirt,4,7,2,1,3,1073.383015,1073.383015,1075.88139,0,34,34,34,1,112,4,2,sport_tshirt,dolphin     ,html/resources/sequences_IDs/B/07_sport_tshirt.jpg,html/resources/sequences_IDs/B/02_dolphin.jpg,7,2,3,2,1,1,6,2,0,60,,,,,,,,,,,,,,,,,,,,
,,,,,60,2020-07-04_17h05.29.904,retriever_ti,2020.1.3,Win32,60,Chrome,1536,864,,,,,,,,,,,,,,,,,2,,,,,,,,,,,,,,,,,,,,,,,,,,,1076.49812,113,left,0.843575,peacock       ,5,5,3,1,3,1076.53173,1076.53173,1079.029785,0,35,35,35,1,113,5,2,peacock       ,dolphin     ,html/resources/sequences_IDs/A/05_peacock.jpg,html/resources/sequences_IDs/B/02_dolphin.jpg,5,2,2,1,1,1,4,2,0,60,,,,,,,,,,,,,,,,,,,,
,,,,,60,2020-07-04_17h05.29.904,retriever_ti,2020.1.3,Win32,60,Chrome,1536,864,,,,,,,,,,,,,,,,,2,,,,,,,,,,,,,,,,,,,,,,,,,,,1079.647115,114,left,1.16447,dolphin     ,2,2,-2,0,3,1079.68015,1079.68015,1082.178505,0,36,36,36,1,114,2,4,dolphin     ,sport_tshirt,html/resources/sequences_IDs/B/02_dolphin.jpg,html/resources/sequences_IDs/B/07_sport_tshirt.jpg,2,7,1,1,3,2,2,6,0,60,,,,,,,,,,,,,,,,,,,,
,,,,,60,2020-07-04_17h05.29.904,retriever_ti,2020.1.3,Win32,60,Chrome,1536,864,,,,,,,,,,,,,,,,,2,,,,,,,,,,,,,,,,,,,,,,,,,,,1082.79533,115,left,1.577255,sport_tshirt,4,7,-3,0,3,1082.812275,1082.812275,1085.310475,0,37,37,37,1,115,4,7,sport_tshirt,satellite_dish,html/resources/sequences_IDs/B/07_sport_tshirt.jpg,html/resources/sequences_IDs/A/10_satellite_dish.jpg,7,10,3,2,4,2,6,8,0,60,,,,,,,,,,,,,,,,,,,,
,,,,,60,2020-07-04_17h05.29.904,retriever_ti,2020.1.3,Win32,60,Chrome,1536,864,,,,,,,,,,,,,,,,,2,,,,,,,,,,,,,,,,,,,,,,,,,,,1085.92741,116,left,0.83141,dolphin     ,2,2,1,1,0,1085.960935,1085.960935,1088.459515,0,38,38,38,1,116,2,1,dolphin     ,wolf          ,html/resources/sequences_IDs/B/02_dolphin.jpg,html/resources/sequences_IDs/A/01_wolf.jpg,2,1,1,1,1,1,2,1,1,60,,,,,,,,,,,,,,,,,,,,
,,,,,60,2020-07-04_17h05.29.904,retriever_ti,2020.1.3,Win32,60,Chrome,1536,864,,,,,,,,,,,,,,,,,2,,,,,,,,,,,,,,,,,,,,,,,,,,,1089.55945,117,right,0.931585,satellite_dish,7,10,5,1,3,1089.59266,1089.59266,1092.09177,0,39,39,39,1,117,2,7,dolphin     ,satellite_dish,html/resources/sequences_IDs/B/02_dolphin.jpg,html/resources/sequences_IDs/A/10_satellite_dish.jpg,2,10,1,1,4,2,2,8,0,60,,,,,,,,,,,,,,,,,,,,
,,,,,60,2020-07-04_17h05.29.904,retriever_ti,2020.1.3,Win32,60,Chrome,1536,864,,,,,,,,,,,,,,,,,2,,,,,,,,,,,,,,,,,,,,,,,,,,,1092.707605,118,right,1.149305,sport_tshirt,4,7,-3,0,3,1092.724475,1092.724475,1095.22264,0,40,40,40,1,118,7,4,satellite_dish,sport_tshirt,html/resources/sequences_IDs/A/10_satellite_dish.jpg,html/resources/sequences_IDs/B/07_sport_tshirt.jpg,10,7,4,2,3,2,8,6,0,60,,,,,,,,,,,,,,,,,,,,
,,,,,60,2020-07-04_17h05.29.904,retriever_ti,2020.1.3,Win32,60,Chrome,1536,864,,,,,,,,,,,,,,,,,2,,,,,,,,,,,,,,,,,,,,,,,,,,,1095.839725,119,left,0.728805,peacock       ,5,5,-2,0,3,1095.85689,1095.85689,1098.354695,0,41,41,41,1,119,5,7,peacock       ,satellite_dish,html/resources/sequences_IDs/A/05_peacock.jpg,html/resources/sequences_IDs/A/10_satellite_dish.jpg,5,10,2,1,4,2,4,8,0,60,,,,,,,,,,,,,,,,,,,,
,,,,,60,2020-07-04_17h05.29.904,retriever_ti,2020.1.3,Win32,60,Chrome,1536,864,,,,,,,,,,,,,,,,,2,,,,,,,,,,,,,,,,,,,,,,,,,,,1098.9719,120,right,1.00436,sport_tshirt,4,7,1,1,1,1098.988725,1098.988725,1101.486945,0,42,42,42,1,120,3,4,scarf         ,sport_tshirt,html/resources/sequences_IDs/A/06_scarf.jpg,html/resources/sequences_IDs/B/07_sport_tshirt.jpg,6,7,3,2,3,2,5,6,0,60,,,,,,,,,,,,,,,,,,,,
,,,,,60,2020-07-04_17h05.29.904,retriever_ti,2020.1.3,Win32,60,Chrome,1536,864,,,,,,,,,,,,,,,,,2,,,,,,,,,,,,,,,,,,,,,,,,,,,1102.586705,121,left,1.135675,dolphin     ,2,2,-3,0,3,1102.60337,1102.60337,1105.1018,0,43,43,43,1,121,2,5,dolphin     ,peacock       ,html/resources/sequences_IDs/B/02_dolphin.jpg,html/resources/sequences_IDs/A/05_peacock.jpg,2,5,1,1,2,1,2,4,0,60,,,,,,,,,,,,,,,,,,,,
,,,,,60,2020-07-04_17h05.29.904,retriever_ti,2020.1.3,Win32,60,Chrome,1536,864,,,,,,,,,,,,,,,,,2,,,,,,,,,,,,,,,,,,,,,,,,,,,1105.71879,122,right,1.167795,scarf         ,3,6,-1,0,0,1105.751925,1105.751925,1108.25044,0,44,44,44,1,122,4,3,sport_tshirt,scarf         ,html/resources/sequences_IDs/B/07_sport_tshirt.jpg,html/resources/sequences_IDs/A/06_scarf.jpg,7,6,3,2,3,2,6,5,0,60,,,,,,,,,,,,,,,,,,,,
,,,,,60,2020-07-04_17h05.29.904,retriever_ti,2020.1.3,Win32,60,Chrome,1536,864,,,,,,,,,,,,,,,,,2,,,,,,,,,,,,,,,,,,,,,,,,,,,1109.350405,123,right,0.883495,holdfast    ,6,4,4,1,3,1109.36698,1109.36698,1111.86546,0,45,45,45,1,123,2,6,dolphin     ,holdfast    ,html/resources/sequences_IDs/B/02_dolphin.jpg,html/resources/sequences_IDs/B/04_holdfast.jpg,2,4,1,1,2,1,2,3,0,60,,,,,,,,,,,,,,,,,,,,
,,,,,60,2020-07-04_17h05.29.904,retriever_ti,2020.1.3,Win32,60,Chrome,1536,864,,,,,,,,,,,,,,,,,2,,,,,,,,,,,,,,,,,,,,,,,,,,,1112.4822,124,left,0.96923,scarf         ,3,6,-5,0,3,1112.515855,1112.515855,1115.01417,0,46,46,46,1,124,3,8,scarf         ,slipper     ,html/resources/sequences_IDs/A/06_scarf.jpg,html/resources/sequences_IDs/B/08_slipper.jpg,6,8,3,2,3,2,5,7,0,60,,,,,,,,,,,,,,,,,,,,
,,,,,60,2020-07-04_17h05.29.904,retriever_ti,2020.1.3,Win32,60,Chrome,1536,864,,,,,,,,,,,,,,,,,2,,,,,,,,,,,,,,,,,,,,,,,,,,,1115.630795,125,right,0.56106,holdfast    ,6,4,1,1,0,1115.664225,1115.664225,1118.16278,0,47,47,47,1,125,5,6,peacock       ,holdfast    ,html/resources/sequences_IDs/A/05_peacock.jpg,html/resources/sequences_IDs/B/04_holdfast.jpg,5,4,2,1,2,1,4,3,1,60,,,,,,,,,,,,,,,,,,,,
,,,,,60,2020-07-04_17h05.29.904,retriever_ti,2020.1.3,Win32,60,Chrome,1536,864,,,,,,,,,,,,,,,,,2,,,,,,,,,,,,,,,,,,,,,,,,,,,1119.26245,126,left,0.73411,holdfast    ,6,4,-1,0,0,1119.29597,1119.29597,1121.794215,0,48,48,48,1,126,6,7,holdfast    ,satellite_dish,html/resources/sequences_IDs/B/04_holdfast.jpg,html/resources/sequences_IDs/A/10_satellite_dish.jpg,4,10,2,1,4,2,3,8,0,60,,,,,,,,,,,,,,,,,,,,
,,,,,60,2020-07-04_17h05.29.904,retriever_ti,2020.1.3,Win32,60,Chrome,1536,864,,,,,,,,,,,,,,,,,2,,,,,,,,,,,,,,,,,,,,,,,,,,,1122.894105,127,right,1.0388,slipper     ,8,8,6,1,3,1122.92787,1122.92787,1125.42598,0,49,49,49,1,127,2,8,dolphin     ,slipper     ,html/resources/sequences_IDs/B/02_dolphin.jpg,html/resources/sequences_IDs/B/08_slipper.jpg,2,8,1,1,3,2,2,7,0,60,,,,,,,,,,,,,,,,,,,,
,,,,,60,2020-07-04_17h05.29.904,retriever_ti,2020.1.3,Win32,60,Chrome,1536,864,,,,,,,,,,,,,,,,,2,,,,,,,,,,,,,,,,,,,,,,,,,,,1126.04301,128,left,0.93218,holdfast    ,6,4,3,1,3,1126.0767,1126.0767,1128.574865,0,50,50,50,1,128,6,3,holdfast    ,scarf         ,html/resources/sequences_IDs/B/04_holdfast.jpg,html/resources/sequences_IDs/A/06_scarf.jpg,4,6,2,1,3,2,3,5,0,60,,,,,,,,,,,,,,,,,,,,
,,,,,60,2020-07-04_17h05.29.904,retriever_ti,2020.1.3,Win32,60,Chrome,1536,864,,,,,,,,,,,,,,,,,2,,,,,,,,,,,,,,,,,,,,,,,,,,,1129.1914,129,right,1.742515,holdfast    ,6,4,-1,0,0,1129.225245,1129.225245,1131.72345,0,51,51,51,1,129,7,6,satellite_dish,holdfast    ,html/resources/sequences_IDs/A/10_satellite_dish.jpg,html/resources/sequences_IDs/B/04_holdfast.jpg,10,4,4,2,2,1,8,3,0,60,,,,,,,,,,,,,,,,,,,,
,,,,,60,2020-07-04_17h05.29.904,retriever_ti,2020.1.3,Win32,60,Chrome,1536,864,,,,,,,,,,,,,,,,,2,,,,,,,,,,,,,,,,,,,,,,,,,,,1132.822895,130,right,1.08052,holdfast    ,6,4,-1,0,0,1132.856955,1132.856955,1135.355,0,52,52,52,1,130,7,6,satellite_dish,holdfast    ,html/resources/sequences_IDs/A/10_satellite_dish.jpg,html/resources/sequences_IDs/B/04_holdfast.jpg,10,4,4,2,2,1,8,3,0,60,,,,,,,,,,,,,,,,,,,,
,,,,,60,2020-07-04_17h05.29.904,retriever_ti,2020.1.3,Win32,60,Chrome,1536,864,,,,,,,,,,,,,,,,,2,,,,,,,,,,,,,,,,,,,,,,,,,,,1136.455315,131,left,0.874355,holdfast    ,6,4,4,1,3,1136.488705,1136.488705,1138.9866,0,53,53,53,1,131,6,2,holdfast    ,dolphin     ,html/resources/sequences_IDs/B/04_holdfast.jpg,html/resources/sequences_IDs/B/02_dolphin.jpg,4,2,2,1,1,1,3,2,0,60,,,,,,,,,,,,,,,,,,,,
,,,,,60,2020-07-04_17h05.29.904,retriever_ti,2020.1.3,Win32,60,Chrome,1536,864,,,,,,,,,,,,,,,,,2,,,,,,,,,,,,,,,,,,,,,,,,,,,1139.603855,132,right,1.621645,sport_tshirt,4,7,1,1,1,1139.637265,1139.637265,1142.13516,0,54,54,54,1,132,3,4,scarf         ,sport_tshirt,html/resources/sequences_IDs/A/06_scarf.jpg,html/resources/sequences_IDs/B/07_sport_tshirt.jpg,6,7,3,2,3,2,5,6,0,60,,,,,,,,,,,,,,,,,,,,
,,,,,60,2020-07-04_17h05.29.904,retriever_ti,2020.1.3,Win32,60,Chrome,1536,864,,,,,,,,,,,,,,,,,2,,,,,,,,,,,,,,,,,,,,,,,,,,,1143.235475,133,left,1.20545,holdfast    ,6,4,-1,0,0,1143.25237,1143.25237,1145.75044,0,55,55,55,1,133,6,7,holdfast    ,satellite_dish,html/resources/sequences_IDs/B/04_holdfast.jpg,html/resources/sequences_IDs/A/10_satellite_dish.jpg,4,10,2,1,4,2,3,8,0,60,,,,,,,,,,,,,,,,,,,,
,,,,,60,2020-07-04_17h05.29.904,retriever_ti,2020.1.3,Win32,60,Chrome,1536,864,,,,,,,,,,,,,,,,,2,,,,,,,,,,,,,,,,,,,,,,,,,,,1146.85013,134,left,0.848085,satellite_dish,7,10,6,1,3,1146.88444,1146.88444,1149.38223,0,56,56,56,1,134,7,1,satellite_dish,wolf          ,html/resources/sequences_IDs/A/10_satellite_dish.jpg,html/resources/sequences_IDs/A/01_wolf.jpg,10,1,4,2,1,1,8,1,0,60,,,,,,,,,,,,,,,,,,,,
,,,,,60,2020-07-04_17h05.29.904,retriever_ti,2020.1.3,Win32,60,Chrome,1536,864,,,,,,,,,,,,,,,,,2,,,,,,,,,,,,,,,,,,,,,,,,,,,1149.99921,135,right,0.907975,sport_tshirt,4,7,3,1,3,1150.01598,1150.01598,1152.514245,0,57,57,57,1,135,1,4,wolf          ,sport_tshirt,html/resources/sequences_IDs/A/01_wolf.jpg,html/resources/sequences_IDs/B/07_sport_tshirt.jpg,1,7,1,1,3,2,1,6,0,60,,,,,,,,,,,,,,,,,,,,
,,,,,60,2020-07-04_17h05.29.904,retriever_ti,2020.1.3,Win32,60,Chrome,1536,864,,,,,,,,,,,,,,,,,2,,,,,,,,,,,,,,,,,,,,,,,,,,,1153.13135,136,left,1.212725,slipper     ,8,8,2,1,3,1153.14788,1153.14788,1155.64577,0,58,58,58,1,136,8,6,slipper     ,holdfast    ,html/resources/sequences_IDs/B/08_slipper.jpg,html/resources/sequences_IDs/B/04_holdfast.jpg,8,4,3,2,2,1,7,3,0,60,,,,,,,,,,,,,,,,,,,,
,,,,,60,2020-07-04_17h05.29.904,retriever_ti,2020.1.3,Win32,60,Chrome,1536,864,,,,,,,,,,,,,,,,,2,,,,,,,,,,,,,,,,,,,,,,,,,,,1156.246075,137,left,1.183805,dolphin     ,2,2,1,1,1,1156.26293,1156.26293,1158.761145,0,59,59,59,1,137,2,1,dolphin     ,wolf          ,html/resources/sequences_IDs/B/02_dolphin.jpg,html/resources/sequences_IDs/A/01_wolf.jpg,2,1,1,1,1,1,2,1,0,60,,,,,,,,,,,,,,,,,,,,
,,,,,60,2020-07-04_17h05.29.904,retriever_ti,2020.1.3,Win32,60,Chrome,1536,864,,,,,,,,,,,,,,,,,2,,,,,,,,,,,,,,,,,,,,,,,,,,,1159.86129,138,left,0.81603,holdfast    ,6,4,5,1,3,1159.877895,1159.877895,1162.376395,0,60,60,60,1,138,6,1,holdfast    ,wolf          ,html/resources/sequences_IDs/B/04_holdfast.jpg,html/resources/sequences_IDs/A/01_wolf.jpg,4,1,2,1,1,1,3,1,0,60,,,,,,,,,,,,,,,,,,,,
,,,,,60,2020-07-04_17h05.29.904,retriever_ti,2020.1.3,Win32,60,Chrome,1536,864,,,,,,,,,,,,,,,,,2,,,,,,,,,,,,,,,,,,,,,,,,,,,1162.993125,139,left,0.83319,sport_tshirt,4,7,1,1,1,1163.010325,1163.010325,1165.508265,0,61,61,61,1,139,4,3,sport_tshirt,scarf         ,html/resources/sequences_IDs/B/07_sport_tshirt.jpg,html/resources/sequences_IDs/A/06_scarf.jpg,7,6,3,2,3,2,6,5,0,60,,,,,,,,,,,,,,,,,,,,
,,,,,60,2020-07-04_17h05.29.904,retriever_ti,2020.1.3,Win32,60,Chrome,1536,864,,,,,,,,,,,,,,,,,2,,,,,,,,,,,,,,,,,,,,,,,,,,,1166.608485,140,left,0.81025,scarf         ,3,6,1,1,1,1166.641835,1166.641835,1169.13989,0,62,62,62,1,140,3,2,scarf         ,dolphin     ,html/resources/sequences_IDs/A/06_scarf.jpg,html/resources/sequences_IDs/B/02_dolphin.jpg,6,2,3,2,1,1,5,2,0,60,,,,,,,,,,,,,,,,,,,,
,,,,,60,2020-07-04_17h05.29.904,retriever_ti,2020.1.3,Win32,60,Chrome,1536,864,,,,,,,,,,,,,,,,,2,,,,,,,,,,,,,,,,,,,,,,,,,,,1170.23979,141,right,0.81815,peacock       ,5,5,4,1,3,1170.25695,1170.25695,1172.754945,0,63,63,63,1,141,1,5,wolf          ,peacock       ,html/resources/sequences_IDs/A/01_wolf.jpg,html/resources/sequences_IDs/A/05_peacock.jpg,1,5,1,1,2,1,1,4,0,60,,,,,,,,,,,,,,,,,,,,
,,,,,60,2020-07-04_17h05.29.904,retriever_ti,2020.1.3,Win32,60,Chrome,1536,864,,,,,,,,,,,,,,,,,2,,,,,,,,,,,,,,,,,,,,,,,,,,,1173.37214,142,left,0.567915,slipper     ,8,8,1,1,1,1173.38871,1173.38871,1175.887115,0,64,64,64,1,142,8,7,slipper     ,satellite_dish,html/resources/sequences_IDs/B/08_slipper.jpg,html/resources/sequences_IDs/A/10_satellite_dish.jpg,8,10,3,2,4,2,7,8,0,60,,,,,,,,,,,,,,,,,,,,
,,,,,60,2020-07-04_17h05.29.904,retriever_ti,2020.1.3,Win32,60,Chrome,1536,864,,,,,,,,,,,,,,,,,2,,,,,,,,,,,,,,,,,,,,,,,,,,,1176.98697,143,left,0.728145,peacock       ,5,5,4,1,3,1177.0203,1177.0203,1179.518875,0,65,65,65,1,143,5,1,peacock       ,wolf          ,html/resources/sequences_IDs/A/05_peacock.jpg,html/resources/sequences_IDs/A/01_wolf.jpg,5,1,2,1,1,1,4,1,0,60,,,,,,,,,,,,,,,,,,,,
,,,,,60,2020-07-04_17h05.29.904,retriever_ti,2020.1.3,Win32,60,Chrome,1536,864,,,,,,,,,,,,,,,,,2,,,,,,,,,,,,,,,,,,,,,,,,,,,1180.13553,144,left,0.68526,sport_tshirt,4,7,-2,0,3,1180.16923,1180.16923,1182.667385,0,66,66,66,1,144,4,6,sport_tshirt,holdfast    ,html/resources/sequences_IDs/B/07_sport_tshirt.jpg,html/resources/sequences_IDs/B/04_holdfast.jpg,7,4,3,2,2,1,6,3,0,60,,,,,,,,,,,,,,,,,,,,
,,,,,60,2020-07-04_17h05.29.904,retriever_ti,2020.1.3,Win32,60,Chrome,1536,864,,,,,,,,,,,,,,,,,2,,,,,,,,,,,,,,,,,,,,,,,,,,,1183.28432,145,right,0.74046,slipper     ,8,8,1,1,1,1183.301075,1183.301075,1185.799045,0,67,67,67,1,145,7,8,satellite_dish,slipper     ,html/resources/sequences_IDs/A/10_satellite_dish.jpg,html/resources/sequences_IDs/B/08_slipper.jpg,10,8,4,2,3,2,8,7,0,60,,,,,,,,,,,,,,,,,,,,
,,,,,60,2020-07-04_17h05.29.904,retriever_ti,2020.1.3,Win32,60,Chrome,1536,864,,,,,,,,,,,,,,,,,2,,,,,,,,,,,,,,,,,,,,,,,,,,,1186.89908,146,left,0.64539,sport_tshirt,4,7,3,1,3,1186.916265,1186.916265,1189.41468,0,68,68,68,1,146,4,1,sport_tshirt,wolf          ,html/resources/sequences_IDs/B/07_sport_tshirt.jpg,html/resources/sequences_IDs/A/01_wolf.jpg,7,1,3,2,1,1,6,1,0,60,,,,,,,,,,,,,,,,,,,,
,,,,,60,2020-07-04_17h05.29.904,retriever_ti,2020.1.3,Win32,60,Chrome,1536,864,,,,,,,,,,,,,,,,,2,,,,,,,,,,,,,,,,,,,,,,,,,,,1190.031085,147,left,0.67338,scarf         ,3,6,-4,0,3,1190.04822,1190.04822,1192.54611,0,69,69,69,1,147,3,7,scarf         ,satellite_dish,html/resources/sequences_IDs/A/06_scarf.jpg,html/resources/sequences_IDs/A/10_satellite_dish.jpg,6,10,3,2,4,2,5,8,0,60,,,,,,,,,,,,,,,,,,,,
,,,,,60,2020-07-04_17h05.29.904,retriever_ti,2020.1.3,Win32,60,Chrome,1536,864,,,,,,,,,,,,,,,,,2,,,,,,,,,,,,,,,,,,,,,,,,,,,1193.162995,148,right,0.667675,slipper     ,8,8,7,1,3,1193.1796,1193.1796,1195.678135,0,70,70,70,1,148,1,8,wolf          ,slipper     ,html/resources/sequences_IDs/A/01_wolf.jpg,html/resources/sequences_IDs/B/08_slipper.jpg,1,8,1,1,3,2,1,7,0,60,,,,,,,,,,,,,,,,,,,,
,,,,,60,2020-07-04_17h05.29.904,retriever_ti,2020.1.3,Win32,60,Chrome,1536,864,,,,,,,,,,,,,,,,,2,,,,,,,,,,,,,,,,,,,,,,,,,,,1196.29505,149,right,1.117155,scarf         ,3,6,-2,0,3,1196.328535,1196.328535,1198.82681,0,71,71,71,1,149,5,3,peacock       ,scarf         ,html/resources/sequences_IDs/A/05_peacock.jpg,html/resources/sequences_IDs/A/06_scarf.jpg,5,6,2,1,3,2,4,5,0,60,,,,,,,,,,,,,,,,,,,,
,,,,,60,2020-07-04_17h05.29.904,retriever_ti,2020.1.3,Win32,60,Chrome,1536,864,,,,,,,,,,,,,,,,,2,,,,,,,,,,,,,,,,,,,,,,,,,,,1199.44358,150,left,0.8478,slipper     ,8,8,5,1,3,1199.477265,1199.477265,1201.975315,0,72,72,72,1,150,8,3,slipper     ,scarf         ,html/resources/sequences_IDs/B/08_slipper.jpg,html/resources/sequences_IDs/A/06_scarf.jpg,8,6,3,2,3,2,7,5,0,60,,,,,,,,,,,,,,,,,,,,
,,,,,60,2020-07-04_17h05.29.904,retriever_ti,2020.1.3,Win32,60,Chrome,1536,864,,,,,,,,,,,,,,,,,2,,,,,,,,,,,,,,,,,,,,,,,,,,,1202.591795,151,left,0.58555,scarf         ,3,6,1,1,0,1202.60877,1202.60877,1205.107145,0,73,73,73,1,151,3,2,scarf         ,dolphin     ,html/resources/sequences_IDs/A/06_scarf.jpg,html/resources/sequences_IDs/B/02_dolphin.jpg,6,2,3,2,1,1,5,2,1,60,,,,,,,,,,,,,,,,,,,,
,,,,,60,2020-07-04_17h05.29.904,retriever_ti,2020.1.3,Win32,60,Chrome,1536,864,,,,,,,,,,,,,,,,,2,,,,,,,,,,,,,,,,,,,,,,,,,,,1206.20723,152,right,0.63217,slipper     ,8,8,1,1,0,1206.24073,1206.24073,1208.73919,0,74,74,74,1,152,7,8,satellite_dish,slipper     ,html/resources/sequences_IDs/A/10_satellite_dish.jpg,html/resources/sequences_IDs/B/08_slipper.jpg,10,8,4,2,3,2,8,7,1,60,,,,,,,,,,,,,,,,,,,,
,,,,,60,2020-07-04_17h05.29.904,retriever_ti,2020.1.3,Win32,60,Chrome,1536,864,,,,,,,,,,,,,,,,,2,,,,,,,,,,,,,,,,,,,,,,,,,,,1209.839135,153,right,0.58289,slipper     ,8,8,4,1,3,1209.856025,1209.856025,1212.354405,0,75,75,75,1,153,4,8,sport_tshirt,slipper     ,html/resources/sequences_IDs/B/07_sport_tshirt.jpg,html/resources/sequences_IDs/B/08_slipper.jpg,7,8,3,2,3,2,6,7,0,60,,,,,,,,,,,,,,,,,,,,
,,,,,60,2020-07-04_17h05.29.904,retriever_ti,2020.1.3,Win32,60,Chrome,1536,864,,,,,,,,,,,,,,,,,2,,,,,,,,,,,,,,,,,,,,,,,,,,,1212.971255,154,left,0.621665,sport_tshirt,4,7,-1,0,0,1213.00442,1213.00442,1215.50271,0,76,76,76,1,154,4,5,sport_tshirt,peacock       ,html/resources/sequences_IDs/B/07_sport_tshirt.jpg,html/resources/sequences_IDs/A/05_peacock.jpg,7,5,3,2,2,1,6,4,0,60,,,,,,,,,,,,,,,,,,,,
,,,,,60,2020-07-04_17h05.29.904,retriever_ti,2020.1.3,Win32,60,Chrome,1536,864,,,,,,,,,,,,,,,,,,,,,,,,,,,,,,,,,,,,,0,3.889155,,,,,,,,,,,,,,,,,,,,,,,,,,,,,,,,,,,,,,,,,1,0,1,0,1,,,,,,,,,,,,,,,
,,,,,60,2020-07-04_17h05.29.904,retriever_ti,2020.1.3,Win32,60,Chrome,1536,864,,,,,,,,,,,,,,,,,3,,,,,,,,,,,,,,,,,,,,,,,,,,,1254.915235,155,right,0.999495,slipper     ,8,8,5,1,3,1254.936085,1254.936085,1257.43412,0,0,0,0,1,155,3,8,scarf         ,slipper     ,html/resources/sequences_IDs/A/06_scarf.jpg,html/resources/sequences_IDs/B/08_slipper.jpg,6,8,3,2,3,2,5,7,0,60,,,,,,,,,,,,,,,,,,,,
,,,,,60,2020-07-04_17h05.29.904,retriever_ti,2020.1.3,Win32,60,Chrome,1536,864,,,,,,,,,,,,,,,,,3,,,,,,,,,,,,,,,,,,,,,,,,,,,1258.05115,156,left,1.040915,scarf         ,3,6,-1,0,0,1258.068045,1258.068045,1260.56595,0,1,1,1,1,156,3,4,scarf         ,sport_tshirt,html/resources/sequences_IDs/A/06_scarf.jpg,html/resources/sequences_IDs/B/07_sport_tshirt.jpg,6,7,3,2,3,2,5,6,0,60,,,,,,,,,,,,,,,,,,,,
,,,,,60,2020-07-04_17h05.29.904,retriever_ti,2020.1.3,Win32,60,Chrome,1536,864,,,,,,,,,,,,,,,,,3,,,,,,,,,,,,,,,,,,,,,,,,,,,1261.66583,157,right,1.019535,sport_tshirt,4,7,1,1,1,1261.68312,1261.68312,1264.18131,0,2,2,2,1,157,3,4,scarf         ,sport_tshirt,html/resources/sequences_IDs/A/06_scarf.jpg,html/resources/sequences_IDs/B/07_sport_tshirt.jpg,6,7,3,2,3,2,5,6,0,60,,,,,,,,,,,,,,,,,,,,
,,,,,60,2020-07-04_17h05.29.904,retriever_ti,2020.1.3,Win32,60,Chrome,1536,864,,,,,,,,,,,,,,,,,3,,,,,,,,,,,,,,,,,,,,,,,,,,,1265.28105,158,right,1.759895,sport_tshirt,4,7,-1,0,1,1265.314785,1265.314785,1267.8131,0,3,3,3,1,158,5,4,peacock       ,sport_tshirt,html/resources/sequences_IDs/A/05_peacock.jpg,html/resources/sequences_IDs/B/07_sport_tshirt.jpg,5,7,2,1,3,2,4,6,1,60,,,,,,,,,,,,,,,,,,,,
,,,,,60,2020-07-04_17h05.29.904,retriever_ti,2020.1.3,Win32,60,Chrome,1536,864,,,,,,,,,,,,,,,,,3,,,,,,,,,,,,,,,,,,,,,,,,,,,1268.91301,159,right,0.924405,slipper     ,8,8,3,1,3,1268.946125,1268.946125,1271.44457,0,4,4,4,1,159,5,8,peacock       ,slipper     ,html/resources/sequences_IDs/A/05_peacock.jpg,html/resources/sequences_IDs/B/08_slipper.jpg,5,8,2,1,3,2,4,7,0,60,,,,,,,,,,,,,,,,,,,,
,,,,,60,2020-07-04_17h05.29.904,retriever_ti,2020.1.3,Win32,60,Chrome,1536,864,,,,,,,,,,,,,,,,,3,,,,,,,,,,,,,,,,,,,,,,,,,,,1272.061675,160,left,1.036145,wolf          ,1,1,-6,0,3,1272.09493,1272.09493,1274.593035,0,5,5,5,1,160,1,7,wolf          ,satellite_dish,html/resources/sequences_IDs/A/01_wolf.jpg,html/resources/sequences_IDs/A/10_satellite_dish.jpg,1,10,1,1,4,2,1,8,0,60,,,,,,,,,,,,,,,,,,,,
,,,,,60,2020-07-04_17h05.29.904,retriever_ti,2020.1.3,Win32,60,Chrome,1536,864,,,,,,,,,,,,,,,,,3,,,,,,,,,,,,,,,,,,,,,,,,,,,1275.19335,161,right,0.835395,scarf         ,3,6,-1,0,0,1275.21025,1275.21025,1277.70842,0,6,6,6,1,161,4,3,sport_tshirt,scarf         ,html/resources/sequences_IDs/B/07_sport_tshirt.jpg,html/resources/sequences_IDs/A/06_scarf.jpg,7,6,3,2,3,2,6,5,0,60,,,,,,,,,,,,,,,,,,,,
,,,,,60,2020-07-04_17h05.29.904,retriever_ti,2020.1.3,Win32,60,Chrome,1536,864,,,,,,,,,,,,,,,,,3,,,,,,,,,,,,,,,,,,,,,,,,,,,1278.80832,162,left,0.689675,sport_tshirt,4,7,2,1,3,1278.82537,1278.82537,1281.323505,0,7,7,7,1,162,4,2,sport_tshirt,dolphin     ,html/resources/sequences_IDs/B/07_sport_tshirt.jpg,html/resources/sequences_IDs/B/02_dolphin.jpg,7,2,3,2,1,1,6,2,0,60,,,,,,,,,,,,,,,,,,,,
,,,,,60,2020-07-04_17h05.29.904,retriever_ti,2020.1.3,Win32,60,Chrome,1536,864,,,,,,,,,,,,,,,,,3,,,,,,,,,,,,,,,,,,,,,,,,,,,1281.94054,163,right,0.8037,sport_tshirt,4,7,-2,0,3,1281.97383,1281.97383,1284.47223,0,8,8,8,1,163,6,4,holdfast    ,sport_tshirt,html/resources/sequences_IDs/B/04_holdfast.jpg,html/resources/sequences_IDs/B/07_sport_tshirt.jpg,4,7,2,1,3,2,3,6,0,60,,,,,,,,,,,,,,,,,,,,
,,,,,60,2020-07-04_17h05.29.904,retriever_ti,2020.1.3,Win32,60,Chrome,1536,864,,,,,,,,,,,,,,,,,3,,,,,,,,,,,,,,,,,,,,,,,,,,,1285.08898,164,left,0.62382,holdfast    ,6,4,1,1,0,1285.10571,1285.10571,1287.604295,0,9,9,9,1,164,6,5,holdfast    ,peacock       ,html/resources/sequences_IDs/B/04_holdfast.jpg,html/resources/sequences_IDs/A/05_peacock.jpg,4,5,2,1,2,1,3,4,1,60,,,,,,,,,,,,,,,,,,,,
,,,,,60,2020-07-04_17h05.29.904,retriever_ti,2020.1.3,Win32,60,Chrome,1536,864,,,,,,,,,,,,,,,,,3,,,,,,,,,,,,,,,,,,,,,,,,,,,1288.703845,165,left,1.282285,peacock       ,5,5,3,1,3,1288.720965,1288.720965,1291.21932,0,10,10,10,1,165,5,2,peacock       ,dolphin     ,html/resources/sequences_IDs/A/05_peacock.jpg,html/resources/sequences_IDs/B/02_dolphin.jpg,5,2,2,1,1,1,4,2,0,60,,,,,,,,,,,,,,,,,,,,
,,,,,60,2020-07-04_17h05.29.904,retriever_ti,2020.1.3,Win32,60,Chrome,1536,864,,,,,,,,,,,,,,,,,3,,,,,,,,,,,,,,,,,,,,,,,,,,,1291.836115,166,left,0.950475,holdfast    ,6,4,1,1,1,1291.852935,1291.852935,1294.351175,0,11,11,11,1,166,6,5,holdfast    ,peacock       ,html/resources/sequences_IDs/B/04_holdfast.jpg,html/resources/sequences_IDs/A/05_peacock.jpg,4,5,2,1,2,1,3,4,0,60,,,,,,,,,,,,,,,,,,,,
,,,,,60,2020-07-04_17h05.29.904,retriever_ti,2020.1.3,Win32,60,Chrome,1536,864,,,,,,,,,,,,,,,,,3,,,,,,,,,,,,,,,,,,,,,,,,,,,1295.45072,167,right,1.20518,sport_tshirt,4,7,-1,0,0,1295.467835,1295.467835,1297.965935,0,12,12,12,1,167,5,4,peacock       ,sport_tshirt,html/resources/sequences_IDs/A/05_peacock.jpg,html/resources/sequences_IDs/B/07_sport_tshirt.jpg,5,7,2,1,3,2,4,6,0,60,,,,,,,,,,,,,,,,,,,,
,,,,,60,2020-07-04_17h05.29.904,retriever_ti,2020.1.3,Win32,60,Chrome,1536,864,,,,,,,,,,,,,,,,,3,,,,,,,,,,,,,,,,,,,,,,,,,,,1299.06607,168,right,0.90986,sport_tshirt,4,7,2,1,3,1299.099735,1299.099735,1301.598055,0,13,13,13,1,168,2,4,dolphin     ,sport_tshirt,html/resources/sequences_IDs/B/02_dolphin.jpg,html/resources/sequences_IDs/B/07_sport_tshirt.jpg,2,7,1,1,3,2,2,6,0,60,,,,,,,,,,,,,,,,,,,,
,,,,,60,2020-07-04_17h05.29.904,retriever_ti,2020.1.3,Win32,60,Chrome,1536,864,,,,,,,,,,,,,,,,,3,,,,,,,,,,,,,,,,,,,,,,,,,,,1302.214885,169,right,1.15997,peacock       ,5,5,1,1,1,1302.23132,1302.23132,1304.73,0,14,14,14,1,169,4,5,sport_tshirt,peacock       ,html/resources/sequences_IDs/B/07_sport_tshirt.jpg,html/resources/sequences_IDs/A/05_peacock.jpg,7,5,3,2,2,1,6,4,0,60,,,,,,,,,,,,,,,,,,,,
,,,,,60,2020-07-04_17h05.29.904,retriever_ti,2020.1.3,Win32,60,Chrome,1536,864,,,,,,,,,,,,,,,,,3,,,,,,,,,,,,,,,,,,,,,,,,,,,1305.83003,170,left,0.75036,slipper     ,8,8,1,1,1,1305.86314,1305.86314,1308.361655,0,15,15,15,1,170,8,7,slipper     ,satellite_dish,html/resources/sequences_IDs/B/08_slipper.jpg,html/resources/sequences_IDs/A/10_satellite_dish.jpg,8,10,3,2,4,2,7,8,0,60,,,,,,,,,,,,,,,,,,,,
,,,,,60,2020-07-04_17h05.29.904,retriever_ti,2020.1.3,Win32,60,Chrome,1536,864,,,,,,,,,,,,,,,,,3,,,,,,,,,,,,,,,,,,,,,,,,,,,1309.46116,171,right,0.95449,holdfast    ,6,4,-1,0,0,1309.47838,1309.47838,1311.97647,0,16,16,16,1,171,7,6,satellite_dish,holdfast    ,html/resources/sequences_IDs/A/10_satellite_dish.jpg,html/resources/sequences_IDs/B/04_holdfast.jpg,10,4,4,2,2,1,8,3,0,60,,,,,,,,,,,,,,,,,,,,
,,,,,60,2020-07-04_17h05.29.904,retriever_ti,2020.1.3,Win32,60,Chrome,1536,864,,,,,,,,,,,,,,,,,3,,,,,,,,,,,,,,,,,,,,,,,,,,,1313.076495,172,right,0.86033,holdfast    ,6,4,1,1,1,1313.09359,1313.09359,1315.59187,0,17,17,17,1,172,5,6,peacock       ,holdfast    ,html/resources/sequences_IDs/A/05_peacock.jpg,html/resources/sequences_IDs/B/04_holdfast.jpg,5,4,2,1,2,1,4,3,0,60,,,,,,,,,,,,,,,,,,,,
,,,,,60,2020-07-04_17h05.29.904,retriever_ti,2020.1.3,Win32,60,Chrome,1536,864,,,,,,,,,,,,,,,,,3,,,,,,,,,,,,,,,,,,,,,,,,,,,1316.69192,173,left,0.642595,slipper     ,8,8,6,1,3,1316.72524,1316.72524,1319.22358,0,18,18,18,1,173,8,2,slipper     ,dolphin     ,html/resources/sequences_IDs/B/08_slipper.jpg,html/resources/sequences_IDs/B/02_dolphin.jpg,8,2,3,2,1,1,7,2,0,60,,,,,,,,,,,,,,,,,,,,
,,,,,60,2020-07-04_17h05.29.904,retriever_ti,2020.1.3,Win32,60,Chrome,1536,864,,,,,,,,,,,,,,,,,3,,,,,,,,,,,,,,,,,,,,,,,,,,,1319.840405,174,left,0.741545,dolphin     ,2,2,1,1,1,1319.87342,1319.87342,1322.371835,0,19,19,19,1,174,2,1,dolphin     ,wolf          ,html/resources/sequences_IDs/B/02_dolphin.jpg,html/resources/sequences_IDs/A/01_wolf.jpg,2,1,1,1,1,1,2,1,0,60,,,,,,,,,,,,,,,,,,,,
,,,,,60,2020-07-04_17h05.29.904,retriever_ti,2020.1.3,Win32,60,Chrome,1536,864,,,,,,,,,,,,,,,,,3,,,,,,,,,,,,,,,,,,,,,,,,,,,1323.471815,175,right,0.9268,satellite_dish,7,10,1,1,1,1323.505245,1323.505245,1326.003445,0,20,20,20,1,175,6,7,holdfast    ,satellite_dish,html/resources/sequences_IDs/B/04_holdfast.jpg,html/resources/sequences_IDs/A/10_satellite_dish.jpg,4,10,2,1,4,2,3,8,0,60,,,,,,,,,,,,,,,,,,,,
,,,,,60,2020-07-04_17h05.29.904,retriever_ti,2020.1.3,Win32,60,Chrome,1536,864,,,,,,,,,,,,,,,,,3,,,,,,,,,,,,,,,,,,,,,,,,,,,1327.103605,176,right,0.789345,satellite_dish,7,10,1,1,0,1327.120395,1327.120395,1329.61887,0,21,21,21,1,176,6,7,holdfast    ,satellite_dish,html/resources/sequences_IDs/B/04_holdfast.jpg,html/resources/sequences_IDs/A/10_satellite_dish.jpg,4,10,2,1,4,2,3,8,1,60,,,,,,,,,,,,,,,,,,,,
,,,,,60,2020-07-04_17h05.29.904,retriever_ti,2020.1.3,Win32,60,Chrome,1536,864,,,,,,,,,,,,,,,,,3,,,,,,,,,,,,,,,,,,,,,,,,,,,1330.71857,177,left,0.800495,holdfast    ,6,4,5,1,3,1330.75235,1330.75235,1333.25061,0,22,22,22,1,177,6,1,holdfast    ,wolf          ,html/resources/sequences_IDs/B/04_holdfast.jpg,html/resources/sequences_IDs/A/01_wolf.jpg,4,1,2,1,1,1,3,1,0,60,,,,,,,,,,,,,,,,,,,,
,,,,,60,2020-07-04_17h05.29.904,retriever_ti,2020.1.3,Win32,60,Chrome,1536,864,,,,,,,,,,,,,,,,,3,,,,,,,,,,,,,,,,,,,,,,,,,,,1333.867215,178,right,0.7708,peacock       ,5,5,3,1,3,1333.900485,1333.900485,1336.39884,0,23,23,23,1,178,2,5,dolphin     ,peacock       ,html/resources/sequences_IDs/B/02_dolphin.jpg,html/resources/sequences_IDs/A/05_peacock.jpg,2,5,1,1,2,1,2,4,0,60,,,,,,,,,,,,,,,,,,,,
,,,,,60,2020-07-04_17h05.29.904,retriever_ti,2020.1.3,Win32,60,Chrome,1536,864,,,,,,,,,,,,,,,,,3,,,,,,,,,,,,,,,,,,,,,,,,,,,1337.01583,179,right,1.024935,dolphin     ,2,2,1,1,1,1337.032895,1337.032895,1339.530875,0,24,24,24,1,179,1,2,wolf          ,dolphin     ,html/resources/sequences_IDs/A/01_wolf.jpg,html/resources/sequences_IDs/B/02_dolphin.jpg,1,2,1,1,1,1,1,2,0,60,,,,,,,,,,,,,,,,,,,,
,,,,,60,2020-07-04_17h05.29.904,retriever_ti,2020.1.3,Win32,60,Chrome,1536,864,,,,,,,,,,,,,,,,,3,,,,,,,,,,,,,,,,,,,,,,,,,,,1340.630805,180,left,0.856265,dolphin     ,2,2,-6,0,3,1340.64775,1340.64775,1343.145975,0,25,25,25,1,180,2,8,dolphin     ,slipper     ,html/resources/sequences_IDs/B/02_dolphin.jpg,html/resources/sequences_IDs/B/08_slipper.jpg,2,8,1,1,3,2,2,7,0,60,,,,,,,,,,,,,,,,,,,,
,,,,,60,2020-07-04_17h05.29.904,retriever_ti,2020.1.3,Win32,60,Chrome,1536,864,,,,,,,,,,,,,,,,,3,,,,,,,,,,,,,,,,,,,,,,,,,,,1343.762785,181,right,0.804865,scarf         ,3,6,-4,0,3,1343.77987,1343.77987,1346.278075,0,26,26,26,1,181,7,3,satellite_dish,scarf         ,html/resources/sequences_IDs/A/10_satellite_dish.jpg,html/resources/sequences_IDs/A/06_scarf.jpg,10,6,4,2,3,2,8,5,0,60,,,,,,,,,,,,,,,,,,,,
,,,,,60,2020-07-04_17h05.29.904,retriever_ti,2020.1.3,Win32,60,Chrome,1536,864,,,,,,,,,,,,,,,,,3,,,,,,,,,,,,,,,,,,,,,,,,,,,1346.894795,182,right,0.801175,scarf         ,3,6,1,1,1,1346.928445,1346.928445,1349.426515,0,27,27,27,1,182,2,3,dolphin     ,scarf         ,html/resources/sequences_IDs/B/02_dolphin.jpg,html/resources/sequences_IDs/A/06_scarf.jpg,2,6,1,1,3,2,2,5,0,60,,,,,,,,,,,,,,,,,,,,
,,,,,60,2020-07-04_17h05.29.904,retriever_ti,2020.1.3,Win32,60,Chrome,1536,864,,,,,,,,,,,,,,,,,3,,,,,,,,,,,,,,,,,,,,,,,,,,,1350.52668,183,left,0.83857,dolphin     ,2,2,1,1,1,1350.543615,1350.543615,1353.041825,0,28,28,28,1,183,2,1,dolphin     ,wolf          ,html/resources/sequences_IDs/B/02_dolphin.jpg,html/resources/sequences_IDs/A/01_wolf.jpg,2,1,1,1,1,1,2,1,0,60,,,,,,,,,,,,,,,,,,,,
,,,,,60,2020-07-04_17h05.29.904,retriever_ti,2020.1.3,Win32,60,Chrome,1536,864,,,,,,,,,,,,,,,,,3,,,,,,,,,,,,,,,,,,,,,,,,,,,1354.141865,184,right,0.869045,holdfast    ,6,4,2,1,3,1354.17534,1354.17534,1356.673255,0,29,29,29,1,184,4,6,sport_tshirt,holdfast    ,html/resources/sequences_IDs/B/07_sport_tshirt.jpg,html/resources/sequences_IDs/B/04_holdfast.jpg,7,4,3,2,2,1,6,3,0,60,,,,,,,,,,,,,,,,,,,,
,,,,,60,2020-07-04_17h05.29.904,retriever_ti,2020.1.3,Win32,60,Chrome,1536,864,,,,,,,,,,,,,,,,,3,,,,,,,,,,,,,,,,,,,,,,,,,,,1357.29019,185,right,0.756515,sport_tshirt,4,7,-1,0,0,1357.32384,1357.32384,1359.822195,0,30,30,30,1,185,5,4,peacock       ,sport_tshirt,html/resources/sequences_IDs/A/05_peacock.jpg,html/resources/sequences_IDs/B/07_sport_tshirt.jpg,5,7,2,1,3,2,4,6,0,60,,,,,,,,,,,,,,,,,,,,
,,,,,60,2020-07-04_17h05.29.904,retriever_ti,2020.1.3,Win32,60,Chrome,1536,864,,,,,,,,,,,,,,,,,3,,,,,,,,,,,,,,,,,,,,,,,,,,,1360.9221,186,left,0.669245,peacock       ,5,5,-2,0,3,1360.938655,1360.938655,1363.43692,0,31,31,31,1,186,5,7,peacock       ,satellite_dish,html/resources/sequences_IDs/A/05_peacock.jpg,html/resources/sequences_IDs/A/10_satellite_dish.jpg,5,10,2,1,4,2,4,8,0,60,,,,,,,,,,,,,,,,,,,,
,,,,,60,2020-07-04_17h05.29.904,retriever_ti,2020.1.3,Win32,60,Chrome,1536,864,,,,,,,,,,,,,,,,,3,,,,,,,,,,,,,,,,,,,,,,,,,,,1364.053885,187,right,0.73061,sport_tshirt,4,7,-3,0,3,1364.087415,1364.087415,1366.585865,0,32,32,32,1,187,7,4,satellite_dish,sport_tshirt,html/resources/sequences_IDs/A/10_satellite_dish.jpg,html/resources/sequences_IDs/B/07_sport_tshirt.jpg,10,7,4,2,3,2,8,6,0,60,,,,,,,,,,,,,,,,,,,,
,,,,,60,2020-07-04_17h05.29.904,retriever_ti,2020.1.3,Win32,60,Chrome,1536,864,,,,,,,,,,,,,,,,,3,,,,,,,,,,,,,,,,,,,,,,,,,,,1367.20208,188,left,0.58279,wolf          ,1,1,-7,0,3,1367.2363,1367.2363,1369.73423,0,33,33,33,1,188,1,8,wolf          ,slipper     ,html/resources/sequences_IDs/A/01_wolf.jpg,html/resources/sequences_IDs/B/08_slipper.jpg,1,8,1,1,3,2,1,7,0,60,,,,,,,,,,,,,,,,,,,,
,,,,,60,2020-07-04_17h05.29.904,retriever_ti,2020.1.3,Win32,60,Chrome,1536,864,,,,,,,,,,,,,,,,,3,,,,,,,,,,,,,,,,,,,,,,,,,,,1370.35128,189,right,0.627365,holdfast    ,6,4,1,1,1,1370.3843,1370.3843,1373.115935,0,34,34,34,1,189,5,6,peacock       ,holdfast    ,html/resources/sequences_IDs/A/05_peacock.jpg,html/resources/sequences_IDs/B/04_holdfast.jpg,5,4,2,1,2,1,4,3,0,60,,,,,,,,,,,,,,,,,,,,
,,,,,60,2020-07-04_17h05.29.904,retriever_ti,2020.1.3,Win32,60,Chrome,1536,864,,,,,,,,,,,,,,,,,3,,,,,,,,,,,,,,,,,,,,,,,,,,,1374.216485,190,left,0.747715,holdfast    ,6,4,4,1,3,1374.24925,1374.24925,1376.74765,0,35,35,35,1,190,6,2,holdfast    ,dolphin     ,html/resources/sequences_IDs/B/04_holdfast.jpg,html/resources/sequences_IDs/B/02_dolphin.jpg,4,2,2,1,1,1,3,2,0,60,,,,,,,,,,,,,,,,,,,,
,,,,,60,2020-07-04_17h05.29.904,retriever_ti,2020.1.3,Win32,60,Chrome,1536,864,,,,,,,,,,,,,,,,,3,,,,,,,,,,,,,,,,,,,,,,,,,,,1377.36461,191,right,0.75391,scarf         ,3,6,1,1,0,1377.381745,1377.381745,1379.87975,0,36,36,36,1,191,2,3,dolphin     ,scarf         ,html/resources/sequences_IDs/B/02_dolphin.jpg,html/resources/sequences_IDs/A/06_scarf.jpg,2,6,1,1,3,2,2,5,1,60,,,,,,,,,,,,,,,,,,,,
,,,,,60,2020-07-04_17h05.29.904,retriever_ti,2020.1.3,Win32,60,Chrome,1536,864,,,,,,,,,,,,,,,,,3,,,,,,,,,,,,,,,,,,,,,,,,,,,1380.979985,192,left,0.65341,scarf         ,3,6,-4,0,3,1381.01311,1381.01311,1383.511385,0,37,37,37,1,192,3,7,scarf         ,satellite_dish,html/resources/sequences_IDs/A/06_scarf.jpg,html/resources/sequences_IDs/A/10_satellite_dish.jpg,6,10,3,2,4,2,5,8,0,60,,,,,,,,,,,,,,,,,,,,
,,,,,60,2020-07-04_17h05.29.904,retriever_ti,2020.1.3,Win32,60,Chrome,1536,864,,,,,,,,,,,,,,,,,3,,,,,,,,,,,,,,,,,,,,,,,,,,,1384.12869,193,left,0.70578,holdfast    ,6,4,1,1,1,1384.145055,1384.145055,1386.643295,0,38,38,38,1,193,6,5,holdfast    ,peacock       ,html/resources/sequences_IDs/B/04_holdfast.jpg,html/resources/sequences_IDs/A/05_peacock.jpg,4,5,2,1,2,1,3,4,0,60,,,,,,,,,,,,,,,,,,,,
,,,,,60,2020-07-04_17h05.29.904,retriever_ti,2020.1.3,Win32,60,Chrome,1536,864,,,,,,,,,,,,,,,,,3,,,,,,,,,,,,,,,,,,,,,,,,,,,1387.743285,194,left,1.016655,scarf         ,3,6,-2,0,3,1387.776515,1387.776515,1390.275135,0,39,39,39,1,194,3,5,scarf         ,peacock       ,html/resources/sequences_IDs/A/06_scarf.jpg,html/resources/sequences_IDs/A/05_peacock.jpg,6,5,3,2,2,1,5,4,0,60,,,,,,,,,,,,,,,,,,,,
,,,,,60,2020-07-04_17h05.29.904,retriever_ti,2020.1.3,Win32,60,Chrome,1536,864,,,,,,,,,,,,,,,,,3,,,,,,,,,,,,,,,,,,,,,,,,,,,1390.89218,195,right,0.73078,sport_tshirt,4,7,-4,0,3,1390.90912,1390.90912,1393.40725,0,40,40,40,1,195,8,4,slipper     ,sport_tshirt,html/resources/sequences_IDs/B/08_slipper.jpg,html/resources/sequences_IDs/B/07_sport_tshirt.jpg,8,7,3,2,3,2,7,6,0,60,,,,,,,,,,,,,,,,,,,,
,,,,,60,2020-07-04_17h05.29.904,retriever_ti,2020.1.3,Win32,60,Chrome,1536,864,,,,,,,,,,,,,,,,,3,,,,,,,,,,,,,,,,,,,,,,,,,,,1394.02402,196,left,0.63879,slipper     ,8,8,1,1,1,1394.057265,1394.057265,1396.5558,0,41,41,41,1,196,8,7,slipper     ,satellite_dish,html/resources/sequences_IDs/B/08_slipper.jpg,html/resources/sequences_IDs/A/10_satellite_dish.jpg,8,10,3,2,4,2,7,8,0,60,,,,,,,,,,,,,,,,,,,,
,,,,,60,2020-07-04_17h05.29.904,retriever_ti,2020.1.3,Win32,60,Chrome,1536,864,,,,,,,,,,,,,,,,,3,,,,,,,,,,,,,,,,,,,,,,,,,,,1397.65566,197,right,0.50636,peacock       ,5,5,4,1,3,1397.68907,1397.68907,1400.1872,0,42,42,42,1,197,1,5,wolf          ,peacock       ,html/resources/sequences_IDs/A/01_wolf.jpg,html/resources/sequences_IDs/A/05_peacock.jpg,1,5,1,1,2,1,1,4,0,60,,,,,,,,,,,,,,,,,,,,
,,,,,60,2020-07-04_17h05.29.904,retriever_ti,2020.1.3,Win32,60,Chrome,1536,864,,,,,,,,,,,,,,,,,3,,,,,,,,,,,,,,,,,,,,,,,,,,,1400.804525,198,left,0.79817,scarf         ,3,6,1,1,1,1400.821045,1400.821045,1403.31948,0,43,43,43,1,198,3,2,scarf         ,dolphin     ,html/resources/sequences_IDs/A/06_scarf.jpg,html/resources/sequences_IDs/B/02_dolphin.jpg,6,2,3,2,1,1,5,2,0,60,,,,,,,,,,,,,,,,,,,,
,,,,,60,2020-07-04_17h05.29.904,retriever_ti,2020.1.3,Win32,60,Chrome,1536,864,,,,,,,,,,,,,,,,,3,,,,,,,,,,,,,,,,,,,,,,,,,,,1404.41917,199,left,0.723205,scarf         ,3,6,1,1,1,1404.436185,1404.436185,1406.93427,0,44,44,44,1,199,3,2,scarf         ,dolphin     ,html/resources/sequences_IDs/A/06_scarf.jpg,html/resources/sequences_IDs/B/02_dolphin.jpg,6,2,3,2,1,1,5,2,0,60,,,,,,,,,,,,,,,,,,,,
,,,,,60,2020-07-04_17h05.29.904,retriever_ti,2020.1.3,Win32,60,Chrome,1536,864,,,,,,,,,,,,,,,,,3,,,,,,,,,,,,,,,,,,,,,,,,,,,1408.034465,200,right,0.59348,peacock       ,5,5,-3,0,3,1408.06782,1408.06782,1410.566065,0,45,45,45,1,200,8,5,slipper     ,peacock       ,html/resources/sequences_IDs/B/08_slipper.jpg,html/resources/sequences_IDs/A/05_peacock.jpg,8,5,3,2,2,1,7,4,0,60,,,,,,,,,,,,,,,,,,,,
,,,,,60,2020-07-04_17h05.29.904,retriever_ti,2020.1.3,Win32,60,Chrome,1536,864,,,,,,,,,,,,,,,,,3,,,,,,,,,,,,,,,,,,,,,,,,,,,1411.18258,201,left,0.701015,satellite_dish,7,10,-1,0,0,1411.216645,1411.216645,1413.714565,0,46,46,46,1,201,7,8,satellite_dish,slipper     ,html/resources/sequences_IDs/A/10_satellite_dish.jpg,html/resources/sequences_IDs/B/08_slipper.jpg,10,8,4,2,3,2,8,7,0,60,,,,,,,,,,,,,,,,,,,,
,,,,,60,2020-07-04_17h05.29.904,retriever_ti,2020.1.3,Win32,60,Chrome,1536,864,,,,,,,,,,,,,,,,,3,,,,,,,,,,,,,,,,,,,,,,,,,,,1414.81485,202,right,0.417225,satellite_dish,7,10,5,1,3,1414.831485,1414.831485,1417.330055,0,47,47,47,1,202,2,7,dolphin     ,satellite_dish,html/resources/sequences_IDs/B/02_dolphin.jpg,html/resources/sequences_IDs/A/10_satellite_dish.jpg,2,10,1,1,4,2,2,8,0,60,,,,,,,,,,,,,,,,,,,,
,,,,,60,2020-07-04_17h05.29.904,retriever_ti,2020.1.3,Win32,60,Chrome,1536,864,,,,,,,,,,,,,,,,,3,,,,,,,,,,,,,,,,,,,,,,,,,,,1417.9467,203,left,0.711405,slipper     ,8,8,7,1,3,1417.980395,1417.980395,1420.47829,0,48,48,48,1,203,8,1,slipper     ,wolf          ,html/resources/sequences_IDs/B/08_slipper.jpg,html/resources/sequences_IDs/A/01_wolf.jpg,8,1,3,2,1,1,7,1,0,60,,,,,,,,,,,,,,,,,,,,
,,,,,60,2020-07-04_17h05.29.904,retriever_ti,2020.1.3,Win32,60,Chrome,1536,864,,,,,,,,,,,,,,,,,3,,,,,,,,,,,,,,,,,,,,,,,,,,,1421.09493,204,right,0.53348,dolphin     ,2,2,1,1,1,1421.12887,1421.12887,1423.62703,0,49,49,49,1,204,1,2,wolf          ,dolphin     ,html/resources/sequences_IDs/A/01_wolf.jpg,html/resources/sequences_IDs/B/02_dolphin.jpg,1,2,1,1,1,1,1,2,0,60,,,,,,,,,,,,,,,,,,,,
,,,,,60,2020-07-04_17h05.29.904,retriever_ti,2020.1.3,Win32,60,Chrome,1536,864,,,,,,,,,,,,,,,,,3,,,,,,,,,,,,,,,,,,,,,,,,,,,1424.727105,205,left,0.669135,sport_tshirt,4,7,-1,0,0,1424.743615,1424.743615,1427.241975,0,50,50,50,1,205,4,5,sport_tshirt,peacock       ,html/resources/sequences_IDs/B/07_sport_tshirt.jpg,html/resources/sequences_IDs/A/05_peacock.jpg,7,5,3,2,2,1,6,4,0,60,,,,,,,,,,,,,,,,,,,,
,,,,,60,2020-07-04_17h05.29.904,retriever_ti,2020.1.3,Win32,60,Chrome,1536,864,,,,,,,,,,,,,,,,,3,,,,,,,,,,,,,,,,,,,,,,,,,,,1428.34215,206,right,0.59097,wolf          ,1,1,-6,0,3,1428.37536,1428.37536,1430.87374,0,51,51,51,1,206,7,1,satellite_dish,wolf          ,html/resources/sequences_IDs/A/10_satellite_dish.jpg,html/resources/sequences_IDs/A/01_wolf.jpg,10,1,4,2,1,1,8,1,0,60,,,,,,,,,,,,,,,,,,,,
,,,,,60,2020-07-04_17h05.29.904,retriever_ti,2020.1.3,Win32,60,Chrome,1536,864,,,,,,,,,,,,,,,,,3,,,,,,,,,,,,,,,,,,,,,,,,,,,1431.490605,207,left,0.65744,slipper     ,8,8,1,1,0,1431.524365,1431.524365,1434.022545,0,52,52,52,1,207,8,7,slipper     ,satellite_dish,html/resources/sequences_IDs/B/08_slipper.jpg,html/resources/sequences_IDs/A/10_satellite_dish.jpg,8,10,3,2,4,2,7,8,1,60,,,,,,,,,,,,,,,,,,,,
,,,,,60,2020-07-04_17h05.29.904,retriever_ti,2020.1.3,Win32,60,Chrome,1536,864,,,,,,,,,,,,,,,,,3,,,,,,,,,,,,,,,,,,,,,,,,,,,1435.12268,208,right,0.87305,wolf          ,1,1,-2,0,3,1435.15605,1435.15605,1437.65383,0,53,53,53,1,208,3,1,scarf         ,wolf          ,html/resources/sequences_IDs/A/06_scarf.jpg,html/resources/sequences_IDs/A/01_wolf.jpg,6,1,3,2,1,1,5,1,0,60,,,,,,,,,,,,,,,,,,,,
,,,,,60,2020-07-04_17h05.29.904,retriever_ti,2020.1.3,Win32,60,Chrome,1536,864,,,,,,,,,,,,,,,,,3,,,,,,,,,,,,,,,,,,,,,,,,,,,1438.254475,209,right,0.515,slipper     ,8,8,2,1,3,1438.287925,1438.287925,1440.785875,0,54,54,54,1,209,6,8,holdfast    ,slipper     ,html/resources/sequences_IDs/B/04_holdfast.jpg,html/resources/sequences_IDs/B/08_slipper.jpg,4,8,2,1,3,2,3,7,0,60,,,,,,,,,,,,,,,,,,,,
,,,,,60,2020-07-04_17h05.29.904,retriever_ti,2020.1.3,Win32,60,Chrome,1536,864,,,,,,,,,,,,,,,,,3,,,,,,,,,,,,,,,,,,,,,,,,,,,1441.40297,210,left,0.54476,peacock       ,5,5,4,1,3,1441.419635,1441.419635,1443.917855,0,55,55,55,1,210,5,1,peacock       ,wolf          ,html/resources/sequences_IDs/A/05_peacock.jpg,html/resources/sequences_IDs/A/01_wolf.jpg,5,1,2,1,1,1,4,1,0,60,,,,,,,,,,,,,,,,,,,,
,,,,,60,2020-07-04_17h05.29.904,retriever_ti,2020.1.3,Win32,60,Chrome,1536,864,,,,,,,,,,,,,,,,,3,,,,,,,,,,,,,,,,,,,,,,,,,,,1444.53502,211,right,1.0611,dolphin     ,2,2,-5,0,3,1444.551695,1444.551695,1447.049915,0,56,56,56,1,211,7,2,satellite_dish,dolphin     ,html/resources/sequences_IDs/A/10_satellite_dish.jpg,html/resources/sequences_IDs/B/02_dolphin.jpg,10,2,4,2,1,1,8,2,0,60,,,,,,,,,,,,,,,,,,,,
,,,,,60,2020-07-04_17h05.29.904,retriever_ti,2020.1.3,Win32,60,Chrome,1536,864,,,,,,,,,,,,,,,,,3,,,,,,,,,,,,,,,,,,,,,,,,,,,1447.66681,212,right,0.770295,slipper     ,8,8,1,1,1,1447.683215,1447.683215,1450.181985,0,57,57,57,1,212,7,8,satellite_dish,slipper     ,html/resources/sequences_IDs/A/10_satellite_dish.jpg,html/resources/sequences_IDs/B/08_slipper.jpg,10,8,4,2,3,2,8,7,0,60,,,,,,,,,,,,,,,,,,,,
,,,,,60,2020-07-04_17h05.29.904,retriever_ti,2020.1.3,Win32,60,Chrome,1536,864,,,,,,,,,,,,,,,,,3,,,,,,,,,,,,,,,,,,,,,,,,,,,1451.28242,213,right,1.07136,scarf         ,3,6,2,1,3,1451.315395,1451.315395,1453.813735,0,58,58,58,1,213,1,3,wolf          ,scarf         ,html/resources/sequences_IDs/A/01_wolf.jpg,html/resources/sequences_IDs/A/06_scarf.jpg,1,6,1,1,3,2,1,5,0,60,,,,,,,,,,,,,,,,,,,,
,,,,,60,2020-07-04_17h05.29.904,retriever_ti,2020.1.3,Win32,60,Chrome,1536,864,,,,,,,,,,,,,,,,,3,,,,,,,,,,,,,,,,,,,,,,,,,,,1454.43046,214,left,0.84491,satellite_dish,7,10,1,1,1,1454.464465,1454.464465,1456.962225,0,59,59,59,1,214,7,6,satellite_dish,holdfast    ,html/resources/sequences_IDs/A/10_satellite_dish.jpg,html/resources/sequences_IDs/B/04_holdfast.jpg,10,4,4,2,2,1,8,3,0,60,,,,,,,,,,,,,,,,,,,,
,,,,,60,2020-07-04_17h05.29.904,retriever_ti,2020.1.3,Win32,60,Chrome,1536,864,,,,,,,,,,,,,,,,,3,,,,,,,,,,,,,,,,,,,,,,,,,,,1458.062005,215,right,0.48236,satellite_dish,7,10,1,1,1,1458.07884,1458.07884,1460.57747,0,60,60,60,1,215,6,7,holdfast    ,satellite_dish,html/resources/sequences_IDs/B/04_holdfast.jpg,html/resources/sequences_IDs/A/10_satellite_dish.jpg,4,10,2,1,4,2,3,8,0,60,,,,,,,,,,,,,,,,,,,,
,,,,,60,2020-07-04_17h05.29.904,retriever_ti,2020.1.3,Win32,60,Chrome,1536,864,,,,,,,,,,,,,,,,,3,,,,,,,,,,,,,,,,,,,,,,,,,,,1461.677105,216,right,1.001825,sport_tshirt,4,7,3,1,3,1461.710595,1461.710595,1464.20912,0,61,61,61,1,216,1,4,wolf          ,sport_tshirt,html/resources/sequences_IDs/A/01_wolf.jpg,html/resources/sequences_IDs/B/07_sport_tshirt.jpg,1,7,1,1,3,2,1,6,0,60,,,,,,,,,,,,,,,,,,,,
,,,,,60,2020-07-04_17h05.29.904,retriever_ti,2020.1.3,Win32,60,Chrome,1536,864,,,,,,,,,,,,,,,,,3,,,,,,,,,,,,,,,,,,,,,,,,,,,1464.825835,217,left,0.932505,scarf         ,3,6,-3,0,3,1464.859365,1464.859365,1467.35774,0,62,62,62,1,217,3,6,scarf         ,holdfast    ,html/resources/sequences_IDs/A/06_scarf.jpg,html/resources/sequences_IDs/B/04_holdfast.jpg,6,4,3,2,2,1,5,3,0,60,,,,,,,,,,,,,,,,,,,,
,,,,,60,2020-07-04_17h05.29.904,retriever_ti,2020.1.3,Win32,60,Chrome,1536,864,,,,,,,,,,,,,,,,,3,,,,,,,,,,,,,,,,,,,,,,,,,,,1467.974705,218,left,1.135535,holdfast    ,6,4,3,1,3,1467.990915,1467.990915,1470.48937,0,63,63,63,1,218,6,3,holdfast    ,scarf         ,html/resources/sequences_IDs/B/04_holdfast.jpg,html/resources/sequences_IDs/A/06_scarf.jpg,4,6,2,1,3,2,3,5,0,60,,,,,,,,,,,,,,,,,,,,
,,,,,60,2020-07-04_17h05.29.904,retriever_ti,2020.1.3,Win32,60,Chrome,1536,864,,,,,,,,,,,,,,,,,3,,,,,,,,,,,,,,,,,,,,,,,,,,,1471.106125,219,right,0.865025,sport_tshirt,4,7,1,1,0,1471.123365,1471.123365,1473.621245,0,64,64,64,1,219,3,4,scarf         ,sport_tshirt,html/resources/sequences_IDs/A/06_scarf.jpg,html/resources/sequences_IDs/B/07_sport_tshirt.jpg,6,7,3,2,3,2,5,6,1,60,,,,,,,,,,,,,,,,,,,,
,,,,,60,2020-07-04_17h05.29.904,retriever_ti,2020.1.3,Win32,60,Chrome,1536,864,,,,,,,,,,,,,,,,,3,,,,,,,,,,,,,,,,,,,,,,,,,,,1474.721425,220,left,2.079545,sport_tshirt,4,7,-3,0,3,1474.738415,1474.738415,1477.236665,0,65,65,65,1,220,4,7,sport_tshirt,satellite_dish,html/resources/sequences_IDs/B/07_sport_tshirt.jpg,html/resources/sequences_IDs/A/10_satellite_dish.jpg,7,10,3,2,4,2,6,8,0,60,,,,,,,,,,,,,,,,,,,,
,,,,,60,2020-07-04_17h05.29.904,retriever_ti,2020.1.3,Win32,60,Chrome,1536,864,,,,,,,,,,,,,,,,,3,,,,,,,,,,,,,,,,,,,,,,,,,,,1477.853245,221,left,1.221785,dolphin     ,2,2,-1,0,0,1477.870145,1477.870145,1480.368585,0,66,66,66,1,221,2,3,dolphin     ,scarf         ,html/resources/sequences_IDs/B/02_dolphin.jpg,html/resources/sequences_IDs/A/06_scarf.jpg,2,6,1,1,3,2,2,5,0,60,,,,,,,,,,,,,,,,,,,,
