instructionsLoop.thisRepN,instructionsLoop.thisTrialN,instructionsLoop.thisN,instructionsLoop.thisIndex,instructionsLoop.ran,participant,date,expName,psychopyVersion,OS,frameRate,browser,xResolution,yResolution,fix_onset,tprac,practiceKey.keys,practiceKey.rt,pracitem_chosen_name,acc_practice,P1_onsetPrac,P2_onsetPrac,onsetFeedbPrac,practiceTrials.thisRepN,practiceTrials.thisTrialN,practiceTrials.thisN,practiceTrials.thisIndex,practiceTrials.ran,P1,P2,Block,LocItem1,LocItem2,NameItem1,NameItem2,key_respAC_prac.keys,key_respAC_prac.corr,key_respAC_prac.rt,AC_acc,Attentions.thisRepN,Attentions.thisTrialN,Attentions.thisN,Attentions.thisIndex,Attentions.ran,Stim,Loc1,Loc2,Loc3,Loc4,CorrAns,keyDisturbed.keys,keyDisturbed.rt,repPractice.thisRepN,repPractice.thisTrialN,repPractice.thisN,repPractice.thisIndex,repPractice.ran,fixcross_onsetMain,trialNumber,key_resp.keys,item_chosen_name,item_chosen_value,item_chosen_ID,diff_chosen_minus_reject,key_resp.rt,acc_real,acc_feedback,P1_onset,P2_onset,feedb_onset,trials.thisRepN,trials.thisTrialN,trials.thisN,trials.thisIndex,trials.ran,Trial,ValueP1,ValueP2,P1name,P2name,P1Loc,P2Loc,P1id,P2id,Micro_categoryP1,Macro_categoryP1,Micro_categoryP2,Macro_categoryP2,ID_sequenceP1,ID_sequenceP2,InverseFb,pNumber,repBlocks.thisRepN,repBlocks.thisTrialN,repBlocks.thisN,repBlocks.thisIndex,repBlocks.ran,key_respAC.keys,key_respAC.corr,key_respAC.rt,trials_AC.thisRepN,trials_AC.thisTrialN,trials_AC.thisN,trials_AC.thisIndex,trials_AC.ran,Bonus,BonusLoop.thisRepN,BonusLoop.thisTrialN,BonusLoop.thisN,BonusLoop.thisIndex,BonusLoop.ran,comments
0,0,0,0,1,61,2020-07-04_17h33.16.335,retriever_ti,2020.1.3,Win32,60,Chrome,1366,768,,,,,,,,,,,,,,,,,,,,,,,,,,,,,,,,,,,,,,,,,,,,,,,,,,,,,,,,,,,,,,,,,,,,,,,,,,,,,,,,,,,,,,,,,,,,,,,,,,
1,0,1,0,1,61,2020-07-04_17h33.16.335,retriever_ti,2020.1.3,Win32,60,Chrome,1366,768,,,,,,,,,,,,,,,,,,,,,,,,,,,,,,,,,,,,,,,,,,,,,,,,,,,,,,,,,,,,,,,,,,,,,,,,,,,,,,,,,,,,,,,,,,,,,,,,,,
2,0,2,0,1,61,2020-07-04_17h33.16.335,retriever_ti,2020.1.3,Win32,60,Chrome,1366,768,,,,,,,,,,,,,,,,,,,,,,,,,,,,,,,,,,,,,,,,,,,,,,,,,,,,,,,,,,,,,,,,,,,,,,,,,,,,,,,,,,,,,,,,,,,,,,,,,,
3,0,3,0,1,61,2020-07-04_17h33.16.335,retriever_ti,2020.1.3,Win32,60,Chrome,1366,768,,,,,,,,,,,,,,,,,,,,,,,,,,,,,,,,,,,,,,,,,,,,,,,,,,,,,,,,,,,,,,,,,,,,,,,,,,,,,,,,,,,,,,,,,,,,,,,,,,
4,0,4,0,1,61,2020-07-04_17h33.16.335,retriever_ti,2020.1.3,Win32,60,Chrome,1366,768,,,,,,,,,,,,,,,,,,,,,,,,,,,,,,,,,,,,,,,,,,,,,,,,,,,,,,,,,,,,,,,,,,,,,,,,,,,,,,,,,,,,,,,,,,,,,,,,,,
5,0,5,0,1,61,2020-07-04_17h33.16.335,retriever_ti,2020.1.3,Win32,60,Chrome,1366,768,,,,,,,,,,,,,,,,,,,,,,,,,,,,,,,,,,,,,,,,,,,,,,,,,,,,,,,,,,,,,,,,,,,,,,,,,,,,,,,,,,,,,,,,,,,,,,,,,,
6,0,6,0,1,61,2020-07-04_17h33.16.335,retriever_ti,2020.1.3,Win32,60,Chrome,1366,768,,,,,,,,,,,,,,,,,,,,,,,,,,,,,,,,,,,,,,,,,,,,,,,,,,,,,,,,,,,,,,,,,,,,,,,,,,,,,,,,,,,,,,,,,,,,,,,,,,
7,0,7,0,1,61,2020-07-04_17h33.16.335,retriever_ti,2020.1.3,Win32,60,Chrome,1366,768,,,,,,,,,,,,,,,,,,,,,,,,,,,,,,,,,,,,,,,,,,,,,,,,,,,,,,,,,,,,,,,,,,,,,,,,,,,,,,,,,,,,,,,,,,,,,,,,,,
8,0,8,0,1,61,2020-07-04_17h33.16.335,retriever_ti,2020.1.3,Win32,60,Chrome,1366,768,,,,,,,,,,,,,,,,,,,,,,,,,,,,,,,,,,,,,,,,,,,,,,,,,,,,,,,,,,,,,,,,,,,,,,,,,,,,,,,,,,,,,,,,,,,,,,,,,,
9,0,9,0,1,61,2020-07-04_17h33.16.335,retriever_ti,2020.1.3,Win32,60,Chrome,1366,768,,,,,,,,,,,,,,,,,,,,,,,,,,,,,,,,,,,,,,,,,,,,,,,,,,,,,,,,,,,,,,,,,,,,,,,,,,,,,,,,,,,,,,,,,,,,,,,,,,
10,0,10,0,1,61,2020-07-04_17h33.16.335,retriever_ti,2020.1.3,Win32,60,Chrome,1366,768,,,,,,,,,,,,,,,,,,,,,,,,,,,,,,,,,,,,,,,,,,,,,,,,,,,,,,,,,,,,,,,,,,,,,,,,,,,,,,,,,,,,,,,,,,,,,,,,,,
11,0,11,0,1,61,2020-07-04_17h33.16.335,retriever_ti,2020.1.3,Win32,60,Chrome,1366,768,,,,,,,,,,,,,,,,,,,,,,,,,,,,,,,,,,,,,,,,,,,,,,,,,,,,,,,,,,,,,,,,,,,,,,,,,,,,,,,,,,,,,,,,,,,,,,,,,,
12,0,12,0,1,61,2020-07-04_17h33.16.335,retriever_ti,2020.1.3,Win32,60,Chrome,1366,768,,,,,,,,,,,,,,,,,,,,,,,,,,,,,,,,,,,,,,,,,,,,,,,,,,,,,,,,,,,,,,,,,,,,,,,,,,,,,,,,,,,,,,,,,,,,,,,,,,
13,0,13,0,1,61,2020-07-04_17h33.16.335,retriever_ti,2020.1.3,Win32,60,Chrome,1366,768,,,,,,,,,,,,,,,,,,,,,,,,,,,,,,,,,,,,,,,,,,,,,,,,,,,,,,,,,,,,,,,,,,,,,,,,,,,,,,,,,,,,,,,,,,,,,,,,,,
14,0,14,0,1,61,2020-07-04_17h33.16.335,retriever_ti,2020.1.3,Win32,60,Chrome,1366,768,,,,,,,,,,,,,,,,,,,,,,,,,,,,,,,,,,,,,,,,,,,,,,,,,,,,,,,,,,,,,,,,,,,,,,,,,,,,,,,,,,,,,,,,,,,,,,,,,,
,,,,,61,2020-07-04_17h33.16.335,retriever_ti,2020.1.3,Win32,60,Chrome,1366,768,8.1404,1,right,0.90426,canary,1,8.2103,8.2103,10.7117,0,0,0,0,1,2,5,1,html/resources/stimuli_practice_decision/04_beetle.jpg,html/resources/stimuli_practice_decision/02_canary.jpg,beetle,canary,,,,,,,,,,,,,,,,,,,,,,,,,,,,,,,,,,,,,,,,,,,,,,,,,,,,,,,,,,,,,,,,,,,,,,,,,,,,,
,,,,,61,2020-07-04_17h33.16.335,retriever_ti,2020.1.3,Win32,60,Chrome,1366,768,11.43596,2,left,0.659475,rabbit,1,11.45818,11.45818,13.9456,0,1,1,1,1,4,3,1,html/resources/stimuli_practice_decision/01_rabbit.jpg,html/resources/stimuli_practice_decision/07_sock.jpg,rabbit,sock,,,,,,,,,,,,,,,,,,,,,,,,,,,,,,,,,,,,,,,,,,,,,,,,,,,,,,,,,,,,,,,,,,,,,,,,,,,,,
,,,,,61,2020-07-04_17h33.16.335,retriever_ti,2020.1.3,Win32,60,Chrome,1366,768,14.948565,3,left,0.829285,pullover,1,14.96642,14.96642,17.459975,0,2,2,2,1,6,2,1,html/resources/stimuli_practice_decision/06_pullover.jpg,html/resources/stimuli_practice_decision/04_beetle.jpg,pullover,beetle,,,,,,,,,,,,,,,,,,,,,,,,,,,,,,,,,,,,,,,,,,,,,,,,,,,,,,,,,,,,,,,,,,,,,,,,,,,,,
,,,,,61,2020-07-04_17h33.16.335,retriever_ti,2020.1.3,Win32,60,Chrome,1366,768,17.96529,4,right,0.910875,handmixer,0,17.9894,17.9894,20.47372,0,3,3,3,1,7,1,1,html/resources/stimuli_practice_decision/05_glasses.jpg,html/resources/stimuli_practice_decision/08_handmixer.jpg,glasses,handmixer,,,,,,,,,,,,,,,,,,,,,,,,,,,,,,,,,,,,,,,,,,,,,,,,,,,,,,,,,,,,,,,,,,,,,,,,,,,,,
,,,,,61,2020-07-04_17h33.16.335,retriever_ti,2020.1.3,Win32,60,Chrome,1366,768,20.98342,5,right,1.02171,pullover,0,21.020165,21.020165,23.511175,0,4,4,4,1,7,6,1,html/resources/stimuli_practice_decision/05_glasses.jpg,html/resources/stimuli_practice_decision/06_pullover.jpg,glasses,pullover,,,,,,,,,,,,,,,,,,,,,,,,,,,,,,,,,,,,,,,,,,,,,,,,,,,,,,,,,,,,,,,,,,,,,,,,,,,,,
,,,,,61,2020-07-04_17h33.16.335,retriever_ti,2020.1.3,Win32,60,Chrome,1366,768,24.51647,6,right,0.704565,glasses,1,24.54761,24.54761,27.04538,0,5,5,5,1,4,7,1,html/resources/stimuli_practice_decision/01_rabbit.jpg,html/resources/stimuli_practice_decision/05_glasses.jpg,rabbit,glasses,,,,,,,,,,,,,,,,,,,,,,,,,,,,,,,,,,,,,,,,,,,,,,,,,,,,,,,,,,,,,,,,,,,,,,,,,,,,,
,,,,,61,2020-07-04_17h33.16.335,retriever_ti,2020.1.3,Win32,60,Chrome,1366,768,27.564355,7,left,0.765415,handmixer,0,27.599025,27.599025,30.083935,0,6,6,6,1,1,2,1,html/resources/stimuli_practice_decision/08_handmixer.jpg,html/resources/stimuli_practice_decision/04_beetle.jpg,handmixer,beetle,,,,,,,,,,,,,,,,,,,,,,,,,,,,,,,,,,,,,,,,,,,,,,,,,,,,,,,,,,,,,,,,,,,,,,,,,,,,,
,,,,,61,2020-07-04_17h33.16.335,retriever_ti,2020.1.3,Win32,60,Chrome,1366,768,31.080745,8,left,0.771775,rabbit,1,31.102785,31.102785,33.603485,0,7,7,7,1,4,3,1,html/resources/stimuli_practice_decision/01_rabbit.jpg,html/resources/stimuli_practice_decision/07_sock.jpg,rabbit,sock,,,,,,,,,,,,,,,,,,,,,,,,,,,,,,,,,,,,,,,,,,,,,,,,,,,,,,,,,,,,,,,,,,,,,,,,,,,,,
,,,,,61,2020-07-04_17h33.16.335,retriever_ti,2020.1.3,Win32,60,Chrome,1366,768,,,,,,,,,,,,,,,,,,,,,,down,1,1.96698,1,0,0,0,3,1,html/resources/sequences_IDs/triangle.png,star ↑,square →,triangle ↓,← circle,down,,,,,,,,,,,,,,,,,,,,,,,,,,,,,,,,,,,,,,,,,,,,,,,,,,,,,,,,,,,,,,
,,,,,61,2020-07-04_17h33.16.335,retriever_ti,2020.1.3,Win32,60,Chrome,1366,768,,,,,,,,,,,,,,,,,,,,,,left,1,0.952855,1,0,1,1,2,1,html/resources/sequences_IDs/square1.png,star ↑,triangle →,circle ↓,← square,left,,,,,,,,,,,,,,,,,,,,,,,,,,,,,,,,,,,,,,,,,,,,,,,,,,,,,,,,,,,,,,
,,,,,61,2020-07-04_17h33.16.335,retriever_ti,2020.1.3,Win32,60,Chrome,1366,768,,,,,,,,,,,,,,,,,,,,,,up,1,0.881815,1,0,2,2,0,1,html/resources/sequences_IDs/circle.png,circle ↑,square →,triangle ↓,← star ,up,,,,,,,,,,,,,,,,,,,,,,,,,,,,,,,,,,,,,,,,,,,,,,,,,,,,,,,,,,,,,,
,,,,,61,2020-07-04_17h33.16.335,retriever_ti,2020.1.3,Win32,60,Chrome,1366,768,,,,,,,,,,,,,,,,,,,,,,down,1,1.108035,1,0,3,3,1,1,html/resources/sequences_IDs/star.png,square ↑,circle →,star ↓,← triangle,down,,,,,,,,,,,,,,,,,,,,,,,,,,,,,,,,,,,,,,,,,,,,,,,,,,,,,,,,,,,,,,
,,,,,61,2020-07-04_17h33.16.335,retriever_ti,2020.1.3,Win32,60,Chrome,1366,768,,,,,,,,,,,,,,,,,,,,,,,,,,,,,,,,,,,,,0,2.90026,0,0,0,0,1,,,,,,,,,,,,,,,,,,,,,,,,,,,,,,,,,,,,,,,,,,,,,,,,,,,,,,,
,,,,,61,2020-07-04_17h33.16.335,retriever_ti,2020.1.3,Win32,60,Chrome,1366,768,43.866655,9,left,0.96014,pullover,0,43.88513,43.88513,46.382155,0,0,0,0,1,6,7,1,html/resources/stimuli_practice_decision/06_pullover.jpg,html/resources/stimuli_practice_decision/05_glasses.jpg,pullover,glasses,,,,,,,,,,,,,,,,,,,,,,,,,,,,,,,,,,,,,,,,,,,,,,,,,,,,,,,,,,,,,,,,,,,,,,,,,,,,,
,,,,,61,2020-07-04_17h33.16.335,retriever_ti,2020.1.3,Win32,60,Chrome,1366,768,47.38391,10,left,0.616115,pullover,1,47.417635,47.417635,49.908415,0,1,1,1,1,6,2,1,html/resources/stimuli_practice_decision/06_pullover.jpg,html/resources/stimuli_practice_decision/04_beetle.jpg,pullover,beetle,,,,,,,,,,,,,,,,,,,,,,,,,,,,,,,,,,,,,,,,,,,,,,,,,,,,,,,,,,,,,,,,,,,,,,,,,,,,,
,,,,,61,2020-07-04_17h33.16.335,retriever_ti,2020.1.3,Win32,60,Chrome,1366,768,50.421215,11,left,0.750945,canary,0,50.46711,50.46711,52.958205,0,2,2,2,1,5,6,1,html/resources/stimuli_practice_decision/02_canary.jpg,html/resources/stimuli_practice_decision/06_pullover.jpg,canary,pullover,,,,,,,,,,,,,,,,,,,,,,,,,,,,,,,,,,,,,,,,,,,,,,,,,,,,,,,,,,,,,,,,,,,,,,,,,,,,,
,,,,,61,2020-07-04_17h33.16.335,retriever_ti,2020.1.3,Win32,60,Chrome,1366,768,53.9556,12,left,1.16386,squirrel,1,53.99972,53.99972,56.49608,0,3,3,3,1,8,7,1,html/resources/stimuli_practice_decision/03_squirrel.jpg,html/resources/stimuli_practice_decision/05_glasses.jpg,squirrel,glasses,,,,,,,,,,,,,,,,,,,,,,,,,,,,,,,,,,,,,,,,,,,,,,,,,,,,,,,,,,,,,,,,,,,,,,,,,,,,,
,,,,,61,2020-07-04_17h33.16.335,retriever_ti,2020.1.3,Win32,60,Chrome,1366,768,57.487565,13,left,0.727755,canary,1,57.525555,57.525555,60.00739,0,4,4,4,1,5,3,1,html/resources/stimuli_practice_decision/02_canary.jpg,html/resources/stimuli_practice_decision/07_sock.jpg,canary,sock,,,,,,,,,,,,,,,,,,,,,,,,,,,,,,,,,,,,,,,,,,,,,,,,,,,,,,,,,,,,,,,,,,,,,,,,,,,,,
,,,,,61,2020-07-04_17h33.16.335,retriever_ti,2020.1.3,Win32,60,Chrome,1366,768,60.52068,14,right,1.23473,squirrel,1,60.54207,60.54207,63.065325,0,5,5,5,1,7,8,1,html/resources/stimuli_practice_decision/05_glasses.jpg,html/resources/stimuli_practice_decision/03_squirrel.jpg,glasses,squirrel,,,,,,,,,,,,,,,,,,,,,,,,,,,,,,,,,,,,,,,,,,,,,,,,,,,,,,,,,,,,,,,,,,,,,,,,,,,,,
,,,,,61,2020-07-04_17h33.16.335,retriever_ti,2020.1.3,Win32,60,Chrome,1366,768,64.07153,15,left,1.012935,canary,1,64.125815,64.125815,66.604925,0,6,6,6,1,5,4,1,html/resources/stimuli_practice_decision/02_canary.jpg,html/resources/stimuli_practice_decision/01_rabbit.jpg,canary,rabbit,,,,,,,,,,,,,,,,,,,,,,,,,,,,,,,,,,,,,,,,,,,,,,,,,,,,,,,,,,,,,,,,,,,,,,,,,,,,,
,,,,,61,2020-07-04_17h33.16.335,retriever_ti,2020.1.3,Win32,60,Chrome,1366,768,67.60497,16,left,0.557265,canary,1,67.62288,67.62288,70.112085,0,7,7,7,1,5,3,1,html/resources/stimuli_practice_decision/02_canary.jpg,html/resources/stimuli_practice_decision/07_sock.jpg,canary,sock,,,,,,,,,,,,,,,,,,,,,,,,,,,,,,,,,,,,,,,,,,,,,,,,,,,,,,,,,,,,,,,,,,,,,,,,,,,,,
,,,,,61,2020-07-04_17h33.16.335,retriever_ti,2020.1.3,Win32,60,Chrome,1366,768,,,,,,,,,,,,,,,,,,,,,,down,1,1.556195,1,0,0,0,1,1,html/resources/sequences_IDs/star.png,square ↑,circle →,star ↓,← triangle,down,,,,,,,,,,,,,,,,,,,,,,,,,,,,,,,,,,,,,,,,,,,,,,,,,,,,,,,,,,,,,,
,,,,,61,2020-07-04_17h33.16.335,retriever_ti,2020.1.3,Win32,60,Chrome,1366,768,,,,,,,,,,,,,,,,,,,,,,up,1,1.097165,1,0,1,1,0,1,html/resources/sequences_IDs/circle.png,circle ↑,square →,triangle ↓,← star ,up,,,,,,,,,,,,,,,,,,,,,,,,,,,,,,,,,,,,,,,,,,,,,,,,,,,,,,,,,,,,,,
,,,,,61,2020-07-04_17h33.16.335,retriever_ti,2020.1.3,Win32,60,Chrome,1366,768,,,,,,,,,,,,,,,,,,,,,,down,1,1.23018,1,0,2,2,3,1,html/resources/sequences_IDs/triangle.png,star ↑,square →,triangle ↓,← circle,down,,,,,,,,,,,,,,,,,,,,,,,,,,,,,,,,,,,,,,,,,,,,,,,,,,,,,,,,,,,,,,
,,,,,61,2020-07-04_17h33.16.335,retriever_ti,2020.1.3,Win32,60,Chrome,1366,768,,,,,,,,,,,,,,,,,,,,,,left,1,1.18108,1,0,3,3,2,1,html/resources/sequences_IDs/square1.png,star ↑,triangle →,circle ↓,← square,left,,,,,,,,,,,,,,,,,,,,,,,,,,,,,,,,,,,,,,,,,,,,,,,,,,,,,,,,,,,,,,
,,,,,61,2020-07-04_17h33.16.335,retriever_ti,2020.1.3,Win32,60,Chrome,1366,768,,,,,,,,,,,,,,,,,,,,,,,,,,,,,,,,,,,,,0,1.504855,1,0,1,0,1,,,,,,,,,,,,,,,,,,,,,,,,,,,,,,,,,,,,,,,,,,,,,,,,,,,,,,,
,,,,,61,2020-07-04_17h33.16.335,retriever_ti,2020.1.3,Win32,60,Chrome,1366,768,,,,,,,,,,,,,,,,,1,,,,,,,,,,,,,,,,,,,,,,,,,,,80.32416,1,NaN,No_response,NaN,NaN,NaN,NaN,2,2,80.577835,80.577835,83.0894,0,0,0,0,1,1,8,5,clownfish     ,giraffe     ,html/resources/sequences_IDs/A/04_clownfish.jpg,html/resources/sequences_IDs/B/03_giraffe.jpg,4,3,2,1,1,1,3,2,0,61,,,,,,,,,,,,,,,,,,,,
,,,,,61,2020-07-04_17h33.16.335,retriever_ti,2020.1.3,Win32,60,Chrome,1366,768,,,,,,,,,,,,,,,,,1,,,,,,,,,,,,,,,,,,,,,,,,,,,84.17735,2,left,peacock       ,2,5,1,0.65647,1,1,84.18835,84.18835,86.67365,0,1,1,1,1,2,2,1,peacock       ,radio       ,html/resources/sequences_IDs/A/05_peacock.jpg,html/resources/sequences_IDs/B/10_radio.jpg,5,10,2,1,4,2,4,8,0,61,,,,,,,,,,,,,,,,,,,,
,,,,,61,2020-07-04_17h33.16.335,retriever_ti,2020.1.3,Win32,60,Chrome,1366,768,,,,,,,,,,,,,,,,,1,,,,,,,,,,,,,,,,,,,,,,,,,,,87.77318,3,left,giraffe     ,5,3,-2,0.57181,0,3,87.79538,87.79538,90.298975,0,2,2,2,1,3,5,7,giraffe     ,sport_tshirt,html/resources/sequences_IDs/B/03_giraffe.jpg,html/resources/sequences_IDs/B/07_sport_tshirt.jpg,3,7,1,1,3,2,2,5,0,61,,,,,,,,,,,,,,,,,,,,
,,,,,61,2020-07-04_17h33.16.335,retriever_ti,2020.1.3,Win32,60,Chrome,1366,768,,,,,,,,,,,,,,,,,1,,,,,,,,,,,,,,,,,,,,,,,,,,,90.91559,4,left,giraffe     ,5,3,1,0.471555,1,1,90.93333,90.93333,93.43905,0,3,3,3,1,4,5,4,giraffe     ,seaturtle     ,html/resources/sequences_IDs/B/03_giraffe.jpg,html/resources/sequences_IDs/A/02_seaturtle.jpg,3,2,1,1,2,1,2,1,0,61,,,,,,,,,,,,,,,,,,,,
,,,,,61,2020-07-04_17h33.16.335,retriever_ti,2020.1.3,Win32,60,Chrome,1366,768,,,,,,,,,,,,,,,,,1,,,,,,,,,,,,,,,,,,,,,,,,,,,94.530315,5,left,peacock       ,2,5,-4,0.58805,0,3,94.558525,94.558525,97.039385,0,4,4,4,1,5,2,6,peacock       ,hat           ,html/resources/sequences_IDs/A/05_peacock.jpg,html/resources/sequences_IDs/A/08_hat.jpg,5,8,2,1,3,2,4,6,0,61,,,,,,,,,,,,,,,,,,,,
,,,,,61,2020-07-04_17h33.16.335,retriever_ti,2020.1.3,Win32,60,Chrome,1366,768,,,,,,,,,,,,,,,,,1,,,,,,,,,,,,,,,,,,,,,,,,,,,97.648955,6,left,seaturtle     ,4,2,-3,0.78016,0,3,97.67765,97.67765,100.164575,0,5,5,5,1,6,4,7,seaturtle     ,sport_tshirt,html/resources/sequences_IDs/A/02_seaturtle.jpg,html/resources/sequences_IDs/B/07_sport_tshirt.jpg,2,7,2,1,3,2,1,5,0,61,,,,,,,,,,,,,,,,,,,,
,,,,,61,2020-07-04_17h33.16.335,retriever_ti,2020.1.3,Win32,60,Chrome,1366,768,,,,,,,,,,,,,,,,,1,,,,,,,,,,,,,,,,,,,,,,,,,,,100.77847,7,right,giraffe     ,5,3,-2,0.662375,0,3,100.81644,100.81644,103.36528,0,6,6,6,1,7,7,5,sport_tshirt,giraffe     ,html/resources/sequences_IDs/B/07_sport_tshirt.jpg,html/resources/sequences_IDs/B/03_giraffe.jpg,7,3,3,2,1,1,5,2,0,61,,,,,,,,,,,,,,,,,,,,
,,,,,61,2020-07-04_17h33.16.335,retriever_ti,2020.1.3,Win32,60,Chrome,1366,768,,,,,,,,,,,,,,,,,1,,,,,,,,,,,,,,,,,,,,,,,,,,,103.98345,8,left,seaturtle     ,4,2,3,0.54462,1,3,104.01947,104.01947,106.510425,0,7,7,7,1,8,4,1,seaturtle     ,radio       ,html/resources/sequences_IDs/A/02_seaturtle.jpg,html/resources/sequences_IDs/B/10_radio.jpg,2,10,2,1,4,2,1,8,0,61,,,,,,,,,,,,,,,,,,,,
,,,,,61,2020-07-04_17h33.16.335,retriever_ti,2020.1.3,Win32,60,Chrome,1366,768,,,,,,,,,,,,,,,,,1,,,,,,,,,,,,,,,,,,,,,,,,,,,107.12018,9,left,peacock       ,2,5,-1,0.710965,0,0,107.137975,107.137975,109.627435,0,8,8,8,1,9,2,3,peacock       ,phone       ,html/resources/sequences_IDs/A/05_peacock.jpg,html/resources/sequences_IDs/B/09_phone.jpg,5,9,2,1,4,2,4,7,0,61,,,,,,,,,,,,,,,,,,,,
,,,,,61,2020-07-04_17h33.16.335,retriever_ti,2020.1.3,Win32,60,Chrome,1366,768,,,,,,,,,,,,,,,,,1,,,,,,,,,,,,,,,,,,,,,,,,,,,110.728735,10,right,giraffe     ,5,3,4,0.66274,1,3,110.74739,110.74739,113.243195,0,9,9,9,1,10,1,5,radio       ,giraffe     ,html/resources/sequences_IDs/B/10_radio.jpg,html/resources/sequences_IDs/B/03_giraffe.jpg,10,3,4,2,1,1,8,2,0,61,,,,,,,,,,,,,,,,,,,,
,,,,,61,2020-07-04_17h33.16.335,retriever_ti,2020.1.3,Win32,60,Chrome,1366,768,,,,,,,,,,,,,,,,,1,,,,,,,,,,,,,,,,,,,,,,,,,,,113.854515,11,left,clownfish     ,8,4,2,0.530975,1,3,113.875945,113.875945,116.36223,0,10,10,10,1,11,8,6,clownfish     ,hat           ,html/resources/sequences_IDs/A/04_clownfish.jpg,html/resources/sequences_IDs/A/08_hat.jpg,4,8,2,1,3,2,3,6,0,61,,,,,,,,,,,,,,,,,,,,
,,,,,61,2020-07-04_17h33.16.335,retriever_ti,2020.1.3,Win32,60,Chrome,1366,768,,,,,,,,,,,,,,,,,1,,,,,,,,,,,,,,,,,,,,,,,,,,,116.965715,12,left,giraffe     ,5,3,2,0.488025,1,3,117.003105,117.003105,119.49623,0,11,11,11,1,12,5,3,giraffe     ,phone       ,html/resources/sequences_IDs/B/03_giraffe.jpg,html/resources/sequences_IDs/B/09_phone.jpg,3,9,1,1,4,2,2,7,0,61,,,,,,,,,,,,,,,,,,,,
,,,,,61,2020-07-04_17h33.16.335,retriever_ti,2020.1.3,Win32,60,Chrome,1366,768,,,,,,,,,,,,,,,,,1,,,,,,,,,,,,,,,,,,,,,,,,,,,120.098535,13,right,giraffe     ,5,3,1,0.74395,1,1,120.115945,120.115945,122.6135,0,12,12,12,1,13,4,5,seaturtle     ,giraffe     ,html/resources/sequences_IDs/A/02_seaturtle.jpg,html/resources/sequences_IDs/B/03_giraffe.jpg,2,3,2,1,1,1,1,2,0,61,,,,,,,,,,,,,,,,,,,,
,,,,,61,2020-07-04_17h33.16.335,retriever_ti,2020.1.3,Win32,60,Chrome,1366,768,,,,,,,,,,,,,,,,,1,,,,,,,,,,,,,,,,,,,,,,,,,,,123.705575,14,left,giraffe     ,5,3,4,0.593425,1,3,123.73975,123.73975,126.236145,0,13,13,13,1,14,5,1,giraffe     ,radio       ,html/resources/sequences_IDs/B/03_giraffe.jpg,html/resources/sequences_IDs/B/10_radio.jpg,3,10,1,1,4,2,2,8,0,61,,,,,,,,,,,,,,,,,,,,
,,,,,61,2020-07-04_17h33.16.335,retriever_ti,2020.1.3,Win32,60,Chrome,1366,768,,,,,,,,,,,,,,,,,1,,,,,,,,,,,,,,,,,,,,,,,,,,,126.856115,15,left,peacock       ,2,5,-5,0.51674,0,3,126.872975,126.872975,129.369525,0,14,14,14,1,15,2,7,peacock       ,sport_tshirt,html/resources/sequences_IDs/A/05_peacock.jpg,html/resources/sequences_IDs/B/07_sport_tshirt.jpg,5,7,2,1,3,2,4,5,0,61,,,,,,,,,,,,,,,,,,,,
,,,,,61,2020-07-04_17h33.16.335,retriever_ti,2020.1.3,Win32,60,Chrome,1366,768,,,,,,,,,,,,,,,,,1,,,,,,,,,,,,,,,,,,,,,,,,,,,129.98381,16,left,clownfish     ,8,4,7,0.59367,1,3,130.009935,130.009935,132.503465,0,15,15,15,1,16,8,1,clownfish     ,radio       ,html/resources/sequences_IDs/A/04_clownfish.jpg,html/resources/sequences_IDs/B/10_radio.jpg,4,10,2,1,4,2,3,8,0,61,,,,,,,,,,,,,,,,,,,,
,,,,,61,2020-07-04_17h33.16.335,retriever_ti,2020.1.3,Win32,60,Chrome,1366,768,,,,,,,,,,,,,,,,,1,,,,,,,,,,,,,,,,,,,,,,,,,,,133.11815,17,left,giraffe     ,5,3,-1,0.534105,0,0,133.163665,133.163665,135.75544,0,16,16,16,1,17,5,6,giraffe     ,hat           ,html/resources/sequences_IDs/B/03_giraffe.jpg,html/resources/sequences_IDs/A/08_hat.jpg,3,8,1,1,3,2,2,6,0,61,,,,,,,,,,,,,,,,,,,,
,,,,,61,2020-07-04_17h33.16.335,retriever_ti,2020.1.3,Win32,60,Chrome,1366,768,,,,,,,,,,,,,,,,,1,,,,,,,,,,,,,,,,,,,,,,,,,,,136.85144,18,left,peacock       ,2,5,-2,1.1076,0,3,136.88929,136.88929,139.393455,0,17,17,17,1,18,2,4,peacock       ,seaturtle     ,html/resources/sequences_IDs/A/05_peacock.jpg,html/resources/sequences_IDs/A/02_seaturtle.jpg,5,2,2,1,2,1,4,1,0,61,,,,,,,,,,,,,,,,,,,,
,,,,,61,2020-07-04_17h33.16.335,retriever_ti,2020.1.3,Win32,60,Chrome,1366,768,,,,,,,,,,,,,,,,,1,,,,,,,,,,,,,,,,,,,,,,,,,,,140.00673,19,right,peacock       ,2,5,-1,0.654715,0,1,140.02501,140.02501,142.52422,0,18,18,18,1,19,3,2,phone       ,peacock       ,html/resources/sequences_IDs/B/09_phone.jpg,html/resources/sequences_IDs/A/05_peacock.jpg,9,5,4,2,2,1,7,4,1,61,,,,,,,,,,,,,,,,,,,,
,,,,,61,2020-07-04_17h33.16.335,retriever_ti,2020.1.3,Win32,60,Chrome,1366,768,,,,,,,,,,,,,,,,,1,,,,,,,,,,,,,,,,,,,,,,,,,,,143.6209,20,left,hat           ,6,8,3,0.989785,1,3,143.64617,143.64617,146.13499,0,19,19,19,1,20,6,3,hat           ,phone       ,html/resources/sequences_IDs/A/08_hat.jpg,html/resources/sequences_IDs/B/09_phone.jpg,8,9,3,2,4,2,6,7,0,61,,,,,,,,,,,,,,,,,,,,
,,,,,61,2020-07-04_17h33.16.335,retriever_ti,2020.1.3,Win32,60,Chrome,1366,768,,,,,,,,,,,,,,,,,1,,,,,,,,,,,,,,,,,,,,,,,,,,,146.75359,21,right,hat           ,6,8,-1,0.74255,0,0,146.788685,146.788685,149.27363,0,20,20,20,1,21,7,6,sport_tshirt,hat           ,html/resources/sequences_IDs/B/07_sport_tshirt.jpg,html/resources/sequences_IDs/A/08_hat.jpg,7,8,3,2,3,2,5,6,0,61,,,,,,,,,,,,,,,,,,,,
,,,,,61,2020-07-04_17h33.16.335,retriever_ti,2020.1.3,Win32,60,Chrome,1366,768,,,,,,,,,,,,,,,,,1,,,,,,,,,,,,,,,,,,,,,,,,,,,150.38188,22,right,seaturtle     ,4,2,1,0.831665,1,1,150.41442,150.41442,152.902655,0,21,21,21,1,22,3,4,phone       ,seaturtle     ,html/resources/sequences_IDs/B/09_phone.jpg,html/resources/sequences_IDs/A/02_seaturtle.jpg,9,2,4,2,2,1,7,1,0,61,,,,,,,,,,,,,,,,,,,,
,,,,,61,2020-07-04_17h33.16.335,retriever_ti,2020.1.3,Win32,60,Chrome,1366,768,,,,,,,,,,,,,,,,,1,,,,,,,,,,,,,,,,,,,,,,,,,,,154.001655,23,left,sport_tshirt,7,7,-1,0.596715,0,0,154.01891,154.01891,156.5117,0,22,22,22,1,23,7,8,sport_tshirt,clownfish     ,html/resources/sequences_IDs/B/07_sport_tshirt.jpg,html/resources/sequences_IDs/A/04_clownfish.jpg,7,4,3,2,2,1,5,3,0,61,,,,,,,,,,,,,,,,,,,,
,,,,,61,2020-07-04_17h33.16.335,retriever_ti,2020.1.3,Win32,60,Chrome,1366,768,,,,,,,,,,,,,,,,,1,,,,,,,,,,,,,,,,,,,,,,,,,,,157.604875,24,left,peacock       ,2,5,-1,0.672365,0,0,157.626495,157.626495,160.121145,0,23,23,23,1,24,2,3,peacock       ,phone       ,html/resources/sequences_IDs/A/05_peacock.jpg,html/resources/sequences_IDs/B/09_phone.jpg,5,9,2,1,4,2,4,7,0,61,,,,,,,,,,,,,,,,,,,,
,,,,,61,2020-07-04_17h33.16.335,retriever_ti,2020.1.3,Win32,60,Chrome,1366,768,,,,,,,,,,,,,,,,,1,,,,,,,,,,,,,,,,,,,,,,,,,,,161.2292,25,right,phone       ,3,9,2,0.631045,1,3,161.27443,161.27443,163.77117,0,24,24,24,1,25,1,3,radio       ,phone       ,html/resources/sequences_IDs/B/10_radio.jpg,html/resources/sequences_IDs/B/09_phone.jpg,10,9,4,2,4,2,8,7,0,61,,,,,,,,,,,,,,,,,,,,
,,,,,61,2020-07-04_17h33.16.335,retriever_ti,2020.1.3,Win32,60,Chrome,1366,768,,,,,,,,,,,,,,,,,1,,,,,,,,,,,,,,,,,,,,,,,,,,,164.372695,26,right,peacock       ,2,5,-5,0.81501,0,3,164.4082,164.4082,166.90512,0,25,25,25,1,26,7,2,sport_tshirt,peacock       ,html/resources/sequences_IDs/B/07_sport_tshirt.jpg,html/resources/sequences_IDs/A/05_peacock.jpg,7,5,3,2,2,1,5,4,0,61,,,,,,,,,,,,,,,,,,,,
,,,,,61,2020-07-04_17h33.16.335,retriever_ti,2020.1.3,Win32,60,Chrome,1366,768,,,,,,,,,,,,,,,,,1,,,,,,,,,,,,,,,,,,,,,,,,,,,167.52367,27,right,giraffe     ,5,3,-1,0.63384,0,0,167.561515,167.561515,170.0443,0,26,26,26,1,27,6,5,hat           ,giraffe     ,html/resources/sequences_IDs/A/08_hat.jpg,html/resources/sequences_IDs/B/03_giraffe.jpg,8,3,3,2,1,1,6,2,0,61,,,,,,,,,,,,,,,,,,,,
,,,,,61,2020-07-04_17h33.16.335,retriever_ti,2020.1.3,Win32,60,Chrome,1366,768,,,,,,,,,,,,,,,,,1,,,,,,,,,,,,,,,,,,,,,,,,,,,171.13921,28,right,giraffe     ,5,3,2,0.638785,1,3,171.15016,171.15016,173.64555,0,27,27,27,1,28,3,5,phone       ,giraffe     ,html/resources/sequences_IDs/B/09_phone.jpg,html/resources/sequences_IDs/B/03_giraffe.jpg,9,3,4,2,1,1,7,2,0,61,,,,,,,,,,,,,,,,,,,,
,,,,,61,2020-07-04_17h33.16.335,retriever_ti,2020.1.3,Win32,60,Chrome,1366,768,,,,,,,,,,,,,,,,,1,,,,,,,,,,,,,,,,,,,,,,,,,,,174.26314,29,right,peacock       ,2,5,1,0.523635,1,0,174.28129,174.28129,176.773665,0,28,28,28,1,29,1,2,radio       ,peacock       ,html/resources/sequences_IDs/B/10_radio.jpg,html/resources/sequences_IDs/A/05_peacock.jpg,10,5,4,2,2,1,8,4,1,61,,,,,,,,,,,,,,,,,,,,
,,,,,61,2020-07-04_17h33.16.335,retriever_ti,2020.1.3,Win32,60,Chrome,1366,768,,,,,,,,,,,,,,,,,1,,,,,,,,,,,,,,,,,,,,,,,,,,,177.874745,30,right,clownfish     ,8,4,5,0.7652,1,3,177.89495,177.89495,180.391065,0,29,29,29,1,30,3,8,phone       ,clownfish     ,html/resources/sequences_IDs/B/09_phone.jpg,html/resources/sequences_IDs/A/04_clownfish.jpg,9,4,4,2,2,1,7,3,0,61,,,,,,,,,,,,,,,,,,,,
,,,,,61,2020-07-04_17h33.16.335,retriever_ti,2020.1.3,Win32,60,Chrome,1366,768,,,,,,,,,,,,,,,,,1,,,,,,,,,,,,,,,,,,,,,,,,,,,180.99372,31,right,peacock       ,2,5,-2,0.71309,0,3,181.011885,181.011885,183.50882,0,30,30,30,1,31,4,2,seaturtle     ,peacock       ,html/resources/sequences_IDs/A/02_seaturtle.jpg,html/resources/sequences_IDs/A/05_peacock.jpg,2,5,2,1,2,1,1,4,0,61,,,,,,,,,,,,,,,,,,,,
,,,,,61,2020-07-04_17h33.16.335,retriever_ti,2020.1.3,Win32,60,Chrome,1366,768,,,,,,,,,,,,,,,,,1,,,,,,,,,,,,,,,,,,,,,,,,,,,184.110175,32,right,giraffe     ,5,3,-1,0.56687,0,0,184.14602,184.14602,186.64388,0,31,31,31,1,32,6,5,hat           ,giraffe     ,html/resources/sequences_IDs/A/08_hat.jpg,html/resources/sequences_IDs/B/03_giraffe.jpg,8,3,3,2,1,1,6,2,0,61,,,,,,,,,,,,,,,,,,,,
,,,,,61,2020-07-04_17h33.16.335,retriever_ti,2020.1.3,Win32,60,Chrome,1366,768,,,,,,,,,,,,,,,,,1,,,,,,,,,,,,,,,,,,,,,,,,,,,187.74489,33,right,clownfish     ,8,4,1,0.63427,1,1,187.76268,187.76268,190.26002,0,32,32,32,1,33,7,8,sport_tshirt,clownfish     ,html/resources/sequences_IDs/B/07_sport_tshirt.jpg,html/resources/sequences_IDs/A/04_clownfish.jpg,7,4,3,2,2,1,5,3,0,61,,,,,,,,,,,,,,,,,,,,
,,,,,61,2020-07-04_17h33.16.335,retriever_ti,2020.1.3,Win32,60,Chrome,1366,768,,,,,,,,,,,,,,,,,1,,,,,,,,,,,,,,,,,,,,,,,,,,,191.3612,34,right,peacock       ,2,5,-1,0.54384,0,0,191.39636,191.39636,193.885965,0,33,33,33,1,34,3,2,phone       ,peacock       ,html/resources/sequences_IDs/B/09_phone.jpg,html/resources/sequences_IDs/A/05_peacock.jpg,9,5,4,2,2,1,7,4,0,61,,,,,,,,,,,,,,,,,,,,
,,,,,61,2020-07-04_17h33.16.335,retriever_ti,2020.1.3,Win32,60,Chrome,1366,768,,,,,,,,,,,,,,,,,1,,,,,,,,,,,,,,,,,,,,,,,,,,,194.97966,35,left,sport_tshirt,7,7,4,0.76855,1,3,194.996965,194.996965,197.54702,0,34,34,34,1,35,7,3,sport_tshirt,phone       ,html/resources/sequences_IDs/B/07_sport_tshirt.jpg,html/resources/sequences_IDs/B/09_phone.jpg,7,9,3,2,4,2,5,7,0,61,,,,,,,,,,,,,,,,,,,,
,,,,,61,2020-07-04_17h33.16.335,retriever_ti,2020.1.3,Win32,60,Chrome,1366,768,,,,,,,,,,,,,,,,,1,,,,,,,,,,,,,,,,,,,,,,,,,,,198.15092,36,right,sport_tshirt,7,7,-1,0.701245,0,0,198.16782,198.16782,200.65709,0,35,35,35,1,36,8,7,clownfish     ,sport_tshirt,html/resources/sequences_IDs/A/04_clownfish.jpg,html/resources/sequences_IDs/B/07_sport_tshirt.jpg,4,7,2,1,3,2,3,5,0,61,,,,,,,,,,,,,,,,,,,,
,,,,,61,2020-07-04_17h33.16.335,retriever_ti,2020.1.3,Win32,60,Chrome,1366,768,,,,,,,,,,,,,,,,,1,,,,,,,,,,,,,,,,,,,,,,,,,,,201.75365,37,right,seaturtle     ,4,2,3,0.57209,1,3,201.77061,201.77061,204.267505,0,36,36,36,1,37,1,4,radio       ,seaturtle     ,html/resources/sequences_IDs/B/10_radio.jpg,html/resources/sequences_IDs/A/02_seaturtle.jpg,10,2,4,2,2,1,8,1,0,61,,,,,,,,,,,,,,,,,,,,
,,,,,61,2020-07-04_17h33.16.335,retriever_ti,2020.1.3,Win32,60,Chrome,1366,768,,,,,,,,,,,,,,,,,1,,,,,,,,,,,,,,,,,,,,,,,,,,,204.880905,38,left,clownfish     ,8,4,4,0.639565,1,3,204.902625,204.902625,207.396555,0,37,37,37,1,38,8,4,clownfish     ,seaturtle     ,html/resources/sequences_IDs/A/04_clownfish.jpg,html/resources/sequences_IDs/A/02_seaturtle.jpg,4,2,2,1,2,1,3,1,0,61,,,,,,,,,,,,,,,,,,,,
,,,,,61,2020-07-04_17h33.16.335,retriever_ti,2020.1.3,Win32,60,Chrome,1366,768,,,,,,,,,,,,,,,,,1,,,,,,,,,,,,,,,,,,,,,,,,,,,208.028355,39,right,hat           ,6,8,3,0.654385,1,3,208.12222,208.12222,210.6135,0,38,38,38,1,39,3,6,phone       ,hat           ,html/resources/sequences_IDs/B/09_phone.jpg,html/resources/sequences_IDs/A/08_hat.jpg,9,8,4,2,3,2,7,6,0,61,,,,,,,,,,,,,,,,,,,,
,,,,,61,2020-07-04_17h33.16.335,retriever_ti,2020.1.3,Win32,60,Chrome,1366,768,,,,,,,,,,,,,,,,,1,,,,,,,,,,,,,,,,,,,,,,,,,,,211.214955,40,right,seaturtle     ,4,2,-3,1.06643,0,3,211.233425,211.233425,213.73761,0,39,39,39,1,40,7,4,sport_tshirt,seaturtle     ,html/resources/sequences_IDs/B/07_sport_tshirt.jpg,html/resources/sequences_IDs/A/02_seaturtle.jpg,7,2,3,2,2,1,5,1,0,61,,,,,,,,,,,,,,,,,,,,
,,,,,61,2020-07-04_17h33.16.335,retriever_ti,2020.1.3,Win32,60,Chrome,1366,768,,,,,,,,,,,,,,,,,1,,,,,,,,,,,,,,,,,,,,,,,,,,,214.353195,41,right,clownfish     ,8,4,2,0.931955,1,3,214.372305,214.372305,216.86759,0,40,40,40,1,41,6,8,hat           ,clownfish     ,html/resources/sequences_IDs/A/08_hat.jpg,html/resources/sequences_IDs/A/04_clownfish.jpg,8,4,3,2,2,1,6,3,0,61,,,,,,,,,,,,,,,,,,,,
,,,,,61,2020-07-04_17h33.16.335,retriever_ti,2020.1.3,Win32,60,Chrome,1366,768,,,,,,,,,,,,,,,,,1,,,,,,,,,,,,,,,,,,,,,,,,,,,217.473065,42,right,hat           ,6,8,5,1.77682,1,3,217.49337,217.49337,219.98843,0,41,41,41,1,42,1,6,radio       ,hat           ,html/resources/sequences_IDs/B/10_radio.jpg,html/resources/sequences_IDs/A/08_hat.jpg,10,8,4,2,3,2,8,6,0,61,,,,,,,,,,,,,,,,,,,,
,,,,,61,2020-07-04_17h33.16.335,retriever_ti,2020.1.3,Win32,60,Chrome,1366,768,,,,,,,,,,,,,,,,,1,,,,,,,,,,,,,,,,,,,,,,,,,,,220.601525,43,right,peacock       ,2,5,-4,0.688095,0,3,220.634915,220.634915,223.116405,0,42,42,42,1,43,6,2,hat           ,peacock       ,html/resources/sequences_IDs/A/08_hat.jpg,html/resources/sequences_IDs/A/05_peacock.jpg,8,5,3,2,2,1,6,4,0,61,,,,,,,,,,,,,,,,,,,,
,,,,,61,2020-07-04_17h33.16.335,retriever_ti,2020.1.3,Win32,60,Chrome,1366,768,,,,,,,,,,,,,,,,,1,,,,,,,,,,,,,,,,,,,,,,,,,,,223.734885,44,left,seaturtle     ,4,2,-4,0.6749,0,3,223.77417,223.77417,226.26671,0,43,43,43,1,44,4,8,seaturtle     ,clownfish     ,html/resources/sequences_IDs/A/02_seaturtle.jpg,html/resources/sequences_IDs/A/04_clownfish.jpg,2,4,2,1,2,1,1,3,0,61,,,,,,,,,,,,,,,,,,,,
,,,,,61,2020-07-04_17h33.16.335,retriever_ti,2020.1.3,Win32,60,Chrome,1366,768,,,,,,,,,,,,,,,,,1,,,,,,,,,,,,,,,,,,,,,,,,,,,226.890825,45,left,giraffe     ,5,3,-3,0.670625,0,3,226.929955,226.929955,229.40926,0,44,44,44,1,45,5,8,giraffe     ,clownfish     ,html/resources/sequences_IDs/B/03_giraffe.jpg,html/resources/sequences_IDs/A/04_clownfish.jpg,3,4,1,1,2,1,2,3,0,61,,,,,,,,,,,,,,,,,,,,
,,,,,61,2020-07-04_17h33.16.335,retriever_ti,2020.1.3,Win32,60,Chrome,1366,768,,,,,,,,,,,,,,,,,1,,,,,,,,,,,,,,,,,,,,,,,,,,,230.023065,46,left,clownfish     ,8,4,5,0.57296,1,3,230.042655,230.042655,232.537365,0,45,45,45,1,46,8,3,clownfish     ,phone       ,html/resources/sequences_IDs/A/04_clownfish.jpg,html/resources/sequences_IDs/B/09_phone.jpg,4,9,2,1,4,2,3,7,0,61,,,,,,,,,,,,,,,,,,,,
,,,,,61,2020-07-04_17h33.16.335,retriever_ti,2020.1.3,Win32,60,Chrome,1366,768,,,,,,,,,,,,,,,,,1,,,,,,,,,,,,,,,,,,,,,,,,,,,233.15641,47,left,clownfish     ,8,4,1,0.39499,1,1,233.174645,233.174645,235.669415,0,46,46,46,1,47,8,7,clownfish     ,sport_tshirt,html/resources/sequences_IDs/A/04_clownfish.jpg,html/resources/sequences_IDs/B/07_sport_tshirt.jpg,4,7,2,1,3,2,3,5,0,61,,,,,,,,,,,,,,,,,,,,
,,,,,61,2020-07-04_17h33.16.335,retriever_ti,2020.1.3,Win32,60,Chrome,1366,768,,,,,,,,,,,,,,,,,1,,,,,,,,,,,,,,,,,,,,,,,,,,,236.77029,48,left,phone       ,3,9,2,0.75721,1,3,236.808815,236.808815,239.30247,0,47,47,47,1,48,3,1,phone       ,radio       ,html/resources/sequences_IDs/B/09_phone.jpg,html/resources/sequences_IDs/B/10_radio.jpg,9,10,4,2,4,2,7,8,0,61,,,,,,,,,,,,,,,,,,,,
,,,,,61,2020-07-04_17h33.16.335,retriever_ti,2020.1.3,Win32,60,Chrome,1366,768,,,,,,,,,,,,,,,,,1,,,,,,,,,,,,,,,,,,,,,,,,,,,239.921525,49,right,giraffe     ,5,3,3,0.518285,1,3,239.954795,239.954795,242.45491,0,48,48,48,1,49,2,5,peacock       ,giraffe     ,html/resources/sequences_IDs/A/05_peacock.jpg,html/resources/sequences_IDs/B/03_giraffe.jpg,5,3,2,1,1,1,4,2,0,61,,,,,,,,,,,,,,,,,,,,
,,,,,61,2020-07-04_17h33.16.335,retriever_ti,2020.1.3,Win32,60,Chrome,1366,768,,,,,,,,,,,,,,,,,1,,,,,,,,,,,,,,,,,,,,,,,,,,,243.07199,50,left,sport_tshirt,7,7,6,0.793635,1,3,243.09193,243.09193,245.57738,0,49,49,49,1,50,7,1,sport_tshirt,radio       ,html/resources/sequences_IDs/B/07_sport_tshirt.jpg,html/resources/sequences_IDs/B/10_radio.jpg,7,10,3,2,4,2,5,8,0,61,,,,,,,,,,,,,,,,,,,,
,,,,,61,2020-07-04_17h33.16.335,retriever_ti,2020.1.3,Win32,60,Chrome,1366,768,,,,,,,,,,,,,,,,,1,,,,,,,,,,,,,,,,,,,,,,,,,,,246.19468,51,right,seaturtle     ,4,2,1,0.62547,1,1,246.239565,246.239565,248.72976,0,50,50,50,1,51,3,4,phone       ,seaturtle     ,html/resources/sequences_IDs/B/09_phone.jpg,html/resources/sequences_IDs/A/02_seaturtle.jpg,9,2,4,2,2,1,7,1,0,61,,,,,,,,,,,,,,,,,,,,
,,,,,61,2020-07-04_17h33.16.335,retriever_ti,2020.1.3,Win32,60,Chrome,1366,768,,,,,,,,,,,,,,,,,1,,,,,,,,,,,,,,,,,,,,,,,,,,,249.82198,52,left,seaturtle     ,4,2,1,0.57906,1,1,249.857035,249.857035,252.35193,0,51,51,51,1,52,4,3,seaturtle     ,phone       ,html/resources/sequences_IDs/A/02_seaturtle.jpg,html/resources/sequences_IDs/B/09_phone.jpg,2,9,2,1,4,2,1,7,0,61,,,,,,,,,,,,,,,,,,,,
,,,,,61,2020-07-04_17h33.16.335,retriever_ti,2020.1.3,Win32,60,Chrome,1366,768,,,,,,,,,,,,,,,,,1,,,,,,,,,,,,,,,,,,,,,,,,,,,253.45789,53,right,giraffe     ,5,3,-1,0.90853,0,1,253.48479,253.48479,255.978315,0,52,52,52,1,53,6,5,hat           ,giraffe     ,html/resources/sequences_IDs/A/08_hat.jpg,html/resources/sequences_IDs/B/03_giraffe.jpg,8,3,3,2,1,1,6,2,1,61,,,,,,,,,,,,,,,,,,,,
,,,,,61,2020-07-04_17h33.16.335,retriever_ti,2020.1.3,Win32,60,Chrome,1366,768,,,,,,,,,,,,,,,,,1,,,,,,,,,,,,,,,,,,,,,,,,,,,257.07792,54,right,peacock       ,2,5,1,0.673375,1,1,257.10365,257.10365,259.57855,0,53,53,53,1,54,1,2,radio       ,peacock       ,html/resources/sequences_IDs/B/10_radio.jpg,html/resources/sequences_IDs/A/05_peacock.jpg,10,5,4,2,2,1,8,4,0,61,,,,,,,,,,,,,,,,,,,,
,,,,,61,2020-07-04_17h33.16.335,retriever_ti,2020.1.3,Win32,60,Chrome,1366,768,,,,,,,,,,,,,,,,,1,,,,,,,,,,,,,,,,,,,,,,,,,,,260.67929,55,left,hat           ,6,8,-1,0.93905,0,1,260.71334,260.71334,263.20703,0,54,54,54,1,55,6,7,hat           ,sport_tshirt,html/resources/sequences_IDs/A/08_hat.jpg,html/resources/sequences_IDs/B/07_sport_tshirt.jpg,8,7,3,2,3,2,6,5,1,61,,,,,,,,,,,,,,,,,,,,
,,,,,61,2020-07-04_17h33.16.335,retriever_ti,2020.1.3,Win32,60,Chrome,1366,768,,,,,,,,,,,,,,,,,1,,,,,,,,,,,,,,,,,,,,,,,,,,,264.30819,56,left,peacock       ,2,5,-6,1.03463,0,3,264.32686,264.32686,266.824405,0,55,55,55,1,56,2,8,peacock       ,clownfish     ,html/resources/sequences_IDs/A/05_peacock.jpg,html/resources/sequences_IDs/A/04_clownfish.jpg,5,4,2,1,2,1,4,3,0,61,,,,,,,,,,,,,,,,,,,,
,,,,,61,2020-07-04_17h33.16.335,retriever_ti,2020.1.3,Win32,60,Chrome,1366,768,,,,,,,,,,,,,,,,,1,,,,,,,,,,,,,,,,,,,,,,,,,,,267.442955,57,right,seaturtle     ,4,2,-2,0.853475,0,3,267.477045,267.477045,269.97551,0,56,56,56,1,57,6,4,hat           ,seaturtle     ,html/resources/sequences_IDs/A/08_hat.jpg,html/resources/sequences_IDs/A/02_seaturtle.jpg,8,2,3,2,2,1,6,1,0,61,,,,,,,,,,,,,,,,,,,,
,,,,,61,2020-07-04_17h33.16.335,retriever_ti,2020.1.3,Win32,60,Chrome,1366,768,,,,,,,,,,,,,,,,,1,,,,,,,,,,,,,,,,,,,,,,,,,,,270.59306,58,left,giraffe     ,5,3,3,0.979135,1,3,270.62888,270.62888,273.12578,0,57,57,57,1,58,5,2,giraffe     ,peacock       ,html/resources/sequences_IDs/B/03_giraffe.jpg,html/resources/sequences_IDs/A/05_peacock.jpg,3,5,1,1,2,1,2,4,0,61,,,,,,,,,,,,,,,,,,,,
,,,,,61,2020-07-04_17h33.16.335,retriever_ti,2020.1.3,Win32,60,Chrome,1366,768,,,,,,,,,,,,,,,,,1,,,,,,,,,,,,,,,,,,,,,,,,,,,273.74408,59,left,seaturtle     ,4,2,1,0.828985,1,1,273.779085,273.779085,276.26658,0,58,58,58,1,59,4,3,seaturtle     ,phone       ,html/resources/sequences_IDs/A/02_seaturtle.jpg,html/resources/sequences_IDs/B/09_phone.jpg,2,9,2,1,4,2,1,7,0,61,,,,,,,,,,,,,,,,,,,,
,,,,,61,2020-07-04_17h33.16.335,retriever_ti,2020.1.3,Win32,60,Chrome,1366,768,,,,,,,,,,,,,,,,,1,,,,,,,,,,,,,,,,,,,,,,,,,,,277.361295,60,left,hat           ,6,8,-1,1.126605,0,0,277.396925,277.396925,279.89827,0,59,59,59,1,60,6,7,hat           ,sport_tshirt,html/resources/sequences_IDs/A/08_hat.jpg,html/resources/sequences_IDs/B/07_sport_tshirt.jpg,8,7,3,2,3,2,6,5,0,61,,,,,,,,,,,,,,,,,,,,
,,,,,61,2020-07-04_17h33.16.335,retriever_ti,2020.1.3,Win32,60,Chrome,1366,768,,,,,,,,,,,,,,,,,1,,,,,,,,,,,,,,,,,,,,,,,,,,,280.996255,61,left,sport_tshirt,7,7,-1,1.208165,0,1,281.01381,281.01381,283.513005,0,60,60,60,1,61,7,8,sport_tshirt,clownfish     ,html/resources/sequences_IDs/B/07_sport_tshirt.jpg,html/resources/sequences_IDs/A/04_clownfish.jpg,7,4,3,2,2,1,5,3,1,61,,,,,,,,,,,,,,,,,,,,
,,,,,61,2020-07-04_17h33.16.335,retriever_ti,2020.1.3,Win32,60,Chrome,1366,768,,,,,,,,,,,,,,,,,1,,,,,,,,,,,,,,,,,,,,,,,,,,,284.61785,62,right,seaturtle     ,4,2,1,1.136115,1,0,284.647655,284.647655,287.147875,0,61,61,61,1,62,3,4,phone       ,seaturtle     ,html/resources/sequences_IDs/B/09_phone.jpg,html/resources/sequences_IDs/A/02_seaturtle.jpg,9,2,4,2,2,1,7,1,1,61,,,,,,,,,,,,,,,,,,,,
,,,,,61,2020-07-04_17h33.16.335,retriever_ti,2020.1.3,Win32,60,Chrome,1366,768,,,,,,,,,,,,,,,,,1,,,,,,,,,,,,,,,,,,,,,,,,,,,288.253985,63,left,giraffe     ,5,3,-1,0.639285,0,0,288.28227,288.28227,290.78125,0,62,62,62,1,63,5,6,giraffe     ,hat           ,html/resources/sequences_IDs/B/03_giraffe.jpg,html/resources/sequences_IDs/A/08_hat.jpg,3,8,1,1,3,2,2,6,0,61,,,,,,,,,,,,,,,,,,,,
,,,,,61,2020-07-04_17h33.16.335,retriever_ti,2020.1.3,Win32,60,Chrome,1366,768,,,,,,,,,,,,,,,,,1,,,,,,,,,,,,,,,,,,,,,,,,,,,291.881195,64,right,clownfish     ,8,4,7,0.91929,1,3,291.903545,291.903545,294.396485,0,63,63,63,1,64,1,8,radio       ,clownfish     ,html/resources/sequences_IDs/B/10_radio.jpg,html/resources/sequences_IDs/A/04_clownfish.jpg,10,4,4,2,2,1,8,3,0,61,,,,,,,,,,,,,,,,,,,,
,,,,,61,2020-07-04_17h33.16.335,retriever_ti,2020.1.3,Win32,60,Chrome,1366,768,,,,,,,,,,,,,,,,,1,,,,,,,,,,,,,,,,,,,,,,,,,,,295.015095,65,right,sport_tshirt,7,7,4,1.267465,1,3,295.03335,295.03335,297.520605,0,64,64,64,1,65,3,7,phone       ,sport_tshirt,html/resources/sequences_IDs/B/09_phone.jpg,html/resources/sequences_IDs/B/07_sport_tshirt.jpg,9,7,4,2,3,2,7,5,0,61,,,,,,,,,,,,,,,,,,,,
,,,,,61,2020-07-04_17h33.16.335,retriever_ti,2020.1.3,Win32,60,Chrome,1366,768,,,,,,,,,,,,,,,,,1,,,,,,,,,,,,,,,,,,,,,,,,,,,298.139635,66,left,sport_tshirt,7,7,1,0.836565,1,1,298.157635,298.157635,300.76462,0,65,65,65,1,66,7,6,sport_tshirt,hat           ,html/resources/sequences_IDs/B/07_sport_tshirt.jpg,html/resources/sequences_IDs/A/08_hat.jpg,7,8,3,2,3,2,5,6,0,61,,,,,,,,,,,,,,,,,,,,
,,,,,61,2020-07-04_17h33.16.335,retriever_ti,2020.1.3,Win32,60,Chrome,1366,768,,,,,,,,,,,,,,,,,1,,,,,,,,,,,,,,,,,,,,,,,,,,,301.86757,67,left,peacock       ,2,5,1,0.70048,1,1,301.902,301.902,304.387945,0,66,66,66,1,67,2,1,peacock       ,radio       ,html/resources/sequences_IDs/A/05_peacock.jpg,html/resources/sequences_IDs/B/10_radio.jpg,5,10,2,1,4,2,4,8,0,61,,,,,,,,,,,,,,,,,,,,
,,,,,61,2020-07-04_17h33.16.335,retriever_ti,2020.1.3,Win32,60,Chrome,1366,768,,,,,,,,,,,,,,,,,1,,,,,,,,,,,,,,,,,,,,,,,,,,,305.49173,68,left,giraffe     ,5,3,1,0.640905,1,1,305.51121,305.51121,308.004305,0,67,67,67,1,68,5,4,giraffe     ,seaturtle     ,html/resources/sequences_IDs/B/03_giraffe.jpg,html/resources/sequences_IDs/A/02_seaturtle.jpg,3,2,1,1,2,1,2,1,0,61,,,,,,,,,,,,,,,,,,,,
,,,,,61,2020-07-04_17h33.16.335,retriever_ti,2020.1.3,Win32,60,Chrome,1366,768,,,,,,,,,,,,,,,,,1,,,,,,,,,,,,,,,,,,,,,,,,,,,309.10877,69,right,peacock       ,2,5,-1,0.52526,0,0,309.1441,309.1441,311.652065,0,68,68,68,1,69,3,2,phone       ,peacock       ,html/resources/sequences_IDs/B/09_phone.jpg,html/resources/sequences_IDs/A/05_peacock.jpg,9,5,4,2,2,1,7,4,0,61,,,,,,,,,,,,,,,,,,,,
,,,,,61,2020-07-04_17h33.16.335,retriever_ti,2020.1.3,Win32,60,Chrome,1366,768,,,,,,,,,,,,,,,,,1,,,,,,,,,,,,,,,,,,,,,,,,,,,312.75486,70,right,giraffe     ,5,3,1,0.723695,1,1,312.769725,312.769725,315.266935,0,69,69,69,1,70,4,5,seaturtle     ,giraffe     ,html/resources/sequences_IDs/A/02_seaturtle.jpg,html/resources/sequences_IDs/B/03_giraffe.jpg,2,3,2,1,1,1,1,2,0,61,,,,,,,,,,,,,,,,,,,,
,,,,,61,2020-07-04_17h33.16.335,retriever_ti,2020.1.3,Win32,60,Chrome,1366,768,,,,,,,,,,,,,,,,,1,,,,,,,,,,,,,,,,,,,,,,,,,,,316.377715,71,right,hat           ,6,8,2,0.859745,1,3,316.427375,316.427375,318.917895,0,70,70,70,1,71,4,6,seaturtle     ,hat           ,html/resources/sequences_IDs/A/02_seaturtle.jpg,html/resources/sequences_IDs/A/08_hat.jpg,2,8,2,1,3,2,1,6,0,61,,,,,,,,,,,,,,,,,,,,
,,,,,61,2020-07-04_17h33.16.335,retriever_ti,2020.1.3,Win32,60,Chrome,1366,768,,,,,,,,,,,,,,,,,1,,,,,,,,,,,,,,,,,,,,,,,,,,,319.524125,72,left,hat           ,6,8,5,0.874645,1,3,319.55998,319.55998,322.063345,0,71,71,71,1,72,6,1,hat           ,radio       ,html/resources/sequences_IDs/A/08_hat.jpg,html/resources/sequences_IDs/B/10_radio.jpg,8,10,3,2,4,2,6,8,0,61,,,,,,,,,,,,,,,,,,,,
,,,,,61,2020-07-04_17h33.16.335,retriever_ti,2020.1.3,Win32,60,Chrome,1366,768,,,,,,,,,,,,,,,,,1,,,,,,,,,,,,,,,,,,,,,,,,,,,322.67727,73,left,hat           ,6,8,-1,0.544985,0,0,322.712735,322.712735,325.20932,0,72,72,72,1,73,6,7,hat           ,sport_tshirt,html/resources/sequences_IDs/A/08_hat.jpg,html/resources/sequences_IDs/B/07_sport_tshirt.jpg,8,7,3,2,3,2,6,5,0,61,,,,,,,,,,,,,,,,,,,,
,,,,,61,2020-07-04_17h33.16.335,retriever_ti,2020.1.3,Win32,60,Chrome,1366,768,,,,,,,,,,,,,,,,,1,,,,,,,,,,,,,,,,,,,,,,,,,,,326.320405,74,right,sport_tshirt,7,7,6,0.579595,1,3,326.339375,326.339375,328.843575,0,73,73,73,1,74,1,7,radio       ,sport_tshirt,html/resources/sequences_IDs/B/10_radio.jpg,html/resources/sequences_IDs/B/07_sport_tshirt.jpg,10,7,4,2,3,2,8,5,0,61,,,,,,,,,,,,,,,,,,,,
,,,,,61,2020-07-04_17h33.16.335,retriever_ti,2020.1.3,Win32,60,Chrome,1366,768,,,,,,,,,,,,,,,,,1,,,,,,,,,,,,,,,,,,,,,,,,,,,329.463425,75,right,peacock       ,2,5,1,1.06785,1,1,329.49338,329.49338,331.98679,0,74,74,74,1,75,1,2,radio       ,peacock       ,html/resources/sequences_IDs/B/10_radio.jpg,html/resources/sequences_IDs/A/05_peacock.jpg,10,5,4,2,2,1,8,4,0,61,,,,,,,,,,,,,,,,,,,,
,,,,,61,2020-07-04_17h33.16.335,retriever_ti,2020.1.3,Win32,60,Chrome,1366,768,,,,,,,,,,,,,,,,,1,,,,,,,,,,,,,,,,,,,,,,,,,,,333.08879,76,right,peacock       ,2,5,-6,0.61684,0,3,333.10781,333.10781,335.60416,0,75,75,75,1,76,8,2,clownfish     ,peacock       ,html/resources/sequences_IDs/A/04_clownfish.jpg,html/resources/sequences_IDs/A/05_peacock.jpg,4,5,2,1,2,1,3,4,0,61,,,,,,,,,,,,,,,,,,,,
,,,,,61,2020-07-04_17h33.16.335,retriever_ti,2020.1.3,Win32,60,Chrome,1366,768,,,,,,,,,,,,,,,,,1,,,,,,,,,,,,,,,,,,,,,,,,,,,336.206615,77,left,giraffe     ,5,3,1,0.843465,1,0,336.22406,336.22406,338.72188,0,76,76,76,1,77,5,4,giraffe     ,seaturtle     ,html/resources/sequences_IDs/B/03_giraffe.jpg,html/resources/sequences_IDs/A/02_seaturtle.jpg,3,2,1,1,2,1,2,1,1,61,,,,,,,,,,,,,,,,,,,,
,,,,,61,2020-07-04_17h33.16.335,retriever_ti,2020.1.3,Win32,60,Chrome,1366,768,,,,,,,,,,,,,,,,,,,,,,,,,,,,,,,,,,,,,0,3.6285,,,,,,,,,,,,,,,,,,,,,,,,,,,,,,,,,,,,,,,,,0,0,0,0,1,,,,,,,,,,,,,,,
,,,,,61,2020-07-04_17h33.16.335,retriever_ti,2020.1.3,Win32,60,Chrome,1366,768,,,,,,,,,,,,,,,,,2,,,,,,,,,,,,,,,,,,,,,,,,,,,357.55542,78,left,seaturtle     ,4,2,-3,1.131945,0,3,357.578635,357.578635,360.075855,0,0,0,0,1,78,4,7,seaturtle     ,sport_tshirt,html/resources/sequences_IDs/A/02_seaturtle.jpg,html/resources/sequences_IDs/B/07_sport_tshirt.jpg,2,7,2,1,3,2,1,5,0,61,,,,,,,,,,,,,,,,,,,,
,,,,,61,2020-07-04_17h33.16.335,retriever_ti,2020.1.3,Win32,60,Chrome,1366,768,,,,,,,,,,,,,,,,,2,,,,,,,,,,,,,,,,,,,,,,,,,,,360.69498,79,left,seaturtle     ,4,2,1,0.537835,1,1,360.73015,360.73015,363.226315,0,1,1,1,1,79,4,3,seaturtle     ,phone       ,html/resources/sequences_IDs/A/02_seaturtle.jpg,html/resources/sequences_IDs/B/09_phone.jpg,2,9,2,1,4,2,1,7,0,61,,,,,,,,,,,,,,,,,,,,
,,,,,61,2020-07-04_17h33.16.335,retriever_ti,2020.1.3,Win32,60,Chrome,1366,768,,,,,,,,,,,,,,,,,2,,,,,,,,,,,,,,,,,,,,,,,,,,,364.328535,80,right,clownfish     ,8,4,5,0.490635,1,3,364.34648,364.34648,366.83274,0,2,2,2,1,80,3,8,phone       ,clownfish     ,html/resources/sequences_IDs/B/09_phone.jpg,html/resources/sequences_IDs/A/04_clownfish.jpg,9,4,4,2,2,1,7,3,0,61,,,,,,,,,,,,,,,,,,,,
,,,,,61,2020-07-04_17h33.16.335,retriever_ti,2020.1.3,Win32,60,Chrome,1366,768,,,,,,,,,,,,,,,,,2,,,,,,,,,,,,,,,,,,,,,,,,,,,367.445505,81,right,phone       ,3,9,1,0.612215,1,1,367.467235,367.467235,369.960825,0,3,3,3,1,81,2,3,peacock       ,phone       ,html/resources/sequences_IDs/A/05_peacock.jpg,html/resources/sequences_IDs/B/09_phone.jpg,5,9,2,1,4,2,4,7,0,61,,,,,,,,,,,,,,,,,,,,
,,,,,61,2020-07-04_17h33.16.335,retriever_ti,2020.1.3,Win32,60,Chrome,1366,768,,,,,,,,,,,,,,,,,2,,,,,,,,,,,,,,,,,,,,,,,,,,,371.063235,82,left,giraffe     ,5,3,-1,0.79787,0,0,371.09772,371.09772,373.60035,0,4,4,4,1,82,5,6,giraffe     ,hat           ,html/resources/sequences_IDs/B/03_giraffe.jpg,html/resources/sequences_IDs/A/08_hat.jpg,3,8,1,1,3,2,2,6,0,61,,,,,,,,,,,,,,,,,,,,
,,,,,61,2020-07-04_17h33.16.335,retriever_ti,2020.1.3,Win32,60,Chrome,1366,768,,,,,,,,,,,,,,,,,2,,,,,,,,,,,,,,,,,,,,,,,,,,,374.69963,83,left,seaturtle     ,4,2,1,0.66927,1,0,374.714715,374.714715,377.21991,0,5,5,5,1,83,4,3,seaturtle     ,phone       ,html/resources/sequences_IDs/A/02_seaturtle.jpg,html/resources/sequences_IDs/B/09_phone.jpg,2,9,2,1,4,2,1,7,1,61,,,,,,,,,,,,,,,,,,,,
,,,,,61,2020-07-04_17h33.16.335,retriever_ti,2020.1.3,Win32,60,Chrome,1366,768,,,,,,,,,,,,,,,,,2,,,,,,,,,,,,,,,,,,,,,,,,,,,378.314175,84,left,giraffe     ,5,3,2,0.49338,1,3,378.34833,378.34833,380.83562,0,6,6,6,1,84,5,3,giraffe     ,phone       ,html/resources/sequences_IDs/B/03_giraffe.jpg,html/resources/sequences_IDs/B/09_phone.jpg,3,9,1,1,4,2,2,7,0,61,,,,,,,,,,,,,,,,,,,,
,,,,,61,2020-07-04_17h33.16.335,retriever_ti,2020.1.3,Win32,60,Chrome,1366,768,,,,,,,,,,,,,,,,,2,,,,,,,,,,,,,,,,,,,,,,,,,,,381.447995,85,right,seaturtle     ,4,2,-3,0.846265,0,3,381.47084,381.47084,383.96346,0,7,7,7,1,85,7,4,sport_tshirt,seaturtle     ,html/resources/sequences_IDs/B/07_sport_tshirt.jpg,html/resources/sequences_IDs/A/02_seaturtle.jpg,7,2,3,2,2,1,5,1,0,61,,,,,,,,,,,,,,,,,,,,
,,,,,61,2020-07-04_17h33.16.335,retriever_ti,2020.1.3,Win32,60,Chrome,1366,768,,,,,,,,,,,,,,,,,2,,,,,,,,,,,,,,,,,,,,,,,,,,,384.58226,86,left,giraffe     ,5,3,-3,0.52377,0,3,384.60025,384.60025,387.098135,0,8,8,8,1,86,5,8,giraffe     ,clownfish     ,html/resources/sequences_IDs/B/03_giraffe.jpg,html/resources/sequences_IDs/A/04_clownfish.jpg,3,4,1,1,2,1,2,3,0,61,,,,,,,,,,,,,,,,,,,,
,,,,,61,2020-07-04_17h33.16.335,retriever_ti,2020.1.3,Win32,60,Chrome,1366,768,,,,,,,,,,,,,,,,,2,,,,,,,,,,,,,,,,,,,,,,,,,,,387.719445,87,left,peacock       ,2,5,-5,0.683345,0,3,387.750625,387.750625,390.237245,0,9,9,9,1,87,2,7,peacock       ,sport_tshirt,html/resources/sequences_IDs/A/05_peacock.jpg,html/resources/sequences_IDs/B/07_sport_tshirt.jpg,5,7,2,1,3,2,4,5,0,61,,,,,,,,,,,,,,,,,,,,
,,,,,61,2020-07-04_17h33.16.335,retriever_ti,2020.1.3,Win32,60,Chrome,1366,768,,,,,,,,,,,,,,,,,2,,,,,,,,,,,,,,,,,,,,,,,,,,,390.850565,88,left,giraffe     ,5,3,-2,0.6052,0,3,390.87131,390.87131,393.357485,0,10,10,10,1,88,5,7,giraffe     ,sport_tshirt,html/resources/sequences_IDs/B/03_giraffe.jpg,html/resources/sequences_IDs/B/07_sport_tshirt.jpg,3,7,1,1,3,2,2,5,0,61,,,,,,,,,,,,,,,,,,,,
,,,,,61,2020-07-04_17h33.16.335,retriever_ti,2020.1.3,Win32,60,Chrome,1366,768,,,,,,,,,,,,,,,,,2,,,,,,,,,,,,,,,,,,,,,,,,,,,393.96735,89,left,giraffe     ,5,3,4,0.534405,1,3,393.990935,393.990935,396.477995,0,11,11,11,1,89,5,1,giraffe     ,radio       ,html/resources/sequences_IDs/B/03_giraffe.jpg,html/resources/sequences_IDs/B/10_radio.jpg,3,10,1,1,4,2,2,8,0,61,,,,,,,,,,,,,,,,,,,,
,,,,,61,2020-07-04_17h33.16.335,retriever_ti,2020.1.3,Win32,60,Chrome,1366,768,,,,,,,,,,,,,,,,,2,,,,,,,,,,,,,,,,,,,,,,,,,,,397.08568,90,left,giraffe     ,5,3,3,0.50811,1,3,397.11826,397.11826,399.60025,0,12,12,12,1,90,5,2,giraffe     ,peacock       ,html/resources/sequences_IDs/B/03_giraffe.jpg,html/resources/sequences_IDs/A/05_peacock.jpg,3,5,1,1,2,1,2,4,0,61,,,,,,,,,,,,,,,,,,,,
,,,,,61,2020-07-04_17h33.16.335,retriever_ti,2020.1.3,Win32,60,Chrome,1366,768,,,,,,,,,,,,,,,,,2,,,,,,,,,,,,,,,,,,,,,,,,,,,400.22002,91,left,peacock       ,2,5,-1,0.63445,0,1,400.254825,400.254825,402.750365,0,13,13,13,1,91,2,3,peacock       ,phone       ,html/resources/sequences_IDs/A/05_peacock.jpg,html/resources/sequences_IDs/B/09_phone.jpg,5,9,2,1,4,2,4,7,1,61,,,,,,,,,,,,,,,,,,,,
,,,,,61,2020-07-04_17h33.16.335,retriever_ti,2020.1.3,Win32,60,Chrome,1366,768,,,,,,,,,,,,,,,,,2,,,,,,,,,,,,,,,,,,,,,,,,,,,403.86033,92,left,clownfish     ,8,4,5,0.44497,1,3,403.890445,403.890445,406.384555,0,14,14,14,1,92,8,3,clownfish     ,phone       ,html/resources/sequences_IDs/A/04_clownfish.jpg,html/resources/sequences_IDs/B/09_phone.jpg,4,9,2,1,4,2,3,7,0,61,,,,,,,,,,,,,,,,,,,,
,,,,,61,2020-07-04_17h33.16.335,retriever_ti,2020.1.3,Win32,60,Chrome,1366,768,,,,,,,,,,,,,,,,,2,,,,,,,,,,,,,,,,,,,,,,,,,,,407.00595,93,left,peacock       ,2,5,1,0.637505,1,0,407.023825,407.023825,409.519255,0,15,15,15,1,93,2,1,peacock       ,radio       ,html/resources/sequences_IDs/A/05_peacock.jpg,html/resources/sequences_IDs/B/10_radio.jpg,5,10,2,1,4,2,4,8,1,61,,,,,,,,,,,,,,,,,,,,
,,,,,61,2020-07-04_17h33.16.335,retriever_ti,2020.1.3,Win32,60,Chrome,1366,768,,,,,,,,,,,,,,,,,2,,,,,,,,,,,,,,,,,,,,,,,,,,,410.626595,94,left,peacock       ,2,5,-2,0.41978,0,3,410.662005,410.662005,413.158565,0,16,16,16,1,94,2,4,peacock       ,seaturtle     ,html/resources/sequences_IDs/A/05_peacock.jpg,html/resources/sequences_IDs/A/02_seaturtle.jpg,5,2,2,1,2,1,4,1,0,61,,,,,,,,,,,,,,,,,,,,
,,,,,61,2020-07-04_17h33.16.335,retriever_ti,2020.1.3,Win32,60,Chrome,1366,768,,,,,,,,,,,,,,,,,2,,,,,,,,,,,,,,,,,,,,,,,,,,,413.780735,95,right,hat           ,6,8,5,0.54211,1,3,413.81212,413.81212,416.309215,0,17,17,17,1,95,1,6,radio       ,hat           ,html/resources/sequences_IDs/B/10_radio.jpg,html/resources/sequences_IDs/A/08_hat.jpg,10,8,4,2,3,2,8,6,0,61,,,,,,,,,,,,,,,,,,,,
,,,,,61,2020-07-04_17h33.16.335,retriever_ti,2020.1.3,Win32,60,Chrome,1366,768,,,,,,,,,,,,,,,,,2,,,,,,,,,,,,,,,,,,,,,,,,,,,416.921725,96,left,hat           ,6,8,-1,0.8494,0,0,416.94552,416.94552,419.444995,0,18,18,18,1,96,6,7,hat           ,sport_tshirt,html/resources/sequences_IDs/A/08_hat.jpg,html/resources/sequences_IDs/B/07_sport_tshirt.jpg,8,7,3,2,3,2,6,5,0,61,,,,,,,,,,,,,,,,,,,,
,,,,,61,2020-07-04_17h33.16.335,retriever_ti,2020.1.3,Win32,60,Chrome,1366,768,,,,,,,,,,,,,,,,,2,,,,,,,,,,,,,,,,,,,,,,,,,,,420.54039,97,right,seaturtle     ,4,2,3,1.023635,1,3,420.574495,420.574495,423.06352,0,19,19,19,1,97,1,4,radio       ,seaturtle     ,html/resources/sequences_IDs/B/10_radio.jpg,html/resources/sequences_IDs/A/02_seaturtle.jpg,10,2,4,2,2,1,8,1,0,61,,,,,,,,,,,,,,,,,,,,
,,,,,61,2020-07-04_17h33.16.335,retriever_ti,2020.1.3,Win32,60,Chrome,1366,768,,,,,,,,,,,,,,,,,2,,,,,,,,,,,,,,,,,,,,,,,,,,,423.67395,98,right,giraffe     ,5,3,1,0.73587,1,0,423.711,423.711,426.206215,0,20,20,20,1,98,4,5,seaturtle     ,giraffe     ,html/resources/sequences_IDs/A/02_seaturtle.jpg,html/resources/sequences_IDs/B/03_giraffe.jpg,2,3,2,1,1,1,1,2,1,61,,,,,,,,,,,,,,,,,,,,
,,,,,61,2020-07-04_17h33.16.335,retriever_ti,2020.1.3,Win32,60,Chrome,1366,768,,,,,,,,,,,,,,,,,2,,,,,,,,,,,,,,,,,,,,,,,,,,,427.305965,99,left,sport_tshirt,7,7,-1,0.69241,0,0,427.324985,427.324985,429.82257,0,21,21,21,1,99,7,8,sport_tshirt,clownfish     ,html/resources/sequences_IDs/B/07_sport_tshirt.jpg,html/resources/sequences_IDs/A/04_clownfish.jpg,7,4,3,2,2,1,5,3,0,61,,,,,,,,,,,,,,,,,,,,
,,,,,61,2020-07-04_17h33.16.335,retriever_ti,2020.1.3,Win32,60,Chrome,1366,768,,,,,,,,,,,,,,,,,2,,,,,,,,,,,,,,,,,,,,,,,,,,,430.924755,100,right,giraffe     ,5,3,2,0.485465,1,3,430.95874,430.95874,433.456235,0,22,22,22,1,100,3,5,phone       ,giraffe     ,html/resources/sequences_IDs/B/09_phone.jpg,html/resources/sequences_IDs/B/03_giraffe.jpg,9,3,4,2,1,1,7,2,0,61,,,,,,,,,,,,,,,,,,,,
,,,,,61,2020-07-04_17h33.16.335,retriever_ti,2020.1.3,Win32,60,Chrome,1366,768,,,,,,,,,,,,,,,,,2,,,,,,,,,,,,,,,,,,,,,,,,,,,434.05772,101,right,seaturtle     ,4,2,-4,0.68531,0,3,434.09305,434.09305,436.590155,0,23,23,23,1,101,8,4,clownfish     ,seaturtle     ,html/resources/sequences_IDs/A/04_clownfish.jpg,html/resources/sequences_IDs/A/02_seaturtle.jpg,4,2,2,1,2,1,3,1,0,61,,,,,,,,,,,,,,,,,,,,
,,,,,61,2020-07-04_17h33.16.335,retriever_ti,2020.1.3,Win32,60,Chrome,1366,768,,,,,,,,,,,,,,,,,2,,,,,,,,,,,,,,,,,,,,,,,,,,,437.20885,102,right,clownfish     ,8,4,2,0.873025,1,3,437.2429,437.2429,439.750315,0,24,24,24,1,102,6,8,hat           ,clownfish     ,html/resources/sequences_IDs/A/08_hat.jpg,html/resources/sequences_IDs/A/04_clownfish.jpg,8,4,3,2,2,1,6,3,0,61,,,,,,,,,,,,,,,,,,,,
,,,,,61,2020-07-04_17h33.16.335,retriever_ti,2020.1.3,Win32,60,Chrome,1366,768,,,,,,,,,,,,,,,,,2,,,,,,,,,,,,,,,,,,,,,,,,,,,440.36281,103,right,peacock       ,2,5,-4,1.59389,0,3,440.38278,440.38278,442.880285,0,25,25,25,1,103,6,2,hat           ,peacock       ,html/resources/sequences_IDs/A/08_hat.jpg,html/resources/sequences_IDs/A/05_peacock.jpg,8,5,3,2,2,1,6,4,0,61,,,,,,,,,,,,,,,,,,,,
,,,,,61,2020-07-04_17h33.16.335,retriever_ti,2020.1.3,Win32,60,Chrome,1366,768,,,,,,,,,,,,,,,,,2,,,,,,,,,,,,,,,,,,,,,,,,,,,443.499665,104,right,hat           ,6,8,2,1.055345,1,3,443.533365,443.533365,446.033795,0,26,26,26,1,104,4,6,seaturtle     ,hat           ,html/resources/sequences_IDs/A/02_seaturtle.jpg,html/resources/sequences_IDs/A/08_hat.jpg,2,8,2,1,3,2,1,6,0,61,,,,,,,,,,,,,,,,,,,,
,,,,,61,2020-07-04_17h33.16.335,retriever_ti,2020.1.3,Win32,60,Chrome,1366,768,,,,,,,,,,,,,,,,,2,,,,,,,,,,,,,,,,,,,,,,,,,,,446.653175,105,right,radio       ,1,10,-6,0.87579,0,3,446.692485,446.692485,449.176005,0,27,27,27,1,105,7,1,sport_tshirt,radio       ,html/resources/sequences_IDs/B/07_sport_tshirt.jpg,html/resources/sequences_IDs/B/10_radio.jpg,7,10,3,2,4,2,5,8,0,61,,,,,,,,,,,,,,,,,,,,
,,,,,61,2020-07-04_17h33.16.335,retriever_ti,2020.1.3,Win32,60,Chrome,1366,768,,,,,,,,,,,,,,,,,2,,,,,,,,,,,,,,,,,,,,,,,,,,,449.79351,106,right,giraffe     ,5,3,1,0.705535,1,1,449.81147,449.81147,452.29905,0,28,28,28,1,106,4,5,seaturtle     ,giraffe     ,html/resources/sequences_IDs/A/02_seaturtle.jpg,html/resources/sequences_IDs/B/03_giraffe.jpg,2,3,2,1,1,1,1,2,0,61,,,,,,,,,,,,,,,,,,,,
,,,,,61,2020-07-04_17h33.16.335,retriever_ti,2020.1.3,Win32,60,Chrome,1366,768,,,,,,,,,,,,,,,,,2,,,,,,,,,,,,,,,,,,,,,,,,,,,453.399085,107,right,giraffe     ,5,3,3,0.59399,1,3,453.416475,453.416475,455.91079,0,29,29,29,1,107,2,5,peacock       ,giraffe     ,html/resources/sequences_IDs/A/05_peacock.jpg,html/resources/sequences_IDs/B/03_giraffe.jpg,5,3,2,1,1,1,4,2,0,61,,,,,,,,,,,,,,,,,,,,
,,,,,61,2020-07-04_17h33.16.335,retriever_ti,2020.1.3,Win32,60,Chrome,1366,768,,,,,,,,,,,,,,,,,2,,,,,,,,,,,,,,,,,,,,,,,,,,,456.517085,108,right,giraffe     ,5,3,1,0.438775,1,1,456.56394,456.56394,459.044635,0,30,30,30,1,108,4,5,seaturtle     ,giraffe     ,html/resources/sequences_IDs/A/02_seaturtle.jpg,html/resources/sequences_IDs/B/03_giraffe.jpg,2,3,2,1,1,1,1,2,0,61,,,,,,,,,,,,,,,,,,,,
,,,,,61,2020-07-04_17h33.16.335,retriever_ti,2020.1.3,Win32,60,Chrome,1366,768,,,,,,,,,,,,,,,,,2,,,,,,,,,,,,,,,,,,,,,,,,,,,460.134515,109,right,hat           ,6,8,-1,0.80306,0,0,460.15262,460.15262,462.651535,0,31,31,31,1,109,7,6,sport_tshirt,hat           ,html/resources/sequences_IDs/B/07_sport_tshirt.jpg,html/resources/sequences_IDs/A/08_hat.jpg,7,8,3,2,3,2,5,6,0,61,,,,,,,,,,,,,,,,,,,,
,,,,,61,2020-07-04_17h33.16.335,retriever_ti,2020.1.3,Win32,60,Chrome,1366,768,,,,,,,,,,,,,,,,,2,,,,,,,,,,,,,,,,,,,,,,,,,,,463.751795,110,left,giraffe     ,5,3,-1,0.57917,0,0,463.78732,463.78732,466.27917,0,32,32,32,1,110,5,6,giraffe     ,hat           ,html/resources/sequences_IDs/B/03_giraffe.jpg,html/resources/sequences_IDs/A/08_hat.jpg,3,8,1,1,3,2,2,6,0,61,,,,,,,,,,,,,,,,,,,,
,,,,,61,2020-07-04_17h33.16.335,retriever_ti,2020.1.3,Win32,60,Chrome,1366,768,,,,,,,,,,,,,,,,,2,,,,,,,,,,,,,,,,,,,,,,,,,,,467.381755,111,left,sport_tshirt,7,7,1,0.7285,1,1,467.415725,467.415725,469.91328,0,33,33,33,1,111,7,6,sport_tshirt,hat           ,html/resources/sequences_IDs/B/07_sport_tshirt.jpg,html/resources/sequences_IDs/A/08_hat.jpg,7,8,3,2,3,2,5,6,0,61,,,,,,,,,,,,,,,,,,,,
,,,,,61,2020-07-04_17h33.16.335,retriever_ti,2020.1.3,Win32,60,Chrome,1366,768,,,,,,,,,,,,,,,,,2,,,,,,,,,,,,,,,,,,,,,,,,,,,471.014755,112,left,seaturtle     ,4,2,1,0.62852,1,1,471.04998,471.04998,473.54753,0,34,34,34,1,112,4,3,seaturtle     ,phone       ,html/resources/sequences_IDs/A/02_seaturtle.jpg,html/resources/sequences_IDs/B/09_phone.jpg,2,9,2,1,4,2,1,7,0,61,,,,,,,,,,,,,,,,,,,,
,,,,,61,2020-07-04_17h33.16.335,retriever_ti,2020.1.3,Win32,60,Chrome,1366,768,,,,,,,,,,,,,,,,,2,,,,,,,,,,,,,,,,,,,,,,,,,,,474.65518,113,right,hat           ,6,8,3,0.69184,1,3,474.685535,474.685535,477.173135,0,35,35,35,1,113,3,6,phone       ,hat           ,html/resources/sequences_IDs/B/09_phone.jpg,html/resources/sequences_IDs/A/08_hat.jpg,9,8,4,2,3,2,7,6,0,61,,,,,,,,,,,,,,,,,,,,
,,,,,61,2020-07-04_17h33.16.335,retriever_ti,2020.1.3,Win32,60,Chrome,1366,768,,,,,,,,,,,,,,,,,2,,,,,,,,,,,,,,,,,,,,,,,,,,,477.788335,114,left,seaturtle     ,4,2,-4,0.65082,0,3,477.803405,477.803405,480.29878,0,36,36,36,1,114,4,8,seaturtle     ,clownfish     ,html/resources/sequences_IDs/A/02_seaturtle.jpg,html/resources/sequences_IDs/A/04_clownfish.jpg,2,4,2,1,2,1,1,3,0,61,,,,,,,,,,,,,,,,,,,,
,,,,,61,2020-07-04_17h33.16.335,retriever_ti,2020.1.3,Win32,60,Chrome,1366,768,,,,,,,,,,,,,,,,,2,,,,,,,,,,,,,,,,,,,,,,,,,,,480.902785,115,right,sport_tshirt,7,7,-1,1.15018,0,0,480.94025,480.94025,483.43299,0,37,37,37,1,115,8,7,clownfish     ,sport_tshirt,html/resources/sequences_IDs/A/04_clownfish.jpg,html/resources/sequences_IDs/B/07_sport_tshirt.jpg,4,7,2,1,3,2,3,5,0,61,,,,,,,,,,,,,,,,,,,,
,,,,,61,2020-07-04_17h33.16.335,retriever_ti,2020.1.3,Win32,60,Chrome,1366,768,,,,,,,,,,,,,,,,,2,,,,,,,,,,,,,,,,,,,,,,,,,,,484.533545,116,left,giraffe     ,5,3,-1,0.761785,0,1,484.568145,484.568145,487.073315,0,38,38,38,1,116,5,6,giraffe     ,hat           ,html/resources/sequences_IDs/B/03_giraffe.jpg,html/resources/sequences_IDs/A/08_hat.jpg,3,8,1,1,3,2,2,6,1,61,,,,,,,,,,,,,,,,,,,,
,,,,,61,2020-07-04_17h33.16.335,retriever_ti,2020.1.3,Win32,60,Chrome,1366,768,,,,,,,,,,,,,,,,,2,,,,,,,,,,,,,,,,,,,,,,,,,,,488.16899,117,left,radio       ,1,10,-7,1.201095,0,3,488.18681,488.18681,490.67922,0,39,39,39,1,117,1,8,radio       ,clownfish     ,html/resources/sequences_IDs/B/10_radio.jpg,html/resources/sequences_IDs/A/04_clownfish.jpg,10,4,4,2,2,1,8,3,0,61,,,,,,,,,,,,,,,,,,,,
,,,,,61,2020-07-04_17h33.16.335,retriever_ti,2020.1.3,Win32,60,Chrome,1366,768,,,,,,,,,,,,,,,,,2,,,,,,,,,,,,,,,,,,,,,,,,,,,491.28959,118,right,seaturtle     ,4,2,1,0.71707,1,1,491.309705,491.309705,493.80128,0,40,40,40,1,118,3,4,phone       ,seaturtle     ,html/resources/sequences_IDs/B/09_phone.jpg,html/resources/sequences_IDs/A/02_seaturtle.jpg,9,2,4,2,2,1,7,1,0,61,,,,,,,,,,,,,,,,,,,,
,,,,,61,2020-07-04_17h33.16.335,retriever_ti,2020.1.3,Win32,60,Chrome,1366,768,,,,,,,,,,,,,,,,,2,,,,,,,,,,,,,,,,,,,,,,,,,,,494.89185,119,left,sport_tshirt,7,7,1,0.74552,1,0,494.912175,494.912175,497.40188,0,41,41,41,1,119,7,6,sport_tshirt,hat           ,html/resources/sequences_IDs/B/07_sport_tshirt.jpg,html/resources/sequences_IDs/A/08_hat.jpg,7,8,3,2,3,2,5,6,1,61,,,,,,,,,,,,,,,,,,,,
,,,,,61,2020-07-04_17h33.16.335,retriever_ti,2020.1.3,Win32,60,Chrome,1366,768,,,,,,,,,,,,,,,,,2,,,,,,,,,,,,,,,,,,,,,,,,,,,498.507005,120,right,sport_tshirt,7,7,-1,0.675915,0,1,498.534655,498.534655,501.026885,0,42,42,42,1,120,8,7,clownfish     ,sport_tshirt,html/resources/sequences_IDs/A/04_clownfish.jpg,html/resources/sequences_IDs/B/07_sport_tshirt.jpg,4,7,2,1,3,2,3,5,1,61,,,,,,,,,,,,,,,,,,,,
,,,,,61,2020-07-04_17h33.16.335,retriever_ti,2020.1.3,Win32,60,Chrome,1366,768,,,,,,,,,,,,,,,,,2,,,,,,,,,,,,,,,,,,,,,,,,,,,502.12179,121,left,peacock       ,2,5,1,0.87351,1,1,502.14395,502.14395,504.639115,0,43,43,43,1,121,2,1,peacock       ,radio       ,html/resources/sequences_IDs/A/05_peacock.jpg,html/resources/sequences_IDs/B/10_radio.jpg,5,10,2,1,4,2,4,8,0,61,,,,,,,,,,,,,,,,,,,,
,,,,,61,2020-07-04_17h33.16.335,retriever_ti,2020.1.3,Win32,60,Chrome,1366,768,,,,,,,,,,,,,,,,,2,,,,,,,,,,,,,,,,,,,,,,,,,,,505.7303,122,left,hat           ,6,8,3,0.609275,1,3,505.761595,505.761595,508.26002,0,44,44,44,1,122,6,3,hat           ,phone       ,html/resources/sequences_IDs/A/08_hat.jpg,html/resources/sequences_IDs/B/09_phone.jpg,8,9,3,2,4,2,6,7,0,61,,,,,,,,,,,,,,,,,,,,
,,,,,61,2020-07-04_17h33.16.335,retriever_ti,2020.1.3,Win32,60,Chrome,1366,768,,,,,,,,,,,,,,,,,2,,,,,,,,,,,,,,,,,,,,,,,,,,,508.873665,123,left,peacock       ,2,5,-1,0.50044,0,0,508.91185,508.91185,511.4047,0,45,45,45,1,123,2,3,peacock       ,phone       ,html/resources/sequences_IDs/A/05_peacock.jpg,html/resources/sequences_IDs/B/09_phone.jpg,5,9,2,1,4,2,4,7,0,61,,,,,,,,,,,,,,,,,,,,
,,,,,61,2020-07-04_17h33.16.335,retriever_ti,2020.1.3,Win32,60,Chrome,1366,768,,,,,,,,,,,,,,,,,2,,,,,,,,,,,,,,,,,,,,,,,,,,,512.509955,124,right,seaturtle     ,4,2,1,0.568175,1,1,512.55695,512.55695,515.0557,0,46,46,46,1,124,3,4,phone       ,seaturtle     ,html/resources/sequences_IDs/B/09_phone.jpg,html/resources/sequences_IDs/A/02_seaturtle.jpg,9,2,4,2,2,1,7,1,0,61,,,,,,,,,,,,,,,,,,,,
,,,,,61,2020-07-04_17h33.16.335,retriever_ti,2020.1.3,Win32,60,Chrome,1366,768,,,,,,,,,,,,,,,,,2,,,,,,,,,,,,,,,,,,,,,,,,,,,516.15779,125,left,seaturtle     ,4,2,2,0.60246,1,3,516.178405,516.178405,518.67322,0,47,47,47,1,125,4,2,seaturtle     ,peacock       ,html/resources/sequences_IDs/A/02_seaturtle.jpg,html/resources/sequences_IDs/A/05_peacock.jpg,2,5,2,1,2,1,1,4,0,61,,,,,,,,,,,,,,,,,,,,
,,,,,61,2020-07-04_17h33.16.335,retriever_ti,2020.1.3,Win32,60,Chrome,1366,768,,,,,,,,,,,,,,,,,2,,,,,,,,,,,,,,,,,,,,,,,,,,,519.77609,126,right,giraffe     ,5,3,4,0.4859,1,3,519.81172,519.81172,522.341505,0,48,48,48,1,126,1,5,radio       ,giraffe     ,html/resources/sequences_IDs/B/10_radio.jpg,html/resources/sequences_IDs/B/03_giraffe.jpg,10,3,4,2,1,1,8,2,0,61,,,,,,,,,,,,,,,,,,,,
,,,,,61,2020-07-04_17h33.16.335,retriever_ti,2020.1.3,Win32,60,Chrome,1366,768,,,,,,,,,,,,,,,,,2,,,,,,,,,,,,,,,,,,,,,,,,,,,522.95978,127,right,clownfish     ,8,4,1,0.66235,1,1,522.97898,522.97898,525.474725,0,49,49,49,1,127,7,8,sport_tshirt,clownfish     ,html/resources/sequences_IDs/B/07_sport_tshirt.jpg,html/resources/sequences_IDs/A/04_clownfish.jpg,7,4,3,2,2,1,5,3,0,61,,,,,,,,,,,,,,,,,,,,
,,,,,61,2020-07-04_17h33.16.335,retriever_ti,2020.1.3,Win32,60,Chrome,1366,768,,,,,,,,,,,,,,,,,2,,,,,,,,,,,,,,,,,,,,,,,,,,,526.56731,128,right,peacock       ,2,5,1,0.764715,1,1,526.59978,526.59978,529.09134,0,50,50,50,1,128,1,2,radio       ,peacock       ,html/resources/sequences_IDs/B/10_radio.jpg,html/resources/sequences_IDs/A/05_peacock.jpg,10,5,4,2,2,1,8,4,0,61,,,,,,,,,,,,,,,,,,,,
,,,,,61,2020-07-04_17h33.16.335,retriever_ti,2020.1.3,Win32,60,Chrome,1366,768,,,,,,,,,,,,,,,,,2,,,,,,,,,,,,,,,,,,,,,,,,,,,530.19407,129,right,sport_tshirt,7,7,4,0.60692,1,3,530.265235,530.265235,532.70865,0,51,51,51,1,129,3,7,phone       ,sport_tshirt,html/resources/sequences_IDs/B/09_phone.jpg,html/resources/sequences_IDs/B/07_sport_tshirt.jpg,9,7,4,2,3,2,7,5,0,61,,,,,,,,,,,,,,,,,,,,
,,,,,61,2020-07-04_17h33.16.335,retriever_ti,2020.1.3,Win32,60,Chrome,1366,768,,,,,,,,,,,,,,,,,2,,,,,,,,,,,,,,,,,,,,,,,,,,,533.33057,130,left,peacock       ,2,5,-4,0.967305,0,3,533.379265,533.379265,535.855175,0,52,52,52,1,130,2,6,peacock       ,hat           ,html/resources/sequences_IDs/A/05_peacock.jpg,html/resources/sequences_IDs/A/08_hat.jpg,5,8,2,1,3,2,4,6,0,61,,,,,,,,,,,,,,,,,,,,
,,,,,61,2020-07-04_17h33.16.335,retriever_ti,2020.1.3,Win32,60,Chrome,1366,768,,,,,,,,,,,,,,,,,2,,,,,,,,,,,,,,,,,,,,,,,,,,,536.46154,131,left,clownfish     ,8,4,1,0.92131,1,1,536.480045,536.480045,538.977945,0,53,53,53,1,131,8,7,clownfish     ,sport_tshirt,html/resources/sequences_IDs/A/04_clownfish.jpg,html/resources/sequences_IDs/B/07_sport_tshirt.jpg,4,7,2,1,3,2,3,5,0,61,,,,,,,,,,,,,,,,,,,,
,,,,,61,2020-07-04_17h33.16.335,retriever_ti,2020.1.3,Win32,60,Chrome,1366,768,,,,,,,,,,,,,,,,,2,,,,,,,,,,,,,,,,,,,,,,,,,,,540.078425,132,left,hat           ,6,8,2,0.753275,1,3,540.09674,540.09674,542.59397,0,54,54,54,1,132,6,4,hat           ,seaturtle     ,html/resources/sequences_IDs/A/08_hat.jpg,html/resources/sequences_IDs/A/02_seaturtle.jpg,8,2,3,2,2,1,6,1,0,61,,,,,,,,,,,,,,,,,,,,
,,,,,61,2020-07-04_17h33.16.335,retriever_ti,2020.1.3,Win32,60,Chrome,1366,768,,,,,,,,,,,,,,,,,2,,,,,,,,,,,,,,,,,,,,,,,,,,,543.19648,133,right,peacock       ,2,5,-5,0.732705,0,3,543.214635,543.214635,545.711935,0,55,55,55,1,133,7,2,sport_tshirt,peacock       ,html/resources/sequences_IDs/B/07_sport_tshirt.jpg,html/resources/sequences_IDs/A/05_peacock.jpg,7,5,3,2,2,1,5,4,0,61,,,,,,,,,,,,,,,,,,,,
,,,,,61,2020-07-04_17h33.16.335,retriever_ti,2020.1.3,Win32,60,Chrome,1366,768,,,,,,,,,,,,,,,,,2,,,,,,,,,,,,,,,,,,,,,,,,,,,546.31619,134,right,peacock       ,2,5,1,0.563255,1,1,546.37208,546.37208,548.867555,0,56,56,56,1,134,1,2,radio       ,peacock       ,html/resources/sequences_IDs/B/10_radio.jpg,html/resources/sequences_IDs/A/05_peacock.jpg,10,5,4,2,2,1,8,4,0,61,,,,,,,,,,,,,,,,,,,,
,,,,,61,2020-07-04_17h33.16.335,retriever_ti,2020.1.3,Win32,60,Chrome,1366,768,,,,,,,,,,,,,,,,,2,,,,,,,,,,,,,,,,,,,,,,,,,,,549.97014,135,left,hat           ,6,8,1,0.42371,1,1,550.0144,550.0144,552.50093,0,57,57,57,1,135,6,5,hat           ,giraffe     ,html/resources/sequences_IDs/A/08_hat.jpg,html/resources/sequences_IDs/B/03_giraffe.jpg,8,3,3,2,1,1,6,2,0,61,,,,,,,,,,,,,,,,,,,,
,,,,,61,2020-07-04_17h33.16.335,retriever_ti,2020.1.3,Win32,60,Chrome,1366,768,,,,,,,,,,,,,,,,,2,,,,,,,,,,,,,,,,,,,,,,,,,,,553.598295,136,right,hat           ,6,8,-2,0.412395,0,3,553.61706,553.61706,556.11798,0,58,58,58,1,136,8,6,clownfish     ,hat           ,html/resources/sequences_IDs/A/04_clownfish.jpg,html/resources/sequences_IDs/A/08_hat.jpg,4,8,2,1,3,2,3,6,0,61,,,,,,,,,,,,,,,,,,,,
,,,,,61,2020-07-04_17h33.16.335,retriever_ti,2020.1.3,Win32,60,Chrome,1366,768,,,,,,,,,,,,,,,,,2,,,,,,,,,,,,,,,,,,,,,,,,,,,556.857705,137,left,peacock       ,2,5,-6,0.686235,0,3,556.88337,556.88337,559.36964,0,59,59,59,1,137,2,8,peacock       ,clownfish     ,html/resources/sequences_IDs/A/05_peacock.jpg,html/resources/sequences_IDs/A/04_clownfish.jpg,5,4,2,1,2,1,4,3,0,61,,,,,,,,,,,,,,,,,,,,
,,,,,61,2020-07-04_17h33.16.335,retriever_ti,2020.1.3,Win32,60,Chrome,1366,768,,,,,,,,,,,,,,,,,2,,,,,,,,,,,,,,,,,,,,,,,,,,,560.24976,138,left,hat           ,6,8,5,0.554575,1,3,560.62075,560.62075,563.10738,0,60,60,60,1,138,6,1,hat           ,radio       ,html/resources/sequences_IDs/A/08_hat.jpg,html/resources/sequences_IDs/B/10_radio.jpg,8,10,3,2,4,2,6,8,0,61,,,,,,,,,,,,,,,,,,,,
,,,,,61,2020-07-04_17h33.16.335,retriever_ti,2020.1.3,Win32,60,Chrome,1366,768,,,,,,,,,,,,,,,,,2,,,,,,,,,,,,,,,,,,,,,,,,,,,563.717145,139,left,seaturtle     ,4,2,3,0.55124,1,3,563.750965,563.750965,566.24835,0,61,61,61,1,139,4,1,seaturtle     ,radio       ,html/resources/sequences_IDs/A/02_seaturtle.jpg,html/resources/sequences_IDs/B/10_radio.jpg,2,10,2,1,4,2,1,8,0,61,,,,,,,,,,,,,,,,,,,,
,,,,,61,2020-07-04_17h33.16.335,retriever_ti,2020.1.3,Win32,60,Chrome,1366,768,,,,,,,,,,,,,,,,,2,,,,,,,,,,,,,,,,,,,,,,,,,,,566.854665,140,right,radio       ,1,10,-2,0.48224,0,3,566.89223,566.89223,569.38304,0,62,62,62,1,140,3,1,phone       ,radio       ,html/resources/sequences_IDs/B/09_phone.jpg,html/resources/sequences_IDs/B/10_radio.jpg,9,10,4,2,4,2,7,8,0,61,,,,,,,,,,,,,,,,,,,,
,,,,,61,2020-07-04_17h33.16.335,retriever_ti,2020.1.3,Win32,60,Chrome,1366,768,,,,,,,,,,,,,,,,,2,,,,,,,,,,,,,,,,,,,,,,,,,,,570.004135,141,left,giraffe     ,5,3,1,0.50361,1,1,570.04213,570.04213,572.53297,0,63,63,63,1,141,5,4,giraffe     ,seaturtle     ,html/resources/sequences_IDs/B/03_giraffe.jpg,html/resources/sequences_IDs/A/02_seaturtle.jpg,3,2,1,1,2,1,2,1,0,61,,,,,,,,,,,,,,,,,,,,
,,,,,61,2020-07-04_17h33.16.335,retriever_ti,2020.1.3,Win32,60,Chrome,1366,768,,,,,,,,,,,,,,,,,2,,,,,,,,,,,,,,,,,,,,,,,,,,,573.634695,142,left,clownfish     ,8,4,7,0.561915,1,3,573.651965,573.651965,576.14056,0,64,64,64,1,142,8,1,clownfish     ,radio       ,html/resources/sequences_IDs/A/04_clownfish.jpg,html/resources/sequences_IDs/B/10_radio.jpg,4,10,2,1,4,2,3,8,0,61,,,,,,,,,,,,,,,,,,,,
,,,,,61,2020-07-04_17h33.16.335,retriever_ti,2020.1.3,Win32,60,Chrome,1366,768,,,,,,,,,,,,,,,,,2,,,,,,,,,,,,,,,,,,,,,,,,,,,576.75299,143,right,giraffe     ,5,3,-2,0.91422,0,3,576.794715,576.794715,579.28607,0,65,65,65,1,143,7,5,sport_tshirt,giraffe     ,html/resources/sequences_IDs/B/07_sport_tshirt.jpg,html/resources/sequences_IDs/B/03_giraffe.jpg,7,3,3,2,1,1,5,2,0,61,,,,,,,,,,,,,,,,,,,,
,,,,,61,2020-07-04_17h33.16.335,retriever_ti,2020.1.3,Win32,60,Chrome,1366,768,,,,,,,,,,,,,,,,,2,,,,,,,,,,,,,,,,,,,,,,,,,,,579.904575,144,left,peacock       ,2,5,1,0.58363,1,1,579.92447,579.92447,582.53388,0,66,66,66,1,144,2,1,peacock       ,radio       ,html/resources/sequences_IDs/A/05_peacock.jpg,html/resources/sequences_IDs/B/10_radio.jpg,5,10,2,1,4,2,4,8,0,61,,,,,,,,,,,,,,,,,,,,
,,,,,61,2020-07-04_17h33.16.335,retriever_ti,2020.1.3,Win32,60,Chrome,1366,768,,,,,,,,,,,,,,,,,2,,,,,,,,,,,,,,,,,,,,,,,,,,,583.623735,145,right,sport_tshirt,7,7,6,0.4864,1,3,583.643735,583.643735,586.13449,0,67,67,67,1,145,1,7,radio       ,sport_tshirt,html/resources/sequences_IDs/B/10_radio.jpg,html/resources/sequences_IDs/B/07_sport_tshirt.jpg,10,7,4,2,3,2,8,5,0,61,,,,,,,,,,,,,,,,,,,,
,,,,,61,2020-07-04_17h33.16.335,retriever_ti,2020.1.3,Win32,60,Chrome,1366,768,,,,,,,,,,,,,,,,,2,,,,,,,,,,,,,,,,,,,,,,,,,,,586.74477,146,right,giraffe     ,5,3,-3,0.555515,0,3,586.78573,586.78573,589.280565,0,68,68,68,1,146,8,5,clownfish     ,giraffe     ,html/resources/sequences_IDs/A/04_clownfish.jpg,html/resources/sequences_IDs/B/03_giraffe.jpg,4,3,2,1,1,1,3,2,0,61,,,,,,,,,,,,,,,,,,,,
,,,,,61,2020-07-04_17h33.16.335,retriever_ti,2020.1.3,Win32,60,Chrome,1366,768,,,,,,,,,,,,,,,,,2,,,,,,,,,,,,,,,,,,,,,,,,,,,589.90512,147,right,sport_tshirt,7,7,1,0.8552,1,1,589.91387,589.91387,592.40339,0,69,69,69,1,147,6,7,hat           ,sport_tshirt,html/resources/sequences_IDs/A/08_hat.jpg,html/resources/sequences_IDs/B/07_sport_tshirt.jpg,8,7,3,2,3,2,6,5,0,61,,,,,,,,,,,,,,,,,,,,
,,,,,61,2020-07-04_17h33.16.335,retriever_ti,2020.1.3,Win32,60,Chrome,1366,768,,,,,,,,,,,,,,,,,2,,,,,,,,,,,,,,,,,,,,,,,,,,,593.505115,148,right,peacock       ,2,5,-6,0.61739,0,3,593.539265,593.539265,596.03745,0,70,70,70,1,148,8,2,clownfish     ,peacock       ,html/resources/sequences_IDs/A/04_clownfish.jpg,html/resources/sequences_IDs/A/05_peacock.jpg,4,5,2,1,2,1,3,4,0,61,,,,,,,,,,,,,,,,,,,,
,,,,,61,2020-07-04_17h33.16.335,retriever_ti,2020.1.3,Win32,60,Chrome,1366,768,,,,,,,,,,,,,,,,,2,,,,,,,,,,,,,,,,,,,,,,,,,,,597.089095,149,right,peacock       ,2,5,-1,0.500685,0,0,597.111655,597.111655,599.610315,0,71,71,71,1,149,3,2,phone       ,peacock       ,html/resources/sequences_IDs/B/09_phone.jpg,html/resources/sequences_IDs/A/05_peacock.jpg,9,5,4,2,2,1,7,4,0,61,,,,,,,,,,,,,,,,,,,,
,,,,,61,2020-07-04_17h33.16.335,retriever_ti,2020.1.3,Win32,60,Chrome,1366,768,,,,,,,,,,,,,,,,,2,,,,,,,,,,,,,,,,,,,,,,,,,,,600.708575,150,left,giraffe     ,5,3,1,0.477105,1,1,600.74577,600.74577,603.239435,0,72,72,72,1,150,5,4,giraffe     ,seaturtle     ,html/resources/sequences_IDs/B/03_giraffe.jpg,html/resources/sequences_IDs/A/02_seaturtle.jpg,3,2,1,1,2,1,2,1,0,61,,,,,,,,,,,,,,,,,,,,
,,,,,61,2020-07-04_17h33.16.335,retriever_ti,2020.1.3,Win32,60,Chrome,1366,768,,,,,,,,,,,,,,,,,2,,,,,,,,,,,,,,,,,,,,,,,,,,,604.34441,151,left,sport_tshirt,7,7,4,0.52216,1,3,604.36258,604.36258,606.850765,0,73,73,73,1,151,7,3,sport_tshirt,phone       ,html/resources/sequences_IDs/B/07_sport_tshirt.jpg,html/resources/sequences_IDs/B/09_phone.jpg,7,9,3,2,4,2,5,7,0,61,,,,,,,,,,,,,,,,,,,,
,,,,,61,2020-07-04_17h33.16.335,retriever_ti,2020.1.3,Win32,60,Chrome,1366,768,,,,,,,,,,,,,,,,,2,,,,,,,,,,,,,,,,,,,,,,,,,,,607.458675,152,right,giraffe     ,5,3,-1,0.54962,0,0,607.49968,607.49968,609.98014,0,74,74,74,1,152,6,5,hat           ,giraffe     ,html/resources/sequences_IDs/A/08_hat.jpg,html/resources/sequences_IDs/B/03_giraffe.jpg,8,3,3,2,1,1,6,2,0,61,,,,,,,,,,,,,,,,,,,,
,,,,,61,2020-07-04_17h33.16.335,retriever_ti,2020.1.3,Win32,60,Chrome,1366,768,,,,,,,,,,,,,,,,,2,,,,,,,,,,,,,,,,,,,,,,,,,,,611.07898,153,right,peacock       ,2,5,-1,0.408045,0,0,611.111625,611.111625,613.59619,0,75,75,75,1,153,3,2,phone       ,peacock       ,html/resources/sequences_IDs/B/09_phone.jpg,html/resources/sequences_IDs/A/05_peacock.jpg,9,5,4,2,2,1,7,4,0,61,,,,,,,,,,,,,,,,,,,,
,,,,,61,2020-07-04_17h33.16.335,retriever_ti,2020.1.3,Win32,60,Chrome,1366,768,,,,,,,,,,,,,,,,,2,,,,,,,,,,,,,,,,,,,,,,,,,,,614.69255,154,right,phone       ,3,9,2,0.91996,1,3,614.70988,614.70988,617.210625,0,76,76,76,1,154,1,3,radio       ,phone       ,html/resources/sequences_IDs/B/10_radio.jpg,html/resources/sequences_IDs/B/09_phone.jpg,10,9,4,2,4,2,8,7,0,61,,,,,,,,,,,,,,,,,,,,
,,,,,61,2020-07-04_17h33.16.335,retriever_ti,2020.1.3,Win32,60,Chrome,1366,768,,,,,,,,,,,,,,,,,,,,,,,,,,,,,,,,,,,,,0,2.37975,,,,,,,,,,,,,,,,,,,,,,,,,,,,,,,,,,,,,,,,,1,0,1,0,1,,,,,,,,,,,,,,,
,,,,,61,2020-07-04_17h33.16.335,retriever_ti,2020.1.3,Win32,60,Chrome,1366,768,,,,,,,,,,,,,,,,,3,,,,,,,,,,,,,,,,,,,,,,,,,,,633.73946,155,left,peacock       ,2,5,1,0.867035,1,1,633.76387,633.76387,636.24999,0,0,0,0,1,155,2,1,peacock       ,radio       ,html/resources/sequences_IDs/A/05_peacock.jpg,html/resources/sequences_IDs/B/10_radio.jpg,5,10,2,1,4,2,4,8,0,61,,,,,,,,,,,,,,,,,,,,
,,,,,61,2020-07-04_17h33.16.335,retriever_ti,2020.1.3,Win32,60,Chrome,1366,768,,,,,,,,,,,,,,,,,3,,,,,,,,,,,,,,,,,,,,,,,,,,,637.351515,156,left,sport_tshirt,7,7,4,0.7099,1,3,637.36889,637.36889,639.86232,0,1,1,1,1,156,7,3,sport_tshirt,phone       ,html/resources/sequences_IDs/B/07_sport_tshirt.jpg,html/resources/sequences_IDs/B/09_phone.jpg,7,9,3,2,4,2,5,7,0,61,,,,,,,,,,,,,,,,,,,,
,,,,,61,2020-07-04_17h33.16.335,retriever_ti,2020.1.3,Win32,60,Chrome,1366,768,,,,,,,,,,,,,,,,,3,,,,,,,,,,,,,,,,,,,,,,,,,,,640.46459,157,left,hat           ,6,8,5,0.593645,1,3,640.49001,640.49001,642.979805,0,2,2,2,1,157,6,1,hat           ,radio       ,html/resources/sequences_IDs/A/08_hat.jpg,html/resources/sequences_IDs/B/10_radio.jpg,8,10,3,2,4,2,6,8,0,61,,,,,,,,,,,,,,,,,,,,
,,,,,61,2020-07-04_17h33.16.335,retriever_ti,2020.1.3,Win32,60,Chrome,1366,768,,,,,,,,,,,,,,,,,3,,,,,,,,,,,,,,,,,,,,,,,,,,,643.598935,158,left,sport_tshirt,7,7,-1,0.650405,0,0,643.61655,643.61655,646.11431,0,3,3,3,1,158,7,8,sport_tshirt,clownfish     ,html/resources/sequences_IDs/B/07_sport_tshirt.jpg,html/resources/sequences_IDs/A/04_clownfish.jpg,7,4,3,2,2,1,5,3,0,61,,,,,,,,,,,,,,,,,,,,
,,,,,61,2020-07-04_17h33.16.335,retriever_ti,2020.1.3,Win32,60,Chrome,1366,768,,,,,,,,,,,,,,,,,3,,,,,,,,,,,,,,,,,,,,,,,,,,,647.22024,159,left,peacock       ,2,5,1,0.60573,1,1,647.276685,647.276685,649.764305,0,4,4,4,1,159,2,1,peacock       ,radio       ,html/resources/sequences_IDs/A/05_peacock.jpg,html/resources/sequences_IDs/B/10_radio.jpg,5,10,2,1,4,2,4,8,0,61,,,,,,,,,,,,,,,,,,,,
,,,,,61,2020-07-04_17h33.16.335,retriever_ti,2020.1.3,Win32,60,Chrome,1366,768,,,,,,,,,,,,,,,,,3,,,,,,,,,,,,,,,,,,,,,,,,,,,650.866445,160,right,radio       ,1,10,-6,1.240745,0,3,650.883695,650.883695,653.37058,0,5,5,5,1,160,7,1,sport_tshirt,radio       ,html/resources/sequences_IDs/B/07_sport_tshirt.jpg,html/resources/sequences_IDs/B/10_radio.jpg,7,10,3,2,4,2,5,8,0,61,,,,,,,,,,,,,,,,,,,,
,,,,,61,2020-07-04_17h33.16.335,retriever_ti,2020.1.3,Win32,60,Chrome,1366,768,,,,,,,,,,,,,,,,,3,,,,,,,,,,,,,,,,,,,,,,,,,,,653.983445,161,left,clownfish     ,8,4,2,1.05553,1,3,654.021925,654.021925,656.51587,0,6,6,6,1,161,8,6,clownfish     ,hat           ,html/resources/sequences_IDs/A/04_clownfish.jpg,html/resources/sequences_IDs/A/08_hat.jpg,4,8,2,1,3,2,3,6,0,61,,,,,,,,,,,,,,,,,,,,
,,,,,61,2020-07-04_17h33.16.335,retriever_ti,2020.1.3,Win32,60,Chrome,1366,768,,,,,,,,,,,,,,,,,3,,,,,,,,,,,,,,,,,,,,,,,,,,,657.134105,162,left,sport_tshirt,7,7,-1,0.621825,0,0,657.1517,657.1517,659.64956,0,7,7,7,1,162,7,8,sport_tshirt,clownfish     ,html/resources/sequences_IDs/B/07_sport_tshirt.jpg,html/resources/sequences_IDs/A/04_clownfish.jpg,7,4,3,2,2,1,5,3,0,61,,,,,,,,,,,,,,,,,,,,
,,,,,61,2020-07-04_17h33.16.335,retriever_ti,2020.1.3,Win32,60,Chrome,1366,768,,,,,,,,,,,,,,,,,3,,,,,,,,,,,,,,,,,,,,,,,,,,,660.75145,163,right,peacock       ,2,5,-1,0.66291,0,0,660.78707,660.78707,663.273225,0,8,8,8,1,163,3,2,phone       ,peacock       ,html/resources/sequences_IDs/B/09_phone.jpg,html/resources/sequences_IDs/A/05_peacock.jpg,9,5,4,2,2,1,7,4,0,61,,,,,,,,,,,,,,,,,,,,
,,,,,61,2020-07-04_17h33.16.335,retriever_ti,2020.1.3,Win32,60,Chrome,1366,768,,,,,,,,,,,,,,,,,3,,,,,,,,,,,,,,,,,,,,,,,,,,,664.373625,164,right,sport_tshirt,7,7,1,1.003495,1,1,664.39057,664.39057,666.884255,0,9,9,9,1,164,6,7,hat           ,sport_tshirt,html/resources/sequences_IDs/A/08_hat.jpg,html/resources/sequences_IDs/B/07_sport_tshirt.jpg,8,7,3,2,3,2,6,5,0,61,,,,,,,,,,,,,,,,,,,,
,,,,,61,2020-07-04_17h33.16.335,retriever_ti,2020.1.3,Win32,60,Chrome,1366,768,,,,,,,,,,,,,,,,,3,,,,,,,,,,,,,,,,,,,,,,,,,,,667.985395,165,right,sport_tshirt,7,7,3,0.675715,1,3,668.003915,668.003915,670.51997,0,10,10,10,1,165,4,7,seaturtle     ,sport_tshirt,html/resources/sequences_IDs/A/02_seaturtle.jpg,html/resources/sequences_IDs/B/07_sport_tshirt.jpg,2,7,2,1,3,2,1,5,0,61,,,,,,,,,,,,,,,,,,,,
,,,,,61,2020-07-04_17h33.16.335,retriever_ti,2020.1.3,Win32,60,Chrome,1366,768,,,,,,,,,,,,,,,,,3,,,,,,,,,,,,,,,,,,,,,,,,,,,671.13699,166,left,peacock       ,2,5,-1,0.55181,0,0,671.171025,671.171025,673.66933,0,11,11,11,1,166,2,3,peacock       ,phone       ,html/resources/sequences_IDs/A/05_peacock.jpg,html/resources/sequences_IDs/B/09_phone.jpg,5,9,2,1,4,2,4,7,0,61,,,,,,,,,,,,,,,,,,,,
,,,,,61,2020-07-04_17h33.16.335,retriever_ti,2020.1.3,Win32,60,Chrome,1366,768,,,,,,,,,,,,,,,,,3,,,,,,,,,,,,,,,,,,,,,,,,,,,674.77053,167,right,peacock       ,2,5,-6,0.5722,0,3,674.805655,674.805655,677.303035,0,12,12,12,1,167,8,2,clownfish     ,peacock       ,html/resources/sequences_IDs/A/04_clownfish.jpg,html/resources/sequences_IDs/A/05_peacock.jpg,4,5,2,1,2,1,3,4,0,61,,,,,,,,,,,,,,,,,,,,
,,,,,61,2020-07-04_17h33.16.335,retriever_ti,2020.1.3,Win32,60,Chrome,1366,768,,,,,,,,,,,,,,,,,3,,,,,,,,,,,,,,,,,,,,,,,,,,,677.92223,168,left,giraffe     ,5,3,-1,0.704655,0,0,677.955935,677.955935,680.44236,0,13,13,13,1,168,5,6,giraffe     ,hat           ,html/resources/sequences_IDs/B/03_giraffe.jpg,html/resources/sequences_IDs/A/08_hat.jpg,3,8,1,1,3,2,2,6,0,61,,,,,,,,,,,,,,,,,,,,
,,,,,61,2020-07-04_17h33.16.335,retriever_ti,2020.1.3,Win32,60,Chrome,1366,768,,,,,,,,,,,,,,,,,3,,,,,,,,,,,,,,,,,,,,,,,,,,,681.5382,169,right,clownfish     ,8,4,5,0.544365,1,3,681.574195,681.574195,684.05947,0,14,14,14,1,169,3,8,phone       ,clownfish     ,html/resources/sequences_IDs/B/09_phone.jpg,html/resources/sequences_IDs/A/04_clownfish.jpg,9,4,4,2,2,1,7,3,0,61,,,,,,,,,,,,,,,,,,,,
,,,,,61,2020-07-04_17h33.16.335,retriever_ti,2020.1.3,Win32,60,Chrome,1366,768,,,,,,,,,,,,,,,,,3,,,,,,,,,,,,,,,,,,,,,,,,,,,684.680515,170,right,peacock       ,2,5,1,0.736455,1,1,684.7488,684.7488,687.242025,0,15,15,15,1,170,1,2,radio       ,peacock       ,html/resources/sequences_IDs/B/10_radio.jpg,html/resources/sequences_IDs/A/05_peacock.jpg,10,5,4,2,2,1,8,4,0,61,,,,,,,,,,,,,,,,,,,,
,,,,,61,2020-07-04_17h33.16.335,retriever_ti,2020.1.3,Win32,60,Chrome,1366,768,,,,,,,,,,,,,,,,,3,,,,,,,,,,,,,,,,,,,,,,,,,,,688.33927,171,left,hat           ,6,8,1,0.841175,1,1,688.358555,688.358555,690.855895,0,16,16,16,1,171,6,5,hat           ,giraffe     ,html/resources/sequences_IDs/A/08_hat.jpg,html/resources/sequences_IDs/B/03_giraffe.jpg,8,3,3,2,1,1,6,2,0,61,,,,,,,,,,,,,,,,,,,,
,,,,,61,2020-07-04_17h33.16.335,retriever_ti,2020.1.3,Win32,60,Chrome,1366,768,,,,,,,,,,,,,,,,,3,,,,,,,,,,,,,,,,,,,,,,,,,,,691.958285,172,right,hat           ,6,8,-1,1.14871,0,0,691.992485,691.992485,694.48979,0,17,17,17,1,172,7,6,sport_tshirt,hat           ,html/resources/sequences_IDs/B/07_sport_tshirt.jpg,html/resources/sequences_IDs/A/08_hat.jpg,7,8,3,2,3,2,5,6,0,61,,,,,,,,,,,,,,,,,,,,
,,,,,61,2020-07-04_17h33.16.335,retriever_ti,2020.1.3,Win32,60,Chrome,1366,768,,,,,,,,,,,,,,,,,3,,,,,,,,,,,,,,,,,,,,,,,,,,,695.591255,173,left,phone       ,3,9,-1,1.565445,0,0,695.62621,695.62621,698.12117,0,18,18,18,1,173,3,4,phone       ,seaturtle     ,html/resources/sequences_IDs/B/09_phone.jpg,html/resources/sequences_IDs/A/02_seaturtle.jpg,9,2,4,2,2,1,7,1,0,61,,,,,,,,,,,,,,,,,,,,
,,,,,61,2020-07-04_17h33.16.335,retriever_ti,2020.1.3,Win32,60,Chrome,1366,768,,,,,,,,,,,,,,,,,3,,,,,,,,,,,,,,,,,,,,,,,,,,,699.22622,174,right,giraffe     ,5,3,1,1.072395,1,1,699.328655,699.328655,701.733605,0,19,19,19,1,174,4,5,seaturtle     ,giraffe     ,html/resources/sequences_IDs/A/02_seaturtle.jpg,html/resources/sequences_IDs/B/03_giraffe.jpg,2,3,2,1,1,1,1,2,0,61,,,,,,,,,,,,,,,,,,,,
,,,,,61,2020-07-04_17h33.16.335,retriever_ti,2020.1.3,Win32,60,Chrome,1366,768,,,,,,,,,,,,,,,,,3,,,,,,,,,,,,,,,,,,,,,,,,,,,702.888435,175,left,giraffe     ,5,3,3,0.945395,1,3,702.897375,702.897375,705.392215,0,20,20,20,1,175,5,2,giraffe     ,peacock       ,html/resources/sequences_IDs/B/03_giraffe.jpg,html/resources/sequences_IDs/A/05_peacock.jpg,3,5,1,1,2,1,2,4,0,61,,,,,,,,,,,,,,,,,,,,
,,,,,61,2020-07-04_17h33.16.335,retriever_ti,2020.1.3,Win32,60,Chrome,1366,768,,,,,,,,,,,,,,,,,3,,,,,,,,,,,,,,,,,,,,,,,,,,,706.01018,176,left,phone       ,3,9,-1,1.2188,0,0,706.04398,706.04398,708.53778,0,21,21,21,1,176,3,4,phone       ,seaturtle     ,html/resources/sequences_IDs/B/09_phone.jpg,html/resources/sequences_IDs/A/02_seaturtle.jpg,9,2,4,2,2,1,7,1,0,61,,,,,,,,,,,,,,,,,,,,
,,,,,61,2020-07-04_17h33.16.335,retriever_ti,2020.1.3,Win32,60,Chrome,1366,768,,,,,,,,,,,,,,,,,3,,,,,,,,,,,,,,,,,,,,,,,,,,,709.627505,177,right,sport_tshirt,7,7,4,1.054365,1,3,709.64925,709.64925,712.143475,0,22,22,22,1,177,3,7,phone       ,sport_tshirt,html/resources/sequences_IDs/B/09_phone.jpg,html/resources/sequences_IDs/B/07_sport_tshirt.jpg,9,7,4,2,3,2,7,5,0,61,,,,,,,,,,,,,,,,,,,,
,,,,,61,2020-07-04_17h33.16.335,retriever_ti,2020.1.3,Win32,60,Chrome,1366,768,,,,,,,,,,,,,,,,,3,,,,,,,,,,,,,,,,,,,,,,,,,,,712.75275,178,left,sport_tshirt,7,7,5,0.70523,1,3,712.789595,712.789595,715.276975,0,23,23,23,1,178,7,2,sport_tshirt,peacock       ,html/resources/sequences_IDs/B/07_sport_tshirt.jpg,html/resources/sequences_IDs/A/05_peacock.jpg,7,5,3,2,2,1,5,4,0,61,,,,,,,,,,,,,,,,,,,,
,,,,,61,2020-07-04_17h33.16.335,retriever_ti,2020.1.3,Win32,60,Chrome,1366,768,,,,,,,,,,,,,,,,,3,,,,,,,,,,,,,,,,,,,,,,,,,,,715.894805,179,right,sport_tshirt,7,7,-1,0.77281,0,0,715.91416,715.91416,718.410855,0,24,24,24,1,179,8,7,clownfish     ,sport_tshirt,html/resources/sequences_IDs/A/04_clownfish.jpg,html/resources/sequences_IDs/B/07_sport_tshirt.jpg,4,7,2,1,3,2,3,5,0,61,,,,,,,,,,,,,,,,,,,,
,,,,,61,2020-07-04_17h33.16.335,retriever_ti,2020.1.3,Win32,60,Chrome,1366,768,,,,,,,,,,,,,,,,,3,,,,,,,,,,,,,,,,,,,,,,,,,,,719.51278,180,right,peacock       ,2,5,1,1.052965,1,1,719.53009,719.53009,722.02863,0,25,25,25,1,180,1,2,radio       ,peacock       ,html/resources/sequences_IDs/B/10_radio.jpg,html/resources/sequences_IDs/A/05_peacock.jpg,10,5,4,2,2,1,8,4,0,61,,,,,,,,,,,,,,,,,,,,
,,,,,61,2020-07-04_17h33.16.335,retriever_ti,2020.1.3,Win32,60,Chrome,1366,768,,,,,,,,,,,,,,,,,3,,,,,,,,,,,,,,,,,,,,,,,,,,,723.133415,181,left,hat           ,6,8,4,1.434635,1,3,723.169225,723.169225,725.668635,0,26,26,26,1,181,6,2,hat           ,peacock       ,html/resources/sequences_IDs/A/08_hat.jpg,html/resources/sequences_IDs/A/05_peacock.jpg,8,5,3,2,2,1,6,4,0,61,,,,,,,,,,,,,,,,,,,,
,,,,,61,2020-07-04_17h33.16.335,retriever_ti,2020.1.3,Win32,60,Chrome,1366,768,,,,,,,,,,,,,,,,,3,,,,,,,,,,,,,,,,,,,,,,,,,,,726.28773,182,right,hat           ,6,8,4,0.929475,1,3,726.32233,726.32233,728.812555,0,27,27,27,1,182,2,6,peacock       ,hat           ,html/resources/sequences_IDs/A/05_peacock.jpg,html/resources/sequences_IDs/A/08_hat.jpg,5,8,2,1,3,2,4,6,0,61,,,,,,,,,,,,,,,,,,,,
,,,,,61,2020-07-04_17h33.16.335,retriever_ti,2020.1.3,Win32,60,Chrome,1366,768,,,,,,,,,,,,,,,,,3,,,,,,,,,,,,,,,,,,,,,,,,,,,729.41464,183,right,giraffe     ,5,3,3,1.242805,1,3,729.436425,729.436425,731.930145,0,28,28,28,1,183,2,5,peacock       ,giraffe     ,html/resources/sequences_IDs/A/05_peacock.jpg,html/resources/sequences_IDs/B/03_giraffe.jpg,5,3,2,1,1,1,4,2,0,61,,,,,,,,,,,,,,,,,,,,
,,,,,61,2020-07-04_17h33.16.335,retriever_ti,2020.1.3,Win32,60,Chrome,1366,768,,,,,,,,,,,,,,,,,3,,,,,,,,,,,,,,,,,,,,,,,,,,,732.552685,184,left,clownfish     ,8,4,4,0.967515,1,3,732.592075,732.592075,735.08801,0,29,29,29,1,184,8,4,clownfish     ,seaturtle     ,html/resources/sequences_IDs/A/04_clownfish.jpg,html/resources/sequences_IDs/A/02_seaturtle.jpg,4,2,2,1,2,1,3,1,0,61,,,,,,,,,,,,,,,,,,,,
,,,,,61,2020-07-04_17h33.16.335,retriever_ti,2020.1.3,Win32,60,Chrome,1366,768,,,,,,,,,,,,,,,,,3,,,,,,,,,,,,,,,,,,,,,,,,,,,735.6985,185,left,clownfish     ,8,4,3,1.163165,1,3,735.71901,735.71901,738.21254,0,30,30,30,1,185,8,5,clownfish     ,giraffe     ,html/resources/sequences_IDs/A/04_clownfish.jpg,html/resources/sequences_IDs/B/03_giraffe.jpg,4,3,2,1,1,1,3,2,0,61,,,,,,,,,,,,,,,,,,,,
,,,,,61,2020-07-04_17h33.16.335,retriever_ti,2020.1.3,Win32,60,Chrome,1366,768,,,,,,,,,,,,,,,,,3,,,,,,,,,,,,,,,,,,,,,,,,,,,738.82816,186,right,phone       ,3,9,-1,1.636535,0,0,738.86552,738.86552,741.35039,0,31,31,31,1,186,4,3,seaturtle     ,phone       ,html/resources/sequences_IDs/A/02_seaturtle.jpg,html/resources/sequences_IDs/B/09_phone.jpg,2,9,2,1,4,2,1,7,0,61,,,,,,,,,,,,,,,,,,,,
,,,,,61,2020-07-04_17h33.16.335,retriever_ti,2020.1.3,Win32,60,Chrome,1366,768,,,,,,,,,,,,,,,,,3,,,,,,,,,,,,,,,,,,,,,,,,,,,742.439505,187,left,seaturtle     ,4,2,1,0.62987,1,0,742.45596,742.45596,744.949625,0,32,32,32,1,187,4,3,seaturtle     ,phone       ,html/resources/sequences_IDs/A/02_seaturtle.jpg,html/resources/sequences_IDs/B/09_phone.jpg,2,9,2,1,4,2,1,7,1,61,,,,,,,,,,,,,,,,,,,,
,,,,,61,2020-07-04_17h33.16.335,retriever_ti,2020.1.3,Win32,60,Chrome,1366,768,,,,,,,,,,,,,,,,,3,,,,,,,,,,,,,,,,,,,,,,,,,,,746.05933,188,right,sport_tshirt,7,7,6,1.01656,1,3,746.08727,746.08727,748.572185,0,33,33,33,1,188,1,7,radio       ,sport_tshirt,html/resources/sequences_IDs/B/10_radio.jpg,html/resources/sequences_IDs/B/07_sport_tshirt.jpg,10,7,4,2,3,2,8,5,0,61,,,,,,,,,,,,,,,,,,,,
,,,,,61,2020-07-04_17h33.16.335,retriever_ti,2020.1.3,Win32,60,Chrome,1366,768,,,,,,,,,,,,,,,,,3,,,,,,,,,,,,,,,,,,,,,,,,,,,749.18677,189,left,seaturtle     ,4,2,1,1.16346,1,1,749.20711,749.20711,751.710035,0,34,34,34,1,189,4,3,seaturtle     ,phone       ,html/resources/sequences_IDs/A/02_seaturtle.jpg,html/resources/sequences_IDs/B/09_phone.jpg,2,9,2,1,4,2,1,7,0,61,,,,,,,,,,,,,,,,,,,,
,,,,,61,2020-07-04_17h33.16.335,retriever_ti,2020.1.3,Win32,60,Chrome,1366,768,,,,,,,,,,,,,,,,,3,,,,,,,,,,,,,,,,,,,,,,,,,,,752.80976,190,right,hat           ,6,8,1,1.229935,1,1,752.861045,752.861045,755.34392,0,35,35,35,1,190,5,6,giraffe     ,hat           ,html/resources/sequences_IDs/B/03_giraffe.jpg,html/resources/sequences_IDs/A/08_hat.jpg,3,8,1,1,3,2,2,6,0,61,,,,,,,,,,,,,,,,,,,,
,,,,,61,2020-07-04_17h33.16.335,retriever_ti,2020.1.3,Win32,60,Chrome,1366,768,,,,,,,,,,,,,,,,,3,,,,,,,,,,,,,,,,,,,,,,,,,,,756.44068,191,right,hat           ,6,8,1,0.528075,1,0,756.478105,756.478105,758.958915,0,36,36,36,1,191,5,6,giraffe     ,hat           ,html/resources/sequences_IDs/B/03_giraffe.jpg,html/resources/sequences_IDs/A/08_hat.jpg,3,8,1,1,3,2,2,6,1,61,,,,,,,,,,,,,,,,,,,,
,,,,,61,2020-07-04_17h33.16.335,retriever_ti,2020.1.3,Win32,60,Chrome,1366,768,,,,,,,,,,,,,,,,,3,,,,,,,,,,,,,,,,,,,,,,,,,,,760.054495,192,left,peacock       ,2,5,-1,0.627035,0,0,760.089405,760.089405,762.586195,0,37,37,37,1,192,2,3,peacock       ,phone       ,html/resources/sequences_IDs/A/05_peacock.jpg,html/resources/sequences_IDs/B/09_phone.jpg,5,9,2,1,4,2,4,7,0,61,,,,,,,,,,,,,,,,,,,,
,,,,,61,2020-07-04_17h33.16.335,retriever_ti,2020.1.3,Win32,60,Chrome,1366,768,,,,,,,,,,,,,,,,,3,,,,,,,,,,,,,,,,,,,,,,,,,,,763.68765,193,left,hat           ,6,8,-2,0.561625,0,3,763.70681,763.70681,766.193885,0,38,38,38,1,193,6,8,hat           ,clownfish     ,html/resources/sequences_IDs/A/08_hat.jpg,html/resources/sequences_IDs/A/04_clownfish.jpg,8,4,3,2,2,1,6,3,0,61,,,,,,,,,,,,,,,,,,,,
,,,,,61,2020-07-04_17h33.16.335,retriever_ti,2020.1.3,Win32,60,Chrome,1366,768,,,,,,,,,,,,,,,,,3,,,,,,,,,,,,,,,,,,,,,,,,,,,766.805525,194,left,giraffe     ,5,3,1,0.7168,1,1,766.8259,766.8259,769.32061,0,39,39,39,1,194,5,4,giraffe     ,seaturtle     ,html/resources/sequences_IDs/B/03_giraffe.jpg,html/resources/sequences_IDs/A/02_seaturtle.jpg,3,2,1,1,2,1,2,1,0,61,,,,,,,,,,,,,,,,,,,,
,,,,,61,2020-07-04_17h33.16.335,retriever_ti,2020.1.3,Win32,60,Chrome,1366,768,,,,,,,,,,,,,,,,,3,,,,,,,,,,,,,,,,,,,,,,,,,,,770.42247,195,left,clownfish     ,8,4,1,0.73423,1,0,770.458115,770.458115,772.944225,0,40,40,40,1,195,8,7,clownfish     ,sport_tshirt,html/resources/sequences_IDs/A/04_clownfish.jpg,html/resources/sequences_IDs/B/07_sport_tshirt.jpg,4,7,2,1,3,2,3,5,1,61,,,,,,,,,,,,,,,,,,,,
,,,,,61,2020-07-04_17h33.16.335,retriever_ti,2020.1.3,Win32,60,Chrome,1366,768,,,,,,,,,,,,,,,,,3,,,,,,,,,,,,,,,,,,,,,,,,,,,774.041,196,right,sport_tshirt,7,7,2,1.06711,1,3,774.06164,774.06164,776.5553,0,41,41,41,1,196,5,7,giraffe     ,sport_tshirt,html/resources/sequences_IDs/B/03_giraffe.jpg,html/resources/sequences_IDs/B/07_sport_tshirt.jpg,3,7,1,1,3,2,2,5,0,61,,,,,,,,,,,,,,,,,,,,
,,,,,61,2020-07-04_17h33.16.335,retriever_ti,2020.1.3,Win32,60,Chrome,1366,768,,,,,,,,,,,,,,,,,3,,,,,,,,,,,,,,,,,,,,,,,,,,,777.1732,197,left,clownfish     ,8,4,5,0.600495,1,3,777.215805,777.215805,779.706095,0,42,42,42,1,197,8,3,clownfish     ,phone       ,html/resources/sequences_IDs/A/04_clownfish.jpg,html/resources/sequences_IDs/B/09_phone.jpg,4,9,2,1,4,2,3,7,0,61,,,,,,,,,,,,,,,,,,,,
,,,,,61,2020-07-04_17h33.16.335,retriever_ti,2020.1.3,Win32,60,Chrome,1366,768,,,,,,,,,,,,,,,,,3,,,,,,,,,,,,,,,,,,,,,,,,,,,780.30971,198,left,peacock       ,2,5,-1,0.522175,0,1,780.34386,780.34386,782.83991,0,43,43,43,1,198,2,3,peacock       ,phone       ,html/resources/sequences_IDs/A/05_peacock.jpg,html/resources/sequences_IDs/B/09_phone.jpg,5,9,2,1,4,2,4,7,1,61,,,,,,,,,,,,,,,,,,,,
,,,,,61,2020-07-04_17h33.16.335,retriever_ti,2020.1.3,Win32,60,Chrome,1366,768,,,,,,,,,,,,,,,,,3,,,,,,,,,,,,,,,,,,,,,,,,,,,783.941365,199,left,giraffe     ,5,3,2,0.811765,1,3,783.98403,783.98403,786.470565,0,44,44,44,1,199,5,3,giraffe     ,phone       ,html/resources/sequences_IDs/B/03_giraffe.jpg,html/resources/sequences_IDs/B/09_phone.jpg,3,9,1,1,4,2,2,7,0,61,,,,,,,,,,,,,,,,,,,,
,,,,,61,2020-07-04_17h33.16.335,retriever_ti,2020.1.3,Win32,60,Chrome,1366,768,,,,,,,,,,,,,,,,,3,,,,,,,,,,,,,,,,,,,,,,,,,,,787.07691,200,left,hat           ,6,8,-1,1.07012,0,0,787.09866,787.09866,789.591595,0,45,45,45,1,200,6,7,hat           ,sport_tshirt,html/resources/sequences_IDs/A/08_hat.jpg,html/resources/sequences_IDs/B/07_sport_tshirt.jpg,8,7,3,2,3,2,6,5,0,61,,,,,,,,,,,,,,,,,,,,
,,,,,61,2020-07-04_17h33.16.335,retriever_ti,2020.1.3,Win32,60,Chrome,1366,768,,,,,,,,,,,,,,,,,3,,,,,,,,,,,,,,,,,,,,,,,,,,,790.69635,201,left,sport_tshirt,7,7,1,0.923885,1,1,790.727175,790.727175,793.2264,0,46,46,46,1,201,7,6,sport_tshirt,hat           ,html/resources/sequences_IDs/B/07_sport_tshirt.jpg,html/resources/sequences_IDs/A/08_hat.jpg,7,8,3,2,3,2,5,6,0,61,,,,,,,,,,,,,,,,,,,,
,,,,,61,2020-07-04_17h33.16.335,retriever_ti,2020.1.3,Win32,60,Chrome,1366,768,,,,,,,,,,,,,,,,,3,,,,,,,,,,,,,,,,,,,,,,,,,,,794.32483,202,right,peacock       ,2,5,-2,1.058665,0,3,794.349915,794.349915,796.848195,0,47,47,47,1,202,4,2,seaturtle     ,peacock       ,html/resources/sequences_IDs/A/02_seaturtle.jpg,html/resources/sequences_IDs/A/05_peacock.jpg,2,5,2,1,2,1,1,4,0,61,,,,,,,,,,,,,,,,,,,,
,,,,,61,2020-07-04_17h33.16.335,retriever_ti,2020.1.3,Win32,60,Chrome,1366,768,,,,,,,,,,,,,,,,,3,,,,,,,,,,,,,,,,,,,,,,,,,,,797.69328,203,left,seaturtle     ,4,2,3,0.96603,1,3,797.78893,797.78893,800.28556,0,48,48,48,1,203,4,1,seaturtle     ,radio       ,html/resources/sequences_IDs/A/02_seaturtle.jpg,html/resources/sequences_IDs/B/10_radio.jpg,2,10,2,1,4,2,1,8,0,61,,,,,,,,,,,,,,,,,,,,
,,,,,61,2020-07-04_17h33.16.335,retriever_ti,2020.1.3,Win32,60,Chrome,1366,768,,,,,,,,,,,,,,,,,3,,,,,,,,,,,,,,,,,,,,,,,,,,,800.89885,204,left,clownfish     ,8,4,7,0.656825,1,3,800.9334,800.9334,803.43202,0,49,49,49,1,204,8,1,clownfish     ,radio       ,html/resources/sequences_IDs/A/04_clownfish.jpg,html/resources/sequences_IDs/B/10_radio.jpg,4,10,2,1,4,2,3,8,0,61,,,,,,,,,,,,,,,,,,,,
,,,,,61,2020-07-04_17h33.16.335,retriever_ti,2020.1.3,Win32,60,Chrome,1366,768,,,,,,,,,,,,,,,,,3,,,,,,,,,,,,,,,,,,,,,,,,,,,804.049615,205,right,phone       ,3,9,2,1.294565,1,3,804.085195,804.085195,806.576765,0,50,50,50,1,205,1,3,radio       ,phone       ,html/resources/sequences_IDs/B/10_radio.jpg,html/resources/sequences_IDs/B/09_phone.jpg,10,9,4,2,4,2,8,7,0,61,,,,,,,,,,,,,,,,,,,,
,,,,,61,2020-07-04_17h33.16.335,retriever_ti,2020.1.3,Win32,60,Chrome,1366,768,,,,,,,,,,,,,,,,,3,,,,,,,,,,,,,,,,,,,,,,,,,,,807.179955,206,right,clownfish     ,8,4,6,0.88992,1,3,807.22362,807.22362,809.71222,0,51,51,51,1,206,2,8,peacock       ,clownfish     ,html/resources/sequences_IDs/A/05_peacock.jpg,html/resources/sequences_IDs/A/04_clownfish.jpg,5,4,2,1,2,1,4,3,0,61,,,,,,,,,,,,,,,,,,,,
,,,,,61,2020-07-04_17h33.16.335,retriever_ti,2020.1.3,Win32,60,Chrome,1366,768,,,,,,,,,,,,,,,,,3,,,,,,,,,,,,,,,,,,,,,,,,,,,810.33,207,left,giraffe     ,5,3,1,0.57057,1,1,810.358125,810.358125,812.84611,0,52,52,52,1,207,5,4,giraffe     ,seaturtle     ,html/resources/sequences_IDs/B/03_giraffe.jpg,html/resources/sequences_IDs/A/02_seaturtle.jpg,3,2,1,1,2,1,2,1,0,61,,,,,,,,,,,,,,,,,,,,
,,,,,61,2020-07-04_17h33.16.335,retriever_ti,2020.1.3,Win32,60,Chrome,1366,768,,,,,,,,,,,,,,,,,3,,,,,,,,,,,,,,,,,,,,,,,,,,,813.95678,208,right,giraffe     ,5,3,1,0.586445,1,1,813.980015,813.980015,816.471225,0,53,53,53,1,208,4,5,seaturtle     ,giraffe     ,html/resources/sequences_IDs/A/02_seaturtle.jpg,html/resources/sequences_IDs/B/03_giraffe.jpg,2,3,2,1,1,1,1,2,0,61,,,,,,,,,,,,,,,,,,,,
,,,,,61,2020-07-04_17h33.16.335,retriever_ti,2020.1.3,Win32,60,Chrome,1366,768,,,,,,,,,,,,,,,,,3,,,,,,,,,,,,,,,,,,,,,,,,,,,817.56493,209,left,sport_tshirt,7,7,1,1.37732,1,0,817.59544,817.59544,820.07564,0,54,54,54,1,209,7,6,sport_tshirt,hat           ,html/resources/sequences_IDs/B/07_sport_tshirt.jpg,html/resources/sequences_IDs/A/08_hat.jpg,7,8,3,2,3,2,5,6,1,61,,,,,,,,,,,,,,,,,,,,
,,,,,61,2020-07-04_17h33.16.335,retriever_ti,2020.1.3,Win32,60,Chrome,1366,768,,,,,,,,,,,,,,,,,3,,,,,,,,,,,,,,,,,,,,,,,,,,,821.172285,210,right,peacock       ,2,5,-1,0.87656,0,0,821.216095,821.216095,823.715295,0,55,55,55,1,210,3,2,phone       ,peacock       ,html/resources/sequences_IDs/B/09_phone.jpg,html/resources/sequences_IDs/A/05_peacock.jpg,9,5,4,2,2,1,7,4,0,61,,,,,,,,,,,,,,,,,,,,
,,,,,61,2020-07-04_17h33.16.335,retriever_ti,2020.1.3,Win32,60,Chrome,1366,768,,,,,,,,,,,,,,,,,3,,,,,,,,,,,,,,,,,,,,,,,,,,,824.816235,211,left,peacock       ,2,5,-2,1.30605,0,3,824.834515,824.834515,827.320535,0,56,56,56,1,211,2,4,peacock       ,seaturtle     ,html/resources/sequences_IDs/A/05_peacock.jpg,html/resources/sequences_IDs/A/02_seaturtle.jpg,5,2,2,1,2,1,4,1,0,61,,,,,,,,,,,,,,,,,,,,
,,,,,61,2020-07-04_17h33.16.335,retriever_ti,2020.1.3,Win32,60,Chrome,1366,768,,,,,,,,,,,,,,,,,3,,,,,,,,,,,,,,,,,,,,,,,,,,,827.92893,212,right,hat           ,6,8,3,1.359315,1,3,827.95321,827.95321,830.449535,0,57,57,57,1,212,3,6,phone       ,hat           ,html/resources/sequences_IDs/B/09_phone.jpg,html/resources/sequences_IDs/A/08_hat.jpg,9,8,4,2,3,2,7,6,0,61,,,,,,,,,,,,,,,,,,,,
,,,,,61,2020-07-04_17h33.16.335,retriever_ti,2020.1.3,Win32,60,Chrome,1366,768,,,,,,,,,,,,,,,,,3,,,,,,,,,,,,,,,,,,,,,,,,,,,831.07169,213,left,giraffe     ,5,3,4,0.723505,1,3,831.111805,831.111805,833.59339,0,58,58,58,1,213,5,1,giraffe     ,radio       ,html/resources/sequences_IDs/B/03_giraffe.jpg,html/resources/sequences_IDs/B/10_radio.jpg,3,10,1,1,4,2,2,8,0,61,,,,,,,,,,,,,,,,,,,,
,,,,,61,2020-07-04_17h33.16.335,retriever_ti,2020.1.3,Win32,60,Chrome,1366,768,,,,,,,,,,,,,,,,,3,,,,,,,,,,,,,,,,,,,,,,,,,,,834.201715,214,right,giraffe     ,5,3,2,0.82079,1,3,834.225445,834.225445,836.705735,0,59,59,59,1,214,3,5,phone       ,giraffe     ,html/resources/sequences_IDs/B/09_phone.jpg,html/resources/sequences_IDs/B/03_giraffe.jpg,9,3,4,2,1,1,7,2,0,61,,,,,,,,,,,,,,,,,,,,
,,,,,61,2020-07-04_17h33.16.335,retriever_ti,2020.1.3,Win32,60,Chrome,1366,768,,,,,,,,,,,,,,,,,3,,,,,,,,,,,,,,,,,,,,,,,,,,,837.321165,215,right,giraffe     ,5,3,4,0.803345,1,3,837.34161,837.34161,839.824665,0,60,60,60,1,215,1,5,radio       ,giraffe     ,html/resources/sequences_IDs/B/10_radio.jpg,html/resources/sequences_IDs/B/03_giraffe.jpg,10,3,4,2,1,1,8,2,0,61,,,,,,,,,,,,,,,,,,,,
,,,,,61,2020-07-04_17h33.16.335,retriever_ti,2020.1.3,Win32,60,Chrome,1366,768,,,,,,,,,,,,,,,,,3,,,,,,,,,,,,,,,,,,,,,,,,,,,840.441685,216,left,clownfish     ,8,4,1,0.984015,1,1,840.45938,840.45938,842.95201,0,61,61,61,1,216,8,7,clownfish     ,sport_tshirt,html/resources/sequences_IDs/A/04_clownfish.jpg,html/resources/sequences_IDs/B/07_sport_tshirt.jpg,4,7,2,1,3,2,3,5,0,61,,,,,,,,,,,,,,,,,,,,
,,,,,61,2020-07-04_17h33.16.335,retriever_ti,2020.1.3,Win32,60,Chrome,1366,768,,,,,,,,,,,,,,,,,3,,,,,,,,,,,,,,,,,,,,,,,,,,,844.06903,217,right,sport_tshirt,7,7,5,0.803185,1,3,844.111535,844.111535,846.619015,0,62,62,62,1,217,2,7,peacock       ,sport_tshirt,html/resources/sequences_IDs/A/05_peacock.jpg,html/resources/sequences_IDs/B/07_sport_tshirt.jpg,5,7,2,1,3,2,4,5,0,61,,,,,,,,,,,,,,,,,,,,
,,,,,61,2020-07-04_17h33.16.335,retriever_ti,2020.1.3,Win32,60,Chrome,1366,768,,,,,,,,,,,,,,,,,3,,,,,,,,,,,,,,,,,,,,,,,,,,,847.232365,218,left,peacock       ,2,5,1,1.05858,1,0,847.266105,847.266105,849.736075,0,63,63,63,1,218,2,1,peacock       ,radio       ,html/resources/sequences_IDs/A/05_peacock.jpg,html/resources/sequences_IDs/B/10_radio.jpg,5,10,2,1,4,2,4,8,1,61,,,,,,,,,,,,,,,,,,,,
,,,,,61,2020-07-04_17h33.16.335,retriever_ti,2020.1.3,Win32,60,Chrome,1366,768,,,,,,,,,,,,,,,,,3,,,,,,,,,,,,,,,,,,,,,,,,,,,850.83768,219,left,giraffe     ,5,3,-3,1.02772,0,3,850.85648,850.85648,853.34755,0,64,64,64,1,219,5,8,giraffe     ,clownfish     ,html/resources/sequences_IDs/B/03_giraffe.jpg,html/resources/sequences_IDs/A/04_clownfish.jpg,3,4,1,1,2,1,2,3,0,61,,,,,,,,,,,,,,,,,,,,
,,,,,61,2020-07-04_17h33.16.335,retriever_ti,2020.1.3,Win32,60,Chrome,1366,768,,,,,,,,,,,,,,,,,3,,,,,,,,,,,,,,,,,,,,,,,,,,,853.95599,220,right,hat           ,6,8,5,0.68184,1,3,853.990745,853.990745,856.47771,0,65,65,65,1,220,1,6,radio       ,hat           ,html/resources/sequences_IDs/B/10_radio.jpg,html/resources/sequences_IDs/A/08_hat.jpg,10,8,4,2,3,2,8,6,0,61,,,,,,,,,,,,,,,,,,,,
,,,,,61,2020-07-04_17h33.16.335,retriever_ti,2020.1.3,Win32,60,Chrome,1366,768,,,,,,,,,,,,,,,,,3,,,,,,,,,,,,,,,,,,,,,,,,,,,857.082735,221,right,clownfish     ,8,4,7,0.94081,1,3,857.09962,857.09962,859.59319,0,66,66,66,1,221,1,8,radio       ,clownfish     ,html/resources/sequences_IDs/B/10_radio.jpg,html/resources/sequences_IDs/A/04_clownfish.jpg,10,4,4,2,2,1,8,3,0,61,,,,,,,,,,,,,,,,,,,,
,,,,,61,2020-07-04_17h33.16.335,retriever_ti,2020.1.3,Win32,60,Chrome,1366,768,,,,,,,,,,,,,,,,,3,,,,,,,,,,,,,,,,,,,,,,,,,,,860.207605,222,right,giraffe     ,5,3,-2,0.64631,0,3,860.238325,860.238325,862.72188,0,67,67,67,1,222,7,5,sport_tshirt,giraffe     ,html/resources/sequences_IDs/B/07_sport_tshirt.jpg,html/resources/sequences_IDs/B/03_giraffe.jpg,7,3,3,2,1,1,5,2,0,61,,,,,,,,,,,,,,,,,,,,
,,,,,61,2020-07-04_17h33.16.335,retriever_ti,2020.1.3,Win32,60,Chrome,1366,768,,,,,,,,,,,,,,,,,3,,,,,,,,,,,,,,,,,,,,,,,,,,,863.32658,223,right,radio       ,1,10,-2,0.797295,0,3,863.36244,863.36244,865.855865,0,68,68,68,1,223,3,1,phone       ,radio       ,html/resources/sequences_IDs/B/09_phone.jpg,html/resources/sequences_IDs/B/10_radio.jpg,9,10,4,2,4,2,7,8,0,61,,,,,,,,,,,,,,,,,,,,
,,,,,61,2020-07-04_17h33.16.335,retriever_ti,2020.1.3,Win32,60,Chrome,1366,768,,,,,,,,,,,,,,,,,3,,,,,,,,,,,,,,,,,,,,,,,,,,,866.474715,224,right,clownfish     ,8,4,4,0.63112,1,3,866.509655,866.509655,868.994855,0,69,69,69,1,224,4,8,seaturtle     ,clownfish     ,html/resources/sequences_IDs/A/02_seaturtle.jpg,html/resources/sequences_IDs/A/04_clownfish.jpg,2,4,2,1,2,1,1,3,0,61,,,,,,,,,,,,,,,,,,,,
