instructionsLoop.thisRepN,instructionsLoop.thisTrialN,instructionsLoop.thisN,instructionsLoop.thisIndex,instructionsLoop.ran,participant,date,expName,psychopyVersion,OS,frameRate,browser,xResolution,yResolution,fix_onset,tprac,practiceKey.keys,practiceKey.rt,pracitem_chosen_name,acc_practice,P1_onsetPrac,P2_onsetPrac,onsetFeedbPrac,practiceTrials.thisRepN,practiceTrials.thisTrialN,practiceTrials.thisN,practiceTrials.thisIndex,practiceTrials.ran,P1,P2,Block,LocItem1,LocItem2,NameItem1,NameItem2,key_respAC_prac.keys,key_respAC_prac.corr,key_respAC_prac.rt,AC_acc,Attentions.thisRepN,Attentions.thisTrialN,Attentions.thisN,Attentions.thisIndex,Attentions.ran,Stim,Loc1,Loc2,Loc3,Loc4,CorrAns,keyDisturbed.keys,keyDisturbed.rt,repPractice.thisRepN,repPractice.thisTrialN,repPractice.thisN,repPractice.thisIndex,repPractice.ran,fixcross_onsetMain,trialNumber,key_resp.keys,key_resp.rt,item_chosen_name,item_chosen_value,item_chosen_ID,diff_chosen_minus_reject,acc_real,acc_feedback,P1_onset,P2_onset,feedb_onset,trials.thisRepN,trials.thisTrialN,trials.thisN,trials.thisIndex,trials.ran,Trial,ValueP1,ValueP2,P1name,P2name,P1Loc,P2Loc,P1id,P2id,Micro_categoryP1,Macro_categoryP1,Micro_categoryP2,Macro_categoryP2,ID_sequenceP1,ID_sequenceP2,InverseFb,pNumber
0,0,0,0,1,61,2020-07-04_17h29.53.660,retriever_ti,2020.1.3,MacIntel,60,Chrome,1440,900,,,,,,,,,,,,,,,,,,,,,,,,,,,,,,,,,,,,,,,,,,,,,,,,,,,,,,,,,,,,,,,,,,,,,,,,,,,,,,
1,0,1,0,1,61,2020-07-04_17h29.53.660,retriever_ti,2020.1.3,MacIntel,60,Chrome,1440,900,,,,,,,,,,,,,,,,,,,,,,,,,,,,,,,,,,,,,,,,,,,,,,,,,,,,,,,,,,,,,,,,,,,,,,,,,,,,,,
2,0,2,0,1,61,2020-07-04_17h29.53.660,retriever_ti,2020.1.3,MacIntel,60,Chrome,1440,900,,,,,,,,,,,,,,,,,,,,,,,,,,,,,,,,,,,,,,,,,,,,,,,,,,,,,,,,,,,,,,,,,,,,,,,,,,,,,,
3,0,3,0,1,61,2020-07-04_17h29.53.660,retriever_ti,2020.1.3,MacIntel,60,Chrome,1440,900,,,,,,,,,,,,,,,,,,,,,,,,,,,,,,,,,,,,,,,,,,,,,,,,,,,,,,,,,,,,,,,,,,,,,,,,,,,,,,
4,0,4,0,1,61,2020-07-04_17h29.53.660,retriever_ti,2020.1.3,MacIntel,60,Chrome,1440,900,,,,,,,,,,,,,,,,,,,,,,,,,,,,,,,,,,,,,,,,,,,,,,,,,,,,,,,,,,,,,,,,,,,,,,,,,,,,,,
5,0,5,0,1,61,2020-07-04_17h29.53.660,retriever_ti,2020.1.3,MacIntel,60,Chrome,1440,900,,,,,,,,,,,,,,,,,,,,,,,,,,,,,,,,,,,,,,,,,,,,,,,,,,,,,,,,,,,,,,,,,,,,,,,,,,,,,,
6,0,6,0,1,61,2020-07-04_17h29.53.660,retriever_ti,2020.1.3,MacIntel,60,Chrome,1440,900,,,,,,,,,,,,,,,,,,,,,,,,,,,,,,,,,,,,,,,,,,,,,,,,,,,,,,,,,,,,,,,,,,,,,,,,,,,,,,
7,0,7,0,1,61,2020-07-04_17h29.53.660,retriever_ti,2020.1.3,MacIntel,60,Chrome,1440,900,,,,,,,,,,,,,,,,,,,,,,,,,,,,,,,,,,,,,,,,,,,,,,,,,,,,,,,,,,,,,,,,,,,,,,,,,,,,,,
8,0,8,0,1,61,2020-07-04_17h29.53.660,retriever_ti,2020.1.3,MacIntel,60,Chrome,1440,900,,,,,,,,,,,,,,,,,,,,,,,,,,,,,,,,,,,,,,,,,,,,,,,,,,,,,,,,,,,,,,,,,,,,,,,,,,,,,,
9,0,9,0,1,61,2020-07-04_17h29.53.660,retriever_ti,2020.1.3,MacIntel,60,Chrome,1440,900,,,,,,,,,,,,,,,,,,,,,,,,,,,,,,,,,,,,,,,,,,,,,,,,,,,,,,,,,,,,,,,,,,,,,,,,,,,,,,
10,0,10,0,1,61,2020-07-04_17h29.53.660,retriever_ti,2020.1.3,MacIntel,60,Chrome,1440,900,,,,,,,,,,,,,,,,,,,,,,,,,,,,,,,,,,,,,,,,,,,,,,,,,,,,,,,,,,,,,,,,,,,,,,,,,,,,,,
11,0,11,0,1,61,2020-07-04_17h29.53.660,retriever_ti,2020.1.3,MacIntel,60,Chrome,1440,900,,,,,,,,,,,,,,,,,,,,,,,,,,,,,,,,,,,,,,,,,,,,,,,,,,,,,,,,,,,,,,,,,,,,,,,,,,,,,,
12,0,12,0,1,61,2020-07-04_17h29.53.660,retriever_ti,2020.1.3,MacIntel,60,Chrome,1440,900,,,,,,,,,,,,,,,,,,,,,,,,,,,,,,,,,,,,,,,,,,,,,,,,,,,,,,,,,,,,,,,,,,,,,,,,,,,,,,
13,0,13,0,1,61,2020-07-04_17h29.53.660,retriever_ti,2020.1.3,MacIntel,60,Chrome,1440,900,,,,,,,,,,,,,,,,,,,,,,,,,,,,,,,,,,,,,,,,,,,,,,,,,,,,,,,,,,,,,,,,,,,,,,,,,,,,,,
14,0,14,0,1,61,2020-07-04_17h29.53.660,retriever_ti,2020.1.3,MacIntel,60,Chrome,1440,900,,,,,,,,,,,,,,,,,,,,,,,,,,,,,,,,,,,,,,,,,,,,,,,,,,,,,,,,,,,,,,,,,,,,,,,,,,,,,,
15,0,15,0,1,61,2020-07-04_17h29.53.660,retriever_ti,2020.1.3,MacIntel,60,Chrome,1440,900,,,,,,,,,,,,,,,,,,,,,,,,,,,,,,,,,,,,,,,,,,,,,,,,,,,,,,,,,,,,,,,,,,,,,,,,,,,,,,
,,,,,61,2020-07-04_17h29.53.660,retriever_ti,2020.1.3,MacIntel,60,Chrome,1440,900,9.20144,1,right,0.592805,canary,1,9.21825,9.21825,11.71214,0,0,0,0,1,2,5,1,html/resources/stimuli_practice_decision/04_beetle.jpg,html/resources/stimuli_practice_decision/02_canary.jpg,beetle,canary,,,,,,,,,,,,,,,,,,,,,,,,,,,,,,,,,,,,,,,,,,,,,,,,,,,,,,,,,
,,,,,61,2020-07-04_17h29.53.660,retriever_ti,2020.1.3,MacIntel,60,Chrome,1440,900,12.23964,2,left,0.326005,rabbit,1,12.2535,12.2535,14.74392,0,1,1,1,1,4,3,1,html/resources/stimuli_practice_decision/01_rabbit.jpg,html/resources/stimuli_practice_decision/07_sock.jpg,rabbit,sock,,,,,,,,,,,,,,,,,,,,,,,,,,,,,,,,,,,,,,,,,,,,,,,,,,,,,,,,,
,,,,,61,2020-07-04_17h29.53.660,retriever_ti,2020.1.3,MacIntel,60,Chrome,1440,900,15.733695,3,right,0.325325,beetle,0,15.749975,15.749975,18.24489,0,2,2,2,1,6,2,1,html/resources/stimuli_practice_decision/06_pullover.jpg,html/resources/stimuli_practice_decision/04_beetle.jpg,pullover,beetle,,,,,,,,,,,,,,,,,,,,,,,,,,,,,,,,,,,,,,,,,,,,,,,,,,,,,,,,,
,,,,,61,2020-07-04_17h29.53.660,retriever_ti,2020.1.3,MacIntel,60,Chrome,1440,900,18.74875,4,left,0.28089,glasses,1,18.766585,18.766585,21.261075,0,3,3,3,1,7,1,1,html/resources/stimuli_practice_decision/05_glasses.jpg,html/resources/stimuli_practice_decision/08_handmixer.jpg,glasses,handmixer,,,,,,,,,,,,,,,,,,,,,,,,,,,,,,,,,,,,,,,,,,,,,,,,,,,,,,,,,
,,,,,61,2020-07-04_17h29.53.660,retriever_ti,2020.1.3,MacIntel,60,Chrome,1440,900,21.763415,5,right,0.12855,pullover,0,21.79811,21.79811,24.292455,0,4,4,4,1,7,6,1,html/resources/stimuli_practice_decision/05_glasses.jpg,html/resources/stimuli_practice_decision/06_pullover.jpg,glasses,pullover,,,,,,,,,,,,,,,,,,,,,,,,,,,,,,,,,,,,,,,,,,,,,,,,,,,,,,,,,
,,,,,61,2020-07-04_17h29.53.660,retriever_ti,2020.1.3,MacIntel,60,Chrome,1440,900,25.281755,6,left,0.1114,rabbit,0,25.31703,25.31703,27.81003,0,5,5,5,1,4,7,1,html/resources/stimuli_practice_decision/01_rabbit.jpg,html/resources/stimuli_practice_decision/05_glasses.jpg,rabbit,glasses,,,,,,,,,,,,,,,,,,,,,,,,,,,,,,,,,,,,,,,,,,,,,,,,,,,,,,,,,
,,,,,61,2020-07-04_17h29.53.660,retriever_ti,2020.1.3,MacIntel,60,Chrome,1440,900,28.315185,7,right,0.34354,beetle,1,28.3298,28.3298,30.825715,0,6,6,6,1,1,2,1,html/resources/stimuli_practice_decision/08_handmixer.jpg,html/resources/stimuli_practice_decision/04_beetle.jpg,handmixer,beetle,,,,,,,,,,,,,,,,,,,,,,,,,,,,,,,,,,,,,,,,,,,,,,,,,,,,,,,,,
,,,,,61,2020-07-04_17h29.53.660,retriever_ti,2020.1.3,MacIntel,60,Chrome,1440,900,31.814465,8,right,0.67343,sock,0,31.83436,31.83436,34.32693,0,7,7,7,1,4,3,1,html/resources/stimuli_practice_decision/01_rabbit.jpg,html/resources/stimuli_practice_decision/07_sock.jpg,rabbit,sock,,,,,,,,,,,,,,,,,,,,,,,,,,,,,,,,,,,,,,,,,,,,,,,,,,,,,,,,,
,,,,,61,2020-07-04_17h29.53.660,retriever_ti,2020.1.3,MacIntel,60,Chrome,1440,900,,,,,,,,,,,,,,,,,,,,,,left,0,0.46217,0,0,0,0,1,1,html/resources/sequences_IDs/star.png,square ↑,circle →,star ↓,← triangle,down,,,,,,,,,,,,,,,,,,,,,,,,,,,,,,,,,,,,,,,,,,
,,,,,61,2020-07-04_17h29.53.660,retriever_ti,2020.1.3,MacIntel,60,Chrome,1440,900,,,,,,,,,,,,,,,,,,,,,,down,1,1.61283,1,0,1,1,3,1,html/resources/sequences_IDs/triangle.png,star ↑,square →,triangle ↓,← circle,down,,,,,,,,,,,,,,,,,,,,,,,,,,,,,,,,,,,,,,,,,,
,,,,,61,2020-07-04_17h29.53.660,retriever_ti,2020.1.3,MacIntel,60,Chrome,1440,900,,,,,,,,,,,,,,,,,,,,,,up,1,0.8515,1,0,2,2,0,1,html/resources/sequences_IDs/circle.png,circle ↑,square →,triangle ↓,← star ,up,,,,,,,,,,,,,,,,,,,,,,,,,,,,,,,,,,,,,,,,,,
,,,,,61,2020-07-04_17h29.53.660,retriever_ti,2020.1.3,MacIntel,60,Chrome,1440,900,,,,,,,,,,,,,,,,,,,,,,left,1,1.30884,1,0,3,3,2,1,html/resources/sequences_IDs/square1.png,star ↑,triangle →,circle ↓,← square,left,,,,,,,,,,,,,,,,,,,,,,,,,,,,,,,,,,,,,,,,,,
,,,,,61,2020-07-04_17h29.53.660,retriever_ti,2020.1.3,MacIntel,60,Chrome,1440,900,,,,,,,,,,,,,,,,,,,,,,,,,,,,,,,,,,,,,1,1.330805,0,0,0,0,1,,,,,,,,,,,,,,,,,,,,,,,,,,,,,,,,,,,
,,,,,61,2020-07-04_17h29.53.660,retriever_ti,2020.1.3,MacIntel,60,Chrome,1440,900,42.26615,9,right,0.373025,glasses,1,42.297095,42.297095,44.797085,0,0,0,0,1,6,7,1,html/resources/stimuli_practice_decision/06_pullover.jpg,html/resources/stimuli_practice_decision/05_glasses.jpg,pullover,glasses,,,,,,,,,,,,,,,,,,,,,,,,,,,,,,,,,,,,,,,,,,,,,,,,,,,,,,,,,
,,,,,61,2020-07-04_17h29.53.660,retriever_ti,2020.1.3,MacIntel,60,Chrome,1440,900,45.787235,10,left,0.31709,pullover,1,45.82194,45.82194,48.31494,0,1,1,1,1,6,2,1,html/resources/stimuli_practice_decision/06_pullover.jpg,html/resources/stimuli_practice_decision/04_beetle.jpg,pullover,beetle,,,,,,,,,,,,,,,,,,,,,,,,,,,,,,,,,,,,,,,,,,,,,,,,,,,,,,,,,
,,,,,61,2020-07-04_17h29.53.660,retriever_ti,2020.1.3,MacIntel,60,Chrome,1440,900,48.820295,11,right,0.42077,pullover,1,48.8538,48.8538,51.34895,0,2,2,2,1,5,6,1,html/resources/stimuli_practice_decision/02_canary.jpg,html/resources/stimuli_practice_decision/06_pullover.jpg,canary,pullover,,,,,,,,,,,,,,,,,,,,,,,,,,,,,,,,,,,,,,,,,,,,,,,,,,,,,,,,,
,,,,,61,2020-07-04_17h29.53.660,retriever_ti,2020.1.3,MacIntel,60,Chrome,1440,900,52.33829,12,left,0.30091,squirrel,1,52.35651,52.35651,54.849385,0,3,3,3,1,8,7,1,html/resources/stimuli_practice_decision/03_squirrel.jpg,html/resources/stimuli_practice_decision/05_glasses.jpg,squirrel,glasses,,,,,,,,,,,,,,,,,,,,,,,,,,,,,,,,,,,,,,,,,,,,,,,,,,,,,,,,,
,,,,,61,2020-07-04_17h29.53.660,retriever_ti,2020.1.3,MacIntel,60,Chrome,1440,900,55.837885,13,left,0.44127,canary,1,55.85623,55.85623,58.350525,0,4,4,4,1,5,3,1,html/resources/stimuli_practice_decision/02_canary.jpg,html/resources/stimuli_practice_decision/07_sock.jpg,canary,sock,,,,,,,,,,,,,,,,,,,,,,,,,,,,,,,,,,,,,,,,,,,,,,,,,,,,,,,,,
,,,,,61,2020-07-04_17h29.53.660,retriever_ti,2020.1.3,MacIntel,60,Chrome,1440,900,58.854785,14,left,0.18386,glasses,0,58.87159,58.87159,61.367075,0,5,5,5,1,7,8,1,html/resources/stimuli_practice_decision/05_glasses.jpg,html/resources/stimuli_practice_decision/03_squirrel.jpg,glasses,squirrel,,,,,,,,,,,,,,,,,,,,,,,,,,,,,,,,,,,,,,,,,,,,,,,,,,,,,,,,,
,,,,,61,2020-07-04_17h29.53.660,retriever_ti,2020.1.3,MacIntel,60,Chrome,1440,900,62.371765,15,right,0.424695,rabbit,0,62.40659,62.40659,64.90004,0,6,6,6,1,5,4,1,html/resources/stimuli_practice_decision/02_canary.jpg,html/resources/stimuli_practice_decision/01_rabbit.jpg,canary,rabbit,,,,,,,,,,,,,,,,,,,,,,,,,,,,,,,,,,,,,,,,,,,,,,,,,,,,,,,,,
,,,,,61,2020-07-04_17h29.53.660,retriever_ti,2020.1.3,MacIntel,60,Chrome,1440,900,65.888695,16,left,0.540695,canary,1,65.907945,65.907945,68.401925,0,7,7,7,1,5,3,1,html/resources/stimuli_practice_decision/02_canary.jpg,html/resources/stimuli_practice_decision/07_sock.jpg,canary,sock,,,,,,,,,,,,,,,,,,,,,,,,,,,,,,,,,,,,,,,,,,,,,,,,,,,,,,,,,
,,,,,61,2020-07-04_17h29.53.660,retriever_ti,2020.1.3,MacIntel,60,Chrome,1440,900,,,,,,,,,,,,,,,,,,,,,,left,1,1.64783,1,0,0,0,2,1,html/resources/sequences_IDs/square1.png,star ↑,triangle →,circle ↓,← square,left,,,,,,,,,,,,,,,,,,,,,,,,,,,,,,,,,,,,,,,,,,
,,,,,61,2020-07-04_17h29.53.660,retriever_ti,2020.1.3,MacIntel,60,Chrome,1440,900,,,,,,,,,,,,,,,,,,,,,,down,1,0.82244,1,0,1,1,3,1,html/resources/sequences_IDs/triangle.png,star ↑,square →,triangle ↓,← circle,down,,,,,,,,,,,,,,,,,,,,,,,,,,,,,,,,,,,,,,,,,,
,,,,,61,2020-07-04_17h29.53.660,retriever_ti,2020.1.3,MacIntel,60,Chrome,1440,900,,,,,,,,,,,,,,,,,,,,,,up,1,0.739275,1,0,2,2,0,1,html/resources/sequences_IDs/circle.png,circle ↑,square →,triangle ↓,← star ,up,,,,,,,,,,,,,,,,,,,,,,,,,,,,,,,,,,,,,,,,,,
,,,,,61,2020-07-04_17h29.53.660,retriever_ti,2020.1.3,MacIntel,60,Chrome,1440,900,,,,,,,,,,,,,,,,,,,,,,down,1,1.213185,1,0,3,3,1,1,html/resources/sequences_IDs/star.png,square ↑,circle →,star ↓,← triangle,down,,,,,,,,,,,,,,,,,,,,,,,,,,,,,,,,,,,,,,,,,,
,,,,,61,2020-07-04_17h29.53.660,retriever_ti,2020.1.3,MacIntel,60,Chrome,1440,900,,,,,,,,,,,,,,,,,,,,,,,,,,,,,,,,,,,,,1,1.33576,1,0,1,0,1,,,,,,,,,,,,,,,,,,,,,,,,,,,,,,,,,,,
,,,,,61,2020-07-04_17h29.53.660,retriever_ti,2020.1.3,MacIntel,60,Chrome,1440,900,,,,,,,,,,,,,,,,,1,,,,,,,,,,,,,,,,,,,,,,,,,,,77.24294,1,right,0.56113,giraffe     ,5,3,-3,0,3,77.2845,77.2845,79.777995,0,0,0,0,1,1,8,5,clownfish     ,giraffe     ,html/resources/sequences_IDs/A/04_clownfish.jpg,html/resources/sequences_IDs/B/03_giraffe.jpg,4,3,2,1,1,1,3,2,0,61
