instructionsLoop.thisRepN,instructionsLoop.thisTrialN,instructionsLoop.thisN,instructionsLoop.thisIndex,instructionsLoop.ran,participant,date,expName,psychopyVersion,OS,frameRate,browser,xResolution,yResolution,fix_onset,tprac,practiceKey.keys,practiceKey.rt,pracitem_chosen_name,acc_practice,P1_onsetPrac,P2_onsetPrac,onsetFeedbPrac,practiceTrials.thisRepN,practiceTrials.thisTrialN,practiceTrials.thisN,practiceTrials.thisIndex,practiceTrials.ran,P1,P2,Block,LocItem1,LocItem2,NameItem1,NameItem2,key_respAC_prac.keys,key_respAC_prac.corr,key_respAC_prac.rt,AC_acc,Attentions.thisRepN,Attentions.thisTrialN,Attentions.thisN,Attentions.thisIndex,Attentions.ran,Stim,Loc1,Loc2,Loc3,Loc4,CorrAns,keyDisturbed.keys,keyDisturbed.rt,repPractice.thisRepN,repPractice.thisTrialN,repPractice.thisN,repPractice.thisIndex,repPractice.ran,fixcross_onsetMain,trialNumber,key_resp.keys,key_resp.rt,item_chosen_name,item_chosen_value,item_chosen_ID,diff_chosen_minus_reject,acc_real,acc_feedback,P1_onset,P2_onset,feedb_onset,trials.thisRepN,trials.thisTrialN,trials.thisN,trials.thisIndex,trials.ran,Trial,ValueP1,ValueP2,P1name,P2name,P1Loc,P2Loc,P1id,P2id,Micro_categoryP1,Macro_categoryP1,Micro_categoryP2,Macro_categoryP2,ID_sequenceP1,ID_sequenceP2,InverseFb,pNumber,repBlocks.thisRepN,repBlocks.thisTrialN,repBlocks.thisN,repBlocks.thisIndex,repBlocks.ran,key_respAC.keys,key_respAC.corr,key_respAC.rt,trials_AC.thisRepN,trials_AC.thisTrialN,trials_AC.thisN,trials_AC.thisIndex,trials_AC.ran
0,0,0,0,1,61,2020-07-04_17h22.47.286,retriever_ti,2020.1.3,Win32,60,Chrome,1366,768,,,,,,,,,,,,,,,,,,,,,,,,,,,,,,,,,,,,,,,,,,,,,,,,,,,,,,,,,,,,,,,,,,,,,,,,,,,,,,,,,,,,,,,,,,,
1,0,1,0,1,61,2020-07-04_17h22.47.286,retriever_ti,2020.1.3,Win32,60,Chrome,1366,768,,,,,,,,,,,,,,,,,,,,,,,,,,,,,,,,,,,,,,,,,,,,,,,,,,,,,,,,,,,,,,,,,,,,,,,,,,,,,,,,,,,,,,,,,,,
2,0,2,0,1,61,2020-07-04_17h22.47.286,retriever_ti,2020.1.3,Win32,60,Chrome,1366,768,,,,,,,,,,,,,,,,,,,,,,,,,,,,,,,,,,,,,,,,,,,,,,,,,,,,,,,,,,,,,,,,,,,,,,,,,,,,,,,,,,,,,,,,,,,
3,0,3,0,1,61,2020-07-04_17h22.47.286,retriever_ti,2020.1.3,Win32,60,Chrome,1366,768,,,,,,,,,,,,,,,,,,,,,,,,,,,,,,,,,,,,,,,,,,,,,,,,,,,,,,,,,,,,,,,,,,,,,,,,,,,,,,,,,,,,,,,,,,,
4,0,4,0,1,61,2020-07-04_17h22.47.286,retriever_ti,2020.1.3,Win32,60,Chrome,1366,768,,,,,,,,,,,,,,,,,,,,,,,,,,,,,,,,,,,,,,,,,,,,,,,,,,,,,,,,,,,,,,,,,,,,,,,,,,,,,,,,,,,,,,,,,,,
5,0,5,0,1,61,2020-07-04_17h22.47.286,retriever_ti,2020.1.3,Win32,60,Chrome,1366,768,,,,,,,,,,,,,,,,,,,,,,,,,,,,,,,,,,,,,,,,,,,,,,,,,,,,,,,,,,,,,,,,,,,,,,,,,,,,,,,,,,,,,,,,,,,
6,0,6,0,1,61,2020-07-04_17h22.47.286,retriever_ti,2020.1.3,Win32,60,Chrome,1366,768,,,,,,,,,,,,,,,,,,,,,,,,,,,,,,,,,,,,,,,,,,,,,,,,,,,,,,,,,,,,,,,,,,,,,,,,,,,,,,,,,,,,,,,,,,,
7,0,7,0,1,61,2020-07-04_17h22.47.286,retriever_ti,2020.1.3,Win32,60,Chrome,1366,768,,,,,,,,,,,,,,,,,,,,,,,,,,,,,,,,,,,,,,,,,,,,,,,,,,,,,,,,,,,,,,,,,,,,,,,,,,,,,,,,,,,,,,,,,,,
8,0,8,0,1,61,2020-07-04_17h22.47.286,retriever_ti,2020.1.3,Win32,60,Chrome,1366,768,,,,,,,,,,,,,,,,,,,,,,,,,,,,,,,,,,,,,,,,,,,,,,,,,,,,,,,,,,,,,,,,,,,,,,,,,,,,,,,,,,,,,,,,,,,
9,0,9,0,1,61,2020-07-04_17h22.47.286,retriever_ti,2020.1.3,Win32,60,Chrome,1366,768,,,,,,,,,,,,,,,,,,,,,,,,,,,,,,,,,,,,,,,,,,,,,,,,,,,,,,,,,,,,,,,,,,,,,,,,,,,,,,,,,,,,,,,,,,,
10,0,10,0,1,61,2020-07-04_17h22.47.286,retriever_ti,2020.1.3,Win32,60,Chrome,1366,768,,,,,,,,,,,,,,,,,,,,,,,,,,,,,,,,,,,,,,,,,,,,,,,,,,,,,,,,,,,,,,,,,,,,,,,,,,,,,,,,,,,,,,,,,,,
11,0,11,0,1,61,2020-07-04_17h22.47.286,retriever_ti,2020.1.3,Win32,60,Chrome,1366,768,,,,,,,,,,,,,,,,,,,,,,,,,,,,,,,,,,,,,,,,,,,,,,,,,,,,,,,,,,,,,,,,,,,,,,,,,,,,,,,,,,,,,,,,,,,
12,0,12,0,1,61,2020-07-04_17h22.47.286,retriever_ti,2020.1.3,Win32,60,Chrome,1366,768,,,,,,,,,,,,,,,,,,,,,,,,,,,,,,,,,,,,,,,,,,,,,,,,,,,,,,,,,,,,,,,,,,,,,,,,,,,,,,,,,,,,,,,,,,,
13,0,13,0,1,61,2020-07-04_17h22.47.286,retriever_ti,2020.1.3,Win32,60,Chrome,1366,768,,,,,,,,,,,,,,,,,,,,,,,,,,,,,,,,,,,,,,,,,,,,,,,,,,,,,,,,,,,,,,,,,,,,,,,,,,,,,,,,,,,,,,,,,,,
14,0,14,0,1,61,2020-07-04_17h22.47.286,retriever_ti,2020.1.3,Win32,60,Chrome,1366,768,,,,,,,,,,,,,,,,,,,,,,,,,,,,,,,,,,,,,,,,,,,,,,,,,,,,,,,,,,,,,,,,,,,,,,,,,,,,,,,,,,,,,,,,,,,
15,0,15,0,1,61,2020-07-04_17h22.47.286,retriever_ti,2020.1.3,Win32,60,Chrome,1366,768,,,,,,,,,,,,,,,,,,,,,,,,,,,,,,,,,,,,,,,,,,,,,,,,,,,,,,,,,,,,,,,,,,,,,,,,,,,,,,,,,,,,,,,,,,,
16,0,16,0,1,61,2020-07-04_17h22.47.286,retriever_ti,2020.1.3,Win32,60,Chrome,1366,768,,,,,,,,,,,,,,,,,,,,,,,,,,,,,,,,,,,,,,,,,,,,,,,,,,,,,,,,,,,,,,,,,,,,,,,,,,,,,,,,,,,,,,,,,,,
,,,,,61,2020-07-04_17h22.47.286,retriever_ti,2020.1.3,Win32,60,Chrome,1366,768,17.38227,1,left,0.53785,beetle,0,17.4278,17.4278,19.92752,0,0,0,0,1,2,5,1,html/resources/stimuli_practice_decision/04_beetle.jpg,html/resources/stimuli_practice_decision/02_canary.jpg,beetle,canary,,,,,,,,,,,,,,,,,,,,,,,,,,,,,,,,,,,,,,,,,,,,,,,,,,,,,,,,,,,,,,,,,,,,,,
,,,,,61,2020-07-04_17h22.47.286,retriever_ti,2020.1.3,Win32,60,Chrome,1366,768,20.463105,2,right,0.47863,sock,0,20.494975,20.494975,22.99471,0,1,1,1,1,4,3,1,html/resources/stimuli_practice_decision/01_rabbit.jpg,html/resources/stimuli_practice_decision/07_sock.jpg,rabbit,sock,,,,,,,,,,,,,,,,,,,,,,,,,,,,,,,,,,,,,,,,,,,,,,,,,,,,,,,,,,,,,,,,,,,,,,
,,,,,61,2020-07-04_17h22.47.286,retriever_ti,2020.1.3,Win32,60,Chrome,1366,768,23.99653,3,left,0.44264,pullover,1,24.01352,24.01352,26.5125,0,2,2,2,1,6,2,1,html/resources/stimuli_practice_decision/06_pullover.jpg,html/resources/stimuli_practice_decision/04_beetle.jpg,pullover,beetle,,,,,,,,,,,,,,,,,,,,,,,,,,,,,,,,,,,,,,,,,,,,,,,,,,,,,,,,,,,,,,,,,,,,,,
,,,,,61,2020-07-04_17h22.47.286,retriever_ti,2020.1.3,Win32,60,Chrome,1366,768,27.013665,4,right,0.66009,handmixer,0,27.048265,27.048265,29.54725,0,3,3,3,1,7,1,1,html/resources/stimuli_practice_decision/05_glasses.jpg,html/resources/stimuli_practice_decision/08_handmixer.jpg,glasses,handmixer,,,,,,,,,,,,,,,,,,,,,,,,,,,,,,,,,,,,,,,,,,,,,,,,,,,,,,,,,,,,,,,,,,,,,,
,,,,,61,2020-07-04_17h22.47.286,retriever_ti,2020.1.3,Win32,60,Chrome,1366,768,30.04859,5,left,0.45205,glasses,1,30.082315,30.082315,32.581865,0,4,4,4,1,7,6,1,html/resources/stimuli_practice_decision/05_glasses.jpg,html/resources/stimuli_practice_decision/06_pullover.jpg,glasses,pullover,,,,,,,,,,,,,,,,,,,,,,,,,,,,,,,,,,,,,,,,,,,,,,,,,,,,,,,,,,,,,,,,,,,,,,
,,,,,61,2020-07-04_17h22.47.286,retriever_ti,2020.1.3,Win32,60,Chrome,1366,768,33.584005,6,left,0.40748,rabbit,0,33.60212,33.60212,36.100035,0,5,5,5,1,4,7,1,html/resources/stimuli_practice_decision/01_rabbit.jpg,html/resources/stimuli_practice_decision/05_glasses.jpg,rabbit,glasses,,,,,,,,,,,,,,,,,,,,,,,,,,,,,,,,,,,,,,,,,,,,,,,,,,,,,,,,,,,,,,,,,,,,,,
,,,,,61,2020-07-04_17h22.47.286,retriever_ti,2020.1.3,Win32,60,Chrome,1366,768,36.601,7,right,1.14188,beetle,1,36.61957,36.61957,39.1179,0,6,6,6,1,1,2,1,html/resources/stimuli_practice_decision/08_handmixer.jpg,html/resources/stimuli_practice_decision/04_beetle.jpg,handmixer,beetle,,,,,,,,,,,,,,,,,,,,,,,,,,,,,,,,,,,,,,,,,,,,,,,,,,,,,,,,,,,,,,,,,,,,,,
,,,,,61,2020-07-04_17h22.47.286,retriever_ti,2020.1.3,Win32,60,Chrome,1366,768,40.119665,8,right,0.631435,sock,0,40.13668,40.13668,42.636245,0,7,7,7,1,4,3,1,html/resources/stimuli_practice_decision/01_rabbit.jpg,html/resources/stimuli_practice_decision/07_sock.jpg,rabbit,sock,,,,,,,,,,,,,,,,,,,,,,,,,,,,,,,,,,,,,,,,,,,,,,,,,,,,,,,,,,,,,,,,,,,,,,
,,,,,61,2020-07-04_17h22.47.286,retriever_ti,2020.1.3,Win32,60,Chrome,1366,768,,,,,,,,,,,,,,,,,,,,,,down,0,1.575785,0,0,0,0,0,1,html/resources/sequences_IDs/circle.png,circle ↑,square →,triangle ↓,← star ,up,,,,,,,,,,,,,,,,,,,,,,,,,,,,,,,,,,,,,,,,,,,,,,,,,,,,,,,
,,,,,61,2020-07-04_17h22.47.286,retriever_ti,2020.1.3,Win32,60,Chrome,1366,768,,,,,,,,,,,,,,,,,,,,,,down,1,0.45415,1,0,1,1,1,1,html/resources/sequences_IDs/star.png,square ↑,circle →,star ↓,← triangle,down,,,,,,,,,,,,,,,,,,,,,,,,,,,,,,,,,,,,,,,,,,,,,,,,,,,,,,,
,,,,,61,2020-07-04_17h22.47.286,retriever_ti,2020.1.3,Win32,60,Chrome,1366,768,,,,,,,,,,,,,,,,,,,,,,down,0,0.656485,0,0,2,2,2,1,html/resources/sequences_IDs/square1.png,star ↑,triangle →,circle ↓,← square,left,,,,,,,,,,,,,,,,,,,,,,,,,,,,,,,,,,,,,,,,,,,,,,,,,,,,,,,
,,,,,61,2020-07-04_17h22.47.286,retriever_ti,2020.1.3,Win32,60,Chrome,1366,768,,,,,,,,,,,,,,,,,,,,,,down,1,0.59333,1,0,3,3,3,1,html/resources/sequences_IDs/triangle.png,star ↑,square →,triangle ↓,← circle,down,,,,,,,,,,,,,,,,,,,,,,,,,,,,,,,,,,,,,,,,,,,,,,,,,,,,,,,
,,,,,61,2020-07-04_17h22.47.286,retriever_ti,2020.1.3,Win32,60,Chrome,1366,768,,,,,,,,,,,,,,,,,,,,,,,,,,,,,,,,,,,,,0,3.46737,0,0,0,0,1,,,,,,,,,,,,,,,,,,,,,,,,,,,,,,,,,,,,,,,,,,,,,,,,
,,,,,61,2020-07-04_17h22.47.286,retriever_ti,2020.1.3,Win32,60,Chrome,1366,768,53.68222,9,right,1.34118,glasses,1,53.70961,53.70961,56.209065,0,0,0,0,1,6,7,1,html/resources/stimuli_practice_decision/06_pullover.jpg,html/resources/stimuli_practice_decision/05_glasses.jpg,pullover,glasses,,,,,,,,,,,,,,,,,,,,,,,,,,,,,,,,,,,,,,,,,,,,,,,,,,,,,,,,,,,,,,,,,,,,,,
,,,,,61,2020-07-04_17h22.47.286,retriever_ti,2020.1.3,Win32,60,Chrome,1366,768,57.20993,10,right,0.716375,beetle,0,57.227585,57.227585,59.727105,0,1,1,1,1,6,2,1,html/resources/stimuli_practice_decision/06_pullover.jpg,html/resources/stimuli_practice_decision/04_beetle.jpg,pullover,beetle,,,,,,,,,,,,,,,,,,,,,,,,,,,,,,,,,,,,,,,,,,,,,,,,,,,,,,,,,,,,,,,,,,,,,,
,,,,,61,2020-07-04_17h22.47.286,retriever_ti,2020.1.3,Win32,60,Chrome,1366,768,60.245575,11,right,0.32352,pullover,1,60.27944,60.27944,62.77861,0,2,2,2,1,5,6,1,html/resources/stimuli_practice_decision/02_canary.jpg,html/resources/stimuli_practice_decision/06_pullover.jpg,canary,pullover,,,,,,,,,,,,,,,,,,,,,,,,,,,,,,,,,,,,,,,,,,,,,,,,,,,,,,,,,,,,,,,,,,,,,,
,,,,,61,2020-07-04_17h22.47.286,retriever_ti,2020.1.3,Win32,60,Chrome,1366,768,63.780335,12,right,0.307565,glasses,0,63.79696,63.79696,66.296465,0,3,3,3,1,8,7,1,html/resources/stimuli_practice_decision/03_squirrel.jpg,html/resources/stimuli_practice_decision/05_glasses.jpg,squirrel,glasses,,,,,,,,,,,,,,,,,,,,,,,,,,,,,,,,,,,,,,,,,,,,,,,,,,,,,,,,,,,,,,,,,,,,,,
,,,,,61,2020-07-04_17h22.47.286,retriever_ti,2020.1.3,Win32,60,Chrome,1366,768,67.29897,13,left,0.5375,canary,1,67.33253,67.33253,69.831435,0,4,4,4,1,5,3,1,html/resources/stimuli_practice_decision/02_canary.jpg,html/resources/stimuli_practice_decision/07_sock.jpg,canary,sock,,,,,,,,,,,,,,,,,,,,,,,,,,,,,,,,,,,,,,,,,,,,,,,,,,,,,,,,,,,,,,,,,,,,,,
,,,,,61,2020-07-04_17h22.47.286,retriever_ti,2020.1.3,Win32,60,Chrome,1366,768,70.33306,14,right,0.47802,squirrel,1,70.366985,70.366985,72.86609,0,5,5,5,1,7,8,1,html/resources/stimuli_practice_decision/05_glasses.jpg,html/resources/stimuli_practice_decision/03_squirrel.jpg,glasses,squirrel,,,,,,,,,,,,,,,,,,,,,,,,,,,,,,,,,,,,,,,,,,,,,,,,,,,,,,,,,,,,,,,,,,,,,,
,,,,,61,2020-07-04_17h22.47.286,retriever_ti,2020.1.3,Win32,60,Chrome,1366,768,73.86813,15,left,0.902475,canary,1,73.902275,73.902275,76.400975,0,6,6,6,1,5,4,1,html/resources/stimuli_practice_decision/02_canary.jpg,html/resources/stimuli_practice_decision/01_rabbit.jpg,canary,rabbit,,,,,,,,,,,,,,,,,,,,,,,,,,,,,,,,,,,,,,,,,,,,,,,,,,,,,,,,,,,,,,,,,,,,,,
,,,,,61,2020-07-04_17h22.47.286,retriever_ti,2020.1.3,Win32,60,Chrome,1366,768,77.402215,16,left,0.49709,canary,1,77.43719,77.43719,79.9359,0,7,7,7,1,5,3,1,html/resources/stimuli_practice_decision/02_canary.jpg,html/resources/stimuli_practice_decision/07_sock.jpg,canary,sock,,,,,,,,,,,,,,,,,,,,,,,,,,,,,,,,,,,,,,,,,,,,,,,,,,,,,,,,,,,,,,,,,,,,,,
,,,,,61,2020-07-04_17h22.47.286,retriever_ti,2020.1.3,Win32,60,Chrome,1366,768,,,,,,,,,,,,,,,,,,,,,,down,0,2.861955,0,0,0,0,2,1,html/resources/sequences_IDs/square1.png,star ↑,triangle →,circle ↓,← square,left,,,,,,,,,,,,,,,,,,,,,,,,,,,,,,,,,,,,,,,,,,,,,,,,,,,,,,,
,,,,,61,2020-07-04_17h22.47.286,retriever_ti,2020.1.3,Win32,60,Chrome,1366,768,,,,,,,,,,,,,,,,,,,,,,down,1,0.454225,1,0,1,1,3,1,html/resources/sequences_IDs/triangle.png,star ↑,square →,triangle ↓,← circle,down,,,,,,,,,,,,,,,,,,,,,,,,,,,,,,,,,,,,,,,,,,,,,,,,,,,,,,,
,,,,,61,2020-07-04_17h22.47.286,retriever_ti,2020.1.3,Win32,60,Chrome,1366,768,,,,,,,,,,,,,,,,,,,,,,down,1,0.33057,1,0,2,2,1,1,html/resources/sequences_IDs/star.png,square ↑,circle →,star ↓,← triangle,down,,,,,,,,,,,,,,,,,,,,,,,,,,,,,,,,,,,,,,,,,,,,,,,,,,,,,,,
,,,,,61,2020-07-04_17h22.47.286,retriever_ti,2020.1.3,Win32,60,Chrome,1366,768,,,,,,,,,,,,,,,,,,,,,,down,0,0.3723,0,0,3,3,0,1,html/resources/sequences_IDs/circle.png,circle ↑,square →,triangle ↓,← star ,up,,,,,,,,,,,,,,,,,,,,,,,,,,,,,,,,,,,,,,,,,,,,,,,,,,,,,,,
,,,,,61,2020-07-04_17h22.47.286,retriever_ti,2020.1.3,Win32,60,Chrome,1366,768,,,,,,,,,,,,,,,,,,,,,,,,,,,,,,,,,,,,,0,3.68972,1,0,1,0,1,,,,,,,,,,,,,,,,,,,,,,,,,,,,,,,,,,,,,,,,,,,,,,,,
,,,,,61,2020-07-04_17h22.47.286,retriever_ti,2020.1.3,Win32,60,Chrome,1366,768,,,,,,,,,,,,,,,,,1,,,,,,,,,,,,,,,,,,,,,,,,,,,105.8216,1,right,0.542235,giraffe     ,5,3,-3,0,3,105.85813,105.85813,108.35078,0,0,0,0,1,1,8,5,clownfish     ,giraffe     ,html/resources/sequences_IDs/A/04_clownfish.jpg,html/resources/sequences_IDs/B/03_giraffe.jpg,4,3,2,1,1,1,3,2,0,61,,,,,,,,,,,,,
,,,,,61,2020-07-04_17h22.47.286,retriever_ti,2020.1.3,Win32,60,Chrome,1366,768,,,,,,,,,,,,,,,,,1,,,,,,,,,,,,,,,,,,,,,,,,,,,108.968305,2,left,0.5295,peacock       ,2,5,1,1,1,109.000595,109.000595,111.499835,0,1,1,1,1,2,2,1,peacock       ,radio       ,html/resources/sequences_IDs/A/05_peacock.jpg,html/resources/sequences_IDs/B/10_radio.jpg,5,10,2,1,4,2,4,8,0,61,,,,,,,,,,,,,
,,,,,61,2020-07-04_17h22.47.286,retriever_ti,2020.1.3,Win32,60,Chrome,1366,768,,,,,,,,,,,,,,,,,1,,,,,,,,,,,,,,,,,,,,,,,,,,,112.6014,3,left,0.959755,giraffe     ,5,3,-2,0,3,112.61871,112.61871,115.11806,0,2,2,2,1,3,5,7,giraffe     ,sport_tshirt,html/resources/sequences_IDs/B/03_giraffe.jpg,html/resources/sequences_IDs/B/07_sport_tshirt.jpg,3,7,1,1,3,2,2,5,0,61,,,,,,,,,,,,,
,,,,,61,2020-07-04_17h22.47.286,retriever_ti,2020.1.3,Win32,60,Chrome,1366,768,,,,,,,,,,,,,,,,,1,,,,,,,,,,,,,,,,,,,,,,,,,,,115.719845,4,right,0.661555,seaturtle     ,4,2,-1,0,0,115.73694,115.73694,118.236095,0,3,3,3,1,4,5,4,giraffe     ,seaturtle     ,html/resources/sequences_IDs/B/03_giraffe.jpg,html/resources/sequences_IDs/A/02_seaturtle.jpg,3,2,1,1,2,1,2,1,0,61,,,,,,,,,,,,,
,,,,,61,2020-07-04_17h22.47.286,retriever_ti,2020.1.3,Win32,60,Chrome,1366,768,,,,,,,,,,,,,,,,,1,,,,,,,,,,,,,,,,,,,,,,,,,,,119.338215,5,right,1.05239,hat           ,6,8,4,1,3,119.357425,119.357425,121.85436,0,4,4,4,1,5,2,6,peacock       ,hat           ,html/resources/sequences_IDs/A/05_peacock.jpg,html/resources/sequences_IDs/A/08_hat.jpg,5,8,2,1,3,2,4,6,0,61,,,,,,,,,,,,,
,,,,,61,2020-07-04_17h22.47.286,retriever_ti,2020.1.3,Win32,60,Chrome,1366,768,,,,,,,,,,,,,,,,,1,,,,,,,,,,,,,,,,,,,,,,,,,,,122.4559,6,right,0.77621,sport_tshirt,7,7,3,1,3,122.472695,122.472695,124.97253,0,5,5,5,1,6,4,7,seaturtle     ,sport_tshirt,html/resources/sequences_IDs/A/02_seaturtle.jpg,html/resources/sequences_IDs/B/07_sport_tshirt.jpg,2,7,2,1,3,2,1,5,0,61,,,,,,,,,,,,,
,,,,,61,2020-07-04_17h22.47.286,retriever_ti,2020.1.3,Win32,60,Chrome,1366,768,,,,,,,,,,,,,,,,,1,,,,,,,,,,,,,,,,,,,,,,,,,,,125.5742,7,left,0.767865,sport_tshirt,7,7,2,1,3,125.609605,125.609605,128.10714,0,6,6,6,1,7,7,5,sport_tshirt,giraffe     ,html/resources/sequences_IDs/B/07_sport_tshirt.jpg,html/resources/sequences_IDs/B/03_giraffe.jpg,7,3,3,2,1,1,5,2,0,61,,,,,,,,,,,,,
,,,,,61,2020-07-04_17h22.47.286,retriever_ti,2020.1.3,Win32,60,Chrome,1366,768,,,,,,,,,,,,,,,,,1,,,,,,,,,,,,,,,,,,,,,,,,,,,128.709635,8,right,0.52954,radio       ,1,10,-3,0,3,128.728525,128.728525,131.22635,0,7,7,7,1,8,4,1,seaturtle     ,radio       ,html/resources/sequences_IDs/A/02_seaturtle.jpg,html/resources/sequences_IDs/B/10_radio.jpg,2,10,2,1,4,2,1,8,0,61,,,,,,,,,,,,,
,,,,,61,2020-07-04_17h22.47.286,retriever_ti,2020.1.3,Win32,60,Chrome,1366,768,,,,,,,,,,,,,,,,,1,,,,,,,,,,,,,,,,,,,,,,,,,,,131.842725,9,right,0.66406,phone       ,3,9,1,1,1,131.87725,131.87725,134.376535,0,8,8,8,1,9,2,3,peacock       ,phone       ,html/resources/sequences_IDs/A/05_peacock.jpg,html/resources/sequences_IDs/B/09_phone.jpg,5,9,2,1,4,2,4,7,0,61,,,,,,,,,,,,,
,,,,,61,2020-07-04_17h22.47.286,retriever_ti,2020.1.3,Win32,60,Chrome,1366,768,,,,,,,,,,,,,,,,,1,,,,,,,,,,,,,,,,,,,,,,,,,,,135.47835,10,right,0.87296,giraffe     ,5,3,4,1,3,135.511935,135.511935,138.011455,0,9,9,9,1,10,1,5,radio       ,giraffe     ,html/resources/sequences_IDs/B/10_radio.jpg,html/resources/sequences_IDs/B/03_giraffe.jpg,10,3,4,2,1,1,8,2,0,61,,,,,,,,,,,,,
,,,,,61,2020-07-04_17h22.47.286,retriever_ti,2020.1.3,Win32,60,Chrome,1366,768,,,,,,,,,,,,,,,,,1,,,,,,,,,,,,,,,,,,,,,,,,,,,138.61319,11,right,0.743605,hat           ,6,8,-2,0,3,138.646505,138.646505,141.14598,0,10,10,10,1,11,8,6,clownfish     ,hat           ,html/resources/sequences_IDs/A/04_clownfish.jpg,html/resources/sequences_IDs/A/08_hat.jpg,4,8,2,1,3,2,3,6,0,61,,,,,,,,,,,,,
,,,,,61,2020-07-04_17h22.47.286,retriever_ti,2020.1.3,Win32,60,Chrome,1366,768,,,,,,,,,,,,,,,,,1,,,,,,,,,,,,,,,,,,,,,,,,,,,141.747365,12,right,0.873805,phone       ,3,9,-2,0,3,141.78123,141.78123,144.280755,0,11,11,11,1,12,5,3,giraffe     ,phone       ,html/resources/sequences_IDs/B/03_giraffe.jpg,html/resources/sequences_IDs/B/09_phone.jpg,3,9,1,1,4,2,2,7,0,61,,,,,,,,,,,,,
,,,,,61,2020-07-04_17h22.47.286,retriever_ti,2020.1.3,Win32,60,Chrome,1366,768,,,,,,,,,,,,,,,,,1,,,,,,,,,,,,,,,,,,,,,,,,,,,144.885055,13,left,0.890085,seaturtle     ,4,2,-1,0,0,144.902285,144.902285,147.3989,0,12,12,12,1,13,4,5,seaturtle     ,giraffe     ,html/resources/sequences_IDs/A/02_seaturtle.jpg,html/resources/sequences_IDs/B/03_giraffe.jpg,2,3,2,1,1,1,1,2,0,61,,,,,,,,,,,,,
,,,,,61,2020-07-04_17h22.47.286,retriever_ti,2020.1.3,Win32,60,Chrome,1366,768,,,,,,,,,,,,,,,,,1,,,,,,,,,,,,,,,,,,,,,,,,,,,148.50289,14,right,0.45714,radio       ,1,10,-4,0,3,148.537635,148.537635,151.033665,0,13,13,13,1,14,5,1,giraffe     ,radio       ,html/resources/sequences_IDs/B/03_giraffe.jpg,html/resources/sequences_IDs/B/10_radio.jpg,3,10,1,1,4,2,2,8,0,61,,,,,,,,,,,,,
,,,,,61,2020-07-04_17h22.47.286,retriever_ti,2020.1.3,Win32,60,Chrome,1366,768,,,,,,,,,,,,,,,,,1,,,,,,,,,,,,,,,,,,,,,,,,,,,151.63463,15,left,0.808665,peacock       ,2,5,-5,0,3,151.65262,151.65262,154.151805,0,14,14,14,1,15,2,7,peacock       ,sport_tshirt,html/resources/sequences_IDs/A/05_peacock.jpg,html/resources/sequences_IDs/B/07_sport_tshirt.jpg,5,7,2,1,3,2,4,5,0,61,,,,,,,,,,,,,
,,,,,61,2020-07-04_17h22.47.286,retriever_ti,2020.1.3,Win32,60,Chrome,1366,768,,,,,,,,,,,,,,,,,1,,,,,,,,,,,,,,,,,,,,,,,,,,,154.75374,16,left,0.8767,clownfish     ,8,4,7,1,3,154.78708,154.78708,157.28653,0,15,15,15,1,16,8,1,clownfish     ,radio       ,html/resources/sequences_IDs/A/04_clownfish.jpg,html/resources/sequences_IDs/B/10_radio.jpg,4,10,2,1,4,2,3,8,0,61,,,,,,,,,,,,,
,,,,,61,2020-07-04_17h22.47.286,retriever_ti,2020.1.3,Win32,60,Chrome,1366,768,,,,,,,,,,,,,,,,,1,,,,,,,,,,,,,,,,,,,,,,,,,,,157.88732,17,right,0.378045,hat           ,6,8,1,1,1,157.92203,157.92203,160.421175,0,16,16,16,1,17,5,6,giraffe     ,hat           ,html/resources/sequences_IDs/B/03_giraffe.jpg,html/resources/sequences_IDs/A/08_hat.jpg,3,8,1,1,3,2,2,6,0,61,,,,,,,,,,,,,
,,,,,61,2020-07-04_17h22.47.286,retriever_ti,2020.1.3,Win32,60,Chrome,1366,768,,,,,,,,,,,,,,,,,1,,,,,,,,,,,,,,,,,,,,,,,,,,,161.523115,18,right,0.98996,seaturtle     ,4,2,2,1,3,161.54036,161.54036,164.039575,0,17,17,17,1,18,2,4,peacock       ,seaturtle     ,html/resources/sequences_IDs/A/05_peacock.jpg,html/resources/sequences_IDs/A/02_seaturtle.jpg,5,2,2,1,2,1,4,1,0,61,,,,,,,,,,,,,
,,,,,61,2020-07-04_17h22.47.286,retriever_ti,2020.1.3,Win32,60,Chrome,1366,768,,,,,,,,,,,,,,,,,1,,,,,,,,,,,,,,,,,,,,,,,,,,,164.64303,19,right,0.971115,peacock       ,2,5,-1,0,1,164.67684,164.67684,167.17422,0,18,18,18,1,19,3,2,phone       ,peacock       ,html/resources/sequences_IDs/B/09_phone.jpg,html/resources/sequences_IDs/A/05_peacock.jpg,9,5,4,2,2,1,7,4,1,61,,,,,,,,,,,,,
,,,,,61,2020-07-04_17h22.47.286,retriever_ti,2020.1.3,Win32,60,Chrome,1366,768,,,,,,,,,,,,,,,,,1,,,,,,,,,,,,,,,,,,,,,,,,,,,168.279085,20,left,0.96632,hat           ,6,8,3,1,3,168.298645,168.298645,170.7927,0,19,19,19,1,20,6,3,hat           ,phone       ,html/resources/sequences_IDs/A/08_hat.jpg,html/resources/sequences_IDs/B/09_phone.jpg,8,9,3,2,4,2,6,7,0,61,,,,,,,,,,,,,
,,,,,61,2020-07-04_17h22.47.286,retriever_ti,2020.1.3,Win32,60,Chrome,1366,768,,,,,,,,,,,,,,,,,1,,,,,,,,,,,,,,,,,,,,,,,,,,,171.409985,21,right,1.30798,hat           ,6,8,-1,0,0,171.44426,171.44426,173.9438,0,20,20,20,1,21,7,6,sport_tshirt,hat           ,html/resources/sequences_IDs/B/07_sport_tshirt.jpg,html/resources/sequences_IDs/A/08_hat.jpg,7,8,3,2,3,2,5,6,0,61,,,,,,,,,,,,,
,,,,,61,2020-07-04_17h22.47.286,retriever_ti,2020.1.3,Win32,60,Chrome,1366,768,,,,,,,,,,,,,,,,,1,,,,,,,,,,,,,,,,,,,,,,,,,,,175.04616,22,left,1.011625,phone       ,3,9,-1,0,0,175.064935,175.064935,177.56224,0,21,21,21,1,22,3,4,phone       ,seaturtle     ,html/resources/sequences_IDs/B/09_phone.jpg,html/resources/sequences_IDs/A/02_seaturtle.jpg,9,2,4,2,2,1,7,1,0,61,,,,,,,,,,,,,
,,,,,61,2020-07-04_17h22.47.286,retriever_ti,2020.1.3,Win32,60,Chrome,1366,768,,,,,,,,,,,,,,,,,1,,,,,,,,,,,,,,,,,,,,,,,,,,,178.66404,23,right,0.78716,clownfish     ,8,4,1,1,1,178.69732,178.69732,181.716655,0,22,22,22,1,23,7,8,sport_tshirt,clownfish     ,html/resources/sequences_IDs/B/07_sport_tshirt.jpg,html/resources/sequences_IDs/A/04_clownfish.jpg,7,4,3,2,2,1,5,3,0,61,,,,,,,,,,,,,
,,,,,61,2020-07-04_17h22.47.286,retriever_ti,2020.1.3,Win32,60,Chrome,1366,768,,,,,,,,,,,,,,,,,1,,,,,,,,,,,,,,,,,,,,,,,,,,,182.816155,24,right,0.877105,phone       ,3,9,1,1,1,182.85202,182.85202,185.34884,0,23,23,23,1,24,2,3,peacock       ,phone       ,html/resources/sequences_IDs/A/05_peacock.jpg,html/resources/sequences_IDs/B/09_phone.jpg,5,9,2,1,4,2,4,7,0,61,,,,,,,,,,,,,
,,,,,61,2020-07-04_17h22.47.286,retriever_ti,2020.1.3,Win32,60,Chrome,1366,768,,,,,,,,,,,,,,,,,1,,,,,,,,,,,,,,,,,,,,,,,,,,,186.452555,25,left,1.159745,radio       ,1,10,-2,0,3,186.46991,186.46991,188.967,0,24,24,24,1,25,1,3,radio       ,phone       ,html/resources/sequences_IDs/B/10_radio.jpg,html/resources/sequences_IDs/B/09_phone.jpg,10,9,4,2,4,2,8,7,0,61,,,,,,,,,,,,,
,,,,,61,2020-07-04_17h22.47.286,retriever_ti,2020.1.3,Win32,60,Chrome,1366,768,,,,,,,,,,,,,,,,,1,,,,,,,,,,,,,,,,,,,,,,,,,,,189.56806,26,right,0.907545,peacock       ,2,5,-5,0,3,189.58565,189.58565,192.085155,0,25,25,25,1,26,7,2,sport_tshirt,peacock       ,html/resources/sequences_IDs/B/07_sport_tshirt.jpg,html/resources/sequences_IDs/A/05_peacock.jpg,7,5,3,2,2,1,5,4,0,61,,,,,,,,,,,,,
,,,,,61,2020-07-04_17h22.47.286,retriever_ti,2020.1.3,Win32,60,Chrome,1366,768,,,,,,,,,,,,,,,,,1,,,,,,,,,,,,,,,,,,,,,,,,,,,192.68705,27,right,0.820865,giraffe     ,5,3,-1,0,0,192.72005,192.72005,195.2198,0,26,26,26,1,27,6,5,hat           ,giraffe     ,html/resources/sequences_IDs/A/08_hat.jpg,html/resources/sequences_IDs/B/03_giraffe.jpg,8,3,3,2,1,1,6,2,0,61,,,,,,,,,,,,,
,,,,,61,2020-07-04_17h22.47.286,retriever_ti,2020.1.3,Win32,60,Chrome,1366,768,,,,,,,,,,,,,,,,,1,,,,,,,,,,,,,,,,,,,,,,,,,,,196.321965,28,left,0.49257,phone       ,3,9,-2,0,3,196.338355,196.338355,198.83805,0,27,27,27,1,28,3,5,phone       ,giraffe     ,html/resources/sequences_IDs/B/09_phone.jpg,html/resources/sequences_IDs/B/03_giraffe.jpg,9,3,4,2,1,1,7,2,0,61,,,,,,,,,,,,,
,,,,,61,2020-07-04_17h22.47.286,retriever_ti,2020.1.3,Win32,60,Chrome,1366,768,,,,,,,,,,,,,,,,,1,,,,,,,,,,,,,,,,,,,,,,,,,,,199.439575,29,left,0.741455,radio       ,1,10,-1,0,1,199.474325,199.474325,201.972685,0,28,28,28,1,29,1,2,radio       ,peacock       ,html/resources/sequences_IDs/B/10_radio.jpg,html/resources/sequences_IDs/A/05_peacock.jpg,10,5,4,2,2,1,8,4,1,61,,,,,,,,,,,,,
,,,,,61,2020-07-04_17h22.47.286,retriever_ti,2020.1.3,Win32,60,Chrome,1366,768,,,,,,,,,,,,,,,,,1,,,,,,,,,,,,,,,,,,,,,,,,,,,203.075855,30,right,0.640015,clownfish     ,8,4,5,1,3,203.091755,203.091755,205.590975,0,29,29,29,1,30,3,8,phone       ,clownfish     ,html/resources/sequences_IDs/B/09_phone.jpg,html/resources/sequences_IDs/A/04_clownfish.jpg,9,4,4,2,2,1,7,3,0,61,,,,,,,,,,,,,
,,,,,61,2020-07-04_17h22.47.286,retriever_ti,2020.1.3,Win32,60,Chrome,1366,768,,,,,,,,,,,,,,,,,1,,,,,,,,,,,,,,,,,,,,,,,,,,,206.19188,31,right,0.89437,peacock       ,2,5,-2,0,3,206.209785,206.209785,208.709075,0,30,30,30,1,31,4,2,seaturtle     ,peacock       ,html/resources/sequences_IDs/A/02_seaturtle.jpg,html/resources/sequences_IDs/A/05_peacock.jpg,2,5,2,1,2,1,1,4,0,61,,,,,,,,,,,,,
,,,,,61,2020-07-04_17h22.47.286,retriever_ti,2020.1.3,Win32,60,Chrome,1366,768,,,,,,,,,,,,,,,,,1,,,,,,,,,,,,,,,,,,,,,,,,,,,209.312825,32,left,0.67885,hat           ,6,8,1,1,1,209.34717,209.34717,211.84377,0,31,31,31,1,32,6,5,hat           ,giraffe     ,html/resources/sequences_IDs/A/08_hat.jpg,html/resources/sequences_IDs/B/03_giraffe.jpg,8,3,3,2,1,1,6,2,0,61,,,,,,,,,,,,,
,,,,,61,2020-07-04_17h22.47.286,retriever_ti,2020.1.3,Win32,60,Chrome,1366,768,,,,,,,,,,,,,,,,,1,,,,,,,,,,,,,,,,,,,,,,,,,,,212.94809,33,right,0.57649,clownfish     ,8,4,1,1,1,212.96592,212.96592,215.462245,0,32,32,32,1,33,7,8,sport_tshirt,clownfish     ,html/resources/sequences_IDs/B/07_sport_tshirt.jpg,html/resources/sequences_IDs/A/04_clownfish.jpg,7,4,3,2,2,1,5,3,0,61,,,,,,,,,,,,,
,,,,,61,2020-07-04_17h22.47.286,retriever_ti,2020.1.3,Win32,60,Chrome,1366,768,,,,,,,,,,,,,,,,,1,,,,,,,,,,,,,,,,,,,,,,,,,,,216.56411,34,left,0.871195,phone       ,3,9,1,1,1,216.58098,216.58098,219.0802,0,33,33,33,1,34,3,2,phone       ,peacock       ,html/resources/sequences_IDs/B/09_phone.jpg,html/resources/sequences_IDs/A/05_peacock.jpg,9,5,4,2,2,1,7,4,0,61,,,,,,,,,,,,,
,,,,,61,2020-07-04_17h22.47.286,retriever_ti,2020.1.3,Win32,60,Chrome,1366,768,,,,,,,,,,,,,,,,,1,,,,,,,,,,,,,,,,,,,,,,,,,,,220.18147,35,right,1.16135,phone       ,3,9,-4,0,3,220.215525,220.215525,222.71515,0,34,34,34,1,35,7,3,sport_tshirt,phone       ,html/resources/sequences_IDs/B/07_sport_tshirt.jpg,html/resources/sequences_IDs/B/09_phone.jpg,7,9,3,2,4,2,5,7,0,61,,,,,,,,,,,,,
,,,,,61,2020-07-04_17h22.47.286,retriever_ti,2020.1.3,Win32,60,Chrome,1366,768,,,,,,,,,,,,,,,,,1,,,,,,,,,,,,,,,,,,,,,,,,,,,223.31709,36,left,0.956825,clownfish     ,8,4,1,1,1,223.334045,223.334045,225.833255,0,35,35,35,1,36,8,7,clownfish     ,sport_tshirt,html/resources/sequences_IDs/A/04_clownfish.jpg,html/resources/sequences_IDs/B/07_sport_tshirt.jpg,4,7,2,1,3,2,3,5,0,61,,,,,,,,,,,,,
,,,,,61,2020-07-04_17h22.47.286,retriever_ti,2020.1.3,Win32,60,Chrome,1366,768,,,,,,,,,,,,,,,,,1,,,,,,,,,,,,,,,,,,,,,,,,,,,226.93691,37,right,1.149,seaturtle     ,4,2,3,1,3,226.97159,226.97159,229.468115,0,36,36,36,1,37,1,4,radio       ,seaturtle     ,html/resources/sequences_IDs/B/10_radio.jpg,html/resources/sequences_IDs/A/02_seaturtle.jpg,10,2,4,2,2,1,8,1,0,61,,,,,,,,,,,,,
,,,,,61,2020-07-04_17h22.47.286,retriever_ti,2020.1.3,Win32,60,Chrome,1366,768,,,,,,,,,,,,,,,,,1,,,,,,,,,,,,,,,,,,,,,,,,,,,230.069065,38,left,0.66319,clownfish     ,8,4,4,1,3,230.086885,230.086885,232.586215,0,37,37,37,1,38,8,4,clownfish     ,seaturtle     ,html/resources/sequences_IDs/A/04_clownfish.jpg,html/resources/sequences_IDs/A/02_seaturtle.jpg,4,2,2,1,2,1,3,1,0,61,,,,,,,,,,,,,
,,,,,61,2020-07-04_17h22.47.286,retriever_ti,2020.1.3,Win32,60,Chrome,1366,768,,,,,,,,,,,,,,,,,1,,,,,,,,,,,,,,,,,,,,,,,,,,,233.1877,39,right,0.94505,hat           ,6,8,3,1,3,233.22117,233.22117,235.72089,0,38,38,38,1,39,3,6,phone       ,hat           ,html/resources/sequences_IDs/B/09_phone.jpg,html/resources/sequences_IDs/A/08_hat.jpg,9,8,4,2,3,2,7,6,0,61,,,,,,,,,,,,,
,,,,,61,2020-07-04_17h22.47.286,retriever_ti,2020.1.3,Win32,60,Chrome,1366,768,,,,,,,,,,,,,,,,,1,,,,,,,,,,,,,,,,,,,,,,,,,,,236.32199,40,right,1.1945,seaturtle     ,4,2,-3,0,3,236.33922,236.33922,238.838985,0,39,39,39,1,40,7,4,sport_tshirt,seaturtle     ,html/resources/sequences_IDs/B/07_sport_tshirt.jpg,html/resources/sequences_IDs/A/02_seaturtle.jpg,7,2,3,2,2,1,5,1,0,61,,,,,,,,,,,,,
,,,,,61,2020-07-04_17h22.47.286,retriever_ti,2020.1.3,Win32,60,Chrome,1366,768,,,,,,,,,,,,,,,,,1,,,,,,,,,,,,,,,,,,,,,,,,,,,239.44065,41,right,0.74806,clownfish     ,8,4,2,1,3,239.47458,239.47458,241.973575,0,40,40,40,1,41,6,8,hat           ,clownfish     ,html/resources/sequences_IDs/A/08_hat.jpg,html/resources/sequences_IDs/A/04_clownfish.jpg,8,4,3,2,2,1,6,3,0,61,,,,,,,,,,,,,
,,,,,61,2020-07-04_17h22.47.286,retriever_ti,2020.1.3,Win32,60,Chrome,1366,768,,,,,,,,,,,,,,,,,1,,,,,,,,,,,,,,,,,,,,,,,,,,,242.57508,42,left,0.88717,radio       ,1,10,-5,0,3,242.610895,242.610895,245.10842,0,41,41,41,1,42,1,6,radio       ,hat           ,html/resources/sequences_IDs/B/10_radio.jpg,html/resources/sequences_IDs/A/08_hat.jpg,10,8,4,2,3,2,8,6,0,61,,,,,,,,,,,,,
,,,,,61,2020-07-04_17h22.47.286,retriever_ti,2020.1.3,Win32,60,Chrome,1366,768,,,,,,,,,,,,,,,,,1,,,,,,,,,,,,,,,,,,,,,,,,,,,245.726695,43,right,0.983045,peacock       ,2,5,-4,0,3,245.743895,245.743895,248.693835,0,42,42,42,1,43,6,2,hat           ,peacock       ,html/resources/sequences_IDs/A/08_hat.jpg,html/resources/sequences_IDs/A/05_peacock.jpg,8,5,3,2,2,1,6,4,0,61,,,,,,,,,,,,,
,,,,,61,2020-07-04_17h22.47.286,retriever_ti,2020.1.3,Win32,60,Chrome,1366,768,,,,,,,,,,,,,,,,,1,,,,,,,,,,,,,,,,,,,,,,,,,,,249.312155,44,right,0.73057,clownfish     ,8,4,4,1,3,249.329155,249.329155,251.827985,0,43,43,43,1,44,4,8,seaturtle     ,clownfish     ,html/resources/sequences_IDs/A/02_seaturtle.jpg,html/resources/sequences_IDs/A/04_clownfish.jpg,2,4,2,1,2,1,1,3,0,61,,,,,,,,,,,,,
,,,,,61,2020-07-04_17h22.47.286,retriever_ti,2020.1.3,Win32,60,Chrome,1366,768,,,,,,,,,,,,,,,,,1,,,,,,,,,,,,,,,,,,,,,,,,,,,252.429795,45,right,1.02046,clownfish     ,8,4,3,1,3,252.465585,252.465585,254.96261,0,44,44,44,1,45,5,8,giraffe     ,clownfish     ,html/resources/sequences_IDs/B/03_giraffe.jpg,html/resources/sequences_IDs/A/04_clownfish.jpg,3,4,1,1,2,1,2,3,0,61,,,,,,,,,,,,,
,,,,,61,2020-07-04_17h22.47.286,retriever_ti,2020.1.3,Win32,60,Chrome,1366,768,,,,,,,,,,,,,,,,,1,,,,,,,,,,,,,,,,,,,,,,,,,,,255.56457,46,left,0.631145,clownfish     ,8,4,5,1,3,255.59806,255.59806,258.097325,0,45,45,45,1,46,8,3,clownfish     ,phone       ,html/resources/sequences_IDs/A/04_clownfish.jpg,html/resources/sequences_IDs/B/09_phone.jpg,4,9,2,1,4,2,3,7,0,61,,,,,,,,,,,,,
,,,,,61,2020-07-04_17h22.47.286,retriever_ti,2020.1.3,Win32,60,Chrome,1366,768,,,,,,,,,,,,,,,,,1,,,,,,,,,,,,,,,,,,,,,,,,,,,258.699505,47,left,0.741245,clownfish     ,8,4,1,1,1,258.73356,258.73356,261.232145,0,46,46,46,1,47,8,7,clownfish     ,sport_tshirt,html/resources/sequences_IDs/A/04_clownfish.jpg,html/resources/sequences_IDs/B/07_sport_tshirt.jpg,4,7,2,1,3,2,3,5,0,61,,,,,,,,,,,,,
,,,,,61,2020-07-04_17h22.47.286,retriever_ti,2020.1.3,Win32,60,Chrome,1366,768,,,,,,,,,,,,,,,,,1,,,,,,,,,,,,,,,,,,,,,,,,,,,262.33605,48,right,1.02047,radio       ,1,10,-2,0,3,262.372535,262.372535,264.866925,0,47,47,47,1,48,3,1,phone       ,radio       ,html/resources/sequences_IDs/B/09_phone.jpg,html/resources/sequences_IDs/B/10_radio.jpg,9,10,4,2,4,2,7,8,0,61,,,,,,,,,,,,,
,,,,,61,2020-07-04_17h22.47.286,retriever_ti,2020.1.3,Win32,60,Chrome,1366,768,,,,,,,,,,,,,,,,,1,,,,,,,,,,,,,,,,,,,,,,,,,,,265.47072,49,right,0.99905,giraffe     ,5,3,3,1,3,265.503185,265.503185,268.00178,0,48,48,48,1,49,2,5,peacock       ,giraffe     ,html/resources/sequences_IDs/A/05_peacock.jpg,html/resources/sequences_IDs/B/03_giraffe.jpg,5,3,2,1,1,1,4,2,0,61,,,,,,,,,,,,,
,,,,,61,2020-07-04_17h22.47.286,retriever_ti,2020.1.3,Win32,60,Chrome,1366,768,,,,,,,,,,,,,,,,,1,,,,,,,,,,,,,,,,,,,,,,,,,,,268.602775,50,left,1.10655,sport_tshirt,7,7,6,1,3,268.620775,268.620775,271.136495,0,49,49,49,1,50,7,1,sport_tshirt,radio       ,html/resources/sequences_IDs/B/07_sport_tshirt.jpg,html/resources/sequences_IDs/B/10_radio.jpg,7,10,3,2,4,2,5,8,0,61,,,,,,,,,,,,,
,,,,,61,2020-07-04_17h22.47.286,retriever_ti,2020.1.3,Win32,60,Chrome,1366,768,,,,,,,,,,,,,,,,,1,,,,,,,,,,,,,,,,,,,,,,,,,,,271.73819,51,left,1.1446,phone       ,3,9,-1,0,0,271.77156,271.77156,274.271085,0,50,50,50,1,51,3,4,phone       ,seaturtle     ,html/resources/sequences_IDs/B/09_phone.jpg,html/resources/sequences_IDs/A/02_seaturtle.jpg,9,2,4,2,2,1,7,1,0,61,,,,,,,,,,,,,
,,,,,61,2020-07-04_17h22.47.286,retriever_ti,2020.1.3,Win32,60,Chrome,1366,768,,,,,,,,,,,,,,,,,1,,,,,,,,,,,,,,,,,,,,,,,,,,,275.373095,52,right,1.26033,phone       ,3,9,-1,0,0,275.39003,275.39003,277.889365,0,51,51,51,1,52,4,3,seaturtle     ,phone       ,html/resources/sequences_IDs/A/02_seaturtle.jpg,html/resources/sequences_IDs/B/09_phone.jpg,2,9,2,1,4,2,1,7,0,61,,,,,,,,,,,,,
,,,,,61,2020-07-04_17h22.47.286,retriever_ti,2020.1.3,Win32,60,Chrome,1366,768,,,,,,,,,,,,,,,,,1,,,,,,,,,,,,,,,,,,,,,,,,,,,278.993285,53,left,0.658565,hat           ,6,8,1,1,0,279.009025,279.009025,281.50758,0,52,52,52,1,53,6,5,hat           ,giraffe     ,html/resources/sequences_IDs/A/08_hat.jpg,html/resources/sequences_IDs/B/03_giraffe.jpg,8,3,3,2,1,1,6,2,1,61,,,,,,,,,,,,,
,,,,,61,2020-07-04_17h22.47.286,retriever_ti,2020.1.3,Win32,60,Chrome,1366,768,,,,,,,,,,,,,,,,,1,,,,,,,,,,,,,,,,,,,,,,,,,,,282.608635,54,right,0.83442,peacock       ,2,5,1,1,1,282.62657,282.62657,285.125865,0,53,53,53,1,54,1,2,radio       ,peacock       ,html/resources/sequences_IDs/B/10_radio.jpg,html/resources/sequences_IDs/A/05_peacock.jpg,10,5,4,2,2,1,8,4,0,61,,,,,,,,,,,,,
,,,,,61,2020-07-04_17h22.47.286,retriever_ti,2020.1.3,Win32,60,Chrome,1366,768,,,,,,,,,,,,,,,,,1,,,,,,,,,,,,,,,,,,,,,,,,,,,286.22761,55,right,0.771135,sport_tshirt,7,7,1,1,0,286.26131,286.26131,288.760765,0,54,54,54,1,55,6,7,hat           ,sport_tshirt,html/resources/sequences_IDs/A/08_hat.jpg,html/resources/sequences_IDs/B/07_sport_tshirt.jpg,8,7,3,2,3,2,6,5,1,61,,,,,,,,,,,,,
,,,,,61,2020-07-04_17h22.47.286,retriever_ti,2020.1.3,Win32,60,Chrome,1366,768,,,,,,,,,,,,,,,,,1,,,,,,,,,,,,,,,,,,,,,,,,,,,289.862725,56,left,0.553515,peacock       ,2,5,-6,0,3,289.896,289.896,292.3956,0,55,55,55,1,56,2,8,peacock       ,clownfish     ,html/resources/sequences_IDs/A/05_peacock.jpg,html/resources/sequences_IDs/A/04_clownfish.jpg,5,4,2,1,2,1,4,3,0,61,,,,,,,,,,,,,
,,,,,61,2020-07-04_17h22.47.286,retriever_ti,2020.1.3,Win32,60,Chrome,1366,768,,,,,,,,,,,,,,,,,1,,,,,,,,,,,,,,,,,,,,,,,,,,,292.99814,57,right,0.648025,seaturtle     ,4,2,-2,0,3,293.03138,293.03138,295.53047,0,56,56,56,1,57,6,4,hat           ,seaturtle     ,html/resources/sequences_IDs/A/08_hat.jpg,html/resources/sequences_IDs/A/02_seaturtle.jpg,8,2,3,2,2,1,6,1,0,61,,,,,,,,,,,,,
,,,,,61,2020-07-04_17h22.47.286,retriever_ti,2020.1.3,Win32,60,Chrome,1366,768,,,,,,,,,,,,,,,,,1,,,,,,,,,,,,,,,,,,,,,,,,,,,296.131415,58,right,0.75632,peacock       ,2,5,-3,0,3,296.14901,296.14901,298.648675,0,57,57,57,1,58,5,2,giraffe     ,peacock       ,html/resources/sequences_IDs/B/03_giraffe.jpg,html/resources/sequences_IDs/A/05_peacock.jpg,3,5,1,1,2,1,2,4,0,61,,,,,,,,,,,,,
,,,,,61,2020-07-04_17h22.47.286,retriever_ti,2020.1.3,Win32,60,Chrome,1366,768,,,,,,,,,,,,,,,,,1,,,,,,,,,,,,,,,,,,,,,,,,,,,299.25093,59,right,0.9286,phone       ,3,9,-1,0,0,299.284635,299.284635,301.78322,0,58,58,58,1,59,4,3,seaturtle     ,phone       ,html/resources/sequences_IDs/A/02_seaturtle.jpg,html/resources/sequences_IDs/B/09_phone.jpg,2,9,2,1,4,2,1,7,0,61,,,,,,,,,,,,,
,,,,,61,2020-07-04_17h22.47.286,retriever_ti,2020.1.3,Win32,60,Chrome,1366,768,,,,,,,,,,,,,,,,,1,,,,,,,,,,,,,,,,,,,,,,,,,,,302.88578,60,left,0.816185,hat           ,6,8,-1,0,0,302.92225,302.92225,305.418085,0,59,59,59,1,60,6,7,hat           ,sport_tshirt,html/resources/sequences_IDs/A/08_hat.jpg,html/resources/sequences_IDs/B/07_sport_tshirt.jpg,8,7,3,2,3,2,6,5,0,61,,,,,,,,,,,,,
,,,,,61,2020-07-04_17h22.47.286,retriever_ti,2020.1.3,Win32,60,Chrome,1366,768,,,,,,,,,,,,,,,,,1,,,,,,,,,,,,,,,,,,,,,,,,,,,306.521205,61,right,0.73782,clownfish     ,8,4,1,1,0,306.55394,306.55394,309.052995,0,60,60,60,1,61,7,8,sport_tshirt,clownfish     ,html/resources/sequences_IDs/B/07_sport_tshirt.jpg,html/resources/sequences_IDs/A/04_clownfish.jpg,7,4,3,2,2,1,5,3,1,61,,,,,,,,,,,,,
,,,,,61,2020-07-04_17h22.47.286,retriever_ti,2020.1.3,Win32,60,Chrome,1366,768,,,,,,,,,,,,,,,,,1,,,,,,,,,,,,,,,,,,,,,,,,,,,310.156585,62,left,0.740005,phone       ,3,9,-1,0,1,310.191835,310.191835,312.687985,0,61,61,61,1,62,3,4,phone       ,seaturtle     ,html/resources/sequences_IDs/B/09_phone.jpg,html/resources/sequences_IDs/A/02_seaturtle.jpg,9,2,4,2,2,1,7,1,1,61,,,,,,,,,,,,,
,,,,,61,2020-07-04_17h22.47.286,retriever_ti,2020.1.3,Win32,60,Chrome,1366,768,,,,,,,,,,,,,,,,,1,,,,,,,,,,,,,,,,,,,,,,,,,,,313.78983,63,left,1.30043,giraffe     ,5,3,-1,0,0,313.82333,313.82333,316.322905,0,62,62,62,1,63,5,6,giraffe     ,hat           ,html/resources/sequences_IDs/B/03_giraffe.jpg,html/resources/sequences_IDs/A/08_hat.jpg,3,8,1,1,3,2,2,6,0,61,,,,,,,,,,,,,
,,,,,61,2020-07-04_17h22.47.286,retriever_ti,2020.1.3,Win32,60,Chrome,1366,768,,,,,,,,,,,,,,,,,1,,,,,,,,,,,,,,,,,,,,,,,,,,,317.425045,64,right,0.575405,clownfish     ,8,4,7,1,3,317.458435,317.458435,319.95791,0,63,63,63,1,64,1,8,radio       ,clownfish     ,html/resources/sequences_IDs/B/10_radio.jpg,html/resources/sequences_IDs/A/04_clownfish.jpg,10,4,4,2,2,1,8,3,0,61,,,,,,,,,,,,,
,,,,,61,2020-07-04_17h22.47.286,retriever_ti,2020.1.3,Win32,60,Chrome,1366,768,,,,,,,,,,,,,,,,,1,,,,,,,,,,,,,,,,,,,,,,,,,,,320.57556,65,right,0.72841,sport_tshirt,7,7,4,1,3,320.60977,320.60977,323.10912,0,64,64,64,1,65,3,7,phone       ,sport_tshirt,html/resources/sequences_IDs/B/09_phone.jpg,html/resources/sequences_IDs/B/07_sport_tshirt.jpg,9,7,4,2,3,2,7,5,0,61,,,,,,,,,,,,,
,,,,,61,2020-07-04_17h22.47.286,retriever_ti,2020.1.3,Win32,60,Chrome,1366,768,,,,,,,,,,,,,,,,,1,,,,,,,,,,,,,,,,,,,,,,,,,,,323.710805,66,left,0.77592,sport_tshirt,7,7,1,1,1,323.745015,323.745015,326.360495,0,65,65,65,1,66,7,6,sport_tshirt,hat           ,html/resources/sequences_IDs/B/07_sport_tshirt.jpg,html/resources/sequences_IDs/A/08_hat.jpg,7,8,3,2,3,2,5,6,0,61,,,,,,,,,,,,,
,,,,,61,2020-07-04_17h22.47.286,retriever_ti,2020.1.3,Win32,60,Chrome,1366,768,,,,,,,,,,,,,,,,,1,,,,,,,,,,,,,,,,,,,,,,,,,,,327.464175,67,left,1.168815,peacock       ,2,5,1,1,1,327.49747,327.49747,329.995735,0,66,66,66,1,67,2,1,peacock       ,radio       ,html/resources/sequences_IDs/A/05_peacock.jpg,html/resources/sequences_IDs/B/10_radio.jpg,5,10,2,1,4,2,4,8,0,61,,,,,,,,,,,,,
,,,,,61,2020-07-04_17h22.47.286,retriever_ti,2020.1.3,Win32,60,Chrome,1366,768,,,,,,,,,,,,,,,,,1,,,,,,,,,,,,,,,,,,,,,,,,,,,331.09725,68,left,1.03451,giraffe     ,5,3,1,1,1,331.131065,331.131065,333.63042,0,67,67,67,1,68,5,4,giraffe     ,seaturtle     ,html/resources/sequences_IDs/B/03_giraffe.jpg,html/resources/sequences_IDs/A/02_seaturtle.jpg,3,2,1,1,2,1,2,1,0,61,,,,,,,,,,,,,
,,,,,61,2020-07-04_17h22.47.286,retriever_ti,2020.1.3,Win32,60,Chrome,1366,768,,,,,,,,,,,,,,,,,1,,,,,,,,,,,,,,,,,,,,,,,,,,,334.733215,69,right,1.00598,peacock       ,2,5,-1,0,0,334.74963,334.74963,337.248625,0,68,68,68,1,69,3,2,phone       ,peacock       ,html/resources/sequences_IDs/B/09_phone.jpg,html/resources/sequences_IDs/A/05_peacock.jpg,9,5,4,2,2,1,7,4,0,61,,,,,,,,,,,,,
,,,,,61,2020-07-04_17h22.47.286,retriever_ti,2020.1.3,Win32,60,Chrome,1366,768,,,,,,,,,,,,,,,,,1,,,,,,,,,,,,,,,,,,,,,,,,,,,338.3528,70,right,1.38451,giraffe     ,5,3,1,1,1,338.370445,338.370445,340.86721,0,69,69,69,1,70,4,5,seaturtle     ,giraffe     ,html/resources/sequences_IDs/A/02_seaturtle.jpg,html/resources/sequences_IDs/B/03_giraffe.jpg,2,3,2,1,1,1,1,2,0,61,,,,,,,,,,,,,
,,,,,61,2020-07-04_17h22.47.286,retriever_ti,2020.1.3,Win32,60,Chrome,1366,768,,,,,,,,,,,,,,,,,1,,,,,,,,,,,,,,,,,,,,,,,,,,,341.96928,71,right,0.97027,hat           ,6,8,2,1,3,342.00369,342.00369,344.50181,0,70,70,70,1,71,4,6,seaturtle     ,hat           ,html/resources/sequences_IDs/A/02_seaturtle.jpg,html/resources/sequences_IDs/A/08_hat.jpg,2,8,2,1,3,2,1,6,0,61,,,,,,,,,,,,,
,,,,,61,2020-07-04_17h22.47.286,retriever_ti,2020.1.3,Win32,60,Chrome,1366,768,,,,,,,,,,,,,,,,,1,,,,,,,,,,,,,,,,,,,,,,,,,,,345.102985,72,right,1.179695,radio       ,1,10,-5,0,3,345.140255,345.140255,347.63667,0,71,71,71,1,72,6,1,hat           ,radio       ,html/resources/sequences_IDs/A/08_hat.jpg,html/resources/sequences_IDs/B/10_radio.jpg,8,10,3,2,4,2,6,8,0,61,,,,,,,,,,,,,
,,,,,61,2020-07-04_17h22.47.286,retriever_ti,2020.1.3,Win32,60,Chrome,1366,768,,,,,,,,,,,,,,,,,1,,,,,,,,,,,,,,,,,,,,,,,,,,,348.238455,73,right,0.88818,sport_tshirt,7,7,1,1,1,348.27361,348.27361,350.77145,0,72,72,72,1,73,6,7,hat           ,sport_tshirt,html/resources/sequences_IDs/A/08_hat.jpg,html/resources/sequences_IDs/B/07_sport_tshirt.jpg,8,7,3,2,3,2,6,5,0,61,,,,,,,,,,,,,
,,,,,61,2020-07-04_17h22.47.286,retriever_ti,2020.1.3,Win32,60,Chrome,1366,768,,,,,,,,,,,,,,,,,1,,,,,,,,,,,,,,,,,,,,,,,,,,,351.87301,74,right,0.80152,sport_tshirt,7,7,6,1,3,351.907115,351.907115,354.406225,0,73,73,73,1,74,1,7,radio       ,sport_tshirt,html/resources/sequences_IDs/B/10_radio.jpg,html/resources/sequences_IDs/B/07_sport_tshirt.jpg,10,7,4,2,3,2,8,5,0,61,,,,,,,,,,,,,
,,,,,61,2020-07-04_17h22.47.286,retriever_ti,2020.1.3,Win32,60,Chrome,1366,768,,,,,,,,,,,,,,,,,1,,,,,,,,,,,,,,,,,,,,,,,,,,,355.00758,75,right,1.00911,peacock       ,2,5,1,1,1,355.04278,355.04278,357.54108,0,74,74,74,1,75,1,2,radio       ,peacock       ,html/resources/sequences_IDs/B/10_radio.jpg,html/resources/sequences_IDs/A/05_peacock.jpg,10,5,4,2,2,1,8,4,0,61,,,,,,,,,,,,,
,,,,,61,2020-07-04_17h22.47.286,retriever_ti,2020.1.3,Win32,60,Chrome,1366,768,,,,,,,,,,,,,,,,,1,,,,,,,,,,,,,,,,,,,,,,,,,,,358.64357,76,left,0.64456,clownfish     ,8,4,6,1,3,358.66002,358.66002,361.159445,0,75,75,75,1,76,8,2,clownfish     ,peacock       ,html/resources/sequences_IDs/A/04_clownfish.jpg,html/resources/sequences_IDs/A/05_peacock.jpg,4,5,2,1,2,1,3,4,0,61,,,,,,,,,,,,,
,,,,,61,2020-07-04_17h22.47.286,retriever_ti,2020.1.3,Win32,60,Chrome,1366,768,,,,,,,,,,,,,,,,,1,,,,,,,,,,,,,,,,,,,,,,,,,,,361.76127,77,left,1.093495,giraffe     ,5,3,1,1,0,361.794475,361.794475,364.293945,0,76,76,76,1,77,5,4,giraffe     ,seaturtle     ,html/resources/sequences_IDs/B/03_giraffe.jpg,html/resources/sequences_IDs/A/02_seaturtle.jpg,3,2,1,1,2,1,2,1,1,61,,,,,,,,,,,,,
,,,,,61,2020-07-04_17h22.47.286,retriever_ti,2020.1.3,Win32,60,Chrome,1366,768,,,,,,,,,,,,,,,,,,,,,,,,,,,,,,,,,,,,,0,2.108615,,,,,,,,,,,,,,,,,,,,,,,,,,,,,,,,,,,,,,,,,0,0,0,0,1,,,,,,,,
,,,,,61,2020-07-04_17h22.47.286,retriever_ti,2020.1.3,Win32,60,Chrome,1366,768,,,,,,,,,,,,,,,,,2,,,,,,,,,,,,,,,,,,,,,,,,,,,384.52474,78,right,0.527815,sport_tshirt,7,7,3,1,3,384.55121,384.55121,387.04027,0,0,0,0,1,78,4,7,seaturtle     ,sport_tshirt,html/resources/sequences_IDs/A/02_seaturtle.jpg,html/resources/sequences_IDs/B/07_sport_tshirt.jpg,2,7,2,1,3,2,1,5,0,61,,,,,,,,,,,,,
,,,,,61,2020-07-04_17h22.47.286,retriever_ti,2020.1.3,Win32,60,Chrome,1366,768,,,,,,,,,,,,,,,,,2,,,,,,,,,,,,,,,,,,,,,,,,,,,387.65498,79,left,0.89604,seaturtle     ,4,2,1,1,1,387.68651,387.68651,390.18847,0,1,1,1,1,79,4,3,seaturtle     ,phone       ,html/resources/sequences_IDs/A/02_seaturtle.jpg,html/resources/sequences_IDs/B/09_phone.jpg,2,9,2,1,4,2,1,7,0,61,,,,,,,,,,,,,
,,,,,61,2020-07-04_17h22.47.286,retriever_ti,2020.1.3,Win32,60,Chrome,1366,768,,,,,,,,,,,,,,,,,2,,,,,,,,,,,,,,,,,,,,,,,,,,,391.29049,80,right,0.78138,clownfish     ,8,4,5,1,3,391.32446,391.32446,393.823475,0,2,2,2,1,80,3,8,phone       ,clownfish     ,html/resources/sequences_IDs/B/09_phone.jpg,html/resources/sequences_IDs/A/04_clownfish.jpg,9,4,4,2,2,1,7,3,0,61,,,,,,,,,,,,,
,,,,,61,2020-07-04_17h22.47.286,retriever_ti,2020.1.3,Win32,60,Chrome,1366,768,,,,,,,,,,,,,,,,,2,,,,,,,,,,,,,,,,,,,,,,,,,,,394.42517,81,left,0.72124,peacock       ,2,5,-1,0,0,394.45954,394.45954,396.961275,0,3,3,3,1,81,2,3,peacock       ,phone       ,html/resources/sequences_IDs/A/05_peacock.jpg,html/resources/sequences_IDs/B/09_phone.jpg,5,9,2,1,4,2,4,7,0,61,,,,,,,,,,,,,
,,,,,61,2020-07-04_17h22.47.286,retriever_ti,2020.1.3,Win32,60,Chrome,1366,768,,,,,,,,,,,,,,,,,2,,,,,,,,,,,,,,,,,,,,,,,,,,,398.06081,82,left,0.851685,giraffe     ,5,3,-1,0,0,398.094515,398.094515,400.597795,0,4,4,4,1,82,5,6,giraffe     ,hat           ,html/resources/sequences_IDs/B/03_giraffe.jpg,html/resources/sequences_IDs/A/08_hat.jpg,3,8,1,1,3,2,2,6,0,61,,,,,,,,,,,,,
,,,,,61,2020-07-04_17h22.47.286,retriever_ti,2020.1.3,Win32,60,Chrome,1366,768,,,,,,,,,,,,,,,,,2,,,,,,,,,,,,,,,,,,,,,,,,,,,401.69606,83,right,0.769715,phone       ,3,9,-1,0,1,401.730375,401.730375,404.228185,0,5,5,5,1,83,4,3,seaturtle     ,phone       ,html/resources/sequences_IDs/A/02_seaturtle.jpg,html/resources/sequences_IDs/B/09_phone.jpg,2,9,2,1,4,2,1,7,1,61,,,,,,,,,,,,,
,,,,,61,2020-07-04_17h22.47.286,retriever_ti,2020.1.3,Win32,60,Chrome,1366,768,,,,,,,,,,,,,,,,,2,,,,,,,,,,,,,,,,,,,,,,,,,,,405.329765,84,left,1.0655,giraffe     ,5,3,2,1,3,405.348265,405.348265,407.84627,0,6,6,6,1,84,5,3,giraffe     ,phone       ,html/resources/sequences_IDs/B/03_giraffe.jpg,html/resources/sequences_IDs/B/09_phone.jpg,3,9,1,1,4,2,2,7,0,61,,,,,,,,,,,,,
,,,,,61,2020-07-04_17h22.47.286,retriever_ti,2020.1.3,Win32,60,Chrome,1366,768,,,,,,,,,,,,,,,,,2,,,,,,,,,,,,,,,,,,,,,,,,,,,408.44864,85,left,0.86485,sport_tshirt,7,7,3,1,3,408.48221,408.48221,410.981225,0,7,7,7,1,85,7,4,sport_tshirt,seaturtle     ,html/resources/sequences_IDs/B/07_sport_tshirt.jpg,html/resources/sequences_IDs/A/02_seaturtle.jpg,7,2,3,2,2,1,5,1,0,61,,,,,,,,,,,,,
,,,,,61,2020-07-04_17h22.47.286,retriever_ti,2020.1.3,Win32,60,Chrome,1366,768,,,,,,,,,,,,,,,,,2,,,,,,,,,,,,,,,,,,,,,,,,,,,411.599275,86,right,0.64607,clownfish     ,8,4,3,1,3,411.634535,411.634535,414.132365,0,8,8,8,1,86,5,8,giraffe     ,clownfish     ,html/resources/sequences_IDs/B/03_giraffe.jpg,html/resources/sequences_IDs/A/04_clownfish.jpg,3,4,1,1,2,1,2,3,0,61,,,,,,,,,,,,,
,,,,,61,2020-07-04_17h22.47.286,retriever_ti,2020.1.3,Win32,60,Chrome,1366,768,,,,,,,,,,,,,,,,,2,,,,,,,,,,,,,,,,,,,,,,,,,,,414.735525,87,right,0.71236,sport_tshirt,7,7,5,1,3,414.752875,414.752875,417.250385,0,9,9,9,1,87,2,7,peacock       ,sport_tshirt,html/resources/sequences_IDs/A/05_peacock.jpg,html/resources/sequences_IDs/B/07_sport_tshirt.jpg,5,7,2,1,3,2,4,5,0,61,,,,,,,,,,,,,
,,,,,61,2020-07-04_17h22.47.286,retriever_ti,2020.1.3,Win32,60,Chrome,1366,768,,,,,,,,,,,,,,,,,2,,,,,,,,,,,,,,,,,,,,,,,,,,,417.85268,88,right,1.405665,sport_tshirt,7,7,2,1,3,417.88718,417.88718,420.38507,0,10,10,10,1,88,5,7,giraffe     ,sport_tshirt,html/resources/sequences_IDs/B/03_giraffe.jpg,html/resources/sequences_IDs/B/07_sport_tshirt.jpg,3,7,1,1,3,2,2,5,0,61,,,,,,,,,,,,,
,,,,,61,2020-07-04_17h22.47.286,retriever_ti,2020.1.3,Win32,60,Chrome,1366,768,,,,,,,,,,,,,,,,,2,,,,,,,,,,,,,,,,,,,,,,,,,,,420.988455,89,left,0.99698,giraffe     ,5,3,4,1,3,421.00576,421.00576,423.5031,0,11,11,11,1,89,5,1,giraffe     ,radio       ,html/resources/sequences_IDs/B/03_giraffe.jpg,html/resources/sequences_IDs/B/10_radio.jpg,3,10,1,1,4,2,2,8,0,61,,,,,,,,,,,,,
,,,,,61,2020-07-04_17h22.47.286,retriever_ti,2020.1.3,Win32,60,Chrome,1366,768,,,,,,,,,,,,,,,,,2,,,,,,,,,,,,,,,,,,,,,,,,,,,424.10611,90,right,0.66686,peacock       ,2,5,-3,0,3,424.12249,424.12249,426.621295,0,12,12,12,1,90,5,2,giraffe     ,peacock       ,html/resources/sequences_IDs/B/03_giraffe.jpg,html/resources/sequences_IDs/A/05_peacock.jpg,3,5,1,1,2,1,2,4,0,61,,,,,,,,,,,,,
,,,,,61,2020-07-04_17h22.47.286,retriever_ti,2020.1.3,Win32,60,Chrome,1366,768,,,,,,,,,,,,,,,,,2,,,,,,,,,,,,,,,,,,,,,,,,,,,427.22226,91,left,0.767595,peacock       ,2,5,-1,0,1,427.240275,427.240275,429.7391,0,13,13,13,1,91,2,3,peacock       ,phone       ,html/resources/sequences_IDs/A/05_peacock.jpg,html/resources/sequences_IDs/B/09_phone.jpg,5,9,2,1,4,2,4,7,1,61,,,,,,,,,,,,,
,,,,,61,2020-07-04_17h22.47.286,retriever_ti,2020.1.3,Win32,60,Chrome,1366,768,,,,,,,,,,,,,,,,,2,,,,,,,,,,,,,,,,,,,,,,,,,,,430.843315,92,left,0.634185,clownfish     ,8,4,5,1,3,430.877385,430.877385,433.37415,0,14,14,14,1,92,8,3,clownfish     ,phone       ,html/resources/sequences_IDs/A/04_clownfish.jpg,html/resources/sequences_IDs/B/09_phone.jpg,4,9,2,1,4,2,3,7,0,61,,,,,,,,,,,,,
,,,,,61,2020-07-04_17h22.47.286,retriever_ti,2020.1.3,Win32,60,Chrome,1366,768,,,,,,,,,,,,,,,,,2,,,,,,,,,,,,,,,,,,,,,,,,,,,433.975465,93,left,0.808385,peacock       ,2,5,1,1,0,434.01117,434.01117,436.508915,0,15,15,15,1,93,2,1,peacock       ,radio       ,html/resources/sequences_IDs/A/05_peacock.jpg,html/resources/sequences_IDs/B/10_radio.jpg,5,10,2,1,4,2,4,8,1,61,,,,,,,,,,,,,
,,,,,61,2020-07-04_17h22.47.286,retriever_ti,2020.1.3,Win32,60,Chrome,1366,768,,,,,,,,,,,,,,,,,2,,,,,,,,,,,,,,,,,,,,,,,,,,,437.61447,94,right,1.0579,seaturtle     ,4,2,2,1,3,437.63066,437.63066,440.126985,0,16,16,16,1,94,2,4,peacock       ,seaturtle     ,html/resources/sequences_IDs/A/05_peacock.jpg,html/resources/sequences_IDs/A/02_seaturtle.jpg,5,2,2,1,2,1,4,1,0,61,,,,,,,,,,,,,
,,,,,61,2020-07-04_17h22.47.286,retriever_ti,2020.1.3,Win32,60,Chrome,1366,768,,,,,,,,,,,,,,,,,2,,,,,,,,,,,,,,,,,,,,,,,,,,,440.7307,95,left,1.29462,radio       ,1,10,-5,0,3,440.76465,440.76465,443.261885,0,17,17,17,1,95,1,6,radio       ,hat           ,html/resources/sequences_IDs/B/10_radio.jpg,html/resources/sequences_IDs/A/08_hat.jpg,10,8,4,2,3,2,8,6,0,61,,,,,,,,,,,,,
,,,,,61,2020-07-04_17h22.47.286,retriever_ti,2020.1.3,Win32,60,Chrome,1366,768,,,,,,,,,,,,,,,,,2,,,,,,,,,,,,,,,,,,,,,,,,,,,443.863275,96,right,1.22575,sport_tshirt,7,7,1,1,1,443.882875,443.882875,446.379805,0,18,18,18,1,96,6,7,hat           ,sport_tshirt,html/resources/sequences_IDs/A/08_hat.jpg,html/resources/sequences_IDs/B/07_sport_tshirt.jpg,8,7,3,2,3,2,6,5,0,61,,,,,,,,,,,,,
,,,,,61,2020-07-04_17h22.47.286,retriever_ti,2020.1.3,Win32,60,Chrome,1366,768,,,,,,,,,,,,,,,,,2,,,,,,,,,,,,,,,,,,,,,,,,,,,447.4826,97,left,1.171085,radio       ,1,10,-3,0,3,447.516675,447.516675,450.01472,0,19,19,19,1,97,1,4,radio       ,seaturtle     ,html/resources/sequences_IDs/B/10_radio.jpg,html/resources/sequences_IDs/A/02_seaturtle.jpg,10,2,4,2,2,1,8,1,0,61,,,,,,,,,,,,,
,,,,,61,2020-07-04_17h22.47.286,retriever_ti,2020.1.3,Win32,60,Chrome,1366,768,,,,,,,,,,,,,,,,,2,,,,,,,,,,,,,,,,,,,,,,,,,,,450.61789,98,left,0.943315,seaturtle     ,4,2,-1,0,1,450.63538,450.63538,453.13289,0,20,20,20,1,98,4,5,seaturtle     ,giraffe     ,html/resources/sequences_IDs/A/02_seaturtle.jpg,html/resources/sequences_IDs/B/03_giraffe.jpg,2,3,2,1,1,1,1,2,1,61,,,,,,,,,,,,,
,,,,,61,2020-07-04_17h22.47.286,retriever_ti,2020.1.3,Win32,60,Chrome,1366,768,,,,,,,,,,,,,,,,,2,,,,,,,,,,,,,,,,,,,,,,,,,,,454.235405,99,right,0.64637,clownfish     ,8,4,1,1,1,454.26892,454.26892,456.767685,0,21,21,21,1,99,7,8,sport_tshirt,clownfish     ,html/resources/sequences_IDs/B/07_sport_tshirt.jpg,html/resources/sequences_IDs/A/04_clownfish.jpg,7,4,3,2,2,1,5,3,0,61,,,,,,,,,,,,,
,,,,,61,2020-07-04_17h22.47.286,retriever_ti,2020.1.3,Win32,60,Chrome,1366,768,,,,,,,,,,,,,,,,,2,,,,,,,,,,,,,,,,,,,,,,,,,,,457.86914,100,right,0.82943,giraffe     ,5,3,2,1,3,457.88847,457.88847,460.38605,0,22,22,22,1,100,3,5,phone       ,giraffe     ,html/resources/sequences_IDs/B/09_phone.jpg,html/resources/sequences_IDs/B/03_giraffe.jpg,9,3,4,2,1,1,7,2,0,61,,,,,,,,,,,,,
,,,,,61,2020-07-04_17h22.47.286,retriever_ti,2020.1.3,Win32,60,Chrome,1366,768,,,,,,,,,,,,,,,,,2,,,,,,,,,,,,,,,,,,,,,,,,,,,460.98809,101,left,0.62928,clownfish     ,8,4,4,1,3,461.00521,461.00521,463.50419,0,23,23,23,1,101,8,4,clownfish     ,seaturtle     ,html/resources/sequences_IDs/A/04_clownfish.jpg,html/resources/sequences_IDs/A/02_seaturtle.jpg,4,2,2,1,2,1,3,1,0,61,,,,,,,,,,,,,
,,,,,61,2020-07-04_17h22.47.286,retriever_ti,2020.1.3,Win32,60,Chrome,1366,768,,,,,,,,,,,,,,,,,2,,,,,,,,,,,,,,,,,,,,,,,,,,,464.121485,102,right,0.655825,clownfish     ,8,4,2,1,3,464.155805,464.155805,466.655375,0,24,24,24,1,102,6,8,hat           ,clownfish     ,html/resources/sequences_IDs/A/08_hat.jpg,html/resources/sequences_IDs/A/04_clownfish.jpg,8,4,3,2,2,1,6,3,0,61,,,,,,,,,,,,,
,,,,,61,2020-07-04_17h22.47.286,retriever_ti,2020.1.3,Win32,60,Chrome,1366,768,,,,,,,,,,,,,,,,,2,,,,,,,,,,,,,,,,,,,,,,,,,,,467.274905,103,right,0.651945,peacock       ,2,5,-4,0,3,467.55873,467.55873,470.05692,0,25,25,25,1,103,6,2,hat           ,peacock       ,html/resources/sequences_IDs/A/08_hat.jpg,html/resources/sequences_IDs/A/05_peacock.jpg,8,5,3,2,2,1,6,4,0,61,,,,,,,,,,,,,
,,,,,61,2020-07-04_17h22.47.286,retriever_ti,2020.1.3,Win32,60,Chrome,1366,768,,,,,,,,,,,,,,,,,2,,,,,,,,,,,,,,,,,,,,,,,,,,,470.658735,104,left,0.812435,seaturtle     ,4,2,-2,0,3,470.691855,470.691855,473.19157,0,26,26,26,1,104,4,6,seaturtle     ,hat           ,html/resources/sequences_IDs/A/02_seaturtle.jpg,html/resources/sequences_IDs/A/08_hat.jpg,2,8,2,1,3,2,1,6,0,61,,,,,,,,,,,,,
,,,,,61,2020-07-04_17h22.47.286,retriever_ti,2020.1.3,Win32,60,Chrome,1366,768,,,,,,,,,,,,,,,,,2,,,,,,,,,,,,,,,,,,,,,,,,,,,473.79327,105,left,0.91046,sport_tshirt,7,7,6,1,3,473.812305,473.812305,476.30964,0,27,27,27,1,105,7,1,sport_tshirt,radio       ,html/resources/sequences_IDs/B/07_sport_tshirt.jpg,html/resources/sequences_IDs/B/10_radio.jpg,7,10,3,2,4,2,5,8,0,61,,,,,,,,,,,,,
,,,,,61,2020-07-04_17h22.47.286,retriever_ti,2020.1.3,Win32,60,Chrome,1366,768,,,,,,,,,,,,,,,,,2,,,,,,,,,,,,,,,,,,,,,,,,,,,476.912835,106,right,1.0059,giraffe     ,5,3,1,1,1,476.946565,476.946565,479.44448,0,28,28,28,1,106,4,5,seaturtle     ,giraffe     ,html/resources/sequences_IDs/A/02_seaturtle.jpg,html/resources/sequences_IDs/B/03_giraffe.jpg,2,3,2,1,1,1,1,2,0,61,,,,,,,,,,,,,
,,,,,61,2020-07-04_17h22.47.286,retriever_ti,2020.1.3,Win32,60,Chrome,1366,768,,,,,,,,,,,,,,,,,2,,,,,,,,,,,,,,,,,,,,,,,,,,,480.54626,107,left,1.260925,peacock       ,2,5,-3,0,3,480.563425,480.563425,483.06274,0,29,29,29,1,107,2,5,peacock       ,giraffe     ,html/resources/sequences_IDs/A/05_peacock.jpg,html/resources/sequences_IDs/B/03_giraffe.jpg,5,3,2,1,1,1,4,2,0,61,,,,,,,,,,,,,
,,,,,61,2020-07-04_17h22.47.286,retriever_ti,2020.1.3,Win32,60,Chrome,1366,768,,,,,,,,,,,,,,,,,2,,,,,,,,,,,,,,,,,,,,,,,,,,,483.66357,108,right,0.639175,giraffe     ,5,3,1,1,1,483.69765,483.69765,486.19726,0,30,30,30,1,108,4,5,seaturtle     ,giraffe     ,html/resources/sequences_IDs/A/02_seaturtle.jpg,html/resources/sequences_IDs/B/03_giraffe.jpg,2,3,2,1,1,1,1,2,0,61,,,,,,,,,,,,,
,,,,,61,2020-07-04_17h22.47.286,retriever_ti,2020.1.3,Win32,60,Chrome,1366,768,,,,,,,,,,,,,,,,,2,,,,,,,,,,,,,,,,,,,,,,,,,,,487.301645,109,left,0.846815,sport_tshirt,7,7,1,1,1,487.33371,487.33371,489.83221,0,31,31,31,1,109,7,6,sport_tshirt,hat           ,html/resources/sequences_IDs/B/07_sport_tshirt.jpg,html/resources/sequences_IDs/A/08_hat.jpg,7,8,3,2,3,2,5,6,0,61,,,,,,,,,,,,,
,,,,,61,2020-07-04_17h22.47.286,retriever_ti,2020.1.3,Win32,60,Chrome,1366,768,,,,,,,,,,,,,,,,,2,,,,,,,,,,,,,,,,,,,,,,,,,,,490.936205,110,left,1.465065,giraffe     ,5,3,-1,0,0,490.96839,490.96839,493.46713,0,32,32,32,1,110,5,6,giraffe     ,hat           ,html/resources/sequences_IDs/B/03_giraffe.jpg,html/resources/sequences_IDs/A/08_hat.jpg,3,8,1,1,3,2,2,6,0,61,,,,,,,,,,,,,
,,,,,61,2020-07-04_17h22.47.286,retriever_ti,2020.1.3,Win32,60,Chrome,1366,768,,,,,,,,,,,,,,,,,2,,,,,,,,,,,,,,,,,,,,,,,,,,,494.56927,111,left,0.83706,sport_tshirt,7,7,1,1,1,494.586595,494.586595,497.08544,0,33,33,33,1,111,7,6,sport_tshirt,hat           ,html/resources/sequences_IDs/B/07_sport_tshirt.jpg,html/resources/sequences_IDs/A/08_hat.jpg,7,8,3,2,3,2,5,6,0,61,,,,,,,,,,,,,
,,,,,61,2020-07-04_17h22.47.286,retriever_ti,2020.1.3,Win32,60,Chrome,1366,768,,,,,,,,,,,,,,,,,2,,,,,,,,,,,,,,,,,,,,,,,,,,,498.188035,112,right,0.862745,phone       ,3,9,-1,0,0,498.222185,498.222185,500.720285,0,34,34,34,1,112,4,3,seaturtle     ,phone       ,html/resources/sequences_IDs/A/02_seaturtle.jpg,html/resources/sequences_IDs/B/09_phone.jpg,2,9,2,1,4,2,1,7,0,61,,,,,,,,,,,,,
,,,,,61,2020-07-04_17h22.47.286,retriever_ti,2020.1.3,Win32,60,Chrome,1366,768,,,,,,,,,,,,,,,,,2,,,,,,,,,,,,,,,,,,,,,,,,,,,501.823765,113,left,1.106685,phone       ,3,9,-3,0,3,501.840855,501.840855,504.33857,0,35,35,35,1,113,3,6,phone       ,hat           ,html/resources/sequences_IDs/B/09_phone.jpg,html/resources/sequences_IDs/A/08_hat.jpg,9,8,4,2,3,2,7,6,0,61,,,,,,,,,,,,,
,,,,,61,2020-07-04_17h22.47.286,retriever_ti,2020.1.3,Win32,60,Chrome,1366,768,,,,,,,,,,,,,,,,,2,,,,,,,,,,,,,,,,,,,,,,,,,,,504.94029,114,right,0.61702,clownfish     ,8,4,4,1,3,504.95693,504.95693,507.45674,0,36,36,36,1,114,4,8,seaturtle     ,clownfish     ,html/resources/sequences_IDs/A/02_seaturtle.jpg,html/resources/sequences_IDs/A/04_clownfish.jpg,2,4,2,1,2,1,1,3,0,61,,,,,,,,,,,,,
,,,,,61,2020-07-04_17h22.47.286,retriever_ti,2020.1.3,Win32,60,Chrome,1366,768,,,,,,,,,,,,,,,,,2,,,,,,,,,,,,,,,,,,,,,,,,,,,508.05764,115,left,0.600895,clownfish     ,8,4,1,1,1,508.09208,508.09208,510.59137,0,37,37,37,1,115,8,7,clownfish     ,sport_tshirt,html/resources/sequences_IDs/A/04_clownfish.jpg,html/resources/sequences_IDs/B/07_sport_tshirt.jpg,4,7,2,1,3,2,3,5,0,61,,,,,,,,,,,,,
,,,,,61,2020-07-04_17h22.47.286,retriever_ti,2020.1.3,Win32,60,Chrome,1366,768,,,,,,,,,,,,,,,,,2,,,,,,,,,,,,,,,,,,,,,,,,,,,511.69387,116,left,0.906685,giraffe     ,5,3,-1,0,1,511.71237,511.71237,514.20958,0,38,38,38,1,116,5,6,giraffe     ,hat           ,html/resources/sequences_IDs/B/03_giraffe.jpg,html/resources/sequences_IDs/A/08_hat.jpg,3,8,1,1,3,2,2,6,1,61,,,,,,,,,,,,,
,,,,,61,2020-07-04_17h22.47.286,retriever_ti,2020.1.3,Win32,60,Chrome,1366,768,,,,,,,,,,,,,,,,,2,,,,,,,,,,,,,,,,,,,,,,,,,,,515.312305,117,right,1.01882,clownfish     ,8,4,7,1,3,515.347095,515.347095,517.84445,0,39,39,39,1,117,1,8,radio       ,clownfish     ,html/resources/sequences_IDs/B/10_radio.jpg,html/resources/sequences_IDs/A/04_clownfish.jpg,10,4,4,2,2,1,8,3,0,61,,,,,,,,,,,,,
,,,,,61,2020-07-04_17h22.47.286,retriever_ti,2020.1.3,Win32,60,Chrome,1366,768,,,,,,,,,,,,,,,,,2,,,,,,,,,,,,,,,,,,,,,,,,,,,518.445405,118,right,0.848665,seaturtle     ,4,2,1,1,1,518.479415,518.479415,520.9793,0,40,40,40,1,118,3,4,phone       ,seaturtle     ,html/resources/sequences_IDs/B/09_phone.jpg,html/resources/sequences_IDs/A/02_seaturtle.jpg,9,2,4,2,2,1,7,1,0,61,,,,,,,,,,,,,
,,,,,61,2020-07-04_17h22.47.286,retriever_ti,2020.1.3,Win32,60,Chrome,1366,768,,,,,,,,,,,,,,,,,2,,,,,,,,,,,,,,,,,,,,,,,,,,,522.081015,119,left,0.92791,sport_tshirt,7,7,1,1,0,522.114685,522.114685,524.614125,0,41,41,41,1,119,7,6,sport_tshirt,hat           ,html/resources/sequences_IDs/B/07_sport_tshirt.jpg,html/resources/sequences_IDs/A/08_hat.jpg,7,8,3,2,3,2,5,6,1,61,,,,,,,,,,,,,
,,,,,61,2020-07-04_17h22.47.286,retriever_ti,2020.1.3,Win32,60,Chrome,1366,768,,,,,,,,,,,,,,,,,2,,,,,,,,,,,,,,,,,,,,,,,,,,,525.716335,120,left,0.627825,clownfish     ,8,4,1,1,0,525.7496,525.7496,528.248905,0,42,42,42,1,120,8,7,clownfish     ,sport_tshirt,html/resources/sequences_IDs/A/04_clownfish.jpg,html/resources/sequences_IDs/B/07_sport_tshirt.jpg,4,7,2,1,3,2,3,5,1,61,,,,,,,,,,,,,
,,,,,61,2020-07-04_17h22.47.286,retriever_ti,2020.1.3,Win32,60,Chrome,1366,768,,,,,,,,,,,,,,,,,2,,,,,,,,,,,,,,,,,,,,,,,,,,,529.35117,121,right,0.78326,radio       ,1,10,-1,0,0,529.36761,529.36761,531.867405,0,43,43,43,1,121,2,1,peacock       ,radio       ,html/resources/sequences_IDs/A/05_peacock.jpg,html/resources/sequences_IDs/B/10_radio.jpg,5,10,2,1,4,2,4,8,0,61,,,,,,,,,,,,,
,,,,,61,2020-07-04_17h22.47.286,retriever_ti,2020.1.3,Win32,60,Chrome,1366,768,,,,,,,,,,,,,,,,,2,,,,,,,,,,,,,,,,,,,,,,,,,,,532.969695,122,left,0.97138,hat           ,6,8,3,1,3,533.003225,533.003225,535.50224,0,44,44,44,1,122,6,3,hat           ,phone       ,html/resources/sequences_IDs/A/08_hat.jpg,html/resources/sequences_IDs/B/09_phone.jpg,8,9,3,2,4,2,6,7,0,61,,,,,,,,,,,,,
,,,,,61,2020-07-04_17h22.47.286,retriever_ti,2020.1.3,Win32,60,Chrome,1366,768,,,,,,,,,,,,,,,,,2,,,,,,,,,,,,,,,,,,,,,,,,,,,536.10346,123,left,0.697855,peacock       ,2,5,-1,0,0,536.12099,536.12099,538.62025,0,45,45,45,1,123,2,3,peacock       ,phone       ,html/resources/sequences_IDs/A/05_peacock.jpg,html/resources/sequences_IDs/B/09_phone.jpg,5,9,2,1,4,2,4,7,0,61,,,,,,,,,,,,,
,,,,,61,2020-07-04_17h22.47.286,retriever_ti,2020.1.3,Win32,60,Chrome,1366,768,,,,,,,,,,,,,,,,,2,,,,,,,,,,,,,,,,,,,,,,,,,,,539.72433,124,right,0.473665,seaturtle     ,4,2,1,1,1,539.739765,539.739765,542.23846,0,46,46,46,1,124,3,4,phone       ,seaturtle     ,html/resources/sequences_IDs/B/09_phone.jpg,html/resources/sequences_IDs/A/02_seaturtle.jpg,9,2,4,2,2,1,7,1,0,61,,,,,,,,,,,,,
,,,,,61,2020-07-04_17h22.47.286,retriever_ti,2020.1.3,Win32,60,Chrome,1366,768,,,,,,,,,,,,,,,,,2,,,,,,,,,,,,,,,,,,,,,,,,,,,543.340395,125,left,0.406245,seaturtle     ,4,2,2,1,3,543.374075,543.374075,545.87343,0,47,47,47,1,125,4,2,seaturtle     ,peacock       ,html/resources/sequences_IDs/A/02_seaturtle.jpg,html/resources/sequences_IDs/A/05_peacock.jpg,2,5,2,1,2,1,1,4,0,61,,,,,,,,,,,,,
,,,,,61,2020-07-04_17h22.47.286,retriever_ti,2020.1.3,Win32,60,Chrome,1366,768,,,,,,,,,,,,,,,,,2,,,,,,,,,,,,,,,,,,,,,,,,,,,546.475785,126,right,0.483825,giraffe     ,5,3,4,1,3,546.4928,546.4928,548.99143,0,48,48,48,1,126,1,5,radio       ,giraffe     ,html/resources/sequences_IDs/B/10_radio.jpg,html/resources/sequences_IDs/B/03_giraffe.jpg,10,3,4,2,1,1,8,2,0,61,,,,,,,,,,,,,
,,,,,61,2020-07-04_17h22.47.286,retriever_ti,2020.1.3,Win32,60,Chrome,1366,768,,,,,,,,,,,,,,,,,2,,,,,,,,,,,,,,,,,,,,,,,,,,,549.59294,127,right,0.51878,clownfish     ,8,4,1,1,1,549.610355,549.610355,552.109495,0,49,49,49,1,127,7,8,sport_tshirt,clownfish     ,html/resources/sequences_IDs/B/07_sport_tshirt.jpg,html/resources/sequences_IDs/A/04_clownfish.jpg,7,4,3,2,2,1,5,3,0,61,,,,,,,,,,,,,
,,,,,61,2020-07-04_17h22.47.286,retriever_ti,2020.1.3,Win32,60,Chrome,1366,768,,,,,,,,,,,,,,,,,2,,,,,,,,,,,,,,,,,,,,,,,,,,,553.212675,128,right,0.60903,peacock       ,2,5,1,1,1,553.229855,553.229855,555.72774,0,50,50,50,1,128,1,2,radio       ,peacock       ,html/resources/sequences_IDs/B/10_radio.jpg,html/resources/sequences_IDs/A/05_peacock.jpg,10,5,4,2,2,1,8,4,0,61,,,,,,,,,,,,,
,,,,,61,2020-07-04_17h22.47.286,retriever_ti,2020.1.3,Win32,60,Chrome,1366,768,,,,,,,,,,,,,,,,,2,,,,,,,,,,,,,,,,,,,,,,,,,,,556.82911,129,right,0.46346,sport_tshirt,7,7,4,1,3,556.846935,556.846935,559.346005,0,51,51,51,1,129,3,7,phone       ,sport_tshirt,html/resources/sequences_IDs/B/09_phone.jpg,html/resources/sequences_IDs/B/07_sport_tshirt.jpg,9,7,4,2,3,2,7,5,0,61,,,,,,,,,,,,,
,,,,,61,2020-07-04_17h22.47.286,retriever_ti,2020.1.3,Win32,60,Chrome,1366,768,,,,,,,,,,,,,,,,,2,,,,,,,,,,,,,,,,,,,,,,,,,,,559.94773,130,right,0.69209,hat           ,6,8,4,1,3,559.96451,559.96451,562.463965,0,52,52,52,1,130,2,6,peacock       ,hat           ,html/resources/sequences_IDs/A/05_peacock.jpg,html/resources/sequences_IDs/A/08_hat.jpg,5,8,2,1,3,2,4,6,0,61,,,,,,,,,,,,,
,,,,,61,2020-07-04_17h22.47.286,retriever_ti,2020.1.3,Win32,60,Chrome,1366,768,,,,,,,,,,,,,,,,,2,,,,,,,,,,,,,,,,,,,,,,,,,,,563.065305,131,left,0.62332,clownfish     ,8,4,1,1,1,563.083195,563.083195,565.58207,0,53,53,53,1,131,8,7,clownfish     ,sport_tshirt,html/resources/sequences_IDs/A/04_clownfish.jpg,html/resources/sequences_IDs/B/07_sport_tshirt.jpg,4,7,2,1,3,2,3,5,0,61,,,,,,,,,,,,,
,,,,,61,2020-07-04_17h22.47.286,retriever_ti,2020.1.3,Win32,60,Chrome,1366,768,,,,,,,,,,,,,,,,,2,,,,,,,,,,,,,,,,,,,,,,,,,,,566.68436,132,left,0.94302,hat           ,6,8,2,1,3,566.70115,566.70115,569.200345,0,54,54,54,1,132,6,4,hat           ,seaturtle     ,html/resources/sequences_IDs/A/08_hat.jpg,html/resources/sequences_IDs/A/02_seaturtle.jpg,8,2,3,2,2,1,6,1,0,61,,,,,,,,,,,,,
,,,,,61,2020-07-04_17h22.47.286,retriever_ti,2020.1.3,Win32,60,Chrome,1366,768,,,,,,,,,,,,,,,,,2,,,,,,,,,,,,,,,,,,,,,,,,,,,569.81836,133,right,1.22145,peacock       ,2,5,-5,0,3,569.85223,569.85223,572.35162,0,55,55,55,1,133,7,2,sport_tshirt,peacock       ,html/resources/sequences_IDs/B/07_sport_tshirt.jpg,html/resources/sequences_IDs/A/05_peacock.jpg,7,5,3,2,2,1,5,4,0,61,,,,,,,,,,,,,
,,,,,61,2020-07-04_17h22.47.286,retriever_ti,2020.1.3,Win32,60,Chrome,1366,768,,,,,,,,,,,,,,,,,2,,,,,,,,,,,,,,,,,,,,,,,,,,,572.95271,134,right,0.545495,peacock       ,2,5,1,1,1,572.98716,572.98716,575.486405,0,56,56,56,1,134,1,2,radio       ,peacock       ,html/resources/sequences_IDs/B/10_radio.jpg,html/resources/sequences_IDs/A/05_peacock.jpg,10,5,4,2,2,1,8,4,0,61,,,,,,,,,,,,,
,,,,,61,2020-07-04_17h22.47.286,retriever_ti,2020.1.3,Win32,60,Chrome,1366,768,,,,,,,,,,,,,,,,,2,,,,,,,,,,,,,,,,,,,,,,,,,,,576.58882,135,right,0.513205,giraffe     ,5,3,-1,0,0,576.62207,576.62207,579.121315,0,57,57,57,1,135,6,5,hat           ,giraffe     ,html/resources/sequences_IDs/A/08_hat.jpg,html/resources/sequences_IDs/B/03_giraffe.jpg,8,3,3,2,1,1,6,2,0,61,,,,,,,,,,,,,
,,,,,61,2020-07-04_17h22.47.286,retriever_ti,2020.1.3,Win32,60,Chrome,1366,768,,,,,,,,,,,,,,,,,2,,,,,,,,,,,,,,,,,,,,,,,,,,,580.223275,136,left,0.57409,clownfish     ,8,4,2,1,3,580.25662,580.25662,582.756175,0,58,58,58,1,136,8,6,clownfish     ,hat           ,html/resources/sequences_IDs/A/04_clownfish.jpg,html/resources/sequences_IDs/A/08_hat.jpg,4,8,2,1,3,2,3,6,0,61,,,,,,,,,,,,,
,,,,,61,2020-07-04_17h22.47.286,retriever_ti,2020.1.3,Win32,60,Chrome,1366,768,,,,,,,,,,,,,,,,,2,,,,,,,,,,,,,,,,,,,,,,,,,,,583.35821,137,left,0.832615,peacock       ,2,5,-6,0,3,583.376905,583.376905,585.874215,0,59,59,59,1,137,2,8,peacock       ,clownfish     ,html/resources/sequences_IDs/A/05_peacock.jpg,html/resources/sequences_IDs/A/04_clownfish.jpg,5,4,2,1,2,1,4,3,0,61,,,,,,,,,,,,,
,,,,,61,2020-07-04_17h22.47.286,retriever_ti,2020.1.3,Win32,60,Chrome,1366,768,,,,,,,,,,,,,,,,,2,,,,,,,,,,,,,,,,,,,,,,,,,,,586.47608,138,right,0.550005,radio       ,1,10,-5,0,3,586.50997,586.50997,589.00901,0,60,60,60,1,138,6,1,hat           ,radio       ,html/resources/sequences_IDs/A/08_hat.jpg,html/resources/sequences_IDs/B/10_radio.jpg,8,10,3,2,4,2,6,8,0,61,,,,,,,,,,,,,
,,,,,61,2020-07-04_17h22.47.286,retriever_ti,2020.1.3,Win32,60,Chrome,1366,768,,,,,,,,,,,,,,,,,2,,,,,,,,,,,,,,,,,,,,,,,,,,,589.60996,139,right,0.656735,radio       ,1,10,-3,0,3,589.64471,589.64471,592.14361,0,61,61,61,1,139,4,1,seaturtle     ,radio       ,html/resources/sequences_IDs/A/02_seaturtle.jpg,html/resources/sequences_IDs/B/10_radio.jpg,2,10,2,1,4,2,1,8,0,61,,,,,,,,,,,,,
,,,,,61,2020-07-04_17h22.47.286,retriever_ti,2020.1.3,Win32,60,Chrome,1366,768,,,,,,,,,,,,,,,,,2,,,,,,,,,,,,,,,,,,,,,,,,,,,592.744765,140,left,0.81316,phone       ,3,9,2,1,3,592.762315,592.762315,595.26175,0,62,62,62,1,140,3,1,phone       ,radio       ,html/resources/sequences_IDs/B/09_phone.jpg,html/resources/sequences_IDs/B/10_radio.jpg,9,10,4,2,4,2,7,8,0,61,,,,,,,,,,,,,
,,,,,61,2020-07-04_17h22.47.286,retriever_ti,2020.1.3,Win32,60,Chrome,1366,768,,,,,,,,,,,,,,,,,2,,,,,,,,,,,,,,,,,,,,,,,,,,,595.863465,141,left,0.62782,giraffe     ,5,3,1,1,1,595.89748,595.89748,598.39657,0,63,63,63,1,141,5,4,giraffe     ,seaturtle     ,html/resources/sequences_IDs/B/03_giraffe.jpg,html/resources/sequences_IDs/A/02_seaturtle.jpg,3,2,1,1,2,1,2,1,0,61,,,,,,,,,,,,,
,,,,,61,2020-07-04_17h22.47.286,retriever_ti,2020.1.3,Win32,60,Chrome,1366,768,,,,,,,,,,,,,,,,,2,,,,,,,,,,,,,,,,,,,,,,,,,,,599.49804,142,left,1.36008,clownfish     ,8,4,7,1,3,599.515365,599.515365,602.014645,0,64,64,64,1,142,8,1,clownfish     ,radio       ,html/resources/sequences_IDs/A/04_clownfish.jpg,html/resources/sequences_IDs/B/10_radio.jpg,4,10,2,1,4,2,3,8,0,61,,,,,,,,,,,,,
,,,,,61,2020-07-04_17h22.47.286,retriever_ti,2020.1.3,Win32,60,Chrome,1366,768,,,,,,,,,,,,,,,,,2,,,,,,,,,,,,,,,,,,,,,,,,,,,602.61657,143,left,0.690985,sport_tshirt,7,7,2,1,3,602.65042,602.65042,605.14939,0,65,65,65,1,143,7,5,sport_tshirt,giraffe     ,html/resources/sequences_IDs/B/07_sport_tshirt.jpg,html/resources/sequences_IDs/B/03_giraffe.jpg,7,3,3,2,1,1,5,2,0,61,,,,,,,,,,,,,
,,,,,61,2020-07-04_17h22.47.286,retriever_ti,2020.1.3,Win32,60,Chrome,1366,768,,,,,,,,,,,,,,,,,2,,,,,,,,,,,,,,,,,,,,,,,,,,,605.75046,144,left,0.80339,peacock       ,2,5,1,1,1,605.76837,605.76837,608.267535,0,66,66,66,1,144,2,1,peacock       ,radio       ,html/resources/sequences_IDs/A/05_peacock.jpg,html/resources/sequences_IDs/B/10_radio.jpg,5,10,2,1,4,2,4,8,0,61,,,,,,,,,,,,,
,,,,,61,2020-07-04_17h22.47.286,retriever_ti,2020.1.3,Win32,60,Chrome,1366,768,,,,,,,,,,,,,,,,,2,,,,,,,,,,,,,,,,,,,,,,,,,,,609.370125,145,right,0.72797,sport_tshirt,7,7,6,1,3,609.38654,609.38654,611.885715,0,67,67,67,1,145,1,7,radio       ,sport_tshirt,html/resources/sequences_IDs/B/10_radio.jpg,html/resources/sequences_IDs/B/07_sport_tshirt.jpg,10,7,4,2,3,2,8,5,0,61,,,,,,,,,,,,,
,,,,,61,2020-07-04_17h22.47.286,retriever_ti,2020.1.3,Win32,60,Chrome,1366,768,,,,,,,,,,,,,,,,,2,,,,,,,,,,,,,,,,,,,,,,,,,,,612.487425,146,left,0.571125,clownfish     ,8,4,3,1,3,612.52118,612.52118,615.02056,0,68,68,68,1,146,8,5,clownfish     ,giraffe     ,html/resources/sequences_IDs/A/04_clownfish.jpg,html/resources/sequences_IDs/B/03_giraffe.jpg,4,3,2,1,1,1,3,2,0,61,,,,,,,,,,,,,
,,,,,61,2020-07-04_17h22.47.286,retriever_ti,2020.1.3,Win32,60,Chrome,1366,768,,,,,,,,,,,,,,,,,2,,,,,,,,,,,,,,,,,,,,,,,,,,,615.6221,147,left,0.68665,hat           ,6,8,-1,0,0,615.64054,615.64054,618.138495,0,69,69,69,1,147,6,7,hat           ,sport_tshirt,html/resources/sequences_IDs/A/08_hat.jpg,html/resources/sequences_IDs/B/07_sport_tshirt.jpg,8,7,3,2,3,2,6,5,0,61,,,,,,,,,,,,,
,,,,,61,2020-07-04_17h22.47.286,retriever_ti,2020.1.3,Win32,60,Chrome,1366,768,,,,,,,,,,,,,,,,,2,,,,,,,,,,,,,,,,,,,,,,,,,,,619.242605,148,left,0.790605,clownfish     ,8,4,6,1,3,619.258975,619.258975,621.756665,0,70,70,70,1,148,8,2,clownfish     ,peacock       ,html/resources/sequences_IDs/A/04_clownfish.jpg,html/resources/sequences_IDs/A/05_peacock.jpg,4,5,2,1,2,1,3,4,0,61,,,,,,,,,,,,,
,,,,,61,2020-07-04_17h22.47.286,retriever_ti,2020.1.3,Win32,60,Chrome,1366,768,,,,,,,,,,,,,,,,,2,,,,,,,,,,,,,,,,,,,,,,,,,,,622.36014,149,right,0.665115,peacock       ,2,5,-1,0,0,622.377455,622.377455,624.87473,0,71,71,71,1,149,3,2,phone       ,peacock       ,html/resources/sequences_IDs/B/09_phone.jpg,html/resources/sequences_IDs/A/05_peacock.jpg,9,5,4,2,2,1,7,4,0,61,,,,,,,,,,,,,
,,,,,61,2020-07-04_17h22.47.286,retriever_ti,2020.1.3,Win32,60,Chrome,1366,768,,,,,,,,,,,,,,,,,2,,,,,,,,,,,,,,,,,,,,,,,,,,,625.976635,150,left,0.644885,giraffe     ,5,3,1,1,1,625.99522,625.99522,628.49295,0,72,72,72,1,150,5,4,giraffe     ,seaturtle     ,html/resources/sequences_IDs/B/03_giraffe.jpg,html/resources/sequences_IDs/A/02_seaturtle.jpg,3,2,1,1,2,1,2,1,0,61,,,,,,,,,,,,,
,,,,,61,2020-07-04_17h22.47.286,retriever_ti,2020.1.3,Win32,60,Chrome,1366,768,,,,,,,,,,,,,,,,,2,,,,,,,,,,,,,,,,,,,,,,,,,,,629.595655,151,left,0.66544,sport_tshirt,7,7,4,1,3,629.61228,629.61228,632.1112,0,73,73,73,1,151,7,3,sport_tshirt,phone       ,html/resources/sequences_IDs/B/07_sport_tshirt.jpg,html/resources/sequences_IDs/B/09_phone.jpg,7,9,3,2,4,2,5,7,0,61,,,,,,,,,,,,,
,,,,,61,2020-07-04_17h22.47.286,retriever_ti,2020.1.3,Win32,60,Chrome,1366,768,,,,,,,,,,,,,,,,,2,,,,,,,,,,,,,,,,,,,,,,,,,,,632.712905,152,right,0.596385,giraffe     ,5,3,-1,0,0,632.72954,632.72954,635.22925,0,74,74,74,1,152,6,5,hat           ,giraffe     ,html/resources/sequences_IDs/A/08_hat.jpg,html/resources/sequences_IDs/B/03_giraffe.jpg,8,3,3,2,1,1,6,2,0,61,,,,,,,,,,,,,
,,,,,61,2020-07-04_17h22.47.286,retriever_ti,2020.1.3,Win32,60,Chrome,1366,768,,,,,,,,,,,,,,,,,2,,,,,,,,,,,,,,,,,,,,,,,,,,,636.331115,153,left,0.97315,phone       ,3,9,1,1,1,636.364705,636.364705,638.864215,0,75,75,75,1,153,3,2,phone       ,peacock       ,html/resources/sequences_IDs/B/09_phone.jpg,html/resources/sequences_IDs/A/05_peacock.jpg,9,5,4,2,2,1,7,4,0,61,,,,,,,,,,,,,
,,,,,61,2020-07-04_17h22.47.286,retriever_ti,2020.1.3,Win32,60,Chrome,1366,768,,,,,,,,,,,,,,,,,2,,,,,,,,,,,,,,,,,,,,,,,,,,,639.965725,154,left,1.15895,radio       ,1,10,-2,0,3,639.98308,639.98308,642.48237,0,76,76,76,1,154,1,3,radio       ,phone       ,html/resources/sequences_IDs/B/10_radio.jpg,html/resources/sequences_IDs/B/09_phone.jpg,10,9,4,2,4,2,8,7,0,61,,,,,,,,,,,,,
,,,,,61,2020-07-04_17h22.47.286,retriever_ti,2020.1.3,Win32,60,Chrome,1366,768,,,,,,,,,,,,,,,,,,,,,,,,,,,,,,,,,,,,,0,1.323165,,,,,,,,,,,,,,,,,,,,,,,,,,,,,,,,,,,,,,,,,1,0,1,0,1,,,,,,,,
,,,,,61,2020-07-04_17h22.47.286,retriever_ti,2020.1.3,Win32,60,Chrome,1366,768,,,,,,,,,,,,,,,,,3,,,,,,,,,,,,,,,,,,,,,,,,,,,656.44984,155,right,0.952135,radio       ,1,10,-1,0,0,656.47568,656.47568,658.973065,0,0,0,0,1,155,2,1,peacock       ,radio       ,html/resources/sequences_IDs/A/05_peacock.jpg,html/resources/sequences_IDs/B/10_radio.jpg,5,10,2,1,4,2,4,8,0,61,,,,,,,,,,,,,
,,,,,61,2020-07-04_17h22.47.286,retriever_ti,2020.1.3,Win32,60,Chrome,1366,768,,,,,,,,,,,,,,,,,3,,,,,,,,,,,,,,,,,,,,,,,,,,,660.0742,156,left,0.586395,sport_tshirt,7,7,4,1,3,660.10826,660.10826,662.607925,0,1,1,1,1,156,7,3,sport_tshirt,phone       ,html/resources/sequences_IDs/B/07_sport_tshirt.jpg,html/resources/sequences_IDs/B/09_phone.jpg,7,9,3,2,4,2,5,7,0,61,,,,,,,,,,,,,
,,,,,61,2020-07-04_17h22.47.286,retriever_ti,2020.1.3,Win32,60,Chrome,1366,768,,,,,,,,,,,,,,,,,3,,,,,,,,,,,,,,,,,,,,,,,,,,,663.210645,157,right,0.478395,radio       ,1,10,-5,0,3,663.227145,663.227145,665.726205,0,2,2,2,1,157,6,1,hat           ,radio       ,html/resources/sequences_IDs/A/08_hat.jpg,html/resources/sequences_IDs/B/10_radio.jpg,8,10,3,2,4,2,6,8,0,61,,,,,,,,,,,,,
,,,,,61,2020-07-04_17h22.47.286,retriever_ti,2020.1.3,Win32,60,Chrome,1366,768,,,,,,,,,,,,,,,,,3,,,,,,,,,,,,,,,,,,,,,,,,,,,666.34356,158,left,0.476875,sport_tshirt,7,7,-1,0,0,666.37794,666.37794,668.877545,0,3,3,3,1,158,7,8,sport_tshirt,clownfish     ,html/resources/sequences_IDs/B/07_sport_tshirt.jpg,html/resources/sequences_IDs/A/04_clownfish.jpg,7,4,3,2,2,1,5,3,0,61,,,,,,,,,,,,,
,,,,,61,2020-07-04_17h22.47.286,retriever_ti,2020.1.3,Win32,60,Chrome,1366,768,,,,,,,,,,,,,,,,,3,,,,,,,,,,,,,,,,,,,,,,,,,,,669.980775,159,right,0.586465,radio       ,1,10,-1,0,0,669.99788,669.99788,672.495645,0,4,4,4,1,159,2,1,peacock       ,radio       ,html/resources/sequences_IDs/A/05_peacock.jpg,html/resources/sequences_IDs/B/10_radio.jpg,5,10,2,1,4,2,4,8,0,61,,,,,,,,,,,,,
,,,,,61,2020-07-04_17h22.47.286,retriever_ti,2020.1.3,Win32,60,Chrome,1366,768,,,,,,,,,,,,,,,,,3,,,,,,,,,,,,,,,,,,,,,,,,,,,673.59892,160,left,0.56067,sport_tshirt,7,7,6,1,3,673.63278,673.63278,676.13057,0,5,5,5,1,160,7,1,sport_tshirt,radio       ,html/resources/sequences_IDs/B/07_sport_tshirt.jpg,html/resources/sequences_IDs/B/10_radio.jpg,7,10,3,2,4,2,5,8,0,61,,,,,,,,,,,,,
,,,,,61,2020-07-04_17h22.47.286,retriever_ti,2020.1.3,Win32,60,Chrome,1366,768,,,,,,,,,,,,,,,,,3,,,,,,,,,,,,,,,,,,,,,,,,,,,676.748745,161,left,0.590835,clownfish     ,8,4,2,1,3,676.782705,676.782705,679.28184,0,6,6,6,1,161,8,6,clownfish     ,hat           ,html/resources/sequences_IDs/A/04_clownfish.jpg,html/resources/sequences_IDs/A/08_hat.jpg,4,8,2,1,3,2,3,6,0,61,,,,,,,,,,,,,
,,,,,61,2020-07-04_17h22.47.286,retriever_ti,2020.1.3,Win32,60,Chrome,1366,768,,,,,,,,,,,,,,,,,3,,,,,,,,,,,,,,,,,,,,,,,,,,,679.883655,162,right,0.46279,clownfish     ,8,4,1,1,1,679.91755,679.91755,682.416905,0,7,7,7,1,162,7,8,sport_tshirt,clownfish     ,html/resources/sequences_IDs/B/07_sport_tshirt.jpg,html/resources/sequences_IDs/A/04_clownfish.jpg,7,4,3,2,2,1,5,3,0,61,,,,,,,,,,,,,
,,,,,61,2020-07-04_17h22.47.286,retriever_ti,2020.1.3,Win32,60,Chrome,1366,768,,,,,,,,,,,,,,,,,3,,,,,,,,,,,,,,,,,,,,,,,,,,,683.520755,163,right,0.520425,peacock       ,2,5,-1,0,0,683.55312,683.55312,686.051535,0,8,8,8,1,163,3,2,phone       ,peacock       ,html/resources/sequences_IDs/B/09_phone.jpg,html/resources/sequences_IDs/A/05_peacock.jpg,9,5,4,2,2,1,7,4,0,61,,,,,,,,,,,,,
,,,,,61,2020-07-04_17h22.47.286,retriever_ti,2020.1.3,Win32,60,Chrome,1366,768,,,,,,,,,,,,,,,,,3,,,,,,,,,,,,,,,,,,,,,,,,,,,687.15452,164,left,0.24101,hat           ,6,8,-1,0,0,687.172095,687.172095,689.669945,0,9,9,9,1,164,6,7,hat           ,sport_tshirt,html/resources/sequences_IDs/A/08_hat.jpg,html/resources/sequences_IDs/B/07_sport_tshirt.jpg,8,7,3,2,3,2,6,5,0,61,,,,,,,,,,,,,
,,,,,61,2020-07-04_17h22.47.286,retriever_ti,2020.1.3,Win32,60,Chrome,1366,768,,,,,,,,,,,,,,,,,3,,,,,,,,,,,,,,,,,,,,,,,,,,,690.77191,165,right,0.419795,sport_tshirt,7,7,3,1,3,690.805785,690.805785,693.304905,0,10,10,10,1,165,4,7,seaturtle     ,sport_tshirt,html/resources/sequences_IDs/A/02_seaturtle.jpg,html/resources/sequences_IDs/B/07_sport_tshirt.jpg,2,7,2,1,3,2,1,5,0,61,,,,,,,,,,,,,
,,,,,61,2020-07-04_17h22.47.286,retriever_ti,2020.1.3,Win32,60,Chrome,1366,768,,,,,,,,,,,,,,,,,3,,,,,,,,,,,,,,,,,,,,,,,,,,,693.92287,166,left,0.624755,peacock       ,2,5,-1,0,0,693.941275,693.941275,696.439585,0,11,11,11,1,166,2,3,peacock       ,phone       ,html/resources/sequences_IDs/A/05_peacock.jpg,html/resources/sequences_IDs/B/09_phone.jpg,5,9,2,1,4,2,4,7,0,61,,,,,,,,,,,,,
,,,,,61,2020-07-04_17h22.47.286,retriever_ti,2020.1.3,Win32,60,Chrome,1366,768,,,,,,,,,,,,,,,,,3,,,,,,,,,,,,,,,,,,,,,,,,,,,697.54333,167,right,0.249065,peacock       ,2,5,-6,0,3,697.56013,697.56013,700.05766,0,12,12,12,1,167,8,2,clownfish     ,peacock       ,html/resources/sequences_IDs/A/04_clownfish.jpg,html/resources/sequences_IDs/A/05_peacock.jpg,4,5,2,1,2,1,3,4,0,61,,,,,,,,,,,,,
,,,,,61,2020-07-04_17h22.47.286,retriever_ti,2020.1.3,Win32,60,Chrome,1366,768,,,,,,,,,,,,,,,,,3,,,,,,,,,,,,,,,,,,,,,,,,,,,700.659155,168,left,0.58291,giraffe     ,5,3,-1,0,0,700.677295,700.677295,703.175665,0,13,13,13,1,168,5,6,giraffe     ,hat           ,html/resources/sequences_IDs/B/03_giraffe.jpg,html/resources/sequences_IDs/A/08_hat.jpg,3,8,1,1,3,2,2,6,0,61,,,,,,,,,,,,,
,,,,,61,2020-07-04_17h22.47.286,retriever_ti,2020.1.3,Win32,60,Chrome,1366,768,,,,,,,,,,,,,,,,,3,,,,,,,,,,,,,,,,,,,,,,,,,,,704.27722,169,right,0.83166,clownfish     ,8,4,5,1,3,704.2945,704.2945,706.794005,0,14,14,14,1,169,3,8,phone       ,clownfish     ,html/resources/sequences_IDs/B/09_phone.jpg,html/resources/sequences_IDs/A/04_clownfish.jpg,9,4,4,2,2,1,7,3,0,61,,,,,,,,,,,,,
,,,,,61,2020-07-04_17h22.47.286,retriever_ti,2020.1.3,Win32,60,Chrome,1366,768,,,,,,,,,,,,,,,,,3,,,,,,,,,,,,,,,,,,,,,,,,,,,707.39698,170,right,0.681525,peacock       ,2,5,1,1,1,707.414535,707.414535,709.91217,0,15,15,15,1,170,1,2,radio       ,peacock       ,html/resources/sequences_IDs/B/10_radio.jpg,html/resources/sequences_IDs/A/05_peacock.jpg,10,5,4,2,2,1,8,4,0,61,,,,,,,,,,,,,
,,,,,61,2020-07-04_17h22.47.286,retriever_ti,2020.1.3,Win32,60,Chrome,1366,768,,,,,,,,,,,,,,,,,3,,,,,,,,,,,,,,,,,,,,,,,,,,,711.01426,171,right,0.423055,giraffe     ,5,3,-1,0,0,711.031065,711.031065,713.530255,0,16,16,16,1,171,6,5,hat           ,giraffe     ,html/resources/sequences_IDs/A/08_hat.jpg,html/resources/sequences_IDs/B/03_giraffe.jpg,8,3,3,2,1,1,6,2,0,61,,,,,,,,,,,,,
,,,,,61,2020-07-04_17h22.47.286,retriever_ti,2020.1.3,Win32,60,Chrome,1366,768,,,,,,,,,,,,,,,,,3,,,,,,,,,,,,,,,,,,,,,,,,,,,714.63176,172,left,0.54463,sport_tshirt,7,7,1,1,1,714.650465,714.650465,717.14846,0,17,17,17,1,172,7,6,sport_tshirt,hat           ,html/resources/sequences_IDs/B/07_sport_tshirt.jpg,html/resources/sequences_IDs/A/08_hat.jpg,7,8,3,2,3,2,5,6,0,61,,,,,,,,,,,,,
,,,,,61,2020-07-04_17h22.47.286,retriever_ti,2020.1.3,Win32,60,Chrome,1366,768,,,,,,,,,,,,,,,,,3,,,,,,,,,,,,,,,,,,,,,,,,,,,718.252745,173,right,0.580925,seaturtle     ,4,2,1,1,1,718.271145,718.271145,720.76678,0,18,18,18,1,173,3,4,phone       ,seaturtle     ,html/resources/sequences_IDs/B/09_phone.jpg,html/resources/sequences_IDs/A/02_seaturtle.jpg,9,2,4,2,2,1,7,1,0,61,,,,,,,,,,,,,
,,,,,61,2020-07-04_17h22.47.286,retriever_ti,2020.1.3,Win32,60,Chrome,1366,768,,,,,,,,,,,,,,,,,3,,,,,,,,,,,,,,,,,,,,,,,,,,,721.86944,174,right,0.69148,giraffe     ,5,3,1,1,1,721.90301,721.90301,724.401645,0,19,19,19,1,174,4,5,seaturtle     ,giraffe     ,html/resources/sequences_IDs/A/02_seaturtle.jpg,html/resources/sequences_IDs/B/03_giraffe.jpg,2,3,2,1,1,1,1,2,0,61,,,,,,,,,,,,,
,,,,,61,2020-07-04_17h22.47.286,retriever_ti,2020.1.3,Win32,60,Chrome,1366,768,,,,,,,,,,,,,,,,,3,,,,,,,,,,,,,,,,,,,,,,,,,,,725.50429,175,left,0.5961,giraffe     ,5,3,3,1,3,725.520835,725.520835,728.019965,0,20,20,20,1,175,5,2,giraffe     ,peacock       ,html/resources/sequences_IDs/B/03_giraffe.jpg,html/resources/sequences_IDs/A/05_peacock.jpg,3,5,1,1,2,1,2,4,0,61,,,,,,,,,,,,,
,,,,,61,2020-07-04_17h22.47.286,retriever_ti,2020.1.3,Win32,60,Chrome,1366,768,,,,,,,,,,,,,,,,,3,,,,,,,,,,,,,,,,,,,,,,,,,,,728.620875,176,right,0.626535,seaturtle     ,4,2,1,1,1,728.656065,728.656065,731.154625,0,21,21,21,1,176,3,4,phone       ,seaturtle     ,html/resources/sequences_IDs/B/09_phone.jpg,html/resources/sequences_IDs/A/02_seaturtle.jpg,9,2,4,2,2,1,7,1,0,61,,,,,,,,,,,,,
,,,,,61,2020-07-04_17h22.47.286,retriever_ti,2020.1.3,Win32,60,Chrome,1366,768,,,,,,,,,,,,,,,,,3,,,,,,,,,,,,,,,,,,,,,,,,,,,732.25851,177,right,0.655965,sport_tshirt,7,7,4,1,3,732.29199,732.29199,734.78951,0,22,22,22,1,177,3,7,phone       ,sport_tshirt,html/resources/sequences_IDs/B/09_phone.jpg,html/resources/sequences_IDs/B/07_sport_tshirt.jpg,9,7,4,2,3,2,7,5,0,61,,,,,,,,,,,,,
,,,,,61,2020-07-04_17h22.47.286,retriever_ti,2020.1.3,Win32,60,Chrome,1366,768,,,,,,,,,,,,,,,,,3,,,,,,,,,,,,,,,,,,,,,,,,,,,735.391585,178,left,0.42434,sport_tshirt,7,7,5,1,3,735.425055,735.425055,737.92437,0,23,23,23,1,178,7,2,sport_tshirt,peacock       ,html/resources/sequences_IDs/B/07_sport_tshirt.jpg,html/resources/sequences_IDs/A/05_peacock.jpg,7,5,3,2,2,1,5,4,0,61,,,,,,,,,,,,,
,,,,,61,2020-07-04_17h22.47.286,retriever_ti,2020.1.3,Win32,60,Chrome,1366,768,,,,,,,,,,,,,,,,,3,,,,,,,,,,,,,,,,,,,,,,,,,,,738.52519,179,left,0.542615,clownfish     ,8,4,1,1,1,738.54305,738.54305,741.042205,0,24,24,24,1,179,8,7,clownfish     ,sport_tshirt,html/resources/sequences_IDs/A/04_clownfish.jpg,html/resources/sequences_IDs/B/07_sport_tshirt.jpg,4,7,2,1,3,2,3,5,0,61,,,,,,,,,,,,,
,,,,,61,2020-07-04_17h22.47.286,retriever_ti,2020.1.3,Win32,60,Chrome,1366,768,,,,,,,,,,,,,,,,,3,,,,,,,,,,,,,,,,,,,,,,,,,,,742.14648,180,right,0.828815,peacock       ,2,5,1,1,1,742.163145,742.163145,744.66051,0,25,25,25,1,180,1,2,radio       ,peacock       ,html/resources/sequences_IDs/B/10_radio.jpg,html/resources/sequences_IDs/A/05_peacock.jpg,10,5,4,2,2,1,8,4,0,61,,,,,,,,,,,,,
,,,,,61,2020-07-04_17h22.47.286,retriever_ti,2020.1.3,Win32,60,Chrome,1366,768,,,,,,,,,,,,,,,,,3,,,,,,,,,,,,,,,,,,,,,,,,,,,745.76285,181,right,0.500145,peacock       ,2,5,-4,0,3,745.77934,745.77934,748.278815,0,26,26,26,1,181,6,2,hat           ,peacock       ,html/resources/sequences_IDs/A/08_hat.jpg,html/resources/sequences_IDs/A/05_peacock.jpg,8,5,3,2,2,1,6,4,0,61,,,,,,,,,,,,,
,,,,,61,2020-07-04_17h22.47.286,retriever_ti,2020.1.3,Win32,60,Chrome,1366,768,,,,,,,,,,,,,,,,,3,,,,,,,,,,,,,,,,,,,,,,,,,,,748.880635,182,right,0.73624,hat           ,6,8,4,1,3,748.89905,748.89905,751.39689,0,27,27,27,1,182,2,6,peacock       ,hat           ,html/resources/sequences_IDs/A/05_peacock.jpg,html/resources/sequences_IDs/A/08_hat.jpg,5,8,2,1,3,2,4,6,0,61,,,,,,,,,,,,,
,,,,,61,2020-07-04_17h22.47.286,retriever_ti,2020.1.3,Win32,60,Chrome,1366,768,,,,,,,,,,,,,,,,,3,,,,,,,,,,,,,,,,,,,,,,,,,,,751.998265,183,left,0.445925,peacock       ,2,5,-3,0,3,752.017495,752.017495,754.514885,0,28,28,28,1,183,2,5,peacock       ,giraffe     ,html/resources/sequences_IDs/A/05_peacock.jpg,html/resources/sequences_IDs/B/03_giraffe.jpg,5,3,2,1,1,1,4,2,0,61,,,,,,,,,,,,,
,,,,,61,2020-07-04_17h22.47.286,retriever_ti,2020.1.3,Win32,60,Chrome,1366,768,,,,,,,,,,,,,,,,,3,,,,,,,,,,,,,,,,,,,,,,,,,,,755.118045,184,left,0.558155,clownfish     ,8,4,4,1,3,755.152695,755.152695,757.649655,0,29,29,29,1,184,8,4,clownfish     ,seaturtle     ,html/resources/sequences_IDs/A/04_clownfish.jpg,html/resources/sequences_IDs/A/02_seaturtle.jpg,4,2,2,1,2,1,3,1,0,61,,,,,,,,,,,,,
,,,,,61,2020-07-04_17h22.47.286,retriever_ti,2020.1.3,Win32,60,Chrome,1366,768,,,,,,,,,,,,,,,,,3,,,,,,,,,,,,,,,,,,,,,,,,,,,758.26735,185,left,0.5603,clownfish     ,8,4,3,1,3,758.30178,758.30178,760.800975,0,30,30,30,1,185,8,5,clownfish     ,giraffe     ,html/resources/sequences_IDs/A/04_clownfish.jpg,html/resources/sequences_IDs/B/03_giraffe.jpg,4,3,2,1,1,1,3,2,0,61,,,,,,,,,,,,,
,,,,,61,2020-07-04_17h22.47.286,retriever_ti,2020.1.3,Win32,60,Chrome,1366,768,,,,,,,,,,,,,,,,,3,,,,,,,,,,,,,,,,,,,,,,,,,,,761.40521,186,right,0.759505,phone       ,3,9,-1,0,0,761.420505,761.420505,763.918895,0,31,31,31,1,186,4,3,seaturtle     ,phone       ,html/resources/sequences_IDs/A/02_seaturtle.jpg,html/resources/sequences_IDs/B/09_phone.jpg,2,9,2,1,4,2,1,7,0,61,,,,,,,,,,,,,
,,,,,61,2020-07-04_17h22.47.286,retriever_ti,2020.1.3,Win32,60,Chrome,1366,768,,,,,,,,,,,,,,,,,3,,,,,,,,,,,,,,,,,,,,,,,,,,,765.02199,187,left,0.525265,seaturtle     ,4,2,1,1,0,765.03838,765.03838,767.53728,0,32,32,32,1,187,4,3,seaturtle     ,phone       ,html/resources/sequences_IDs/A/02_seaturtle.jpg,html/resources/sequences_IDs/B/09_phone.jpg,2,9,2,1,4,2,1,7,1,61,,,,,,,,,,,,,
,,,,,61,2020-07-04_17h22.47.286,retriever_ti,2020.1.3,Win32,60,Chrome,1366,768,,,,,,,,,,,,,,,,,3,,,,,,,,,,,,,,,,,,,,,,,,,,,768.639035,188,right,0.582325,sport_tshirt,7,7,6,1,3,768.656735,768.656735,771.15546,0,33,33,33,1,188,1,7,radio       ,sport_tshirt,html/resources/sequences_IDs/B/10_radio.jpg,html/resources/sequences_IDs/B/07_sport_tshirt.jpg,10,7,4,2,3,2,8,5,0,61,,,,,,,,,,,,,
,,,,,61,2020-07-04_17h22.47.286,retriever_ti,2020.1.3,Win32,60,Chrome,1366,768,,,,,,,,,,,,,,,,,3,,,,,,,,,,,,,,,,,,,,,,,,,,,771.75732,189,right,0.559665,phone       ,3,9,-1,0,0,771.774175,771.774175,774.273535,0,34,34,34,1,189,4,3,seaturtle     ,phone       ,html/resources/sequences_IDs/A/02_seaturtle.jpg,html/resources/sequences_IDs/B/09_phone.jpg,2,9,2,1,4,2,1,7,0,61,,,,,,,,,,,,,
,,,,,61,2020-07-04_17h22.47.286,retriever_ti,2020.1.3,Win32,60,Chrome,1366,768,,,,,,,,,,,,,,,,,3,,,,,,,,,,,,,,,,,,,,,,,,,,,775.37626,190,left,0.60648,giraffe     ,5,3,-1,0,0,775.393185,775.393185,777.89191,0,35,35,35,1,190,5,6,giraffe     ,hat           ,html/resources/sequences_IDs/B/03_giraffe.jpg,html/resources/sequences_IDs/A/08_hat.jpg,3,8,1,1,3,2,2,6,0,61,,,,,,,,,,,,,
,,,,,61,2020-07-04_17h22.47.286,retriever_ti,2020.1.3,Win32,60,Chrome,1366,768,,,,,,,,,,,,,,,,,3,,,,,,,,,,,,,,,,,,,,,,,,,,,778.993725,191,right,0.43781,hat           ,6,8,1,1,0,779.01197,779.01197,781.510095,0,36,36,36,1,191,5,6,giraffe     ,hat           ,html/resources/sequences_IDs/B/03_giraffe.jpg,html/resources/sequences_IDs/A/08_hat.jpg,3,8,1,1,3,2,2,6,1,61,,,,,,,,,,,,,
,,,,,61,2020-07-04_17h22.47.286,retriever_ti,2020.1.3,Win32,60,Chrome,1366,768,,,,,,,,,,,,,,,,,3,,,,,,,,,,,,,,,,,,,,,,,,,,,782.61136,192,left,0.58519,peacock       ,2,5,-1,0,0,782.64591,782.64591,785.14499,0,37,37,37,1,192,2,3,peacock       ,phone       ,html/resources/sequences_IDs/A/05_peacock.jpg,html/resources/sequences_IDs/B/09_phone.jpg,5,9,2,1,4,2,4,7,0,61,,,,,,,,,,,,,
,,,,,61,2020-07-04_17h22.47.286,retriever_ti,2020.1.3,Win32,60,Chrome,1366,768,,,,,,,,,,,,,,,,,3,,,,,,,,,,,,,,,,,,,,,,,,,,,786.247215,193,right,0.377885,clownfish     ,8,4,2,1,3,786.26422,786.26422,789.546745,0,38,38,38,1,193,6,8,hat           ,clownfish     ,html/resources/sequences_IDs/A/08_hat.jpg,html/resources/sequences_IDs/A/04_clownfish.jpg,8,4,3,2,2,1,6,3,0,61,,,,,,,,,,,,,
,,,,,61,2020-07-04_17h22.47.286,retriever_ti,2020.1.3,Win32,60,Chrome,1366,768,,,,,,,,,,,,,,,,,3,,,,,,,,,,,,,,,,,,,,,,,,,,,790.148805,194,left,0.558375,giraffe     ,5,3,1,1,1,790.1663,790.1663,792.664905,0,39,39,39,1,194,5,4,giraffe     ,seaturtle     ,html/resources/sequences_IDs/B/03_giraffe.jpg,html/resources/sequences_IDs/A/02_seaturtle.jpg,3,2,1,1,2,1,2,1,0,61,,,,,,,,,,,,,
,,,,,61,2020-07-04_17h22.47.286,retriever_ti,2020.1.3,Win32,60,Chrome,1366,768,,,,,,,,,,,,,,,,,3,,,,,,,,,,,,,,,,,,,,,,,,,,,793.76684,195,left,0.55207,clownfish     ,8,4,1,1,0,793.800505,793.800505,796.299785,0,40,40,40,1,195,8,7,clownfish     ,sport_tshirt,html/resources/sequences_IDs/A/04_clownfish.jpg,html/resources/sequences_IDs/B/07_sport_tshirt.jpg,4,7,2,1,3,2,3,5,1,61,,,,,,,,,,,,,
,,,,,61,2020-07-04_17h22.47.286,retriever_ti,2020.1.3,Win32,60,Chrome,1366,768,,,,,,,,,,,,,,,,,3,,,,,,,,,,,,,,,,,,,,,,,,,,,797.402025,196,right,0.442635,sport_tshirt,7,7,2,1,3,797.42158,797.42158,799.918115,0,41,41,41,1,196,5,7,giraffe     ,sport_tshirt,html/resources/sequences_IDs/B/03_giraffe.jpg,html/resources/sequences_IDs/B/07_sport_tshirt.jpg,3,7,1,1,3,2,2,5,0,61,,,,,,,,,,,,,
,,,,,61,2020-07-04_17h22.47.286,retriever_ti,2020.1.3,Win32,60,Chrome,1366,768,,,,,,,,,,,,,,,,,3,,,,,,,,,,,,,,,,,,,,,,,,,,,800.51988,197,left,0.5127,clownfish     ,8,4,5,1,3,800.553515,800.553515,803.05275,0,42,42,42,1,197,8,3,clownfish     ,phone       ,html/resources/sequences_IDs/A/04_clownfish.jpg,html/resources/sequences_IDs/B/09_phone.jpg,4,9,2,1,4,2,3,7,0,61,,,,,,,,,,,,,
,,,,,61,2020-07-04_17h22.47.286,retriever_ti,2020.1.3,Win32,60,Chrome,1366,768,,,,,,,,,,,,,,,,,3,,,,,,,,,,,,,,,,,,,,,,,,,,,803.653775,198,left,0.64822,peacock       ,2,5,-1,0,1,803.689625,803.689625,806.187615,0,43,43,43,1,198,2,3,peacock       ,phone       ,html/resources/sequences_IDs/A/05_peacock.jpg,html/resources/sequences_IDs/B/09_phone.jpg,5,9,2,1,4,2,4,7,1,61,,,,,,,,,,,,,
,,,,,61,2020-07-04_17h22.47.286,retriever_ti,2020.1.3,Win32,60,Chrome,1366,768,,,,,,,,,,,,,,,,,3,,,,,,,,,,,,,,,,,,,,,,,,,,,807.29177,199,left,0.52239,giraffe     ,5,3,2,1,3,807.30833,807.30833,809.80578,0,44,44,44,1,199,5,3,giraffe     ,phone       ,html/resources/sequences_IDs/B/03_giraffe.jpg,html/resources/sequences_IDs/B/09_phone.jpg,3,9,1,1,4,2,2,7,0,61,,,,,,,,,,,,,
,,,,,61,2020-07-04_17h22.47.286,retriever_ti,2020.1.3,Win32,60,Chrome,1366,768,,,,,,,,,,,,,,,,,3,,,,,,,,,,,,,,,,,,,,,,,,,,,810.407235,200,left,0.84754,hat           ,6,8,-1,0,0,810.424305,810.424305,812.923985,0,45,45,45,1,200,6,7,hat           ,sport_tshirt,html/resources/sequences_IDs/A/08_hat.jpg,html/resources/sequences_IDs/B/07_sport_tshirt.jpg,8,7,3,2,3,2,6,5,0,61,,,,,,,,,,,,,
,,,,,61,2020-07-04_17h22.47.286,retriever_ti,2020.1.3,Win32,60,Chrome,1366,768,,,,,,,,,,,,,,,,,3,,,,,,,,,,,,,,,,,,,,,,,,,,,814.026435,201,left,1.07977,sport_tshirt,7,7,1,1,1,814.04301,814.04301,816.54201,0,46,46,46,1,201,7,6,sport_tshirt,hat           ,html/resources/sequences_IDs/B/07_sport_tshirt.jpg,html/resources/sequences_IDs/A/08_hat.jpg,7,8,3,2,3,2,5,6,0,61,,,,,,,,,,,,,
,,,,,61,2020-07-04_17h22.47.286,retriever_ti,2020.1.3,Win32,60,Chrome,1366,768,,,,,,,,,,,,,,,,,3,,,,,,,,,,,,,,,,,,,,,,,,,,,817.643375,202,right,0.63273,peacock       ,2,5,-2,0,3,817.6779,817.6779,820.17705,0,47,47,47,1,202,4,2,seaturtle     ,peacock       ,html/resources/sequences_IDs/A/02_seaturtle.jpg,html/resources/sequences_IDs/A/05_peacock.jpg,2,5,2,1,2,1,1,4,0,61,,,,,,,,,,,,,
,,,,,61,2020-07-04_17h22.47.286,retriever_ti,2020.1.3,Win32,60,Chrome,1366,768,,,,,,,,,,,,,,,,,3,,,,,,,,,,,,,,,,,,,,,,,,,,,820.78081,203,left,0.60714,seaturtle     ,4,2,3,1,3,820.81471,820.81471,823.31166,0,48,48,48,1,203,4,1,seaturtle     ,radio       ,html/resources/sequences_IDs/A/02_seaturtle.jpg,html/resources/sequences_IDs/B/10_radio.jpg,2,10,2,1,4,2,1,8,0,61,,,,,,,,,,,,,
,,,,,61,2020-07-04_17h22.47.286,retriever_ti,2020.1.3,Win32,60,Chrome,1366,768,,,,,,,,,,,,,,,,,3,,,,,,,,,,,,,,,,,,,,,,,,,,,823.92924,204,left,0.48712,clownfish     ,8,4,7,1,3,823.963605,823.963605,826.46305,0,49,49,49,1,204,8,1,clownfish     ,radio       ,html/resources/sequences_IDs/A/04_clownfish.jpg,html/resources/sequences_IDs/B/10_radio.jpg,4,10,2,1,4,2,3,8,0,61,,,,,,,,,,,,,
,,,,,61,2020-07-04_17h22.47.286,retriever_ti,2020.1.3,Win32,60,Chrome,1366,768,,,,,,,,,,,,,,,,,3,,,,,,,,,,,,,,,,,,,,,,,,,,,827.068015,205,right,0.54142,phone       ,3,9,2,1,3,827.098705,827.098705,829.597765,0,50,50,50,1,205,1,3,radio       ,phone       ,html/resources/sequences_IDs/B/10_radio.jpg,html/resources/sequences_IDs/B/09_phone.jpg,10,9,4,2,4,2,8,7,0,61,,,,,,,,,,,,,
,,,,,61,2020-07-04_17h22.47.286,retriever_ti,2020.1.3,Win32,60,Chrome,1366,768,,,,,,,,,,,,,,,,,3,,,,,,,,,,,,,,,,,,,,,,,,,,,830.201005,206,right,0.615805,clownfish     ,8,4,6,1,3,830.2183,830.2183,832.715795,0,51,51,51,1,206,2,8,peacock       ,clownfish     ,html/resources/sequences_IDs/A/05_peacock.jpg,html/resources/sequences_IDs/A/04_clownfish.jpg,5,4,2,1,2,1,4,3,0,61,,,,,,,,,,,,,
,,,,,61,2020-07-04_17h22.47.286,retriever_ti,2020.1.3,Win32,60,Chrome,1366,768,,,,,,,,,,,,,,,,,3,,,,,,,,,,,,,,,,,,,,,,,,,,,833.31686,207,left,0.45701,giraffe     ,5,3,1,1,1,833.334945,833.334945,835.83408,0,52,52,52,1,207,5,4,giraffe     ,seaturtle     ,html/resources/sequences_IDs/B/03_giraffe.jpg,html/resources/sequences_IDs/A/02_seaturtle.jpg,3,2,1,1,2,1,2,1,0,61,,,,,,,,,,,,,
,,,,,61,2020-07-04_17h22.47.286,retriever_ti,2020.1.3,Win32,60,Chrome,1366,768,,,,,,,,,,,,,,,,,3,,,,,,,,,,,,,,,,,,,,,,,,,,,836.936165,208,left,0.765535,seaturtle     ,4,2,-1,0,0,836.952615,836.952615,839.452055,0,53,53,53,1,208,4,5,seaturtle     ,giraffe     ,html/resources/sequences_IDs/A/02_seaturtle.jpg,html/resources/sequences_IDs/B/03_giraffe.jpg,2,3,2,1,1,1,1,2,0,61,,,,,,,,,,,,,
,,,,,61,2020-07-04_17h22.47.286,retriever_ti,2020.1.3,Win32,60,Chrome,1366,768,,,,,,,,,,,,,,,,,3,,,,,,,,,,,,,,,,,,,,,,,,,,,840.553945,209,left,0.77521,sport_tshirt,7,7,1,1,0,840.570905,840.570905,843.070525,0,54,54,54,1,209,7,6,sport_tshirt,hat           ,html/resources/sequences_IDs/B/07_sport_tshirt.jpg,html/resources/sequences_IDs/A/08_hat.jpg,7,8,3,2,3,2,5,6,1,61,,,,,,,,,,,,,
,,,,,61,2020-07-04_17h22.47.286,retriever_ti,2020.1.3,Win32,60,Chrome,1366,768,,,,,,,,,,,,,,,,,3,,,,,,,,,,,,,,,,,,,,,,,,,,,844.171465,210,right,0.489175,peacock       ,2,5,-1,0,0,844.20676,844.20676,846.705385,0,55,55,55,1,210,3,2,phone       ,peacock       ,html/resources/sequences_IDs/B/09_phone.jpg,html/resources/sequences_IDs/A/05_peacock.jpg,9,5,4,2,2,1,7,4,0,61,,,,,,,,,,,,,
,,,,,61,2020-07-04_17h22.47.286,retriever_ti,2020.1.3,Win32,60,Chrome,1366,768,,,,,,,,,,,,,,,,,3,,,,,,,,,,,,,,,,,,,,,,,,,,,847.806515,211,left,0.578215,peacock       ,2,5,-2,0,3,847.841705,847.841705,850.3402,0,56,56,56,1,211,2,4,peacock       ,seaturtle     ,html/resources/sequences_IDs/A/05_peacock.jpg,html/resources/sequences_IDs/A/02_seaturtle.jpg,5,2,2,1,2,1,4,1,0,61,,,,,,,,,,,,,
,,,,,61,2020-07-04_17h22.47.286,retriever_ti,2020.1.3,Win32,60,Chrome,1366,768,,,,,,,,,,,,,,,,,3,,,,,,,,,,,,,,,,,,,,,,,,,,,850.943005,212,left,0.53089,phone       ,3,9,-3,0,3,850.97743,850.97743,853.474955,0,57,57,57,1,212,3,6,phone       ,hat           ,html/resources/sequences_IDs/B/09_phone.jpg,html/resources/sequences_IDs/A/08_hat.jpg,9,8,4,2,3,2,7,6,0,61,,,,,,,,,,,,,
,,,,,61,2020-07-04_17h22.47.286,retriever_ti,2020.1.3,Win32,60,Chrome,1366,768,,,,,,,,,,,,,,,,,3,,,,,,,,,,,,,,,,,,,,,,,,,,,854.076185,213,left,0.467485,giraffe     ,5,3,4,1,3,854.11045,854.11045,856.609725,0,58,58,58,1,213,5,1,giraffe     ,radio       ,html/resources/sequences_IDs/B/03_giraffe.jpg,html/resources/sequences_IDs/B/10_radio.jpg,3,10,1,1,4,2,2,8,0,61,,,,,,,,,,,,,
,,,,,61,2020-07-04_17h22.47.286,retriever_ti,2020.1.3,Win32,60,Chrome,1366,768,,,,,,,,,,,,,,,,,3,,,,,,,,,,,,,,,,,,,,,,,,,,,857.2281,214,right,0.529205,giraffe     ,5,3,2,1,3,857.24528,857.24528,859.744175,0,59,59,59,1,214,3,5,phone       ,giraffe     ,html/resources/sequences_IDs/B/09_phone.jpg,html/resources/sequences_IDs/B/03_giraffe.jpg,9,3,4,2,1,1,7,2,0,61,,,,,,,,,,,,,
,,,,,61,2020-07-04_17h22.47.286,retriever_ti,2020.1.3,Win32,60,Chrome,1366,768,,,,,,,,,,,,,,,,,3,,,,,,,,,,,,,,,,,,,,,,,,,,,860.345375,215,left,0.399195,radio       ,1,10,-4,0,3,860.362965,860.362965,862.862485,0,60,60,60,1,215,1,5,radio       ,giraffe     ,html/resources/sequences_IDs/B/10_radio.jpg,html/resources/sequences_IDs/B/03_giraffe.jpg,10,3,4,2,1,1,8,2,0,61,,,,,,,,,,,,,
,,,,,61,2020-07-04_17h22.47.286,retriever_ti,2020.1.3,Win32,60,Chrome,1366,768,,,,,,,,,,,,,,,,,3,,,,,,,,,,,,,,,,,,,,,,,,,,,863.46603,216,left,0.383015,clownfish     ,8,4,1,1,1,863.499655,863.499655,865.997035,0,61,61,61,1,216,8,7,clownfish     ,sport_tshirt,html/resources/sequences_IDs/A/04_clownfish.jpg,html/resources/sequences_IDs/B/07_sport_tshirt.jpg,4,7,2,1,3,2,3,5,0,61,,,,,,,,,,,,,
,,,,,61,2020-07-04_17h22.47.286,retriever_ti,2020.1.3,Win32,60,Chrome,1366,768,,,,,,,,,,,,,,,,,3,,,,,,,,,,,,,,,,,,,,,,,,,,,867.099025,217,left,0.516705,peacock       ,2,5,-5,0,3,867.11615,867.11615,869.61536,0,62,62,62,1,217,2,7,peacock       ,sport_tshirt,html/resources/sequences_IDs/A/05_peacock.jpg,html/resources/sequences_IDs/B/07_sport_tshirt.jpg,5,7,2,1,3,2,4,5,0,61,,,,,,,,,,,,,
,,,,,61,2020-07-04_17h22.47.286,retriever_ti,2020.1.3,Win32,60,Chrome,1366,768,,,,,,,,,,,,,,,,,3,,,,,,,,,,,,,,,,,,,,,,,,,,,870.217525,218,left,0.521865,peacock       ,2,5,1,1,0,870.252565,870.252565,872.750075,0,63,63,63,1,218,2,1,peacock       ,radio       ,html/resources/sequences_IDs/A/05_peacock.jpg,html/resources/sequences_IDs/B/10_radio.jpg,5,10,2,1,4,2,4,8,1,61,,,,,,,,,,,,,
,,,,,61,2020-07-04_17h22.47.286,retriever_ti,2020.1.3,Win32,60,Chrome,1366,768,,,,,,,,,,,,,,,,,3,,,,,,,,,,,,,,,,,,,,,,,,,,,873.851765,219,right,0.733305,clownfish     ,8,4,3,1,3,873.86874,873.86874,876.368395,0,64,64,64,1,219,5,8,giraffe     ,clownfish     ,html/resources/sequences_IDs/B/03_giraffe.jpg,html/resources/sequences_IDs/A/04_clownfish.jpg,3,4,1,1,2,1,2,3,0,61,,,,,,,,,,,,,
,,,,,61,2020-07-04_17h22.47.286,retriever_ti,2020.1.3,Win32,60,Chrome,1366,768,,,,,,,,,,,,,,,,,3,,,,,,,,,,,,,,,,,,,,,,,,,,,876.97219,220,right,0.695165,hat           ,6,8,5,1,3,876.98888,876.98888,879.486185,0,65,65,65,1,220,1,6,radio       ,hat           ,html/resources/sequences_IDs/B/10_radio.jpg,html/resources/sequences_IDs/A/08_hat.jpg,10,8,4,2,3,2,8,6,0,61,,,,,,,,,,,,,
,,,,,61,2020-07-04_17h22.47.286,retriever_ti,2020.1.3,Win32,60,Chrome,1366,768,,,,,,,,,,,,,,,,,3,,,,,,,,,,,,,,,,,,,,,,,,,,,880.087465,221,right,0.57756,clownfish     ,8,4,7,1,3,880.121575,880.121575,882.620995,0,66,66,66,1,221,1,8,radio       ,clownfish     ,html/resources/sequences_IDs/B/10_radio.jpg,html/resources/sequences_IDs/A/04_clownfish.jpg,10,4,4,2,2,1,8,3,0,61,,,,,,,,,,,,,
,,,,,61,2020-07-04_17h22.47.286,retriever_ti,2020.1.3,Win32,60,Chrome,1366,768,,,,,,,,,,,,,,,,,3,,,,,,,,,,,,,,,,,,,,,,,,,,,883.2247,222,left,1.36801,sport_tshirt,7,7,2,1,3,883.257295,883.257295,885.7557,0,67,67,67,1,222,7,5,sport_tshirt,giraffe     ,html/resources/sequences_IDs/B/07_sport_tshirt.jpg,html/resources/sequences_IDs/B/03_giraffe.jpg,7,3,3,2,1,1,5,2,0,61,,,,,,,,,,,,,
,,,,,61,2020-07-04_17h22.47.286,retriever_ti,2020.1.3,Win32,60,Chrome,1366,768,,,,,,,,,,,,,,,,,3,,,,,,,,,,,,,,,,,,,,,,,,,,,886.356675,223,left,0.675705,phone       ,3,9,2,1,3,886.39115,886.39115,888.890395,0,68,68,68,1,223,3,1,phone       ,radio       ,html/resources/sequences_IDs/B/09_phone.jpg,html/resources/sequences_IDs/B/10_radio.jpg,9,10,4,2,4,2,7,8,0,61,,,,,,,,,,,,,
,,,,,61,2020-07-04_17h22.47.286,retriever_ti,2020.1.3,Win32,60,Chrome,1366,768,,,,,,,,,,,,,,,,,3,,,,,,,,,,,,,,,,,,,,,,,,,,,889.493185,224,right,0.399735,clownfish     ,8,4,4,1,3,889.52546,889.52546,892.0251,0,69,69,69,1,224,4,8,seaturtle     ,clownfish     ,html/resources/sequences_IDs/A/02_seaturtle.jpg,html/resources/sequences_IDs/A/04_clownfish.jpg,2,4,2,1,2,1,1,3,0,61,,,,,,,,,,,,,
,,,,,61,2020-07-04_17h22.47.286,retriever_ti,2020.1.3,Win32,60,Chrome,1366,768,,,,,,,,,,,,,,,,,3,,,,,,,,,,,,,,,,,,,,,,,,,,,892.62597,225,left,0.41451,hat           ,6,8,2,1,3,892.66018,892.66018,895.15994,0,70,70,70,1,225,6,4,hat           ,seaturtle     ,html/resources/sequences_IDs/A/08_hat.jpg,html/resources/sequences_IDs/A/02_seaturtle.jpg,8,2,3,2,2,1,6,1,0,61,,,,,,,,,,,,,
,,,,,61,2020-07-04_17h22.47.286,retriever_ti,2020.1.3,Win32,60,Chrome,1366,768,,,,,,,,,,,,,,,,,3,,,,,,,,,,,,,,,,,,,,,,,,,,,895.762035,226,left,0.56378,radio       ,1,10,-3,0,3,895.79513,895.79513,898.29469,0,71,71,71,1,226,1,4,radio       ,seaturtle     ,html/resources/sequences_IDs/B/10_radio.jpg,html/resources/sequences_IDs/A/02_seaturtle.jpg,10,2,4,2,2,1,8,1,0,61,,,,,,,,,,,,,
,,,,,61,2020-07-04_17h22.47.286,retriever_ti,2020.1.3,Win32,60,Chrome,1366,768,,,,,,,,,,,,,,,,,3,,,,,,,,,,,,,,,,,,,,,,,,,,,898.895625,227,left,0.531615,seaturtle     ,4,2,-1,0,1,898.91351,898.91351,901.41254,0,72,72,72,1,227,4,5,seaturtle     ,giraffe     ,html/resources/sequences_IDs/A/02_seaturtle.jpg,html/resources/sequences_IDs/B/03_giraffe.jpg,2,3,2,1,1,1,1,2,1,61,,,,,,,,,,,,,
,,,,,61,2020-07-04_17h22.47.286,retriever_ti,2020.1.3,Win32,60,Chrome,1366,768,,,,,,,,,,,,,,,,,3,,,,,,,,,,,,,,,,,,,,,,,,,,,902.51675,228,left,0.858125,seaturtle     ,4,2,-2,0,3,902.534565,902.534565,905.03082,0,73,73,73,1,228,4,6,seaturtle     ,hat           ,html/resources/sequences_IDs/A/02_seaturtle.jpg,html/resources/sequences_IDs/A/08_hat.jpg,2,8,2,1,3,2,1,6,0,61,,,,,,,,,,,,,
