instructionsLoop.thisRepN,instructionsLoop.thisTrialN,instructionsLoop.thisN,instructionsLoop.thisIndex,instructionsLoop.ran,participant,date,expName,psychopyVersion,OS,frameRate,browser,xResolution,yResolution,fix_onset,tprac,practiceKey.keys,practiceKey.rt,pracitem_chosen_name,acc_practice,P1_onsetPrac,P2_onsetPrac,onsetFeedbPrac,practiceTrials.thisRepN,practiceTrials.thisTrialN,practiceTrials.thisN,practiceTrials.thisIndex,practiceTrials.ran,P1,P2,Block,LocItem1,LocItem2,NameItem1,NameItem2,key_respAC_prac.keys,key_respAC_prac.corr,key_respAC_prac.rt,AC_acc,Attentions.thisRepN,Attentions.thisTrialN,Attentions.thisN,Attentions.thisIndex,Attentions.ran,Stim,Loc1,Loc2,Loc3,Loc4,CorrAns,keyDisturbed.keys,keyDisturbed.rt,repPractice.thisRepN,repPractice.thisTrialN,repPractice.thisN,repPractice.thisIndex,repPractice.ran,fixcross_onsetMain,trialNumber,key_resp.keys,key_resp.rt,item_chosen_name,item_chosen_value,item_chosen_ID,diff_chosen_minus_reject,acc_real,acc_feedback,P1_onset,P2_onset,feedb_onset,trials.thisRepN,trials.thisTrialN,trials.thisN,trials.thisIndex,trials.ran,Trial,ValueP1,ValueP2,P1name,P2name,P1Loc,P2Loc,P1id,P2id,Micro_categoryP1,Macro_categoryP1,Micro_categoryP2,Macro_categoryP2,ID_sequenceP1,ID_sequenceP2,InverseFb,pNumber,repBlocks.thisRepN,repBlocks.thisTrialN,repBlocks.thisN,repBlocks.thisIndex,repBlocks.ran,key_respAC.keys,key_respAC.corr,key_respAC.rt,trials_AC.thisRepN,trials_AC.thisTrialN,trials_AC.thisN,trials_AC.thisIndex,trials_AC.ran,Bonus,BonusLoop.thisRepN,BonusLoop.thisTrialN,BonusLoop.thisN,BonusLoop.thisIndex,BonusLoop.ran,comments
0,0,0,0,1,63,2020-07-04_17h35.41.976,retriever_ti,2020.1.3,Win32,60,Chrome,1536,864,,,,,,,,,,,,,,,,,,,,,,,,,,,,,,,,,,,,,,,,,,,,,,,,,,,,,,,,,,,,,,,,,,,,,,,,,,,,,,,,,,,,,,,,,,,,,,,,,,
1,0,1,0,1,63,2020-07-04_17h35.41.976,retriever_ti,2020.1.3,Win32,60,Chrome,1536,864,,,,,,,,,,,,,,,,,,,,,,,,,,,,,,,,,,,,,,,,,,,,,,,,,,,,,,,,,,,,,,,,,,,,,,,,,,,,,,,,,,,,,,,,,,,,,,,,,,
2,0,2,0,1,63,2020-07-04_17h35.41.976,retriever_ti,2020.1.3,Win32,60,Chrome,1536,864,,,,,,,,,,,,,,,,,,,,,,,,,,,,,,,,,,,,,,,,,,,,,,,,,,,,,,,,,,,,,,,,,,,,,,,,,,,,,,,,,,,,,,,,,,,,,,,,,,
3,0,3,0,1,63,2020-07-04_17h35.41.976,retriever_ti,2020.1.3,Win32,60,Chrome,1536,864,,,,,,,,,,,,,,,,,,,,,,,,,,,,,,,,,,,,,,,,,,,,,,,,,,,,,,,,,,,,,,,,,,,,,,,,,,,,,,,,,,,,,,,,,,,,,,,,,,
4,0,4,0,1,63,2020-07-04_17h35.41.976,retriever_ti,2020.1.3,Win32,60,Chrome,1536,864,,,,,,,,,,,,,,,,,,,,,,,,,,,,,,,,,,,,,,,,,,,,,,,,,,,,,,,,,,,,,,,,,,,,,,,,,,,,,,,,,,,,,,,,,,,,,,,,,,
5,0,5,0,1,63,2020-07-04_17h35.41.976,retriever_ti,2020.1.3,Win32,60,Chrome,1536,864,,,,,,,,,,,,,,,,,,,,,,,,,,,,,,,,,,,,,,,,,,,,,,,,,,,,,,,,,,,,,,,,,,,,,,,,,,,,,,,,,,,,,,,,,,,,,,,,,,
6,0,6,0,1,63,2020-07-04_17h35.41.976,retriever_ti,2020.1.3,Win32,60,Chrome,1536,864,,,,,,,,,,,,,,,,,,,,,,,,,,,,,,,,,,,,,,,,,,,,,,,,,,,,,,,,,,,,,,,,,,,,,,,,,,,,,,,,,,,,,,,,,,,,,,,,,,
7,0,7,0,1,63,2020-07-04_17h35.41.976,retriever_ti,2020.1.3,Win32,60,Chrome,1536,864,,,,,,,,,,,,,,,,,,,,,,,,,,,,,,,,,,,,,,,,,,,,,,,,,,,,,,,,,,,,,,,,,,,,,,,,,,,,,,,,,,,,,,,,,,,,,,,,,,
8,0,8,0,1,63,2020-07-04_17h35.41.976,retriever_ti,2020.1.3,Win32,60,Chrome,1536,864,,,,,,,,,,,,,,,,,,,,,,,,,,,,,,,,,,,,,,,,,,,,,,,,,,,,,,,,,,,,,,,,,,,,,,,,,,,,,,,,,,,,,,,,,,,,,,,,,,
9,0,9,0,1,63,2020-07-04_17h35.41.976,retriever_ti,2020.1.3,Win32,60,Chrome,1536,864,,,,,,,,,,,,,,,,,,,,,,,,,,,,,,,,,,,,,,,,,,,,,,,,,,,,,,,,,,,,,,,,,,,,,,,,,,,,,,,,,,,,,,,,,,,,,,,,,,
10,0,10,0,1,63,2020-07-04_17h35.41.976,retriever_ti,2020.1.3,Win32,60,Chrome,1536,864,,,,,,,,,,,,,,,,,,,,,,,,,,,,,,,,,,,,,,,,,,,,,,,,,,,,,,,,,,,,,,,,,,,,,,,,,,,,,,,,,,,,,,,,,,,,,,,,,,
11,0,11,0,1,63,2020-07-04_17h35.41.976,retriever_ti,2020.1.3,Win32,60,Chrome,1536,864,,,,,,,,,,,,,,,,,,,,,,,,,,,,,,,,,,,,,,,,,,,,,,,,,,,,,,,,,,,,,,,,,,,,,,,,,,,,,,,,,,,,,,,,,,,,,,,,,,
12,0,12,0,1,63,2020-07-04_17h35.41.976,retriever_ti,2020.1.3,Win32,60,Chrome,1536,864,,,,,,,,,,,,,,,,,,,,,,,,,,,,,,,,,,,,,,,,,,,,,,,,,,,,,,,,,,,,,,,,,,,,,,,,,,,,,,,,,,,,,,,,,,,,,,,,,,
13,0,13,0,1,63,2020-07-04_17h35.41.976,retriever_ti,2020.1.3,Win32,60,Chrome,1536,864,,,,,,,,,,,,,,,,,,,,,,,,,,,,,,,,,,,,,,,,,,,,,,,,,,,,,,,,,,,,,,,,,,,,,,,,,,,,,,,,,,,,,,,,,,,,,,,,,,
14,0,14,0,1,63,2020-07-04_17h35.41.976,retriever_ti,2020.1.3,Win32,60,Chrome,1536,864,,,,,,,,,,,,,,,,,,,,,,,,,,,,,,,,,,,,,,,,,,,,,,,,,,,,,,,,,,,,,,,,,,,,,,,,,,,,,,,,,,,,,,,,,,,,,,,,,,
15,0,15,0,1,63,2020-07-04_17h35.41.976,retriever_ti,2020.1.3,Win32,60,Chrome,1536,864,,,,,,,,,,,,,,,,,,,,,,,,,,,,,,,,,,,,,,,,,,,,,,,,,,,,,,,,,,,,,,,,,,,,,,,,,,,,,,,,,,,,,,,,,,,,,,,,,,
16,0,16,0,1,63,2020-07-04_17h35.41.976,retriever_ti,2020.1.3,Win32,60,Chrome,1536,864,,,,,,,,,,,,,,,,,,,,,,,,,,,,,,,,,,,,,,,,,,,,,,,,,,,,,,,,,,,,,,,,,,,,,,,,,,,,,,,,,,,,,,,,,,,,,,,,,,
17,0,17,0,1,63,2020-07-04_17h35.41.976,retriever_ti,2020.1.3,Win32,60,Chrome,1536,864,,,,,,,,,,,,,,,,,,,,,,,,,,,,,,,,,,,,,,,,,,,,,,,,,,,,,,,,,,,,,,,,,,,,,,,,,,,,,,,,,,,,,,,,,,,,,,,,,,
18,0,18,0,1,63,2020-07-04_17h35.41.976,retriever_ti,2020.1.3,Win32,60,Chrome,1536,864,,,,,,,,,,,,,,,,,,,,,,,,,,,,,,,,,,,,,,,,,,,,,,,,,,,,,,,,,,,,,,,,,,,,,,,,,,,,,,,,,,,,,,,,,,,,,,,,,,
19,0,19,0,1,63,2020-07-04_17h35.41.976,retriever_ti,2020.1.3,Win32,60,Chrome,1536,864,,,,,,,,,,,,,,,,,,,,,,,,,,,,,,,,,,,,,,,,,,,,,,,,,,,,,,,,,,,,,,,,,,,,,,,,,,,,,,,,,,,,,,,,,,,,,,,,,,
20,0,20,0,1,63,2020-07-04_17h35.41.976,retriever_ti,2020.1.3,Win32,60,Chrome,1536,864,,,,,,,,,,,,,,,,,,,,,,,,,,,,,,,,,,,,,,,,,,,,,,,,,,,,,,,,,,,,,,,,,,,,,,,,,,,,,,,,,,,,,,,,,,,,,,,,,,
21,0,21,0,1,63,2020-07-04_17h35.41.976,retriever_ti,2020.1.3,Win32,60,Chrome,1536,864,,,,,,,,,,,,,,,,,,,,,,,,,,,,,,,,,,,,,,,,,,,,,,,,,,,,,,,,,,,,,,,,,,,,,,,,,,,,,,,,,,,,,,,,,,,,,,,,,,
22,0,22,0,1,63,2020-07-04_17h35.41.976,retriever_ti,2020.1.3,Win32,60,Chrome,1536,864,,,,,,,,,,,,,,,,,,,,,,,,,,,,,,,,,,,,,,,,,,,,,,,,,,,,,,,,,,,,,,,,,,,,,,,,,,,,,,,,,,,,,,,,,,,,,,,,,,
23,0,23,0,1,63,2020-07-04_17h35.41.976,retriever_ti,2020.1.3,Win32,60,Chrome,1536,864,,,,,,,,,,,,,,,,,,,,,,,,,,,,,,,,,,,,,,,,,,,,,,,,,,,,,,,,,,,,,,,,,,,,,,,,,,,,,,,,,,,,,,,,,,,,,,,,,,
24,0,24,0,1,63,2020-07-04_17h35.41.976,retriever_ti,2020.1.3,Win32,60,Chrome,1536,864,,,,,,,,,,,,,,,,,,,,,,,,,,,,,,,,,,,,,,,,,,,,,,,,,,,,,,,,,,,,,,,,,,,,,,,,,,,,,,,,,,,,,,,,,,,,,,,,,,
25,0,25,0,1,63,2020-07-04_17h35.41.976,retriever_ti,2020.1.3,Win32,60,Chrome,1536,864,,,,,,,,,,,,,,,,,,,,,,,,,,,,,,,,,,,,,,,,,,,,,,,,,,,,,,,,,,,,,,,,,,,,,,,,,,,,,,,,,,,,,,,,,,,,,,,,,,
26,0,26,0,1,63,2020-07-04_17h35.41.976,retriever_ti,2020.1.3,Win32,60,Chrome,1536,864,,,,,,,,,,,,,,,,,,,,,,,,,,,,,,,,,,,,,,,,,,,,,,,,,,,,,,,,,,,,,,,,,,,,,,,,,,,,,,,,,,,,,,,,,,,,,,,,,,
27,0,27,0,1,63,2020-07-04_17h35.41.976,retriever_ti,2020.1.3,Win32,60,Chrome,1536,864,,,,,,,,,,,,,,,,,,,,,,,,,,,,,,,,,,,,,,,,,,,,,,,,,,,,,,,,,,,,,,,,,,,,,,,,,,,,,,,,,,,,,,,,,,,,,,,,,,
28,0,28,0,1,63,2020-07-04_17h35.41.976,retriever_ti,2020.1.3,Win32,60,Chrome,1536,864,,,,,,,,,,,,,,,,,,,,,,,,,,,,,,,,,,,,,,,,,,,,,,,,,,,,,,,,,,,,,,,,,,,,,,,,,,,,,,,,,,,,,,,,,,,,,,,,,,
29,0,29,0,1,63,2020-07-04_17h35.41.976,retriever_ti,2020.1.3,Win32,60,Chrome,1536,864,,,,,,,,,,,,,,,,,,,,,,,,,,,,,,,,,,,,,,,,,,,,,,,,,,,,,,,,,,,,,,,,,,,,,,,,,,,,,,,,,,,,,,,,,,,,,,,,,,
30,0,30,0,1,63,2020-07-04_17h35.41.976,retriever_ti,2020.1.3,Win32,60,Chrome,1536,864,,,,,,,,,,,,,,,,,,,,,,,,,,,,,,,,,,,,,,,,,,,,,,,,,,,,,,,,,,,,,,,,,,,,,,,,,,,,,,,,,,,,,,,,,,,,,,,,,,
31,0,31,0,1,63,2020-07-04_17h35.41.976,retriever_ti,2020.1.3,Win32,60,Chrome,1536,864,,,,,,,,,,,,,,,,,,,,,,,,,,,,,,,,,,,,,,,,,,,,,,,,,,,,,,,,,,,,,,,,,,,,,,,,,,,,,,,,,,,,,,,,,,,,,,,,,,
32,0,32,0,1,63,2020-07-04_17h35.41.976,retriever_ti,2020.1.3,Win32,60,Chrome,1536,864,,,,,,,,,,,,,,,,,,,,,,,,,,,,,,,,,,,,,,,,,,,,,,,,,,,,,,,,,,,,,,,,,,,,,,,,,,,,,,,,,,,,,,,,,,,,,,,,,,
33,0,33,0,1,63,2020-07-04_17h35.41.976,retriever_ti,2020.1.3,Win32,60,Chrome,1536,864,,,,,,,,,,,,,,,,,,,,,,,,,,,,,,,,,,,,,,,,,,,,,,,,,,,,,,,,,,,,,,,,,,,,,,,,,,,,,,,,,,,,,,,,,,,,,,,,,,
34,0,34,0,1,63,2020-07-04_17h35.41.976,retriever_ti,2020.1.3,Win32,60,Chrome,1536,864,,,,,,,,,,,,,,,,,,,,,,,,,,,,,,,,,,,,,,,,,,,,,,,,,,,,,,,,,,,,,,,,,,,,,,,,,,,,,,,,,,,,,,,,,,,,,,,,,,
35,0,35,0,1,63,2020-07-04_17h35.41.976,retriever_ti,2020.1.3,Win32,60,Chrome,1536,864,,,,,,,,,,,,,,,,,,,,,,,,,,,,,,,,,,,,,,,,,,,,,,,,,,,,,,,,,,,,,,,,,,,,,,,,,,,,,,,,,,,,,,,,,,,,,,,,,,
36,0,36,0,1,63,2020-07-04_17h35.41.976,retriever_ti,2020.1.3,Win32,60,Chrome,1536,864,,,,,,,,,,,,,,,,,,,,,,,,,,,,,,,,,,,,,,,,,,,,,,,,,,,,,,,,,,,,,,,,,,,,,,,,,,,,,,,,,,,,,,,,,,,,,,,,,,
,,,,,63,2020-07-04_17h35.41.976,retriever_ti,2020.1.3,Win32,60,Chrome,1536,864,1990.561295,1,left,1.202455,beetle,0,1990.581225,1990.581225,1993.08156,0,0,0,0,1,2,5,1,html/resources/stimuli_practice_decision/04_beetle.jpg,html/resources/stimuli_practice_decision/02_canary.jpg,beetle,canary,,,,,,,,,,,,,,,,,,,,,,,,,,,,,,,,,,,,,,,,,,,,,,,,,,,,,,,,,,,,,,,,,,,,,,,,,,,,,
,,,,,63,2020-07-04_17h35.41.976,retriever_ti,2020.1.3,Win32,60,Chrome,1536,864,1993.881775,2,right,1.74292,sock,0,1993.91587,1993.91587,1996.41623,0,1,1,1,1,4,3,1,html/resources/stimuli_practice_decision/01_rabbit.jpg,html/resources/stimuli_practice_decision/07_sock.jpg,rabbit,sock,,,,,,,,,,,,,,,,,,,,,,,,,,,,,,,,,,,,,,,,,,,,,,,,,,,,,,,,,,,,,,,,,,,,,,,,,,,,,
,,,,,63,2020-07-04_17h35.41.976,retriever_ti,2020.1.3,Win32,60,Chrome,1536,864,1997.419005,3,left,1.485385,pullover,1,1997.45151,1997.45151,1999.952195,0,2,2,2,1,6,2,1,html/resources/stimuli_practice_decision/06_pullover.jpg,html/resources/stimuli_practice_decision/04_beetle.jpg,pullover,beetle,,,,,,,,,,,,,,,,,,,,,,,,,,,,,,,,,,,,,,,,,,,,,,,,,,,,,,,,,,,,,,,,,,,,,,,,,,,,,
,,,,,63,2020-07-04_17h35.41.976,retriever_ti,2020.1.3,Win32,60,Chrome,1536,864,2000.45419,4,left,1.38579,glasses,1,2000.470395,2000.470395,2002.9706,0,3,3,3,1,7,1,1,html/resources/stimuli_practice_decision/05_glasses.jpg,html/resources/stimuli_practice_decision/08_handmixer.jpg,glasses,handmixer,,,,,,,,,,,,,,,,,,,,,,,,,,,,,,,,,,,,,,,,,,,,,,,,,,,,,,,,,,,,,,,,,,,,,,,,,,,,,
,,,,,63,2020-07-04_17h35.41.976,retriever_ti,2020.1.3,Win32,60,Chrome,1536,864,2003.488425,5,left,1.168695,glasses,1,2003.50758,2003.50758,2006.00485,0,4,4,4,1,7,6,1,html/resources/stimuli_practice_decision/05_glasses.jpg,html/resources/stimuli_practice_decision/06_pullover.jpg,glasses,pullover,,,,,,,,,,,,,,,,,,,,,,,,,,,,,,,,,,,,,,,,,,,,,,,,,,,,,,,,,,,,,,,,,,,,,,,,,,,,,
,,,,,63,2020-07-04_17h35.41.976,retriever_ti,2020.1.3,Win32,60,Chrome,1536,864,2007.008185,6,left,1.95154,rabbit,0,2007.02657,2007.02657,2009.525295,0,5,5,5,1,4,7,1,html/resources/stimuli_practice_decision/01_rabbit.jpg,html/resources/stimuli_practice_decision/05_glasses.jpg,rabbit,glasses,,,,,,,,,,,,,,,,,,,,,,,,,,,,,,,,,,,,,,,,,,,,,,,,,,,,,,,,,,,,,,,,,,,,,,,,,,,,,
,,,,,63,2020-07-04_17h35.41.976,retriever_ti,2020.1.3,Win32,60,Chrome,1536,864,2010.02629,7,left,1.269065,handmixer,0,2010.04147,2010.04147,2012.54211,0,6,6,6,1,1,2,1,html/resources/stimuli_practice_decision/08_handmixer.jpg,html/resources/stimuli_practice_decision/04_beetle.jpg,handmixer,beetle,,,,,,,,,,,,,,,,,,,,,,,,,,,,,,,,,,,,,,,,,,,,,,,,,,,,,,,,,,,,,,,,,,,,,,,,,,,,,
,,,,,63,2020-07-04_17h35.41.976,retriever_ti,2020.1.3,Win32,60,Chrome,1536,864,2013.542905,8,right,2.256965,sock,0,2013.561125,2013.561125,2016.06183,0,7,7,7,1,4,3,1,html/resources/stimuli_practice_decision/01_rabbit.jpg,html/resources/stimuli_practice_decision/07_sock.jpg,rabbit,sock,,,,,,,,,,,,,,,,,,,,,,,,,,,,,,,,,,,,,,,,,,,,,,,,,,,,,,,,,,,,,,,,,,,,,,,,,,,,,
,,,,,63,2020-07-04_17h35.41.976,retriever_ti,2020.1.3,Win32,60,Chrome,1536,864,,,,,,,,,,,,,,,,,,,,,,down,1,3.48,1,0,0,0,1,1,html/resources/sequences_IDs/star.png,square ↑,circle →,star ↓,← triangle,down,,,,,,,,,,,,,,,,,,,,,,,,,,,,,,,,,,,,,,,,,,,,,,,,,,,,,,,,,,,,,,
,,,,,63,2020-07-04_17h35.41.976,retriever_ti,2020.1.3,Win32,60,Chrome,1536,864,,,,,,,,,,,,,,,,,,,,,,left,1,2.87644,1,0,1,1,2,1,html/resources/sequences_IDs/square1.png,star ↑,triangle →,circle ↓,← square,left,,,,,,,,,,,,,,,,,,,,,,,,,,,,,,,,,,,,,,,,,,,,,,,,,,,,,,,,,,,,,,
,,,,,63,2020-07-04_17h35.41.976,retriever_ti,2020.1.3,Win32,60,Chrome,1536,864,,,,,,,,,,,,,,,,,,,,,,up,1,1.48053,1,0,2,2,0,1,html/resources/sequences_IDs/circle.png,circle ↑,square →,triangle ↓,← star ,up,,,,,,,,,,,,,,,,,,,,,,,,,,,,,,,,,,,,,,,,,,,,,,,,,,,,,,,,,,,,,,
,,,,,63,2020-07-04_17h35.41.976,retriever_ti,2020.1.3,Win32,60,Chrome,1536,864,,,,,,,,,,,,,,,,,,,,,,down,1,1.50201,1,0,3,3,3,1,html/resources/sequences_IDs/triangle.png,star ↑,square →,triangle ↓,← circle,down,,,,,,,,,,,,,,,,,,,,,,,,,,,,,,,,,,,,,,,,,,,,,,,,,,,,,,,,,,,,,,
,,,,,63,2020-07-04_17h35.41.976,retriever_ti,2020.1.3,Win32,60,Chrome,1536,864,,,,,,,,,,,,,,,,,,,,,,,,,,,,,,,,,,,,,0,6.402865,0,0,0,0,1,,,,,,,,,,,,,,,,,,,,,,,,,,,,,,,,,,,,,,,,,,,,,,,,,,,,,,,
,,,,,63,2020-07-04_17h35.41.976,retriever_ti,2020.1.3,Win32,60,Chrome,1536,864,2036.531075,9,left,0.952515,pullover,0,2036.557515,2036.557515,2039.058045,0,0,0,0,1,6,7,1,html/resources/stimuli_practice_decision/06_pullover.jpg,html/resources/stimuli_practice_decision/05_glasses.jpg,pullover,glasses,,,,,,,,,,,,,,,,,,,,,,,,,,,,,,,,,,,,,,,,,,,,,,,,,,,,,,,,,,,,,,,,,,,,,,,,,,,,,
,,,,,63,2020-07-04_17h35.41.976,retriever_ti,2020.1.3,Win32,60,Chrome,1536,864,2040.059435,10,left,2.07959,pullover,1,2040.075455,2040.075455,2042.5772,0,1,1,1,1,6,2,1,html/resources/stimuli_practice_decision/06_pullover.jpg,html/resources/stimuli_practice_decision/04_beetle.jpg,pullover,beetle,,,,,,,,,,,,,,,,,,,,,,,,,,,,,,,,,,,,,,,,,,,,,,,,,,,,,,,,,,,,,,,,,,,,,,,,,,,,,
,,,,,63,2020-07-04_17h35.41.976,retriever_ti,2020.1.3,Win32,60,Chrome,1536,864,2043.09445,11,left,1.53111,canary,0,2043.111925,2043.111925,2045.6113,0,2,2,2,1,5,6,1,html/resources/stimuli_practice_decision/02_canary.jpg,html/resources/stimuli_practice_decision/06_pullover.jpg,canary,pullover,,,,,,,,,,,,,,,,,,,,,,,,,,,,,,,,,,,,,,,,,,,,,,,,,,,,,,,,,,,,,,,,,,,,,,,,,,,,,
,,,,,63,2020-07-04_17h35.41.976,retriever_ti,2020.1.3,Win32,60,Chrome,1536,864,2046.61175,12,left,1.652565,squirrel,1,2046.629405,2046.629405,2049.13057,0,3,3,3,1,8,7,1,html/resources/stimuli_practice_decision/03_squirrel.jpg,html/resources/stimuli_practice_decision/05_glasses.jpg,squirrel,glasses,,,,,,,,,,,,,,,,,,,,,,,,,,,,,,,,,,,,,,,,,,,,,,,,,,,,,,,,,,,,,,,,,,,,,,,,,,,,,
,,,,,63,2020-07-04_17h35.41.976,retriever_ti,2020.1.3,Win32,60,Chrome,1536,864,2050.131655,13,left,1.379815,canary,1,2050.16541,2050.16541,2052.6665,0,4,4,4,1,5,3,1,html/resources/stimuli_practice_decision/02_canary.jpg,html/resources/stimuli_practice_decision/07_sock.jpg,canary,sock,,,,,,,,,,,,,,,,,,,,,,,,,,,,,,,,,,,,,,,,,,,,,,,,,,,,,,,,,,,,,,,,,,,,,,,,,,,,,
,,,,,63,2020-07-04_17h35.41.976,retriever_ti,2020.1.3,Win32,60,Chrome,1536,864,2053.183675,14,right,1.220745,squirrel,1,2053.21723,2053.21723,2055.718395,0,5,5,5,1,7,8,1,html/resources/stimuli_practice_decision/05_glasses.jpg,html/resources/stimuli_practice_decision/03_squirrel.jpg,glasses,squirrel,,,,,,,,,,,,,,,,,,,,,,,,,,,,,,,,,,,,,,,,,,,,,,,,,,,,,,,,,,,,,,,,,,,,,,,,,,,,,
,,,,,63,2020-07-04_17h35.41.976,retriever_ti,2020.1.3,Win32,60,Chrome,1536,864,2056.718375,15,right,1.508585,rabbit,0,2056.735275,2056.735275,2059.23643,0,6,6,6,1,5,4,1,html/resources/stimuli_practice_decision/02_canary.jpg,html/resources/stimuli_practice_decision/01_rabbit.jpg,canary,rabbit,,,,,,,,,,,,,,,,,,,,,,,,,,,,,,,,,,,,,,,,,,,,,,,,,,,,,,,,,,,,,,,,,,,,,,,,,,,,,
,,,,,63,2020-07-04_17h35.41.976,retriever_ti,2020.1.3,Win32,60,Chrome,1536,864,2060.237855,16,left,1.06008,canary,1,2060.25399,2060.25399,2062.755595,0,7,7,7,1,5,3,1,html/resources/stimuli_practice_decision/02_canary.jpg,html/resources/stimuli_practice_decision/07_sock.jpg,canary,sock,,,,,,,,,,,,,,,,,,,,,,,,,,,,,,,,,,,,,,,,,,,,,,,,,,,,,,,,,,,,,,,,,,,,,,,,,,,,,
,,,,,63,2020-07-04_17h35.41.976,retriever_ti,2020.1.3,Win32,60,Chrome,1536,864,,,,,,,,,,,,,,,,,,,,,,down,1,1.94025,1,0,0,0,3,1,html/resources/sequences_IDs/triangle.png,star ↑,square →,triangle ↓,← circle,down,,,,,,,,,,,,,,,,,,,,,,,,,,,,,,,,,,,,,,,,,,,,,,,,,,,,,,,,,,,,,,
,,,,,63,2020-07-04_17h35.41.976,retriever_ti,2020.1.3,Win32,60,Chrome,1536,864,,,,,,,,,,,,,,,,,,,,,,up,1,0.99703,1,0,1,1,0,1,html/resources/sequences_IDs/circle.png,circle ↑,square →,triangle ↓,← star ,up,,,,,,,,,,,,,,,,,,,,,,,,,,,,,,,,,,,,,,,,,,,,,,,,,,,,,,,,,,,,,,
,,,,,63,2020-07-04_17h35.41.976,retriever_ti,2020.1.3,Win32,60,Chrome,1536,864,,,,,,,,,,,,,,,,,,,,,,down,1,1.0538,1,0,2,2,1,1,html/resources/sequences_IDs/star.png,square ↑,circle →,star ↓,← triangle,down,,,,,,,,,,,,,,,,,,,,,,,,,,,,,,,,,,,,,,,,,,,,,,,,,,,,,,,,,,,,,,
,,,,,63,2020-07-04_17h35.41.976,retriever_ti,2020.1.3,Win32,60,Chrome,1536,864,,,,,,,,,,,,,,,,,,,,,,left,1,1.2028,1,0,3,3,2,1,html/resources/sequences_IDs/square1.png,star ↑,triangle →,circle ↓,← square,left,,,,,,,,,,,,,,,,,,,,,,,,,,,,,,,,,,,,,,,,,,,,,,,,,,,,,,,,,,,,,,
,,,,,63,2020-07-04_17h35.41.976,retriever_ti,2020.1.3,Win32,60,Chrome,1536,864,,,,,,,,,,,,,,,,,,,,,,,,,,,,,,,,,,,,,0,2.055715,1,0,1,0,1,,,,,,,,,,,,,,,,,,,,,,,,,,,,,,,,,,,,,,,,,,,,,,,,,,,,,,,
,,,,,63,2020-07-04_17h35.41.976,retriever_ti,2020.1.3,Win32,60,Chrome,1536,864,,,,,,,,,,,,,,,,,1,,,,,,,,,,,,,,,,,,,,,,,,,,,2078.76637,1,right,1.37047,radio       ,5,10,-2,0,3,2078.816045,2078.816045,2081.317505,0,0,0,0,1,1,7,5,dolphin     ,radio       ,html/resources/sequences_IDs/B/02_dolphin.jpg,html/resources/sequences_IDs/B/10_radio.jpg,2,10,1,1,4,2,2,8,0,63,,,,,,,,,,,,,,,,,,,,
,,,,,63,2020-07-04_17h35.41.976,retriever_ti,2020.1.3,Win32,60,Chrome,1536,864,,,,,,,,,,,,,,,,,1,,,,,,,,,,,,,,,,,,,,,,,,,,,2081.934445,2,left,1.962545,radio       ,5,10,4,1,3,2081.967355,2081.967355,2084.46733,0,1,1,1,1,2,5,1,radio       ,slipper     ,html/resources/sequences_IDs/B/10_radio.jpg,html/resources/sequences_IDs/B/08_slipper.jpg,10,8,4,2,3,2,8,6,0,63,,,,,,,,,,,,,,,,,,,,
,,,,,63,2020-07-04_17h35.41.976,retriever_ti,2020.1.3,Win32,60,Chrome,1536,864,,,,,,,,,,,,,,,,,1,,,,,,,,,,,,,,,,,,,,,,,,,,,2085.068025,3,left,1.85407,calculator    ,2,9,1,1,1,2085.10251,2085.10251,2087.6024,0,2,2,2,1,3,2,1,calculator    ,slipper     ,html/resources/sequences_IDs/A/09_calculator.jpg,html/resources/sequences_IDs/B/08_slipper.jpg,9,8,4,2,3,2,7,6,0,63,,,,,,,,,,,,,,,,,,,,
,,,,,63,2020-07-04_17h35.41.976,retriever_ti,2020.1.3,Win32,60,Chrome,1536,864,,,,,,,,,,,,,,,,,1,,,,,,,,,,,,,,,,,,,,,,,,,,,2088.704115,4,right,1.738095,holdfast    ,3,4,-2,0,3,2088.72474,2088.72474,2091.22205,0,3,3,3,1,4,5,3,radio       ,holdfast    ,html/resources/sequences_IDs/B/10_radio.jpg,html/resources/sequences_IDs/B/04_holdfast.jpg,10,4,4,2,2,1,8,3,0,63,,,,,,,,,,,,,,,,,,,,
,,,,,63,2020-07-04_17h35.41.976,retriever_ti,2020.1.3,Win32,60,Chrome,1536,864,,,,,,,,,,,,,,,,,1,,,,,,,,,,,,,,,,,,,,,,,,,,,2091.83922,5,right,1.668025,scarf         ,6,6,1,1,1,2091.873245,2091.873245,2094.37248,0,4,4,4,1,5,5,6,radio       ,scarf         ,html/resources/sequences_IDs/B/10_radio.jpg,html/resources/sequences_IDs/A/06_scarf.jpg,10,6,4,2,3,2,8,5,0,63,,,,,,,,,,,,,,,,,,,,
,,,,,63,2020-07-04_17h35.41.976,retriever_ti,2020.1.3,Win32,60,Chrome,1536,864,,,,,,,,,,,,,,,,,1,,,,,,,,,,,,,,,,,,,,,,,,,,,2095.474015,6,right,1.581985,radio       ,5,10,-3,0,3,2095.50882,2095.50882,2098.007955,0,5,5,5,1,6,8,5,wolf          ,radio       ,html/resources/sequences_IDs/A/01_wolf.jpg,html/resources/sequences_IDs/B/10_radio.jpg,1,10,1,1,4,2,1,8,0,63,,,,,,,,,,,,,,,,,,,,
,,,,,63,2020-07-04_17h35.41.976,retriever_ti,2020.1.3,Win32,60,Chrome,1536,864,,,,,,,,,,,,,,,,,1,,,,,,,,,,,,,,,,,,,,,,,,,,,2098.60941,7,left,1.70393,peacock       ,4,5,-1,0,0,2098.64476,2098.64476,2101.143595,0,6,6,6,1,7,4,5,peacock       ,radio       ,html/resources/sequences_IDs/A/05_peacock.jpg,html/resources/sequences_IDs/B/10_radio.jpg,5,10,2,1,4,2,4,8,0,63,,,,,,,,,,,,,,,,,,,,
,,,,,63,2020-07-04_17h35.41.976,retriever_ti,2020.1.3,Win32,60,Chrome,1536,864,,,,,,,,,,,,,,,,,1,,,,,,,,,,,,,,,,,,,,,,,,,,,2102.244605,8,left,1.63765,wolf          ,8,1,1,1,1,2102.27875,2102.27875,2104.778885,0,7,7,7,1,8,8,7,wolf          ,dolphin     ,html/resources/sequences_IDs/A/01_wolf.jpg,html/resources/sequences_IDs/B/02_dolphin.jpg,1,2,1,1,1,1,1,2,0,63,,,,,,,,,,,,,,,,,,,,
,,,,,63,2020-07-04_17h35.41.976,retriever_ti,2020.1.3,Win32,60,Chrome,1536,864,,,,,,,,,,,,,,,,,1,,,,,,,,,,,,,,,,,,,,,,,,,,,2105.88051,9,NaN,NaN,No_response,NaN,NaN,NaN,2,2,2105.897555,2105.897555,2108.39908,0,8,8,8,1,9,7,3,dolphin     ,holdfast    ,html/resources/sequences_IDs/B/02_dolphin.jpg,html/resources/sequences_IDs/B/04_holdfast.jpg,2,4,1,1,2,1,2,3,0,63,,,,,,,,,,,,,,,,,,,,
,,,,,63,2020-07-04_17h35.41.976,retriever_ti,2020.1.3,Win32,60,Chrome,1536,864,,,,,,,,,,,,,,,,,1,,,,,,,,,,,,,,,,,,,,,,,,,,,2109.4989,10,left,0.90204,scarf         ,6,6,4,1,3,2109.5165,2109.5165,2112.017605,0,9,9,9,1,10,6,2,scarf         ,calculator    ,html/resources/sequences_IDs/A/06_scarf.jpg,html/resources/sequences_IDs/A/09_calculator.jpg,6,9,3,2,4,2,5,7,0,63,,,,,,,,,,,,,,,,,,,,
,,,,,63,2020-07-04_17h35.41.976,retriever_ti,2020.1.3,Win32,60,Chrome,1536,864,,,,,,,,,,,,,,,,,1,,,,,,,,,,,,,,,,,,,,,,,,,,,2112.634385,11,left,1.43115,scarf         ,6,6,3,1,3,2112.650915,2112.650915,2115.15147,0,10,10,10,1,11,6,3,scarf         ,holdfast    ,html/resources/sequences_IDs/A/06_scarf.jpg,html/resources/sequences_IDs/B/04_holdfast.jpg,6,4,3,2,2,1,5,3,0,63,,,,,,,,,,,,,,,,,,,,
,,,,,63,2020-07-04_17h35.41.976,retriever_ti,2020.1.3,Win32,60,Chrome,1536,864,,,,,,,,,,,,,,,,,1,,,,,,,,,,,,,,,,,,,,,,,,,,,2115.753095,12,left,1.296995,wolf          ,8,1,5,1,3,2115.76924,2115.76924,2118.270035,0,11,11,11,1,12,8,3,wolf          ,holdfast    ,html/resources/sequences_IDs/A/01_wolf.jpg,html/resources/sequences_IDs/B/04_holdfast.jpg,1,4,1,1,2,1,1,3,0,63,,,,,,,,,,,,,,,,,,,,
,,,,,63,2020-07-04_17h35.41.976,retriever_ti,2020.1.3,Win32,60,Chrome,1536,864,,,,,,,,,,,,,,,,,1,,,,,,,,,,,,,,,,,,,,,,,,,,,2118.870665,13,left,0.837,wolf          ,8,1,1,1,1,2118.88735,2118.88735,2121.38778,0,12,12,12,1,13,8,7,wolf          ,dolphin     ,html/resources/sequences_IDs/A/01_wolf.jpg,html/resources/sequences_IDs/B/02_dolphin.jpg,1,2,1,1,1,1,1,2,0,63,,,,,,,,,,,,,,,,,,,,
,,,,,63,2020-07-04_17h35.41.976,retriever_ti,2020.1.3,Win32,60,Chrome,1536,864,,,,,,,,,,,,,,,,,1,,,,,,,,,,,,,,,,,,,,,,,,,,,2122.49005,14,left,1.18001,calculator    ,2,9,-2,0,3,2122.52335,2122.52335,2125.010615,0,13,13,13,1,14,2,4,calculator    ,peacock       ,html/resources/sequences_IDs/A/09_calculator.jpg,html/resources/sequences_IDs/A/05_peacock.jpg,9,5,4,2,2,1,7,4,0,63,,,,,,,,,,,,,,,,,,,,
,,,,,63,2020-07-04_17h35.41.976,retriever_ti,2020.1.3,Win32,60,Chrome,1536,864,,,,,,,,,,,,,,,,,1,,,,,,,,,,,,,,,,,,,,,,,,,,,2125.62417,15,right,1.616735,dolphin     ,7,2,6,1,3,2125.657875,2125.657875,2128.158835,0,14,14,14,1,15,1,7,slipper     ,dolphin     ,html/resources/sequences_IDs/B/08_slipper.jpg,html/resources/sequences_IDs/B/02_dolphin.jpg,8,2,3,2,1,1,6,2,0,63,,,,,,,,,,,,,,,,,,,,
,,,,,63,2020-07-04_17h35.41.976,retriever_ti,2020.1.3,Win32,60,Chrome,1536,864,,,,,,,,,,,,,,,,,1,,,,,,,,,,,,,,,,,,,,,,,,,,,2128.760565,16,left,1.180275,radio       ,5,10,1,1,0,2128.793825,2128.793825,2131.29476,0,15,15,15,1,16,5,4,radio       ,peacock       ,html/resources/sequences_IDs/B/10_radio.jpg,html/resources/sequences_IDs/A/05_peacock.jpg,10,5,4,2,2,1,8,4,1,63,,,,,,,,,,,,,,,,,,,,
,,,,,63,2020-07-04_17h35.41.976,retriever_ti,2020.1.3,Win32,60,Chrome,1536,864,,,,,,,,,,,,,,,,,1,,,,,,,,,,,,,,,,,,,,,,,,,,,2132.39562,17,left,1.22052,dolphin     ,7,2,1,1,1,2132.429605,2132.429605,2134.93091,0,16,16,16,1,17,7,6,dolphin     ,scarf         ,html/resources/sequences_IDs/B/02_dolphin.jpg,html/resources/sequences_IDs/A/06_scarf.jpg,2,6,1,1,3,2,2,5,0,63,,,,,,,,,,,,,,,,,,,,
,,,,,63,2020-07-04_17h35.41.976,retriever_ti,2020.1.3,Win32,60,Chrome,1536,864,,,,,,,,,,,,,,,,,1,,,,,,,,,,,,,,,,,,,,,,,,,,,2136.030715,18,right,1.869865,dolphin     ,7,2,5,1,3,2136.064545,2136.064545,2138.5644,0,17,17,17,1,18,2,7,calculator    ,dolphin     ,html/resources/sequences_IDs/A/09_calculator.jpg,html/resources/sequences_IDs/B/02_dolphin.jpg,9,2,4,2,1,1,7,2,0,63,,,,,,,,,,,,,,,,,,,,
,,,,,63,2020-07-04_17h35.41.976,retriever_ti,2020.1.3,Win32,60,Chrome,1536,864,,,,,,,,,,,,,,,,,1,,,,,,,,,,,,,,,,,,,,,,,,,,,2139.165115,19,left,1.47796,holdfast    ,3,4,-4,0,3,2139.20112,2139.20112,2141.70028,0,18,18,18,1,19,3,7,holdfast    ,dolphin     ,html/resources/sequences_IDs/B/04_holdfast.jpg,html/resources/sequences_IDs/B/02_dolphin.jpg,4,2,2,1,1,1,3,2,0,63,,,,,,,,,,,,,,,,,,,,
,,,,,63,2020-07-04_17h35.41.976,retriever_ti,2020.1.3,Win32,60,Chrome,1536,864,,,,,,,,,,,,,,,,,1,,,,,,,,,,,,,,,,,,,,,,,,,,,2142.318235,20,left,0.895945,peacock       ,4,5,1,1,0,2142.334515,2142.334515,2144.835375,0,19,19,19,1,20,4,3,peacock       ,holdfast    ,html/resources/sequences_IDs/A/05_peacock.jpg,html/resources/sequences_IDs/B/04_holdfast.jpg,5,4,2,1,2,1,4,3,1,63,,,,,,,,,,,,,,,,,,,,
,,,,,63,2020-07-04_17h35.41.976,retriever_ti,2020.1.3,Win32,60,Chrome,1536,864,,,,,,,,,,,,,,,,,1,,,,,,,,,,,,,,,,,,,,,,,,,,,2145.93659,21,left,1.32914,scarf         ,6,6,5,1,3,2145.970955,2145.970955,2148.47052,0,20,20,20,1,21,6,1,scarf         ,slipper     ,html/resources/sequences_IDs/A/06_scarf.jpg,html/resources/sequences_IDs/B/08_slipper.jpg,6,8,3,2,3,2,5,6,0,63,,,,,,,,,,,,,,,,,,,,
,,,,,63,2020-07-04_17h35.41.976,retriever_ti,2020.1.3,Win32,60,Chrome,1536,864,,,,,,,,,,,,,,,,,1,,,,,,,,,,,,,,,,,,,,,,,,,,,2149.087995,22,right,0.691045,radio       ,5,10,-1,0,0,2149.12292,2149.12292,2151.621855,0,21,21,21,1,22,6,5,scarf         ,radio       ,html/resources/sequences_IDs/A/06_scarf.jpg,html/resources/sequences_IDs/B/10_radio.jpg,6,10,3,2,4,2,5,8,0,63,,,,,,,,,,,,,,,,,,,,
,,,,,63,2020-07-04_17h35.41.976,retriever_ti,2020.1.3,Win32,60,Chrome,1536,864,,,,,,,,,,,,,,,,,1,,,,,,,,,,,,,,,,,,,,,,,,,,,2152.724115,23,left,1.1114,dolphin     ,7,2,1,1,1,2152.75741,2152.75741,2155.257255,0,22,22,22,1,23,7,6,dolphin     ,scarf         ,html/resources/sequences_IDs/B/02_dolphin.jpg,html/resources/sequences_IDs/A/06_scarf.jpg,2,6,1,1,3,2,2,5,0,63,,,,,,,,,,,,,,,,,,,,
,,,,,63,2020-07-04_17h35.41.976,retriever_ti,2020.1.3,Win32,60,Chrome,1536,864,,,,,,,,,,,,,,,,,1,,,,,,,,,,,,,,,,,,,,,,,,,,,2156.35935,24,right,1.33325,wolf          ,8,1,1,1,0,2156.37626,2156.37626,2158.87705,0,23,23,23,1,24,7,8,dolphin     ,wolf          ,html/resources/sequences_IDs/B/02_dolphin.jpg,html/resources/sequences_IDs/A/01_wolf.jpg,2,1,1,1,1,1,2,1,1,63,,,,,,,,,,,,,,,,,,,,
,,,,,63,2020-07-04_17h35.41.976,retriever_ti,2020.1.3,Win32,60,Chrome,1536,864,,,,,,,,,,,,,,,,,1,,,,,,,,,,,,,,,,,,,,,,,,,,,2159.979555,25,right,1.479325,calculator    ,2,9,1,1,1,2159.995915,2159.995915,2162.495195,0,24,24,24,1,25,1,2,slipper     ,calculator    ,html/resources/sequences_IDs/B/08_slipper.jpg,html/resources/sequences_IDs/A/09_calculator.jpg,8,9,3,2,4,2,6,7,0,63,,,,,,,,,,,,,,,,,,,,
,,,,,63,2020-07-04_17h35.41.976,retriever_ti,2020.1.3,Win32,60,Chrome,1536,864,,,,,,,,,,,,,,,,,1,,,,,,,,,,,,,,,,,,,,,,,,,,,2163.596,26,left,1.009245,wolf          ,8,1,4,1,3,2163.630615,2163.630615,2166.1309,0,25,25,25,1,26,8,4,wolf          ,peacock       ,html/resources/sequences_IDs/A/01_wolf.jpg,html/resources/sequences_IDs/A/05_peacock.jpg,1,5,1,1,2,1,1,4,0,63,,,,,,,,,,,,,,,,,,,,
,,,,,63,2020-07-04_17h35.41.976,retriever_ti,2020.1.3,Win32,60,Chrome,1536,864,,,,,,,,,,,,,,,,,1,,,,,,,,,,,,,,,,,,,,,,,,,,,2166.733245,27,left,0.450075,wolf          ,8,1,6,1,3,2166.749,2166.749,2169.24954,0,26,26,26,1,27,8,2,wolf          ,calculator    ,html/resources/sequences_IDs/A/01_wolf.jpg,html/resources/sequences_IDs/A/09_calculator.jpg,1,9,1,1,4,2,1,7,0,63,,,,,,,,,,,,,,,,,,,,
,,,,,63,2020-07-04_17h35.41.976,retriever_ti,2020.1.3,Win32,60,Chrome,1536,864,,,,,,,,,,,,,,,,,1,,,,,,,,,,,,,,,,,,,,,,,,,,,2169.866615,28,left,1.56454,peacock       ,4,5,2,1,3,2169.900865,2169.900865,2172.401635,0,27,27,27,1,28,4,2,peacock       ,calculator    ,html/resources/sequences_IDs/A/05_peacock.jpg,html/resources/sequences_IDs/A/09_calculator.jpg,5,9,2,1,4,2,4,7,0,63,,,,,,,,,,,,,,,,,,,,
,,,,,63,2020-07-04_17h35.41.976,retriever_ti,2020.1.3,Win32,60,Chrome,1536,864,,,,,,,,,,,,,,,,,1,,,,,,,,,,,,,,,,,,,,,,,,,,,2173.01793,29,right,1.4961,scarf         ,6,6,3,1,3,2173.03576,2173.03576,2175.536575,0,28,28,28,1,29,3,6,holdfast    ,scarf         ,html/resources/sequences_IDs/B/04_holdfast.jpg,html/resources/sequences_IDs/A/06_scarf.jpg,4,6,2,1,3,2,3,5,0,63,,,,,,,,,,,,,,,,,,,,
,,,,,63,2020-07-04_17h35.41.976,retriever_ti,2020.1.3,Win32,60,Chrome,1536,864,,,,,,,,,,,,,,,,,1,,,,,,,,,,,,,,,,,,,,,,,,,,,2176.15367,30,left,1.137855,calculator    ,2,9,-1,0,0,2176.17169,2176.17169,2178.6716,0,29,29,29,1,30,2,3,calculator    ,holdfast    ,html/resources/sequences_IDs/A/09_calculator.jpg,html/resources/sequences_IDs/B/04_holdfast.jpg,9,4,4,2,2,1,7,3,0,63,,,,,,,,,,,,,,,,,,,,
,,,,,63,2020-07-04_17h35.41.976,retriever_ti,2020.1.3,Win32,60,Chrome,1536,864,,,,,,,,,,,,,,,,,1,,,,,,,,,,,,,,,,,,,,,,,,,,,2179.77223,31,right,1.18959,dolphin     ,7,2,3,1,3,2179.78936,2179.78936,2182.28952,0,30,30,30,1,31,4,7,peacock       ,dolphin     ,html/resources/sequences_IDs/A/05_peacock.jpg,html/resources/sequences_IDs/B/02_dolphin.jpg,5,2,2,1,1,1,4,2,0,63,,,,,,,,,,,,,,,,,,,,
,,,,,63,2020-07-04_17h35.41.976,retriever_ti,2020.1.3,Win32,60,Chrome,1536,864,,,,,,,,,,,,,,,,,1,,,,,,,,,,,,,,,,,,,,,,,,,,,2182.891505,32,left,1.34943,peacock       ,4,5,3,1,3,2182.92543,2182.92543,2185.425365,0,31,31,31,1,32,4,1,peacock       ,slipper     ,html/resources/sequences_IDs/A/05_peacock.jpg,html/resources/sequences_IDs/B/08_slipper.jpg,5,8,2,1,3,2,4,6,0,63,,,,,,,,,,,,,,,,,,,,
,,,,,63,2020-07-04_17h35.41.976,retriever_ti,2020.1.3,Win32,60,Chrome,1536,864,,,,,,,,,,,,,,,,,1,,,,,,,,,,,,,,,,,,,,,,,,,,,2186.042935,33,right,0.67418,scarf         ,6,6,4,1,3,2186.06036,2186.06036,2188.560335,0,32,32,32,1,33,2,6,calculator    ,scarf         ,html/resources/sequences_IDs/A/09_calculator.jpg,html/resources/sequences_IDs/A/06_scarf.jpg,9,6,4,2,3,2,7,5,0,63,,,,,,,,,,,,,,,,,,,,
,,,,,63,2020-07-04_17h35.41.976,retriever_ti,2020.1.3,Win32,60,Chrome,1536,864,,,,,,,,,,,,,,,,,1,,,,,,,,,,,,,,,,,,,,,,,,,,,2189.16143,34,left,0.63404,scarf         ,6,6,-2,0,3,2189.179185,2189.179185,2191.67868,0,33,33,33,1,34,6,8,scarf         ,wolf          ,html/resources/sequences_IDs/A/06_scarf.jpg,html/resources/sequences_IDs/A/01_wolf.jpg,6,1,3,2,1,1,5,1,0,63,,,,,,,,,,,,,,,,,,,,
,,,,,63,2020-07-04_17h35.41.976,retriever_ti,2020.1.3,Win32,60,Chrome,1536,864,,,,,,,,,,,,,,,,,1,,,,,,,,,,,,,,,,,,,,,,,,,,,2192.279825,35,right,0.737675,peacock       ,4,5,-1,0,0,2192.298015,2192.298015,2194.797915,0,34,34,34,1,35,5,4,radio       ,peacock       ,html/resources/sequences_IDs/B/10_radio.jpg,html/resources/sequences_IDs/A/05_peacock.jpg,10,5,4,2,2,1,8,4,0,63,,,,,,,,,,,,,,,,,,,,
,,,,,63,2020-07-04_17h35.41.976,retriever_ti,2020.1.3,Win32,60,Chrome,1536,864,,,,,,,,,,,,,,,,,1,,,,,,,,,,,,,,,,,,,,,,,,,,,2195.89852,36,right,0.999,holdfast    ,3,4,-1,0,0,2195.932475,2195.932475,2198.433255,0,35,35,35,1,36,4,3,peacock       ,holdfast    ,html/resources/sequences_IDs/A/05_peacock.jpg,html/resources/sequences_IDs/B/04_holdfast.jpg,5,4,2,1,2,1,4,3,0,63,,,,,,,,,,,,,,,,,,,,
,,,,,63,2020-07-04_17h35.41.976,retriever_ti,2020.1.3,Win32,60,Chrome,1536,864,,,,,,,,,,,,,,,,,1,,,,,,,,,,,,,,,,,,,,,,,,,,,2199.53323,37,right,0.7994,wolf          ,8,1,7,1,3,2199.569005,2199.569005,2202.06832,0,36,36,36,1,37,1,8,slipper     ,wolf          ,html/resources/sequences_IDs/B/08_slipper.jpg,html/resources/sequences_IDs/A/01_wolf.jpg,8,1,3,2,1,1,6,1,0,63,,,,,,,,,,,,,,,,,,,,
,,,,,63,2020-07-04_17h35.41.976,retriever_ti,2020.1.3,Win32,60,Chrome,1536,864,,,,,,,,,,,,,,,,,1,,,,,,,,,,,,,,,,,,,,,,,,,,,2202.686425,38,right,0.538065,radio       ,5,10,3,1,3,2202.719855,2202.719855,2205.219875,0,37,37,37,1,38,2,5,calculator    ,radio       ,html/resources/sequences_IDs/A/09_calculator.jpg,html/resources/sequences_IDs/B/10_radio.jpg,9,10,4,2,4,2,7,8,0,63,,,,,,,,,,,,,,,,,,,,
,,,,,63,2020-07-04_17h35.41.976,retriever_ti,2020.1.3,Win32,60,Chrome,1536,864,,,,,,,,,,,,,,,,,1,,,,,,,,,,,,,,,,,,,,,,,,,,,2205.822395,39,right,0.939055,scarf         ,6,6,2,1,3,2205.8377,2205.8377,2208.340275,0,38,38,38,1,39,4,6,peacock       ,scarf         ,html/resources/sequences_IDs/A/05_peacock.jpg,html/resources/sequences_IDs/A/06_scarf.jpg,5,6,2,1,3,2,4,5,0,63,,,,,,,,,,,,,,,,,,,,
,,,,,63,2020-07-04_17h35.41.976,retriever_ti,2020.1.3,Win32,60,Chrome,1536,864,,,,,,,,,,,,,,,,,1,,,,,,,,,,,,,,,,,,,,,,,,,,,2208.95625,40,left,1.134845,dolphin     ,7,2,-1,0,0,2208.98943,2208.98943,2211.49014,0,39,39,39,1,40,7,8,dolphin     ,wolf          ,html/resources/sequences_IDs/B/02_dolphin.jpg,html/resources/sequences_IDs/A/01_wolf.jpg,2,1,1,1,1,1,2,1,0,63,,,,,,,,,,,,,,,,,,,,
,,,,,63,2020-07-04_17h35.41.976,retriever_ti,2020.1.3,Win32,60,Chrome,1536,864,,,,,,,,,,,,,,,,,1,,,,,,,,,,,,,,,,,,,,,,,,,,,2212.59293,41,right,1.733125,radio       ,5,10,2,1,3,2212.608865,2212.608865,2215.10887,0,40,40,40,1,41,3,5,holdfast    ,radio       ,html/resources/sequences_IDs/B/04_holdfast.jpg,html/resources/sequences_IDs/B/10_radio.jpg,4,10,2,1,4,2,3,8,0,63,,,,,,,,,,,,,,,,,,,,
,,,,,63,2020-07-04_17h35.41.976,retriever_ti,2020.1.3,Win32,60,Chrome,1536,864,,,,,,,,,,,,,,,,,1,,,,,,,,,,,,,,,,,,,,,,,,,,,2215.72614,42,left,1.423355,calculator    ,2,9,1,1,1,2215.76079,2215.76079,2218.26045,0,41,41,41,1,42,2,1,calculator    ,slipper     ,html/resources/sequences_IDs/A/09_calculator.jpg,html/resources/sequences_IDs/B/08_slipper.jpg,9,8,4,2,3,2,7,6,0,63,,,,,,,,,,,,,,,,,,,,
,,,,,63,2020-07-04_17h35.41.976,retriever_ti,2020.1.3,Win32,60,Chrome,1536,864,,,,,,,,,,,,,,,,,1,,,,,,,,,,,,,,,,,,,,,,,,,,,2219.3619,43,right,1.791585,wolf          ,8,1,6,1,3,2219.39665,2219.39665,2221.895825,0,42,42,42,1,43,2,8,calculator    ,wolf          ,html/resources/sequences_IDs/A/09_calculator.jpg,html/resources/sequences_IDs/A/01_wolf.jpg,9,1,4,2,1,1,7,1,0,63,,,,,,,,,,,,,,,,,,,,
,,,,,63,2020-07-04_17h35.41.976,retriever_ti,2020.1.3,Win32,60,Chrome,1536,864,,,,,,,,,,,,,,,,,1,,,,,,,,,,,,,,,,,,,,,,,,,,,2222.49733,44,right,1.762805,dolphin     ,7,2,2,1,3,2222.534405,2222.534405,2225.030855,0,43,43,43,1,44,5,7,radio       ,dolphin     ,html/resources/sequences_IDs/B/10_radio.jpg,html/resources/sequences_IDs/B/02_dolphin.jpg,10,2,4,2,1,1,8,2,0,63,,,,,,,,,,,,,,,,,,,,
,,,,,63,2020-07-04_17h35.41.976,retriever_ti,2020.1.3,Win32,60,Chrome,1536,864,,,,,,,,,,,,,,,,,1,,,,,,,,,,,,,,,,,,,,,,,,,,,2225.6316,45,left,0.95918,scarf         ,6,6,-1,0,1,2225.649155,2225.649155,2228.150825,0,44,44,44,1,45,6,7,scarf         ,dolphin     ,html/resources/sequences_IDs/A/06_scarf.jpg,html/resources/sequences_IDs/B/02_dolphin.jpg,6,2,3,2,1,1,5,2,1,63,,,,,,,,,,,,,,,,,,,,
,,,,,63,2020-07-04_17h35.41.976,retriever_ti,2020.1.3,Win32,60,Chrome,1536,864,,,,,,,,,,,,,,,,,1,,,,,,,,,,,,,,,,,,,,,,,,,,,2229.252335,46,right,0.78595,slipper     ,1,8,-2,0,3,2229.287885,2229.287885,2231.784615,0,45,45,45,1,46,3,1,holdfast    ,slipper     ,html/resources/sequences_IDs/B/04_holdfast.jpg,html/resources/sequences_IDs/B/08_slipper.jpg,4,8,2,1,3,2,3,6,0,63,,,,,,,,,,,,,,,,,,,,
,,,,,63,2020-07-04_17h35.41.976,retriever_ti,2020.1.3,Win32,60,Chrome,1536,864,,,,,,,,,,,,,,,,,1,,,,,,,,,,,,,,,,,,,,,,,,,,,2232.38638,47,left,0.500485,holdfast    ,3,4,-1,0,0,2232.42007,2232.42007,2234.919765,0,46,46,46,1,47,3,4,holdfast    ,peacock       ,html/resources/sequences_IDs/B/04_holdfast.jpg,html/resources/sequences_IDs/A/05_peacock.jpg,4,5,2,1,2,1,3,4,0,63,,,,,,,,,,,,,,,,,,,,
,,,,,63,2020-07-04_17h35.41.976,retriever_ti,2020.1.3,Win32,60,Chrome,1536,864,,,,,,,,,,,,,,,,,1,,,,,,,,,,,,,,,,,,,,,,,,,,,2236.021815,48,left,0.51789,scarf         ,6,6,-1,0,0,2236.055495,2236.055495,2238.5558,0,47,47,47,1,48,6,7,scarf         ,dolphin     ,html/resources/sequences_IDs/A/06_scarf.jpg,html/resources/sequences_IDs/B/02_dolphin.jpg,6,2,3,2,1,1,5,2,0,63,,,,,,,,,,,,,,,,,,,,
,,,,,63,2020-07-04_17h35.41.976,retriever_ti,2020.1.3,Win32,60,Chrome,1536,864,,,,,,,,,,,,,,,,,1,,,,,,,,,,,,,,,,,,,,,,,,,,,2239.65794,49,right,0.769465,holdfast    ,3,4,-1,0,0,2239.674475,2239.674475,2242.174045,0,48,48,48,1,49,4,3,peacock       ,holdfast    ,html/resources/sequences_IDs/A/05_peacock.jpg,html/resources/sequences_IDs/B/04_holdfast.jpg,5,4,2,1,2,1,4,3,0,63,,,,,,,,,,,,,,,,,,,,
,,,,,63,2020-07-04_17h35.41.976,retriever_ti,2020.1.3,Win32,60,Chrome,1536,864,,,,,,,,,,,,,,,,,1,,,,,,,,,,,,,,,,,,,,,,,,,,,2243.275695,50,left,0.30617,radio       ,5,10,-1,0,1,2243.31092,2243.31092,2245.810035,0,49,49,49,1,50,5,6,radio       ,scarf         ,html/resources/sequences_IDs/B/10_radio.jpg,html/resources/sequences_IDs/A/06_scarf.jpg,10,6,4,2,3,2,8,5,1,63,,,,,,,,,,,,,,,,,,,,
,,,,,63,2020-07-04_17h35.41.976,retriever_ti,2020.1.3,Win32,60,Chrome,1536,864,,,,,,,,,,,,,,,,,1,,,,,,,,,,,,,,,,,,,,,,,,,,,2246.911085,51,left,0.35875,radio       ,5,10,1,1,1,2246.945385,2246.945385,2249.44571,0,50,50,50,1,51,5,4,radio       ,peacock       ,html/resources/sequences_IDs/B/10_radio.jpg,html/resources/sequences_IDs/A/05_peacock.jpg,10,5,4,2,2,1,8,4,0,63,,,,,,,,,,,,,,,,,,,,
,,,,,63,2020-07-04_17h35.41.976,retriever_ti,2020.1.3,Win32,60,Chrome,1536,864,,,,,,,,,,,,,,,,,1,,,,,,,,,,,,,,,,,,,,,,,,,,,2250.54717,52,right,0.60641,calculator    ,2,9,-1,0,0,2250.56381,2250.56381,2253.0646,0,51,51,51,1,52,3,2,holdfast    ,calculator    ,html/resources/sequences_IDs/B/04_holdfast.jpg,html/resources/sequences_IDs/A/09_calculator.jpg,4,9,2,1,4,2,3,7,0,63,,,,,,,,,,,,,,,,,,,,
,,,,,63,2020-07-04_17h35.41.976,retriever_ti,2020.1.3,Win32,60,Chrome,1536,864,,,,,,,,,,,,,,,,,1,,,,,,,,,,,,,,,,,,,,,,,,,,,2254.165315,53,left,0.460845,dolphin     ,7,2,5,1,3,2254.18278,2254.18278,2256.699875,0,52,52,52,1,53,7,2,dolphin     ,calculator    ,html/resources/sequences_IDs/B/02_dolphin.jpg,html/resources/sequences_IDs/A/09_calculator.jpg,2,9,1,1,4,2,2,7,0,63,,,,,,,,,,,,,,,,,,,,
,,,,,63,2020-07-04_17h35.41.976,retriever_ti,2020.1.3,Win32,60,Chrome,1536,864,,,,,,,,,,,,,,,,,1,,,,,,,,,,,,,,,,,,,,,,,,,,,2257.316865,54,left,0.441355,scarf         ,6,6,-1,0,0,2257.351135,2257.351135,2259.851575,0,53,53,53,1,54,6,7,scarf         ,dolphin     ,html/resources/sequences_IDs/A/06_scarf.jpg,html/resources/sequences_IDs/B/02_dolphin.jpg,6,2,3,2,1,1,5,2,0,63,,,,,,,,,,,,,,,,,,,,
,,,,,63,2020-07-04_17h35.41.976,retriever_ti,2020.1.3,Win32,60,Chrome,1536,864,,,,,,,,,,,,,,,,,1,,,,,,,,,,,,,,,,,,,,,,,,,,,2260.952925,55,right,0.41361,calculator    ,2,9,-3,0,3,2260.986965,2260.986965,2263.48612,0,54,54,54,1,55,5,2,radio       ,calculator    ,html/resources/sequences_IDs/B/10_radio.jpg,html/resources/sequences_IDs/A/09_calculator.jpg,10,9,4,2,4,2,8,7,0,63,,,,,,,,,,,,,,,,,,,,
,,,,,63,2020-07-04_17h35.41.976,retriever_ti,2020.1.3,Win32,60,Chrome,1536,864,,,,,,,,,,,,,,,,,1,,,,,,,,,,,,,,,,,,,,,,,,,,,2264.08772,56,left,0.48666,scarf         ,6,6,1,1,1,2264.121705,2264.121705,2266.62159,0,55,55,55,1,56,6,5,scarf         ,radio       ,html/resources/sequences_IDs/A/06_scarf.jpg,html/resources/sequences_IDs/B/10_radio.jpg,6,10,3,2,4,2,5,8,0,63,,,,,,,,,,,,,,,,,,,,
,,,,,63,2020-07-04_17h35.41.976,retriever_ti,2020.1.3,Win32,60,Chrome,1536,864,,,,,,,,,,,,,,,,,1,,,,,,,,,,,,,,,,,,,,,,,,,,,2267.722405,57,left,0.405065,wolf          ,8,1,2,1,3,2267.74066,2267.74066,2270.241285,0,56,56,56,1,57,8,6,wolf          ,scarf         ,html/resources/sequences_IDs/A/01_wolf.jpg,html/resources/sequences_IDs/A/06_scarf.jpg,1,6,1,1,3,2,1,5,0,63,,,,,,,,,,,,,,,,,,,,
,,,,,63,2020-07-04_17h35.41.976,retriever_ti,2020.1.3,Win32,60,Chrome,1536,864,,,,,,,,,,,,,,,,,1,,,,,,,,,,,,,,,,,,,,,,,,,,,2270.8434,58,left,0.376625,dolphin     ,7,2,3,1,3,2270.876305,2270.876305,2273.3752,0,57,57,57,1,58,7,4,dolphin     ,peacock       ,html/resources/sequences_IDs/B/02_dolphin.jpg,html/resources/sequences_IDs/A/05_peacock.jpg,2,5,1,1,2,1,2,4,0,63,,,,,,,,,,,,,,,,,,,,
,,,,,63,2020-07-04_17h35.41.976,retriever_ti,2020.1.3,Win32,60,Chrome,1536,864,,,,,,,,,,,,,,,,,1,,,,,,,,,,,,,,,,,,,,,,,,,,,2273.97853,59,left,0.500855,slipper     ,1,8,-1,0,0,2274.010805,2274.010805,2276.510595,0,58,58,58,1,59,1,2,slipper     ,calculator    ,html/resources/sequences_IDs/B/08_slipper.jpg,html/resources/sequences_IDs/A/09_calculator.jpg,8,9,3,2,4,2,6,7,0,63,,,,,,,,,,,,,,,,,,,,
,,,,,63,2020-07-04_17h35.41.976,retriever_ti,2020.1.3,Win32,60,Chrome,1536,864,,,,,,,,,,,,,,,,,1,,,,,,,,,,,,,,,,,,,,,,,,,,,2277.612685,60,right,0.546505,holdfast    ,3,4,1,1,1,2277.646575,2277.646575,2280.147565,0,59,59,59,1,60,2,3,calculator    ,holdfast    ,html/resources/sequences_IDs/A/09_calculator.jpg,html/resources/sequences_IDs/B/04_holdfast.jpg,9,4,4,2,2,1,7,3,0,63,,,,,,,,,,,,,,,,,,,,
,,,,,63,2020-07-04_17h35.41.976,retriever_ti,2020.1.3,Win32,60,Chrome,1536,864,,,,,,,,,,,,,,,,,1,,,,,,,,,,,,,,,,,,,,,,,,,,,2281.247885,61,right,0.46954,radio       ,5,10,1,1,1,2281.26478,2281.26478,2283.764725,0,60,60,60,1,61,4,5,peacock       ,radio       ,html/resources/sequences_IDs/A/05_peacock.jpg,html/resources/sequences_IDs/B/10_radio.jpg,5,10,2,1,4,2,4,8,0,63,,,,,,,,,,,,,,,,,,,,
,,,,,63,2020-07-04_17h35.41.976,retriever_ti,2020.1.3,Win32,60,Chrome,1536,864,,,,,,,,,,,,,,,,,1,,,,,,,,,,,,,,,,,,,,,,,,,,,2284.866785,62,left,1.02397,wolf          ,8,1,7,1,3,2284.90026,2284.90026,2287.400875,0,61,61,61,1,62,8,1,wolf          ,slipper     ,html/resources/sequences_IDs/A/01_wolf.jpg,html/resources/sequences_IDs/B/08_slipper.jpg,1,8,1,1,3,2,1,6,0,63,,,,,,,,,,,,,,,,,,,,
,,,,,63,2020-07-04_17h35.41.976,retriever_ti,2020.1.3,Win32,60,Chrome,1536,864,,,,,,,,,,,,,,,,,1,,,,,,,,,,,,,,,,,,,,,,,,,,,2288.01841,63,left,0.357005,scarf         ,6,6,2,1,3,2288.051995,2288.051995,2290.553585,0,62,62,62,1,63,6,4,scarf         ,peacock       ,html/resources/sequences_IDs/A/06_scarf.jpg,html/resources/sequences_IDs/A/05_peacock.jpg,6,5,3,2,2,1,5,4,0,63,,,,,,,,,,,,,,,,,,,,
,,,,,63,2020-07-04_17h35.41.976,retriever_ti,2020.1.3,Win32,60,Chrome,1536,864,,,,,,,,,,,,,,,,,1,,,,,,,,,,,,,,,,,,,,,,,,,,,2291.16953,64,right,0.44163,wolf          ,8,1,1,1,1,2291.187305,2291.187305,2293.687785,0,63,63,63,1,64,7,8,dolphin     ,wolf          ,html/resources/sequences_IDs/B/02_dolphin.jpg,html/resources/sequences_IDs/A/01_wolf.jpg,2,1,1,1,1,1,2,1,0,63,,,,,,,,,,,,,,,,,,,,
,,,,,63,2020-07-04_17h35.41.976,retriever_ti,2020.1.3,Win32,60,Chrome,1536,864,,,,,,,,,,,,,,,,,1,,,,,,,,,,,,,,,,,,,,,,,,,,,2294.78904,65,right,0.35257,radio       ,5,10,4,1,3,2294.822325,2294.822325,2297.32322,0,64,64,64,1,65,1,5,slipper     ,radio       ,html/resources/sequences_IDs/B/08_slipper.jpg,html/resources/sequences_IDs/B/10_radio.jpg,8,10,3,2,4,2,6,8,0,63,,,,,,,,,,,,,,,,,,,,
,,,,,63,2020-07-04_17h35.41.976,retriever_ti,2020.1.3,Win32,60,Chrome,1536,864,,,,,,,,,,,,,,,,,1,,,,,,,,,,,,,,,,,,,,,,,,,,,2297.940465,66,right,0.450505,slipper     ,1,8,-6,0,3,2297.9744,2297.9744,2300.47512,0,65,65,65,1,66,7,1,dolphin     ,slipper     ,html/resources/sequences_IDs/B/02_dolphin.jpg,html/resources/sequences_IDs/B/08_slipper.jpg,2,8,1,1,3,2,2,6,0,63,,,,,,,,,,,,,,,,,,,,
,,,,,63,2020-07-04_17h35.41.976,retriever_ti,2020.1.3,Win32,60,Chrome,1536,864,,,,,,,,,,,,,,,,,1,,,,,,,,,,,,,,,,,,,,,,,,,,,2301.09195,67,left,0.980575,calculator    ,2,9,-1,0,1,2301.109415,2301.109415,2303.61086,0,66,66,66,1,67,2,3,calculator    ,holdfast    ,html/resources/sequences_IDs/A/09_calculator.jpg,html/resources/sequences_IDs/B/04_holdfast.jpg,9,4,4,2,2,1,7,3,1,63,,,,,,,,,,,,,,,,,,,,
,,,,,63,2020-07-04_17h35.41.976,retriever_ti,2020.1.3,Win32,60,Chrome,1536,864,,,,,,,,,,,,,,,,,1,,,,,,,,,,,,,,,,,,,,,,,,,,,2304.71146,68,right,1.205915,scarf         ,6,6,5,1,3,2304.729355,2304.729355,2307.22838,0,67,67,67,1,68,1,6,slipper     ,scarf         ,html/resources/sequences_IDs/B/08_slipper.jpg,html/resources/sequences_IDs/A/06_scarf.jpg,8,6,3,2,3,2,6,5,0,63,,,,,,,,,,,,,,,,,,,,
,,,,,63,2020-07-04_17h35.41.976,retriever_ti,2020.1.3,Win32,60,Chrome,1536,864,,,,,,,,,,,,,,,,,1,,,,,,,,,,,,,,,,,,,,,,,,,,,2307.82947,69,left,0.6029,calculator    ,2,9,1,1,0,2307.84758,2307.84758,2310.34683,0,68,68,68,1,69,2,1,calculator    ,slipper     ,html/resources/sequences_IDs/A/09_calculator.jpg,html/resources/sequences_IDs/B/08_slipper.jpg,9,8,4,2,3,2,7,6,1,63,,,,,,,,,,,,,,,,,,,,
,,,,,63,2020-07-04_17h35.41.976,retriever_ti,2020.1.3,Win32,60,Chrome,1536,864,,,,,,,,,,,,,,,,,1,,,,,,,,,,,,,,,,,,,,,,,,,,,2311.44867,70,right,0.639855,wolf          ,8,1,4,1,3,2311.482615,2311.482615,2313.98371,0,69,69,69,1,70,4,8,peacock       ,wolf          ,html/resources/sequences_IDs/A/05_peacock.jpg,html/resources/sequences_IDs/A/01_wolf.jpg,5,1,2,1,1,1,4,1,0,63,,,,,,,,,,,,,,,,,,,,
,,,,,63,2020-07-04_17h35.41.976,retriever_ti,2020.1.3,Win32,60,Chrome,1536,864,,,,,,,,,,,,,,,,,1,,,,,,,,,,,,,,,,,,,,,,,,,,,2314.6004,71,right,1.2246,wolf          ,8,1,5,1,3,2314.61662,2314.61662,2317.117685,0,70,70,70,1,71,3,8,holdfast    ,wolf          ,html/resources/sequences_IDs/B/04_holdfast.jpg,html/resources/sequences_IDs/A/01_wolf.jpg,4,1,2,1,1,1,3,1,0,63,,,,,,,,,,,,,,,,,,,,
,,,,,63,2020-07-04_17h35.41.976,retriever_ti,2020.1.3,Win32,60,Chrome,1536,864,,,,,,,,,,,,,,,,,1,,,,,,,,,,,,,,,,,,,,,,,,,,,2317.73582,72,right,0.42663,scarf         ,6,6,1,1,1,2317.753305,2317.753305,2320.252175,0,71,71,71,1,72,5,6,radio       ,scarf         ,html/resources/sequences_IDs/B/10_radio.jpg,html/resources/sequences_IDs/A/06_scarf.jpg,10,6,4,2,3,2,8,5,0,63,,,,,,,,,,,,,,,,,,,,
,,,,,63,2020-07-04_17h35.41.976,retriever_ti,2020.1.3,Win32,60,Chrome,1536,864,,,,,,,,,,,,,,,,,1,,,,,,,,,,,,,,,,,,,,,,,,,,,2321.35503,73,right,1.766545,peacock       ,4,5,3,1,3,2321.388405,2321.388405,2323.88769,0,72,72,72,1,73,1,4,slipper     ,peacock       ,html/resources/sequences_IDs/B/08_slipper.jpg,html/resources/sequences_IDs/A/05_peacock.jpg,8,5,3,2,2,1,6,4,0,63,,,,,,,,,,,,,,,,,,,,
,,,,,63,2020-07-04_17h35.41.976,retriever_ti,2020.1.3,Win32,60,Chrome,1536,864,,,,,,,,,,,,,,,,,1,,,,,,,,,,,,,,,,,,,,,,,,,,,2324.48951,74,right,1.241105,wolf          ,8,1,3,1,3,2324.523175,2324.523175,2327.023005,0,73,73,73,1,74,5,8,radio       ,wolf          ,html/resources/sequences_IDs/B/10_radio.jpg,html/resources/sequences_IDs/A/01_wolf.jpg,10,1,4,2,1,1,8,1,0,63,,,,,,,,,,,,,,,,,,,,
,,,,,63,2020-07-04_17h35.41.976,retriever_ti,2020.1.3,Win32,60,Chrome,1536,864,,,,,,,,,,,,,,,,,1,,,,,,,,,,,,,,,,,,,,,,,,,,,2327.624625,75,left,1.13096,slipper     ,1,8,-2,0,3,2327.64271,2327.64271,2330.141575,0,74,74,74,1,75,1,3,slipper     ,holdfast    ,html/resources/sequences_IDs/B/08_slipper.jpg,html/resources/sequences_IDs/B/04_holdfast.jpg,8,4,3,2,2,1,6,3,0,63,,,,,,,,,,,,,,,,,,,,
,,,,,63,2020-07-04_17h35.41.976,retriever_ti,2020.1.3,Win32,60,Chrome,1536,864,,,,,,,,,,,,,,,,,1,,,,,,,,,,,,,,,,,,,,,,,,,,,2330.74319,76,right,0.59014,peacock       ,4,5,1,1,1,2330.77775,2330.77775,2333.276285,0,75,75,75,1,76,3,4,holdfast    ,peacock       ,html/resources/sequences_IDs/B/04_holdfast.jpg,html/resources/sequences_IDs/A/05_peacock.jpg,4,5,2,1,2,1,3,4,0,63,,,,,,,,,,,,,,,,,,,,
,,,,,63,2020-07-04_17h35.41.976,retriever_ti,2020.1.3,Win32,60,Chrome,1536,864,,,,,,,,,,,,,,,,,1,,,,,,,,,,,,,,,,,,,,,,,,,,,2334.37838,77,left,0.7442,holdfast    ,3,4,1,1,1,2334.41169,2334.41169,2336.911695,0,76,76,76,1,77,3,2,holdfast    ,calculator    ,html/resources/sequences_IDs/B/04_holdfast.jpg,html/resources/sequences_IDs/A/09_calculator.jpg,4,9,2,1,4,2,3,7,0,63,,,,,,,,,,,,,,,,,,,,
,,,,,63,2020-07-04_17h35.41.976,retriever_ti,2020.1.3,Win32,60,Chrome,1536,864,,,,,,,,,,,,,,,,,,,,,,,,,,,,,,,,,,,,,0,3.16523,,,,,,,,,,,,,,,,,,,,,,,,,,,,,,,,,,,,,,,,,0,0,0,0,1,,,,,,,,,,,,,,,
,,,,,63,2020-07-04_17h35.41.976,retriever_ti,2020.1.3,Win32,60,Chrome,1536,864,,,,,,,,,,,,,,,,,2,,,,,,,,,,,,,,,,,,,,,,,,,,,2364.09235,78,left,0.880905,wolf          ,8,1,1,1,1,2364.11725,2364.11725,2366.612945,0,0,0,0,1,78,8,7,wolf          ,dolphin     ,html/resources/sequences_IDs/A/01_wolf.jpg,html/resources/sequences_IDs/B/02_dolphin.jpg,1,2,1,1,1,1,1,2,0,63,,,,,,,,,,,,,,,,,,,,
,,,,,63,2020-07-04_17h35.41.976,retriever_ti,2020.1.3,Win32,60,Chrome,1536,864,,,,,,,,,,,,,,,,,2,,,,,,,,,,,,,,,,,,,,,,,,,,,2367.713235,79,right,1.67532,scarf         ,6,6,3,1,3,2367.748005,2367.748005,2370.248975,0,1,1,1,1,79,3,6,holdfast    ,scarf         ,html/resources/sequences_IDs/B/04_holdfast.jpg,html/resources/sequences_IDs/A/06_scarf.jpg,4,6,2,1,3,2,3,5,0,63,,,,,,,,,,,,,,,,,,,,
,,,,,63,2020-07-04_17h35.41.976,retriever_ti,2020.1.3,Win32,60,Chrome,1536,864,,,,,,,,,,,,,,,,,2,,,,,,,,,,,,,,,,,,,,,,,,,,,2370.86657,80,left,2.29195,calculator    ,2,9,-4,0,3,2370.88286,2370.88286,2373.38353,0,2,2,2,1,80,2,6,calculator    ,scarf         ,html/resources/sequences_IDs/A/09_calculator.jpg,html/resources/sequences_IDs/A/06_scarf.jpg,9,6,4,2,3,2,7,5,0,63,,,,,,,,,,,,,,,,,,,,
,,,,,63,2020-07-04_17h35.41.976,retriever_ti,2020.1.3,Win32,60,Chrome,1536,864,,,,,,,,,,,,,,,,,2,,,,,,,,,,,,,,,,,,,,,,,,,,,2373.98556,81,right,1.44006,slipper     ,1,8,-5,0,3,2374.018475,2374.018475,2376.51818,0,3,3,3,1,81,6,1,scarf         ,slipper     ,html/resources/sequences_IDs/A/06_scarf.jpg,html/resources/sequences_IDs/B/08_slipper.jpg,6,8,3,2,3,2,5,6,0,63,,,,,,,,,,,,,,,,,,,,
,,,,,63,2020-07-04_17h35.41.976,retriever_ti,2020.1.3,Win32,60,Chrome,1536,864,,,,,,,,,,,,,,,,,2,,,,,,,,,,,,,,,,,,,,,,,,,,,2377.119035,82,left,1.98917,slipper     ,1,8,-1,0,0,2377.15339,2377.15339,2379.65344,0,4,4,4,1,82,1,2,slipper     ,calculator    ,html/resources/sequences_IDs/B/08_slipper.jpg,html/resources/sequences_IDs/A/09_calculator.jpg,8,9,3,2,4,2,6,7,0,63,,,,,,,,,,,,,,,,,,,,
,,,,,63,2020-07-04_17h35.41.976,retriever_ti,2020.1.3,Win32,60,Chrome,1536,864,,,,,,,,,,,,,,,,,2,,,,,,,,,,,,,,,,,,,,,,,,,,,2380.756025,83,left,0.77228,scarf         ,6,6,-1,0,0,2380.772735,2380.772735,2383.27233,0,5,5,5,1,83,6,7,scarf         ,dolphin     ,html/resources/sequences_IDs/A/06_scarf.jpg,html/resources/sequences_IDs/B/02_dolphin.jpg,6,2,3,2,1,1,5,2,0,63,,,,,,,,,,,,,,,,,,,,
,,,,,63,2020-07-04_17h35.41.976,retriever_ti,2020.1.3,Win32,60,Chrome,1536,864,,,,,,,,,,,,,,,,,2,,,,,,,,,,,,,,,,,,,,,,,,,,,2384.37403,84,right,1.4518,calculator    ,2,9,1,1,1,2384.40729,2384.40729,2386.908095,0,6,6,6,1,84,1,2,slipper     ,calculator    ,html/resources/sequences_IDs/B/08_slipper.jpg,html/resources/sequences_IDs/A/09_calculator.jpg,8,9,3,2,4,2,6,7,0,63,,,,,,,,,,,,,,,,,,,,
,,,,,63,2020-07-04_17h35.41.976,retriever_ti,2020.1.3,Win32,60,Chrome,1536,864,,,,,,,,,,,,,,,,,2,,,,,,,,,,,,,,,,,,,,,,,,,,,2388.009055,85,left,1.04848,wolf          ,8,1,6,1,3,2388.026425,2388.026425,2390.52632,0,7,7,7,1,85,8,2,wolf          ,calculator    ,html/resources/sequences_IDs/A/01_wolf.jpg,html/resources/sequences_IDs/A/09_calculator.jpg,1,9,1,1,4,2,1,7,0,63,,,,,,,,,,,,,,,,,,,,
,,,,,63,2020-07-04_17h35.41.976,retriever_ti,2020.1.3,Win32,60,Chrome,1536,864,,,,,,,,,,,,,,,,,2,,,,,,,,,,,,,,,,,,,,,,,,,,,2391.143955,86,right,1.090605,dolphin     ,7,2,1,1,0,2391.17869,2391.17869,2393.68202,0,8,8,8,1,86,6,7,scarf         ,dolphin     ,html/resources/sequences_IDs/A/06_scarf.jpg,html/resources/sequences_IDs/B/02_dolphin.jpg,6,2,3,2,1,1,5,2,1,63,,,,,,,,,,,,,,,,,,,,
,,,,,63,2020-07-04_17h35.41.976,retriever_ti,2020.1.3,Win32,60,Chrome,1536,864,,,,,,,,,,,,,,,,,2,,,,,,,,,,,,,,,,,,,,,,,,,,,2394.797315,87,left,1.14526,slipper     ,1,8,-7,0,3,2394.813775,2394.813775,2397.313505,0,9,9,9,1,87,1,8,slipper     ,wolf          ,html/resources/sequences_IDs/B/08_slipper.jpg,html/resources/sequences_IDs/A/01_wolf.jpg,8,1,3,2,1,1,6,1,0,63,,,,,,,,,,,,,,,,,,,,
,,,,,63,2020-07-04_17h35.41.976,retriever_ti,2020.1.3,Win32,60,Chrome,1536,864,,,,,,,,,,,,,,,,,2,,,,,,,,,,,,,,,,,,,,,,,,,,,2397.91504,88,right,0.81009,scarf         ,6,6,1,1,1,2397.932215,2397.932215,2400.432815,0,10,10,10,1,88,5,6,radio       ,scarf         ,html/resources/sequences_IDs/B/10_radio.jpg,html/resources/sequences_IDs/A/06_scarf.jpg,10,6,4,2,3,2,8,5,0,63,,,,,,,,,,,,,,,,,,,,
,,,,,63,2020-07-04_17h35.41.976,retriever_ti,2020.1.3,Win32,60,Chrome,1536,864,,,,,,,,,,,,,,,,,2,,,,,,,,,,,,,,,,,,,,,,,,,,,2401.5333,89,right,1.330725,peacock       ,4,5,-1,0,0,2401.56761,2401.56761,2404.067075,0,11,11,11,1,89,5,4,radio       ,peacock       ,html/resources/sequences_IDs/B/10_radio.jpg,html/resources/sequences_IDs/A/05_peacock.jpg,10,5,4,2,2,1,8,4,0,63,,,,,,,,,,,,,,,,,,,,
,,,,,63,2020-07-04_17h35.41.976,retriever_ti,2020.1.3,Win32,60,Chrome,1536,864,,,,,,,,,,,,,,,,,2,,,,,,,,,,,,,,,,,,,,,,,,,,,2405.168645,90,left,1.091055,wolf          ,8,1,7,1,3,2405.18556,2405.18556,2407.6858,0,12,12,12,1,90,8,1,wolf          ,slipper     ,html/resources/sequences_IDs/A/01_wolf.jpg,html/resources/sequences_IDs/B/08_slipper.jpg,1,8,1,1,3,2,1,6,0,63,,,,,,,,,,,,,,,,,,,,
,,,,,63,2020-07-04_17h35.41.976,retriever_ti,2020.1.3,Win32,60,Chrome,1536,864,,,,,,,,,,,,,,,,,2,,,,,,,,,,,,,,,,,,,,,,,,,,,2408.287375,91,left,1.0699,peacock       ,4,5,1,1,1,2408.30445,2408.30445,2410.804975,0,13,13,13,1,91,4,3,peacock       ,holdfast    ,html/resources/sequences_IDs/A/05_peacock.jpg,html/resources/sequences_IDs/B/04_holdfast.jpg,5,4,2,1,2,1,4,3,0,63,,,,,,,,,,,,,,,,,,,,
,,,,,63,2020-07-04_17h35.41.976,retriever_ti,2020.1.3,Win32,60,Chrome,1536,864,,,,,,,,,,,,,,,,,2,,,,,,,,,,,,,,,,,,,,,,,,,,,2411.906495,92,left,0.956815,scarf         ,6,6,3,1,3,2411.9398,2411.9398,2414.430955,0,14,14,14,1,92,6,3,scarf         ,holdfast    ,html/resources/sequences_IDs/A/06_scarf.jpg,html/resources/sequences_IDs/B/04_holdfast.jpg,6,4,3,2,2,1,5,3,0,63,,,,,,,,,,,,,,,,,,,,
,,,,,63,2020-07-04_17h35.41.976,retriever_ti,2020.1.3,Win32,60,Chrome,1536,864,,,,,,,,,,,,,,,,,2,,,,,,,,,,,,,,,,,,,,,,,,,,,2415.04055,93,left,1.091865,scarf         ,6,6,4,1,3,2415.058705,2415.058705,2417.558615,0,15,15,15,1,93,6,2,scarf         ,calculator    ,html/resources/sequences_IDs/A/06_scarf.jpg,html/resources/sequences_IDs/A/09_calculator.jpg,6,9,3,2,4,2,5,7,0,63,,,,,,,,,,,,,,,,,,,,
,,,,,63,2020-07-04_17h35.41.976,retriever_ti,2020.1.3,Win32,60,Chrome,1536,864,,,,,,,,,,,,,,,,,2,,,,,,,,,,,,,,,,,,,,,,,,,,,2418.16014,94,right,0.824435,wolf          ,8,1,1,1,1,2418.177625,2418.177625,2420.676715,0,16,16,16,1,94,7,8,dolphin     ,wolf          ,html/resources/sequences_IDs/B/02_dolphin.jpg,html/resources/sequences_IDs/A/01_wolf.jpg,2,1,1,1,1,1,2,1,0,63,,,,,,,,,,,,,,,,,,,,
,,,,,63,2020-07-04_17h35.41.976,retriever_ti,2020.1.3,Win32,60,Chrome,1536,864,,,,,,,,,,,,,,,,,2,,,,,,,,,,,,,,,,,,,,,,,,,,,2421.778115,95,left,0.898955,scarf         ,6,6,1,1,1,2421.811795,2421.811795,2424.31238,0,17,17,17,1,95,6,5,scarf         ,radio       ,html/resources/sequences_IDs/A/06_scarf.jpg,html/resources/sequences_IDs/B/10_radio.jpg,6,10,3,2,4,2,5,8,0,63,,,,,,,,,,,,,,,,,,,,
,,,,,63,2020-07-04_17h35.41.976,retriever_ti,2020.1.3,Win32,60,Chrome,1536,864,,,,,,,,,,,,,,,,,2,,,,,,,,,,,,,,,,,,,,,,,,,,,2425.4149,96,left,1.164055,calculator    ,2,9,-2,0,3,2425.44829,2425.44829,2427.94857,0,18,18,18,1,96,2,4,calculator    ,peacock       ,html/resources/sequences_IDs/A/09_calculator.jpg,html/resources/sequences_IDs/A/05_peacock.jpg,9,5,4,2,2,1,7,4,0,63,,,,,,,,,,,,,,,,,,,,
,,,,,63,2020-07-04_17h35.41.976,retriever_ti,2020.1.3,Win32,60,Chrome,1536,864,,,,,,,,,,,,,,,,,2,,,,,,,,,,,,,,,,,,,,,,,,,,,2428.550045,97,right,0.967475,scarf         ,6,6,2,1,3,2428.5834,2428.5834,2431.083725,0,19,19,19,1,97,4,6,peacock       ,scarf         ,html/resources/sequences_IDs/A/05_peacock.jpg,html/resources/sequences_IDs/A/06_scarf.jpg,5,6,2,1,3,2,4,5,0,63,,,,,,,,,,,,,,,,,,,,
,,,,,63,2020-07-04_17h35.41.976,retriever_ti,2020.1.3,Win32,60,Chrome,1536,864,,,,,,,,,,,,,,,,,2,,,,,,,,,,,,,,,,,,,,,,,,,,,2431.699955,98,left,1.03702,peacock       ,4,5,2,1,3,2431.73442,2431.73442,2434.23586,0,20,20,20,1,98,4,2,peacock       ,calculator    ,html/resources/sequences_IDs/A/05_peacock.jpg,html/resources/sequences_IDs/A/09_calculator.jpg,5,9,2,1,4,2,4,7,0,63,,,,,,,,,,,,,,,,,,,,
,,,,,63,2020-07-04_17h35.41.976,retriever_ti,2020.1.3,Win32,60,Chrome,1536,864,,,,,,,,,,,,,,,,,2,,,,,,,,,,,,,,,,,,,,,,,,,,,2434.8524,99,left,0.82779,wolf          ,8,1,4,1,3,2434.885855,2434.885855,2437.386835,0,21,21,21,1,99,8,4,wolf          ,peacock       ,html/resources/sequences_IDs/A/01_wolf.jpg,html/resources/sequences_IDs/A/05_peacock.jpg,1,5,1,1,2,1,1,4,0,63,,,,,,,,,,,,,,,,,,,,
,,,,,63,2020-07-04_17h35.41.976,retriever_ti,2020.1.3,Win32,60,Chrome,1536,864,,,,,,,,,,,,,,,,,2,,,,,,,,,,,,,,,,,,,,,,,,,,,2437.98917,100,left,0.914005,dolphin     ,7,2,3,1,3,2438.00439,2438.00439,2440.504965,0,22,22,22,1,100,7,4,dolphin     ,peacock       ,html/resources/sequences_IDs/B/02_dolphin.jpg,html/resources/sequences_IDs/A/05_peacock.jpg,2,5,1,1,2,1,2,4,0,63,,,,,,,,,,,,,,,,,,,,
,,,,,63,2020-07-04_17h35.41.976,retriever_ti,2020.1.3,Win32,60,Chrome,1536,864,,,,,,,,,,,,,,,,,2,,,,,,,,,,,,,,,,,,,,,,,,,,,2441.12255,101,left,1.28134,calculator    ,2,9,-1,0,0,2441.140315,2441.140315,2443.641135,0,23,23,23,1,101,2,3,calculator    ,holdfast    ,html/resources/sequences_IDs/A/09_calculator.jpg,html/resources/sequences_IDs/B/04_holdfast.jpg,9,4,4,2,2,1,7,3,0,63,,,,,,,,,,,,,,,,,,,,
,,,,,63,2020-07-04_17h35.41.976,retriever_ti,2020.1.3,Win32,60,Chrome,1536,864,,,,,,,,,,,,,,,,,2,,,,,,,,,,,,,,,,,,,,,,,,,,,2444.74216,102,right,1.348265,wolf          ,8,1,6,1,3,2444.75884,2444.75884,2447.258955,0,24,24,24,1,102,2,8,calculator    ,wolf          ,html/resources/sequences_IDs/A/09_calculator.jpg,html/resources/sequences_IDs/A/01_wolf.jpg,9,1,4,2,1,1,7,1,0,63,,,,,,,,,,,,,,,,,,,,
,,,,,63,2020-07-04_17h35.41.976,retriever_ti,2020.1.3,Win32,60,Chrome,1536,864,,,,,,,,,,,,,,,,,2,,,,,,,,,,,,,,,,,,,,,,,,,,,2447.859585,103,left,0.87466,scarf         ,6,6,2,1,3,2447.8942,2447.8942,2450.39431,0,25,25,25,1,103,6,4,scarf         ,peacock       ,html/resources/sequences_IDs/A/06_scarf.jpg,html/resources/sequences_IDs/A/05_peacock.jpg,6,5,3,2,2,1,5,4,0,63,,,,,,,,,,,,,,,,,,,,
,,,,,63,2020-07-04_17h35.41.976,retriever_ti,2020.1.3,Win32,60,Chrome,1536,864,,,,,,,,,,,,,,,,,2,,,,,,,,,,,,,,,,,,,,,,,,,,,2450.996605,104,right,1.153415,holdfast    ,3,4,-1,0,1,2451.02882,2451.02882,2453.52895,0,26,26,26,1,104,4,3,peacock       ,holdfast    ,html/resources/sequences_IDs/A/05_peacock.jpg,html/resources/sequences_IDs/B/04_holdfast.jpg,5,4,2,1,2,1,4,3,1,63,,,,,,,,,,,,,,,,,,,,
,,,,,63,2020-07-04_17h35.41.976,retriever_ti,2020.1.3,Win32,60,Chrome,1536,864,,,,,,,,,,,,,,,,,2,,,,,,,,,,,,,,,,,,,,,,,,,,,2454.631935,105,left,0.94686,dolphin     ,7,2,6,1,3,2454.651275,2454.651275,2457.14795,0,27,27,27,1,105,7,1,dolphin     ,slipper     ,html/resources/sequences_IDs/B/02_dolphin.jpg,html/resources/sequences_IDs/B/08_slipper.jpg,2,8,1,1,3,2,2,6,0,63,,,,,,,,,,,,,,,,,,,,
,,,,,63,2020-07-04_17h35.41.976,retriever_ti,2020.1.3,Win32,60,Chrome,1536,864,,,,,,,,,,,,,,,,,2,,,,,,,,,,,,,,,,,,,,,,,,,,,2457.74881,106,left,1.103705,wolf          ,8,1,3,1,3,2457.766525,2457.766525,2460.26703,0,28,28,28,1,106,8,5,wolf          ,radio       ,html/resources/sequences_IDs/A/01_wolf.jpg,html/resources/sequences_IDs/B/10_radio.jpg,1,10,1,1,4,2,1,8,0,63,,,,,,,,,,,,,,,,,,,,
,,,,,63,2020-07-04_17h35.41.976,retriever_ti,2020.1.3,Win32,60,Chrome,1536,864,,,,,,,,,,,,,,,,,2,,,,,,,,,,,,,,,,,,,,,,,,,,,2460.884215,107,right,1.559135,holdfast    ,3,4,-4,0,3,2460.919255,2460.919255,2463.419465,0,29,29,29,1,107,7,3,dolphin     ,holdfast    ,html/resources/sequences_IDs/B/02_dolphin.jpg,html/resources/sequences_IDs/B/04_holdfast.jpg,2,4,1,1,2,1,2,3,0,63,,,,,,,,,,,,,,,,,,,,
,,,,,63,2020-07-04_17h35.41.976,retriever_ti,2020.1.3,Win32,60,Chrome,1536,864,,,,,,,,,,,,,,,,,2,,,,,,,,,,,,,,,,,,,,,,,,,,,2464.036485,108,left,1.17481,holdfast    ,3,4,-4,0,3,2464.05284,2464.05284,2466.553565,0,30,30,30,1,108,3,7,holdfast    ,dolphin     ,html/resources/sequences_IDs/B/04_holdfast.jpg,html/resources/sequences_IDs/B/02_dolphin.jpg,4,2,2,1,1,1,3,2,0,63,,,,,,,,,,,,,,,,,,,,
,,,,,63,2020-07-04_17h35.41.976,retriever_ti,2020.1.3,Win32,60,Chrome,1536,864,,,,,,,,,,,,,,,,,2,,,,,,,,,,,,,,,,,,,,,,,,,,,2467.17123,109,left,0.793545,wolf          ,8,1,1,1,1,2467.18895,2467.18895,2469.68835,0,31,31,31,1,109,8,7,wolf          ,dolphin     ,html/resources/sequences_IDs/A/01_wolf.jpg,html/resources/sequences_IDs/B/02_dolphin.jpg,1,2,1,1,1,1,1,2,0,63,,,,,,,,,,,,,,,,,,,,
,,,,,63,2020-07-04_17h35.41.976,retriever_ti,2020.1.3,Win32,60,Chrome,1536,864,,,,,,,,,,,,,,,,,2,,,,,,,,,,,,,,,,,,,,,,,,,,,2470.790045,110,left,1.171765,radio       ,5,10,1,1,1,2470.807265,2470.807265,2473.307795,0,32,32,32,1,110,5,4,radio       ,peacock       ,html/resources/sequences_IDs/B/10_radio.jpg,html/resources/sequences_IDs/A/05_peacock.jpg,10,5,4,2,2,1,8,4,0,63,,,,,,,,,,,,,,,,,,,,
,,,,,63,2020-07-04_17h35.41.976,retriever_ti,2020.1.3,Win32,60,Chrome,1536,864,,,,,,,,,,,,,,,,,2,,,,,,,,,,,,,,,,,,,,,,,,,,,2474.40844,111,NaN,NaN,No_response,NaN,NaN,NaN,2,2,2474.42572,2474.42572,2476.92606,0,33,33,33,1,111,6,8,scarf         ,wolf          ,html/resources/sequences_IDs/A/06_scarf.jpg,html/resources/sequences_IDs/A/01_wolf.jpg,6,1,3,2,1,1,5,1,0,63,,,,,,,,,,,,,,,,,,,,
,,,,,63,2020-07-04_17h35.41.976,retriever_ti,2020.1.3,Win32,60,Chrome,1536,864,,,,,,,,,,,,,,,,,2,,,,,,,,,,,,,,,,,,,,,,,,,,,2478.02765,112,left,0.48787,radio       ,5,10,4,1,3,2478.06213,2478.06213,2480.56166,0,34,34,34,1,112,5,1,radio       ,slipper     ,html/resources/sequences_IDs/B/10_radio.jpg,html/resources/sequences_IDs/B/08_slipper.jpg,10,8,4,2,3,2,8,6,0,63,,,,,,,,,,,,,,,,,,,,
,,,,,63,2020-07-04_17h35.41.976,retriever_ti,2020.1.3,Win32,60,Chrome,1536,864,,,,,,,,,,,,,,,,,2,,,,,,,,,,,,,,,,,,,,,,,,,,,2481.179675,113,right,1.48599,radio       ,5,10,-2,0,3,2481.195625,2481.195625,2483.698135,0,35,35,35,1,113,7,5,dolphin     ,radio       ,html/resources/sequences_IDs/B/02_dolphin.jpg,html/resources/sequences_IDs/B/10_radio.jpg,2,10,1,1,4,2,2,8,0,63,,,,,,,,,,,,,,,,,,,,
,,,,,63,2020-07-04_17h35.41.976,retriever_ti,2020.1.3,Win32,60,Chrome,1536,864,,,,,,,,,,,,,,,,,2,,,,,,,,,,,,,,,,,,,,,,,,,,,2484.315825,114,right,1.259155,scarf         ,6,6,-1,0,0,2484.348545,2484.348545,2486.84856,0,36,36,36,1,114,7,6,dolphin     ,scarf         ,html/resources/sequences_IDs/B/02_dolphin.jpg,html/resources/sequences_IDs/A/06_scarf.jpg,2,6,1,1,3,2,2,5,0,63,,,,,,,,,,,,,,,,,,,,
,,,,,63,2020-07-04_17h35.41.976,retriever_ti,2020.1.3,Win32,60,Chrome,1536,864,,,,,,,,,,,,,,,,,2,,,,,,,,,,,,,,,,,,,,,,,,,,,2487.948915,115,left,1.063265,holdfast    ,3,4,2,1,3,2487.96727,2487.96727,2490.466975,0,37,37,37,1,115,3,1,holdfast    ,slipper     ,html/resources/sequences_IDs/B/04_holdfast.jpg,html/resources/sequences_IDs/B/08_slipper.jpg,4,8,2,1,3,2,3,6,0,63,,,,,,,,,,,,,,,,,,,,
,,,,,63,2020-07-04_17h35.41.976,retriever_ti,2020.1.3,Win32,60,Chrome,1536,864,,,,,,,,,,,,,,,,,2,,,,,,,,,,,,,,,,,,,,,,,,,,,2491.068515,116,left,0.994755,calculator    ,2,9,-1,0,0,2491.085065,2491.085065,2493.58587,0,38,38,38,1,116,2,3,calculator    ,holdfast    ,html/resources/sequences_IDs/A/09_calculator.jpg,html/resources/sequences_IDs/B/04_holdfast.jpg,9,4,4,2,2,1,7,3,0,63,,,,,,,,,,,,,,,,,,,,
,,,,,63,2020-07-04_17h35.41.976,retriever_ti,2020.1.3,Win32,60,Chrome,1536,864,,,,,,,,,,,,,,,,,2,,,,,,,,,,,,,,,,,,,,,,,,,,,2494.686975,117,right,1.239915,radio       ,5,10,4,1,3,2494.721225,2494.721225,2497.220715,0,39,39,39,1,117,1,5,slipper     ,radio       ,html/resources/sequences_IDs/B/08_slipper.jpg,html/resources/sequences_IDs/B/10_radio.jpg,8,10,3,2,4,2,6,8,0,63,,,,,,,,,,,,,,,,,,,,
,,,,,63,2020-07-04_17h35.41.976,retriever_ti,2020.1.3,Win32,60,Chrome,1536,864,,,,,,,,,,,,,,,,,2,,,,,,,,,,,,,,,,,,,,,,,,,,,2497.82279,118,right,1.76575,dolphin     ,7,2,3,1,3,2497.85562,2497.85562,2500.355975,0,40,40,40,1,118,4,7,peacock       ,dolphin     ,html/resources/sequences_IDs/A/05_peacock.jpg,html/resources/sequences_IDs/B/02_dolphin.jpg,5,2,2,1,1,1,4,2,0,63,,,,,,,,,,,,,,,,,,,,
,,,,,63,2020-07-04_17h35.41.976,retriever_ti,2020.1.3,Win32,60,Chrome,1536,864,,,,,,,,,,,,,,,,,2,,,,,,,,,,,,,,,,,,,,,,,,,,,2500.95757,119,right,1.003115,wolf          ,8,1,3,1,3,2500.990795,2500.990795,2503.491875,0,41,41,41,1,119,5,8,radio       ,wolf          ,html/resources/sequences_IDs/B/10_radio.jpg,html/resources/sequences_IDs/A/01_wolf.jpg,10,1,4,2,1,1,8,1,0,63,,,,,,,,,,,,,,,,,,,,
,,,,,63,2020-07-04_17h35.41.976,retriever_ti,2020.1.3,Win32,60,Chrome,1536,864,,,,,,,,,,,,,,,,,2,,,,,,,,,,,,,,,,,,,,,,,,,,,2504.109385,120,left,1.17351,dolphin     ,7,2,1,1,1,2504.143685,2504.143685,2506.643915,0,42,42,42,1,120,7,6,dolphin     ,scarf         ,html/resources/sequences_IDs/B/02_dolphin.jpg,html/resources/sequences_IDs/A/06_scarf.jpg,2,6,1,1,3,2,2,5,0,63,,,,,,,,,,,,,,,,,,,,
,,,,,63,2020-07-04_17h35.41.976,retriever_ti,2020.1.3,Win32,60,Chrome,1536,864,,,,,,,,,,,,,,,,,2,,,,,,,,,,,,,,,,,,,,,,,,,,,2507.744235,121,left,1.25467,radio       ,5,10,3,1,3,2507.7613,2507.7613,2510.26225,0,43,43,43,1,121,5,2,radio       ,calculator    ,html/resources/sequences_IDs/B/10_radio.jpg,html/resources/sequences_IDs/A/09_calculator.jpg,10,9,4,2,4,2,8,7,0,63,,,,,,,,,,,,,,,,,,,,
,,,,,63,2020-07-04_17h35.41.976,retriever_ti,2020.1.3,Win32,60,Chrome,1536,864,,,,,,,,,,,,,,,,,2,,,,,,,,,,,,,,,,,,,,,,,,,,,2510.87984,122,left,0.896985,calculator    ,2,9,-5,0,3,2510.897495,2510.897495,2513.397045,0,44,44,44,1,122,2,7,calculator    ,dolphin     ,html/resources/sequences_IDs/A/09_calculator.jpg,html/resources/sequences_IDs/B/02_dolphin.jpg,9,2,4,2,1,1,7,2,0,63,,,,,,,,,,,,,,,,,,,,
,,,,,63,2020-07-04_17h35.41.976,retriever_ti,2020.1.3,Win32,60,Chrome,1536,864,,,,,,,,,,,,,,,,,2,,,,,,,,,,,,,,,,,,,,,,,,,,,2514.014105,123,left,1.02182,holdfast    ,3,4,-5,0,3,2514.04852,2514.04852,2516.548545,0,45,45,45,1,123,3,8,holdfast    ,wolf          ,html/resources/sequences_IDs/B/04_holdfast.jpg,html/resources/sequences_IDs/A/01_wolf.jpg,4,1,2,1,1,1,3,1,0,63,,,,,,,,,,,,,,,,,,,,
,,,,,63,2020-07-04_17h35.41.976,retriever_ti,2020.1.3,Win32,60,Chrome,1536,864,,,,,,,,,,,,,,,,,2,,,,,,,,,,,,,,,,,,,,,,,,,,,2517.14981,124,right,1.025035,holdfast    ,3,4,-1,0,0,2517.183645,2517.183645,2519.684085,0,46,46,46,1,124,4,3,peacock       ,holdfast    ,html/resources/sequences_IDs/A/05_peacock.jpg,html/resources/sequences_IDs/B/04_holdfast.jpg,5,4,2,1,2,1,4,3,0,63,,,,,,,,,,,,,,,,,,,,
,,,,,63,2020-07-04_17h35.41.976,retriever_ti,2020.1.3,Win32,60,Chrome,1536,864,,,,,,,,,,,,,,,,,2,,,,,,,,,,,,,,,,,,,,,,,,,,,2520.785885,125,left,1.08218,holdfast    ,3,4,-1,0,0,2520.80268,2520.80268,2523.30354,0,47,47,47,1,125,3,4,holdfast    ,peacock       ,html/resources/sequences_IDs/B/04_holdfast.jpg,html/resources/sequences_IDs/A/05_peacock.jpg,4,5,2,1,2,1,3,4,0,63,,,,,,,,,,,,,,,,,,,,
,,,,,63,2020-07-04_17h35.41.976,retriever_ti,2020.1.3,Win32,60,Chrome,1536,864,,,,,,,,,,,,,,,,,2,,,,,,,,,,,,,,,,,,,,,,,,,,,2524.40494,126,right,1.012735,scarf         ,6,6,-2,0,3,2524.43903,2524.43903,2526.937935,0,48,48,48,1,126,8,6,wolf          ,scarf         ,html/resources/sequences_IDs/A/01_wolf.jpg,html/resources/sequences_IDs/A/06_scarf.jpg,1,6,1,1,3,2,1,5,0,63,,,,,,,,,,,,,,,,,,,,
,,,,,63,2020-07-04_17h35.41.976,retriever_ti,2020.1.3,Win32,60,Chrome,1536,864,,,,,,,,,,,,,,,,,2,,,,,,,,,,,,,,,,,,,,,,,,,,,2527.540435,127,left,0.774245,calculator    ,2,9,1,1,0,2527.55617,2527.55617,2530.057895,0,49,49,49,1,127,2,1,calculator    ,slipper     ,html/resources/sequences_IDs/A/09_calculator.jpg,html/resources/sequences_IDs/B/08_slipper.jpg,9,8,4,2,3,2,7,6,1,63,,,,,,,,,,,,,,,,,,,,
,,,,,63,2020-07-04_17h35.41.976,retriever_ti,2020.1.3,Win32,60,Chrome,1536,864,,,,,,,,,,,,,,,,,2,,,,,,,,,,,,,,,,,,,,,,,,,,,2531.157745,128,right,0.761215,radio       ,5,10,-1,0,0,2531.191855,2531.191855,2533.691405,0,50,50,50,1,128,6,5,scarf         ,radio       ,html/resources/sequences_IDs/A/06_scarf.jpg,html/resources/sequences_IDs/B/10_radio.jpg,6,10,3,2,4,2,5,8,0,63,,,,,,,,,,,,,,,,,,,,
,,,,,63,2020-07-04_17h35.41.976,retriever_ti,2020.1.3,Win32,60,Chrome,1536,864,,,,,,,,,,,,,,,,,2,,,,,,,,,,,,,,,,,,,,,,,,,,,2534.793305,129,left,0.72926,slipper     ,1,8,-6,0,3,2534.81076,2534.81076,2537.310715,0,51,51,51,1,129,1,7,slipper     ,dolphin     ,html/resources/sequences_IDs/B/08_slipper.jpg,html/resources/sequences_IDs/B/02_dolphin.jpg,8,2,3,2,1,1,6,2,0,63,,,,,,,,,,,,,,,,,,,,
,,,,,63,2020-07-04_17h35.41.976,retriever_ti,2020.1.3,Win32,60,Chrome,1536,864,,,,,,,,,,,,,,,,,2,,,,,,,,,,,,,,,,,,,,,,,,,,,2537.911535,130,right,0.79253,radio       ,5,10,2,1,3,2537.929375,2537.929375,2540.430015,0,52,52,52,1,130,3,5,holdfast    ,radio       ,html/resources/sequences_IDs/B/04_holdfast.jpg,html/resources/sequences_IDs/B/10_radio.jpg,4,10,2,1,4,2,3,8,0,63,,,,,,,,,,,,,,,,,,,,
,,,,,63,2020-07-04_17h35.41.976,retriever_ti,2020.1.3,Win32,60,Chrome,1536,864,,,,,,,,,,,,,,,,,2,,,,,,,,,,,,,,,,,,,,,,,,,,,2541.047495,131,right,1.20082,peacock       ,4,5,3,1,3,2541.064025,2541.064025,2543.565845,0,53,53,53,1,131,1,4,slipper     ,peacock       ,html/resources/sequences_IDs/B/08_slipper.jpg,html/resources/sequences_IDs/A/05_peacock.jpg,8,5,3,2,2,1,6,4,0,63,,,,,,,,,,,,,,,,,,,,
,,,,,63,2020-07-04_17h35.41.976,retriever_ti,2020.1.3,Win32,60,Chrome,1536,864,,,,,,,,,,,,,,,,,2,,,,,,,,,,,,,,,,,,,,,,,,,,,2544.181985,132,left,0.553655,radio       ,5,10,-2,0,3,2544.2446,2544.2446,2546.69936,0,54,54,54,1,132,5,7,radio       ,dolphin     ,html/resources/sequences_IDs/B/10_radio.jpg,html/resources/sequences_IDs/B/02_dolphin.jpg,10,2,4,2,1,1,8,2,0,63,,,,,,,,,,,,,,,,,,,,
,,,,,63,2020-07-04_17h35.41.976,retriever_ti,2020.1.3,Win32,60,Chrome,1536,864,,,,,,,,,,,,,,,,,2,,,,,,,,,,,,,,,,,,,,,,,,,,,2547.300315,133,right,1.218085,peacock       ,4,5,1,1,1,2547.319,2547.319,2549.81833,0,55,55,55,1,133,3,4,holdfast    ,peacock       ,html/resources/sequences_IDs/B/04_holdfast.jpg,html/resources/sequences_IDs/A/05_peacock.jpg,4,5,2,1,2,1,3,4,0,63,,,,,,,,,,,,,,,,,,,,
,,,,,63,2020-07-04_17h35.41.976,retriever_ti,2020.1.3,Win32,60,Chrome,1536,864,,,,,,,,,,,,,,,,,2,,,,,,,,,,,,,,,,,,,,,,,,,,,2550.919725,134,right,0.96281,radio       ,5,10,1,1,1,2550.953025,2550.953025,2553.45285,0,56,56,56,1,134,4,5,peacock       ,radio       ,html/resources/sequences_IDs/A/05_peacock.jpg,html/resources/sequences_IDs/B/10_radio.jpg,5,10,2,1,4,2,4,8,0,63,,,,,,,,,,,,,,,,,,,,
,,,,,63,2020-07-04_17h35.41.976,retriever_ti,2020.1.3,Win32,60,Chrome,1536,864,,,,,,,,,,,,,,,,,2,,,,,,,,,,,,,,,,,,,,,,,,,,,2554.554365,135,right,1.12773,dolphin     ,7,2,1,1,1,2554.571715,2554.571715,2557.072185,0,57,57,57,1,135,6,7,scarf         ,dolphin     ,html/resources/sequences_IDs/A/06_scarf.jpg,html/resources/sequences_IDs/B/02_dolphin.jpg,6,2,3,2,1,1,5,2,0,63,,,,,,,,,,,,,,,,,,,,
,,,,,63,2020-07-04_17h35.41.976,retriever_ti,2020.1.3,Win32,60,Chrome,1536,864,,,,,,,,,,,,,,,,,2,,,,,,,,,,,,,,,,,,,,,,,,,,,2558.174655,136,left,1.257305,peacock       ,4,5,-1,0,0,2558.191415,2558.191415,2560.69046,0,58,58,58,1,136,4,5,peacock       ,radio       ,html/resources/sequences_IDs/A/05_peacock.jpg,html/resources/sequences_IDs/B/10_radio.jpg,5,10,2,1,4,2,4,8,0,63,,,,,,,,,,,,,,,,,,,,
,,,,,63,2020-07-04_17h35.41.976,retriever_ti,2020.1.3,Win32,60,Chrome,1536,864,,,,,,,,,,,,,,,,,2,,,,,,,,,,,,,,,,,,,,,,,,,,,2561.79151,137,left,1.30622,calculator    ,2,9,-3,0,3,2561.82582,2561.82582,2564.32737,0,59,59,59,1,137,2,5,calculator    ,radio       ,html/resources/sequences_IDs/A/09_calculator.jpg,html/resources/sequences_IDs/B/10_radio.jpg,9,10,4,2,4,2,7,8,0,63,,,,,,,,,,,,,,,,,,,,
,,,,,63,2020-07-04_17h35.41.976,retriever_ti,2020.1.3,Win32,60,Chrome,1536,864,,,,,,,,,,,,,,,,,2,,,,,,,,,,,,,,,,,,,,,,,,,,,2564.9457,138,right,1.17532,scarf         ,6,6,1,1,1,2564.961495,2564.961495,2567.46123,0,60,60,60,1,138,5,6,radio       ,scarf         ,html/resources/sequences_IDs/B/10_radio.jpg,html/resources/sequences_IDs/A/06_scarf.jpg,10,6,4,2,3,2,8,5,0,63,,,,,,,,,,,,,,,,,,,,
,,,,,63,2020-07-04_17h35.41.976,retriever_ti,2020.1.3,Win32,60,Chrome,1536,864,,,,,,,,,,,,,,,,,2,,,,,,,,,,,,,,,,,,,,,,,,,,,2568.56312,139,left,1.156495,calculator    ,2,9,1,1,1,2568.596805,2568.596805,2571.096605,0,61,61,61,1,139,2,1,calculator    ,slipper     ,html/resources/sequences_IDs/A/09_calculator.jpg,html/resources/sequences_IDs/B/08_slipper.jpg,9,8,4,2,3,2,7,6,0,63,,,,,,,,,,,,,,,,,,,,
,,,,,63,2020-07-04_17h35.41.976,retriever_ti,2020.1.3,Win32,60,Chrome,1536,864,,,,,,,,,,,,,,,,,2,,,,,,,,,,,,,,,,,,,,,,,,,,,2572.216295,140,left,1.061965,peacock       ,4,5,-4,0,3,2572.249105,2572.249105,2574.74908,0,62,62,62,1,140,4,8,peacock       ,wolf          ,html/resources/sequences_IDs/A/05_peacock.jpg,html/resources/sequences_IDs/A/01_wolf.jpg,5,1,2,1,1,1,4,1,0,63,,,,,,,,,,,,,,,,,,,,
,,,,,63,2020-07-04_17h35.41.976,retriever_ti,2020.1.3,Win32,60,Chrome,1536,864,,,,,,,,,,,,,,,,,2,,,,,,,,,,,,,,,,,,,,,,,,,,,2575.36675,141,right,0.903885,slipper     ,1,8,-3,0,3,2575.3836,2575.3836,2577.887555,0,63,63,63,1,141,4,1,peacock       ,slipper     ,html/resources/sequences_IDs/A/05_peacock.jpg,html/resources/sequences_IDs/B/08_slipper.jpg,5,8,2,1,3,2,4,6,0,63,,,,,,,,,,,,,,,,,,,,
,,,,,63,2020-07-04_17h35.41.976,retriever_ti,2020.1.3,Win32,60,Chrome,1536,864,,,,,,,,,,,,,,,,,2,,,,,,,,,,,,,,,,,,,,,,,,,,,2578.50241,142,right,1.116535,peacock       ,4,5,-1,0,1,2578.536595,2578.536595,2581.036385,0,64,64,64,1,142,5,4,radio       ,peacock       ,html/resources/sequences_IDs/B/10_radio.jpg,html/resources/sequences_IDs/A/05_peacock.jpg,10,5,4,2,2,1,8,4,1,63,,,,,,,,,,,,,,,,,,,,
,,,,,63,2020-07-04_17h35.41.976,retriever_ti,2020.1.3,Win32,60,Chrome,1536,864,,,,,,,,,,,,,,,,,2,,,,,,,,,,,,,,,,,,,,,,,,,,,2582.137275,143,left,0.74496,dolphin     ,7,2,-1,0,1,2582.154045,2582.154045,2584.654445,0,65,65,65,1,143,7,8,dolphin     ,wolf          ,html/resources/sequences_IDs/B/02_dolphin.jpg,html/resources/sequences_IDs/A/01_wolf.jpg,2,1,1,1,1,1,2,1,1,63,,,,,,,,,,,,,,,,,,,,
,,,,,63,2020-07-04_17h35.41.976,retriever_ti,2020.1.3,Win32,60,Chrome,1536,864,,,,,,,,,,,,,,,,,2,,,,,,,,,,,,,,,,,,,,,,,,,,,2585.755595,144,right,0.806065,calculator    ,2,9,-5,0,3,2585.78991,2585.78991,2588.290375,0,66,66,66,1,144,7,2,dolphin     ,calculator    ,html/resources/sequences_IDs/B/02_dolphin.jpg,html/resources/sequences_IDs/A/09_calculator.jpg,2,9,1,1,4,2,2,7,0,63,,,,,,,,,,,,,,,,,,,,
,,,,,63,2020-07-04_17h35.41.976,retriever_ti,2020.1.3,Win32,60,Chrome,1536,864,,,,,,,,,,,,,,,,,2,,,,,,,,,,,,,,,,,,,,,,,,,,,2588.907965,145,right,0.556525,scarf         ,6,6,5,1,3,2588.92511,2588.92511,2591.426495,0,67,67,67,1,145,1,6,slipper     ,scarf         ,html/resources/sequences_IDs/B/08_slipper.jpg,html/resources/sequences_IDs/A/06_scarf.jpg,8,6,3,2,3,2,6,5,0,63,,,,,,,,,,,,,,,,,,,,
,,,,,63,2020-07-04_17h35.41.976,retriever_ti,2020.1.3,Win32,60,Chrome,1536,864,,,,,,,,,,,,,,,,,2,,,,,,,,,,,,,,,,,,,,,,,,,,,2592.045455,146,right,0.697855,holdfast    ,3,4,2,1,3,2592.077315,2592.077315,2594.576825,0,68,68,68,1,146,1,3,slipper     ,holdfast    ,html/resources/sequences_IDs/B/08_slipper.jpg,html/resources/sequences_IDs/B/04_holdfast.jpg,8,4,3,2,2,1,6,3,0,63,,,,,,,,,,,,,,,,,,,,
,,,,,63,2020-07-04_17h35.41.976,retriever_ti,2020.1.3,Win32,60,Chrome,1536,864,,,,,,,,,,,,,,,,,2,,,,,,,,,,,,,,,,,,,,,,,,,,,2595.17838,147,right,0.80326,calculator    ,2,9,-1,0,0,2595.194715,2595.194715,2597.69547,0,69,69,69,1,147,3,2,holdfast    ,calculator    ,html/resources/sequences_IDs/B/04_holdfast.jpg,html/resources/sequences_IDs/A/09_calculator.jpg,4,9,2,1,4,2,3,7,0,63,,,,,,,,,,,,,,,,,,,,
,,,,,63,2020-07-04_17h35.41.976,retriever_ti,2020.1.3,Win32,60,Chrome,1536,864,,,,,,,,,,,,,,,,,2,,,,,,,,,,,,,,,,,,,,,,,,,,,2598.798455,148,left,0.592975,holdfast    ,3,4,1,1,1,2598.83139,2598.83139,2601.33085,0,70,70,70,1,148,3,2,holdfast    ,calculator    ,html/resources/sequences_IDs/B/04_holdfast.jpg,html/resources/sequences_IDs/A/09_calculator.jpg,4,9,2,1,4,2,3,7,0,63,,,,,,,,,,,,,,,,,,,,
,,,,,63,2020-07-04_17h35.41.976,retriever_ti,2020.1.3,Win32,60,Chrome,1536,864,,,,,,,,,,,,,,,,,2,,,,,,,,,,,,,,,,,,,,,,,,,,,2602.43334,149,right,0.844655,wolf          ,8,1,1,1,1,2602.448975,2602.448975,2604.94977,0,71,71,71,1,149,7,8,dolphin     ,wolf          ,html/resources/sequences_IDs/B/02_dolphin.jpg,html/resources/sequences_IDs/A/01_wolf.jpg,2,1,1,1,1,1,2,1,0,63,,,,,,,,,,,,,,,,,,,,
,,,,,63,2020-07-04_17h35.41.976,retriever_ti,2020.1.3,Win32,60,Chrome,1536,864,,,,,,,,,,,,,,,,,2,,,,,,,,,,,,,,,,,,,,,,,,,,,2606.050585,150,right,1.16667,slipper     ,1,8,-1,0,0,2606.068445,2606.068445,2608.569525,0,72,72,72,1,150,2,1,calculator    ,slipper     ,html/resources/sequences_IDs/A/09_calculator.jpg,html/resources/sequences_IDs/B/08_slipper.jpg,9,8,4,2,3,2,7,6,0,63,,,,,,,,,,,,,,,,,,,,
,,,,,63,2020-07-04_17h35.41.976,retriever_ti,2020.1.3,Win32,60,Chrome,1536,864,,,,,,,,,,,,,,,,,2,,,,,,,,,,,,,,,,,,,,,,,,,,,2609.67031,151,right,0.82487,holdfast    ,3,4,-5,0,3,2609.68747,2609.68747,2612.186745,0,73,73,73,1,151,8,3,wolf          ,holdfast    ,html/resources/sequences_IDs/A/01_wolf.jpg,html/resources/sequences_IDs/B/04_holdfast.jpg,1,4,1,1,2,1,1,3,0,63,,,,,,,,,,,,,,,,,,,,
,,,,,63,2020-07-04_17h35.41.976,retriever_ti,2020.1.3,Win32,60,Chrome,1536,864,,,,,,,,,,,,,,,,,2,,,,,,,,,,,,,,,,,,,,,,,,,,,2612.78837,152,right,0.863555,scarf         ,6,6,1,1,0,2612.805145,2612.805145,2615.306145,0,74,74,74,1,152,5,6,radio       ,scarf         ,html/resources/sequences_IDs/B/10_radio.jpg,html/resources/sequences_IDs/A/06_scarf.jpg,10,6,4,2,3,2,8,5,1,63,,,,,,,,,,,,,,,,,,,,
,,,,,63,2020-07-04_17h35.41.976,retriever_ti,2020.1.3,Win32,60,Chrome,1536,864,,,,,,,,,,,,,,,,,2,,,,,,,,,,,,,,,,,,,,,,,,,,,2616.407025,153,right,1.127995,holdfast    ,3,4,1,1,0,2616.42446,2616.42446,2618.924305,0,75,75,75,1,153,2,3,calculator    ,holdfast    ,html/resources/sequences_IDs/A/09_calculator.jpg,html/resources/sequences_IDs/B/04_holdfast.jpg,9,4,4,2,2,1,7,3,1,63,,,,,,,,,,,,,,,,,,,,
,,,,,63,2020-07-04_17h35.41.976,retriever_ti,2020.1.3,Win32,60,Chrome,1536,864,,,,,,,,,,,,,,,,,2,,,,,,,,,,,,,,,,,,,,,,,,,,,2620.02531,154,left,0.66239,radio       ,5,10,2,1,3,2620.059825,2620.059825,2622.561155,0,76,76,76,1,154,5,3,radio       ,holdfast    ,html/resources/sequences_IDs/B/10_radio.jpg,html/resources/sequences_IDs/B/04_holdfast.jpg,10,4,4,2,2,1,8,3,0,63,,,,,,,,,,,,,,,,,,,,
,,,,,63,2020-07-04_17h35.41.976,retriever_ti,2020.1.3,Win32,60,Chrome,1536,864,,,,,,,,,,,,,,,,,,,,,,,,,,,,,,,,,,,,,0,1.783,,,,,,,,,,,,,,,,,,,,,,,,,,,,,,,,,,,,,,,,,1,0,1,0,1,,,,,,,,,,,,,,,
,,,,,63,2020-07-04_17h35.41.976,retriever_ti,2020.1.3,Win32,60,Chrome,1536,864,,,,,,,,,,,,,,,,,3,,,,,,,,,,,,,,,,,,,,,,,,,,,2630.332555,155,left,1.124775,holdfast    ,3,4,-2,0,3,2630.39522,2630.39522,2632.882565,0,0,0,0,1,155,3,5,holdfast    ,radio       ,html/resources/sequences_IDs/B/04_holdfast.jpg,html/resources/sequences_IDs/B/10_radio.jpg,4,10,2,1,4,2,3,8,0,63,,,,,,,,,,,,,,,,,,,,
,,,,,63,2020-07-04_17h35.41.976,retriever_ti,2020.1.3,Win32,60,Chrome,1536,864,,,,,,,,,,,,,,,,,3,,,,,,,,,,,,,,,,,,,,,,,,,,,2633.48366,156,right,0.970885,radio       ,5,10,3,1,3,2633.517485,2633.517485,2636.01775,0,1,1,1,1,156,2,5,calculator    ,radio       ,html/resources/sequences_IDs/A/09_calculator.jpg,html/resources/sequences_IDs/B/10_radio.jpg,9,10,4,2,4,2,7,8,0,63,,,,,,,,,,,,,,,,,,,,
,,,,,63,2020-07-04_17h35.41.976,retriever_ti,2020.1.3,Win32,60,Chrome,1536,864,,,,,,,,,,,,,,,,,3,,,,,,,,,,,,,,,,,,,,,,,,,,,2636.63582,157,right,1.01689,slipper     ,1,8,-6,0,3,2636.66992,2636.66992,2639.16943,0,2,2,2,1,157,7,1,dolphin     ,slipper     ,html/resources/sequences_IDs/B/02_dolphin.jpg,html/resources/sequences_IDs/B/08_slipper.jpg,2,8,1,1,3,2,2,6,0,63,,,,,,,,,,,,,,,,,,,,
,,,,,63,2020-07-04_17h35.41.976,retriever_ti,2020.1.3,Win32,60,Chrome,1536,864,,,,,,,,,,,,,,,,,3,,,,,,,,,,,,,,,,,,,,,,,,,,,2639.771445,158,right,0.542575,wolf          ,8,1,7,1,3,2639.789035,2639.789035,2642.287295,0,3,3,3,1,158,1,8,slipper     ,wolf          ,html/resources/sequences_IDs/B/08_slipper.jpg,html/resources/sequences_IDs/A/01_wolf.jpg,8,1,3,2,1,1,6,1,0,63,,,,,,,,,,,,,,,,,,,,
,,,,,63,2020-07-04_17h35.41.976,retriever_ti,2020.1.3,Win32,60,Chrome,1536,864,,,,,,,,,,,,,,,,,3,,,,,,,,,,,,,,,,,,,,,,,,,,,2642.88897,159,left,0.79672,peacock       ,4,5,3,1,3,2642.90706,2642.90706,2645.406745,0,4,4,4,1,159,4,1,peacock       ,slipper     ,html/resources/sequences_IDs/A/05_peacock.jpg,html/resources/sequences_IDs/B/08_slipper.jpg,5,8,2,1,3,2,4,6,0,63,,,,,,,,,,,,,,,,,,,,
,,,,,63,2020-07-04_17h35.41.976,retriever_ti,2020.1.3,Win32,60,Chrome,1536,864,,,,,,,,,,,,,,,,,3,,,,,,,,,,,,,,,,,,,,,,,,,,,2646.00785,160,right,0.62183,scarf         ,6,6,1,1,0,2646.04208,2646.04208,2648.541525,0,5,5,5,1,160,5,6,radio       ,scarf         ,html/resources/sequences_IDs/B/10_radio.jpg,html/resources/sequences_IDs/A/06_scarf.jpg,10,6,4,2,3,2,8,5,1,63,,,,,,,,,,,,,,,,,,,,
,,,,,63,2020-07-04_17h35.41.976,retriever_ti,2020.1.3,Win32,60,Chrome,1536,864,,,,,,,,,,,,,,,,,3,,,,,,,,,,,,,,,,,,,,,,,,,,,2649.64491,161,left,0.51912,wolf          ,8,1,5,1,3,2649.660935,2649.660935,2652.16004,0,6,6,6,1,161,8,3,wolf          ,holdfast    ,html/resources/sequences_IDs/A/01_wolf.jpg,html/resources/sequences_IDs/B/04_holdfast.jpg,1,4,1,1,2,1,1,3,0,63,,,,,,,,,,,,,,,,,,,,
,,,,,63,2020-07-04_17h35.41.976,retriever_ti,2020.1.3,Win32,60,Chrome,1536,864,,,,,,,,,,,,,,,,,3,,,,,,,,,,,,,,,,,,,,,,,,,,,2652.76206,162,right,0.724595,peacock       ,4,5,-1,0,1,2652.778385,2652.778385,2655.27873,0,7,7,7,1,162,5,4,radio       ,peacock       ,html/resources/sequences_IDs/B/10_radio.jpg,html/resources/sequences_IDs/A/05_peacock.jpg,10,5,4,2,2,1,8,4,1,63,,,,,,,,,,,,,,,,,,,,
,,,,,63,2020-07-04_17h35.41.976,retriever_ti,2020.1.3,Win32,60,Chrome,1536,864,,,,,,,,,,,,,,,,,3,,,,,,,,,,,,,,,,,,,,,,,,,,,2656.381255,163,left,0.90011,dolphin     ,7,2,-1,0,1,2656.413255,2656.413255,2658.914285,0,8,8,8,1,163,7,8,dolphin     ,wolf          ,html/resources/sequences_IDs/B/02_dolphin.jpg,html/resources/sequences_IDs/A/01_wolf.jpg,2,1,1,1,1,1,2,1,1,63,,,,,,,,,,,,,,,,,,,,
,,,,,63,2020-07-04_17h35.41.976,retriever_ti,2020.1.3,Win32,60,Chrome,1536,864,,,,,,,,,,,,,,,,,3,,,,,,,,,,,,,,,,,,,,,,,,,,,2660.015485,164,left,1.07415,dolphin     ,7,2,1,1,1,2660.049755,2660.049755,2662.548855,0,9,9,9,1,164,7,6,dolphin     ,scarf         ,html/resources/sequences_IDs/B/02_dolphin.jpg,html/resources/sequences_IDs/A/06_scarf.jpg,2,6,1,1,3,2,2,5,0,63,,,,,,,,,,,,,,,,,,,,
,,,,,63,2020-07-04_17h35.41.976,retriever_ti,2020.1.3,Win32,60,Chrome,1536,864,,,,,,,,,,,,,,,,,3,,,,,,,,,,,,,,,,,,,,,,,,,,,2663.65187,165,left,1.36091,radio       ,5,10,-1,0,0,2663.684855,2663.684855,2666.186295,0,10,10,10,1,165,5,6,radio       ,scarf         ,html/resources/sequences_IDs/B/10_radio.jpg,html/resources/sequences_IDs/A/06_scarf.jpg,10,6,4,2,3,2,8,5,0,63,,,,,,,,,,,,,,,,,,,,
,,,,,63,2020-07-04_17h35.41.976,retriever_ti,2020.1.3,Win32,60,Chrome,1536,864,,,,,,,,,,,,,,,,,3,,,,,,,,,,,,,,,,,,,,,,,,,,,2667.285965,166,right,0.665935,calculator    ,2,9,-1,0,0,2667.3044,2667.3044,2669.803965,0,11,11,11,1,166,3,2,holdfast    ,calculator    ,html/resources/sequences_IDs/B/04_holdfast.jpg,html/resources/sequences_IDs/A/09_calculator.jpg,4,9,2,1,4,2,3,7,0,63,,,,,,,,,,,,,,,,,,,,
,,,,,63,2020-07-04_17h35.41.976,retriever_ti,2020.1.3,Win32,60,Chrome,1536,864,,,,,,,,,,,,,,,,,3,,,,,,,,,,,,,,,,,,,,,,,,,,,2670.905185,167,left,0.699025,radio       ,5,10,-1,0,0,2670.92169,2670.92169,2673.42224,0,12,12,12,1,167,5,6,radio       ,scarf         ,html/resources/sequences_IDs/B/10_radio.jpg,html/resources/sequences_IDs/A/06_scarf.jpg,10,6,4,2,3,2,8,5,0,63,,,,,,,,,,,,,,,,,,,,
,,,,,63,2020-07-04_17h35.41.976,retriever_ti,2020.1.3,Win32,60,Chrome,1536,864,,,,,,,,,,,,,,,,,3,,,,,,,,,,,,,,,,,,,,,,,,,,,2674.523825,168,right,0.59091,holdfast    ,3,4,1,1,0,2674.557485,2674.557485,2677.05786,0,13,13,13,1,168,2,3,calculator    ,holdfast    ,html/resources/sequences_IDs/A/09_calculator.jpg,html/resources/sequences_IDs/B/04_holdfast.jpg,9,4,4,2,2,1,7,3,1,63,,,,,,,,,,,,,,,,,,,,
,,,,,63,2020-07-04_17h35.41.976,retriever_ti,2020.1.3,Win32,60,Chrome,1536,864,,,,,,,,,,,,,,,,,3,,,,,,,,,,,,,,,,,,,,,,,,,,,2678.15906,169,left,0.29813,scarf         ,6,6,-1,0,0,2678.192975,2678.192975,2680.69353,0,14,14,14,1,169,6,7,scarf         ,dolphin     ,html/resources/sequences_IDs/A/06_scarf.jpg,html/resources/sequences_IDs/B/02_dolphin.jpg,6,2,3,2,1,1,5,2,0,63,,,,,,,,,,,,,,,,,,,,
,,,,,63,2020-07-04_17h35.41.976,retriever_ti,2020.1.3,Win32,60,Chrome,1536,864,,,,,,,,,,,,,,,,,3,,,,,,,,,,,,,,,,,,,,,,,,,,,2681.79473,170,right,0.294895,slipper     ,1,8,-5,0,3,2681.81191,2681.81191,2684.31229,0,15,15,15,1,170,6,1,scarf         ,slipper     ,html/resources/sequences_IDs/A/06_scarf.jpg,html/resources/sequences_IDs/B/08_slipper.jpg,6,8,3,2,3,2,5,6,0,63,,,,,,,,,,,,,,,,,,,,
,,,,,63,2020-07-04_17h35.41.976,retriever_ti,2020.1.3,Win32,60,Chrome,1536,864,,,,,,,,,,,,,,,,,3,,,,,,,,,,,,,,,,,,,,,,,,,,,2684.91429,171,right,0.43948,peacock       ,4,5,-4,0,3,2684.946675,2684.946675,2687.447105,0,16,16,16,1,171,8,4,wolf          ,peacock       ,html/resources/sequences_IDs/A/01_wolf.jpg,html/resources/sequences_IDs/A/05_peacock.jpg,1,5,1,1,2,1,1,4,0,63,,,,,,,,,,,,,,,,,,,,
,,,,,63,2020-07-04_17h35.41.976,retriever_ti,2020.1.3,Win32,60,Chrome,1536,864,,,,,,,,,,,,,,,,,3,,,,,,,,,,,,,,,,,,,,,,,,,,,2688.048235,172,left,0.537115,radio       ,5,10,1,1,1,2688.090635,2688.090635,2690.56514,0,17,17,17,1,172,5,4,radio       ,peacock       ,html/resources/sequences_IDs/B/10_radio.jpg,html/resources/sequences_IDs/A/05_peacock.jpg,10,5,4,2,2,1,8,4,0,63,,,,,,,,,,,,,,,,,,,,
,,,,,63,2020-07-04_17h35.41.976,retriever_ti,2020.1.3,Win32,60,Chrome,1536,864,,,,,,,,,,,,,,,,,3,,,,,,,,,,,,,,,,,,,,,,,,,,,2691.666525,173,right,0.663155,slipper     ,1,8,-2,0,3,2691.776625,2691.776625,2694.20117,0,18,18,18,1,173,3,1,holdfast    ,slipper     ,html/resources/sequences_IDs/B/04_holdfast.jpg,html/resources/sequences_IDs/B/08_slipper.jpg,4,8,2,1,3,2,3,6,0,63,,,,,,,,,,,,,,,,,,,,
,,,,,63,2020-07-04_17h35.41.976,retriever_ti,2020.1.3,Win32,60,Chrome,1536,864,,,,,,,,,,,,,,,,,3,,,,,,,,,,,,,,,,,,,,,,,,,,,2694.802415,174,left,0.63108,calculator    ,2,9,-5,0,3,2694.819085,2694.819085,2697.31916,0,19,19,19,1,174,2,7,calculator    ,dolphin     ,html/resources/sequences_IDs/A/09_calculator.jpg,html/resources/sequences_IDs/B/02_dolphin.jpg,9,2,4,2,1,1,7,2,0,63,,,,,,,,,,,,,,,,,,,,
,,,,,63,2020-07-04_17h35.41.976,retriever_ti,2020.1.3,Win32,60,Chrome,1536,864,,,,,,,,,,,,,,,,,3,,,,,,,,,,,,,,,,,,,,,,,,,,,2697.920195,175,left,0.33475,holdfast    ,3,4,-4,0,3,2697.93872,2697.93872,2700.437855,0,20,20,20,1,175,3,7,holdfast    ,dolphin     ,html/resources/sequences_IDs/B/04_holdfast.jpg,html/resources/sequences_IDs/B/02_dolphin.jpg,4,2,2,1,1,1,3,2,0,63,,,,,,,,,,,,,,,,,,,,
,,,,,63,2020-07-04_17h35.41.976,retriever_ti,2020.1.3,Win32,60,Chrome,1536,864,,,,,,,,,,,,,,,,,3,,,,,,,,,,,,,,,,,,,,,,,,,,,2701.05599,176,left,0.886625,calculator    ,2,9,-2,0,3,2701.08964,2701.08964,2703.589695,0,21,21,21,1,176,2,4,calculator    ,peacock       ,html/resources/sequences_IDs/A/09_calculator.jpg,html/resources/sequences_IDs/A/05_peacock.jpg,9,5,4,2,2,1,7,4,0,63,,,,,,,,,,,,,,,,,,,,
,,,,,63,2020-07-04_17h35.41.976,retriever_ti,2020.1.3,Win32,60,Chrome,1536,864,,,,,,,,,,,,,,,,,3,,,,,,,,,,,,,,,,,,,,,,,,,,,2704.190695,177,right,0.515795,scarf         ,6,6,-2,0,3,2704.22467,2704.22467,2706.72536,0,22,22,22,1,177,8,6,wolf          ,scarf         ,html/resources/sequences_IDs/A/01_wolf.jpg,html/resources/sequences_IDs/A/06_scarf.jpg,1,6,1,1,3,2,1,5,0,63,,,,,,,,,,,,,,,,,,,,
,,,,,63,2020-07-04_17h35.41.976,retriever_ti,2020.1.3,Win32,60,Chrome,1536,864,,,,,,,,,,,,,,,,,3,,,,,,,,,,,,,,,,,,,,,,,,,,,2707.34246,178,right,0.9691,holdfast    ,3,4,-1,0,0,2707.51464,2707.51464,2709.87609,0,23,23,23,1,178,4,3,peacock       ,holdfast    ,html/resources/sequences_IDs/A/05_peacock.jpg,html/resources/sequences_IDs/B/04_holdfast.jpg,5,4,2,1,2,1,4,3,0,63,,,,,,,,,,,,,,,,,,,,
,,,,,63,2020-07-04_17h35.41.976,retriever_ti,2020.1.3,Win32,60,Chrome,1536,864,,,,,,,,,,,,,,,,,3,,,,,,,,,,,,,,,,,,,,,,,,,,,2710.9783,179,left,0.36884,slipper     ,1,8,-3,0,3,2711.012215,2711.012215,2713.512065,0,24,24,24,1,179,1,4,slipper     ,peacock       ,html/resources/sequences_IDs/B/08_slipper.jpg,html/resources/sequences_IDs/A/05_peacock.jpg,8,5,3,2,2,1,6,4,0,63,,,,,,,,,,,,,,,,,,,,
,,,,,63,2020-07-04_17h35.41.976,retriever_ti,2020.1.3,Win32,60,Chrome,1536,864,,,,,,,,,,,,,,,,,3,,,,,,,,,,,,,,,,,,,,,,,,,,,2714.112835,180,right,0.608525,radio       ,5,10,1,1,1,2714.14704,2714.14704,2716.648445,0,25,25,25,1,180,4,5,peacock       ,radio       ,html/resources/sequences_IDs/A/05_peacock.jpg,html/resources/sequences_IDs/B/10_radio.jpg,5,10,2,1,4,2,4,8,0,63,,,,,,,,,,,,,,,,,,,,
,,,,,63,2020-07-04_17h35.41.976,retriever_ti,2020.1.3,Win32,60,Chrome,1536,864,,,,,,,,,,,,,,,,,3,,,,,,,,,,,,,,,,,,,,,,,,,,,2717.74924,181,right,0.355945,wolf          ,8,1,1,1,1,2717.766065,2717.766065,2720.266165,0,26,26,26,1,181,7,8,dolphin     ,wolf          ,html/resources/sequences_IDs/B/02_dolphin.jpg,html/resources/sequences_IDs/A/01_wolf.jpg,2,1,1,1,1,1,2,1,0,63,,,,,,,,,,,,,,,,,,,,
,,,,,63,2020-07-04_17h35.41.976,retriever_ti,2020.1.3,Win32,60,Chrome,1536,864,,,,,,,,,,,,,,,,,3,,,,,,,,,,,,,,,,,,,,,,,,,,,2721.36801,182,right,0.609415,radio       ,5,10,4,1,3,2721.402195,2721.402195,2723.90147,0,27,27,27,1,182,1,5,slipper     ,radio       ,html/resources/sequences_IDs/B/08_slipper.jpg,html/resources/sequences_IDs/B/10_radio.jpg,8,10,3,2,4,2,6,8,0,63,,,,,,,,,,,,,,,,,,,,
,,,,,63,2020-07-04_17h35.41.976,retriever_ti,2020.1.3,Win32,60,Chrome,1536,864,,,,,,,,,,,,,,,,,3,,,,,,,,,,,,,,,,,,,,,,,,,,,2724.524145,183,right,0.8487,calculator    ,2,9,-4,0,3,2724.569545,2724.569545,2727.069745,0,28,28,28,1,183,6,2,scarf         ,calculator    ,html/resources/sequences_IDs/A/06_scarf.jpg,html/resources/sequences_IDs/A/09_calculator.jpg,6,9,3,2,4,2,5,7,0,63,,,,,,,,,,,,,,,,,,,,
,,,,,63,2020-07-04_17h35.41.976,retriever_ti,2020.1.3,Win32,60,Chrome,1536,864,,,,,,,,,,,,,,,,,3,,,,,,,,,,,,,,,,,,,,,,,,,,,2727.670735,184,right,0.56968,scarf         ,6,6,5,1,3,2727.705095,2727.705095,2730.20496,0,29,29,29,1,184,1,6,slipper     ,scarf         ,html/resources/sequences_IDs/B/08_slipper.jpg,html/resources/sequences_IDs/A/06_scarf.jpg,8,6,3,2,3,2,6,5,0,63,,,,,,,,,,,,,,,,,,,,
,,,,,63,2020-07-04_17h35.41.976,retriever_ti,2020.1.3,Win32,60,Chrome,1536,864,,,,,,,,,,,,,,,,,3,,,,,,,,,,,,,,,,,,,,,,,,,,,2730.823125,185,left,0.71799,wolf          ,8,1,1,1,1,2730.84026,2730.84026,2733.373755,0,30,30,30,1,185,8,7,wolf          ,dolphin     ,html/resources/sequences_IDs/A/01_wolf.jpg,html/resources/sequences_IDs/B/02_dolphin.jpg,1,2,1,1,1,1,1,2,0,63,,,,,,,,,,,,,,,,,,,,
,,,,,63,2020-07-04_17h35.41.976,retriever_ti,2020.1.3,Win32,60,Chrome,1536,864,,,,,,,,,,,,,,,,,3,,,,,,,,,,,,,,,,,,,,,,,,,,,2734.47539,186,left,0.739665,calculator    ,2,9,1,1,1,2734.491915,2734.491915,2736.992865,0,31,31,31,1,186,2,1,calculator    ,slipper     ,html/resources/sequences_IDs/A/09_calculator.jpg,html/resources/sequences_IDs/B/08_slipper.jpg,9,8,4,2,3,2,7,6,0,63,,,,,,,,,,,,,,,,,,,,
,,,,,63,2020-07-04_17h35.41.976,retriever_ti,2020.1.3,Win32,60,Chrome,1536,864,,,,,,,,,,,,,,,,,3,,,,,,,,,,,,,,,,,,,,,,,,,,,2738.140555,187,right,0.99367,holdfast    ,3,4,1,1,1,2738.162245,2738.162245,2740.66144,0,32,32,32,1,187,2,3,calculator    ,holdfast    ,html/resources/sequences_IDs/A/09_calculator.jpg,html/resources/sequences_IDs/B/04_holdfast.jpg,9,4,4,2,2,1,7,3,0,63,,,,,,,,,,,,,,,,,,,,
,,,,,63,2020-07-04_17h35.41.976,retriever_ti,2020.1.3,Win32,60,Chrome,1536,864,,,,,,,,,,,,,,,,,3,,,,,,,,,,,,,,,,,,,,,,,,,,,2741.76264,188,left,0.822675,calculator    ,2,9,1,1,0,2741.77952,2741.77952,2744.26678,0,33,33,33,1,188,2,1,calculator    ,slipper     ,html/resources/sequences_IDs/A/09_calculator.jpg,html/resources/sequences_IDs/B/08_slipper.jpg,9,8,4,2,3,2,7,6,1,63,,,,,,,,,,,,,,,,,,,,
,,,,,63,2020-07-04_17h35.41.976,retriever_ti,2020.1.3,Win32,60,Chrome,1536,864,,,,,,,,,,,,,,,,,3,,,,,,,,,,,,,,,,,,,,,,,,,,,2745.381235,189,left,1.310415,holdfast    ,3,4,-5,0,3,2745.41502,2745.41502,2747.915435,0,34,34,34,1,189,3,8,holdfast    ,wolf          ,html/resources/sequences_IDs/B/04_holdfast.jpg,html/resources/sequences_IDs/A/01_wolf.jpg,4,1,2,1,1,1,3,1,0,63,,,,,,,,,,,,,,,,,,,,
,,,,,63,2020-07-04_17h35.41.976,retriever_ti,2020.1.3,Win32,60,Chrome,1536,864,,,,,,,,,,,,,,,,,3,,,,,,,,,,,,,,,,,,,,,,,,,,,2748.517225,190,right,0.90382,calculator    ,2,9,-5,0,3,2748.59915,2748.59915,2751.051605,0,35,35,35,1,190,7,2,dolphin     ,calculator    ,html/resources/sequences_IDs/B/02_dolphin.jpg,html/resources/sequences_IDs/A/09_calculator.jpg,2,9,1,1,4,2,2,7,0,63,,,,,,,,,,,,,,,,,,,,
,,,,,63,2020-07-04_17h35.41.976,retriever_ti,2020.1.3,Win32,60,Chrome,1536,864,,,,,,,,,,,,,,,,,3,,,,,,,,,,,,,,,,,,,,,,,,,,,2751.65252,191,right,0.727175,radio       ,5,10,1,1,1,2751.68565,2751.68565,2754.186505,0,36,36,36,1,191,4,5,peacock       ,radio       ,html/resources/sequences_IDs/A/05_peacock.jpg,html/resources/sequences_IDs/B/10_radio.jpg,5,10,2,1,4,2,4,8,0,63,,,,,,,,,,,,,,,,,,,,
,,,,,63,2020-07-04_17h35.41.976,retriever_ti,2020.1.3,Win32,60,Chrome,1536,864,,,,,,,,,,,,,,,,,3,,,,,,,,,,,,,,,,,,,,,,,,,,,2755.286425,192,left,0.890355,scarf         ,6,6,-1,0,0,2755.321465,2755.321465,2757.821145,0,37,37,37,1,192,6,7,scarf         ,dolphin     ,html/resources/sequences_IDs/A/06_scarf.jpg,html/resources/sequences_IDs/B/02_dolphin.jpg,6,2,3,2,1,1,5,2,0,63,,,,,,,,,,,,,,,,,,,,
,,,,,63,2020-07-04_17h35.41.976,retriever_ti,2020.1.3,Win32,60,Chrome,1536,864,,,,,,,,,,,,,,,,,3,,,,,,,,,,,,,,,,,,,,,,,,,,,2758.922445,193,left,0.623885,dolphin     ,7,2,4,1,3,2758.95552,2758.95552,2761.456135,0,38,38,38,1,193,7,3,dolphin     ,holdfast    ,html/resources/sequences_IDs/B/02_dolphin.jpg,html/resources/sequences_IDs/B/04_holdfast.jpg,2,4,1,1,2,1,2,3,0,63,,,,,,,,,,,,,,,,,,,,
,,,,,63,2020-07-04_17h35.41.976,retriever_ti,2020.1.3,Win32,60,Chrome,1536,864,,,,,,,,,,,,,,,,,3,,,,,,,,,,,,,,,,,,,,,,,,,,,2762.239075,194,left,1.349975,scarf         ,6,6,1,1,1,2762.369455,2762.369455,2764.77469,0,39,39,39,1,194,6,5,scarf         ,radio       ,html/resources/sequences_IDs/A/06_scarf.jpg,html/resources/sequences_IDs/B/10_radio.jpg,6,10,3,2,4,2,5,8,0,63,,,,,,,,,,,,,,,,,,,,
,,,,,63,2020-07-04_17h35.41.976,retriever_ti,2020.1.3,Win32,60,Chrome,1536,864,,,,,,,,,,,,,,,,,3,,,,,,,,,,,,,,,,,,,,,,,,,,,2765.876545,195,right,0.96721,calculator    ,2,9,-3,0,3,2765.893725,2765.893725,2768.3946,0,40,40,40,1,195,5,2,radio       ,calculator    ,html/resources/sequences_IDs/B/10_radio.jpg,html/resources/sequences_IDs/A/09_calculator.jpg,10,9,4,2,4,2,8,7,0,63,,,,,,,,,,,,,,,,,,,,
,,,,,63,2020-07-04_17h35.41.976,retriever_ti,2020.1.3,Win32,60,Chrome,1536,864,,,,,,,,,,,,,,,,,3,,,,,,,,,,,,,,,,,,,,,,,,,,,2769.01182,196,left,0.95467,holdfast    ,3,4,-1,0,0,2769.029145,2769.029145,2771.529475,0,41,41,41,1,196,3,4,holdfast    ,peacock       ,html/resources/sequences_IDs/B/04_holdfast.jpg,html/resources/sequences_IDs/A/05_peacock.jpg,4,5,2,1,2,1,3,4,0,63,,,,,,,,,,,,,,,,,,,,
,,,,,63,2020-07-04_17h35.41.976,retriever_ti,2020.1.3,Win32,60,Chrome,1536,864,,,,,,,,,,,,,,,,,3,,,,,,,,,,,,,,,,,,,,,,,,,,,2772.629765,197,left,1.654505,calculator    ,2,9,-1,0,0,2772.6476,2772.6476,2775.14899,0,42,42,42,1,197,2,3,calculator    ,holdfast    ,html/resources/sequences_IDs/A/09_calculator.jpg,html/resources/sequences_IDs/B/04_holdfast.jpg,9,4,4,2,2,1,7,3,0,63,,,,,,,,,,,,,,,,,,,,
,,,,,63,2020-07-04_17h35.41.976,retriever_ti,2020.1.3,Win32,60,Chrome,1536,864,,,,,,,,,,,,,,,,,3,,,,,,,,,,,,,,,,,,,,,,,,,,,2776.248895,198,right,1.16213,peacock       ,4,5,-1,0,0,2776.282285,2776.282285,2778.78239,0,43,43,43,1,198,5,4,radio       ,peacock       ,html/resources/sequences_IDs/B/10_radio.jpg,html/resources/sequences_IDs/A/05_peacock.jpg,10,5,4,2,2,1,8,4,0,63,,,,,,,,,,,,,,,,,,,,
,,,,,63,2020-07-04_17h35.41.976,retriever_ti,2020.1.3,Win32,60,Chrome,1536,864,,,,,,,,,,,,,,,,,3,,,,,,,,,,,,,,,,,,,,,,,,,,,2779.8844,199,right,0.86821,holdfast    ,3,4,2,1,3,2779.995835,2779.995835,2782.41826,0,44,44,44,1,199,1,3,slipper     ,holdfast    ,html/resources/sequences_IDs/B/08_slipper.jpg,html/resources/sequences_IDs/B/04_holdfast.jpg,8,4,3,2,2,1,6,3,0,63,,,,,,,,,,,,,,,,,,,,
,,,,,63,2020-07-04_17h35.41.976,retriever_ti,2020.1.3,Win32,60,Chrome,1536,864,,,,,,,,,,,,,,,,,3,,,,,,,,,,,,,,,,,,,,,,,,,,,2783.036245,200,right,1.17101,holdfast    ,3,4,-2,0,3,2783.0706,2783.0706,2785.569735,0,45,45,45,1,200,5,3,radio       ,holdfast    ,html/resources/sequences_IDs/B/10_radio.jpg,html/resources/sequences_IDs/B/04_holdfast.jpg,10,4,4,2,2,1,8,3,0,63,,,,,,,,,,,,,,,,,,,,
,,,,,63,2020-07-04_17h35.41.976,retriever_ti,2020.1.3,Win32,60,Chrome,1536,864,,,,,,,,,,,,,,,,,3,,,,,,,,,,,,,,,,,,,,,,,,,,,2786.17128,201,left,0.944385,peacock       ,4,5,-4,0,3,2786.188165,2786.188165,2788.688335,0,46,46,46,1,201,4,8,peacock       ,wolf          ,html/resources/sequences_IDs/A/05_peacock.jpg,html/resources/sequences_IDs/A/01_wolf.jpg,5,1,2,1,1,1,4,1,0,63,,,,,,,,,,,,,,,,,,,,
,,,,,63,2020-07-04_17h35.41.976,retriever_ti,2020.1.3,Win32,60,Chrome,1536,864,,,,,,,,,,,,,,,,,3,,,,,,,,,,,,,,,,,,,,,,,,,,,2789.291255,202,left,0.88235,scarf         ,6,6,3,1,3,2789.30665,2789.30665,2791.80826,0,47,47,47,1,202,6,3,scarf         ,holdfast    ,html/resources/sequences_IDs/A/06_scarf.jpg,html/resources/sequences_IDs/B/04_holdfast.jpg,6,4,3,2,2,1,5,3,0,63,,,,,,,,,,,,,,,,,,,,
,,,,,63,2020-07-04_17h35.41.976,retriever_ti,2020.1.3,Win32,60,Chrome,1536,864,,,,,,,,,,,,,,,,,3,,,,,,,,,,,,,,,,,,,,,,,,,,,2792.425115,203,right,0.977675,dolphin     ,7,2,1,1,0,2792.50427,2792.50427,2794.942595,0,48,48,48,1,203,6,7,scarf         ,dolphin     ,html/resources/sequences_IDs/A/06_scarf.jpg,html/resources/sequences_IDs/B/02_dolphin.jpg,6,2,3,2,1,1,5,2,1,63,,,,,,,,,,,,,,,,,,,,
,,,,,63,2020-07-04_17h35.41.976,retriever_ti,2020.1.3,Win32,60,Chrome,1536,864,,,,,,,,,,,,,,,,,3,,,,,,,,,,,,,,,,,,,,,,,,,,,2796.04377,204,right,0.69534,radio       ,5,10,-2,0,3,2796.07795,2796.07795,2798.57888,0,49,49,49,1,204,7,5,dolphin     ,radio       ,html/resources/sequences_IDs/B/02_dolphin.jpg,html/resources/sequences_IDs/B/10_radio.jpg,2,10,1,1,4,2,2,8,0,63,,,,,,,,,,,,,,,,,,,,
,,,,,63,2020-07-04_17h35.41.976,retriever_ti,2020.1.3,Win32,60,Chrome,1536,864,,,,,,,,,,,,,,,,,3,,,,,,,,,,,,,,,,,,,,,,,,,,,2799.2664,205,right,1.09864,wolf          ,8,1,1,1,1,2799.296665,2799.296665,2801.796135,0,50,50,50,1,205,7,8,dolphin     ,wolf          ,html/resources/sequences_IDs/B/02_dolphin.jpg,html/resources/sequences_IDs/A/01_wolf.jpg,2,1,1,1,1,1,2,1,0,63,,,,,,,,,,,,,,,,,,,,
,,,,,63,2020-07-04_17h35.41.976,retriever_ti,2020.1.3,Win32,60,Chrome,1536,864,,,,,,,,,,,,,,,,,3,,,,,,,,,,,,,,,,,,,,,,,,,,,2802.897835,206,left,0.91748,calculator    ,2,9,1,1,1,2803.05735,2803.05735,2805.41593,0,51,51,51,1,206,2,1,calculator    ,slipper     ,html/resources/sequences_IDs/A/09_calculator.jpg,html/resources/sequences_IDs/B/08_slipper.jpg,9,8,4,2,3,2,7,6,0,63,,,,,,,,,,,,,,,,,,,,
,,,,,63,2020-07-04_17h35.41.976,retriever_ti,2020.1.3,Win32,60,Chrome,1536,864,,,,,,,,,,,,,,,,,3,,,,,,,,,,,,,,,,,,,,,,,,,,,2806.516775,207,left,1.39818,radio       ,5,10,-3,0,3,2806.55043,2806.55043,2809.049875,0,52,52,52,1,207,5,8,radio       ,wolf          ,html/resources/sequences_IDs/B/10_radio.jpg,html/resources/sequences_IDs/A/01_wolf.jpg,10,1,4,2,1,1,8,1,0,63,,,,,,,,,,,,,,,,,,,,
,,,,,63,2020-07-04_17h35.41.976,retriever_ti,2020.1.3,Win32,60,Chrome,1536,864,,,,,,,,,,,,,,,,,3,,,,,,,,,,,,,,,,,,,,,,,,,,,2809.65087,208,left,0.749595,peacock       ,4,5,2,1,3,2809.668715,2809.668715,2812.1684,0,53,53,53,1,208,4,2,peacock       ,calculator    ,html/resources/sequences_IDs/A/05_peacock.jpg,html/resources/sequences_IDs/A/09_calculator.jpg,5,9,2,1,4,2,4,7,0,63,,,,,,,,,,,,,,,,,,,,
,,,,,63,2020-07-04_17h35.41.976,retriever_ti,2020.1.3,Win32,60,Chrome,1536,864,,,,,,,,,,,,,,,,,3,,,,,,,,,,,,,,,,,,,,,,,,,,,2812.77038,209,right,1.137905,scarf         ,6,6,2,1,3,2812.804205,2812.804205,2815.304015,0,54,54,54,1,209,4,6,peacock       ,scarf         ,html/resources/sequences_IDs/A/05_peacock.jpg,html/resources/sequences_IDs/A/06_scarf.jpg,5,6,2,1,3,2,4,5,0,63,,,,,,,,,,,,,,,,,,,,
,,,,,63,2020-07-04_17h35.41.976,retriever_ti,2020.1.3,Win32,60,Chrome,1536,864,,,,,,,,,,,,,,,,,3,,,,,,,,,,,,,,,,,,,,,,,,,,,2815.9214,210,right,0.97677,calculator    ,2,9,1,1,1,2815.938515,2815.938515,2818.4401,0,55,55,55,1,210,1,2,slipper     ,calculator    ,html/resources/sequences_IDs/B/08_slipper.jpg,html/resources/sequences_IDs/A/09_calculator.jpg,8,9,3,2,4,2,6,7,0,63,,,,,,,,,,,,,,,,,,,,
,,,,,63,2020-07-04_17h35.41.976,retriever_ti,2020.1.3,Win32,60,Chrome,1536,864,,,,,,,,,,,,,,,,,3,,,,,,,,,,,,,,,,,,,,,,,,,,,2819.54055,211,left,1.448375,scarf         ,6,6,2,1,3,2819.557475,2819.557475,2822.05896,0,56,56,56,1,211,6,4,scarf         ,peacock       ,html/resources/sequences_IDs/A/06_scarf.jpg,html/resources/sequences_IDs/A/05_peacock.jpg,6,5,3,2,2,1,5,4,0,63,,,,,,,,,,,,,,,,,,,,
