instructionsLoop.thisRepN,instructionsLoop.thisTrialN,instructionsLoop.thisN,instructionsLoop.thisIndex,instructionsLoop.ran,participant,date,expName,psychopyVersion,OS,frameRate,browser,xResolution,yResolution,fix_onset,tprac,practiceKey.keys,practiceKey.rt,pracitem_chosen_name,acc_practice,P1_onsetPrac,P2_onsetPrac,onsetFeedbPrac,practiceTrials.thisRepN,practiceTrials.thisTrialN,practiceTrials.thisN,practiceTrials.thisIndex,practiceTrials.ran,P1,P2,Block,LocItem1,LocItem2,NameItem1,NameItem2,key_respAC_prac.keys,key_respAC_prac.corr,key_respAC_prac.rt,AC_acc,Attentions.thisRepN,Attentions.thisTrialN,Attentions.thisN,Attentions.thisIndex,Attentions.ran,Stim,Loc1,Loc2,Loc3,Loc4,CorrAns,keyDisturbed.keys,keyDisturbed.rt,repPractice.thisRepN,repPractice.thisTrialN,repPractice.thisN,repPractice.thisIndex,repPractice.ran,fixcross_onsetMain,trialNumber,key_resp.keys,key_resp.rt,item_chosen_name,item_chosen_value,item_chosen_ID,diff_chosen_minus_reject,acc_real,acc_feedback,P1_onset,P2_onset,feedb_onset,trials.thisRepN,trials.thisTrialN,trials.thisN,trials.thisIndex,trials.ran,Trial,ValueP1,ValueP2,P1name,P2name,P1Loc,P2Loc,P1id,P2id,Micro_categoryP1,Macro_categoryP1,Micro_categoryP2,Macro_categoryP2,ID_sequenceP1,ID_sequenceP2,InverseFb,pNumber,repBlocks.thisRepN,repBlocks.thisTrialN,repBlocks.thisN,repBlocks.thisIndex,repBlocks.ran,key_respAC.keys,key_respAC.corr,key_respAC.rt,trials_AC.thisRepN,trials_AC.thisTrialN,trials_AC.thisN,trials_AC.thisIndex,trials_AC.ran,Bonus,BonusLoop.thisRepN,BonusLoop.thisTrialN,BonusLoop.thisN,BonusLoop.thisIndex,BonusLoop.ran,comments
0,0,0,0,1,66,2020-07-04_16h54.49.382,retriever_ti,2020.1.3,Win32,60,Chrome,1536,864,,,,,,,,,,,,,,,,,,,,,,,,,,,,,,,,,,,,,,,,,,,,,,,,,,,,,,,,,,,,,,,,,,,,,,,,,,,,,,,,,,,,,,,,,,,,,,,,,,
1,0,1,0,1,66,2020-07-04_16h54.49.382,retriever_ti,2020.1.3,Win32,60,Chrome,1536,864,,,,,,,,,,,,,,,,,,,,,,,,,,,,,,,,,,,,,,,,,,,,,,,,,,,,,,,,,,,,,,,,,,,,,,,,,,,,,,,,,,,,,,,,,,,,,,,,,,
2,0,2,0,1,66,2020-07-04_16h54.49.382,retriever_ti,2020.1.3,Win32,60,Chrome,1536,864,,,,,,,,,,,,,,,,,,,,,,,,,,,,,,,,,,,,,,,,,,,,,,,,,,,,,,,,,,,,,,,,,,,,,,,,,,,,,,,,,,,,,,,,,,,,,,,,,,
3,0,3,0,1,66,2020-07-04_16h54.49.382,retriever_ti,2020.1.3,Win32,60,Chrome,1536,864,,,,,,,,,,,,,,,,,,,,,,,,,,,,,,,,,,,,,,,,,,,,,,,,,,,,,,,,,,,,,,,,,,,,,,,,,,,,,,,,,,,,,,,,,,,,,,,,,,
4,0,4,0,1,66,2020-07-04_16h54.49.382,retriever_ti,2020.1.3,Win32,60,Chrome,1536,864,,,,,,,,,,,,,,,,,,,,,,,,,,,,,,,,,,,,,,,,,,,,,,,,,,,,,,,,,,,,,,,,,,,,,,,,,,,,,,,,,,,,,,,,,,,,,,,,,,
5,0,5,0,1,66,2020-07-04_16h54.49.382,retriever_ti,2020.1.3,Win32,60,Chrome,1536,864,,,,,,,,,,,,,,,,,,,,,,,,,,,,,,,,,,,,,,,,,,,,,,,,,,,,,,,,,,,,,,,,,,,,,,,,,,,,,,,,,,,,,,,,,,,,,,,,,,
6,0,6,0,1,66,2020-07-04_16h54.49.382,retriever_ti,2020.1.3,Win32,60,Chrome,1536,864,,,,,,,,,,,,,,,,,,,,,,,,,,,,,,,,,,,,,,,,,,,,,,,,,,,,,,,,,,,,,,,,,,,,,,,,,,,,,,,,,,,,,,,,,,,,,,,,,,
7,0,7,0,1,66,2020-07-04_16h54.49.382,retriever_ti,2020.1.3,Win32,60,Chrome,1536,864,,,,,,,,,,,,,,,,,,,,,,,,,,,,,,,,,,,,,,,,,,,,,,,,,,,,,,,,,,,,,,,,,,,,,,,,,,,,,,,,,,,,,,,,,,,,,,,,,,
8,0,8,0,1,66,2020-07-04_16h54.49.382,retriever_ti,2020.1.3,Win32,60,Chrome,1536,864,,,,,,,,,,,,,,,,,,,,,,,,,,,,,,,,,,,,,,,,,,,,,,,,,,,,,,,,,,,,,,,,,,,,,,,,,,,,,,,,,,,,,,,,,,,,,,,,,,
9,0,9,0,1,66,2020-07-04_16h54.49.382,retriever_ti,2020.1.3,Win32,60,Chrome,1536,864,,,,,,,,,,,,,,,,,,,,,,,,,,,,,,,,,,,,,,,,,,,,,,,,,,,,,,,,,,,,,,,,,,,,,,,,,,,,,,,,,,,,,,,,,,,,,,,,,,
10,0,10,0,1,66,2020-07-04_16h54.49.382,retriever_ti,2020.1.3,Win32,60,Chrome,1536,864,,,,,,,,,,,,,,,,,,,,,,,,,,,,,,,,,,,,,,,,,,,,,,,,,,,,,,,,,,,,,,,,,,,,,,,,,,,,,,,,,,,,,,,,,,,,,,,,,,
11,0,11,0,1,66,2020-07-04_16h54.49.382,retriever_ti,2020.1.3,Win32,60,Chrome,1536,864,,,,,,,,,,,,,,,,,,,,,,,,,,,,,,,,,,,,,,,,,,,,,,,,,,,,,,,,,,,,,,,,,,,,,,,,,,,,,,,,,,,,,,,,,,,,,,,,,,
12,0,12,0,1,66,2020-07-04_16h54.49.382,retriever_ti,2020.1.3,Win32,60,Chrome,1536,864,,,,,,,,,,,,,,,,,,,,,,,,,,,,,,,,,,,,,,,,,,,,,,,,,,,,,,,,,,,,,,,,,,,,,,,,,,,,,,,,,,,,,,,,,,,,,,,,,,
13,0,13,0,1,66,2020-07-04_16h54.49.382,retriever_ti,2020.1.3,Win32,60,Chrome,1536,864,,,,,,,,,,,,,,,,,,,,,,,,,,,,,,,,,,,,,,,,,,,,,,,,,,,,,,,,,,,,,,,,,,,,,,,,,,,,,,,,,,,,,,,,,,,,,,,,,,
14,0,14,0,1,66,2020-07-04_16h54.49.382,retriever_ti,2020.1.3,Win32,60,Chrome,1536,864,,,,,,,,,,,,,,,,,,,,,,,,,,,,,,,,,,,,,,,,,,,,,,,,,,,,,,,,,,,,,,,,,,,,,,,,,,,,,,,,,,,,,,,,,,,,,,,,,,
15,0,15,0,1,66,2020-07-04_16h54.49.382,retriever_ti,2020.1.3,Win32,60,Chrome,1536,864,,,,,,,,,,,,,,,,,,,,,,,,,,,,,,,,,,,,,,,,,,,,,,,,,,,,,,,,,,,,,,,,,,,,,,,,,,,,,,,,,,,,,,,,,,,,,,,,,,
16,0,16,0,1,66,2020-07-04_16h54.49.382,retriever_ti,2020.1.3,Win32,60,Chrome,1536,864,,,,,,,,,,,,,,,,,,,,,,,,,,,,,,,,,,,,,,,,,,,,,,,,,,,,,,,,,,,,,,,,,,,,,,,,,,,,,,,,,,,,,,,,,,,,,,,,,,
17,0,17,0,1,66,2020-07-04_16h54.49.382,retriever_ti,2020.1.3,Win32,60,Chrome,1536,864,,,,,,,,,,,,,,,,,,,,,,,,,,,,,,,,,,,,,,,,,,,,,,,,,,,,,,,,,,,,,,,,,,,,,,,,,,,,,,,,,,,,,,,,,,,,,,,,,,
18,0,18,0,1,66,2020-07-04_16h54.49.382,retriever_ti,2020.1.3,Win32,60,Chrome,1536,864,,,,,,,,,,,,,,,,,,,,,,,,,,,,,,,,,,,,,,,,,,,,,,,,,,,,,,,,,,,,,,,,,,,,,,,,,,,,,,,,,,,,,,,,,,,,,,,,,,
,,,,,66,2020-07-04_16h54.49.382,retriever_ti,2020.1.3,Win32,60,Chrome,1536,864,182.48572,1,right,1.70676,canary,1,182.499235,182.499235,184.998205,0,0,0,0,1,2,5,1,html/resources/stimuli_practice_decision/04_beetle.jpg,html/resources/stimuli_practice_decision/02_canary.jpg,beetle,canary,,,,,,,,,,,,,,,,,,,,,,,,,,,,,,,,,,,,,,,,,,,,,,,,,,,,,,,,,,,,,,,,,,,,,,,,,,,,,
,,,,,66,2020-07-04_16h54.49.382,retriever_ti,2020.1.3,Win32,60,Chrome,1536,864,185.559355,2,left,1.177155,rabbit,1,185.58263,185.58263,188.08093,0,1,1,1,1,4,3,1,html/resources/stimuli_practice_decision/01_rabbit.jpg,html/resources/stimuli_practice_decision/07_sock.jpg,rabbit,sock,,,,,,,,,,,,,,,,,,,,,,,,,,,,,,,,,,,,,,,,,,,,,,,,,,,,,,,,,,,,,,,,,,,,,,,,,,,,,
,,,,,66,2020-07-04_16h54.49.382,retriever_ti,2020.1.3,Win32,60,Chrome,1536,864,189.08229,3,left,1.23841,pullover,1,189.11581,189.11581,191.614795,0,2,2,2,1,6,2,1,html/resources/stimuli_practice_decision/06_pullover.jpg,html/resources/stimuli_practice_decision/04_beetle.jpg,pullover,beetle,,,,,,,,,,,,,,,,,,,,,,,,,,,,,,,,,,,,,,,,,,,,,,,,,,,,,,,,,,,,,,,,,,,,,,,,,,,,,
,,,,,66,2020-07-04_16h54.49.382,retriever_ti,2020.1.3,Win32,60,Chrome,1536,864,192.132005,4,right,1.150905,handmixer,0,192.14918,192.14918,194.648025,0,3,3,3,1,7,1,1,html/resources/stimuli_practice_decision/05_glasses.jpg,html/resources/stimuli_practice_decision/08_handmixer.jpg,glasses,handmixer,,,,,,,,,,,,,,,,,,,,,,,,,,,,,,,,,,,,,,,,,,,,,,,,,,,,,,,,,,,,,,,,,,,,,,,,,,,,,
,,,,,66,2020-07-04_16h54.49.382,retriever_ti,2020.1.3,Win32,60,Chrome,1536,864,195.16622,5,left,1.208895,glasses,1,195.19925,195.19925,197.697915,0,4,4,4,1,7,6,1,html/resources/stimuli_practice_decision/05_glasses.jpg,html/resources/stimuli_practice_decision/06_pullover.jpg,glasses,pullover,,,,,,,,,,,,,,,,,,,,,,,,,,,,,,,,,,,,,,,,,,,,,,,,,,,,,,,,,,,,,,,,,,,,,,,,,,,,,
,,,,,66,2020-07-04_16h54.49.382,retriever_ti,2020.1.3,Win32,60,Chrome,1536,864,198.698755,6,left,1.47787,rabbit,0,198.716415,198.716415,201.214815,0,5,5,5,1,4,7,1,html/resources/stimuli_practice_decision/01_rabbit.jpg,html/resources/stimuli_practice_decision/05_glasses.jpg,rabbit,glasses,,,,,,,,,,,,,,,,,,,,,,,,,,,,,,,,,,,,,,,,,,,,,,,,,,,,,,,,,,,,,,,,,,,,,,,,,,,,,
,,,,,66,2020-07-04_16h54.49.382,retriever_ti,2020.1.3,Win32,60,Chrome,1536,864,201.73256,7,left,1.30675,handmixer,0,201.766775,201.766775,204.26484,0,6,6,6,1,1,2,1,html/resources/stimuli_practice_decision/08_handmixer.jpg,html/resources/stimuli_practice_decision/04_beetle.jpg,handmixer,beetle,,,,,,,,,,,,,,,,,,,,,,,,,,,,,,,,,,,,,,,,,,,,,,,,,,,,,,,,,,,,,,,,,,,,,,,,,,,,,
,,,,,66,2020-07-04_16h54.49.382,retriever_ti,2020.1.3,Win32,60,Chrome,1536,864,205.265565,8,left,1.4944,rabbit,1,205.283305,205.283305,207.781685,0,7,7,7,1,4,3,1,html/resources/stimuli_practice_decision/01_rabbit.jpg,html/resources/stimuli_practice_decision/07_sock.jpg,rabbit,sock,,,,,,,,,,,,,,,,,,,,,,,,,,,,,,,,,,,,,,,,,,,,,,,,,,,,,,,,,,,,,,,,,,,,,,,,,,,,,
,,,,,66,2020-07-04_16h54.49.382,retriever_ti,2020.1.3,Win32,60,Chrome,1536,864,,,,,,,,,,,,,,,,,,,,,,down,1,1.76363,1,0,0,0,3,1,html/resources/sequences_IDs/triangle.png,star ↑,square →,triangle ↓,← circle,down,,,,,,,,,,,,,,,,,,,,,,,,,,,,,,,,,,,,,,,,,,,,,,,,,,,,,,,,,,,,,,
,,,,,66,2020-07-04_16h54.49.382,retriever_ti,2020.1.3,Win32,60,Chrome,1536,864,,,,,,,,,,,,,,,,,,,,,,left,1,1.67838,1,0,1,1,2,1,html/resources/sequences_IDs/square1.png,star ↑,triangle →,circle ↓,← square,left,,,,,,,,,,,,,,,,,,,,,,,,,,,,,,,,,,,,,,,,,,,,,,,,,,,,,,,,,,,,,,
,,,,,66,2020-07-04_16h54.49.382,retriever_ti,2020.1.3,Win32,60,Chrome,1536,864,,,,,,,,,,,,,,,,,,,,,,up,1,1.587825,1,0,2,2,0,1,html/resources/sequences_IDs/circle.png,circle ↑,square →,triangle ↓,← star ,up,,,,,,,,,,,,,,,,,,,,,,,,,,,,,,,,,,,,,,,,,,,,,,,,,,,,,,,,,,,,,,
,,,,,66,2020-07-04_16h54.49.382,retriever_ti,2020.1.3,Win32,60,Chrome,1536,864,,,,,,,,,,,,,,,,,,,,,,down,1,1.52998,1,0,3,3,1,1,html/resources/sequences_IDs/star.png,square ↑,circle →,star ↓,← triangle,down,,,,,,,,,,,,,,,,,,,,,,,,,,,,,,,,,,,,,,,,,,,,,,,,,,,,,,,,,,,,,,
,,,,,66,2020-07-04_16h54.49.382,retriever_ti,2020.1.3,Win32,60,Chrome,1536,864,,,,,,,,,,,,,,,,,,,,,,,,,,,,,,,,,,,,,0,12.744875,0,0,0,0,1,,,,,,,,,,,,,,,,,,,,,,,,,,,,,,,,,,,,,,,,,,,,,,,,,,,,,,,
,,,,,66,2020-07-04_16h54.49.382,retriever_ti,2020.1.3,Win32,60,Chrome,1536,864,233.759145,9,right,0.898105,glasses,1,233.78432,233.78432,236.28323,0,0,0,0,1,6,7,1,html/resources/stimuli_practice_decision/06_pullover.jpg,html/resources/stimuli_practice_decision/05_glasses.jpg,pullover,glasses,,,,,,,,,,,,,,,,,,,,,,,,,,,,,,,,,,,,,,,,,,,,,,,,,,,,,,,,,,,,,,,,,,,,,,,,,,,,,
,,,,,66,2020-07-04_16h54.49.382,retriever_ti,2020.1.3,Win32,60,Chrome,1536,864,237.283735,10,NaN,NaN,No_response,2,237.30124,237.30124,239.80009,0,1,1,1,1,6,2,1,html/resources/stimuli_practice_decision/06_pullover.jpg,html/resources/stimuli_practice_decision/04_beetle.jpg,pullover,beetle,,,,,,,,,,,,,,,,,,,,,,,,,,,,,,,,,,,,,,,,,,,,,,,,,,,,,,,,,,,,,,,,,,,,,,,,,,,,,
,,,,,66,2020-07-04_16h54.49.382,retriever_ti,2020.1.3,Win32,60,Chrome,1536,864,240.80131,11,left,0.899245,canary,0,240.818075,240.818075,243.3166,0,2,2,2,1,5,6,1,html/resources/stimuli_practice_decision/02_canary.jpg,html/resources/stimuli_practice_decision/06_pullover.jpg,canary,pullover,,,,,,,,,,,,,,,,,,,,,,,,,,,,,,,,,,,,,,,,,,,,,,,,,,,,,,,,,,,,,,,,,,,,,,,,,,,,,
,,,,,66,2020-07-04_16h54.49.382,retriever_ti,2020.1.3,Win32,60,Chrome,1536,864,244.31754,12,right,1.434645,glasses,0,244.352015,244.352015,246.849935,0,3,3,3,1,8,7,1,html/resources/stimuli_practice_decision/03_squirrel.jpg,html/resources/stimuli_practice_decision/05_glasses.jpg,squirrel,glasses,,,,,,,,,,,,,,,,,,,,,,,,,,,,,,,,,,,,,,,,,,,,,,,,,,,,,,,,,,,,,,,,,,,,,,,,,,,,,
,,,,,66,2020-07-04_16h54.49.382,retriever_ti,2020.1.3,Win32,60,Chrome,1536,864,247.8516,13,right,1.850685,sock,0,247.885565,247.885565,250.38372,0,4,4,4,1,5,3,1,html/resources/stimuli_practice_decision/02_canary.jpg,html/resources/stimuli_practice_decision/07_sock.jpg,canary,sock,,,,,,,,,,,,,,,,,,,,,,,,,,,,,,,,,,,,,,,,,,,,,,,,,,,,,,,,,,,,,,,,,,,,,,,,,,,,,
,,,,,66,2020-07-04_16h54.49.382,retriever_ti,2020.1.3,Win32,60,Chrome,1536,864,250.900785,14,right,1.45523,squirrel,1,250.91879,250.91879,253.417065,0,5,5,5,1,7,8,1,html/resources/stimuli_practice_decision/05_glasses.jpg,html/resources/stimuli_practice_decision/03_squirrel.jpg,glasses,squirrel,,,,,,,,,,,,,,,,,,,,,,,,,,,,,,,,,,,,,,,,,,,,,,,,,,,,,,,,,,,,,,,,,,,,,,,,,,,,,
,,,,,66,2020-07-04_16h54.49.382,retriever_ti,2020.1.3,Win32,60,Chrome,1536,864,254.418575,15,right,1.88973,rabbit,0,254.452555,254.452555,256.950595,0,6,6,6,1,5,4,1,html/resources/stimuli_practice_decision/02_canary.jpg,html/resources/stimuli_practice_decision/01_rabbit.jpg,canary,rabbit,,,,,,,,,,,,,,,,,,,,,,,,,,,,,,,,,,,,,,,,,,,,,,,,,,,,,,,,,,,,,,,,,,,,,,,,,,,,,
,,,,,66,2020-07-04_16h54.49.382,retriever_ti,2020.1.3,Win32,60,Chrome,1536,864,257.95126,16,left,0.93367,canary,1,257.96952,257.96952,260.467415,0,7,7,7,1,5,3,1,html/resources/stimuli_practice_decision/02_canary.jpg,html/resources/stimuli_practice_decision/07_sock.jpg,canary,sock,,,,,,,,,,,,,,,,,,,,,,,,,,,,,,,,,,,,,,,,,,,,,,,,,,,,,,,,,,,,,,,,,,,,,,,,,,,,,
,,,,,66,2020-07-04_16h54.49.382,retriever_ti,2020.1.3,Win32,60,Chrome,1536,864,,,,,,,,,,,,,,,,,,,,,,down,1,1.70091,1,0,0,0,1,1,html/resources/sequences_IDs/star.png,square ↑,circle →,star ↓,← triangle,down,,,,,,,,,,,,,,,,,,,,,,,,,,,,,,,,,,,,,,,,,,,,,,,,,,,,,,,,,,,,,,
,,,,,66,2020-07-04_16h54.49.382,retriever_ti,2020.1.3,Win32,60,Chrome,1536,864,,,,,,,,,,,,,,,,,,,,,,down,1,1.075125,1,0,1,1,3,1,html/resources/sequences_IDs/triangle.png,star ↑,square →,triangle ↓,← circle,down,,,,,,,,,,,,,,,,,,,,,,,,,,,,,,,,,,,,,,,,,,,,,,,,,,,,,,,,,,,,,,
,,,,,66,2020-07-04_16h54.49.382,retriever_ti,2020.1.3,Win32,60,Chrome,1536,864,,,,,,,,,,,,,,,,,,,,,,left,1,0.98115,1,0,2,2,2,1,html/resources/sequences_IDs/square1.png,star ↑,triangle →,circle ↓,← square,left,,,,,,,,,,,,,,,,,,,,,,,,,,,,,,,,,,,,,,,,,,,,,,,,,,,,,,,,,,,,,,
,,,,,66,2020-07-04_16h54.49.382,retriever_ti,2020.1.3,Win32,60,Chrome,1536,864,,,,,,,,,,,,,,,,,,,,,,up,1,0.9247,1,0,3,3,0,1,html/resources/sequences_IDs/circle.png,circle ↑,square →,triangle ↓,← star ,up,,,,,,,,,,,,,,,,,,,,,,,,,,,,,,,,,,,,,,,,,,,,,,,,,,,,,,,,,,,,,,
,,,,,66,2020-07-04_16h54.49.382,retriever_ti,2020.1.3,Win32,60,Chrome,1536,864,,,,,,,,,,,,,,,,,,,,,,,,,,,,,,,,,,,,,1,5.24821,1,0,1,0,1,,,,,,,,,,,,,,,,,,,,,,,,,,,,,,,,,,,,,,,,,,,,,,,,,,,,,,,
,,,,,66,2020-07-04_16h54.49.382,retriever_ti,2020.1.3,Win32,60,Chrome,1536,864,,,,,,,,,,,,,,,,,1,,,,,,,,,,,,,,,,,,,,,,,,,,,285.29661,1,right,1.49035,parrot      ,1,5,-1,0,0,285.337275,285.337275,287.83685,0,0,0,0,1,1,2,1,scarf         ,parrot      ,html/resources/sequences_IDs/A/06_scarf.jpg,html/resources/sequences_IDs/B/05_parrot.jpg,6,5,3,2,2,1,5,4,0,66,,,,,,,,,,,,,,,,,,,,
,,,,,66,2020-07-04_16h54.49.382,retriever_ti,2020.1.3,Win32,60,Chrome,1536,864,,,,,,,,,,,,,,,,,1,,,,,,,,,,,,,,,,,,,,,,,,,,,288.93754,2,left,1.375095,satellite_dish,4,10,-4,0,3,288.953665,288.953665,291.452195,0,1,1,1,1,2,4,8,satellite_dish,camel         ,html/resources/sequences_IDs/A/10_satellite_dish.jpg,html/resources/sequences_IDs/A/03_camel.jpg,10,3,4,2,1,1,8,2,0,66,,,,,,,,,,,,,,,,,,,,
,,,,,66,2020-07-04_16h54.49.382,retriever_ti,2020.1.3,Win32,60,Chrome,1536,864,,,,,,,,,,,,,,,,,1,,,,,,,,,,,,,,,,,,,,,,,,,,,292.05328,3,NaN,NaN,No_response,NaN,NaN,NaN,2,2,292.087555,292.087555,294.585995,0,2,2,2,1,3,6,7,clownfish     ,phone       ,html/resources/sequences_IDs/A/04_clownfish.jpg,html/resources/sequences_IDs/B/09_phone.jpg,4,9,2,1,4,2,3,7,0,66,,,,,,,,,,,,,,,,,,,,
,,,,,66,2020-07-04_16h54.49.382,retriever_ti,2020.1.3,Win32,60,Chrome,1536,864,,,,,,,,,,,,,,,,,1,,,,,,,,,,,,,,,,,,,,,,,,,,,295.687225,4,left,1.63352,satellite_dish,4,10,3,1,3,295.72056,295.72056,298.21937,0,3,3,3,1,4,4,1,satellite_dish,parrot      ,html/resources/sequences_IDs/A/10_satellite_dish.jpg,html/resources/sequences_IDs/B/05_parrot.jpg,10,5,4,2,2,1,8,4,0,66,,,,,,,,,,,,,,,,,,,,
,,,,,66,2020-07-04_16h54.49.382,retriever_ti,2020.1.3,Win32,60,Chrome,1536,864,,,,,,,,,,,,,,,,,1,,,,,,,,,,,,,,,,,,,,,,,,,,,298.836685,5,left,1.537035,parrot      ,1,5,-4,0,3,298.85451,298.85451,301.35292,0,4,4,4,1,5,1,5,parrot      ,sport_tshirt,html/resources/sequences_IDs/B/05_parrot.jpg,html/resources/sequences_IDs/B/07_sport_tshirt.jpg,5,7,2,1,3,2,4,6,0,66,,,,,,,,,,,,,,,,,,,,
,,,,,66,2020-07-04_16h54.49.382,retriever_ti,2020.1.3,Win32,60,Chrome,1536,864,,,,,,,,,,,,,,,,,1,,,,,,,,,,,,,,,,,,,,,,,,,,,301.97091,6,left,1.48484,clownfish     ,6,4,-2,0,3,302.00468,302.00468,304.502715,0,5,5,5,1,6,6,8,clownfish     ,camel         ,html/resources/sequences_IDs/A/04_clownfish.jpg,html/resources/sequences_IDs/A/03_camel.jpg,4,3,2,1,1,1,3,2,0,66,,,,,,,,,,,,,,,,,,,,
,,,,,66,2020-07-04_16h54.49.382,retriever_ti,2020.1.3,Win32,60,Chrome,1536,864,,,,,,,,,,,,,,,,,1,,,,,,,,,,,,,,,,,,,,,,,,,,,305.10356,7,left,1.493145,satellite_dish,4,10,-2,0,3,305.121205,305.121205,307.619625,0,6,6,6,1,7,4,6,satellite_dish,clownfish     ,html/resources/sequences_IDs/A/10_satellite_dish.jpg,html/resources/sequences_IDs/A/04_clownfish.jpg,10,4,4,2,2,1,8,3,0,66,,,,,,,,,,,,,,,,,,,,
,,,,,66,2020-07-04_16h54.49.382,retriever_ti,2020.1.3,Win32,60,Chrome,1536,864,,,,,,,,,,,,,,,,,1,,,,,,,,,,,,,,,,,,,,,,,,,,,308.23803,8,left,1.243765,clownfish     ,6,4,1,1,1,308.271485,308.271485,310.76966,0,7,7,7,1,8,6,5,clownfish     ,sport_tshirt,html/resources/sequences_IDs/A/04_clownfish.jpg,html/resources/sequences_IDs/B/07_sport_tshirt.jpg,4,7,2,1,3,2,3,6,0,66,,,,,,,,,,,,,,,,,,,,
,,,,,66,2020-07-04_16h54.49.382,retriever_ti,2020.1.3,Win32,60,Chrome,1536,864,,,,,,,,,,,,,,,,,1,,,,,,,,,,,,,,,,,,,,,,,,,,,311.870335,9,left,0.976835,camel         ,8,3,3,1,3,311.905095,311.905095,314.403255,0,8,8,8,1,9,8,5,camel         ,sport_tshirt,html/resources/sequences_IDs/A/03_camel.jpg,html/resources/sequences_IDs/B/07_sport_tshirt.jpg,3,7,1,1,3,2,2,6,0,66,,,,,,,,,,,,,,,,,,,,
,,,,,66,2020-07-04_16h54.49.382,retriever_ti,2020.1.3,Win32,60,Chrome,1536,864,,,,,,,,,,,,,,,,,1,,,,,,,,,,,,,,,,,,,,,,,,,,,315.02163,10,left,1.16845,clownfish     ,6,4,4,1,3,315.0386,315.0386,317.53702,0,9,9,9,1,10,6,2,clownfish     ,scarf         ,html/resources/sequences_IDs/A/04_clownfish.jpg,html/resources/sequences_IDs/A/06_scarf.jpg,4,6,2,1,3,2,3,5,0,66,,,,,,,,,,,,,,,,,,,,
,,,,,66,2020-07-04_16h54.49.382,retriever_ti,2020.1.3,Win32,60,Chrome,1536,864,,,,,,,,,,,,,,,,,1,,,,,,,,,,,,,,,,,,,,,,,,,,,318.15435,11,left,0.735625,clownfish     ,6,4,5,1,3,318.171805,318.171805,320.670505,0,10,10,10,1,11,6,1,clownfish     ,parrot      ,html/resources/sequences_IDs/A/04_clownfish.jpg,html/resources/sequences_IDs/B/05_parrot.jpg,4,5,2,1,2,1,3,4,0,66,,,,,,,,,,,,,,,,,,,,
,,,,,66,2020-07-04_16h54.49.382,retriever_ti,2020.1.3,Win32,60,Chrome,1536,864,,,,,,,,,,,,,,,,,1,,,,,,,,,,,,,,,,,,,,,,,,,,,321.288305,12,left,0.90383,camel         ,8,3,6,1,3,321.30506,321.30506,323.803745,0,11,11,11,1,12,8,2,camel         ,scarf         ,html/resources/sequences_IDs/A/03_camel.jpg,html/resources/sequences_IDs/A/06_scarf.jpg,3,6,1,1,3,2,2,5,0,66,,,,,,,,,,,,,,,,,,,,
,,,,,66,2020-07-04_16h54.49.382,retriever_ti,2020.1.3,Win32,60,Chrome,1536,864,,,,,,,,,,,,,,,,,1,,,,,,,,,,,,,,,,,,,,,,,,,,,324.42145,13,left,1.377335,clownfish     ,6,4,-1,0,0,324.438755,324.438755,326.937385,0,12,12,12,1,13,6,7,clownfish     ,phone       ,html/resources/sequences_IDs/A/04_clownfish.jpg,html/resources/sequences_IDs/B/09_phone.jpg,4,9,2,1,4,2,3,7,0,66,,,,,,,,,,,,,,,,,,,,
,,,,,66,2020-07-04_16h54.49.382,retriever_ti,2020.1.3,Win32,60,Chrome,1536,864,,,,,,,,,,,,,,,,,1,,,,,,,,,,,,,,,,,,,,,,,,,,,328.03889,14,right,0.9089,satellite_dish,4,10,1,1,1,328.055565,328.055565,330.554045,0,13,13,13,1,14,3,4,redfox      ,satellite_dish,html/resources/sequences_IDs/B/01_redfox.jpg,html/resources/sequences_IDs/A/10_satellite_dish.jpg,1,10,1,1,4,2,1,8,0,66,,,,,,,,,,,,,,,,,,,,
,,,,,66,2020-07-04_16h54.49.382,retriever_ti,2020.1.3,Win32,60,Chrome,1536,864,,,,,,,,,,,,,,,,,1,,,,,,,,,,,,,,,,,,,,,,,,,,,331.655115,15,left,0.731065,satellite_dish,4,10,-1,0,0,331.689415,331.689415,334.188075,0,14,14,14,1,15,4,5,satellite_dish,sport_tshirt,html/resources/sequences_IDs/A/10_satellite_dish.jpg,html/resources/sequences_IDs/B/07_sport_tshirt.jpg,10,7,4,2,3,2,8,6,0,66,,,,,,,,,,,,,,,,,,,,
,,,,,66,2020-07-04_16h54.49.382,retriever_ti,2020.1.3,Win32,60,Chrome,1536,864,,,,,,,,,,,,,,,,,1,,,,,,,,,,,,,,,,,,,,,,,,,,,335.28919,16,right,1.08713,phone       ,7,9,-1,0,0,335.30648,335.30648,337.80422,0,15,15,15,1,16,8,7,camel         ,phone       ,html/resources/sequences_IDs/A/03_camel.jpg,html/resources/sequences_IDs/B/09_phone.jpg,3,9,1,1,4,2,2,7,0,66,,,,,,,,,,,,,,,,,,,,
,,,,,66,2020-07-04_16h54.49.382,retriever_ti,2020.1.3,Win32,60,Chrome,1536,864,,,,,,,,,,,,,,,,,1,,,,,,,,,,,,,,,,,,,,,,,,,,,338.90541,17,right,0.940735,redfox      ,3,1,-2,0,3,338.939525,338.939525,341.43808,0,16,16,16,1,17,5,3,sport_tshirt,redfox      ,html/resources/sequences_IDs/B/07_sport_tshirt.jpg,html/resources/sequences_IDs/B/01_redfox.jpg,7,1,3,2,1,1,6,1,0,66,,,,,,,,,,,,,,,,,,,,
,,,,,66,2020-07-04_16h54.49.382,retriever_ti,2020.1.3,Win32,60,Chrome,1536,864,,,,,,,,,,,,,,,,,1,,,,,,,,,,,,,,,,,,,,,,,,,,,342.055905,18,right,0.873985,clownfish     ,6,4,1,1,1,342.089315,342.089315,344.588155,0,17,17,17,1,18,5,6,sport_tshirt,clownfish     ,html/resources/sequences_IDs/B/07_sport_tshirt.jpg,html/resources/sequences_IDs/A/04_clownfish.jpg,7,4,3,2,2,1,6,3,0,66,,,,,,,,,,,,,,,,,,,,
,,,,,66,2020-07-04_16h54.49.382,retriever_ti,2020.1.3,Win32,60,Chrome,1536,864,,,,,,,,,,,,,,,,,1,,,,,,,,,,,,,,,,,,,,,,,,,,,345.68851,19,left,0.744445,phone       ,7,9,1,1,1,345.722905,345.722905,348.221615,0,18,18,18,1,19,7,6,phone       ,clownfish     ,html/resources/sequences_IDs/B/09_phone.jpg,html/resources/sequences_IDs/A/04_clownfish.jpg,9,4,4,2,2,1,7,3,0,66,,,,,,,,,,,,,,,,,,,,
,,,,,66,2020-07-04_16h54.49.382,retriever_ti,2020.1.3,Win32,60,Chrome,1536,864,,,,,,,,,,,,,,,,,1,,,,,,,,,,,,,,,,,,,,,,,,,,,349.32273,20,right,0.741825,camel         ,8,3,1,1,1,349.339715,349.339715,351.838325,0,19,19,19,1,20,7,8,phone       ,camel         ,html/resources/sequences_IDs/B/09_phone.jpg,html/resources/sequences_IDs/A/03_camel.jpg,9,3,4,2,1,1,7,2,0,66,,,,,,,,,,,,,,,,,,,,
,,,,,66,2020-07-04_16h54.49.382,retriever_ti,2020.1.3,Win32,60,Chrome,1536,864,,,,,,,,,,,,,,,,,1,,,,,,,,,,,,,,,,,,,,,,,,,,,352.938785,21,left,0.86414,satellite_dish,4,10,2,1,3,352.956775,352.956775,355.454965,0,20,20,20,1,21,4,2,satellite_dish,scarf         ,html/resources/sequences_IDs/A/10_satellite_dish.jpg,html/resources/sequences_IDs/A/06_scarf.jpg,10,6,4,2,3,2,8,5,0,66,,,,,,,,,,,,,,,,,,,,
,,,,,66,2020-07-04_16h54.49.382,retriever_ti,2020.1.3,Win32,60,Chrome,1536,864,,,,,,,,,,,,,,,,,1,,,,,,,,,,,,,,,,,,,,,,,,,,,356.056985,22,left,0.879835,camel         ,8,3,5,1,3,356.090725,356.090725,358.58883,0,21,21,21,1,22,8,3,camel         ,redfox      ,html/resources/sequences_IDs/A/03_camel.jpg,html/resources/sequences_IDs/B/01_redfox.jpg,3,1,1,1,1,1,2,1,0,66,,,,,,,,,,,,,,,,,,,,
,,,,,66,2020-07-04_16h54.49.382,retriever_ti,2020.1.3,Win32,60,Chrome,1536,864,,,,,,,,,,,,,,,,,1,,,,,,,,,,,,,,,,,,,,,,,,,,,359.20579,23,right,0.597935,parrot      ,1,5,-4,0,3,359.223785,359.223785,361.72214,0,22,22,22,1,23,5,1,sport_tshirt,parrot      ,html/resources/sequences_IDs/B/07_sport_tshirt.jpg,html/resources/sequences_IDs/B/05_parrot.jpg,7,5,3,2,2,1,6,4,0,66,,,,,,,,,,,,,,,,,,,,
,,,,,66,2020-07-04_16h54.49.382,retriever_ti,2020.1.3,Win32,60,Chrome,1536,864,,,,,,,,,,,,,,,,,1,,,,,,,,,,,,,,,,,,,,,,,,,,,362.3401,24,left,0.62571,satellite_dish,4,10,-1,0,0,362.374055,362.374055,364.872145,0,23,23,23,1,24,4,5,satellite_dish,sport_tshirt,html/resources/sequences_IDs/A/10_satellite_dish.jpg,html/resources/sequences_IDs/B/07_sport_tshirt.jpg,10,7,4,2,3,2,8,6,0,66,,,,,,,,,,,,,,,,,,,,
,,,,,66,2020-07-04_16h54.49.382,retriever_ti,2020.1.3,Win32,60,Chrome,1536,864,,,,,,,,,,,,,,,,,1,,,,,,,,,,,,,,,,,,,,,,,,,,,365.97316,25,right,1.14273,camel         ,8,3,3,1,3,366.00735,366.00735,368.506005,0,24,24,24,1,25,5,8,sport_tshirt,camel         ,html/resources/sequences_IDs/B/07_sport_tshirt.jpg,html/resources/sequences_IDs/A/03_camel.jpg,7,3,3,2,1,1,6,2,0,66,,,,,,,,,,,,,,,,,,,,
,,,,,66,2020-07-04_16h54.49.382,retriever_ti,2020.1.3,Win32,60,Chrome,1536,864,,,,,,,,,,,,,,,,,1,,,,,,,,,,,,,,,,,,,,,,,,,,,369.123685,26,right,1.22339,camel         ,8,3,1,1,1,369.157345,369.157345,371.65578,0,25,25,25,1,26,7,8,phone       ,camel         ,html/resources/sequences_IDs/B/09_phone.jpg,html/resources/sequences_IDs/A/03_camel.jpg,9,3,4,2,1,1,7,2,0,66,,,,,,,,,,,,,,,,,,,,
,,,,,66,2020-07-04_16h54.49.382,retriever_ti,2020.1.3,Win32,60,Chrome,1536,864,,,,,,,,,,,,,,,,,1,,,,,,,,,,,,,,,,,,,,,,,,,,,372.756575,27,left,1.32842,parrot      ,1,5,-1,0,0,372.77401,372.77401,375.273105,0,26,26,26,1,27,1,2,parrot      ,scarf         ,html/resources/sequences_IDs/B/05_parrot.jpg,html/resources/sequences_IDs/A/06_scarf.jpg,5,6,2,1,3,2,4,5,0,66,,,,,,,,,,,,,,,,,,,,
,,,,,66,2020-07-04_16h54.49.382,retriever_ti,2020.1.3,Win32,60,Chrome,1536,864,,,,,,,,,,,,,,,,,1,,,,,,,,,,,,,,,,,,,,,,,,,,,376.37407,28,left,1.436015,phone       ,7,9,1,1,1,376.40778,376.40778,378.90655,0,27,27,27,1,28,7,6,phone       ,clownfish     ,html/resources/sequences_IDs/B/09_phone.jpg,html/resources/sequences_IDs/A/04_clownfish.jpg,9,4,4,2,2,1,7,3,0,66,,,,,,,,,,,,,,,,,,,,
,,,,,66,2020-07-04_16h54.49.382,retriever_ti,2020.1.3,Win32,60,Chrome,1536,864,,,,,,,,,,,,,,,,,1,,,,,,,,,,,,,,,,,,,,,,,,,,,380.006915,29,left,0.792625,phone       ,7,9,1,1,0,380.04109,380.04109,382.53988,0,28,28,28,1,29,7,6,phone       ,clownfish     ,html/resources/sequences_IDs/B/09_phone.jpg,html/resources/sequences_IDs/A/04_clownfish.jpg,9,4,4,2,2,1,7,3,1,66,,,,,,,,,,,,,,,,,,,,
,,,,,66,2020-07-04_16h54.49.382,retriever_ti,2020.1.3,Win32,60,Chrome,1536,864,,,,,,,,,,,,,,,,,1,,,,,,,,,,,,,,,,,,,,,,,,,,,383.64161,30,left,0.93596,redfox      ,3,1,1,1,1,383.658185,383.658185,386.156635,0,29,29,29,1,30,3,2,redfox      ,scarf         ,html/resources/sequences_IDs/B/01_redfox.jpg,html/resources/sequences_IDs/A/06_scarf.jpg,1,6,1,1,3,2,1,5,0,66,,,,,,,,,,,,,,,,,,,,
,,,,,66,2020-07-04_16h54.49.382,retriever_ti,2020.1.3,Win32,60,Chrome,1536,864,,,,,,,,,,,,,,,,,1,,,,,,,,,,,,,,,,,,,,,,,,,,,387.2573,31,right,1.940385,parrot      ,1,5,-1,0,0,387.29135,387.29135,389.79034,0,30,30,30,1,31,2,1,scarf         ,parrot      ,html/resources/sequences_IDs/A/06_scarf.jpg,html/resources/sequences_IDs/B/05_parrot.jpg,6,5,3,2,2,1,5,4,0,66,,,,,,,,,,,,,,,,,,,,
,,,,,66,2020-07-04_16h54.49.382,retriever_ti,2020.1.3,Win32,60,Chrome,1536,864,,,,,,,,,,,,,,,,,1,,,,,,,,,,,,,,,,,,,,,,,,,,,390.89133,32,right,1.532555,redfox      ,3,1,2,1,3,390.908765,390.908765,393.40718,0,31,31,31,1,32,1,3,parrot      ,redfox      ,html/resources/sequences_IDs/B/05_parrot.jpg,html/resources/sequences_IDs/B/01_redfox.jpg,5,1,2,1,1,1,4,1,0,66,,,,,,,,,,,,,,,,,,,,
,,,,,66,2020-07-04_16h54.49.382,retriever_ti,2020.1.3,Win32,60,Chrome,1536,864,,,,,,,,,,,,,,,,,1,,,,,,,,,,,,,,,,,,,,,,,,,,,394.024095,33,left,1.654355,satellite_dish,4,10,-3,0,3,394.041995,394.041995,396.54088,0,32,32,32,1,33,4,7,satellite_dish,phone       ,html/resources/sequences_IDs/A/10_satellite_dish.jpg,html/resources/sequences_IDs/B/09_phone.jpg,10,9,4,2,4,2,8,7,0,66,,,,,,,,,,,,,,,,,,,,
,,,,,66,2020-07-04_16h54.49.382,retriever_ti,2020.1.3,Win32,60,Chrome,1536,864,,,,,,,,,,,,,,,,,1,,,,,,,,,,,,,,,,,,,,,,,,,,,397.158405,34,right,1.187915,phone       ,7,9,5,1,3,397.175055,397.175055,399.673645,0,33,33,33,1,34,2,7,scarf         ,phone       ,html/resources/sequences_IDs/A/06_scarf.jpg,html/resources/sequences_IDs/B/09_phone.jpg,6,9,3,2,4,2,5,7,0,66,,,,,,,,,,,,,,,,,,,,
,,,,,66,2020-07-04_16h54.49.382,retriever_ti,2020.1.3,Win32,60,Chrome,1536,864,,,,,,,,,,,,,,,,,1,,,,,,,,,,,,,,,,,,,,,,,,,,,400.29101,35,right,2.21496,clownfish     ,6,4,5,1,3,400.308625,400.308625,402.807745,0,34,34,34,1,35,1,6,parrot      ,clownfish     ,html/resources/sequences_IDs/B/05_parrot.jpg,html/resources/sequences_IDs/A/04_clownfish.jpg,5,4,2,1,2,1,4,3,0,66,,,,,,,,,,,,,,,,,,,,
,,,,,66,2020-07-04_16h54.49.382,retriever_ti,2020.1.3,Win32,60,Chrome,1536,864,,,,,,,,,,,,,,,,,1,,,,,,,,,,,,,,,,,,,,,,,,,,,403.42589,36,left,1.540545,sport_tshirt,5,7,-1,0,0,403.45922,403.45922,405.957565,0,35,35,35,1,36,5,6,sport_tshirt,clownfish     ,html/resources/sequences_IDs/B/07_sport_tshirt.jpg,html/resources/sequences_IDs/A/04_clownfish.jpg,7,4,3,2,2,1,6,3,0,66,,,,,,,,,,,,,,,,,,,,
,,,,,66,2020-07-04_16h54.49.382,retriever_ti,2020.1.3,Win32,60,Chrome,1536,864,,,,,,,,,,,,,,,,,1,,,,,,,,,,,,,,,,,,,,,,,,,,,407.058025,37,right,0.682275,sport_tshirt,5,7,3,1,3,407.076045,407.076045,409.57431,0,36,36,36,1,37,2,5,scarf         ,sport_tshirt,html/resources/sequences_IDs/A/06_scarf.jpg,html/resources/sequences_IDs/B/07_sport_tshirt.jpg,6,7,3,2,3,2,5,6,0,66,,,,,,,,,,,,,,,,,,,,
,,,,,66,2020-07-04_16h54.49.382,retriever_ti,2020.1.3,Win32,60,Chrome,1536,864,,,,,,,,,,,,,,,,,1,,,,,,,,,,,,,,,,,,,,,,,,,,,410.175975,38,right,0.96405,satellite_dish,4,10,1,1,1,410.19268,410.19268,412.69121,0,37,37,37,1,38,3,4,redfox      ,satellite_dish,html/resources/sequences_IDs/B/01_redfox.jpg,html/resources/sequences_IDs/A/10_satellite_dish.jpg,1,10,1,1,4,2,1,8,0,66,,,,,,,,,,,,,,,,,,,,
,,,,,66,2020-07-04_16h54.49.382,retriever_ti,2020.1.3,Win32,60,Chrome,1536,864,,,,,,,,,,,,,,,,,1,,,,,,,,,,,,,,,,,,,,,,,,,,,413.79197,39,right,1.4663,satellite_dish,4,10,2,1,3,413.80977,413.80977,416.3082,0,38,38,38,1,39,2,4,scarf         ,satellite_dish,html/resources/sequences_IDs/A/06_scarf.jpg,html/resources/sequences_IDs/A/10_satellite_dish.jpg,6,10,3,2,4,2,5,8,0,66,,,,,,,,,,,,,,,,,,,,
,,,,,66,2020-07-04_16h54.49.382,retriever_ti,2020.1.3,Win32,60,Chrome,1536,864,,,,,,,,,,,,,,,,,1,,,,,,,,,,,,,,,,,,,,,,,,,,,416.925945,40,right,1.53328,camel         ,8,3,7,1,3,416.943235,416.943235,419.44139,0,39,39,39,1,40,1,8,parrot      ,camel         ,html/resources/sequences_IDs/B/05_parrot.jpg,html/resources/sequences_IDs/A/03_camel.jpg,5,3,2,1,1,1,4,2,0,66,,,,,,,,,,,,,,,,,,,,
,,,,,66,2020-07-04_16h54.49.382,retriever_ti,2020.1.3,Win32,60,Chrome,1536,864,,,,,,,,,,,,,,,,,1,,,,,,,,,,,,,,,,,,,,,,,,,,,420.042295,41,right,0.793315,satellite_dish,4,10,-4,0,3,420.05972,420.05972,422.55814,0,40,40,40,1,41,8,4,camel         ,satellite_dish,html/resources/sequences_IDs/A/03_camel.jpg,html/resources/sequences_IDs/A/10_satellite_dish.jpg,3,10,1,1,4,2,2,8,0,66,,,,,,,,,,,,,,,,,,,,
,,,,,66,2020-07-04_16h54.49.382,retriever_ti,2020.1.3,Win32,60,Chrome,1536,864,,,,,,,,,,,,,,,,,1,,,,,,,,,,,,,,,,,,,,,,,,,,,423.15973,42,left,1.52696,phone       ,7,9,5,1,3,423.177045,423.177045,425.67497,0,41,41,41,1,42,7,2,phone       ,scarf         ,html/resources/sequences_IDs/B/09_phone.jpg,html/resources/sequences_IDs/A/06_scarf.jpg,9,6,4,2,3,2,7,5,0,66,,,,,,,,,,,,,,,,,,,,
,,,,,66,2020-07-04_16h54.49.382,retriever_ti,2020.1.3,Win32,60,Chrome,1536,864,,,,,,,,,,,,,,,,,1,,,,,,,,,,,,,,,,,,,,,,,,,,,426.276075,43,left,1.76606,redfox      ,3,1,-2,0,3,426.293575,426.293575,428.79166,0,42,42,42,1,43,3,5,redfox      ,sport_tshirt,html/resources/sequences_IDs/B/01_redfox.jpg,html/resources/sequences_IDs/B/07_sport_tshirt.jpg,1,7,1,1,3,2,1,6,0,66,,,,,,,,,,,,,,,,,,,,
,,,,,66,2020-07-04_16h54.49.382,retriever_ti,2020.1.3,Win32,60,Chrome,1536,864,,,,,,,,,,,,,,,,,1,,,,,,,,,,,,,,,,,,,,,,,,,,,429.410065,44,right,0.777055,clownfish     ,6,4,4,1,3,429.443275,429.443275,431.941825,0,43,43,43,1,44,2,6,scarf         ,clownfish     ,html/resources/sequences_IDs/A/06_scarf.jpg,html/resources/sequences_IDs/A/04_clownfish.jpg,6,4,3,2,2,1,5,3,0,66,,,,,,,,,,,,,,,,,,,,
,,,,,66,2020-07-04_16h54.49.382,retriever_ti,2020.1.3,Win32,60,Chrome,1536,864,,,,,,,,,,,,,,,,,1,,,,,,,,,,,,,,,,,,,,,,,,,,,432.542795,45,left,0.819375,camel         ,8,3,7,1,3,432.577215,432.577215,435.07535,0,44,44,44,1,45,8,1,camel         ,parrot      ,html/resources/sequences_IDs/A/03_camel.jpg,html/resources/sequences_IDs/B/05_parrot.jpg,3,5,1,1,2,1,2,4,0,66,,,,,,,,,,,,,,,,,,,,
,,,,,66,2020-07-04_16h54.49.382,retriever_ti,2020.1.3,Win32,60,Chrome,1536,864,,,,,,,,,,,,,,,,,1,,,,,,,,,,,,,,,,,,,,,,,,,,,435.69372,46,right,0.84154,parrot      ,1,5,-1,0,1,435.72695,435.72695,438.22558,0,45,45,45,1,46,2,1,scarf         ,parrot      ,html/resources/sequences_IDs/A/06_scarf.jpg,html/resources/sequences_IDs/B/05_parrot.jpg,6,5,3,2,2,1,5,4,1,66,,,,,,,,,,,,,,,,,,,,
,,,,,66,2020-07-04_16h54.49.382,retriever_ti,2020.1.3,Win32,60,Chrome,1536,864,,,,,,,,,,,,,,,,,1,,,,,,,,,,,,,,,,,,,,,,,,,,,439.326175,47,left,1.20871,camel         ,8,3,2,1,3,439.34362,439.34362,441.842365,0,46,46,46,1,47,8,6,camel         ,clownfish     ,html/resources/sequences_IDs/A/03_camel.jpg,html/resources/sequences_IDs/A/04_clownfish.jpg,3,4,1,1,2,1,2,3,0,66,,,,,,,,,,,,,,,,,,,,
,,,,,66,2020-07-04_16h54.49.382,retriever_ti,2020.1.3,Win32,60,Chrome,1536,864,,,,,,,,,,,,,,,,,1,,,,,,,,,,,,,,,,,,,,,,,,,,,442.444035,48,left,1.29579,sport_tshirt,5,7,3,1,3,442.46094,442.46094,444.959435,0,47,47,47,1,48,5,2,sport_tshirt,scarf         ,html/resources/sequences_IDs/B/07_sport_tshirt.jpg,html/resources/sequences_IDs/A/06_scarf.jpg,7,6,3,2,3,2,6,5,0,66,,,,,,,,,,,,,,,,,,,,
,,,,,66,2020-07-04_16h54.49.382,retriever_ti,2020.1.3,Win32,60,Chrome,1536,864,,,,,,,,,,,,,,,,,1,,,,,,,,,,,,,,,,,,,,,,,,,,,445.576615,49,left,1.786355,clownfish     ,6,4,3,1,3,445.61173,445.61173,448.10972,0,48,48,48,1,49,6,3,clownfish     ,redfox      ,html/resources/sequences_IDs/A/04_clownfish.jpg,html/resources/sequences_IDs/B/01_redfox.jpg,4,1,2,1,1,1,3,1,0,66,,,,,,,,,,,,,,,,,,,,
,,,,,66,2020-07-04_16h54.49.382,retriever_ti,2020.1.3,Win32,60,Chrome,1536,864,,,,,,,,,,,,,,,,,1,,,,,,,,,,,,,,,,,,,,,,,,,,,448.72736,50,left,1.415265,redfox      ,3,1,-3,0,3,448.74422,448.74422,451.24311,0,49,49,49,1,50,3,6,redfox      ,clownfish     ,html/resources/sequences_IDs/B/01_redfox.jpg,html/resources/sequences_IDs/A/04_clownfish.jpg,1,4,1,1,2,1,1,3,0,66,,,,,,,,,,,,,,,,,,,,
,,,,,66,2020-07-04_16h54.49.382,retriever_ti,2020.1.3,Win32,60,Chrome,1536,864,,,,,,,,,,,,,,,,,1,,,,,,,,,,,,,,,,,,,,,,,,,,,451.860075,51,right,1.032715,phone       ,7,9,4,1,3,451.87805,451.87805,454.376485,0,50,50,50,1,51,3,7,redfox      ,phone       ,html/resources/sequences_IDs/B/01_redfox.jpg,html/resources/sequences_IDs/B/09_phone.jpg,1,9,1,1,4,2,1,7,0,66,,,,,,,,,,,,,,,,,,,,
,,,,,66,2020-07-04_16h54.49.382,retriever_ti,2020.1.3,Win32,60,Chrome,1536,864,,,,,,,,,,,,,,,,,1,,,,,,,,,,,,,,,,,,,,,,,,,,,454.994445,52,right,1.190565,redfox      ,3,1,1,1,1,455.028375,455.028375,457.526565,0,51,51,51,1,52,2,3,scarf         ,redfox      ,html/resources/sequences_IDs/A/06_scarf.jpg,html/resources/sequences_IDs/B/01_redfox.jpg,6,1,3,2,1,1,5,1,0,66,,,,,,,,,,,,,,,,,,,,
,,,,,66,2020-07-04_16h54.49.382,retriever_ti,2020.1.3,Win32,60,Chrome,1536,864,,,,,,,,,,,,,,,,,1,,,,,,,,,,,,,,,,,,,,,,,,,,,458.627455,53,left,1.553515,phone       ,7,9,2,1,3,458.661305,458.661305,461.16024,0,52,52,52,1,53,7,5,phone       ,sport_tshirt,html/resources/sequences_IDs/B/09_phone.jpg,html/resources/sequences_IDs/B/07_sport_tshirt.jpg,9,7,4,2,3,2,7,6,0,66,,,,,,,,,,,,,,,,,,,,
,,,,,66,2020-07-04_16h54.49.382,retriever_ti,2020.1.3,Win32,60,Chrome,1536,864,,,,,,,,,,,,,,,,,1,,,,,,,,,,,,,,,,,,,,,,,,,,,461.777915,54,left,0.988755,camel         ,8,3,1,1,1,461.811465,461.811465,464.310035,0,53,53,53,1,54,8,7,camel         ,phone       ,html/resources/sequences_IDs/A/03_camel.jpg,html/resources/sequences_IDs/B/09_phone.jpg,3,9,1,1,4,2,2,7,0,66,,,,,,,,,,,,,,,,,,,,
,,,,,66,2020-07-04_16h54.49.382,retriever_ti,2020.1.3,Win32,60,Chrome,1536,864,,,,,,,,,,,,,,,,,1,,,,,,,,,,,,,,,,,,,,,,,,,,,465.4107,55,left,1.057025,redfox      ,3,1,1,1,1,465.445715,465.445715,467.943695,0,54,54,54,1,55,3,2,redfox      ,scarf         ,html/resources/sequences_IDs/B/01_redfox.jpg,html/resources/sequences_IDs/A/06_scarf.jpg,1,6,1,1,3,2,1,5,0,66,,,,,,,,,,,,,,,,,,,,
,,,,,66,2020-07-04_16h54.49.382,retriever_ti,2020.1.3,Win32,60,Chrome,1536,864,,,,,,,,,,,,,,,,,1,,,,,,,,,,,,,,,,,,,,,,,,,,,469.04544,56,left,0.86112,satellite_dish,4,10,1,1,1,469.09694,469.09694,471.5939,0,55,55,55,1,56,4,3,satellite_dish,redfox      ,html/resources/sequences_IDs/A/10_satellite_dish.jpg,html/resources/sequences_IDs/B/01_redfox.jpg,10,1,4,2,1,1,8,1,0,66,,,,,,,,,,,,,,,,,,,,
,,,,,66,2020-07-04_16h54.49.382,retriever_ti,2020.1.3,Win32,60,Chrome,1536,864,,,,,,,,,,,,,,,,,1,,,,,,,,,,,,,,,,,,,,,,,,,,,472.69461,57,right,1.87476,redfox      ,3,1,-4,0,3,472.711965,472.711965,475.21052,0,56,56,56,1,57,7,3,phone       ,redfox      ,html/resources/sequences_IDs/B/09_phone.jpg,html/resources/sequences_IDs/B/01_redfox.jpg,9,1,4,2,1,1,7,1,0,66,,,,,,,,,,,,,,,,,,,,
,,,,,66,2020-07-04_16h54.49.382,retriever_ti,2020.1.3,Win32,60,Chrome,1536,864,,,,,,,,,,,,,,,,,1,,,,,,,,,,,,,,,,,,,,,,,,,,,475.81225,58,right,0.94777,camel         ,8,3,5,1,3,475.829255,475.829255,478.327495,0,57,57,57,1,58,3,8,redfox      ,camel         ,html/resources/sequences_IDs/B/01_redfox.jpg,html/resources/sequences_IDs/A/03_camel.jpg,1,3,1,1,1,1,1,2,0,66,,,,,,,,,,,,,,,,,,,,
,,,,,66,2020-07-04_16h54.49.382,retriever_ti,2020.1.3,Win32,60,Chrome,1536,864,,,,,,,,,,,,,,,,,1,,,,,,,,,,,,,,,,,,,,,,,,,,,478.944945,59,left,1.04322,phone       ,7,9,6,1,3,478.96226,478.96226,481.461175,0,58,58,58,1,59,7,1,phone       ,parrot      ,html/resources/sequences_IDs/B/09_phone.jpg,html/resources/sequences_IDs/B/05_parrot.jpg,9,5,4,2,2,1,7,4,0,66,,,,,,,,,,,,,,,,,,,,
,,,,,66,2020-07-04_16h54.49.382,retriever_ti,2020.1.3,Win32,60,Chrome,1536,864,,,,,,,,,,,,,,,,,1,,,,,,,,,,,,,,,,,,,,,,,,,,,482.07914,60,right,0.72784,satellite_dish,4,10,-1,0,0,482.112395,482.112395,484.61102,0,59,59,59,1,60,5,4,sport_tshirt,satellite_dish,html/resources/sequences_IDs/B/07_sport_tshirt.jpg,html/resources/sequences_IDs/A/10_satellite_dish.jpg,7,10,3,2,4,2,6,8,0,66,,,,,,,,,,,,,,,,,,,,
,,,,,66,2020-07-04_16h54.49.382,retriever_ti,2020.1.3,Win32,60,Chrome,1536,864,,,,,,,,,,,,,,,,,1,,,,,,,,,,,,,,,,,,,,,,,,,,,485.711625,61,left,2.1651,clownfish     ,6,4,1,1,1,485.745965,485.745965,488.2448,0,60,60,60,1,61,6,5,clownfish     ,sport_tshirt,html/resources/sequences_IDs/A/04_clownfish.jpg,html/resources/sequences_IDs/B/07_sport_tshirt.jpg,4,7,2,1,3,2,3,6,0,66,,,,,,,,,,,,,,,,,,,,
,,,,,66,2020-07-04_16h54.49.382,retriever_ti,2020.1.3,Win32,60,Chrome,1536,864,,,,,,,,,,,,,,,,,1,,,,,,,,,,,,,,,,,,,,,,,,,,,489.3462,62,right,0.87127,redfox      ,3,1,1,1,0,489.3794,489.3794,491.878045,0,61,61,61,1,62,2,3,scarf         ,redfox      ,html/resources/sequences_IDs/A/06_scarf.jpg,html/resources/sequences_IDs/B/01_redfox.jpg,6,1,3,2,1,1,5,1,1,66,,,,,,,,,,,,,,,,,,,,
,,,,,66,2020-07-04_16h54.49.382,retriever_ti,2020.1.3,Win32,60,Chrome,1536,864,,,,,,,,,,,,,,,,,1,,,,,,,,,,,,,,,,,,,,,,,,,,,492.9787,63,right,1.058845,clownfish     ,6,4,1,1,0,492.99638,492.99638,495.49481,0,62,62,62,1,63,5,6,sport_tshirt,clownfish     ,html/resources/sequences_IDs/B/07_sport_tshirt.jpg,html/resources/sequences_IDs/A/04_clownfish.jpg,7,4,3,2,2,1,6,3,1,66,,,,,,,,,,,,,,,,,,,,
,,,,,66,2020-07-04_16h54.49.382,retriever_ti,2020.1.3,Win32,60,Chrome,1536,864,,,,,,,,,,,,,,,,,1,,,,,,,,,,,,,,,,,,,,,,,,,,,496.596595,64,left,1.05283,satellite_dish,4,10,1,1,1,496.613485,496.613485,499.11192,0,63,63,63,1,64,4,3,satellite_dish,redfox      ,html/resources/sequences_IDs/A/10_satellite_dish.jpg,html/resources/sequences_IDs/B/01_redfox.jpg,10,1,4,2,1,1,8,1,0,66,,,,,,,,,,,,,,,,,,,,
,,,,,66,2020-07-04_16h54.49.382,retriever_ti,2020.1.3,Win32,60,Chrome,1536,864,,,,,,,,,,,,,,,,,1,,,,,,,,,,,,,,,,,,,,,,,,,,,500.21238,65,left,0.92712,satellite_dish,4,10,-1,0,1,500.24675,500.24675,502.74544,0,64,64,64,1,65,4,5,satellite_dish,sport_tshirt,html/resources/sequences_IDs/A/10_satellite_dish.jpg,html/resources/sequences_IDs/B/07_sport_tshirt.jpg,10,7,4,2,3,2,8,6,1,66,,,,,,,,,,,,,,,,,,,,
,,,,,66,2020-07-04_16h54.49.382,retriever_ti,2020.1.3,Win32,60,Chrome,1536,864,,,,,,,,,,,,,,,,,1,,,,,,,,,,,,,,,,,,,,,,,,,,,503.846925,66,right,1.12625,phone       ,7,9,6,1,3,503.863495,503.863495,506.361985,0,65,65,65,1,66,1,7,parrot      ,phone       ,html/resources/sequences_IDs/B/05_parrot.jpg,html/resources/sequences_IDs/B/09_phone.jpg,5,9,2,1,4,2,4,7,0,66,,,,,,,,,,,,,,,,,,,,
,,,,,66,2020-07-04_16h54.49.382,retriever_ti,2020.1.3,Win32,60,Chrome,1536,864,,,,,,,,,,,,,,,,,1,,,,,,,,,,,,,,,,,,,,,,,,,,,506.979455,67,NaN,NaN,No_response,NaN,NaN,NaN,2,2,507.013615,507.013615,509.512515,0,66,66,66,1,67,3,1,redfox      ,parrot      ,html/resources/sequences_IDs/B/01_redfox.jpg,html/resources/sequences_IDs/B/05_parrot.jpg,1,5,1,1,2,1,1,4,0,66,,,,,,,,,,,,,,,,,,,,
,,,,,66,2020-07-04_16h54.49.382,retriever_ti,2020.1.3,Win32,60,Chrome,1536,864,,,,,,,,,,,,,,,,,1,,,,,,,,,,,,,,,,,,,,,,,,,,,510.613475,68,left,0.68951,satellite_dish,4,10,1,1,0,510.64751,510.64751,513.14569,0,67,67,67,1,68,4,3,satellite_dish,redfox      ,html/resources/sequences_IDs/A/10_satellite_dish.jpg,html/resources/sequences_IDs/B/01_redfox.jpg,10,1,4,2,1,1,8,1,1,66,,,,,,,,,,,,,,,,,,,,
,,,,,66,2020-07-04_16h54.49.382,retriever_ti,2020.1.3,Win32,60,Chrome,1536,864,,,,,,,,,,,,,,,,,1,,,,,,,,,,,,,,,,,,,,,,,,,,,514.246425,69,right,0.70931,phone       ,7,9,2,1,3,514.26398,514.26398,516.762955,0,68,68,68,1,69,5,7,sport_tshirt,phone       ,html/resources/sequences_IDs/B/07_sport_tshirt.jpg,html/resources/sequences_IDs/B/09_phone.jpg,7,9,3,2,4,2,6,7,0,66,,,,,,,,,,,,,,,,,,,,
,,,,,66,2020-07-04_16h54.49.382,retriever_ti,2020.1.3,Win32,60,Chrome,1536,864,,,,,,,,,,,,,,,,,1,,,,,,,,,,,,,,,,,,,,,,,,,,,517.380485,70,right,0.655015,redfox      ,3,1,1,1,1,517.41407,517.41407,519.91258,0,69,69,69,1,70,2,3,scarf         ,redfox      ,html/resources/sequences_IDs/A/06_scarf.jpg,html/resources/sequences_IDs/B/01_redfox.jpg,6,1,3,2,1,1,5,1,0,66,,,,,,,,,,,,,,,,,,,,
,,,,,66,2020-07-04_16h54.49.382,retriever_ti,2020.1.3,Win32,60,Chrome,1536,864,,,,,,,,,,,,,,,,,1,,,,,,,,,,,,,,,,,,,,,,,,,,,521.013315,71,right,0.793255,satellite_dish,4,10,-2,0,3,521.04827,521.04827,523.54649,0,70,70,70,1,71,6,4,clownfish     ,satellite_dish,html/resources/sequences_IDs/A/04_clownfish.jpg,html/resources/sequences_IDs/A/10_satellite_dish.jpg,4,10,2,1,4,2,3,8,0,66,,,,,,,,,,,,,,,,,,,,
,,,,,66,2020-07-04_16h54.49.382,retriever_ti,2020.1.3,Win32,60,Chrome,1536,864,,,,,,,,,,,,,,,,,1,,,,,,,,,,,,,,,,,,,,,,,,,,,524.164085,72,right,1.03112,satellite_dish,4,10,-3,0,3,524.198,524.198,526.69655,0,71,71,71,1,72,7,4,phone       ,satellite_dish,html/resources/sequences_IDs/B/09_phone.jpg,html/resources/sequences_IDs/A/10_satellite_dish.jpg,9,10,4,2,4,2,7,8,0,66,,,,,,,,,,,,,,,,,,,,
,,,,,66,2020-07-04_16h54.49.382,retriever_ti,2020.1.3,Win32,60,Chrome,1536,864,,,,,,,,,,,,,,,,,1,,,,,,,,,,,,,,,,,,,,,,,,,,,527.313595,73,right,0.91224,satellite_dish,4,10,3,1,3,527.331655,527.331655,529.82992,0,72,72,72,1,73,1,4,parrot      ,satellite_dish,html/resources/sequences_IDs/B/05_parrot.jpg,html/resources/sequences_IDs/A/10_satellite_dish.jpg,5,10,2,1,4,2,4,8,0,66,,,,,,,,,,,,,,,,,,,,
,,,,,66,2020-07-04_16h54.49.382,retriever_ti,2020.1.3,Win32,60,Chrome,1536,864,,,,,,,,,,,,,,,,,1,,,,,,,,,,,,,,,,,,,,,,,,,,,530.448335,74,right,1.761685,scarf         ,2,6,1,1,1,530.465405,530.465405,532.96313,0,73,73,73,1,74,1,2,parrot      ,scarf         ,html/resources/sequences_IDs/B/05_parrot.jpg,html/resources/sequences_IDs/A/06_scarf.jpg,5,6,2,1,3,2,4,5,0,66,,,,,,,,,,,,,,,,,,,,
,,,,,66,2020-07-04_16h54.49.382,retriever_ti,2020.1.3,Win32,60,Chrome,1536,864,,,,,,,,,,,,,,,,,1,,,,,,,,,,,,,,,,,,,,,,,,,,,534.06406,75,right,1.72028,satellite_dish,4,10,-1,0,0,534.08162,534.08162,536.580645,0,74,74,74,1,75,5,4,sport_tshirt,satellite_dish,html/resources/sequences_IDs/B/07_sport_tshirt.jpg,html/resources/sequences_IDs/A/10_satellite_dish.jpg,7,10,3,2,4,2,6,8,0,66,,,,,,,,,,,,,,,,,,,,
,,,,,66,2020-07-04_16h54.49.382,retriever_ti,2020.1.3,Win32,60,Chrome,1536,864,,,,,,,,,,,,,,,,,1,,,,,,,,,,,,,,,,,,,,,,,,,,,537.682155,76,right,0.55915,camel         ,8,3,6,1,3,537.69872,537.69872,540.1972,0,75,75,75,1,76,2,8,scarf         ,camel         ,html/resources/sequences_IDs/A/06_scarf.jpg,html/resources/sequences_IDs/A/03_camel.jpg,6,3,3,2,1,1,5,2,0,66,,,,,,,,,,,,,,,,,,,,
,,,,,66,2020-07-04_16h54.49.382,retriever_ti,2020.1.3,Win32,60,Chrome,1536,864,,,,,,,,,,,,,,,,,1,,,,,,,,,,,,,,,,,,,,,,,,,,,540.81472,77,right,0.491145,camel         ,8,3,1,1,0,540.831915,540.831915,543.33024,0,76,76,76,1,77,7,8,phone       ,camel         ,html/resources/sequences_IDs/B/09_phone.jpg,html/resources/sequences_IDs/A/03_camel.jpg,9,3,4,2,1,1,7,2,1,66,,,,,,,,,,,,,,,,,,,,
,,,,,66,2020-07-04_16h54.49.382,retriever_ti,2020.1.3,Win32,60,Chrome,1536,864,,,,,,,,,,,,,,,,,,,,,,,,,,,,,,,,,,,,,0,2.74656,,,,,,,,,,,,,,,,,,,,,,,,,,,,,,,,,,,,,,,,,0,0,0,0,1,,,,,,,,,,,,,,,
,,,,,66,2020-07-04_16h54.49.382,retriever_ti,2020.1.3,Win32,60,Chrome,1536,864,,,,,,,,,,,,,,,,,2,,,,,,,,,,,,,,,,,,,,,,,,,,,562.350205,78,right,0.7006,camel         ,8,3,7,1,3,562.367575,562.367575,564.8649,0,0,0,0,1,78,1,8,parrot      ,camel         ,html/resources/sequences_IDs/B/05_parrot.jpg,html/resources/sequences_IDs/A/03_camel.jpg,5,3,2,1,1,1,4,2,0,66,,,,,,,,,,,,,,,,,,,,
,,,,,66,2020-07-04_16h54.49.382,retriever_ti,2020.1.3,Win32,60,Chrome,1536,864,,,,,,,,,,,,,,,,,2,,,,,,,,,,,,,,,,,,,,,,,,,,,565.48223,79,right,1.020045,clownfish     ,6,4,1,1,1,565.49983,565.49983,567.998145,0,1,1,1,1,79,5,6,sport_tshirt,clownfish     ,html/resources/sequences_IDs/B/07_sport_tshirt.jpg,html/resources/sequences_IDs/A/04_clownfish.jpg,7,4,3,2,2,1,6,3,0,66,,,,,,,,,,,,,,,,,,,,
,,,,,66,2020-07-04_16h54.49.382,retriever_ti,2020.1.3,Win32,60,Chrome,1536,864,,,,,,,,,,,,,,,,,2,,,,,,,,,,,,,,,,,,,,,,,,,,,569.0997,80,left,1.23354,redfox      ,3,1,1,1,1,569.116575,569.116575,571.615125,0,2,2,2,1,80,3,2,redfox      ,scarf         ,html/resources/sequences_IDs/B/01_redfox.jpg,html/resources/sequences_IDs/A/06_scarf.jpg,1,6,1,1,3,2,1,5,0,66,,,,,,,,,,,,,,,,,,,,
,,,,,66,2020-07-04_16h54.49.382,retriever_ti,2020.1.3,Win32,60,Chrome,1536,864,,,,,,,,,,,,,,,,,2,,,,,,,,,,,,,,,,,,,,,,,,,,,572.71578,81,right,0.897205,clownfish     ,6,4,1,1,1,572.733665,572.733665,575.231885,0,3,3,3,1,81,5,6,sport_tshirt,clownfish     ,html/resources/sequences_IDs/B/07_sport_tshirt.jpg,html/resources/sequences_IDs/A/04_clownfish.jpg,7,4,3,2,2,1,6,3,0,66,,,,,,,,,,,,,,,,,,,,
,,,,,66,2020-07-04_16h54.49.382,retriever_ti,2020.1.3,Win32,60,Chrome,1536,864,,,,,,,,,,,,,,,,,2,,,,,,,,,,,,,,,,,,,,,,,,,,,576.33329,82,left,0.663315,redfox      ,3,1,2,1,3,576.35046,576.35046,578.84897,0,4,4,4,1,82,3,1,redfox      ,parrot      ,html/resources/sequences_IDs/B/01_redfox.jpg,html/resources/sequences_IDs/B/05_parrot.jpg,1,5,1,1,2,1,1,4,0,66,,,,,,,,,,,,,,,,,,,,
,,,,,66,2020-07-04_16h54.49.382,retriever_ti,2020.1.3,Win32,60,Chrome,1536,864,,,,,,,,,,,,,,,,,2,,,,,,,,,,,,,,,,,,,,,,,,,,,579.46644,83,right,0.56727,satellite_dish,4,10,-3,0,3,579.500735,579.500735,581.998895,0,5,5,5,1,83,7,4,phone       ,satellite_dish,html/resources/sequences_IDs/B/09_phone.jpg,html/resources/sequences_IDs/A/10_satellite_dish.jpg,9,10,4,2,4,2,7,8,0,66,,,,,,,,,,,,,,,,,,,,
,,,,,66,2020-07-04_16h54.49.382,retriever_ti,2020.1.3,Win32,60,Chrome,1536,864,,,,,,,,,,,,,,,,,2,,,,,,,,,,,,,,,,,,,,,,,,,,,582.6171,84,left,1.146005,phone       ,7,9,1,1,1,582.63413,582.63413,585.132375,0,6,6,6,1,84,7,6,phone       ,clownfish     ,html/resources/sequences_IDs/B/09_phone.jpg,html/resources/sequences_IDs/A/04_clownfish.jpg,9,4,4,2,2,1,7,3,0,66,,,,,,,,,,,,,,,,,,,,
,,,,,66,2020-07-04_16h54.49.382,retriever_ti,2020.1.3,Win32,60,Chrome,1536,864,,,,,,,,,,,,,,,,,2,,,,,,,,,,,,,,,,,,,,,,,,,,,586.233175,85,right,1.6946,clownfish     ,6,4,5,1,3,586.25074,586.25074,588.74911,0,7,7,7,1,85,1,6,parrot      ,clownfish     ,html/resources/sequences_IDs/B/05_parrot.jpg,html/resources/sequences_IDs/A/04_clownfish.jpg,5,4,2,1,2,1,4,3,0,66,,,,,,,,,,,,,,,,,,,,
,,,,,66,2020-07-04_16h54.49.382,retriever_ti,2020.1.3,Win32,60,Chrome,1536,864,,,,,,,,,,,,,,,,,2,,,,,,,,,,,,,,,,,,,,,,,,,,,589.36751,86,left,0.79188,satellite_dish,4,10,1,1,1,589.383995,589.383995,591.882655,0,8,8,8,1,86,4,3,satellite_dish,redfox      ,html/resources/sequences_IDs/A/10_satellite_dish.jpg,html/resources/sequences_IDs/B/01_redfox.jpg,10,1,4,2,1,1,8,1,0,66,,,,,,,,,,,,,,,,,,,,
,,,,,66,2020-07-04_16h54.49.382,retriever_ti,2020.1.3,Win32,60,Chrome,1536,864,,,,,,,,,,,,,,,,,2,,,,,,,,,,,,,,,,,,,,,,,,,,,592.983385,87,right,1.053715,scarf         ,2,6,1,1,1,593.00147,593.00147,595.499765,0,9,9,9,1,87,1,2,parrot      ,scarf         ,html/resources/sequences_IDs/B/05_parrot.jpg,html/resources/sequences_IDs/A/06_scarf.jpg,5,6,2,1,3,2,4,5,0,66,,,,,,,,,,,,,,,,,,,,
,,,,,66,2020-07-04_16h54.49.382,retriever_ti,2020.1.3,Win32,60,Chrome,1536,864,,,,,,,,,,,,,,,,,2,,,,,,,,,,,,,,,,,,,,,,,,,,,596.60076,88,right,0.861045,redfox      ,3,1,-4,0,3,596.634385,596.634385,599.13322,0,10,10,10,1,88,7,3,phone       ,redfox      ,html/resources/sequences_IDs/B/09_phone.jpg,html/resources/sequences_IDs/B/01_redfox.jpg,9,1,4,2,1,1,7,1,0,66,,,,,,,,,,,,,,,,,,,,
,,,,,66,2020-07-04_16h54.49.382,retriever_ti,2020.1.3,Win32,60,Chrome,1536,864,,,,,,,,,,,,,,,,,2,,,,,,,,,,,,,,,,,,,,,,,,,,,599.75029,89,right,0.58056,camel         ,8,3,6,1,3,599.768275,599.768275,602.266765,0,11,11,11,1,89,2,8,scarf         ,camel         ,html/resources/sequences_IDs/A/06_scarf.jpg,html/resources/sequences_IDs/A/03_camel.jpg,6,3,3,2,1,1,5,2,0,66,,,,,,,,,,,,,,,,,,,,
,,,,,66,2020-07-04_16h54.49.382,retriever_ti,2020.1.3,Win32,60,Chrome,1536,864,,,,,,,,,,,,,,,,,2,,,,,,,,,,,,,,,,,,,,,,,,,,,602.8846,90,right,0.542015,redfox      ,3,1,1,1,1,602.90148,602.90148,605.39987,0,12,12,12,1,90,2,3,scarf         ,redfox      ,html/resources/sequences_IDs/A/06_scarf.jpg,html/resources/sequences_IDs/B/01_redfox.jpg,6,1,3,2,1,1,5,1,0,66,,,,,,,,,,,,,,,,,,,,
,,,,,66,2020-07-04_16h54.49.382,retriever_ti,2020.1.3,Win32,60,Chrome,1536,864,,,,,,,,,,,,,,,,,2,,,,,,,,,,,,,,,,,,,,,,,,,,,606.50095,91,left,1.133125,clownfish     ,6,4,4,1,3,606.53491,606.53491,609.03362,0,13,13,13,1,91,6,2,clownfish     ,scarf         ,html/resources/sequences_IDs/A/04_clownfish.jpg,html/resources/sequences_IDs/A/06_scarf.jpg,4,6,2,1,3,2,3,5,0,66,,,,,,,,,,,,,,,,,,,,
,,,,,66,2020-07-04_16h54.49.382,retriever_ti,2020.1.3,Win32,60,Chrome,1536,864,,,,,,,,,,,,,,,,,2,,,,,,,,,,,,,,,,,,,,,,,,,,,609.653435,92,right,0.83016,camel         ,8,3,1,1,1,609.669205,609.669205,612.167185,0,14,14,14,1,92,7,8,phone       ,camel         ,html/resources/sequences_IDs/B/09_phone.jpg,html/resources/sequences_IDs/A/03_camel.jpg,9,3,4,2,1,1,7,2,0,66,,,,,,,,,,,,,,,,,,,,
,,,,,66,2020-07-04_16h54.49.382,retriever_ti,2020.1.3,Win32,60,Chrome,1536,864,,,,,,,,,,,,,,,,,2,,,,,,,,,,,,,,,,,,,,,,,,,,,613.267475,93,right,0.711315,camel         ,8,3,2,1,3,613.301805,613.301805,615.80078,0,15,15,15,1,93,6,8,clownfish     ,camel         ,html/resources/sequences_IDs/A/04_clownfish.jpg,html/resources/sequences_IDs/A/03_camel.jpg,4,3,2,1,1,1,3,2,0,66,,,,,,,,,,,,,,,,,,,,
,,,,,66,2020-07-04_16h54.49.382,retriever_ti,2020.1.3,Win32,60,Chrome,1536,864,,,,,,,,,,,,,,,,,2,,,,,,,,,,,,,,,,,,,,,,,,,,,616.41896,94,right,1.318785,satellite_dish,4,10,-2,0,3,616.43578,616.43578,618.93435,0,16,16,16,1,94,6,4,clownfish     ,satellite_dish,html/resources/sequences_IDs/A/04_clownfish.jpg,html/resources/sequences_IDs/A/10_satellite_dish.jpg,4,10,2,1,4,2,3,8,0,66,,,,,,,,,,,,,,,,,,,,
,,,,,66,2020-07-04_16h54.49.382,retriever_ti,2020.1.3,Win32,60,Chrome,1536,864,,,,,,,,,,,,,,,,,2,,,,,,,,,,,,,,,,,,,,,,,,,,,619.55148,95,left,0.85781,camel         ,8,3,2,1,3,619.585375,619.585375,622.08412,0,17,17,17,1,95,8,6,camel         ,clownfish     ,html/resources/sequences_IDs/A/03_camel.jpg,html/resources/sequences_IDs/A/04_clownfish.jpg,3,4,1,1,2,1,2,3,0,66,,,,,,,,,,,,,,,,,,,,
,,,,,66,2020-07-04_16h54.49.382,retriever_ti,2020.1.3,Win32,60,Chrome,1536,864,,,,,,,,,,,,,,,,,2,,,,,,,,,,,,,,,,,,,,,,,,,,,622.701895,96,left,1.26136,clownfish     ,6,4,5,1,3,622.71923,622.71923,625.21759,0,18,18,18,1,96,6,1,clownfish     ,parrot      ,html/resources/sequences_IDs/A/04_clownfish.jpg,html/resources/sequences_IDs/B/05_parrot.jpg,4,5,2,1,2,1,3,4,0,66,,,,,,,,,,,,,,,,,,,,
,,,,,66,2020-07-04_16h54.49.382,retriever_ti,2020.1.3,Win32,60,Chrome,1536,864,,,,,,,,,,,,,,,,,2,,,,,,,,,,,,,,,,,,,,,,,,,,,625.81848,97,right,0.88879,clownfish     ,6,4,4,1,3,625.83576,625.83576,628.334555,0,19,19,19,1,97,2,6,scarf         ,clownfish     ,html/resources/sequences_IDs/A/06_scarf.jpg,html/resources/sequences_IDs/A/04_clownfish.jpg,6,4,3,2,2,1,5,3,0,66,,,,,,,,,,,,,,,,,,,,
,,,,,66,2020-07-04_16h54.49.382,retriever_ti,2020.1.3,Win32,60,Chrome,1536,864,,,,,,,,,,,,,,,,,2,,,,,,,,,,,,,,,,,,,,,,,,,,,628.952345,98,left,1.067545,satellite_dish,4,10,-2,0,3,628.986365,628.986365,631.484775,0,20,20,20,1,98,4,6,satellite_dish,clownfish     ,html/resources/sequences_IDs/A/10_satellite_dish.jpg,html/resources/sequences_IDs/A/04_clownfish.jpg,10,4,4,2,2,1,8,3,0,66,,,,,,,,,,,,,,,,,,,,
,,,,,66,2020-07-04_16h54.49.382,retriever_ti,2020.1.3,Win32,60,Chrome,1536,864,,,,,,,,,,,,,,,,,2,,,,,,,,,,,,,,,,,,,,,,,,,,,632.10203,99,right,0.78759,redfox      ,3,1,1,1,0,632.135995,632.135995,634.634555,0,21,21,21,1,99,2,3,scarf         ,redfox      ,html/resources/sequences_IDs/A/06_scarf.jpg,html/resources/sequences_IDs/B/01_redfox.jpg,6,1,3,2,1,1,5,1,1,66,,,,,,,,,,,,,,,,,,,,
,,,,,66,2020-07-04_16h54.49.382,retriever_ti,2020.1.3,Win32,60,Chrome,1536,864,,,,,,,,,,,,,,,,,2,,,,,,,,,,,,,,,,,,,,,,,,,,,635.73591,100,left,1.060275,camel         ,8,3,1,1,1,635.753415,635.753415,638.2517,0,22,22,22,1,100,8,7,camel         ,phone       ,html/resources/sequences_IDs/A/03_camel.jpg,html/resources/sequences_IDs/B/09_phone.jpg,3,9,1,1,4,2,2,7,0,66,,,,,,,,,,,,,,,,,,,,
,,,,,66,2020-07-04_16h54.49.382,retriever_ti,2020.1.3,Win32,60,Chrome,1536,864,,,,,,,,,,,,,,,,,2,,,,,,,,,,,,,,,,,,,,,,,,,,,639.35241,101,right,1.53574,parrot      ,1,5,-4,0,3,639.38632,639.38632,641.885015,0,23,23,23,1,101,5,1,sport_tshirt,parrot      ,html/resources/sequences_IDs/B/07_sport_tshirt.jpg,html/resources/sequences_IDs/B/05_parrot.jpg,7,5,3,2,2,1,6,4,0,66,,,,,,,,,,,,,,,,,,,,
,,,,,66,2020-07-04_16h54.49.382,retriever_ti,2020.1.3,Win32,60,Chrome,1536,864,,,,,,,,,,,,,,,,,2,,,,,,,,,,,,,,,,,,,,,,,,,,,642.48693,102,left,1.08597,satellite_dish,4,10,1,1,0,642.50336,642.50336,645.002085,0,24,24,24,1,102,4,3,satellite_dish,redfox      ,html/resources/sequences_IDs/A/10_satellite_dish.jpg,html/resources/sequences_IDs/B/01_redfox.jpg,10,1,4,2,1,1,8,1,1,66,,,,,,,,,,,,,,,,,,,,
,,,,,66,2020-07-04_16h54.49.382,retriever_ti,2020.1.3,Win32,60,Chrome,1536,864,,,,,,,,,,,,,,,,,2,,,,,,,,,,,,,,,,,,,,,,,,,,,646.10253,103,left,0.92779,redfox      ,3,1,-3,0,3,646.120525,646.120525,648.61854,0,25,25,25,1,103,3,6,redfox      ,clownfish     ,html/resources/sequences_IDs/B/01_redfox.jpg,html/resources/sequences_IDs/A/04_clownfish.jpg,1,4,1,1,2,1,1,3,0,66,,,,,,,,,,,,,,,,,,,,
,,,,,66,2020-07-04_16h54.49.382,retriever_ti,2020.1.3,Win32,60,Chrome,1536,864,,,,,,,,,,,,,,,,,2,,,,,,,,,,,,,,,,,,,,,,,,,,,649.23657,104,left,1.27674,clownfish     ,6,4,1,1,1,649.253875,649.253875,651.752145,0,26,26,26,1,104,6,5,clownfish     ,sport_tshirt,html/resources/sequences_IDs/A/04_clownfish.jpg,html/resources/sequences_IDs/B/07_sport_tshirt.jpg,4,7,2,1,3,2,3,6,0,66,,,,,,,,,,,,,,,,,,,,
,,,,,66,2020-07-04_16h54.49.382,retriever_ti,2020.1.3,Win32,60,Chrome,1536,864,,,,,,,,,,,,,,,,,2,,,,,,,,,,,,,,,,,,,,,,,,,,,652.85316,105,left,0.79478,camel         ,8,3,1,1,1,652.87078,652.87078,655.36884,0,27,27,27,1,105,8,7,camel         ,phone       ,html/resources/sequences_IDs/A/03_camel.jpg,html/resources/sequences_IDs/B/09_phone.jpg,3,9,1,1,4,2,2,7,0,66,,,,,,,,,,,,,,,,,,,,
,,,,,66,2020-07-04_16h54.49.382,retriever_ti,2020.1.3,Win32,60,Chrome,1536,864,,,,,,,,,,,,,,,,,2,,,,,,,,,,,,,,,,,,,,,,,,,,,656.47076,106,right,0.898125,camel         ,8,3,5,1,3,656.504185,656.504185,659.00224,0,28,28,28,1,106,3,8,redfox      ,camel         ,html/resources/sequences_IDs/B/01_redfox.jpg,html/resources/sequences_IDs/A/03_camel.jpg,1,3,1,1,1,1,1,2,0,66,,,,,,,,,,,,,,,,,,,,
,,,,,66,2020-07-04_16h54.49.382,retriever_ti,2020.1.3,Win32,60,Chrome,1536,864,,,,,,,,,,,,,,,,,2,,,,,,,,,,,,,,,,,,,,,,,,,,,659.60334,107,left,1.124705,parrot      ,1,5,-4,0,3,659.637645,659.637645,662.13575,0,29,29,29,1,107,1,5,parrot      ,sport_tshirt,html/resources/sequences_IDs/B/05_parrot.jpg,html/resources/sequences_IDs/B/07_sport_tshirt.jpg,5,7,2,1,3,2,4,6,0,66,,,,,,,,,,,,,,,,,,,,
,,,,,66,2020-07-04_16h54.49.382,retriever_ti,2020.1.3,Win32,60,Chrome,1536,864,,,,,,,,,,,,,,,,,2,,,,,,,,,,,,,,,,,,,,,,,,,,,662.75379,108,left,0.89199,satellite_dish,4,10,-3,0,3,662.771325,662.771325,665.269625,0,30,30,30,1,108,4,7,satellite_dish,phone       ,html/resources/sequences_IDs/A/10_satellite_dish.jpg,html/resources/sequences_IDs/B/09_phone.jpg,10,9,4,2,4,2,8,7,0,66,,,,,,,,,,,,,,,,,,,,
,,,,,66,2020-07-04_16h54.49.382,retriever_ti,2020.1.3,Win32,60,Chrome,1536,864,,,,,,,,,,,,,,,,,2,,,,,,,,,,,,,,,,,,,,,,,,,,,665.88667,109,right,0.7921,camel         ,8,3,1,1,0,665.920975,665.920975,668.419445,0,31,31,31,1,109,7,8,phone       ,camel         ,html/resources/sequences_IDs/B/09_phone.jpg,html/resources/sequences_IDs/A/03_camel.jpg,9,3,4,2,1,1,7,2,1,66,,,,,,,,,,,,,,,,,,,,
,,,,,66,2020-07-04_16h54.49.382,retriever_ti,2020.1.3,Win32,60,Chrome,1536,864,,,,,,,,,,,,,,,,,2,,,,,,,,,,,,,,,,,,,,,,,,,,,669.521145,110,right,1.34772,redfox      ,3,1,-2,0,3,669.53788,669.53788,672.036205,0,32,32,32,1,110,5,3,sport_tshirt,redfox      ,html/resources/sequences_IDs/B/07_sport_tshirt.jpg,html/resources/sequences_IDs/B/01_redfox.jpg,7,1,3,2,1,1,6,1,0,66,,,,,,,,,,,,,,,,,,,,
,,,,,66,2020-07-04_16h54.49.382,retriever_ti,2020.1.3,Win32,60,Chrome,1536,864,,,,,,,,,,,,,,,,,2,,,,,,,,,,,,,,,,,,,,,,,,,,,672.65373,111,right,1.064325,redfox      ,3,1,-1,0,0,672.671255,672.671255,675.17034,0,33,33,33,1,111,4,3,satellite_dish,redfox      ,html/resources/sequences_IDs/A/10_satellite_dish.jpg,html/resources/sequences_IDs/B/01_redfox.jpg,10,1,4,2,1,1,8,1,0,66,,,,,,,,,,,,,,,,,,,,
,,,,,66,2020-07-04_16h54.49.382,retriever_ti,2020.1.3,Win32,60,Chrome,1536,864,,,,,,,,,,,,,,,,,2,,,,,,,,,,,,,,,,,,,,,,,,,,,676.271665,112,right,0.527965,redfox      ,3,1,2,1,3,676.304805,676.304805,678.8039,0,34,34,34,1,112,1,3,parrot      ,redfox      ,html/resources/sequences_IDs/B/05_parrot.jpg,html/resources/sequences_IDs/B/01_redfox.jpg,5,1,2,1,1,1,4,1,0,66,,,,,,,,,,,,,,,,,,,,
,,,,,66,2020-07-04_16h54.49.382,retriever_ti,2020.1.3,Win32,60,Chrome,1536,864,,,,,,,,,,,,,,,,,2,,,,,,,,,,,,,,,,,,,,,,,,,,,679.42086,113,left,1.074955,clownfish     ,6,4,1,1,1,679.43824,679.43824,681.937285,0,35,35,35,1,113,6,5,clownfish     ,sport_tshirt,html/resources/sequences_IDs/A/04_clownfish.jpg,html/resources/sequences_IDs/B/07_sport_tshirt.jpg,4,7,2,1,3,2,3,6,0,66,,,,,,,,,,,,,,,,,,,,
,,,,,66,2020-07-04_16h54.49.382,retriever_ti,2020.1.3,Win32,60,Chrome,1536,864,,,,,,,,,,,,,,,,,2,,,,,,,,,,,,,,,,,,,,,,,,,,,683.03858,114,right,0.760385,phone       ,7,9,2,1,3,683.071725,683.071725,685.57021,0,36,36,36,1,114,5,7,sport_tshirt,phone       ,html/resources/sequences_IDs/B/07_sport_tshirt.jpg,html/resources/sequences_IDs/B/09_phone.jpg,7,9,3,2,4,2,6,7,0,66,,,,,,,,,,,,,,,,,,,,
,,,,,66,2020-07-04_16h54.49.382,retriever_ti,2020.1.3,Win32,60,Chrome,1536,864,,,,,,,,,,,,,,,,,2,,,,,,,,,,,,,,,,,,,,,,,,,,,686.171245,115,left,0.71026,camel         ,8,3,5,1,3,686.188745,686.188745,688.6873,0,37,37,37,1,115,8,3,camel         ,redfox      ,html/resources/sequences_IDs/A/03_camel.jpg,html/resources/sequences_IDs/B/01_redfox.jpg,3,1,1,1,1,1,2,1,0,66,,,,,,,,,,,,,,,,,,,,
,,,,,66,2020-07-04_16h54.49.382,retriever_ti,2020.1.3,Win32,60,Chrome,1536,864,,,,,,,,,,,,,,,,,2,,,,,,,,,,,,,,,,,,,,,,,,,,,689.30515,116,right,0.636015,satellite_dish,4,10,1,1,1,689.33889,689.33889,691.837525,0,38,38,38,1,116,3,4,redfox      ,satellite_dish,html/resources/sequences_IDs/B/01_redfox.jpg,html/resources/sequences_IDs/A/10_satellite_dish.jpg,1,10,1,1,4,2,1,8,0,66,,,,,,,,,,,,,,,,,,,,
,,,,,66,2020-07-04_16h54.49.382,retriever_ti,2020.1.3,Win32,60,Chrome,1536,864,,,,,,,,,,,,,,,,,2,,,,,,,,,,,,,,,,,,,,,,,,,,,692.940255,117,left,1.129705,parrot      ,1,5,-1,0,0,692.956385,692.956385,695.454385,0,39,39,39,1,117,1,2,parrot      ,scarf         ,html/resources/sequences_IDs/B/05_parrot.jpg,html/resources/sequences_IDs/A/06_scarf.jpg,5,6,2,1,3,2,4,5,0,66,,,,,,,,,,,,,,,,,,,,
,,,,,66,2020-07-04_16h54.49.382,retriever_ti,2020.1.3,Win32,60,Chrome,1536,864,,,,,,,,,,,,,,,,,2,,,,,,,,,,,,,,,,,,,,,,,,,,,696.55545,118,right,1.125255,redfox      ,3,1,1,1,1,696.589475,696.589475,699.08775,0,40,40,40,1,118,2,3,scarf         ,redfox      ,html/resources/sequences_IDs/A/06_scarf.jpg,html/resources/sequences_IDs/B/01_redfox.jpg,6,1,3,2,1,1,5,1,0,66,,,,,,,,,,,,,,,,,,,,
,,,,,66,2020-07-04_16h54.49.382,retriever_ti,2020.1.3,Win32,60,Chrome,1536,864,,,,,,,,,,,,,,,,,2,,,,,,,,,,,,,,,,,,,,,,,,,,,700.18838,119,left,0.58088,satellite_dish,4,10,-1,0,0,700.20579,700.20579,702.704465,0,41,41,41,1,119,4,5,satellite_dish,sport_tshirt,html/resources/sequences_IDs/A/10_satellite_dish.jpg,html/resources/sequences_IDs/B/07_sport_tshirt.jpg,10,7,4,2,3,2,8,6,0,66,,,,,,,,,,,,,,,,,,,,
,,,,,66,2020-07-04_16h54.49.382,retriever_ti,2020.1.3,Win32,60,Chrome,1536,864,,,,,,,,,,,,,,,,,2,,,,,,,,,,,,,,,,,,,,,,,,,,,703.805725,120,right,0.587035,satellite_dish,4,10,3,1,3,703.839645,703.839645,706.33784,0,42,42,42,1,120,1,4,parrot      ,satellite_dish,html/resources/sequences_IDs/B/05_parrot.jpg,html/resources/sequences_IDs/A/10_satellite_dish.jpg,5,10,2,1,4,2,4,8,0,66,,,,,,,,,,,,,,,,,,,,
,,,,,66,2020-07-04_16h54.49.382,retriever_ti,2020.1.3,Win32,60,Chrome,1536,864,,,,,,,,,,,,,,,,,2,,,,,,,,,,,,,,,,,,,,,,,,,,,706.955555,121,right,0.86929,phone       ,7,9,6,1,3,706.98996,706.98996,709.488255,0,43,43,43,1,121,1,7,parrot      ,phone       ,html/resources/sequences_IDs/B/05_parrot.jpg,html/resources/sequences_IDs/B/09_phone.jpg,5,9,2,1,4,2,4,7,0,66,,,,,,,,,,,,,,,,,,,,
,,,,,66,2020-07-04_16h54.49.382,retriever_ti,2020.1.3,Win32,60,Chrome,1536,864,,,,,,,,,,,,,,,,,2,,,,,,,,,,,,,,,,,,,,,,,,,,,710.106235,122,right,0.915835,satellite_dish,4,10,1,1,1,710.12289,710.12289,712.621435,0,44,44,44,1,122,3,4,redfox      ,satellite_dish,html/resources/sequences_IDs/B/01_redfox.jpg,html/resources/sequences_IDs/A/10_satellite_dish.jpg,1,10,1,1,4,2,1,8,0,66,,,,,,,,,,,,,,,,,,,,
,,,,,66,2020-07-04_16h54.49.382,retriever_ti,2020.1.3,Win32,60,Chrome,1536,864,,,,,,,,,,,,,,,,,2,,,,,,,,,,,,,,,,,,,,,,,,,,,713.722425,123,right,0.55224,satellite_dish,4,10,2,1,3,713.739785,713.739785,716.238445,0,45,45,45,1,123,2,4,scarf         ,satellite_dish,html/resources/sequences_IDs/A/06_scarf.jpg,html/resources/sequences_IDs/A/10_satellite_dish.jpg,6,10,3,2,4,2,5,8,0,66,,,,,,,,,,,,,,,,,,,,
,,,,,66,2020-07-04_16h54.49.382,retriever_ti,2020.1.3,Win32,60,Chrome,1536,864,,,,,,,,,,,,,,,,,2,,,,,,,,,,,,,,,,,,,,,,,,,,,716.856325,124,right,1.063975,redfox      ,3,1,-3,0,3,716.88997,716.88997,719.388805,0,46,46,46,1,124,6,3,clownfish     ,redfox      ,html/resources/sequences_IDs/A/04_clownfish.jpg,html/resources/sequences_IDs/B/01_redfox.jpg,4,1,2,1,1,1,3,1,0,66,,,,,,,,,,,,,,,,,,,,
,,,,,66,2020-07-04_16h54.49.382,retriever_ti,2020.1.3,Win32,60,Chrome,1536,864,,,,,,,,,,,,,,,,,2,,,,,,,,,,,,,,,,,,,,,,,,,,,720.005695,125,left,0.98317,redfox      ,3,1,-4,0,3,720.023395,720.023395,722.52217,0,47,47,47,1,125,3,7,redfox      ,phone       ,html/resources/sequences_IDs/B/01_redfox.jpg,html/resources/sequences_IDs/B/09_phone.jpg,1,9,1,1,4,2,1,7,0,66,,,,,,,,,,,,,,,,,,,,
,,,,,66,2020-07-04_16h54.49.382,retriever_ti,2020.1.3,Win32,60,Chrome,1536,864,,,,,,,,,,,,,,,,,2,,,,,,,,,,,,,,,,,,,,,,,,,,,723.14001,126,right,0.55897,satellite_dish,4,10,-1,0,0,723.17349,723.17349,725.672375,0,48,48,48,1,126,5,4,sport_tshirt,satellite_dish,html/resources/sequences_IDs/B/07_sport_tshirt.jpg,html/resources/sequences_IDs/A/10_satellite_dish.jpg,7,10,3,2,4,2,6,8,0,66,,,,,,,,,,,,,,,,,,,,
,,,,,66,2020-07-04_16h54.49.382,retriever_ti,2020.1.3,Win32,60,Chrome,1536,864,,,,,,,,,,,,,,,,,2,,,,,,,,,,,,,,,,,,,,,,,,,,,726.772705,127,left,0.73285,satellite_dish,4,10,3,1,3,726.806855,726.806855,729.305465,0,49,49,49,1,127,4,1,satellite_dish,parrot      ,html/resources/sequences_IDs/A/10_satellite_dish.jpg,html/resources/sequences_IDs/B/05_parrot.jpg,10,5,4,2,2,1,8,4,0,66,,,,,,,,,,,,,,,,,,,,
,,,,,66,2020-07-04_16h54.49.382,retriever_ti,2020.1.3,Win32,60,Chrome,1536,864,,,,,,,,,,,,,,,,,2,,,,,,,,,,,,,,,,,,,,,,,,,,,729.9073,128,left,0.73168,satellite_dish,4,10,-1,0,0,729.940495,729.940495,732.439375,0,50,50,50,1,128,4,5,satellite_dish,sport_tshirt,html/resources/sequences_IDs/A/10_satellite_dish.jpg,html/resources/sequences_IDs/B/07_sport_tshirt.jpg,10,7,4,2,3,2,8,6,0,66,,,,,,,,,,,,,,,,,,,,
,,,,,66,2020-07-04_16h54.49.382,retriever_ti,2020.1.3,Win32,60,Chrome,1536,864,,,,,,,,,,,,,,,,,2,,,,,,,,,,,,,,,,,,,,,,,,,,,733.53998,129,right,1.544025,scarf         ,2,6,-2,0,3,733.5578,733.5578,736.056195,0,51,51,51,1,129,4,2,satellite_dish,scarf         ,html/resources/sequences_IDs/A/10_satellite_dish.jpg,html/resources/sequences_IDs/A/06_scarf.jpg,10,6,4,2,3,2,8,5,0,66,,,,,,,,,,,,,,,,,,,,
,,,,,66,2020-07-04_16h54.49.382,retriever_ti,2020.1.3,Win32,60,Chrome,1536,864,,,,,,,,,,,,,,,,,2,,,,,,,,,,,,,,,,,,,,,,,,,,,736.67391,130,right,0.61069,camel         ,8,3,1,1,1,736.69118,736.69118,739.18931,0,52,52,52,1,130,7,8,phone       ,camel         ,html/resources/sequences_IDs/B/09_phone.jpg,html/resources/sequences_IDs/A/03_camel.jpg,9,3,4,2,1,1,7,2,0,66,,,,,,,,,,,,,,,,,,,,
,,,,,66,2020-07-04_16h54.49.382,retriever_ti,2020.1.3,Win32,60,Chrome,1536,864,,,,,,,,,,,,,,,,,2,,,,,,,,,,,,,,,,,,,,,,,,,,,740.290455,131,right,1.560245,phone       ,7,9,1,1,1,740.32435,740.32435,742.82281,0,53,53,53,1,131,6,7,clownfish     ,phone       ,html/resources/sequences_IDs/A/04_clownfish.jpg,html/resources/sequences_IDs/B/09_phone.jpg,4,9,2,1,4,2,3,7,0,66,,,,,,,,,,,,,,,,,,,,
,,,,,66,2020-07-04_16h54.49.382,retriever_ti,2020.1.3,Win32,60,Chrome,1536,864,,,,,,,,,,,,,,,,,2,,,,,,,,,,,,,,,,,,,,,,,,,,,743.924545,132,left,1.05853,phone       ,7,9,1,1,0,743.958325,743.958325,746.456595,0,54,54,54,1,132,7,6,phone       ,clownfish     ,html/resources/sequences_IDs/B/09_phone.jpg,html/resources/sequences_IDs/A/04_clownfish.jpg,9,4,4,2,2,1,7,3,1,66,,,,,,,,,,,,,,,,,,,,
,,,,,66,2020-07-04_16h54.49.382,retriever_ti,2020.1.3,Win32,60,Chrome,1536,864,,,,,,,,,,,,,,,,,2,,,,,,,,,,,,,,,,,,,,,,,,,,,747.557305,133,right,1.747045,sport_tshirt,5,7,3,1,3,747.57549,747.57549,750.0735,0,55,55,55,1,133,2,5,scarf         ,sport_tshirt,html/resources/sequences_IDs/A/06_scarf.jpg,html/resources/sequences_IDs/B/07_sport_tshirt.jpg,6,7,3,2,3,2,5,6,0,66,,,,,,,,,,,,,,,,,,,,
,,,,,66,2020-07-04_16h54.49.382,retriever_ti,2020.1.3,Win32,60,Chrome,1536,864,,,,,,,,,,,,,,,,,2,,,,,,,,,,,,,,,,,,,,,,,,,,,750.691805,134,right,1.3683,parrot      ,1,5,-1,0,1,750.70814,750.70814,753.207245,0,56,56,56,1,134,2,1,scarf         ,parrot      ,html/resources/sequences_IDs/A/06_scarf.jpg,html/resources/sequences_IDs/B/05_parrot.jpg,6,5,3,2,2,1,5,4,1,66,,,,,,,,,,,,,,,,,,,,
,,,,,66,2020-07-04_16h54.49.382,retriever_ti,2020.1.3,Win32,60,Chrome,1536,864,,,,,,,,,,,,,,,,,2,,,,,,,,,,,,,,,,,,,,,,,,,,,754.307395,135,right,0.610085,satellite_dish,4,10,-4,0,3,754.325995,754.325995,756.82377,0,57,57,57,1,135,8,4,camel         ,satellite_dish,html/resources/sequences_IDs/A/03_camel.jpg,html/resources/sequences_IDs/A/10_satellite_dish.jpg,3,10,1,1,4,2,2,8,0,66,,,,,,,,,,,,,,,,,,,,
,,,,,66,2020-07-04_16h54.49.382,retriever_ti,2020.1.3,Win32,60,Chrome,1536,864,,,,,,,,,,,,,,,,,2,,,,,,,,,,,,,,,,,,,,,,,,,,,757.44193,136,right,0.94051,camel         ,8,3,4,1,3,757.475065,757.475065,759.973645,0,58,58,58,1,136,4,8,satellite_dish,camel         ,html/resources/sequences_IDs/A/10_satellite_dish.jpg,html/resources/sequences_IDs/A/03_camel.jpg,10,3,4,2,1,1,8,2,0,66,,,,,,,,,,,,,,,,,,,,
,,,,,66,2020-07-04_16h54.49.382,retriever_ti,2020.1.3,Win32,60,Chrome,1536,864,,,,,,,,,,,,,,,,,2,,,,,,,,,,,,,,,,,,,,,,,,,,,760.591285,137,right,1.612625,parrot      ,1,5,-1,0,0,760.608965,760.608965,763.107195,0,59,59,59,1,137,2,1,scarf         ,parrot      ,html/resources/sequences_IDs/A/06_scarf.jpg,html/resources/sequences_IDs/B/05_parrot.jpg,6,5,3,2,2,1,5,4,0,66,,,,,,,,,,,,,,,,,,,,
,,,,,66,2020-07-04_16h54.49.382,retriever_ti,2020.1.3,Win32,60,Chrome,1536,864,,,,,,,,,,,,,,,,,2,,,,,,,,,,,,,,,,,,,,,,,,,,,764.208815,138,left,0.793865,phone       ,7,9,5,1,3,764.242175,764.242175,766.740955,0,60,60,60,1,138,7,2,phone       ,scarf         ,html/resources/sequences_IDs/B/09_phone.jpg,html/resources/sequences_IDs/A/06_scarf.jpg,9,6,4,2,3,2,7,5,0,66,,,,,,,,,,,,,,,,,,,,
,,,,,66,2020-07-04_16h54.49.382,retriever_ti,2020.1.3,Win32,60,Chrome,1536,864,,,,,,,,,,,,,,,,,2,,,,,,,,,,,,,,,,,,,,,,,,,,,767.35798,139,left,1.0977,satellite_dish,4,10,-1,0,1,767.39294,767.39294,769.89105,0,61,61,61,1,139,4,5,satellite_dish,sport_tshirt,html/resources/sequences_IDs/A/10_satellite_dish.jpg,html/resources/sequences_IDs/B/07_sport_tshirt.jpg,10,7,4,2,3,2,8,6,1,66,,,,,,,,,,,,,,,,,,,,
,,,,,66,2020-07-04_16h54.49.382,retriever_ti,2020.1.3,Win32,60,Chrome,1536,864,,,,,,,,,,,,,,,,,2,,,,,,,,,,,,,,,,,,,,,,,,,,,770.99252,140,left,0.939835,phone       ,7,9,2,1,3,771.009425,771.009425,773.50767,0,62,62,62,1,140,7,5,phone       ,sport_tshirt,html/resources/sequences_IDs/B/09_phone.jpg,html/resources/sequences_IDs/B/07_sport_tshirt.jpg,9,7,4,2,3,2,7,6,0,66,,,,,,,,,,,,,,,,,,,,
,,,,,66,2020-07-04_16h54.49.382,retriever_ti,2020.1.3,Win32,60,Chrome,1536,864,,,,,,,,,,,,,,,,,2,,,,,,,,,,,,,,,,,,,,,,,,,,,774.124845,141,right,0.582655,phone       ,7,9,5,1,3,774.159315,774.159315,776.65824,0,63,63,63,1,141,2,7,scarf         ,phone       ,html/resources/sequences_IDs/A/06_scarf.jpg,html/resources/sequences_IDs/B/09_phone.jpg,6,9,3,2,4,2,5,7,0,66,,,,,,,,,,,,,,,,,,,,
,,,,,66,2020-07-04_16h54.49.382,retriever_ti,2020.1.3,Win32,60,Chrome,1536,864,,,,,,,,,,,,,,,,,2,,,,,,,,,,,,,,,,,,,,,,,,,,,777.27577,142,right,1.24419,parrot      ,1,5,-6,0,3,777.30972,777.30972,779.808275,0,64,64,64,1,142,7,1,phone       ,parrot      ,html/resources/sequences_IDs/B/09_phone.jpg,html/resources/sequences_IDs/B/05_parrot.jpg,9,5,4,2,2,1,7,4,0,66,,,,,,,,,,,,,,,,,,,,
,,,,,66,2020-07-04_16h54.49.382,retriever_ti,2020.1.3,Win32,60,Chrome,1536,864,,,,,,,,,,,,,,,,,2,,,,,,,,,,,,,,,,,,,,,,,,,,,780.425265,143,right,1.16595,camel         ,8,3,3,1,3,780.46023,780.46023,782.95835,0,65,65,65,1,143,5,8,sport_tshirt,camel         ,html/resources/sequences_IDs/B/07_sport_tshirt.jpg,html/resources/sequences_IDs/A/03_camel.jpg,7,3,3,2,1,1,6,2,0,66,,,,,,,,,,,,,,,,,,,,
,,,,,66,2020-07-04_16h54.49.382,retriever_ti,2020.1.3,Win32,60,Chrome,1536,864,,,,,,,,,,,,,,,,,2,,,,,,,,,,,,,,,,,,,,,,,,,,,783.576595,144,left,1.77418,sport_tshirt,5,7,3,1,3,783.593745,783.593745,786.091855,0,66,66,66,1,144,5,2,sport_tshirt,scarf         ,html/resources/sequences_IDs/B/07_sport_tshirt.jpg,html/resources/sequences_IDs/A/06_scarf.jpg,7,6,3,2,3,2,6,5,0,66,,,,,,,,,,,,,,,,,,,,
,,,,,66,2020-07-04_16h54.49.382,retriever_ti,2020.1.3,Win32,60,Chrome,1536,864,,,,,,,,,,,,,,,,,2,,,,,,,,,,,,,,,,,,,,,,,,,,,786.708915,145,right,1.0968,clownfish     ,6,4,1,1,0,786.74335,786.74335,789.241715,0,67,67,67,1,145,5,6,sport_tshirt,clownfish     ,html/resources/sequences_IDs/B/07_sport_tshirt.jpg,html/resources/sequences_IDs/A/04_clownfish.jpg,7,4,3,2,2,1,6,3,1,66,,,,,,,,,,,,,,,,,,,,
,,,,,66,2020-07-04_16h54.49.382,retriever_ti,2020.1.3,Win32,60,Chrome,1536,864,,,,,,,,,,,,,,,,,2,,,,,,,,,,,,,,,,,,,,,,,,,,,790.343435,146,left,1.66289,camel         ,8,3,7,1,3,790.37634,790.37634,792.875315,0,68,68,68,1,146,8,1,camel         ,parrot      ,html/resources/sequences_IDs/A/03_camel.jpg,html/resources/sequences_IDs/B/05_parrot.jpg,3,5,1,1,2,1,2,4,0,66,,,,,,,,,,,,,,,,,,,,
,,,,,66,2020-07-04_16h54.49.382,retriever_ti,2020.1.3,Win32,60,Chrome,1536,864,,,,,,,,,,,,,,,,,2,,,,,,,,,,,,,,,,,,,,,,,,,,,793.476215,147,right,0.84272,satellite_dish,4,10,-1,0,0,793.510215,793.510215,796.00905,0,69,69,69,1,147,5,4,sport_tshirt,satellite_dish,html/resources/sequences_IDs/B/07_sport_tshirt.jpg,html/resources/sequences_IDs/A/10_satellite_dish.jpg,7,10,3,2,4,2,6,8,0,66,,,,,,,,,,,,,,,,,,,,
,,,,,66,2020-07-04_16h54.49.382,retriever_ti,2020.1.3,Win32,60,Chrome,1536,864,,,,,,,,,,,,,,,,,2,,,,,,,,,,,,,,,,,,,,,,,,,,,797.11002,148,left,0.69027,camel         ,8,3,6,1,3,797.143975,797.143975,799.64217,0,70,70,70,1,148,8,2,camel         ,scarf         ,html/resources/sequences_IDs/A/03_camel.jpg,html/resources/sequences_IDs/A/06_scarf.jpg,3,6,1,1,3,2,2,5,0,66,,,,,,,,,,,,,,,,,,,,
,,,,,66,2020-07-04_16h54.49.382,retriever_ti,2020.1.3,Win32,60,Chrome,1536,864,,,,,,,,,,,,,,,,,2,,,,,,,,,,,,,,,,,,,,,,,,,,,800.259815,149,right,0.645855,parrot      ,1,5,-1,0,0,800.276965,800.276965,802.77572,0,71,71,71,1,149,2,1,scarf         ,parrot      ,html/resources/sequences_IDs/A/06_scarf.jpg,html/resources/sequences_IDs/B/05_parrot.jpg,6,5,3,2,2,1,5,4,0,66,,,,,,,,,,,,,,,,,,,,
,,,,,66,2020-07-04_16h54.49.382,retriever_ti,2020.1.3,Win32,60,Chrome,1536,864,,,,,,,,,,,,,,,,,2,,,,,,,,,,,,,,,,,,,,,,,,,,,803.877415,150,left,0.69134,redfox      ,3,1,-2,0,3,803.89439,803.89439,806.3925,0,72,72,72,1,150,3,5,redfox      ,sport_tshirt,html/resources/sequences_IDs/B/01_redfox.jpg,html/resources/sequences_IDs/B/07_sport_tshirt.jpg,1,7,1,1,3,2,1,6,0,66,,,,,,,,,,,,,,,,,,,,
,,,,,66,2020-07-04_16h54.49.382,retriever_ti,2020.1.3,Win32,60,Chrome,1536,864,,,,,,,,,,,,,,,,,2,,,,,,,,,,,,,,,,,,,,,,,,,,,806.99338,151,left,1.47606,redfox      ,3,1,1,1,1,807.01121,807.01121,809.50962,0,73,73,73,1,151,3,2,redfox      ,scarf         ,html/resources/sequences_IDs/B/01_redfox.jpg,html/resources/sequences_IDs/A/06_scarf.jpg,1,6,1,1,3,2,1,5,0,66,,,,,,,,,,,,,,,,,,,,
,,,,,66,2020-07-04_16h54.49.382,retriever_ti,2020.1.3,Win32,60,Chrome,1536,864,,,,,,,,,,,,,,,,,2,,,,,,,,,,,,,,,,,,,,,,,,,,,810.61069,152,left,0.866835,camel         ,8,3,3,1,3,810.64445,810.64445,813.143145,0,74,74,74,1,152,8,5,camel         ,sport_tshirt,html/resources/sequences_IDs/A/03_camel.jpg,html/resources/sequences_IDs/B/07_sport_tshirt.jpg,3,7,1,1,3,2,2,6,0,66,,,,,,,,,,,,,,,,,,,,
,,,,,66,2020-07-04_16h54.49.382,retriever_ti,2020.1.3,Win32,60,Chrome,1536,864,,,,,,,,,,,,,,,,,2,,,,,,,,,,,,,,,,,,,,,,,,,,,813.760045,153,left,0.99524,phone       ,7,9,1,1,1,813.794365,813.794365,816.29302,0,75,75,75,1,153,7,6,phone       ,clownfish     ,html/resources/sequences_IDs/B/09_phone.jpg,html/resources/sequences_IDs/A/04_clownfish.jpg,9,4,4,2,2,1,7,3,0,66,,,,,,,,,,,,,,,,,,,,
,,,,,66,2020-07-04_16h54.49.382,retriever_ti,2020.1.3,Win32,60,Chrome,1536,864,,,,,,,,,,,,,,,,,2,,,,,,,,,,,,,,,,,,,,,,,,,,,817.393905,154,left,2.261785,clownfish     ,6,4,-1,0,0,817.411265,817.411265,819.909825,0,76,76,76,1,154,6,7,clownfish     ,phone       ,html/resources/sequences_IDs/A/04_clownfish.jpg,html/resources/sequences_IDs/B/09_phone.jpg,4,9,2,1,4,2,3,7,0,66,,,,,,,,,,,,,,,,,,,,
,,,,,66,2020-07-04_16h54.49.382,retriever_ti,2020.1.3,Win32,60,Chrome,1536,864,,,,,,,,,,,,,,,,,,,,,,,,,,,,,,,,,,,,,1,2.56374,,,,,,,,,,,,,,,,,,,,,,,,,,,,,,,,,,,,,,,,,1,0,1,0,1,,,,,,,,,,,,,,,
,,,,,66,2020-07-04_16h54.49.382,retriever_ti,2020.1.3,Win32,60,Chrome,1536,864,,,,,,,,,,,,,,,,,3,,,,,,,,,,,,,,,,,,,,,,,,,,,830.72166,155,left,0.75591,satellite_dish,4,10,-1,0,0,830.7622,830.7622,833.260505,0,0,0,0,1,155,4,5,satellite_dish,sport_tshirt,html/resources/sequences_IDs/A/10_satellite_dish.jpg,html/resources/sequences_IDs/B/07_sport_tshirt.jpg,10,7,4,2,3,2,8,6,0,66,,,,,,,,,,,,,,,,,,,,
,,,,,66,2020-07-04_16h54.49.382,retriever_ti,2020.1.3,Win32,60,Chrome,1536,864,,,,,,,,,,,,,,,,,3,,,,,,,,,,,,,,,,,,,,,,,,,,,834.36184,156,left,0.8693,camel         ,8,3,5,1,3,834.39585,834.39585,836.89386,0,1,1,1,1,156,8,3,camel         ,redfox      ,html/resources/sequences_IDs/A/03_camel.jpg,html/resources/sequences_IDs/B/01_redfox.jpg,3,1,1,1,1,1,2,1,0,66,,,,,,,,,,,,,,,,,,,,
,,,,,66,2020-07-04_16h54.49.382,retriever_ti,2020.1.3,Win32,60,Chrome,1536,864,,,,,,,,,,,,,,,,,3,,,,,,,,,,,,,,,,,,,,,,,,,,,837.51116,157,right,0.629475,parrot      ,1,5,-1,0,1,837.52887,837.52887,840.0278,0,2,2,2,1,157,2,1,scarf         ,parrot      ,html/resources/sequences_IDs/A/06_scarf.jpg,html/resources/sequences_IDs/B/05_parrot.jpg,6,5,3,2,2,1,5,4,1,66,,,,,,,,,,,,,,,,,,,,
,,,,,66,2020-07-04_16h54.49.382,retriever_ti,2020.1.3,Win32,60,Chrome,1536,864,,,,,,,,,,,,,,,,,3,,,,,,,,,,,,,,,,,,,,,,,,,,,841.12926,158,left,0.76492,redfox      ,3,1,-3,0,3,841.14607,841.14607,843.644525,0,3,3,3,1,158,3,6,redfox      ,clownfish     ,html/resources/sequences_IDs/B/01_redfox.jpg,html/resources/sequences_IDs/A/04_clownfish.jpg,1,4,1,1,2,1,1,3,0,66,,,,,,,,,,,,,,,,,,,,
,,,,,66,2020-07-04_16h54.49.382,retriever_ti,2020.1.3,Win32,60,Chrome,1536,864,,,,,,,,,,,,,,,,,3,,,,,,,,,,,,,,,,,,,,,,,,,,,844.26206,159,right,1.239405,clownfish     ,6,4,-1,0,0,844.27985,844.27985,846.77765,0,4,4,4,1,159,7,6,phone       ,clownfish     ,html/resources/sequences_IDs/B/09_phone.jpg,html/resources/sequences_IDs/A/04_clownfish.jpg,9,4,4,2,2,1,7,3,0,66,,,,,,,,,,,,,,,,,,,,
,,,,,66,2020-07-04_16h54.49.382,retriever_ti,2020.1.3,Win32,60,Chrome,1536,864,,,,,,,,,,,,,,,,,3,,,,,,,,,,,,,,,,,,,,,,,,,,,847.87949,160,left,1.888555,clownfish     ,6,4,1,1,1,847.913265,847.913265,850.411415,0,5,5,5,1,160,6,5,clownfish     ,sport_tshirt,html/resources/sequences_IDs/A/04_clownfish.jpg,html/resources/sequences_IDs/B/07_sport_tshirt.jpg,4,7,2,1,3,2,3,6,0,66,,,,,,,,,,,,,,,,,,,,
,,,,,66,2020-07-04_16h54.49.382,retriever_ti,2020.1.3,Win32,60,Chrome,1536,864,,,,,,,,,,,,,,,,,3,,,,,,,,,,,,,,,,,,,,,,,,,,,851.511745,161,right,0.678235,camel         ,8,3,1,1,1,851.54614,851.54614,854.045025,0,6,6,6,1,161,7,8,phone       ,camel         ,html/resources/sequences_IDs/B/09_phone.jpg,html/resources/sequences_IDs/A/03_camel.jpg,9,3,4,2,1,1,7,2,0,66,,,,,,,,,,,,,,,,,,,,
,,,,,66,2020-07-04_16h54.49.382,retriever_ti,2020.1.3,Win32,60,Chrome,1536,864,,,,,,,,,,,,,,,,,3,,,,,,,,,,,,,,,,,,,,,,,,,,,855.14594,162,right,1.0684,redfox      ,3,1,-1,0,0,855.162915,855.162915,857.66188,0,7,7,7,1,162,4,3,satellite_dish,redfox      ,html/resources/sequences_IDs/A/10_satellite_dish.jpg,html/resources/sequences_IDs/B/01_redfox.jpg,10,1,4,2,1,1,8,1,0,66,,,,,,,,,,,,,,,,,,,,
,,,,,66,2020-07-04_16h54.49.382,retriever_ti,2020.1.3,Win32,60,Chrome,1536,864,,,,,,,,,,,,,,,,,3,,,,,,,,,,,,,,,,,,,,,,,,,,,858.762375,163,left,0.835155,redfox      ,3,1,-2,0,3,858.796725,858.796725,861.29492,0,8,8,8,1,163,3,5,redfox      ,sport_tshirt,html/resources/sequences_IDs/B/01_redfox.jpg,html/resources/sequences_IDs/B/07_sport_tshirt.jpg,1,7,1,1,3,2,1,6,0,66,,,,,,,,,,,,,,,,,,,,
,,,,,66,2020-07-04_16h54.49.382,retriever_ti,2020.1.3,Win32,60,Chrome,1536,864,,,,,,,,,,,,,,,,,3,,,,,,,,,,,,,,,,,,,,,,,,,,,861.912985,164,left,1.683525,clownfish     ,6,4,-1,0,0,861.94667,861.94667,864.44547,0,9,9,9,1,164,6,7,clownfish     ,phone       ,html/resources/sequences_IDs/A/04_clownfish.jpg,html/resources/sequences_IDs/B/09_phone.jpg,4,9,2,1,4,2,3,7,0,66,,,,,,,,,,,,,,,,,,,,
,,,,,66,2020-07-04_16h54.49.382,retriever_ti,2020.1.3,Win32,60,Chrome,1536,864,,,,,,,,,,,,,,,,,3,,,,,,,,,,,,,,,,,,,,,,,,,,,865.545965,165,right,2.10312,phone       ,7,9,1,1,1,865.564175,865.564175,868.06229,0,10,10,10,1,165,6,7,clownfish     ,phone       ,html/resources/sequences_IDs/A/04_clownfish.jpg,html/resources/sequences_IDs/B/09_phone.jpg,4,9,2,1,4,2,3,7,0,66,,,,,,,,,,,,,,,,,,,,
,,,,,66,2020-07-04_16h54.49.382,retriever_ti,2020.1.3,Win32,60,Chrome,1536,864,,,,,,,,,,,,,,,,,3,,,,,,,,,,,,,,,,,,,,,,,,,,,869.163725,166,right,0.68631,camel         ,8,3,3,1,3,869.196945,869.196945,871.695925,0,11,11,11,1,166,5,8,sport_tshirt,camel         ,html/resources/sequences_IDs/B/07_sport_tshirt.jpg,html/resources/sequences_IDs/A/03_camel.jpg,7,3,3,2,1,1,6,2,0,66,,,,,,,,,,,,,,,,,,,,
,,,,,66,2020-07-04_16h54.49.382,retriever_ti,2020.1.3,Win32,60,Chrome,1536,864,,,,,,,,,,,,,,,,,3,,,,,,,,,,,,,,,,,,,,,,,,,,,872.31307,167,right,0.68982,camel         ,8,3,2,1,3,872.33043,872.33043,874.82939,0,12,12,12,1,167,6,8,clownfish     ,camel         ,html/resources/sequences_IDs/A/04_clownfish.jpg,html/resources/sequences_IDs/A/03_camel.jpg,4,3,2,1,1,1,3,2,0,66,,,,,,,,,,,,,,,,,,,,
,,,,,66,2020-07-04_16h54.49.382,retriever_ti,2020.1.3,Win32,60,Chrome,1536,864,,,,,,,,,,,,,,,,,3,,,,,,,,,,,,,,,,,,,,,,,,,,,875.44692,168,right,1.12889,parrot      ,1,5,-6,0,3,875.480665,875.480665,877.979425,0,13,13,13,1,168,7,1,phone       ,parrot      ,html/resources/sequences_IDs/B/09_phone.jpg,html/resources/sequences_IDs/B/05_parrot.jpg,9,5,4,2,2,1,7,4,0,66,,,,,,,,,,,,,,,,,,,,
,,,,,66,2020-07-04_16h54.49.382,retriever_ti,2020.1.3,Win32,60,Chrome,1536,864,,,,,,,,,,,,,,,,,3,,,,,,,,,,,,,,,,,,,,,,,,,,,878.59636,169,right,0.688485,redfox      ,3,1,-3,0,3,878.614925,878.614925,881.112955,0,14,14,14,1,169,6,3,clownfish     ,redfox      ,html/resources/sequences_IDs/A/04_clownfish.jpg,html/resources/sequences_IDs/B/01_redfox.jpg,4,1,2,1,1,1,3,1,0,66,,,,,,,,,,,,,,,,,,,,
,,,,,66,2020-07-04_16h54.49.382,retriever_ti,2020.1.3,Win32,60,Chrome,1536,864,,,,,,,,,,,,,,,,,3,,,,,,,,,,,,,,,,,,,,,,,,,,,881.73112,170,right,1.031925,satellite_dish,4,10,-4,0,3,881.76392,881.76392,884.26289,0,15,15,15,1,170,8,4,camel         ,satellite_dish,html/resources/sequences_IDs/A/03_camel.jpg,html/resources/sequences_IDs/A/10_satellite_dish.jpg,3,10,1,1,4,2,2,8,0,66,,,,,,,,,,,,,,,,,,,,
,,,,,66,2020-07-04_16h54.49.382,retriever_ti,2020.1.3,Win32,60,Chrome,1536,864,,,,,,,,,,,,,,,,,3,,,,,,,,,,,,,,,,,,,,,,,,,,,884.88031,171,right,0.81529,parrot      ,1,5,-4,0,3,884.897985,884.897985,887.396375,0,16,16,16,1,171,5,1,sport_tshirt,parrot      ,html/resources/sequences_IDs/B/07_sport_tshirt.jpg,html/resources/sequences_IDs/B/05_parrot.jpg,7,5,3,2,2,1,6,4,0,66,,,,,,,,,,,,,,,,,,,,
,,,,,66,2020-07-04_16h54.49.382,retriever_ti,2020.1.3,Win32,60,Chrome,1536,864,,,,,,,,,,,,,,,,,3,,,,,,,,,,,,,,,,,,,,,,,,,,,888.01429,172,right,1.103755,clownfish     ,6,4,1,1,1,888.031215,888.031215,890.529735,0,17,17,17,1,172,5,6,sport_tshirt,clownfish     ,html/resources/sequences_IDs/B/07_sport_tshirt.jpg,html/resources/sequences_IDs/A/04_clownfish.jpg,7,4,3,2,2,1,6,3,0,66,,,,,,,,,,,,,,,,,,,,
,,,,,66,2020-07-04_16h54.49.382,retriever_ti,2020.1.3,Win32,60,Chrome,1536,864,,,,,,,,,,,,,,,,,3,,,,,,,,,,,,,,,,,,,,,,,,,,,891.630235,173,right,1.0459,redfox      ,3,1,2,1,3,891.665,891.665,894.163415,0,18,18,18,1,173,1,3,parrot      ,redfox      ,html/resources/sequences_IDs/B/05_parrot.jpg,html/resources/sequences_IDs/B/01_redfox.jpg,5,1,2,1,1,1,4,1,0,66,,,,,,,,,,,,,,,,,,,,
,,,,,66,2020-07-04_16h54.49.382,retriever_ti,2020.1.3,Win32,60,Chrome,1536,864,,,,,,,,,,,,,,,,,3,,,,,,,,,,,,,,,,,,,,,,,,,,,894.781235,174,left,0.822765,camel         ,8,3,7,1,3,894.815005,894.815005,897.31371,0,19,19,19,1,174,8,1,camel         ,parrot      ,html/resources/sequences_IDs/A/03_camel.jpg,html/resources/sequences_IDs/B/05_parrot.jpg,3,5,1,1,2,1,2,4,0,66,,,,,,,,,,,,,,,,,,,,
,,,,,66,2020-07-04_16h54.49.382,retriever_ti,2020.1.3,Win32,60,Chrome,1536,864,,,,,,,,,,,,,,,,,3,,,,,,,,,,,,,,,,,,,,,,,,,,,897.93065,175,left,1.125015,phone       ,7,9,2,1,3,897.948375,897.948375,900.447165,0,20,20,20,1,175,7,5,phone       ,sport_tshirt,html/resources/sequences_IDs/B/09_phone.jpg,html/resources/sequences_IDs/B/07_sport_tshirt.jpg,9,7,4,2,3,2,7,6,0,66,,,,,,,,,,,,,,,,,,,,
,,,,,66,2020-07-04_16h54.49.382,retriever_ti,2020.1.3,Win32,60,Chrome,1536,864,,,,,,,,,,,,,,,,,3,,,,,,,,,,,,,,,,,,,,,,,,,,,901.064885,176,right,2.02327,phone       ,7,9,-1,0,0,901.09864,901.09864,903.597265,0,21,21,21,1,176,8,7,camel         ,phone       ,html/resources/sequences_IDs/A/03_camel.jpg,html/resources/sequences_IDs/B/09_phone.jpg,3,9,1,1,4,2,2,7,0,66,,,,,,,,,,,,,,,,,,,,
,,,,,66,2020-07-04_16h54.49.382,retriever_ti,2020.1.3,Win32,60,Chrome,1536,864,,,,,,,,,,,,,,,,,3,,,,,,,,,,,,,,,,,,,,,,,,,,,904.697805,177,left,1.31374,sport_tshirt,5,7,3,1,3,904.73187,904.73187,907.23063,0,22,22,22,1,177,5,2,sport_tshirt,scarf         ,html/resources/sequences_IDs/B/07_sport_tshirt.jpg,html/resources/sequences_IDs/A/06_scarf.jpg,7,6,3,2,3,2,6,5,0,66,,,,,,,,,,,,,,,,,,,,
,,,,,66,2020-07-04_16h54.49.382,retriever_ti,2020.1.3,Win32,60,Chrome,1536,864,,,,,,,,,,,,,,,,,3,,,,,,,,,,,,,,,,,,,,,,,,,,,907.832245,178,left,0.987805,parrot      ,1,5,-4,0,3,907.848755,907.848755,910.347225,0,23,23,23,1,178,1,5,parrot      ,sport_tshirt,html/resources/sequences_IDs/B/05_parrot.jpg,html/resources/sequences_IDs/B/07_sport_tshirt.jpg,5,7,2,1,3,2,4,6,0,66,,,,,,,,,,,,,,,,,,,,
,,,,,66,2020-07-04_16h54.49.382,retriever_ti,2020.1.3,Win32,60,Chrome,1536,864,,,,,,,,,,,,,,,,,3,,,,,,,,,,,,,,,,,,,,,,,,,,,910.948265,179,right,0.700155,satellite_dish,4,10,-1,0,0,910.98218,910.98218,913.480755,0,24,24,24,1,179,5,4,sport_tshirt,satellite_dish,html/resources/sequences_IDs/B/07_sport_tshirt.jpg,html/resources/sequences_IDs/A/10_satellite_dish.jpg,7,10,3,2,4,2,6,8,0,66,,,,,,,,,,,,,,,,,,,,
,,,,,66,2020-07-04_16h54.49.382,retriever_ti,2020.1.3,Win32,60,Chrome,1536,864,,,,,,,,,,,,,,,,,3,,,,,,,,,,,,,,,,,,,,,,,,,,,914.58233,180,left,0.724075,redfox      ,3,1,1,1,1,914.599355,914.599355,917.09784,0,25,25,25,1,180,3,2,redfox      ,scarf         ,html/resources/sequences_IDs/B/01_redfox.jpg,html/resources/sequences_IDs/A/06_scarf.jpg,1,6,1,1,3,2,1,5,0,66,,,,,,,,,,,,,,,,,,,,
,,,,,66,2020-07-04_16h54.49.382,retriever_ti,2020.1.3,Win32,60,Chrome,1536,864,,,,,,,,,,,,,,,,,3,,,,,,,,,,,,,,,,,,,,,,,,,,,918.19855,181,left,1.36477,clownfish     ,6,4,1,1,1,918.232495,918.232495,920.73096,0,26,26,26,1,181,6,5,clownfish     ,sport_tshirt,html/resources/sequences_IDs/A/04_clownfish.jpg,html/resources/sequences_IDs/B/07_sport_tshirt.jpg,4,7,2,1,3,2,3,6,0,66,,,,,,,,,,,,,,,,,,,,
,,,,,66,2020-07-04_16h54.49.382,retriever_ti,2020.1.3,Win32,60,Chrome,1536,864,,,,,,,,,,,,,,,,,3,,,,,,,,,,,,,,,,,,,,,,,,,,,921.832415,182,right,0.52275,camel         ,8,3,5,1,3,921.865995,921.865995,924.364515,0,27,27,27,1,182,3,8,redfox      ,camel         ,html/resources/sequences_IDs/B/01_redfox.jpg,html/resources/sequences_IDs/A/03_camel.jpg,1,3,1,1,1,1,1,2,0,66,,,,,,,,,,,,,,,,,,,,
,,,,,66,2020-07-04_16h54.49.382,retriever_ti,2020.1.3,Win32,60,Chrome,1536,864,,,,,,,,,,,,,,,,,3,,,,,,,,,,,,,,,,,,,,,,,,,,,924.965515,183,left,1.172555,phone       ,7,9,1,1,1,924.99997,924.99997,927.49826,0,28,28,28,1,183,7,6,phone       ,clownfish     ,html/resources/sequences_IDs/B/09_phone.jpg,html/resources/sequences_IDs/A/04_clownfish.jpg,9,4,4,2,2,1,7,3,0,66,,,,,,,,,,,,,,,,,,,,
,,,,,66,2020-07-04_16h54.49.382,retriever_ti,2020.1.3,Win32,60,Chrome,1536,864,,,,,,,,,,,,,,,,,3,,,,,,,,,,,,,,,,,,,,,,,,,,,928.599445,184,right,1.16959,satellite_dish,4,10,-3,0,3,928.633045,928.633045,931.131765,0,29,29,29,1,184,7,4,phone       ,satellite_dish,html/resources/sequences_IDs/B/09_phone.jpg,html/resources/sequences_IDs/A/10_satellite_dish.jpg,9,10,4,2,4,2,7,8,0,66,,,,,,,,,,,,,,,,,,,,
,,,,,66,2020-07-04_16h54.49.382,retriever_ti,2020.1.3,Win32,60,Chrome,1536,864,,,,,,,,,,,,,,,,,3,,,,,,,,,,,,,,,,,,,,,,,,,,,931.74926,185,right,1.062805,sport_tshirt,5,7,3,1,3,931.783075,931.783075,934.281675,0,30,30,30,1,185,2,5,scarf         ,sport_tshirt,html/resources/sequences_IDs/A/06_scarf.jpg,html/resources/sequences_IDs/B/07_sport_tshirt.jpg,6,7,3,2,3,2,5,6,0,66,,,,,,,,,,,,,,,,,,,,
,,,,,66,2020-07-04_16h54.49.382,retriever_ti,2020.1.3,Win32,60,Chrome,1536,864,,,,,,,,,,,,,,,,,3,,,,,,,,,,,,,,,,,,,,,,,,,,,934.900195,186,right,1.44656,scarf         ,2,6,-5,0,3,934.91716,934.91716,937.41541,0,31,31,31,1,186,7,2,phone       ,scarf         ,html/resources/sequences_IDs/B/09_phone.jpg,html/resources/sequences_IDs/A/06_scarf.jpg,9,6,4,2,3,2,7,5,0,66,,,,,,,,,,,,,,,,,,,,
,,,,,66,2020-07-04_16h54.49.382,retriever_ti,2020.1.3,Win32,60,Chrome,1536,864,,,,,,,,,,,,,,,,,3,,,,,,,,,,,,,,,,,,,,,,,,,,,938.03245,187,right,1.29388,camel         ,8,3,4,1,3,938.0667,938.0667,940.565545,0,32,32,32,1,187,4,8,satellite_dish,camel         ,html/resources/sequences_IDs/A/10_satellite_dish.jpg,html/resources/sequences_IDs/A/03_camel.jpg,10,3,4,2,1,1,8,2,0,66,,,,,,,,,,,,,,,,,,,,
,,,,,66,2020-07-04_16h54.49.382,retriever_ti,2020.1.3,Win32,60,Chrome,1536,864,,,,,,,,,,,,,,,,,3,,,,,,,,,,,,,,,,,,,,,,,,,,,941.183375,188,left,0.98013,parrot      ,1,5,-1,0,0,941.200635,941.200635,943.69908,0,33,33,33,1,188,1,2,parrot      ,scarf         ,html/resources/sequences_IDs/B/05_parrot.jpg,html/resources/sequences_IDs/A/06_scarf.jpg,5,6,2,1,3,2,4,5,0,66,,,,,,,,,,,,,,,,,,,,
,,,,,66,2020-07-04_16h54.49.382,retriever_ti,2020.1.3,Win32,60,Chrome,1536,864,,,,,,,,,,,,,,,,,3,,,,,,,,,,,,,,,,,,,,,,,,,,,944.799655,189,right,0.62251,redfox      ,3,1,1,1,1,944.81733,944.81733,947.316535,0,34,34,34,1,189,2,3,scarf         ,redfox      ,html/resources/sequences_IDs/A/06_scarf.jpg,html/resources/sequences_IDs/B/01_redfox.jpg,6,1,3,2,1,1,5,1,0,66,,,,,,,,,,,,,,,,,,,,
,,,,,66,2020-07-04_16h54.49.382,retriever_ti,2020.1.3,Win32,60,Chrome,1536,864,,,,,,,,,,,,,,,,,3,,,,,,,,,,,,,,,,,,,,,,,,,,,948.41731,190,right,0.571785,satellite_dish,4,10,2,1,3,948.45123,948.45123,950.949095,0,35,35,35,1,190,2,4,scarf         ,satellite_dish,html/resources/sequences_IDs/A/06_scarf.jpg,html/resources/sequences_IDs/A/10_satellite_dish.jpg,6,10,3,2,4,2,5,8,0,66,,,,,,,,,,,,,,,,,,,,
,,,,,66,2020-07-04_16h54.49.382,retriever_ti,2020.1.3,Win32,60,Chrome,1536,864,,,,,,,,,,,,,,,,,3,,,,,,,,,,,,,,,,,,,,,,,,,,,951.566515,191,right,0.443075,camel         ,8,3,1,1,0,951.58447,951.58447,954.082595,0,36,36,36,1,191,7,8,phone       ,camel         ,html/resources/sequences_IDs/B/09_phone.jpg,html/resources/sequences_IDs/A/03_camel.jpg,9,3,4,2,1,1,7,2,1,66,,,,,,,,,,,,,,,,,,,,
,,,,,66,2020-07-04_16h54.49.382,retriever_ti,2020.1.3,Win32,60,Chrome,1536,864,,,,,,,,,,,,,,,,,3,,,,,,,,,,,,,,,,,,,,,,,,,,,955.184165,192,left,1.19041,satellite_dish,4,10,-2,0,3,955.21757,955.21757,957.716395,0,37,37,37,1,192,4,6,satellite_dish,clownfish     ,html/resources/sequences_IDs/A/10_satellite_dish.jpg,html/resources/sequences_IDs/A/04_clownfish.jpg,10,4,4,2,2,1,8,3,0,66,,,,,,,,,,,,,,,,,,,,
,,,,,66,2020-07-04_16h54.49.382,retriever_ti,2020.1.3,Win32,60,Chrome,1536,864,,,,,,,,,,,,,,,,,3,,,,,,,,,,,,,,,,,,,,,,,,,,,958.333535,193,right,0.99078,clownfish     ,6,4,4,1,3,958.367765,958.367765,960.866255,0,38,38,38,1,193,2,6,scarf         ,clownfish     ,html/resources/sequences_IDs/A/06_scarf.jpg,html/resources/sequences_IDs/A/04_clownfish.jpg,6,4,3,2,2,1,5,3,0,66,,,,,,,,,,,,,,,,,,,,
,,,,,66,2020-07-04_16h54.49.382,retriever_ti,2020.1.3,Win32,60,Chrome,1536,864,,,,,,,,,,,,,,,,,3,,,,,,,,,,,,,,,,,,,,,,,,,,,961.484565,194,right,0.50631,satellite_dish,4,10,1,1,1,961.51822,961.51822,964.016655,0,39,39,39,1,194,3,4,redfox      ,satellite_dish,html/resources/sequences_IDs/B/01_redfox.jpg,html/resources/sequences_IDs/A/10_satellite_dish.jpg,1,10,1,1,4,2,1,8,0,66,,,,,,,,,,,,,,,,,,,,
,,,,,66,2020-07-04_16h54.49.382,retriever_ti,2020.1.3,Win32,60,Chrome,1536,864,,,,,,,,,,,,,,,,,3,,,,,,,,,,,,,,,,,,,,,,,,,,,965.117085,195,left,1.11783,clownfish     ,6,4,4,1,3,965.134755,965.134755,967.633565,0,40,40,40,1,195,6,2,clownfish     ,scarf         ,html/resources/sequences_IDs/A/04_clownfish.jpg,html/resources/sequences_IDs/A/06_scarf.jpg,4,6,2,1,3,2,3,5,0,66,,,,,,,,,,,,,,,,,,,,
,,,,,66,2020-07-04_16h54.49.382,retriever_ti,2020.1.3,Win32,60,Chrome,1536,864,,,,,,,,,,,,,,,,,3,,,,,,,,,,,,,,,,,,,,,,,,,,,968.25135,196,right,0.890275,redfox      ,3,1,-4,0,3,968.268485,968.268485,970.76667,0,41,41,41,1,196,7,3,phone       ,redfox      ,html/resources/sequences_IDs/B/09_phone.jpg,html/resources/sequences_IDs/B/01_redfox.jpg,9,1,4,2,1,1,7,1,0,66,,,,,,,,,,,,,,,,,,,,
,,,,,66,2020-07-04_16h54.49.382,retriever_ti,2020.1.3,Win32,60,Chrome,1536,864,,,,,,,,,,,,,,,,,3,,,,,,,,,,,,,,,,,,,,,,,,,,,971.36762,197,left,0.945725,satellite_dish,4,10,-1,0,1,971.385205,971.385205,973.88378,0,42,42,42,1,197,4,5,satellite_dish,sport_tshirt,html/resources/sequences_IDs/A/10_satellite_dish.jpg,html/resources/sequences_IDs/B/07_sport_tshirt.jpg,10,7,4,2,3,2,8,6,1,66,,,,,,,,,,,,,,,,,,,,
,,,,,66,2020-07-04_16h54.49.382,retriever_ti,2020.1.3,Win32,60,Chrome,1536,864,,,,,,,,,,,,,,,,,3,,,,,,,,,,,,,,,,,,,,,,,,,,,974.98508,198,right,0.47194,redfox      ,3,1,1,1,0,975.002125,975.002125,977.500635,0,43,43,43,1,198,2,3,scarf         ,redfox      ,html/resources/sequences_IDs/A/06_scarf.jpg,html/resources/sequences_IDs/B/01_redfox.jpg,6,1,3,2,1,1,5,1,1,66,,,,,,,,,,,,,,,,,,,,
,,,,,66,2020-07-04_16h54.49.382,retriever_ti,2020.1.3,Win32,60,Chrome,1536,864,,,,,,,,,,,,,,,,,3,,,,,,,,,,,,,,,,,,,,,,,,,,,978.60128,199,left,1.26884,parrot      ,1,5,-1,0,0,978.618545,978.618545,981.11709,0,44,44,44,1,199,1,2,parrot      ,scarf         ,html/resources/sequences_IDs/B/05_parrot.jpg,html/resources/sequences_IDs/A/06_scarf.jpg,5,6,2,1,3,2,4,5,0,66,,,,,,,,,,,,,,,,,,,,
,,,,,66,2020-07-04_16h54.49.382,retriever_ti,2020.1.3,Win32,60,Chrome,1536,864,,,,,,,,,,,,,,,,,3,,,,,,,,,,,,,,,,,,,,,,,,,,,982.21902,200,right,0.52627,satellite_dish,4,10,3,1,3,982.235455,982.235455,984.734375,0,45,45,45,1,200,1,4,parrot      ,satellite_dish,html/resources/sequences_IDs/B/05_parrot.jpg,html/resources/sequences_IDs/A/10_satellite_dish.jpg,5,10,2,1,4,2,4,8,0,66,,,,,,,,,,,,,,,,,,,,
,,,,,66,2020-07-04_16h54.49.382,retriever_ti,2020.1.3,Win32,60,Chrome,1536,864,,,,,,,,,,,,,,,,,3,,,,,,,,,,,,,,,,,,,,,,,,,,,985.35187,201,right,0.624305,redfox      ,3,1,-1,0,1,985.36971,985.36971,987.867595,0,46,46,46,1,201,4,3,satellite_dish,redfox      ,html/resources/sequences_IDs/A/10_satellite_dish.jpg,html/resources/sequences_IDs/B/01_redfox.jpg,10,1,4,2,1,1,8,1,1,66,,,,,,,,,,,,,,,,,,,,
,,,,,66,2020-07-04_16h54.49.382,retriever_ti,2020.1.3,Win32,60,Chrome,1536,864,,,,,,,,,,,,,,,,,3,,,,,,,,,,,,,,,,,,,,,,,,,,,988.96875,202,left,1.10975,camel         ,8,3,2,1,3,988.985725,988.985725,991.484735,0,47,47,47,1,202,8,6,camel         ,clownfish     ,html/resources/sequences_IDs/A/03_camel.jpg,html/resources/sequences_IDs/A/04_clownfish.jpg,3,4,1,1,2,1,2,3,0,66,,,,,,,,,,,,,,,,,,,,
,,,,,66,2020-07-04_16h54.49.382,retriever_ti,2020.1.3,Win32,60,Chrome,1536,864,,,,,,,,,,,,,,,,,3,,,,,,,,,,,,,,,,,,,,,,,,,,,992.102235,203,right,0.69748,satellite_dish,4,10,-1,0,0,992.11997,992.11997,994.618055,0,48,48,48,1,203,5,4,sport_tshirt,satellite_dish,html/resources/sequences_IDs/B/07_sport_tshirt.jpg,html/resources/sequences_IDs/A/10_satellite_dish.jpg,7,10,3,2,4,2,6,8,0,66,,,,,,,,,,,,,,,,,,,,
,,,,,66,2020-07-04_16h54.49.382,retriever_ti,2020.1.3,Win32,60,Chrome,1536,864,,,,,,,,,,,,,,,,,3,,,,,,,,,,,,,,,,,,,,,,,,,,,995.7193,204,left,1.17706,camel         ,8,3,3,1,3,995.753065,995.753065,998.25155,0,49,49,49,1,204,8,5,camel         ,sport_tshirt,html/resources/sequences_IDs/A/03_camel.jpg,html/resources/sequences_IDs/B/07_sport_tshirt.jpg,3,7,1,1,3,2,2,6,0,66,,,,,,,,,,,,,,,,,,,,
,,,,,66,2020-07-04_16h54.49.382,retriever_ti,2020.1.3,Win32,60,Chrome,1536,864,,,,,,,,,,,,,,,,,3,,,,,,,,,,,,,,,,,,,,,,,,,,,998.868635,205,right,1.822365,parrot      ,1,5,-1,0,0,998.90301,998.90301,1001.40177,0,50,50,50,1,205,2,1,scarf         ,parrot      ,html/resources/sequences_IDs/A/06_scarf.jpg,html/resources/sequences_IDs/B/05_parrot.jpg,6,5,3,2,2,1,5,4,0,66,,,,,,,,,,,,,,,,,,,,
,,,,,66,2020-07-04_16h54.49.382,retriever_ti,2020.1.3,Win32,60,Chrome,1536,864,,,,,,,,,,,,,,,,,3,,,,,,,,,,,,,,,,,,,,,,,,,,,1002.50279,206,right,1.577565,clownfish     ,6,4,1,1,1,1002.536705,1002.536705,1005.03528,0,51,51,51,1,206,5,6,sport_tshirt,clownfish     ,html/resources/sequences_IDs/B/07_sport_tshirt.jpg,html/resources/sequences_IDs/A/04_clownfish.jpg,7,4,3,2,2,1,6,3,0,66,,,,,,,,,,,,,,,,,,,,
,,,,,66,2020-07-04_16h54.49.382,retriever_ti,2020.1.3,Win32,60,Chrome,1536,864,,,,,,,,,,,,,,,,,3,,,,,,,,,,,,,,,,,,,,,,,,,,,1006.13613,207,left,1.68946,parrot      ,1,5,-5,0,3,1006.169475,1006.169475,1008.66871,0,52,52,52,1,207,1,6,parrot      ,clownfish     ,html/resources/sequences_IDs/B/05_parrot.jpg,html/resources/sequences_IDs/A/04_clownfish.jpg,5,4,2,1,2,1,4,3,0,66,,,,,,,,,,,,,,,,,,,,
,,,,,66,2020-07-04_16h54.49.382,retriever_ti,2020.1.3,Win32,60,Chrome,1536,864,,,,,,,,,,,,,,,,,3,,,,,,,,,,,,,,,,,,,,,,,,,,,1009.28687,208,right,1.690575,redfox      ,3,1,-1,0,0,1009.319995,1009.319995,1011.818845,0,53,53,53,1,208,4,3,satellite_dish,redfox      ,html/resources/sequences_IDs/A/10_satellite_dish.jpg,html/resources/sequences_IDs/B/01_redfox.jpg,10,1,4,2,1,1,8,1,0,66,,,,,,,,,,,,,,,,,,,,
,,,,,66,2020-07-04_16h54.49.382,retriever_ti,2020.1.3,Win32,60,Chrome,1536,864,,,,,,,,,,,,,,,,,3,,,,,,,,,,,,,,,,,,,,,,,,,,,1012.919155,209,NaN,NaN,No_response,NaN,NaN,NaN,2,2,1012.937205,1012.937205,1015.43544,0,54,54,54,1,209,7,6,phone       ,clownfish     ,html/resources/sequences_IDs/B/09_phone.jpg,html/resources/sequences_IDs/A/04_clownfish.jpg,9,4,4,2,2,1,7,3,1,66,,,,,,,,,,,,,,,,,,,,
,,,,,66,2020-07-04_16h54.49.382,retriever_ti,2020.1.3,Win32,60,Chrome,1536,864,,,,,,,,,,,,,,,,,3,,,,,,,,,,,,,,,,,,,,,,,,,,,1016.53683,210,left,1.314565,redfox      ,3,1,-1,0,0,1016.553675,1016.553675,1019.052175,0,55,55,55,1,210,3,4,redfox      ,satellite_dish,html/resources/sequences_IDs/B/01_redfox.jpg,html/resources/sequences_IDs/A/10_satellite_dish.jpg,1,10,1,1,4,2,1,8,0,66,,,,,,,,,,,,,,,,,,,,
,,,,,66,2020-07-04_16h54.49.382,retriever_ti,2020.1.3,Win32,60,Chrome,1536,864,,,,,,,,,,,,,,,,,3,,,,,,,,,,,,,,,,,,,,,,,,,,,1020.15297,211,right,1.360855,sport_tshirt,5,7,1,1,1,1020.187205,1020.187205,1022.686275,0,56,56,56,1,211,4,5,satellite_dish,sport_tshirt,html/resources/sequences_IDs/A/10_satellite_dish.jpg,html/resources/sequences_IDs/B/07_sport_tshirt.jpg,10,7,4,2,3,2,8,6,0,66,,,,,,,,,,,,,,,,,,,,
,,,,,66,2020-07-04_16h54.49.382,retriever_ti,2020.1.3,Win32,60,Chrome,1536,864,,,,,,,,,,,,,,,,,3,,,,,,,,,,,,,,,,,,,,,,,,,,,1023.787195,212,left,0.91974,satellite_dish,4,10,2,1,3,1023.80433,1023.80433,1026.302735,0,57,57,57,1,212,4,2,satellite_dish,scarf         ,html/resources/sequences_IDs/A/10_satellite_dish.jpg,html/resources/sequences_IDs/A/06_scarf.jpg,10,6,4,2,3,2,8,5,0,66,,,,,,,,,,,,,,,,,,,,
,,,,,66,2020-07-04_16h54.49.382,retriever_ti,2020.1.3,Win32,60,Chrome,1536,864,,,,,,,,,,,,,,,,,3,,,,,,,,,,,,,,,,,,,,,,,,,,,1026.921435,213,right,0.89279,redfox      ,3,1,1,1,1,1026.95469,1026.95469,1029.452915,0,58,58,58,1,213,2,3,scarf         ,redfox      ,html/resources/sequences_IDs/A/06_scarf.jpg,html/resources/sequences_IDs/B/01_redfox.jpg,6,1,3,2,1,1,5,1,0,66,,,,,,,,,,,,,,,,,,,,
,,,,,66,2020-07-04_16h54.49.382,retriever_ti,2020.1.3,Win32,60,Chrome,1536,864,,,,,,,,,,,,,,,,,3,,,,,,,,,,,,,,,,,,,,,,,,,,,1030.55409,214,left,1.17519,satellite_dish,4,10,3,1,3,1030.57125,1030.57125,1033.06963,0,59,59,59,1,214,4,1,satellite_dish,parrot      ,html/resources/sequences_IDs/A/10_satellite_dish.jpg,html/resources/sequences_IDs/B/05_parrot.jpg,10,5,4,2,2,1,8,4,0,66,,,,,,,,,,,,,,,,,,,,
,,,,,66,2020-07-04_16h54.49.382,retriever_ti,2020.1.3,Win32,60,Chrome,1536,864,,,,,,,,,,,,,,,,,3,,,,,,,,,,,,,,,,,,,,,,,,,,,1033.68687,215,right,0.68919,camel         ,8,3,7,1,3,1033.70448,1033.70448,1036.20329,0,60,60,60,1,215,1,8,parrot      ,camel         ,html/resources/sequences_IDs/B/05_parrot.jpg,html/resources/sequences_IDs/A/03_camel.jpg,5,3,2,1,1,1,4,2,0,66,,,,,,,,,,,,,,,,,,,,
,,,,,66,2020-07-04_16h54.49.382,retriever_ti,2020.1.3,Win32,60,Chrome,1536,864,,,,,,,,,,,,,,,,,3,,,,,,,,,,,,,,,,,,,,,,,,,,,1036.82164,216,right,0.45468,camel         ,8,3,6,1,3,1036.83852,1036.83852,1039.3368,0,61,61,61,1,216,2,8,scarf         ,camel         ,html/resources/sequences_IDs/A/06_scarf.jpg,html/resources/sequences_IDs/A/03_camel.jpg,6,3,3,2,1,1,5,2,0,66,,,,,,,,,,,,,,,,,,,,
,,,,,66,2020-07-04_16h54.49.382,retriever_ti,2020.1.3,Win32,60,Chrome,1536,864,,,,,,,,,,,,,,,,,3,,,,,,,,,,,,,,,,,,,,,,,,,,,1039.954325,217,left,1.26769,redfox      ,3,1,-4,0,3,1039.988615,1039.988615,1042.48667,0,62,62,62,1,217,3,7,redfox      ,phone       ,html/resources/sequences_IDs/B/01_redfox.jpg,html/resources/sequences_IDs/B/09_phone.jpg,1,9,1,1,4,2,1,7,0,66,,,,,,,,,,,,,,,,,,,,
,,,,,66,2020-07-04_16h54.49.382,retriever_ti,2020.1.3,Win32,60,Chrome,1536,864,,,,,,,,,,,,,,,,,3,,,,,,,,,,,,,,,,,,,,,,,,,,,1043.105125,218,right,0.960375,phone       ,7,9,5,1,3,1043.138365,1043.138365,1045.636805,0,63,63,63,1,218,2,7,scarf         ,phone       ,html/resources/sequences_IDs/A/06_scarf.jpg,html/resources/sequences_IDs/B/09_phone.jpg,6,9,3,2,4,2,5,7,0,66,,,,,,,,,,,,,,,,,,,,
,,,,,66,2020-07-04_16h54.49.382,retriever_ti,2020.1.3,Win32,60,Chrome,1536,864,,,,,,,,,,,,,,,,,3,,,,,,,,,,,,,,,,,,,,,,,,,,,1046.25443,219,right,1.081465,parrot      ,1,5,-1,0,0,1046.272095,1046.272095,1048.77026,0,64,64,64,1,219,2,1,scarf         ,parrot      ,html/resources/sequences_IDs/A/06_scarf.jpg,html/resources/sequences_IDs/B/05_parrot.jpg,6,5,3,2,2,1,5,4,0,66,,,,,,,,,,,,,,,,,,,,
,,,,,66,2020-07-04_16h54.49.382,retriever_ti,2020.1.3,Win32,60,Chrome,1536,864,,,,,,,,,,,,,,,,,3,,,,,,,,,,,,,,,,,,,,,,,,,,,1049.87178,220,left,0.67149,redfox      ,3,1,2,1,3,1049.88861,1049.88861,1052.38725,0,65,65,65,1,220,3,1,redfox      ,parrot      ,html/resources/sequences_IDs/B/01_redfox.jpg,html/resources/sequences_IDs/B/05_parrot.jpg,1,5,1,1,2,1,1,4,0,66,,,,,,,,,,,,,,,,,,,,
