instructionsLoop.thisRepN,instructionsLoop.thisTrialN,instructionsLoop.thisN,instructionsLoop.thisIndex,instructionsLoop.ran,participant,date,expName,psychopyVersion,OS,frameRate,browser,xResolution,yResolution,fix_onset,tprac,practiceKey.keys,practiceKey.rt,pracitem_chosen_name,acc_practice,P1_onsetPrac,P2_onsetPrac,onsetFeedbPrac,practiceTrials.thisRepN,practiceTrials.thisTrialN,practiceTrials.thisN,practiceTrials.thisIndex,practiceTrials.ran,P1,P2,Block,LocItem1,LocItem2,NameItem1,NameItem2,key_respAC_prac.keys,key_respAC_prac.corr,key_respAC_prac.rt,AC_acc,Attentions.thisRepN,Attentions.thisTrialN,Attentions.thisN,Attentions.thisIndex,Attentions.ran,Stim,Loc1,Loc2,Loc3,Loc4,CorrAns,keyDisturbed.keys,keyDisturbed.rt,repPractice.thisRepN,repPractice.thisTrialN,repPractice.thisN,repPractice.thisIndex,repPractice.ran,fixcross_onsetMain,trialNumber,key_resp.keys,key_resp.rt,item_chosen_name,item_chosen_value,item_chosen_ID,diff_chosen_minus_reject,acc_real,acc_feedback,P1_onset,P2_onset,feedb_onset,trials.thisRepN,trials.thisTrialN,trials.thisN,trials.thisIndex,trials.ran,Trial,ValueP1,ValueP2,P1name,P2name,P1Loc,P2Loc,P1id,P2id,Micro_categoryP1,Macro_categoryP1,Micro_categoryP2,Macro_categoryP2,ID_sequenceP1,ID_sequenceP2,InverseFb,pNumber,repBlocks.thisRepN,repBlocks.thisTrialN,repBlocks.thisN,repBlocks.thisIndex,repBlocks.ran,key_respAC.keys,key_respAC.corr,key_respAC.rt,trials_AC.thisRepN,trials_AC.thisTrialN,trials_AC.thisN,trials_AC.thisIndex,trials_AC.ran,Bonus,BonusLoop.thisRepN,BonusLoop.thisTrialN,BonusLoop.thisN,BonusLoop.thisIndex,BonusLoop.ran,comments
0,0,0,0,1,67,2020-07-04_18h55.59.956,retriever_ti,2020.1.3,Win32,60,Chrome,1440,900,,,,,,,,,,,,,,,,,,,,,,,,,,,,,,,,,,,,,,,,,,,,,,,,,,,,,,,,,,,,,,,,,,,,,,,,,,,,,,,,,,,,,,,,,,,,,,,,,,
1,0,1,0,1,67,2020-07-04_18h55.59.956,retriever_ti,2020.1.3,Win32,60,Chrome,1440,900,,,,,,,,,,,,,,,,,,,,,,,,,,,,,,,,,,,,,,,,,,,,,,,,,,,,,,,,,,,,,,,,,,,,,,,,,,,,,,,,,,,,,,,,,,,,,,,,,,
2,0,2,0,1,67,2020-07-04_18h55.59.956,retriever_ti,2020.1.3,Win32,60,Chrome,1440,900,,,,,,,,,,,,,,,,,,,,,,,,,,,,,,,,,,,,,,,,,,,,,,,,,,,,,,,,,,,,,,,,,,,,,,,,,,,,,,,,,,,,,,,,,,,,,,,,,,
3,0,3,0,1,67,2020-07-04_18h55.59.956,retriever_ti,2020.1.3,Win32,60,Chrome,1440,900,,,,,,,,,,,,,,,,,,,,,,,,,,,,,,,,,,,,,,,,,,,,,,,,,,,,,,,,,,,,,,,,,,,,,,,,,,,,,,,,,,,,,,,,,,,,,,,,,,
4,0,4,0,1,67,2020-07-04_18h55.59.956,retriever_ti,2020.1.3,Win32,60,Chrome,1440,900,,,,,,,,,,,,,,,,,,,,,,,,,,,,,,,,,,,,,,,,,,,,,,,,,,,,,,,,,,,,,,,,,,,,,,,,,,,,,,,,,,,,,,,,,,,,,,,,,,
5,0,5,0,1,67,2020-07-04_18h55.59.956,retriever_ti,2020.1.3,Win32,60,Chrome,1440,900,,,,,,,,,,,,,,,,,,,,,,,,,,,,,,,,,,,,,,,,,,,,,,,,,,,,,,,,,,,,,,,,,,,,,,,,,,,,,,,,,,,,,,,,,,,,,,,,,,
6,0,6,0,1,67,2020-07-04_18h55.59.956,retriever_ti,2020.1.3,Win32,60,Chrome,1440,900,,,,,,,,,,,,,,,,,,,,,,,,,,,,,,,,,,,,,,,,,,,,,,,,,,,,,,,,,,,,,,,,,,,,,,,,,,,,,,,,,,,,,,,,,,,,,,,,,,
7,0,7,0,1,67,2020-07-04_18h55.59.956,retriever_ti,2020.1.3,Win32,60,Chrome,1440,900,,,,,,,,,,,,,,,,,,,,,,,,,,,,,,,,,,,,,,,,,,,,,,,,,,,,,,,,,,,,,,,,,,,,,,,,,,,,,,,,,,,,,,,,,,,,,,,,,,
8,0,8,0,1,67,2020-07-04_18h55.59.956,retriever_ti,2020.1.3,Win32,60,Chrome,1440,900,,,,,,,,,,,,,,,,,,,,,,,,,,,,,,,,,,,,,,,,,,,,,,,,,,,,,,,,,,,,,,,,,,,,,,,,,,,,,,,,,,,,,,,,,,,,,,,,,,
9,0,9,0,1,67,2020-07-04_18h55.59.956,retriever_ti,2020.1.3,Win32,60,Chrome,1440,900,,,,,,,,,,,,,,,,,,,,,,,,,,,,,,,,,,,,,,,,,,,,,,,,,,,,,,,,,,,,,,,,,,,,,,,,,,,,,,,,,,,,,,,,,,,,,,,,,,
10,0,10,0,1,67,2020-07-04_18h55.59.956,retriever_ti,2020.1.3,Win32,60,Chrome,1440,900,,,,,,,,,,,,,,,,,,,,,,,,,,,,,,,,,,,,,,,,,,,,,,,,,,,,,,,,,,,,,,,,,,,,,,,,,,,,,,,,,,,,,,,,,,,,,,,,,,
11,0,11,0,1,67,2020-07-04_18h55.59.956,retriever_ti,2020.1.3,Win32,60,Chrome,1440,900,,,,,,,,,,,,,,,,,,,,,,,,,,,,,,,,,,,,,,,,,,,,,,,,,,,,,,,,,,,,,,,,,,,,,,,,,,,,,,,,,,,,,,,,,,,,,,,,,,
12,0,12,0,1,67,2020-07-04_18h55.59.956,retriever_ti,2020.1.3,Win32,60,Chrome,1440,900,,,,,,,,,,,,,,,,,,,,,,,,,,,,,,,,,,,,,,,,,,,,,,,,,,,,,,,,,,,,,,,,,,,,,,,,,,,,,,,,,,,,,,,,,,,,,,,,,,
13,0,13,0,1,67,2020-07-04_18h55.59.956,retriever_ti,2020.1.3,Win32,60,Chrome,1440,900,,,,,,,,,,,,,,,,,,,,,,,,,,,,,,,,,,,,,,,,,,,,,,,,,,,,,,,,,,,,,,,,,,,,,,,,,,,,,,,,,,,,,,,,,,,,,,,,,,
14,0,14,0,1,67,2020-07-04_18h55.59.956,retriever_ti,2020.1.3,Win32,60,Chrome,1440,900,,,,,,,,,,,,,,,,,,,,,,,,,,,,,,,,,,,,,,,,,,,,,,,,,,,,,,,,,,,,,,,,,,,,,,,,,,,,,,,,,,,,,,,,,,,,,,,,,,
15,0,15,0,1,67,2020-07-04_18h55.59.956,retriever_ti,2020.1.3,Win32,60,Chrome,1440,900,,,,,,,,,,,,,,,,,,,,,,,,,,,,,,,,,,,,,,,,,,,,,,,,,,,,,,,,,,,,,,,,,,,,,,,,,,,,,,,,,,,,,,,,,,,,,,,,,,
16,0,16,0,1,67,2020-07-04_18h55.59.956,retriever_ti,2020.1.3,Win32,60,Chrome,1440,900,,,,,,,,,,,,,,,,,,,,,,,,,,,,,,,,,,,,,,,,,,,,,,,,,,,,,,,,,,,,,,,,,,,,,,,,,,,,,,,,,,,,,,,,,,,,,,,,,,
,,,,,67,2020-07-04_18h55.59.956,retriever_ti,2020.1.3,Win32,60,Chrome,1440,900,183.03561,1,right,1.356785,canary,1,183.07769,183.07769,185.566005,0,0,0,0,1,2,5,1,html/resources/stimuli_practice_decision/04_beetle.jpg,html/resources/stimuli_practice_decision/02_canary.jpg,beetle,canary,,,,,,,,,,,,,,,,,,,,,,,,,,,,,,,,,,,,,,,,,,,,,,,,,,,,,,,,,,,,,,,,,,,,,,,,,,,,,
,,,,,67,2020-07-04_18h55.59.956,retriever_ti,2020.1.3,Win32,60,Chrome,1440,900,186.100955,2,left,1.18463,rabbit,1,186.11741,186.11741,188.603715,0,1,1,1,1,4,3,1,html/resources/stimuli_practice_decision/01_rabbit.jpg,html/resources/stimuli_practice_decision/07_sock.jpg,rabbit,sock,,,,,,,,,,,,,,,,,,,,,,,,,,,,,,,,,,,,,,,,,,,,,,,,,,,,,,,,,,,,,,,,,,,,,,,,,,,,,
,,,,,67,2020-07-04_18h55.59.956,retriever_ti,2020.1.3,Win32,60,Chrome,1440,900,189.605765,3,left,1.45571,pullover,1,189.639915,189.639915,192.12701,0,2,2,2,1,6,2,1,html/resources/stimuli_practice_decision/06_pullover.jpg,html/resources/stimuli_practice_decision/04_beetle.jpg,pullover,beetle,,,,,,,,,,,,,,,,,,,,,,,,,,,,,,,,,,,,,,,,,,,,,,,,,,,,,,,,,,,,,,,,,,,,,,,,,,,,,
,,,,,67,2020-07-04_18h55.59.956,retriever_ti,2020.1.3,Win32,60,Chrome,1440,900,192.6284,4,right,1.231885,handmixer,0,192.66198,192.66198,195.149335,0,3,3,3,1,7,1,1,html/resources/stimuli_practice_decision/05_glasses.jpg,html/resources/stimuli_practice_decision/08_handmixer.jpg,glasses,handmixer,,,,,,,,,,,,,,,,,,,,,,,,,,,,,,,,,,,,,,,,,,,,,,,,,,,,,,,,,,,,,,,,,,,,,,,,,,,,,
,,,,,67,2020-07-04_18h55.59.956,retriever_ti,2020.1.3,Win32,60,Chrome,1440,900,195.65055,5,right,1.23147,pullover,0,195.667835,195.667835,198.15515,0,4,4,4,1,7,6,1,html/resources/stimuli_practice_decision/05_glasses.jpg,html/resources/stimuli_practice_decision/06_pullover.jpg,glasses,pullover,,,,,,,,,,,,,,,,,,,,,,,,,,,,,,,,,,,,,,,,,,,,,,,,,,,,,,,,,,,,,,,,,,,,,,,,,,,,,
,,,,,67,2020-07-04_18h55.59.956,retriever_ti,2020.1.3,Win32,60,Chrome,1440,900,199.1574,6,left,2.203405,rabbit,0,199.19106,199.19106,201.67844,0,5,5,5,1,4,7,1,html/resources/stimuli_practice_decision/01_rabbit.jpg,html/resources/stimuli_practice_decision/05_glasses.jpg,rabbit,glasses,,,,,,,,,,,,,,,,,,,,,,,,,,,,,,,,,,,,,,,,,,,,,,,,,,,,,,,,,,,,,,,,,,,,,,,,,,,,,
,,,,,67,2020-07-04_18h55.59.956,retriever_ti,2020.1.3,Win32,60,Chrome,1440,900,202.179815,7,left,0.95778,handmixer,0,202.19681,202.19681,204.68413,0,6,6,6,1,1,2,1,html/resources/stimuli_practice_decision/08_handmixer.jpg,html/resources/stimuli_practice_decision/04_beetle.jpg,handmixer,beetle,,,,,,,,,,,,,,,,,,,,,,,,,,,,,,,,,,,,,,,,,,,,,,,,,,,,,,,,,,,,,,,,,,,,,,,,,,,,,
,,,,,67,2020-07-04_18h55.59.956,retriever_ti,2020.1.3,Win32,60,Chrome,1440,900,205.686215,8,NaN,NaN,No_response,2,205.720035,205.720035,208.20742,0,7,7,7,1,4,3,1,html/resources/stimuli_practice_decision/01_rabbit.jpg,html/resources/stimuli_practice_decision/07_sock.jpg,rabbit,sock,,,,,,,,,,,,,,,,,,,,,,,,,,,,,,,,,,,,,,,,,,,,,,,,,,,,,,,,,,,,,,,,,,,,,,,,,,,,,
,,,,,67,2020-07-04_18h55.59.956,retriever_ti,2020.1.3,Win32,60,Chrome,1440,900,,,,,,,,,,,,,,,,,,,,,,down,1,1.67957,1,0,0,0,3,1,html/resources/sequences_IDs/triangle.png,star ↑,square →,triangle ↓,← circle,down,,,,,,,,,,,,,,,,,,,,,,,,,,,,,,,,,,,,,,,,,,,,,,,,,,,,,,,,,,,,,,
,,,,,67,2020-07-04_18h55.59.956,retriever_ti,2020.1.3,Win32,60,Chrome,1440,900,,,,,,,,,,,,,,,,,,,,,,left,1,1.27424,1,0,1,1,2,1,html/resources/sequences_IDs/square1.png,star ↑,triangle →,circle ↓,← square,left,,,,,,,,,,,,,,,,,,,,,,,,,,,,,,,,,,,,,,,,,,,,,,,,,,,,,,,,,,,,,,
,,,,,67,2020-07-04_18h55.59.956,retriever_ti,2020.1.3,Win32,60,Chrome,1440,900,,,,,,,,,,,,,,,,,,,,,,down,1,1.12762,1,0,2,2,1,1,html/resources/sequences_IDs/star.png,square ↑,circle →,star ↓,← triangle,down,,,,,,,,,,,,,,,,,,,,,,,,,,,,,,,,,,,,,,,,,,,,,,,,,,,,,,,,,,,,,,
,,,,,67,2020-07-04_18h55.59.956,retriever_ti,2020.1.3,Win32,60,Chrome,1440,900,,,,,,,,,,,,,,,,,,,,,,up,1,0.997445,1,0,3,3,0,1,html/resources/sequences_IDs/circle.png,circle ↑,square →,triangle ↓,← star ,up,,,,,,,,,,,,,,,,,,,,,,,,,,,,,,,,,,,,,,,,,,,,,,,,,,,,,,,,,,,,,,
,,,,,67,2020-07-04_18h55.59.956,retriever_ti,2020.1.3,Win32,60,Chrome,1440,900,,,,,,,,,,,,,,,,,,,,,,,,,,,,,,,,,,,,,0,6.61441,0,0,0,0,1,,,,,,,,,,,,,,,,,,,,,,,,,,,,,,,,,,,,,,,,,,,,,,,,,,,,,,,
,,,,,67,2020-07-04_18h55.59.956,retriever_ti,2020.1.3,Win32,60,Chrome,1440,900,226.034405,9,left,1.23248,pullover,0,226.05853,226.05853,228.545975,0,0,0,0,1,6,7,1,html/resources/stimuli_practice_decision/06_pullover.jpg,html/resources/stimuli_practice_decision/05_glasses.jpg,pullover,glasses,,,,,,,,,,,,,,,,,,,,,,,,,,,,,,,,,,,,,,,,,,,,,,,,,,,,,,,,,,,,,,,,,,,,,,,,,,,,,
,,,,,67,2020-07-04_18h55.59.956,retriever_ti,2020.1.3,Win32,60,Chrome,1440,900,229.548035,10,right,2.114715,beetle,0,229.581875,229.581875,232.06924,0,1,1,1,1,6,2,1,html/resources/stimuli_practice_decision/06_pullover.jpg,html/resources/stimuli_practice_decision/04_beetle.jpg,pullover,beetle,,,,,,,,,,,,,,,,,,,,,,,,,,,,,,,,,,,,,,,,,,,,,,,,,,,,,,,,,,,,,,,,,,,,,,,,,,,,,
,,,,,67,2020-07-04_18h55.59.956,retriever_ti,2020.1.3,Win32,60,Chrome,1440,900,232.57067,11,NaN,NaN,No_response,2,232.587505,232.587505,235.074865,0,2,2,2,1,5,6,1,html/resources/stimuli_practice_decision/02_canary.jpg,html/resources/stimuli_practice_decision/06_pullover.jpg,canary,pullover,,,,,,,,,,,,,,,,,,,,,,,,,,,,,,,,,,,,,,,,,,,,,,,,,,,,,,,,,,,,,,,,,,,,,,,,,,,,,
,,,,,67,2020-07-04_18h55.59.956,retriever_ti,2020.1.3,Win32,60,Chrome,1440,900,235.57605,12,left,0.00085,squirrel,1,235.593115,235.593115,238.080595,0,3,3,3,1,8,7,1,html/resources/stimuli_practice_decision/03_squirrel.jpg,html/resources/stimuli_practice_decision/05_glasses.jpg,squirrel,glasses,,,,,,,,,,,,,,,,,,,,,,,,,,,,,,,,,,,,,,,,,,,,,,,,,,,,,,,,,,,,,,,,,,,,,,,,,,,,,
,,,,,67,2020-07-04_18h55.59.956,retriever_ti,2020.1.3,Win32,60,Chrome,1440,900,239.082995,13,left,1.70794,canary,1,239.116585,239.116585,241.60708,0,4,4,4,1,5,3,1,html/resources/stimuli_practice_decision/02_canary.jpg,html/resources/stimuli_practice_decision/07_sock.jpg,canary,sock,,,,,,,,,,,,,,,,,,,,,,,,,,,,,,,,,,,,,,,,,,,,,,,,,,,,,,,,,,,,,,,,,,,,,,,,,,,,,
,,,,,67,2020-07-04_18h55.59.956,retriever_ti,2020.1.3,Win32,60,Chrome,1440,900,242.12194,14,right,1.057515,squirrel,1,242.13888,242.13888,244.62633,0,5,5,5,1,7,8,1,html/resources/stimuli_practice_decision/05_glasses.jpg,html/resources/stimuli_practice_decision/03_squirrel.jpg,glasses,squirrel,,,,,,,,,,,,,,,,,,,,,,,,,,,,,,,,,,,,,,,,,,,,,,,,,,,,,,,,,,,,,,,,,,,,,,,,,,,,,
,,,,,67,2020-07-04_18h55.59.956,retriever_ti,2020.1.3,Win32,60,Chrome,1440,900,245.62844,15,left,2.12151,canary,1,245.66229,245.66229,248.14964,0,6,6,6,1,5,4,1,html/resources/stimuli_practice_decision/02_canary.jpg,html/resources/stimuli_practice_decision/01_rabbit.jpg,canary,rabbit,,,,,,,,,,,,,,,,,,,,,,,,,,,,,,,,,,,,,,,,,,,,,,,,,,,,,,,,,,,,,,,,,,,,,,,,,,,,,
,,,,,67,2020-07-04_18h55.59.956,retriever_ti,2020.1.3,Win32,60,Chrome,1440,900,249.151935,16,left,1.846315,canary,1,249.185555,249.185555,251.673,0,7,7,7,1,5,3,1,html/resources/stimuli_practice_decision/02_canary.jpg,html/resources/stimuli_practice_decision/07_sock.jpg,canary,sock,,,,,,,,,,,,,,,,,,,,,,,,,,,,,,,,,,,,,,,,,,,,,,,,,,,,,,,,,,,,,,,,,,,,,,,,,,,,,
,,,,,67,2020-07-04_18h55.59.956,retriever_ti,2020.1.3,Win32,60,Chrome,1440,900,,,,,,,,,,,,,,,,,,,,,,left,1,1.891225,1,0,0,0,2,1,html/resources/sequences_IDs/square1.png,star ↑,triangle →,circle ↓,← square,left,,,,,,,,,,,,,,,,,,,,,,,,,,,,,,,,,,,,,,,,,,,,,,,,,,,,,,,,,,,,,,
,,,,,67,2020-07-04_18h55.59.956,retriever_ti,2020.1.3,Win32,60,Chrome,1440,900,,,,,,,,,,,,,,,,,,,,,,down,1,0.97366,1,0,1,1,1,1,html/resources/sequences_IDs/star.png,square ↑,circle →,star ↓,← triangle,down,,,,,,,,,,,,,,,,,,,,,,,,,,,,,,,,,,,,,,,,,,,,,,,,,,,,,,,,,,,,,,
,,,,,67,2020-07-04_18h55.59.956,retriever_ti,2020.1.3,Win32,60,Chrome,1440,900,,,,,,,,,,,,,,,,,,,,,,up,1,1.29743,1,0,2,2,0,1,html/resources/sequences_IDs/circle.png,circle ↑,square →,triangle ↓,← star ,up,,,,,,,,,,,,,,,,,,,,,,,,,,,,,,,,,,,,,,,,,,,,,,,,,,,,,,,,,,,,,,
,,,,,67,2020-07-04_18h55.59.956,retriever_ti,2020.1.3,Win32,60,Chrome,1440,900,,,,,,,,,,,,,,,,,,,,,,down,1,1.68016,1,0,3,3,3,1,html/resources/sequences_IDs/triangle.png,star ↑,square →,triangle ↓,← circle,down,,,,,,,,,,,,,,,,,,,,,,,,,,,,,,,,,,,,,,,,,,,,,,,,,,,,,,,,,,,,,,
,,,,,67,2020-07-04_18h55.59.956,retriever_ti,2020.1.3,Win32,60,Chrome,1440,900,,,,,,,,,,,,,,,,,,,,,,,,,,,,,,,,,,,,,0,4.071175,1,0,1,0,1,,,,,,,,,,,,,,,,,,,,,,,,,,,,,,,,,,,,,,,,,,,,,,,,,,,,,,,
,,,,,67,2020-07-04_18h55.59.956,retriever_ti,2020.1.3,Win32,60,Chrome,1440,900,,,,,,,,,,,,,,,,,1,,,,,,,,,,,,,,,,,,,,,,,,,,,268.432385,1,right,1.124665,hat           ,8,8,6,1,3,268.4556,268.4556,270.943175,0,0,0,0,1,1,2,8,camel         ,hat           ,html/resources/sequences_IDs/A/03_camel.jpg,html/resources/sequences_IDs/A/08_hat.jpg,3,8,1,1,3,2,3,6,0,67,,,,,,,,,,,,,,,,,,,,
,,,,,67,2020-07-04_18h55.59.956,retriever_ti,2020.1.3,Win32,60,Chrome,1440,900,,,,,,,,,,,,,,,,,1,,,,,,,,,,,,,,,,,,,,,,,,,,,271.54491,2,right,0.99667,wolf          ,6,1,-1,0,0,271.577895,271.577895,274.065385,0,1,1,1,1,2,7,6,gloves      ,wolf          ,html/resources/sequences_IDs/B/06_gloves.jpg,html/resources/sequences_IDs/A/01_wolf.jpg,6,1,3,2,1,1,5,1,0,67,,,,,,,,,,,,,,,,,,,,
,,,,,67,2020-07-04_18h55.59.956,retriever_ti,2020.1.3,Win32,60,Chrome,1440,900,,,,,,,,,,,,,,,,,1,,,,,,,,,,,,,,,,,,,,,,,,,,,275.16792,3,left,1.636805,holdfast    ,1,4,-1,0,0,275.2015,275.2015,277.68893,0,2,2,2,1,3,1,2,holdfast    ,camel         ,html/resources/sequences_IDs/B/04_holdfast.jpg,html/resources/sequences_IDs/A/03_camel.jpg,4,3,2,1,1,1,4,3,0,67,,,,,,,,,,,,,,,,,,,,
,,,,,67,2020-07-04_18h55.59.956,retriever_ti,2020.1.3,Win32,60,Chrome,1440,900,,,,,,,,,,,,,,,,,1,,,,,,,,,,,,,,,,,,,,,,,,,,,278.791425,4,left,1.618725,calculator    ,4,9,3,1,3,278.824925,278.824925,281.312375,0,3,3,3,1,4,4,1,calculator    ,holdfast    ,html/resources/sequences_IDs/A/09_calculator.jpg,html/resources/sequences_IDs/B/04_holdfast.jpg,9,4,4,2,2,1,7,4,0,67,,,,,,,,,,,,,,,,,,,,
,,,,,67,2020-07-04_18h55.59.956,retriever_ti,2020.1.3,Win32,60,Chrome,1440,900,,,,,,,,,,,,,,,,,1,,,,,,,,,,,,,,,,,,,,,,,,,,,281.91395,5,right,1.068735,radio       ,3,10,-3,0,3,281.947545,281.947545,284.434985,0,4,4,4,1,5,6,3,wolf          ,radio       ,html/resources/sequences_IDs/A/01_wolf.jpg,html/resources/sequences_IDs/B/10_radio.jpg,1,10,1,1,4,2,1,8,0,67,,,,,,,,,,,,,,,,,,,,
,,,,,67,2020-07-04_18h55.59.956,retriever_ti,2020.1.3,Win32,60,Chrome,1440,900,,,,,,,,,,,,,,,,,1,,,,,,,,,,,,,,,,,,,,,,,,,,,285.036365,6,left,1.230975,dolphin     ,5,2,1,1,1,285.070155,285.070155,287.557485,0,5,5,5,1,6,5,4,dolphin     ,calculator    ,html/resources/sequences_IDs/B/02_dolphin.jpg,html/resources/sequences_IDs/A/09_calculator.jpg,2,9,1,1,4,2,2,7,0,67,,,,,,,,,,,,,,,,,,,,
,,,,,67,2020-07-04_18h55.59.956,retriever_ti,2020.1.3,Win32,60,Chrome,1440,900,,,,,,,,,,,,,,,,,1,,,,,,,,,,,,,,,,,,,,,,,,,,,288.660085,7,right,1.74014,radio       ,3,10,-1,0,0,288.676955,288.676955,291.164355,0,6,6,6,1,7,4,3,calculator    ,radio       ,html/resources/sequences_IDs/A/09_calculator.jpg,html/resources/sequences_IDs/B/10_radio.jpg,9,10,4,2,4,2,7,8,0,67,,,,,,,,,,,,,,,,,,,,
,,,,,67,2020-07-04_18h55.59.956,retriever_ti,2020.1.3,Win32,60,Chrome,1440,900,,,,,,,,,,,,,,,,,1,,,,,,,,,,,,,,,,,,,,,,,,,,,292.26692,8,left,1.61444,dolphin     ,5,2,-3,0,3,292.3005,292.3005,294.787895,0,7,7,7,1,8,5,8,dolphin     ,hat           ,html/resources/sequences_IDs/B/02_dolphin.jpg,html/resources/sequences_IDs/A/08_hat.jpg,2,8,1,1,3,2,2,6,0,67,,,,,,,,,,,,,,,,,,,,
,,,,,67,2020-07-04_18h55.59.956,retriever_ti,2020.1.3,Win32,60,Chrome,1440,900,,,,,,,,,,,,,,,,,1,,,,,,,,,,,,,,,,,,,,,,,,,,,295.38924,9,left,1.333305,wolf          ,6,1,5,1,3,295.406355,295.406355,297.89376,0,8,8,8,1,9,6,1,wolf          ,holdfast    ,html/resources/sequences_IDs/A/01_wolf.jpg,html/resources/sequences_IDs/B/04_holdfast.jpg,1,4,1,1,2,1,1,4,0,67,,,,,,,,,,,,,,,,,,,,
,,,,,67,2020-07-04_18h55.59.956,retriever_ti,2020.1.3,Win32,60,Chrome,1440,900,,,,,,,,,,,,,,,,,1,,,,,,,,,,,,,,,,,,,,,,,,,,,298.495325,10,right,1.20257,camel         ,2,3,1,1,0,298.512165,298.512165,300.99964,0,9,9,9,1,10,1,2,holdfast    ,camel         ,html/resources/sequences_IDs/B/04_holdfast.jpg,html/resources/sequences_IDs/A/03_camel.jpg,4,3,2,1,1,1,4,3,1,67,,,,,,,,,,,,,,,,,,,,
,,,,,67,2020-07-04_18h55.59.956,retriever_ti,2020.1.3,Win32,60,Chrome,1440,900,,,,,,,,,,,,,,,,,1,,,,,,,,,,,,,,,,,,,,,,,,,,,302.10221,11,right,1.3096,hat           ,8,8,1,1,1,302.13584,302.13584,304.623145,0,10,10,10,1,11,7,8,gloves      ,hat           ,html/resources/sequences_IDs/B/06_gloves.jpg,html/resources/sequences_IDs/A/08_hat.jpg,6,8,3,2,3,2,5,6,0,67,,,,,,,,,,,,,,,,,,,,
,,,,,67,2020-07-04_18h55.59.956,retriever_ti,2020.1.3,Win32,60,Chrome,1440,900,,,,,,,,,,,,,,,,,1,,,,,,,,,,,,,,,,,,,,,,,,,,,305.725435,12,right,1.067795,wolf          ,6,1,-1,0,0,305.75927,305.75927,308.246685,0,11,11,11,1,12,7,6,gloves      ,wolf          ,html/resources/sequences_IDs/B/06_gloves.jpg,html/resources/sequences_IDs/A/01_wolf.jpg,6,1,3,2,1,1,5,1,0,67,,,,,,,,,,,,,,,,,,,,
,,,,,67,2020-07-04_18h55.59.956,retriever_ti,2020.1.3,Win32,60,Chrome,1440,900,,,,,,,,,,,,,,,,,1,,,,,,,,,,,,,,,,,,,,,,,,,,,309.34919,13,right,1.720745,camel         ,2,3,-5,0,3,309.3828,309.3828,311.870195,0,12,12,12,1,13,7,2,gloves      ,camel         ,html/resources/sequences_IDs/B/06_gloves.jpg,html/resources/sequences_IDs/A/03_camel.jpg,6,3,3,2,1,1,5,3,0,67,,,,,,,,,,,,,,,,,,,,
,,,,,67,2020-07-04_18h55.59.956,retriever_ti,2020.1.3,Win32,60,Chrome,1440,900,,,,,,,,,,,,,,,,,1,,,,,,,,,,,,,,,,,,,,,,,,,,,312.471655,14,left,1.505805,holdfast    ,1,4,-6,0,3,312.505325,312.505325,314.992785,0,13,13,13,1,14,1,7,holdfast    ,gloves      ,html/resources/sequences_IDs/B/04_holdfast.jpg,html/resources/sequences_IDs/B/06_gloves.jpg,4,6,2,1,3,2,4,5,0,67,,,,,,,,,,,,,,,,,,,,
,,,,,67,2020-07-04_18h55.59.956,retriever_ti,2020.1.3,Win32,60,Chrome,1440,900,,,,,,,,,,,,,,,,,1,,,,,,,,,,,,,,,,,,,,,,,,,,,315.59409,15,left,0.988805,dolphin     ,5,2,4,1,3,315.61123,315.61123,318.098675,0,14,14,14,1,15,5,1,dolphin     ,holdfast    ,html/resources/sequences_IDs/B/02_dolphin.jpg,html/resources/sequences_IDs/B/04_holdfast.jpg,2,4,1,1,2,1,2,4,0,67,,,,,,,,,,,,,,,,,,,,
,,,,,67,2020-07-04_18h55.59.956,retriever_ti,2020.1.3,Win32,60,Chrome,1440,900,,,,,,,,,,,,,,,,,1,,,,,,,,,,,,,,,,,,,,,,,,,,,318.70015,16,left,2.24402,calculator    ,4,9,-3,0,3,318.73382,318.73382,321.22118,0,15,15,15,1,16,4,7,calculator    ,gloves      ,html/resources/sequences_IDs/A/09_calculator.jpg,html/resources/sequences_IDs/B/06_gloves.jpg,9,6,4,2,3,2,7,5,0,67,,,,,,,,,,,,,,,,,,,,
,,,,,67,2020-07-04_18h55.59.956,retriever_ti,2020.1.3,Win32,60,Chrome,1440,900,,,,,,,,,,,,,,,,,1,,,,,,,,,,,,,,,,,,,,,,,,,,,321.822505,17,left,0.82713,calculator    ,4,9,-1,0,1,321.839625,321.839625,324.327075,0,16,16,16,1,17,4,5,calculator    ,dolphin     ,html/resources/sequences_IDs/A/09_calculator.jpg,html/resources/sequences_IDs/B/02_dolphin.jpg,9,2,4,2,1,1,7,2,1,67,,,,,,,,,,,,,,,,,,,,
,,,,,67,2020-07-04_18h55.59.956,retriever_ti,2020.1.3,Win32,60,Chrome,1440,900,,,,,,,,,,,,,,,,,1,,,,,,,,,,,,,,,,,,,,,,,,,,,325.429565,18,right,1.49428,calculator    ,4,9,1,1,1,325.46313,325.46313,327.95051,0,17,17,17,1,18,3,4,radio       ,calculator    ,html/resources/sequences_IDs/B/10_radio.jpg,html/resources/sequences_IDs/A/09_calculator.jpg,10,9,4,2,4,2,8,7,0,67,,,,,,,,,,,,,,,,,,,,
,,,,,67,2020-07-04_18h55.59.956,retriever_ti,2020.1.3,Win32,60,Chrome,1440,900,,,,,,,,,,,,,,,,,1,,,,,,,,,,,,,,,,,,,,,,,,,,,329.053195,19,NaN,NaN,No_response,NaN,NaN,NaN,2,2,329.07008,329.07008,331.55747,0,18,18,18,1,19,6,8,wolf          ,hat           ,html/resources/sequences_IDs/A/01_wolf.jpg,html/resources/sequences_IDs/A/08_hat.jpg,1,8,1,1,3,2,1,6,0,67,,,,,,,,,,,,,,,,,,,,
,,,,,67,2020-07-04_18h55.59.956,retriever_ti,2020.1.3,Win32,60,Chrome,1440,900,,,,,,,,,,,,,,,,,1,,,,,,,,,,,,,,,,,,,,,,,,,,,332.659935,20,right,1.015085,camel         ,2,3,-3,0,3,332.67687,332.67687,335.164245,0,19,19,19,1,20,5,2,dolphin     ,camel         ,html/resources/sequences_IDs/B/02_dolphin.jpg,html/resources/sequences_IDs/A/03_camel.jpg,2,3,1,1,1,1,2,3,0,67,,,,,,,,,,,,,,,,,,,,
,,,,,67,2020-07-04_18h55.59.956,retriever_ti,2020.1.3,Win32,60,Chrome,1440,900,,,,,,,,,,,,,,,,,1,,,,,,,,,,,,,,,,,,,,,,,,,,,335.76563,21,right,0.95582,calculator    ,4,9,1,1,0,335.78274,335.78274,338.270125,0,20,20,20,1,21,3,4,radio       ,calculator    ,html/resources/sequences_IDs/B/10_radio.jpg,html/resources/sequences_IDs/A/09_calculator.jpg,10,9,4,2,4,2,8,7,1,67,,,,,,,,,,,,,,,,,,,,
,,,,,67,2020-07-04_18h55.59.956,retriever_ti,2020.1.3,Win32,60,Chrome,1440,900,,,,,,,,,,,,,,,,,1,,,,,,,,,,,,,,,,,,,,,,,,,,,339.372745,22,right,1.776075,hat           ,8,8,1,1,1,339.3895,339.3895,341.877015,0,21,21,21,1,22,7,8,gloves      ,hat           ,html/resources/sequences_IDs/B/06_gloves.jpg,html/resources/sequences_IDs/A/08_hat.jpg,6,8,3,2,3,2,5,6,0,67,,,,,,,,,,,,,,,,,,,,
,,,,,67,2020-07-04_18h55.59.956,retriever_ti,2020.1.3,Win32,60,Chrome,1440,900,,,,,,,,,,,,,,,,,1,,,,,,,,,,,,,,,,,,,,,,,,,,,342.9795,23,left,1.40571,calculator    ,4,9,-1,0,0,342.996345,342.996345,345.48377,0,22,22,22,1,23,4,5,calculator    ,dolphin     ,html/resources/sequences_IDs/A/09_calculator.jpg,html/resources/sequences_IDs/B/02_dolphin.jpg,9,2,4,2,1,1,7,2,0,67,,,,,,,,,,,,,,,,,,,,
,,,,,67,2020-07-04_18h55.59.956,retriever_ti,2020.1.3,Win32,60,Chrome,1440,900,,,,,,,,,,,,,,,,,1,,,,,,,,,,,,,,,,,,,,,,,,,,,346.586305,24,left,1.488475,camel         ,2,3,1,1,1,346.603155,346.603155,349.09066,0,23,23,23,1,24,2,1,camel         ,holdfast    ,html/resources/sequences_IDs/A/03_camel.jpg,html/resources/sequences_IDs/B/04_holdfast.jpg,3,4,1,1,2,1,3,4,0,67,,,,,,,,,,,,,,,,,,,,
,,,,,67,2020-07-04_18h55.59.956,retriever_ti,2020.1.3,Win32,60,Chrome,1440,900,,,,,,,,,,,,,,,,,1,,,,,,,,,,,,,,,,,,,,,,,,,,,350.1932,25,right,0.72805,wolf          ,6,1,-1,0,1,350.22669,350.22669,352.71411,0,24,24,24,1,25,7,6,gloves      ,wolf          ,html/resources/sequences_IDs/B/06_gloves.jpg,html/resources/sequences_IDs/A/01_wolf.jpg,6,1,3,2,1,1,5,1,1,67,,,,,,,,,,,,,,,,,,,,
,,,,,67,2020-07-04_18h55.59.956,retriever_ti,2020.1.3,Win32,60,Chrome,1440,900,,,,,,,,,,,,,,,,,1,,,,,,,,,,,,,,,,,,,,,,,,,,,353.816435,26,left,0.962565,calculator    ,4,9,-1,0,0,353.85017,353.85017,356.33761,0,25,25,25,1,26,4,5,calculator    ,dolphin     ,html/resources/sequences_IDs/A/09_calculator.jpg,html/resources/sequences_IDs/B/02_dolphin.jpg,9,2,4,2,1,1,7,2,0,67,,,,,,,,,,,,,,,,,,,,
,,,,,67,2020-07-04_18h55.59.956,retriever_ti,2020.1.3,Win32,60,Chrome,1440,900,,,,,,,,,,,,,,,,,1,,,,,,,,,,,,,,,,,,,,,,,,,,,357.440165,27,left,1.31942,hat           ,8,8,1,1,1,357.457,357.457,359.94446,0,26,26,26,1,27,8,7,hat           ,gloves      ,html/resources/sequences_IDs/A/08_hat.jpg,html/resources/sequences_IDs/B/06_gloves.jpg,8,6,3,2,3,2,6,5,0,67,,,,,,,,,,,,,,,,,,,,
,,,,,67,2020-07-04_18h55.59.956,retriever_ti,2020.1.3,Win32,60,Chrome,1440,900,,,,,,,,,,,,,,,,,1,,,,,,,,,,,,,,,,,,,,,,,,,,,361.046925,28,left,0.8835,hat           ,8,8,7,1,3,361.063825,361.063825,363.55137,0,27,27,27,1,28,8,1,hat           ,holdfast    ,html/resources/sequences_IDs/A/08_hat.jpg,html/resources/sequences_IDs/B/04_holdfast.jpg,8,4,3,2,2,1,6,4,0,67,,,,,,,,,,,,,,,,,,,,
,,,,,67,2020-07-04_18h55.59.956,retriever_ti,2020.1.3,Win32,60,Chrome,1440,900,,,,,,,,,,,,,,,,,1,,,,,,,,,,,,,,,,,,,,,,,,,,,364.152915,29,right,1.832685,gloves      ,7,6,1,1,1,364.18641,364.18641,366.67386,0,28,28,28,1,29,6,7,wolf          ,gloves      ,html/resources/sequences_IDs/A/01_wolf.jpg,html/resources/sequences_IDs/B/06_gloves.jpg,1,6,1,1,3,2,1,5,0,67,,,,,,,,,,,,,,,,,,,,
,,,,,67,2020-07-04_18h55.59.956,retriever_ti,2020.1.3,Win32,60,Chrome,1440,900,,,,,,,,,,,,,,,,,1,,,,,,,,,,,,,,,,,,,,,,,,,,,367.77622,30,right,1.63316,camel         ,2,3,-1,0,0,367.80995,367.80995,370.29742,0,29,29,29,1,30,3,2,radio       ,camel         ,html/resources/sequences_IDs/B/10_radio.jpg,html/resources/sequences_IDs/A/03_camel.jpg,10,3,4,2,1,1,8,3,0,67,,,,,,,,,,,,,,,,,,,,
,,,,,67,2020-07-04_18h55.59.956,retriever_ti,2020.1.3,Win32,60,Chrome,1440,900,,,,,,,,,,,,,,,,,1,,,,,,,,,,,,,,,,,,,,,,,,,,,371.40001,31,left,1.144785,radio       ,3,10,-3,0,3,371.43363,371.43363,373.920945,0,30,30,30,1,31,3,6,radio       ,wolf          ,html/resources/sequences_IDs/B/10_radio.jpg,html/resources/sequences_IDs/A/01_wolf.jpg,10,1,4,2,1,1,8,1,0,67,,,,,,,,,,,,,,,,,,,,
,,,,,67,2020-07-04_18h55.59.956,retriever_ti,2020.1.3,Win32,60,Chrome,1440,900,,,,,,,,,,,,,,,,,1,,,,,,,,,,,,,,,,,,,,,,,,,,,374.52252,32,right,2.408515,gloves      ,7,6,5,1,3,374.53938,374.53938,377.02674,0,31,31,31,1,32,2,7,camel         ,gloves      ,html/resources/sequences_IDs/A/03_camel.jpg,html/resources/sequences_IDs/B/06_gloves.jpg,3,6,1,1,3,2,3,5,0,67,,,,,,,,,,,,,,,,,,,,
,,,,,67,2020-07-04_18h55.59.956,retriever_ti,2020.1.3,Win32,60,Chrome,1440,900,,,,,,,,,,,,,,,,,1,,,,,,,,,,,,,,,,,,,,,,,,,,,377.628195,33,left,1.363245,radio       ,3,10,-4,0,3,377.64529,377.64529,380.132675,0,32,32,32,1,33,3,7,radio       ,gloves      ,html/resources/sequences_IDs/B/10_radio.jpg,html/resources/sequences_IDs/B/06_gloves.jpg,10,6,4,2,3,2,8,5,0,67,,,,,,,,,,,,,,,,,,,,
,,,,,67,2020-07-04_18h55.59.956,retriever_ti,2020.1.3,Win32,60,Chrome,1440,900,,,,,,,,,,,,,,,,,1,,,,,,,,,,,,,,,,,,,,,,,,,,,380.73424,34,left,0.844115,calculator    ,4,9,2,1,3,380.76784,380.76784,383.25524,0,33,33,33,1,34,4,2,calculator    ,camel         ,html/resources/sequences_IDs/A/09_calculator.jpg,html/resources/sequences_IDs/A/03_camel.jpg,9,3,4,2,1,1,7,3,0,67,,,,,,,,,,,,,,,,,,,,
,,,,,67,2020-07-04_18h55.59.956,retriever_ti,2020.1.3,Win32,60,Chrome,1440,900,,,,,,,,,,,,,,,,,1,,,,,,,,,,,,,,,,,,,,,,,,,,,383.85651,35,left,1.07618,radio       ,3,10,1,1,1,383.890345,383.890345,386.3778,0,34,34,34,1,35,3,2,radio       ,camel         ,html/resources/sequences_IDs/B/10_radio.jpg,html/resources/sequences_IDs/A/03_camel.jpg,10,3,4,2,1,1,8,3,0,67,,,,,,,,,,,,,,,,,,,,
,,,,,67,2020-07-04_18h55.59.956,retriever_ti,2020.1.3,Win32,60,Chrome,1440,900,,,,,,,,,,,,,,,,,1,,,,,,,,,,,,,,,,,,,,,,,,,,,387.48036,36,right,1.528855,calculator    ,4,9,1,1,1,387.513945,387.513945,390.00141,0,35,35,35,1,36,3,4,radio       ,calculator    ,html/resources/sequences_IDs/B/10_radio.jpg,html/resources/sequences_IDs/A/09_calculator.jpg,10,9,4,2,4,2,8,7,0,67,,,,,,,,,,,,,,,,,,,,
,,,,,67,2020-07-04_18h55.59.956,retriever_ti,2020.1.3,Win32,60,Chrome,1440,900,,,,,,,,,,,,,,,,,1,,,,,,,,,,,,,,,,,,,,,,,,,,,391.10384,37,right,0.926565,camel         ,2,3,1,1,1,391.12074,391.12074,393.60817,0,36,36,36,1,37,1,2,holdfast    ,camel         ,html/resources/sequences_IDs/B/04_holdfast.jpg,html/resources/sequences_IDs/A/03_camel.jpg,4,3,2,1,1,1,4,3,0,67,,,,,,,,,,,,,,,,,,,,
,,,,,67,2020-07-04_18h55.59.956,retriever_ti,2020.1.3,Win32,60,Chrome,1440,900,,,,,,,,,,,,,,,,,1,,,,,,,,,,,,,,,,,,,,,,,,,,,394.710535,38,left,1.51544,hat           ,8,8,6,1,3,394.74423,394.74423,397.23169,0,37,37,37,1,38,8,2,hat           ,camel         ,html/resources/sequences_IDs/A/08_hat.jpg,html/resources/sequences_IDs/A/03_camel.jpg,8,3,3,2,1,1,6,3,0,67,,,,,,,,,,,,,,,,,,,,
,,,,,67,2020-07-04_18h55.59.956,retriever_ti,2020.1.3,Win32,60,Chrome,1440,900,,,,,,,,,,,,,,,,,1,,,,,,,,,,,,,,,,,,,,,,,,,,,397.83303,39,left,1.809155,wolf          ,6,1,4,1,3,397.86683,397.86683,400.354195,0,38,38,38,1,39,6,2,wolf          ,camel         ,html/resources/sequences_IDs/A/01_wolf.jpg,html/resources/sequences_IDs/A/03_camel.jpg,1,3,1,1,1,1,1,3,0,67,,,,,,,,,,,,,,,,,,,,
,,,,,67,2020-07-04_18h55.59.956,retriever_ti,2020.1.3,Win32,60,Chrome,1440,900,,,,,,,,,,,,,,,,,1,,,,,,,,,,,,,,,,,,,,,,,,,,,400.955805,40,right,1.377265,wolf          ,6,1,4,1,3,400.989475,400.989475,403.47682,0,39,39,39,1,40,2,6,camel         ,wolf          ,html/resources/sequences_IDs/A/03_camel.jpg,html/resources/sequences_IDs/A/01_wolf.jpg,3,1,1,1,1,1,3,1,0,67,,,,,,,,,,,,,,,,,,,,
,,,,,67,2020-07-04_18h55.59.956,retriever_ti,2020.1.3,Win32,60,Chrome,1440,900,,,,,,,,,,,,,,,,,1,,,,,,,,,,,,,,,,,,,,,,,,,,,404.078395,41,right,1.76118,calculator    ,4,9,-2,0,3,404.11201,404.11201,406.599475,0,40,40,40,1,41,6,4,wolf          ,calculator    ,html/resources/sequences_IDs/A/01_wolf.jpg,html/resources/sequences_IDs/A/09_calculator.jpg,1,9,1,1,4,2,1,7,0,67,,,,,,,,,,,,,,,,,,,,
,,,,,67,2020-07-04_18h55.59.956,retriever_ti,2020.1.3,Win32,60,Chrome,1440,900,,,,,,,,,,,,,,,,,1,,,,,,,,,,,,,,,,,,,,,,,,,,,407.200815,42,left,1.28936,calculator    ,4,9,-4,0,3,407.234595,407.234595,409.722045,0,41,41,41,1,42,4,8,calculator    ,hat           ,html/resources/sequences_IDs/A/09_calculator.jpg,html/resources/sequences_IDs/A/08_hat.jpg,9,8,4,2,3,2,7,6,0,67,,,,,,,,,,,,,,,,,,,,
,,,,,67,2020-07-04_18h55.59.956,retriever_ti,2020.1.3,Win32,60,Chrome,1440,900,,,,,,,,,,,,,,,,,1,,,,,,,,,,,,,,,,,,,,,,,,,,,410.323585,43,right,1.775045,dolphin     ,5,2,-1,0,0,410.35697,410.35697,412.844595,0,42,42,42,1,43,6,5,wolf          ,dolphin     ,html/resources/sequences_IDs/A/01_wolf.jpg,html/resources/sequences_IDs/B/02_dolphin.jpg,1,2,1,1,1,1,1,2,0,67,,,,,,,,,,,,,,,,,,,,
,,,,,67,2020-07-04_18h55.59.956,retriever_ti,2020.1.3,Win32,60,Chrome,1440,900,,,,,,,,,,,,,,,,,1,,,,,,,,,,,,,,,,,,,,,,,,,,,413.946835,44,right,1.52466,hat           ,8,8,5,1,3,413.963955,413.963955,416.45146,0,43,43,43,1,44,3,8,radio       ,hat           ,html/resources/sequences_IDs/B/10_radio.jpg,html/resources/sequences_IDs/A/08_hat.jpg,10,8,4,2,3,2,8,6,0,67,,,,,,,,,,,,,,,,,,,,
,,,,,67,2020-07-04_18h55.59.956,retriever_ti,2020.1.3,Win32,60,Chrome,1440,900,,,,,,,,,,,,,,,,,1,,,,,,,,,,,,,,,,,,,,,,,,,,,417.052755,45,left,0.78721,hat           ,8,8,1,1,0,417.086575,417.086575,419.57394,0,44,44,44,1,45,8,7,hat           ,gloves      ,html/resources/sequences_IDs/A/08_hat.jpg,html/resources/sequences_IDs/B/06_gloves.jpg,8,6,3,2,3,2,6,5,1,67,,,,,,,,,,,,,,,,,,,,
,,,,,67,2020-07-04_18h55.59.956,retriever_ti,2020.1.3,Win32,60,Chrome,1440,900,,,,,,,,,,,,,,,,,1,,,,,,,,,,,,,,,,,,,,,,,,,,,420.67652,46,right,1.35754,calculator    ,4,9,-3,0,3,420.71006,420.71006,423.197545,0,45,45,45,1,46,7,4,gloves      ,calculator    ,html/resources/sequences_IDs/B/06_gloves.jpg,html/resources/sequences_IDs/A/09_calculator.jpg,6,9,3,2,4,2,5,7,0,67,,,,,,,,,,,,,,,,,,,,
,,,,,67,2020-07-04_18h55.59.956,retriever_ti,2020.1.3,Win32,60,Chrome,1440,900,,,,,,,,,,,,,,,,,1,,,,,,,,,,,,,,,,,,,,,,,,,,,423.798835,47,right,2.291075,holdfast    ,1,4,-2,0,3,423.83264,423.83264,426.320035,0,46,46,46,1,47,3,1,radio       ,holdfast    ,html/resources/sequences_IDs/B/10_radio.jpg,html/resources/sequences_IDs/B/04_holdfast.jpg,10,4,4,2,2,1,8,4,0,67,,,,,,,,,,,,,,,,,,,,
,,,,,67,2020-07-04_18h55.59.956,retriever_ti,2020.1.3,Win32,60,Chrome,1440,900,,,,,,,,,,,,,,,,,1,,,,,,,,,,,,,,,,,,,,,,,,,,,426.921655,48,right,1.32781,calculator    ,4,9,3,1,3,426.955165,426.955165,429.44263,0,47,47,47,1,48,1,4,holdfast    ,calculator    ,html/resources/sequences_IDs/B/04_holdfast.jpg,html/resources/sequences_IDs/A/09_calculator.jpg,4,9,2,1,4,2,4,7,0,67,,,,,,,,,,,,,,,,,,,,
,,,,,67,2020-07-04_18h55.59.956,retriever_ti,2020.1.3,Win32,60,Chrome,1440,900,,,,,,,,,,,,,,,,,1,,,,,,,,,,,,,,,,,,,,,,,,,,,430.044325,49,right,1.478545,camel         ,2,3,-1,0,1,430.06108,430.06108,432.548465,0,48,48,48,1,49,3,2,radio       ,camel         ,html/resources/sequences_IDs/B/10_radio.jpg,html/resources/sequences_IDs/A/03_camel.jpg,10,3,4,2,1,1,8,3,1,67,,,,,,,,,,,,,,,,,,,,
,,,,,67,2020-07-04_18h55.59.956,retriever_ti,2020.1.3,Win32,60,Chrome,1440,900,,,,,,,,,,,,,,,,,1,,,,,,,,,,,,,,,,,,,,,,,,,,,433.65084,50,left,0.96689,camel         ,2,3,-1,0,0,433.68461,433.68461,436.17208,0,49,49,49,1,50,2,3,camel         ,radio       ,html/resources/sequences_IDs/A/03_camel.jpg,html/resources/sequences_IDs/B/10_radio.jpg,3,10,1,1,4,2,3,8,0,67,,,,,,,,,,,,,,,,,,,,
,,,,,67,2020-07-04_18h55.59.956,retriever_ti,2020.1.3,Win32,60,Chrome,1440,900,,,,,,,,,,,,,,,,,1,,,,,,,,,,,,,,,,,,,,,,,,,,,437.27459,51,left,2.039705,dolphin     ,5,2,-1,0,0,437.308135,437.308135,439.79554,0,50,50,50,1,51,5,6,dolphin     ,wolf          ,html/resources/sequences_IDs/B/02_dolphin.jpg,html/resources/sequences_IDs/A/01_wolf.jpg,2,1,1,1,1,1,2,1,0,67,,,,,,,,,,,,,,,,,,,,
,,,,,67,2020-07-04_18h55.59.956,retriever_ti,2020.1.3,Win32,60,Chrome,1440,900,,,,,,,,,,,,,,,,,1,,,,,,,,,,,,,,,,,,,,,,,,,,,440.89806,52,left,0.896685,hat           ,8,8,1,1,1,440.91495,440.91495,443.402405,0,51,51,51,1,52,8,7,hat           ,gloves      ,html/resources/sequences_IDs/A/08_hat.jpg,html/resources/sequences_IDs/B/06_gloves.jpg,8,6,3,2,3,2,6,5,0,67,,,,,,,,,,,,,,,,,,,,
,,,,,67,2020-07-04_18h55.59.956,retriever_ti,2020.1.3,Win32,60,Chrome,1440,900,,,,,,,,,,,,,,,,,1,,,,,,,,,,,,,,,,,,,,,,,,,,,444.50488,53,right,0.900035,radio       ,3,10,-4,0,3,444.538605,444.538605,447.025815,0,52,52,52,1,53,7,3,gloves      ,radio       ,html/resources/sequences_IDs/B/06_gloves.jpg,html/resources/sequences_IDs/B/10_radio.jpg,6,10,3,2,4,2,5,8,0,67,,,,,,,,,,,,,,,,,,,,
,,,,,67,2020-07-04_18h55.59.956,retriever_ti,2020.1.3,Win32,60,Chrome,1440,900,,,,,,,,,,,,,,,,,1,,,,,,,,,,,,,,,,,,,,,,,,,,,447.627285,54,left,0.951615,camel         ,2,3,1,1,1,447.661045,447.661045,450.1484,0,53,53,53,1,54,2,1,camel         ,holdfast    ,html/resources/sequences_IDs/A/03_camel.jpg,html/resources/sequences_IDs/B/04_holdfast.jpg,3,4,1,1,2,1,3,4,0,67,,,,,,,,,,,,,,,,,,,,
,,,,,67,2020-07-04_18h55.59.956,retriever_ti,2020.1.3,Win32,60,Chrome,1440,900,,,,,,,,,,,,,,,,,1,,,,,,,,,,,,,,,,,,,,,,,,,,,451.251015,55,right,0.744555,radio       ,3,10,2,1,3,451.267815,451.267815,453.755265,0,54,54,54,1,55,1,3,holdfast    ,radio       ,html/resources/sequences_IDs/B/04_holdfast.jpg,html/resources/sequences_IDs/B/10_radio.jpg,4,10,2,1,4,2,4,8,0,67,,,,,,,,,,,,,,,,,,,,
,,,,,67,2020-07-04_18h55.59.956,retriever_ti,2020.1.3,Win32,60,Chrome,1440,900,,,,,,,,,,,,,,,,,1,,,,,,,,,,,,,,,,,,,,,,,,,,,454.356885,56,left,0.732215,calculator    ,4,9,-2,0,3,454.373775,454.373775,456.86122,0,55,55,55,1,56,4,6,calculator    ,wolf          ,html/resources/sequences_IDs/A/09_calculator.jpg,html/resources/sequences_IDs/A/01_wolf.jpg,9,1,4,2,1,1,7,1,0,67,,,,,,,,,,,,,,,,,,,,
,,,,,67,2020-07-04_18h55.59.956,retriever_ti,2020.1.3,Win32,60,Chrome,1440,900,,,,,,,,,,,,,,,,,1,,,,,,,,,,,,,,,,,,,,,,,,,,,457.462475,57,right,1.7344,wolf          ,6,1,1,1,1,457.49626,457.49626,459.983755,0,56,56,56,1,57,5,6,dolphin     ,wolf          ,html/resources/sequences_IDs/B/02_dolphin.jpg,html/resources/sequences_IDs/A/01_wolf.jpg,2,1,1,1,1,1,2,1,0,67,,,,,,,,,,,,,,,,,,,,
,,,,,67,2020-07-04_18h55.59.956,retriever_ti,2020.1.3,Win32,60,Chrome,1440,900,,,,,,,,,,,,,,,,,1,,,,,,,,,,,,,,,,,,,,,,,,,,,461.08627,58,left,0.77455,hat           ,8,8,3,1,3,461.119775,461.119775,463.607265,0,57,57,57,1,58,8,5,hat           ,dolphin     ,html/resources/sequences_IDs/A/08_hat.jpg,html/resources/sequences_IDs/B/02_dolphin.jpg,8,2,3,2,1,1,6,2,0,67,,,,,,,,,,,,,,,,,,,,
,,,,,67,2020-07-04_18h55.59.956,retriever_ti,2020.1.3,Win32,60,Chrome,1440,900,,,,,,,,,,,,,,,,,1,,,,,,,,,,,,,,,,,,,,,,,,,,,464.208625,59,right,0.590445,calculator    ,4,9,2,1,3,464.2257,464.2257,466.713185,0,58,58,58,1,59,2,4,camel         ,calculator    ,html/resources/sequences_IDs/A/03_camel.jpg,html/resources/sequences_IDs/A/09_calculator.jpg,3,9,1,1,4,2,3,7,0,67,,,,,,,,,,,,,,,,,,,,
,,,,,67,2020-07-04_18h55.59.956,retriever_ti,2020.1.3,Win32,60,Chrome,1440,900,,,,,,,,,,,,,,,,,1,,,,,,,,,,,,,,,,,,,,,,,,,,,467.31451,60,right,1.25055,dolphin     ,5,2,-1,0,0,467.348225,467.348225,469.835705,0,59,59,59,1,60,6,5,wolf          ,dolphin     ,html/resources/sequences_IDs/A/01_wolf.jpg,html/resources/sequences_IDs/B/02_dolphin.jpg,1,2,1,1,1,1,1,2,0,67,,,,,,,,,,,,,,,,,,,,
,,,,,67,2020-07-04_18h55.59.956,retriever_ti,2020.1.3,Win32,60,Chrome,1440,900,,,,,,,,,,,,,,,,,1,,,,,,,,,,,,,,,,,,,,,,,,,,,470.93815,61,right,0.60877,radio       ,3,10,1,1,1,470.95506,470.95506,473.44249,0,60,60,60,1,61,2,3,camel         ,radio       ,html/resources/sequences_IDs/A/03_camel.jpg,html/resources/sequences_IDs/B/10_radio.jpg,3,10,1,1,4,2,3,8,0,67,,,,,,,,,,,,,,,,,,,,
,,,,,67,2020-07-04_18h55.59.956,retriever_ti,2020.1.3,Win32,60,Chrome,1440,900,,,,,,,,,,,,,,,,,1,,,,,,,,,,,,,,,,,,,,,,,,,,,474.545035,62,right,0.96959,hat           ,8,8,7,1,3,474.578645,474.578645,477.06607,0,61,61,61,1,62,1,8,holdfast    ,hat           ,html/resources/sequences_IDs/B/04_holdfast.jpg,html/resources/sequences_IDs/A/08_hat.jpg,4,8,2,1,3,2,4,6,0,67,,,,,,,,,,,,,,,,,,,,
,,,,,67,2020-07-04_18h55.59.956,retriever_ti,2020.1.3,Win32,60,Chrome,1440,900,,,,,,,,,,,,,,,,,1,,,,,,,,,,,,,,,,,,,,,,,,,,,477.66741,63,right,0.710175,dolphin     ,5,2,-2,0,3,477.701195,477.701195,480.188725,0,62,62,62,1,63,7,5,gloves      ,dolphin     ,html/resources/sequences_IDs/B/06_gloves.jpg,html/resources/sequences_IDs/B/02_dolphin.jpg,6,2,3,2,1,1,5,2,0,67,,,,,,,,,,,,,,,,,,,,
,,,,,67,2020-07-04_18h55.59.956,retriever_ti,2020.1.3,Win32,60,Chrome,1440,900,,,,,,,,,,,,,,,,,1,,,,,,,,,,,,,,,,,,,,,,,,,,,480.790235,64,right,2.084325,wolf          ,6,1,5,1,3,480.80707,480.80707,483.29453,0,63,63,63,1,64,1,6,holdfast    ,wolf          ,html/resources/sequences_IDs/B/04_holdfast.jpg,html/resources/sequences_IDs/A/01_wolf.jpg,4,1,2,1,1,1,4,1,0,67,,,,,,,,,,,,,,,,,,,,
,,,,,67,2020-07-04_18h55.59.956,retriever_ti,2020.1.3,Win32,60,Chrome,1440,900,,,,,,,,,,,,,,,,,1,,,,,,,,,,,,,,,,,,,,,,,,,,,483.89587,65,left,0.606065,hat           ,8,8,5,1,3,483.91291,483.91291,486.40038,0,64,64,64,1,65,8,3,hat           ,radio       ,html/resources/sequences_IDs/A/08_hat.jpg,html/resources/sequences_IDs/B/10_radio.jpg,8,10,3,2,4,2,6,8,0,67,,,,,,,,,,,,,,,,,,,,
,,,,,67,2020-07-04_18h55.59.956,retriever_ti,2020.1.3,Win32,60,Chrome,1440,900,,,,,,,,,,,,,,,,,1,,,,,,,,,,,,,,,,,,,,,,,,,,,487.002015,66,left,0.793315,hat           ,8,8,2,1,3,487.03556,487.03556,489.522995,0,65,65,65,1,66,8,6,hat           ,wolf          ,html/resources/sequences_IDs/A/08_hat.jpg,html/resources/sequences_IDs/A/01_wolf.jpg,8,1,3,2,1,1,6,1,0,67,,,,,,,,,,,,,,,,,,,,
,,,,,67,2020-07-04_18h55.59.956,retriever_ti,2020.1.3,Win32,60,Chrome,1440,900,,,,,,,,,,,,,,,,,1,,,,,,,,,,,,,,,,,,,,,,,,,,,490.1243,67,right,0.924345,calculator    ,4,9,-1,0,0,490.14139,490.14139,492.628805,0,66,66,66,1,67,5,4,dolphin     ,calculator    ,html/resources/sequences_IDs/B/02_dolphin.jpg,html/resources/sequences_IDs/A/09_calculator.jpg,2,9,1,1,4,2,2,7,0,67,,,,,,,,,,,,,,,,,,,,
,,,,,67,2020-07-04_18h55.59.956,retriever_ti,2020.1.3,Win32,60,Chrome,1440,900,,,,,,,,,,,,,,,,,1,,,,,,,,,,,,,,,,,,,,,,,,,,,493.73132,68,left,1.205695,calculator    ,4,9,1,1,1,493.765065,493.765065,496.252365,0,67,67,67,1,68,4,3,calculator    ,radio       ,html/resources/sequences_IDs/A/09_calculator.jpg,html/resources/sequences_IDs/B/10_radio.jpg,9,10,4,2,4,2,7,8,0,67,,,,,,,,,,,,,,,,,,,,
,,,,,67,2020-07-04_18h55.59.956,retriever_ti,2020.1.3,Win32,60,Chrome,1440,900,,,,,,,,,,,,,,,,,1,,,,,,,,,,,,,,,,,,,,,,,,,,,497.354885,69,right,1.453845,gloves      ,7,6,1,1,1,497.38842,497.38842,499.87584,0,68,68,68,1,69,6,7,wolf          ,gloves      ,html/resources/sequences_IDs/A/01_wolf.jpg,html/resources/sequences_IDs/B/06_gloves.jpg,1,6,1,1,3,2,1,5,0,67,,,,,,,,,,,,,,,,,,,,
,,,,,67,2020-07-04_18h55.59.956,retriever_ti,2020.1.3,Win32,60,Chrome,1440,900,,,,,,,,,,,,,,,,,1,,,,,,,,,,,,,,,,,,,,,,,,,,,500.978355,70,right,1.15869,gloves      ,7,6,2,1,3,501.011945,501.011945,503.499405,0,69,69,69,1,70,5,7,dolphin     ,gloves      ,html/resources/sequences_IDs/B/02_dolphin.jpg,html/resources/sequences_IDs/B/06_gloves.jpg,2,6,1,1,3,2,2,5,0,67,,,,,,,,,,,,,,,,,,,,
,,,,,67,2020-07-04_18h55.59.956,retriever_ti,2020.1.3,Win32,60,Chrome,1440,900,,,,,,,,,,,,,,,,,1,,,,,,,,,,,,,,,,,,,,,,,,,,,504.100815,71,left,1.851965,holdfast    ,1,4,-4,0,3,504.11783,504.11783,506.605265,0,70,70,70,1,71,1,5,holdfast    ,dolphin     ,html/resources/sequences_IDs/B/04_holdfast.jpg,html/resources/sequences_IDs/B/02_dolphin.jpg,4,2,2,1,1,1,4,2,0,67,,,,,,,,,,,,,,,,,,,,
,,,,,67,2020-07-04_18h55.59.956,retriever_ti,2020.1.3,Win32,60,Chrome,1440,900,,,,,,,,,,,,,,,,,1,,,,,,,,,,,,,,,,,,,,,,,,,,,507.206955,72,right,1.10682,dolphin     ,5,2,2,1,3,507.223705,507.223705,509.711265,0,71,71,71,1,72,3,5,radio       ,dolphin     ,html/resources/sequences_IDs/B/10_radio.jpg,html/resources/sequences_IDs/B/02_dolphin.jpg,10,2,4,2,1,1,8,2,0,67,,,,,,,,,,,,,,,,,,,,
,,,,,67,2020-07-04_18h55.59.956,retriever_ti,2020.1.3,Win32,60,Chrome,1440,900,,,,,,,,,,,,,,,,,1,,,,,,,,,,,,,,,,,,,,,,,,,,,510.312745,73,left,1.52961,dolphin     ,5,2,2,1,3,510.346305,510.346305,512.83371,0,72,72,72,1,73,5,3,dolphin     ,radio       ,html/resources/sequences_IDs/B/02_dolphin.jpg,html/resources/sequences_IDs/B/10_radio.jpg,2,10,1,1,4,2,2,8,0,67,,,,,,,,,,,,,,,,,,,,
,,,,,67,2020-07-04_18h55.59.956,retriever_ti,2020.1.3,Win32,60,Chrome,1440,900,,,,,,,,,,,,,,,,,1,,,,,,,,,,,,,,,,,,,,,,,,,,,513.43529,74,right,1.244495,holdfast    ,1,4,-6,0,3,513.452185,513.452185,515.939615,0,73,73,73,1,74,7,1,gloves      ,holdfast    ,html/resources/sequences_IDs/B/06_gloves.jpg,html/resources/sequences_IDs/B/04_holdfast.jpg,6,4,3,2,2,1,5,4,0,67,,,,,,,,,,,,,,,,,,,,
,,,,,67,2020-07-04_18h55.59.956,retriever_ti,2020.1.3,Win32,60,Chrome,1440,900,,,,,,,,,,,,,,,,,1,,,,,,,,,,,,,,,,,,,,,,,,,,,516.541195,75,right,1.096115,calculator    ,4,9,-4,0,3,516.5748,516.5748,519.06215,0,74,74,74,1,75,8,4,hat           ,calculator    ,html/resources/sequences_IDs/A/08_hat.jpg,html/resources/sequences_IDs/A/09_calculator.jpg,8,9,3,2,4,2,6,7,0,67,,,,,,,,,,,,,,,,,,,,
,,,,,67,2020-07-04_18h55.59.956,retriever_ti,2020.1.3,Win32,60,Chrome,1440,900,,,,,,,,,,,,,,,,,1,,,,,,,,,,,,,,,,,,,,,,,,,,,519.66356,76,right,1.288745,dolphin     ,5,2,3,1,3,519.697305,519.697305,522.18484,0,75,75,75,1,76,2,5,camel         ,dolphin     ,html/resources/sequences_IDs/A/03_camel.jpg,html/resources/sequences_IDs/B/02_dolphin.jpg,3,2,1,1,1,1,3,2,0,67,,,,,,,,,,,,,,,,,,,,
,,,,,67,2020-07-04_18h55.59.956,retriever_ti,2020.1.3,Win32,60,Chrome,1440,900,,,,,,,,,,,,,,,,,1,,,,,,,,,,,,,,,,,,,,,,,,,,,522.78638,77,left,1.67224,dolphin     ,5,2,-1,0,1,522.803435,522.803435,525.290615,0,76,76,76,1,77,5,6,dolphin     ,wolf          ,html/resources/sequences_IDs/B/02_dolphin.jpg,html/resources/sequences_IDs/A/01_wolf.jpg,2,1,1,1,1,1,2,1,1,67,,,,,,,,,,,,,,,,,,,,
,,,,,67,2020-07-04_18h55.59.956,retriever_ti,2020.1.3,Win32,60,Chrome,1440,900,,,,,,,,,,,,,,,,,,,,,,,,,,,,,,,,,,,,,0,3.26942,,,,,,,,,,,,,,,,,,,,,,,,,,,,,,,,,,,,,,,,,0,0,0,0,1,,,,,,,,,,,,,,,
,,,,,67,2020-07-04_18h55.59.956,retriever_ti,2020.1.3,Win32,60,Chrome,1440,900,,,,,,,,,,,,,,,,,2,,,,,,,,,,,,,,,,,,,,,,,,,,,623.691495,78,right,1.1665,calculator    ,4,9,1,1,1,623.71093,623.71093,626.19828,0,0,0,0,1,78,3,4,radio       ,calculator    ,html/resources/sequences_IDs/B/10_radio.jpg,html/resources/sequences_IDs/A/09_calculator.jpg,10,9,4,2,4,2,8,7,0,67,,,,,,,,,,,,,,,,,,,,
,,,,,67,2020-07-04_18h55.59.956,retriever_ti,2020.1.3,Win32,60,Chrome,1440,900,,,,,,,,,,,,,,,,,2,,,,,,,,,,,,,,,,,,,,,,,,,,,627.300745,79,NaN,NaN,No_response,NaN,NaN,NaN,2,2,627.317645,627.317645,629.804975,0,1,1,1,1,79,1,5,holdfast    ,dolphin     ,html/resources/sequences_IDs/B/04_holdfast.jpg,html/resources/sequences_IDs/B/02_dolphin.jpg,4,2,2,1,1,1,4,2,0,67,,,,,,,,,,,,,,,,,,,,
,,,,,67,2020-07-04_18h55.59.956,retriever_ti,2020.1.3,Win32,60,Chrome,1440,900,,,,,,,,,,,,,,,,,2,,,,,,,,,,,,,,,,,,,,,,,,,,,630.907555,80,left,0.75366,wolf          ,6,1,-1,0,0,630.941235,630.941235,633.428435,0,2,2,2,1,80,6,7,wolf          ,gloves      ,html/resources/sequences_IDs/A/01_wolf.jpg,html/resources/sequences_IDs/B/06_gloves.jpg,1,6,1,1,3,2,1,5,0,67,,,,,,,,,,,,,,,,,,,,
,,,,,67,2020-07-04_18h55.59.956,retriever_ti,2020.1.3,Win32,60,Chrome,1440,900,,,,,,,,,,,,,,,,,2,,,,,,,,,,,,,,,,,,,,,,,,,,,634.53106,81,right,0.903475,hat           ,8,8,1,1,1,634.547995,634.547995,637.035415,0,3,3,3,1,81,7,8,gloves      ,hat           ,html/resources/sequences_IDs/B/06_gloves.jpg,html/resources/sequences_IDs/A/08_hat.jpg,6,8,3,2,3,2,5,6,0,67,,,,,,,,,,,,,,,,,,,,
,,,,,67,2020-07-04_18h55.59.956,retriever_ti,2020.1.3,Win32,60,Chrome,1440,900,,,,,,,,,,,,,,,,,2,,,,,,,,,,,,,,,,,,,,,,,,,,,638.13765,82,left,1.74731,dolphin     ,5,2,3,1,3,638.17157,638.17157,640.65876,0,4,4,4,1,82,5,2,dolphin     ,camel         ,html/resources/sequences_IDs/B/02_dolphin.jpg,html/resources/sequences_IDs/A/03_camel.jpg,2,3,1,1,1,1,2,3,0,67,,,,,,,,,,,,,,,,,,,,
,,,,,67,2020-07-04_18h55.59.956,retriever_ti,2020.1.3,Win32,60,Chrome,1440,900,,,,,,,,,,,,,,,,,2,,,,,,,,,,,,,,,,,,,,,,,,,,,641.26043,83,right,1.171115,calculator    ,4,9,-3,0,3,641.29407,641.29407,643.78148,0,5,5,5,1,83,7,4,gloves      ,calculator    ,html/resources/sequences_IDs/B/06_gloves.jpg,html/resources/sequences_IDs/A/09_calculator.jpg,6,9,3,2,4,2,5,7,0,67,,,,,,,,,,,,,,,,,,,,
,,,,,67,2020-07-04_18h55.59.956,retriever_ti,2020.1.3,Win32,60,Chrome,1440,900,,,,,,,,,,,,,,,,,2,,,,,,,,,,,,,,,,,,,,,,,,,,,644.38306,84,left,1.3438,dolphin     ,5,2,-2,0,3,644.416705,644.416705,646.90401,0,6,6,6,1,84,5,7,dolphin     ,gloves      ,html/resources/sequences_IDs/B/02_dolphin.jpg,html/resources/sequences_IDs/B/06_gloves.jpg,2,6,1,1,3,2,2,5,0,67,,,,,,,,,,,,,,,,,,,,
,,,,,67,2020-07-04_18h55.59.956,retriever_ti,2020.1.3,Win32,60,Chrome,1440,900,,,,,,,,,,,,,,,,,2,,,,,,,,,,,,,,,,,,,,,,,,,,,647.50536,85,left,1.48173,camel         ,2,3,-1,0,0,647.5392,647.5392,650.02659,0,7,7,7,1,85,2,3,camel         ,radio       ,html/resources/sequences_IDs/A/03_camel.jpg,html/resources/sequences_IDs/B/10_radio.jpg,3,10,1,1,4,2,3,8,0,67,,,,,,,,,,,,,,,,,,,,
,,,,,67,2020-07-04_18h55.59.956,retriever_ti,2020.1.3,Win32,60,Chrome,1440,900,,,,,,,,,,,,,,,,,2,,,,,,,,,,,,,,,,,,,,,,,,,,,651.1291,86,left,1.420845,hat           ,8,8,1,1,0,651.146075,651.146075,653.63342,0,8,8,8,1,86,8,7,hat           ,gloves      ,html/resources/sequences_IDs/A/08_hat.jpg,html/resources/sequences_IDs/B/06_gloves.jpg,8,6,3,2,3,2,6,5,1,67,,,,,,,,,,,,,,,,,,,,
,,,,,67,2020-07-04_18h55.59.956,retriever_ti,2020.1.3,Win32,60,Chrome,1440,900,,,,,,,,,,,,,,,,,2,,,,,,,,,,,,,,,,,,,,,,,,,,,654.735945,87,right,1.48208,holdfast    ,1,4,-1,0,0,654.769485,654.769485,657.256945,0,9,9,9,1,87,2,1,camel         ,holdfast    ,html/resources/sequences_IDs/A/03_camel.jpg,html/resources/sequences_IDs/B/04_holdfast.jpg,3,4,1,1,2,1,3,4,0,67,,,,,,,,,,,,,,,,,,,,
,,,,,67,2020-07-04_18h55.59.956,retriever_ti,2020.1.3,Win32,60,Chrome,1440,900,,,,,,,,,,,,,,,,,2,,,,,,,,,,,,,,,,,,,,,,,,,,,658.359465,88,left,1.14136,radio       ,3,10,2,1,3,658.393115,658.393115,660.88046,0,10,10,10,1,88,3,1,radio       ,holdfast    ,html/resources/sequences_IDs/B/10_radio.jpg,html/resources/sequences_IDs/B/04_holdfast.jpg,10,4,4,2,2,1,8,4,0,67,,,,,,,,,,,,,,,,,,,,
,,,,,67,2020-07-04_18h55.59.956,retriever_ti,2020.1.3,Win32,60,Chrome,1440,900,,,,,,,,,,,,,,,,,2,,,,,,,,,,,,,,,,,,,,,,,,,,,661.481825,89,left,1.094365,wolf          ,6,1,5,1,3,661.498935,661.498935,663.98632,0,11,11,11,1,89,6,1,wolf          ,holdfast    ,html/resources/sequences_IDs/A/01_wolf.jpg,html/resources/sequences_IDs/B/04_holdfast.jpg,1,4,1,1,2,1,1,4,0,67,,,,,,,,,,,,,,,,,,,,
,,,,,67,2020-07-04_18h55.59.956,retriever_ti,2020.1.3,Win32,60,Chrome,1440,900,,,,,,,,,,,,,,,,,2,,,,,,,,,,,,,,,,,,,,,,,,,,,664.587895,90,left,1.416715,calculator    ,4,9,-3,0,3,664.62159,664.62159,667.10892,0,12,12,12,1,90,4,7,calculator    ,gloves      ,html/resources/sequences_IDs/A/09_calculator.jpg,html/resources/sequences_IDs/B/06_gloves.jpg,9,6,4,2,3,2,7,5,0,67,,,,,,,,,,,,,,,,,,,,
,,,,,67,2020-07-04_18h55.59.956,retriever_ti,2020.1.3,Win32,60,Chrome,1440,900,,,,,,,,,,,,,,,,,2,,,,,,,,,,,,,,,,,,,,,,,,,,,667.710215,91,right,1.619645,dolphin     ,5,2,-1,0,0,667.727325,667.727325,670.214755,0,13,13,13,1,91,6,5,wolf          ,dolphin     ,html/resources/sequences_IDs/A/01_wolf.jpg,html/resources/sequences_IDs/B/02_dolphin.jpg,1,2,1,1,1,1,1,2,0,67,,,,,,,,,,,,,,,,,,,,
,,,,,67,2020-07-04_18h55.59.956,retriever_ti,2020.1.3,Win32,60,Chrome,1440,900,,,,,,,,,,,,,,,,,2,,,,,,,,,,,,,,,,,,,,,,,,,,,671.31723,92,left,1.52872,wolf          ,6,1,3,1,3,671.334145,671.334145,673.821595,0,14,14,14,1,92,6,3,wolf          ,radio       ,html/resources/sequences_IDs/A/01_wolf.jpg,html/resources/sequences_IDs/B/10_radio.jpg,1,10,1,1,4,2,1,8,0,67,,,,,,,,,,,,,,,,,,,,
,,,,,67,2020-07-04_18h55.59.956,retriever_ti,2020.1.3,Win32,60,Chrome,1440,900,,,,,,,,,,,,,,,,,2,,,,,,,,,,,,,,,,,,,,,,,,,,,674.423395,93,left,1.73399,gloves      ,7,6,4,1,3,674.440085,674.440085,676.927465,0,15,15,15,1,93,7,3,gloves      ,radio       ,html/resources/sequences_IDs/B/06_gloves.jpg,html/resources/sequences_IDs/B/10_radio.jpg,6,10,3,2,4,2,5,8,0,67,,,,,,,,,,,,,,,,,,,,
,,,,,67,2020-07-04_18h55.59.956,retriever_ti,2020.1.3,Win32,60,Chrome,1440,900,,,,,,,,,,,,,,,,,2,,,,,,,,,,,,,,,,,,,,,,,,,,,677.529455,94,right,0.682685,hat           ,8,8,7,1,3,677.546105,677.546105,680.03335,0,16,16,16,1,94,1,8,holdfast    ,hat           ,html/resources/sequences_IDs/B/04_holdfast.jpg,html/resources/sequences_IDs/A/08_hat.jpg,4,8,2,1,3,2,4,6,0,67,,,,,,,,,,,,,,,,,,,,
,,,,,67,2020-07-04_18h55.59.956,retriever_ti,2020.1.3,Win32,60,Chrome,1440,900,,,,,,,,,,,,,,,,,2,,,,,,,,,,,,,,,,,,,,,,,,,,,680.63493,95,right,0.79271,calculator    ,4,9,-4,0,3,680.65184,680.65184,683.139225,0,17,17,17,1,95,8,4,hat           ,calculator    ,html/resources/sequences_IDs/A/08_hat.jpg,html/resources/sequences_IDs/A/09_calculator.jpg,8,9,3,2,4,2,6,7,0,67,,,,,,,,,,,,,,,,,,,,
,,,,,67,2020-07-04_18h55.59.956,retriever_ti,2020.1.3,Win32,60,Chrome,1440,900,,,,,,,,,,,,,,,,,2,,,,,,,,,,,,,,,,,,,,,,,,,,,683.74063,96,left,1.98689,wolf          ,6,1,-1,0,0,683.774445,683.774445,686.261805,0,18,18,18,1,96,6,7,wolf          ,gloves      ,html/resources/sequences_IDs/A/01_wolf.jpg,html/resources/sequences_IDs/B/06_gloves.jpg,1,6,1,1,3,2,1,5,0,67,,,,,,,,,,,,,,,,,,,,
,,,,,67,2020-07-04_18h55.59.956,retriever_ti,2020.1.3,Win32,60,Chrome,1440,900,,,,,,,,,,,,,,,,,2,,,,,,,,,,,,,,,,,,,,,,,,,,,687.36429,97,left,1.75745,hat           ,8,8,1,1,1,687.397865,687.397865,689.88535,0,19,19,19,1,97,8,7,hat           ,gloves      ,html/resources/sequences_IDs/A/08_hat.jpg,html/resources/sequences_IDs/B/06_gloves.jpg,8,6,3,2,3,2,6,5,0,67,,,,,,,,,,,,,,,,,,,,
,,,,,67,2020-07-04_18h55.59.956,retriever_ti,2020.1.3,Win32,60,Chrome,1440,900,,,,,,,,,,,,,,,,,2,,,,,,,,,,,,,,,,,,,,,,,,,,,690.987795,98,left,1.485755,hat           ,8,8,5,1,3,691.021565,691.021565,693.508865,0,20,20,20,1,98,8,3,hat           ,radio       ,html/resources/sequences_IDs/A/08_hat.jpg,html/resources/sequences_IDs/B/10_radio.jpg,8,10,3,2,4,2,6,8,0,67,,,,,,,,,,,,,,,,,,,,
,,,,,67,2020-07-04_18h55.59.956,retriever_ti,2020.1.3,Win32,60,Chrome,1440,900,,,,,,,,,,,,,,,,,2,,,,,,,,,,,,,,,,,,,,,,,,,,,694.110285,99,right,0.8371,camel         ,2,3,1,1,0,694.144,694.144,696.631415,0,21,21,21,1,99,1,2,holdfast    ,camel         ,html/resources/sequences_IDs/B/04_holdfast.jpg,html/resources/sequences_IDs/A/03_camel.jpg,4,3,2,1,1,1,4,3,1,67,,,,,,,,,,,,,,,,,,,,
,,,,,67,2020-07-04_18h55.59.956,retriever_ti,2020.1.3,Win32,60,Chrome,1440,900,,,,,,,,,,,,,,,,,2,,,,,,,,,,,,,,,,,,,,,,,,,,,697.733925,100,right,1.388305,radio       ,3,10,1,1,1,697.767585,697.767585,700.254975,0,22,22,22,1,100,2,3,camel         ,radio       ,html/resources/sequences_IDs/A/03_camel.jpg,html/resources/sequences_IDs/B/10_radio.jpg,3,10,1,1,4,2,3,8,0,67,,,,,,,,,,,,,,,,,,,,
,,,,,67,2020-07-04_18h55.59.956,retriever_ti,2020.1.3,Win32,60,Chrome,1440,900,,,,,,,,,,,,,,,,,2,,,,,,,,,,,,,,,,,,,,,,,,,,,701.357425,101,left,1.262005,radio       ,3,10,1,1,0,701.39111,701.39111,703.878445,0,23,23,23,1,101,3,2,radio       ,camel         ,html/resources/sequences_IDs/B/10_radio.jpg,html/resources/sequences_IDs/A/03_camel.jpg,10,3,4,2,1,1,8,3,1,67,,,,,,,,,,,,,,,,,,,,
,,,,,67,2020-07-04_18h55.59.956,retriever_ti,2020.1.3,Win32,60,Chrome,1440,900,,,,,,,,,,,,,,,,,2,,,,,,,,,,,,,,,,,,,,,,,,,,,704.98099,102,left,2.382525,calculator    ,4,9,-2,0,3,705.014585,705.014585,707.502,0,24,24,24,1,102,4,6,calculator    ,wolf          ,html/resources/sequences_IDs/A/09_calculator.jpg,html/resources/sequences_IDs/A/01_wolf.jpg,9,1,4,2,1,1,7,1,0,67,,,,,,,,,,,,,,,,,,,,
,,,,,67,2020-07-04_18h55.59.956,retriever_ti,2020.1.3,Win32,60,Chrome,1440,900,,,,,,,,,,,,,,,,,2,,,,,,,,,,,,,,,,,,,,,,,,,,,708.103355,103,right,1.338475,gloves      ,7,6,-1,0,0,708.137125,708.137125,710.624585,0,25,25,25,1,103,8,7,hat           ,gloves      ,html/resources/sequences_IDs/A/08_hat.jpg,html/resources/sequences_IDs/B/06_gloves.jpg,8,6,3,2,3,2,6,5,0,67,,,,,,,,,,,,,,,,,,,,
,,,,,67,2020-07-04_18h55.59.956,retriever_ti,2020.1.3,Win32,60,Chrome,1440,900,,,,,,,,,,,,,,,,,2,,,,,,,,,,,,,,,,,,,,,,,,,,,711.727095,104,left,1.98053,radio       ,3,10,1,1,1,711.76067,711.76067,714.247995,0,26,26,26,1,104,3,2,radio       ,camel         ,html/resources/sequences_IDs/B/10_radio.jpg,html/resources/sequences_IDs/A/03_camel.jpg,10,3,4,2,1,1,8,3,0,67,,,,,,,,,,,,,,,,,,,,
,,,,,67,2020-07-04_18h55.59.956,retriever_ti,2020.1.3,Win32,60,Chrome,1440,900,,,,,,,,,,,,,,,,,2,,,,,,,,,,,,,,,,,,,,,,,,,,,715.350605,105,NaN,NaN,No_response,NaN,NaN,NaN,2,2,715.367435,715.367435,717.85494,0,27,27,27,1,105,1,6,holdfast    ,wolf          ,html/resources/sequences_IDs/B/04_holdfast.jpg,html/resources/sequences_IDs/A/01_wolf.jpg,4,1,2,1,1,1,4,1,0,67,,,,,,,,,,,,,,,,,,,,
,,,,,67,2020-07-04_18h55.59.956,retriever_ti,2020.1.3,Win32,60,Chrome,1440,900,,,,,,,,,,,,,,,,,2,,,,,,,,,,,,,,,,,,,,,,,,,,,718.957435,106,right,1.44949,wolf          ,6,1,1,1,0,718.991025,718.991025,721.47851,0,28,28,28,1,106,5,6,dolphin     ,wolf          ,html/resources/sequences_IDs/B/02_dolphin.jpg,html/resources/sequences_IDs/A/01_wolf.jpg,2,1,1,1,1,1,2,1,1,67,,,,,,,,,,,,,,,,,,,,
,,,,,67,2020-07-04_18h55.59.956,retriever_ti,2020.1.3,Win32,60,Chrome,1440,900,,,,,,,,,,,,,,,,,2,,,,,,,,,,,,,,,,,,,,,,,,,,,722.580945,107,right,1.029015,calculator    ,4,9,2,1,3,722.59794,722.59794,725.085255,0,29,29,29,1,107,2,4,camel         ,calculator    ,html/resources/sequences_IDs/A/03_camel.jpg,html/resources/sequences_IDs/A/09_calculator.jpg,3,9,1,1,4,2,3,7,0,67,,,,,,,,,,,,,,,,,,,,
,,,,,67,2020-07-04_18h55.59.956,retriever_ti,2020.1.3,Win32,60,Chrome,1440,900,,,,,,,,,,,,,,,,,2,,,,,,,,,,,,,,,,,,,,,,,,,,,725.686685,108,left,1.6284,dolphin     ,5,2,4,1,3,725.70369,725.70369,728.191245,0,30,30,30,1,108,5,1,dolphin     ,holdfast    ,html/resources/sequences_IDs/B/02_dolphin.jpg,html/resources/sequences_IDs/B/04_holdfast.jpg,2,4,1,1,2,1,2,4,0,67,,,,,,,,,,,,,,,,,,,,
,,,,,67,2020-07-04_18h55.59.956,retriever_ti,2020.1.3,Win32,60,Chrome,1440,900,,,,,,,,,,,,,,,,,2,,,,,,,,,,,,,,,,,,,,,,,,,,,728.792725,109,left,0.742645,calculator    ,4,9,-4,0,3,728.82629,728.82629,731.313595,0,31,31,31,1,109,4,8,calculator    ,hat           ,html/resources/sequences_IDs/A/09_calculator.jpg,html/resources/sequences_IDs/A/08_hat.jpg,9,8,4,2,3,2,7,6,0,67,,,,,,,,,,,,,,,,,,,,
,,,,,67,2020-07-04_18h55.59.956,retriever_ti,2020.1.3,Win32,60,Chrome,1440,900,,,,,,,,,,,,,,,,,2,,,,,,,,,,,,,,,,,,,,,,,,,,,731.91503,110,left,0.766365,calculator    ,4,9,-1,0,1,731.93219,731.93219,734.419565,0,32,32,32,1,110,4,5,calculator    ,dolphin     ,html/resources/sequences_IDs/A/09_calculator.jpg,html/resources/sequences_IDs/B/02_dolphin.jpg,9,2,4,2,1,1,7,2,1,67,,,,,,,,,,,,,,,,,,,,
,,,,,67,2020-07-04_18h55.59.956,retriever_ti,2020.1.3,Win32,60,Chrome,1440,900,,,,,,,,,,,,,,,,,2,,,,,,,,,,,,,,,,,,,,,,,,,,,735.522135,111,right,1.19938,wolf          ,6,1,4,1,3,735.555775,735.555775,738.043075,0,33,33,33,1,111,2,6,camel         ,wolf          ,html/resources/sequences_IDs/A/03_camel.jpg,html/resources/sequences_IDs/A/01_wolf.jpg,3,1,1,1,1,1,3,1,0,67,,,,,,,,,,,,,,,,,,,,
,,,,,67,2020-07-04_18h55.59.956,retriever_ti,2020.1.3,Win32,60,Chrome,1440,900,,,,,,,,,,,,,,,,,2,,,,,,,,,,,,,,,,,,,,,,,,,,,738.644765,112,left,1.079385,camel         ,2,3,1,1,1,738.66175,738.66175,741.148995,0,34,34,34,1,112,2,1,camel         ,holdfast    ,html/resources/sequences_IDs/A/03_camel.jpg,html/resources/sequences_IDs/B/04_holdfast.jpg,3,4,1,1,2,1,3,4,0,67,,,,,,,,,,,,,,,,,,,,
,,,,,67,2020-07-04_18h55.59.956,retriever_ti,2020.1.3,Win32,60,Chrome,1440,900,,,,,,,,,,,,,,,,,2,,,,,,,,,,,,,,,,,,,,,,,,,,,742.25128,113,right,1.245165,camel         ,2,3,1,1,1,742.26845,742.26845,744.755845,0,35,35,35,1,113,1,2,holdfast    ,camel         ,html/resources/sequences_IDs/B/04_holdfast.jpg,html/resources/sequences_IDs/A/03_camel.jpg,4,3,2,1,1,1,4,3,0,67,,,,,,,,,,,,,,,,,,,,
,,,,,67,2020-07-04_18h55.59.956,retriever_ti,2020.1.3,Win32,60,Chrome,1440,900,,,,,,,,,,,,,,,,,2,,,,,,,,,,,,,,,,,,,,,,,,,,,745.858355,114,right,1.11547,calculator    ,4,9,1,1,0,745.875245,745.875245,748.36263,0,36,36,36,1,114,3,4,radio       ,calculator    ,html/resources/sequences_IDs/B/10_radio.jpg,html/resources/sequences_IDs/A/09_calculator.jpg,10,9,4,2,4,2,8,7,1,67,,,,,,,,,,,,,,,,,,,,
,,,,,67,2020-07-04_18h55.59.956,retriever_ti,2020.1.3,Win32,60,Chrome,1440,900,,,,,,,,,,,,,,,,,2,,,,,,,,,,,,,,,,,,,,,,,,,,,749.46513,115,NaN,NaN,No_response,NaN,NaN,NaN,2,2,749.48206,749.48206,751.969485,0,37,37,37,1,115,6,8,wolf          ,hat           ,html/resources/sequences_IDs/A/01_wolf.jpg,html/resources/sequences_IDs/A/08_hat.jpg,1,8,1,1,3,2,1,6,0,67,,,,,,,,,,,,,,,,,,,,
,,,,,67,2020-07-04_18h55.59.956,retriever_ti,2020.1.3,Win32,60,Chrome,1440,900,,,,,,,,,,,,,,,,,2,,,,,,,,,,,,,,,,,,,,,,,,,,,753.07203,116,left,0.6283,hat           ,8,8,6,1,3,753.08893,753.08893,755.576255,0,38,38,38,1,116,8,2,hat           ,camel         ,html/resources/sequences_IDs/A/08_hat.jpg,html/resources/sequences_IDs/A/03_camel.jpg,8,3,3,2,1,1,6,3,0,67,,,,,,,,,,,,,,,,,,,,
,,,,,67,2020-07-04_18h55.59.956,retriever_ti,2020.1.3,Win32,60,Chrome,1440,900,,,,,,,,,,,,,,,,,2,,,,,,,,,,,,,,,,,,,,,,,,,,,756.177625,117,right,1.527435,radio       ,3,10,-1,0,0,756.19563,756.19563,758.698845,0,39,39,39,1,117,4,3,calculator    ,radio       ,html/resources/sequences_IDs/A/09_calculator.jpg,html/resources/sequences_IDs/B/10_radio.jpg,9,10,4,2,4,2,7,8,0,67,,,,,,,,,,,,,,,,,,,,
,,,,,67,2020-07-04_18h55.59.956,retriever_ti,2020.1.3,Win32,60,Chrome,1440,900,,,,,,,,,,,,,,,,,2,,,,,,,,,,,,,,,,,,,,,,,,,,,759.801405,118,right,1.52922,hat           ,8,8,3,1,3,759.818265,759.818265,762.30561,0,40,40,40,1,118,5,8,dolphin     ,hat           ,html/resources/sequences_IDs/B/02_dolphin.jpg,html/resources/sequences_IDs/A/08_hat.jpg,2,8,1,1,3,2,2,6,0,67,,,,,,,,,,,,,,,,,,,,
,,,,,67,2020-07-04_18h55.59.956,retriever_ti,2020.1.3,Win32,60,Chrome,1440,900,,,,,,,,,,,,,,,,,2,,,,,,,,,,,,,,,,,,,,,,,,,,,762.90727,119,right,0.97554,calculator    ,4,9,-1,0,0,762.94092,762.94092,765.428225,0,41,41,41,1,119,5,4,dolphin     ,calculator    ,html/resources/sequences_IDs/B/02_dolphin.jpg,html/resources/sequences_IDs/A/09_calculator.jpg,2,9,1,1,4,2,2,7,0,67,,,,,,,,,,,,,,,,,,,,
,,,,,67,2020-07-04_18h55.59.956,retriever_ti,2020.1.3,Win32,60,Chrome,1440,900,,,,,,,,,,,,,,,,,2,,,,,,,,,,,,,,,,,,,,,,,,,,,766.53083,120,right,2.109965,dolphin     ,5,2,1,1,1,766.547635,766.547635,769.035045,0,42,42,42,1,120,4,5,calculator    ,dolphin     ,html/resources/sequences_IDs/A/09_calculator.jpg,html/resources/sequences_IDs/B/02_dolphin.jpg,9,2,4,2,1,1,7,2,0,67,,,,,,,,,,,,,,,,,,,,
,,,,,67,2020-07-04_18h55.59.956,retriever_ti,2020.1.3,Win32,60,Chrome,1440,900,,,,,,,,,,,,,,,,,2,,,,,,,,,,,,,,,,,,,,,,,,,,,770.137385,121,right,1.239905,gloves      ,7,6,6,1,3,770.1712,770.1712,772.658585,0,43,43,43,1,121,1,7,holdfast    ,gloves      ,html/resources/sequences_IDs/B/04_holdfast.jpg,html/resources/sequences_IDs/B/06_gloves.jpg,4,6,2,1,3,2,4,5,0,67,,,,,,,,,,,,,,,,,,,,
,,,,,67,2020-07-04_18h55.59.956,retriever_ti,2020.1.3,Win32,60,Chrome,1440,900,,,,,,,,,,,,,,,,,2,,,,,,,,,,,,,,,,,,,,,,,,,,,773.260165,122,left,1.37434,gloves      ,7,6,5,1,3,773.277045,773.277045,775.76446,0,44,44,44,1,122,7,2,gloves      ,camel         ,html/resources/sequences_IDs/B/06_gloves.jpg,html/resources/sequences_IDs/A/03_camel.jpg,6,3,3,2,1,1,5,3,0,67,,,,,,,,,,,,,,,,,,,,
,,,,,67,2020-07-04_18h55.59.956,retriever_ti,2020.1.3,Win32,60,Chrome,1440,900,,,,,,,,,,,,,,,,,2,,,,,,,,,,,,,,,,,,,,,,,,,,,776.36603,123,left,0.955065,wolf          ,6,1,4,1,3,776.38286,776.38286,778.870345,0,45,45,45,1,123,6,2,wolf          ,camel         ,html/resources/sequences_IDs/A/01_wolf.jpg,html/resources/sequences_IDs/A/03_camel.jpg,1,3,1,1,1,1,1,3,0,67,,,,,,,,,,,,,,,,,,,,
,,,,,67,2020-07-04_18h55.59.956,retriever_ti,2020.1.3,Win32,60,Chrome,1440,900,,,,,,,,,,,,,,,,,2,,,,,,,,,,,,,,,,,,,,,,,,,,,779.471685,124,right,1.327595,hat           ,8,8,5,1,3,779.48874,779.48874,781.976215,0,46,46,46,1,124,3,8,radio       ,hat           ,html/resources/sequences_IDs/B/10_radio.jpg,html/resources/sequences_IDs/A/08_hat.jpg,10,8,4,2,3,2,8,6,0,67,,,,,,,,,,,,,,,,,,,,
,,,,,67,2020-07-04_18h55.59.956,retriever_ti,2020.1.3,Win32,60,Chrome,1440,900,,,,,,,,,,,,,,,,,2,,,,,,,,,,,,,,,,,,,,,,,,,,,782.5778,125,right,2.0402,wolf          ,6,1,-1,0,0,782.59468,782.59468,785.082085,0,47,47,47,1,125,7,6,gloves      ,wolf          ,html/resources/sequences_IDs/B/06_gloves.jpg,html/resources/sequences_IDs/A/01_wolf.jpg,6,1,3,2,1,1,5,1,0,67,,,,,,,,,,,,,,,,,,,,
,,,,,67,2020-07-04_18h55.59.956,retriever_ti,2020.1.3,Win32,60,Chrome,1440,900,,,,,,,,,,,,,,,,,2,,,,,,,,,,,,,,,,,,,,,,,,,,,786.184365,126,left,0.994015,calculator    ,4,9,-1,0,0,786.201605,786.201605,788.68889,0,48,48,48,1,126,4,5,calculator    ,dolphin     ,html/resources/sequences_IDs/A/09_calculator.jpg,html/resources/sequences_IDs/B/02_dolphin.jpg,9,2,4,2,1,1,7,2,0,67,,,,,,,,,,,,,,,,,,,,
,,,,,67,2020-07-04_18h55.59.956,retriever_ti,2020.1.3,Win32,60,Chrome,1440,900,,,,,,,,,,,,,,,,,2,,,,,,,,,,,,,,,,,,,,,,,,,,,789.791415,127,left,1.545,gloves      ,7,6,6,1,3,789.825055,789.825055,792.312415,0,49,49,49,1,127,7,1,gloves      ,holdfast    ,html/resources/sequences_IDs/B/06_gloves.jpg,html/resources/sequences_IDs/B/04_holdfast.jpg,6,4,3,2,2,1,5,4,0,67,,,,,,,,,,,,,,,,,,,,
,,,,,67,2020-07-04_18h55.59.956,retriever_ti,2020.1.3,Win32,60,Chrome,1440,900,,,,,,,,,,,,,,,,,2,,,,,,,,,,,,,,,,,,,,,,,,,,,792.913985,128,right,1.73245,dolphin     ,5,2,-1,0,0,792.94774,792.94774,795.43502,0,50,50,50,1,128,6,5,wolf          ,dolphin     ,html/resources/sequences_IDs/A/01_wolf.jpg,html/resources/sequences_IDs/B/02_dolphin.jpg,1,2,1,1,1,1,1,2,0,67,,,,,,,,,,,,,,,,,,,,
,,,,,67,2020-07-04_18h55.59.956,retriever_ti,2020.1.3,Win32,60,Chrome,1440,900,,,,,,,,,,,,,,,,,2,,,,,,,,,,,,,,,,,,,,,,,,,,,796.53757,129,left,1.08137,calculator    ,4,9,2,1,3,796.571195,796.571195,799.058525,0,51,51,51,1,129,4,2,calculator    ,camel         ,html/resources/sequences_IDs/A/09_calculator.jpg,html/resources/sequences_IDs/A/03_camel.jpg,9,3,4,2,1,1,7,3,0,67,,,,,,,,,,,,,,,,,,,,
,,,,,67,2020-07-04_18h55.59.956,retriever_ti,2020.1.3,Win32,60,Chrome,1440,900,,,,,,,,,,,,,,,,,2,,,,,,,,,,,,,,,,,,,,,,,,,,,799.659775,130,left,2.251475,holdfast    ,1,4,-1,0,0,799.693605,799.693605,802.181045,0,52,52,52,1,130,1,2,holdfast    ,camel         ,html/resources/sequences_IDs/B/04_holdfast.jpg,html/resources/sequences_IDs/A/03_camel.jpg,4,3,2,1,1,1,4,3,0,67,,,,,,,,,,,,,,,,,,,,
,,,,,67,2020-07-04_18h55.59.956,retriever_ti,2020.1.3,Win32,60,Chrome,1440,900,,,,,,,,,,,,,,,,,2,,,,,,,,,,,,,,,,,,,,,,,,,,,803.28368,131,NaN,NaN,No_response,NaN,NaN,NaN,2,2,803.300555,803.300555,805.787925,0,53,53,53,1,131,3,4,radio       ,calculator    ,html/resources/sequences_IDs/B/10_radio.jpg,html/resources/sequences_IDs/A/09_calculator.jpg,10,9,4,2,4,2,8,7,0,67,,,,,,,,,,,,,,,,,,,,
,,,,,67,2020-07-04_18h55.59.956,retriever_ti,2020.1.3,Win32,60,Chrome,1440,900,,,,,,,,,,,,,,,,,2,,,,,,,,,,,,,,,,,,,,,,,,,,,806.89052,132,right,1.614985,hat           ,8,8,1,1,1,806.924015,806.924015,809.411495,0,54,54,54,1,132,7,8,gloves      ,hat           ,html/resources/sequences_IDs/B/06_gloves.jpg,html/resources/sequences_IDs/A/08_hat.jpg,6,8,3,2,3,2,5,6,0,67,,,,,,,,,,,,,,,,,,,,
,,,,,67,2020-07-04_18h55.59.956,retriever_ti,2020.1.3,Win32,60,Chrome,1440,900,,,,,,,,,,,,,,,,,2,,,,,,,,,,,,,,,,,,,,,,,,,,,810.513995,133,right,1.934615,wolf          ,6,1,3,1,3,810.531175,810.531175,813.01838,0,55,55,55,1,133,3,6,radio       ,wolf          ,html/resources/sequences_IDs/B/10_radio.jpg,html/resources/sequences_IDs/A/01_wolf.jpg,10,1,4,2,1,1,8,1,0,67,,,,,,,,,,,,,,,,,,,,
,,,,,67,2020-07-04_18h55.59.956,retriever_ti,2020.1.3,Win32,60,Chrome,1440,900,,,,,,,,,,,,,,,,,2,,,,,,,,,,,,,,,,,,,,,,,,,,,813.619645,134,right,1.44951,dolphin     ,5,2,3,1,3,813.6535,813.6535,816.14083,0,56,56,56,1,134,2,5,camel         ,dolphin     ,html/resources/sequences_IDs/A/03_camel.jpg,html/resources/sequences_IDs/B/02_dolphin.jpg,3,2,1,1,1,1,3,2,0,67,,,,,,,,,,,,,,,,,,,,
,,,,,67,2020-07-04_18h55.59.956,retriever_ti,2020.1.3,Win32,60,Chrome,1440,900,,,,,,,,,,,,,,,,,2,,,,,,,,,,,,,,,,,,,,,,,,,,,816.742335,135,right,0.970515,hat           ,8,8,6,1,3,816.759285,816.759285,819.24661,0,57,57,57,1,135,2,8,camel         ,hat           ,html/resources/sequences_IDs/A/03_camel.jpg,html/resources/sequences_IDs/A/08_hat.jpg,3,8,1,1,3,2,3,6,0,67,,,,,,,,,,,,,,,,,,,,
,,,,,67,2020-07-04_18h55.59.956,retriever_ti,2020.1.3,Win32,60,Chrome,1440,900,,,,,,,,,,,,,,,,,2,,,,,,,,,,,,,,,,,,,,,,,,,,,819.84811,136,left,0.969265,hat           ,8,8,2,1,3,819.881885,819.881885,822.36929,0,58,58,58,1,136,8,6,hat           ,wolf          ,html/resources/sequences_IDs/A/08_hat.jpg,html/resources/sequences_IDs/A/01_wolf.jpg,8,1,3,2,1,1,6,1,0,67,,,,,,,,,,,,,,,,,,,,
,,,,,67,2020-07-04_18h55.59.956,retriever_ti,2020.1.3,Win32,60,Chrome,1440,900,,,,,,,,,,,,,,,,,2,,,,,,,,,,,,,,,,,,,,,,,,,,,822.97093,137,right,1.27245,wolf          ,6,1,-1,0,0,822.98788,822.98788,825.475165,0,59,59,59,1,137,7,6,gloves      ,wolf          ,html/resources/sequences_IDs/B/06_gloves.jpg,html/resources/sequences_IDs/A/01_wolf.jpg,6,1,3,2,1,1,5,1,0,67,,,,,,,,,,,,,,,,,,,,
,,,,,67,2020-07-04_18h55.59.956,retriever_ti,2020.1.3,Win32,60,Chrome,1440,900,,,,,,,,,,,,,,,,,2,,,,,,,,,,,,,,,,,,,,,,,,,,,826.577745,138,left,0.978635,radio       ,3,10,-4,0,3,826.61128,826.61128,829.098675,0,60,60,60,1,138,3,7,radio       ,gloves      ,html/resources/sequences_IDs/B/10_radio.jpg,html/resources/sequences_IDs/B/06_gloves.jpg,10,6,4,2,3,2,8,5,0,67,,,,,,,,,,,,,,,,,,,,
,,,,,67,2020-07-04_18h55.59.956,retriever_ti,2020.1.3,Win32,60,Chrome,1440,900,,,,,,,,,,,,,,,,,2,,,,,,,,,,,,,,,,,,,,,,,,,,,829.700005,139,left,1.05467,dolphin     ,5,2,2,1,3,829.717155,829.717155,832.20449,0,61,61,61,1,139,5,3,dolphin     ,radio       ,html/resources/sequences_IDs/B/02_dolphin.jpg,html/resources/sequences_IDs/B/10_radio.jpg,2,10,1,1,4,2,2,8,0,67,,,,,,,,,,,,,,,,,,,,
,,,,,67,2020-07-04_18h55.59.956,retriever_ti,2020.1.3,Win32,60,Chrome,1440,900,,,,,,,,,,,,,,,,,2,,,,,,,,,,,,,,,,,,,,,,,,,,,832.806115,140,left,1.23559,dolphin     ,5,2,-1,0,0,832.83965,832.83965,835.327105,0,62,62,62,1,140,5,6,dolphin     ,wolf          ,html/resources/sequences_IDs/B/02_dolphin.jpg,html/resources/sequences_IDs/A/01_wolf.jpg,2,1,1,1,1,1,2,1,0,67,,,,,,,,,,,,,,,,,,,,
,,,,,67,2020-07-04_18h55.59.956,retriever_ti,2020.1.3,Win32,60,Chrome,1440,900,,,,,,,,,,,,,,,,,2,,,,,,,,,,,,,,,,,,,,,,,,,,,836.42963,141,right,0.892475,radio       ,3,10,2,1,3,836.44651,836.44651,838.93399,0,63,63,63,1,141,1,3,holdfast    ,radio       ,html/resources/sequences_IDs/B/04_holdfast.jpg,html/resources/sequences_IDs/B/10_radio.jpg,4,10,2,1,4,2,4,8,0,67,,,,,,,,,,,,,,,,,,,,
,,,,,67,2020-07-04_18h55.59.956,retriever_ti,2020.1.3,Win32,60,Chrome,1440,900,,,,,,,,,,,,,,,,,2,,,,,,,,,,,,,,,,,,,,,,,,,,,839.53536,142,right,1.1288,wolf          ,6,1,-1,0,1,839.552455,839.552455,842.03976,0,64,64,64,1,142,7,6,gloves      ,wolf          ,html/resources/sequences_IDs/B/06_gloves.jpg,html/resources/sequences_IDs/A/01_wolf.jpg,6,1,3,2,1,1,5,1,1,67,,,,,,,,,,,,,,,,,,,,
,,,,,67,2020-07-04_18h55.59.956,retriever_ti,2020.1.3,Win32,60,Chrome,1440,900,,,,,,,,,,,,,,,,,2,,,,,,,,,,,,,,,,,,,,,,,,,,,843.142345,143,right,1.173775,radio       ,3,10,-1,0,0,843.159225,843.159225,845.646695,0,65,65,65,1,143,4,3,calculator    ,radio       ,html/resources/sequences_IDs/A/09_calculator.jpg,html/resources/sequences_IDs/B/10_radio.jpg,9,10,4,2,4,2,7,8,0,67,,,,,,,,,,,,,,,,,,,,
,,,,,67,2020-07-04_18h55.59.956,retriever_ti,2020.1.3,Win32,60,Chrome,1440,900,,,,,,,,,,,,,,,,,2,,,,,,,,,,,,,,,,,,,,,,,,,,,846.749195,144,right,0.722825,calculator    ,4,9,-1,0,0,846.766065,846.766065,849.253475,0,66,66,66,1,144,5,4,dolphin     ,calculator    ,html/resources/sequences_IDs/B/02_dolphin.jpg,html/resources/sequences_IDs/A/09_calculator.jpg,2,9,1,1,4,2,2,7,0,67,,,,,,,,,,,,,,,,,,,,
,,,,,67,2020-07-04_18h55.59.956,retriever_ti,2020.1.3,Win32,60,Chrome,1440,900,,,,,,,,,,,,,,,,,2,,,,,,,,,,,,,,,,,,,,,,,,,,,850.355795,145,left,1.213775,calculator    ,4,9,3,1,3,850.37282,850.37282,852.86026,0,67,67,67,1,145,4,1,calculator    ,holdfast    ,html/resources/sequences_IDs/A/09_calculator.jpg,html/resources/sequences_IDs/B/04_holdfast.jpg,9,4,4,2,2,1,7,4,0,67,,,,,,,,,,,,,,,,,,,,
,,,,,67,2020-07-04_18h55.59.956,retriever_ti,2020.1.3,Win32,60,Chrome,1440,900,,,,,,,,,,,,,,,,,2,,,,,,,,,,,,,,,,,,,,,,,,,,,853.46159,146,right,0.873685,calculator    ,4,9,3,1,3,853.495405,853.495405,855.982965,0,68,68,68,1,146,1,4,holdfast    ,calculator    ,html/resources/sequences_IDs/B/04_holdfast.jpg,html/resources/sequences_IDs/A/09_calculator.jpg,4,9,2,1,4,2,4,7,0,67,,,,,,,,,,,,,,,,,,,,
,,,,,67,2020-07-04_18h55.59.956,retriever_ti,2020.1.3,Win32,60,Chrome,1440,900,,,,,,,,,,,,,,,,,2,,,,,,,,,,,,,,,,,,,,,,,,,,,856.584415,147,right,1.400155,calculator    ,4,9,-2,0,3,856.618095,856.618095,859.10546,0,69,69,69,1,147,6,4,wolf          ,calculator    ,html/resources/sequences_IDs/A/01_wolf.jpg,html/resources/sequences_IDs/A/09_calculator.jpg,1,9,1,1,4,2,1,7,0,67,,,,,,,,,,,,,,,,,,,,
,,,,,67,2020-07-04_18h55.59.956,retriever_ti,2020.1.3,Win32,60,Chrome,1440,900,,,,,,,,,,,,,,,,,2,,,,,,,,,,,,,,,,,,,,,,,,,,,859.706775,148,right,0.91685,dolphin     ,5,2,-2,0,3,859.740745,859.740745,862.228035,0,70,70,70,1,148,7,5,gloves      ,dolphin     ,html/resources/sequences_IDs/B/06_gloves.jpg,html/resources/sequences_IDs/B/02_dolphin.jpg,6,2,3,2,1,1,5,2,0,67,,,,,,,,,,,,,,,,,,,,
,,,,,67,2020-07-04_18h55.59.956,retriever_ti,2020.1.3,Win32,60,Chrome,1440,900,,,,,,,,,,,,,,,,,2,,,,,,,,,,,,,,,,,,,,,,,,,,,862.829585,149,right,1.38848,dolphin     ,5,2,-3,0,3,862.863165,862.863165,865.3506,0,71,71,71,1,149,8,5,hat           ,dolphin     ,html/resources/sequences_IDs/A/08_hat.jpg,html/resources/sequences_IDs/B/02_dolphin.jpg,8,2,3,2,1,1,6,2,0,67,,,,,,,,,,,,,,,,,,,,
,,,,,67,2020-07-04_18h55.59.956,retriever_ti,2020.1.3,Win32,60,Chrome,1440,900,,,,,,,,,,,,,,,,,2,,,,,,,,,,,,,,,,,,,,,,,,,,,865.951955,150,left,1.62573,dolphin     ,5,2,-1,0,0,865.96914,865.96914,868.45648,0,72,72,72,1,150,5,6,dolphin     ,wolf          ,html/resources/sequences_IDs/B/02_dolphin.jpg,html/resources/sequences_IDs/A/01_wolf.jpg,2,1,1,1,1,1,2,1,0,67,,,,,,,,,,,,,,,,,,,,
,,,,,67,2020-07-04_18h55.59.956,retriever_ti,2020.1.3,Win32,60,Chrome,1440,900,,,,,,,,,,,,,,,,,2,,,,,,,,,,,,,,,,,,,,,,,,,,,869.5591,151,left,1.578885,radio       ,3,10,1,1,1,869.57579,869.57579,872.063285,0,73,73,73,1,151,3,2,radio       ,camel         ,html/resources/sequences_IDs/B/10_radio.jpg,html/resources/sequences_IDs/A/03_camel.jpg,10,3,4,2,1,1,8,3,0,67,,,,,,,,,,,,,,,,,,,,
,,,,,67,2020-07-04_18h55.59.956,retriever_ti,2020.1.3,Win32,60,Chrome,1440,900,,,,,,,,,,,,,,,,,2,,,,,,,,,,,,,,,,,,,,,,,,,,,873.165845,152,right,1.40714,gloves      ,7,6,5,1,3,873.18275,873.18275,875.670125,0,74,74,74,1,152,2,7,camel         ,gloves      ,html/resources/sequences_IDs/A/03_camel.jpg,html/resources/sequences_IDs/B/06_gloves.jpg,3,6,1,1,3,2,3,5,0,67,,,,,,,,,,,,,,,,,,,,
,,,,,67,2020-07-04_18h55.59.956,retriever_ti,2020.1.3,Win32,60,Chrome,1440,900,,,,,,,,,,,,,,,,,2,,,,,,,,,,,,,,,,,,,,,,,,,,,876.271465,153,right,1.69169,dolphin     ,5,2,2,1,3,876.30529,876.30529,878.79269,0,75,75,75,1,153,3,5,radio       ,dolphin     ,html/resources/sequences_IDs/B/10_radio.jpg,html/resources/sequences_IDs/B/02_dolphin.jpg,10,2,4,2,1,1,8,2,0,67,,,,,,,,,,,,,,,,,,,,
,,,,,67,2020-07-04_18h55.59.956,retriever_ti,2020.1.3,Win32,60,Chrome,1440,900,,,,,,,,,,,,,,,,,2,,,,,,,,,,,,,,,,,,,,,,,,,,,879.394295,154,left,0.93346,hat           ,8,8,7,1,3,879.427875,879.427875,881.915255,0,76,76,76,1,154,8,1,hat           ,holdfast    ,html/resources/sequences_IDs/A/08_hat.jpg,html/resources/sequences_IDs/B/04_holdfast.jpg,8,4,3,2,2,1,6,4,0,67,,,,,,,,,,,,,,,,,,,,
,,,,,67,2020-07-04_18h55.59.956,retriever_ti,2020.1.3,Win32,60,Chrome,1440,900,,,,,,,,,,,,,,,,,,,,,,,,,,,,,,,,,,,,,1,4.022465,,,,,,,,,,,,,,,,,,,,,,,,,,,,,,,,,,,,,,,,,1,0,1,0,1,,,,,,,,,,,,,,,
,,,,,67,2020-07-04_18h55.59.956,retriever_ti,2020.1.3,Win32,60,Chrome,1440,900,,,,,,,,,,,,,,,,,3,,,,,,,,,,,,,,,,,,,,,,,,,,,960.80644,155,right,1.71597,dolphin     ,5,2,3,1,3,960.835845,960.835845,963.31933,0,0,0,0,1,155,2,5,camel         ,dolphin     ,html/resources/sequences_IDs/A/03_camel.jpg,html/resources/sequences_IDs/B/02_dolphin.jpg,3,2,1,1,1,1,3,2,0,67,,,,,,,,,,,,,,,,,,,,
,,,,,67,2020-07-04_18h55.59.956,retriever_ti,2020.1.3,Win32,60,Chrome,1440,900,,,,,,,,,,,,,,,,,3,,,,,,,,,,,,,,,,,,,,,,,,,,,963.920825,156,right,1.42261,wolf          ,6,1,3,1,3,963.93768,963.93768,966.425145,0,1,1,1,1,156,3,6,radio       ,wolf          ,html/resources/sequences_IDs/B/10_radio.jpg,html/resources/sequences_IDs/A/01_wolf.jpg,10,1,4,2,1,1,8,1,0,67,,,,,,,,,,,,,,,,,,,,
,,,,,67,2020-07-04_18h55.59.956,retriever_ti,2020.1.3,Win32,60,Chrome,1440,900,,,,,,,,,,,,,,,,,3,,,,,,,,,,,,,,,,,,,,,,,,,,,967.026705,157,NaN,NaN,No_response,NaN,NaN,NaN,2,2,967.060275,967.060275,969.547775,0,2,2,2,1,157,5,6,dolphin     ,wolf          ,html/resources/sequences_IDs/B/02_dolphin.jpg,html/resources/sequences_IDs/A/01_wolf.jpg,2,1,1,1,1,1,2,1,0,67,,,,,,,,,,,,,,,,,,,,
,,,,,67,2020-07-04_18h55.59.956,retriever_ti,2020.1.3,Win32,60,Chrome,1440,900,,,,,,,,,,,,,,,,,3,,,,,,,,,,,,,,,,,,,,,,,,,,,970.65018,158,right,0.69466,dolphin     ,5,2,4,1,3,970.683845,970.683845,973.17126,0,3,3,3,1,158,1,5,holdfast    ,dolphin     ,html/resources/sequences_IDs/B/04_holdfast.jpg,html/resources/sequences_IDs/B/02_dolphin.jpg,4,2,2,1,1,1,4,2,0,67,,,,,,,,,,,,,,,,,,,,
,,,,,67,2020-07-04_18h55.59.956,retriever_ti,2020.1.3,Win32,60,Chrome,1440,900,,,,,,,,,,,,,,,,,3,,,,,,,,,,,,,,,,,,,,,,,,,,,973.77254,159,left,1.1043,wolf          ,6,1,-1,0,0,973.789715,973.789715,976.277025,0,4,4,4,1,159,6,7,wolf          ,gloves      ,html/resources/sequences_IDs/A/01_wolf.jpg,html/resources/sequences_IDs/B/06_gloves.jpg,1,6,1,1,3,2,1,5,0,67,,,,,,,,,,,,,,,,,,,,
,,,,,67,2020-07-04_18h55.59.956,retriever_ti,2020.1.3,Win32,60,Chrome,1440,900,,,,,,,,,,,,,,,,,3,,,,,,,,,,,,,,,,,,,,,,,,,,,977.379645,160,right,0.77965,calculator    ,4,9,-2,0,3,977.396505,977.396505,979.88394,0,5,5,5,1,160,6,4,wolf          ,calculator    ,html/resources/sequences_IDs/A/01_wolf.jpg,html/resources/sequences_IDs/A/09_calculator.jpg,1,9,1,1,4,2,1,7,0,67,,,,,,,,,,,,,,,,,,,,
,,,,,67,2020-07-04_18h55.59.956,retriever_ti,2020.1.3,Win32,60,Chrome,1440,900,,,,,,,,,,,,,,,,,3,,,,,,,,,,,,,,,,,,,,,,,,,,,980.48549,161,right,0.88195,wolf          ,6,1,-1,0,1,980.502295,980.502295,982.98984,0,6,6,6,1,161,7,6,gloves      ,wolf          ,html/resources/sequences_IDs/B/06_gloves.jpg,html/resources/sequences_IDs/A/01_wolf.jpg,6,1,3,2,1,1,5,1,1,67,,,,,,,,,,,,,,,,,,,,
,,,,,67,2020-07-04_18h55.59.956,retriever_ti,2020.1.3,Win32,60,Chrome,1440,900,,,,,,,,,,,,,,,,,3,,,,,,,,,,,,,,,,,,,,,,,,,,,984.092175,162,left,1.01126,wolf          ,6,1,-1,0,0,984.109295,984.109295,986.59656,0,7,7,7,1,162,6,7,wolf          ,gloves      ,html/resources/sequences_IDs/A/01_wolf.jpg,html/resources/sequences_IDs/B/06_gloves.jpg,1,6,1,1,3,2,1,5,0,67,,,,,,,,,,,,,,,,,,,,
,,,,,67,2020-07-04_18h55.59.956,retriever_ti,2020.1.3,Win32,60,Chrome,1440,900,,,,,,,,,,,,,,,,,3,,,,,,,,,,,,,,,,,,,,,,,,,,,987.69914,163,right,1.809085,hat           ,8,8,7,1,3,987.732735,987.732735,990.220125,0,8,8,8,1,163,1,8,holdfast    ,hat           ,html/resources/sequences_IDs/B/04_holdfast.jpg,html/resources/sequences_IDs/A/08_hat.jpg,4,8,2,1,3,2,4,6,0,67,,,,,,,,,,,,,,,,,,,,
,,,,,67,2020-07-04_18h55.59.956,retriever_ti,2020.1.3,Win32,60,Chrome,1440,900,,,,,,,,,,,,,,,,,3,,,,,,,,,,,,,,,,,,,,,,,,,,,990.82177,164,left,1.16401,radio       ,3,10,1,1,1,990.83864,990.83864,993.32606,0,9,9,9,1,164,3,2,radio       ,camel         ,html/resources/sequences_IDs/B/10_radio.jpg,html/resources/sequences_IDs/A/03_camel.jpg,10,3,4,2,1,1,8,3,0,67,,,,,,,,,,,,,,,,,,,,
,,,,,67,2020-07-04_18h55.59.956,retriever_ti,2020.1.3,Win32,60,Chrome,1440,900,,,,,,,,,,,,,,,,,3,,,,,,,,,,,,,,,,,,,,,,,,,,,994.428315,165,right,0.69583,calculator    ,4,9,-1,0,0,994.462165,994.462165,996.94956,0,10,10,10,1,165,5,4,dolphin     ,calculator    ,html/resources/sequences_IDs/B/02_dolphin.jpg,html/resources/sequences_IDs/A/09_calculator.jpg,2,9,1,1,4,2,2,7,0,67,,,,,,,,,,,,,,,,,,,,
,,,,,67,2020-07-04_18h55.59.956,retriever_ti,2020.1.3,Win32,60,Chrome,1440,900,,,,,,,,,,,,,,,,,3,,,,,,,,,,,,,,,,,,,,,,,,,,,998.051825,166,left,0.836235,camel         ,2,3,1,1,1,998.06901,998.06901,1000.556355,0,11,11,11,1,166,2,1,camel         ,holdfast    ,html/resources/sequences_IDs/A/03_camel.jpg,html/resources/sequences_IDs/B/04_holdfast.jpg,3,4,1,1,2,1,3,4,0,67,,,,,,,,,,,,,,,,,,,,
,,,,,67,2020-07-04_18h55.59.956,retriever_ti,2020.1.3,Win32,60,Chrome,1440,900,,,,,,,,,,,,,,,,,3,,,,,,,,,,,,,,,,,,,,,,,,,,,1001.658955,167,left,1.4588,gloves      ,7,6,1,1,1,1001.692515,1001.692515,1004.17988,0,12,12,12,1,167,7,6,gloves      ,wolf          ,html/resources/sequences_IDs/B/06_gloves.jpg,html/resources/sequences_IDs/A/01_wolf.jpg,6,1,3,2,1,1,5,1,0,67,,,,,,,,,,,,,,,,,,,,
,,,,,67,2020-07-04_18h55.59.956,retriever_ti,2020.1.3,Win32,60,Chrome,1440,900,,,,,,,,,,,,,,,,,3,,,,,,,,,,,,,,,,,,,,,,,,,,,1005.28233,168,left,1.09394,gloves      ,7,6,-1,0,0,1005.31603,1005.31603,1007.803375,0,13,13,13,1,168,7,8,gloves      ,hat           ,html/resources/sequences_IDs/B/06_gloves.jpg,html/resources/sequences_IDs/A/08_hat.jpg,6,8,3,2,3,2,5,6,0,67,,,,,,,,,,,,,,,,,,,,
,,,,,67,2020-07-04_18h55.59.956,retriever_ti,2020.1.3,Win32,60,Chrome,1440,900,,,,,,,,,,,,,,,,,3,,,,,,,,,,,,,,,,,,,,,,,,,,,1008.906,169,right,1.026005,hat           ,8,8,2,1,3,1008.93961,1008.93961,1011.42679,0,14,14,14,1,169,6,8,wolf          ,hat           ,html/resources/sequences_IDs/A/01_wolf.jpg,html/resources/sequences_IDs/A/08_hat.jpg,1,8,1,1,3,2,1,6,0,67,,,,,,,,,,,,,,,,,,,,
,,,,,67,2020-07-04_18h55.59.956,retriever_ti,2020.1.3,Win32,60,Chrome,1440,900,,,,,,,,,,,,,,,,,3,,,,,,,,,,,,,,,,,,,,,,,,,,,1012.02829,170,right,1.49968,radio       ,3,10,2,1,3,1012.06213,1012.06213,1014.549495,0,15,15,15,1,170,1,3,holdfast    ,radio       ,html/resources/sequences_IDs/B/04_holdfast.jpg,html/resources/sequences_IDs/B/10_radio.jpg,4,10,2,1,4,2,4,8,0,67,,,,,,,,,,,,,,,,,,,,
,,,,,67,2020-07-04_18h55.59.956,retriever_ti,2020.1.3,Win32,60,Chrome,1440,900,,,,,,,,,,,,,,,,,3,,,,,,,,,,,,,,,,,,,,,,,,,,,1015.15108,171,right,1.4107,hat           ,8,8,5,1,3,1015.184695,1015.184695,1017.67216,0,16,16,16,1,171,3,8,radio       ,hat           ,html/resources/sequences_IDs/B/10_radio.jpg,html/resources/sequences_IDs/A/08_hat.jpg,10,8,4,2,3,2,8,6,0,67,,,,,,,,,,,,,,,,,,,,
,,,,,67,2020-07-04_18h55.59.956,retriever_ti,2020.1.3,Win32,60,Chrome,1440,900,,,,,,,,,,,,,,,,,3,,,,,,,,,,,,,,,,,,,,,,,,,,,1018.2734,172,NaN,NaN,No_response,NaN,NaN,NaN,2,2,1018.30728,1018.30728,1020.794615,0,17,17,17,1,172,7,6,gloves      ,wolf          ,html/resources/sequences_IDs/B/06_gloves.jpg,html/resources/sequences_IDs/A/01_wolf.jpg,6,1,3,2,1,1,5,1,0,67,,,,,,,,,,,,,,,,,,,,
,,,,,67,2020-07-04_18h55.59.956,retriever_ti,2020.1.3,Win32,60,Chrome,1440,900,,,,,,,,,,,,,,,,,3,,,,,,,,,,,,,,,,,,,,,,,,,,,1021.89717,173,left,1.745525,wolf          ,6,1,4,1,3,1021.914055,1021.914055,1024.40148,0,18,18,18,1,173,6,2,wolf          ,camel         ,html/resources/sequences_IDs/A/01_wolf.jpg,html/resources/sequences_IDs/A/03_camel.jpg,1,3,1,1,1,1,1,3,0,67,,,,,,,,,,,,,,,,,,,,
,,,,,67,2020-07-04_18h55.59.956,retriever_ti,2020.1.3,Win32,60,Chrome,1440,900,,,,,,,,,,,,,,,,,3,,,,,,,,,,,,,,,,,,,,,,,,,,,1025.003195,174,right,1.37409,holdfast    ,1,4,-4,0,3,1025.019935,1025.019935,1027.507335,0,19,19,19,1,174,5,1,dolphin     ,holdfast    ,html/resources/sequences_IDs/B/02_dolphin.jpg,html/resources/sequences_IDs/B/04_holdfast.jpg,2,4,1,1,2,1,2,4,0,67,,,,,,,,,,,,,,,,,,,,
,,,,,67,2020-07-04_18h55.59.956,retriever_ti,2020.1.3,Win32,60,Chrome,1440,900,,,,,,,,,,,,,,,,,3,,,,,,,,,,,,,,,,,,,,,,,,,,,1028.108745,175,left,1.379875,gloves      ,7,6,6,1,3,1028.12578,1028.12578,1030.61328,0,20,20,20,1,175,7,1,gloves      ,holdfast    ,html/resources/sequences_IDs/B/06_gloves.jpg,html/resources/sequences_IDs/B/04_holdfast.jpg,6,4,3,2,2,1,5,4,0,67,,,,,,,,,,,,,,,,,,,,
,,,,,67,2020-07-04_18h55.59.956,retriever_ti,2020.1.3,Win32,60,Chrome,1440,900,,,,,,,,,,,,,,,,,3,,,,,,,,,,,,,,,,,,,,,,,,,,,1031.214745,176,left,1.4103,wolf          ,6,1,5,1,3,1031.23162,1031.23162,1033.71914,0,21,21,21,1,176,6,1,wolf          ,holdfast    ,html/resources/sequences_IDs/A/01_wolf.jpg,html/resources/sequences_IDs/B/04_holdfast.jpg,1,4,1,1,2,1,1,4,0,67,,,,,,,,,,,,,,,,,,,,
,,,,,67,2020-07-04_18h55.59.956,retriever_ti,2020.1.3,Win32,60,Chrome,1440,900,,,,,,,,,,,,,,,,,3,,,,,,,,,,,,,,,,,,,,,,,,,,,1034.3204,177,right,1.952735,gloves      ,7,6,4,1,3,1034.33758,1034.33758,1036.82495,0,22,22,22,1,177,3,7,radio       ,gloves      ,html/resources/sequences_IDs/B/10_radio.jpg,html/resources/sequences_IDs/B/06_gloves.jpg,10,6,4,2,3,2,8,5,0,67,,,,,,,,,,,,,,,,,,,,
,,,,,67,2020-07-04_18h55.59.956,retriever_ti,2020.1.3,Win32,60,Chrome,1440,900,,,,,,,,,,,,,,,,,3,,,,,,,,,,,,,,,,,,,,,,,,,,,1037.42657,178,NaN,NaN,No_response,NaN,NaN,NaN,2,2,1037.44347,1037.44347,1039.930805,0,23,23,23,1,178,2,6,camel         ,wolf          ,html/resources/sequences_IDs/A/03_camel.jpg,html/resources/sequences_IDs/A/01_wolf.jpg,3,1,1,1,1,1,3,1,0,67,,,,,,,,,,,,,,,,,,,,
,,,,,67,2020-07-04_18h55.59.956,retriever_ti,2020.1.3,Win32,60,Chrome,1440,900,,,,,,,,,,,,,,,,,3,,,,,,,,,,,,,,,,,,,,,,,,,,,1041.03331,179,right,1.870135,radio       ,3,10,-1,0,0,1041.050215,1041.050215,1043.537655,0,24,24,24,1,179,4,3,calculator    ,radio       ,html/resources/sequences_IDs/A/09_calculator.jpg,html/resources/sequences_IDs/B/10_radio.jpg,9,10,4,2,4,2,7,8,0,67,,,,,,,,,,,,,,,,,,,,
,,,,,67,2020-07-04_18h55.59.956,retriever_ti,2020.1.3,Win32,60,Chrome,1440,900,,,,,,,,,,,,,,,,,3,,,,,,,,,,,,,,,,,,,,,,,,,,,1044.640275,180,NaN,NaN,No_response,NaN,NaN,NaN,2,2,1044.673775,1044.673775,1047.16119,0,25,25,25,1,180,7,3,gloves      ,radio       ,html/resources/sequences_IDs/B/06_gloves.jpg,html/resources/sequences_IDs/B/10_radio.jpg,6,10,3,2,4,2,5,8,0,67,,,,,,,,,,,,,,,,,,,,
,,,,,67,2020-07-04_18h55.59.956,retriever_ti,2020.1.3,Win32,60,Chrome,1440,900,,,,,,,,,,,,,,,,,3,,,,,,,,,,,,,,,,,,,,,,,,,,,1048.26352,181,left,0.53695,hat           ,8,8,3,1,3,1048.28056,1048.28056,1050.768015,0,26,26,26,1,181,8,5,hat           ,dolphin     ,html/resources/sequences_IDs/A/08_hat.jpg,html/resources/sequences_IDs/B/02_dolphin.jpg,8,2,3,2,1,1,6,2,0,67,,,,,,,,,,,,,,,,,,,,
,,,,,67,2020-07-04_18h55.59.956,retriever_ti,2020.1.3,Win32,60,Chrome,1440,900,,,,,,,,,,,,,,,,,3,,,,,,,,,,,,,,,,,,,,,,,,,,,1051.36957,182,right,0.97804,wolf          ,6,1,1,1,0,1051.40304,1051.40304,1053.890585,0,27,27,27,1,182,5,6,dolphin     ,wolf          ,html/resources/sequences_IDs/B/02_dolphin.jpg,html/resources/sequences_IDs/A/01_wolf.jpg,2,1,1,1,1,1,2,1,1,67,,,,,,,,,,,,,,,,,,,,
,,,,,67,2020-07-04_18h55.59.956,retriever_ti,2020.1.3,Win32,60,Chrome,1440,900,,,,,,,,,,,,,,,,,3,,,,,,,,,,,,,,,,,,,,,,,,,,,1054.99312,183,left,1.149215,hat           ,8,8,7,1,3,1055.010085,1055.010085,1057.497395,0,28,28,28,1,183,8,1,hat           ,holdfast    ,html/resources/sequences_IDs/A/08_hat.jpg,html/resources/sequences_IDs/B/04_holdfast.jpg,8,4,3,2,2,1,6,4,0,67,,,,,,,,,,,,,,,,,,,,
,,,,,67,2020-07-04_18h55.59.956,retriever_ti,2020.1.3,Win32,60,Chrome,1440,900,,,,,,,,,,,,,,,,,3,,,,,,,,,,,,,,,,,,,,,,,,,,,1058.09879,184,right,1.27864,camel         ,2,3,-1,0,1,1058.116185,1058.116185,1060.603325,0,29,29,29,1,184,3,2,radio       ,camel         ,html/resources/sequences_IDs/B/10_radio.jpg,html/resources/sequences_IDs/A/03_camel.jpg,10,3,4,2,1,1,8,3,1,67,,,,,,,,,,,,,,,,,,,,
,,,,,67,2020-07-04_18h55.59.956,retriever_ti,2020.1.3,Win32,60,Chrome,1440,900,,,,,,,,,,,,,,,,,3,,,,,,,,,,,,,,,,,,,,,,,,,,,1061.705855,185,right,1.221555,calculator    ,4,9,1,1,1,1061.722715,1061.722715,1064.21014,0,30,30,30,1,185,3,4,radio       ,calculator    ,html/resources/sequences_IDs/B/10_radio.jpg,html/resources/sequences_IDs/A/09_calculator.jpg,10,9,4,2,4,2,8,7,0,67,,,,,,,,,,,,,,,,,,,,
,,,,,67,2020-07-04_18h55.59.956,retriever_ti,2020.1.3,Win32,60,Chrome,1440,900,,,,,,,,,,,,,,,,,3,,,,,,,,,,,,,,,,,,,,,,,,,,,1065.312655,186,left,1.081615,camel         ,2,3,-2,0,3,1065.34624,1065.34624,1067.833725,0,31,31,31,1,186,2,4,camel         ,calculator    ,html/resources/sequences_IDs/A/03_camel.jpg,html/resources/sequences_IDs/A/09_calculator.jpg,3,9,1,1,4,2,3,7,0,67,,,,,,,,,,,,,,,,,,,,
,,,,,67,2020-07-04_18h55.59.956,retriever_ti,2020.1.3,Win32,60,Chrome,1440,900,,,,,,,,,,,,,,,,,3,,,,,,,,,,,,,,,,,,,,,,,,,,,1068.43496,187,NaN,NaN,No_response,NaN,NaN,NaN,2,2,1068.452075,1068.452075,1070.939465,0,32,32,32,1,187,8,7,hat           ,gloves      ,html/resources/sequences_IDs/A/08_hat.jpg,html/resources/sequences_IDs/B/06_gloves.jpg,8,6,3,2,3,2,6,5,0,67,,,,,,,,,,,,,,,,,,,,
,,,,,67,2020-07-04_18h55.59.956,retriever_ti,2020.1.3,Win32,60,Chrome,1440,900,,,,,,,,,,,,,,,,,3,,,,,,,,,,,,,,,,,,,,,,,,,,,1072.042065,188,right,0.800675,radio       ,3,10,-2,0,3,1072.05904,1072.05904,1074.546305,0,33,33,33,1,188,5,3,dolphin     ,radio       ,html/resources/sequences_IDs/B/02_dolphin.jpg,html/resources/sequences_IDs/B/10_radio.jpg,2,10,1,1,4,2,2,8,0,67,,,,,,,,,,,,,,,,,,,,
,,,,,67,2020-07-04_18h55.59.956,retriever_ti,2020.1.3,Win32,60,Chrome,1440,900,,,,,,,,,,,,,,,,,3,,,,,,,,,,,,,,,,,,,,,,,,,,,1075.14787,189,right,0.95026,radio       ,3,10,-3,0,3,1075.16488,1075.16488,1077.652275,0,34,34,34,1,189,6,3,wolf          ,radio       ,html/resources/sequences_IDs/A/01_wolf.jpg,html/resources/sequences_IDs/B/10_radio.jpg,1,10,1,1,4,2,1,8,0,67,,,,,,,,,,,,,,,,,,,,
,,,,,67,2020-07-04_18h55.59.956,retriever_ti,2020.1.3,Win32,60,Chrome,1440,900,,,,,,,,,,,,,,,,,3,,,,,,,,,,,,,,,,,,,,,,,,,,,1078.25357,190,left,0.555765,calculator    ,4,9,2,1,3,1078.287395,1078.287395,1080.774745,0,35,35,35,1,190,4,2,calculator    ,camel         ,html/resources/sequences_IDs/A/09_calculator.jpg,html/resources/sequences_IDs/A/03_camel.jpg,9,3,4,2,1,1,7,3,0,67,,,,,,,,,,,,,,,,,,,,
,,,,,67,2020-07-04_18h55.59.956,retriever_ti,2020.1.3,Win32,60,Chrome,1440,900,,,,,,,,,,,,,,,,,3,,,,,,,,,,,,,,,,,,,,,,,,,,,1081.376375,191,right,1.26907,calculator    ,4,9,-1,0,0,1081.393215,1081.393215,1083.880655,0,36,36,36,1,191,5,4,dolphin     ,calculator    ,html/resources/sequences_IDs/B/02_dolphin.jpg,html/resources/sequences_IDs/A/09_calculator.jpg,2,9,1,1,4,2,2,7,0,67,,,,,,,,,,,,,,,,,,,,
,,,,,67,2020-07-04_18h55.59.956,retriever_ti,2020.1.3,Win32,60,Chrome,1440,900,,,,,,,,,,,,,,,,,3,,,,,,,,,,,,,,,,,,,,,,,,,,,1084.98329,192,left,0.684295,calculator    ,4,9,-1,0,0,1085.00018,1085.00018,1087.487495,0,37,37,37,1,192,4,5,calculator    ,dolphin     ,html/resources/sequences_IDs/A/09_calculator.jpg,html/resources/sequences_IDs/B/02_dolphin.jpg,9,2,4,2,1,1,7,2,0,67,,,,,,,,,,,,,,,,,,,,
,,,,,67,2020-07-04_18h55.59.956,retriever_ti,2020.1.3,Win32,60,Chrome,1440,900,,,,,,,,,,,,,,,,,3,,,,,,,,,,,,,,,,,,,,,,,,,,,1088.589965,193,right,1.9945,dolphin     ,5,2,-1,0,0,1088.62364,1088.62364,1091.11099,0,38,38,38,1,193,6,5,wolf          ,dolphin     ,html/resources/sequences_IDs/A/01_wolf.jpg,html/resources/sequences_IDs/B/02_dolphin.jpg,1,2,1,1,1,1,1,2,0,67,,,,,,,,,,,,,,,,,,,,
,,,,,67,2020-07-04_18h55.59.956,retriever_ti,2020.1.3,Win32,60,Chrome,1440,900,,,,,,,,,,,,,,,,,3,,,,,,,,,,,,,,,,,,,,,,,,,,,1092.213345,194,left,1.638245,gloves      ,7,6,2,1,3,1092.247335,1092.247335,1094.7345,0,39,39,39,1,194,7,5,gloves      ,dolphin     ,html/resources/sequences_IDs/B/06_gloves.jpg,html/resources/sequences_IDs/B/02_dolphin.jpg,6,2,3,2,1,1,5,2,0,67,,,,,,,,,,,,,,,,,,,,
,,,,,67,2020-07-04_18h55.59.956,retriever_ti,2020.1.3,Win32,60,Chrome,1440,900,,,,,,,,,,,,,,,,,3,,,,,,,,,,,,,,,,,,,,,,,,,,,1095.3361,195,NaN,NaN,No_response,NaN,NaN,NaN,2,2,1095.369845,1095.369845,1097.857155,0,40,40,40,1,195,1,2,holdfast    ,camel         ,html/resources/sequences_IDs/B/04_holdfast.jpg,html/resources/sequences_IDs/A/03_camel.jpg,4,3,2,1,1,1,4,3,1,67,,,,,,,,,,,,,,,,,,,,
,,,,,67,2020-07-04_18h55.59.956,retriever_ti,2020.1.3,Win32,60,Chrome,1440,900,,,,,,,,,,,,,,,,,3,,,,,,,,,,,,,,,,,,,,,,,,,,,1098.959635,196,right,1.57728,hat           ,8,8,4,1,3,1098.99325,1098.99325,1101.48057,0,41,41,41,1,196,4,8,calculator    ,hat           ,html/resources/sequences_IDs/A/09_calculator.jpg,html/resources/sequences_IDs/A/08_hat.jpg,9,8,4,2,3,2,7,6,0,67,,,,,,,,,,,,,,,,,,,,
,,,,,67,2020-07-04_18h55.59.956,retriever_ti,2020.1.3,Win32,60,Chrome,1440,900,,,,,,,,,,,,,,,,,3,,,,,,,,,,,,,,,,,,,,,,,,,,,1102.08199,197,left,1.5114,calculator    ,4,9,-2,0,3,1102.099135,1102.099135,1104.58645,0,42,42,42,1,197,4,6,calculator    ,wolf          ,html/resources/sequences_IDs/A/09_calculator.jpg,html/resources/sequences_IDs/A/01_wolf.jpg,9,1,4,2,1,1,7,1,0,67,,,,,,,,,,,,,,,,,,,,
,,,,,67,2020-07-04_18h55.59.956,retriever_ti,2020.1.3,Win32,60,Chrome,1440,900,,,,,,,,,,,,,,,,,3,,,,,,,,,,,,,,,,,,,,,,,,,,,1105.18825,198,left,0.93229,dolphin     ,5,2,-2,0,3,1105.22166,1105.22166,1107.709155,0,43,43,43,1,198,5,7,dolphin     ,gloves      ,html/resources/sequences_IDs/B/02_dolphin.jpg,html/resources/sequences_IDs/B/06_gloves.jpg,2,6,1,1,3,2,2,5,0,67,,,,,,,,,,,,,,,,,,,,
,,,,,67,2020-07-04_18h55.59.956,retriever_ti,2020.1.3,Win32,60,Chrome,1440,900,,,,,,,,,,,,,,,,,3,,,,,,,,,,,,,,,,,,,,,,,,,,,1108.310415,199,right,1.41193,calculator    ,4,9,-3,0,3,1108.32742,1108.32742,1110.81487,0,44,44,44,1,199,7,4,gloves      ,calculator    ,html/resources/sequences_IDs/B/06_gloves.jpg,html/resources/sequences_IDs/A/09_calculator.jpg,6,9,3,2,4,2,5,7,0,67,,,,,,,,,,,,,,,,,,,,
,,,,,67,2020-07-04_18h55.59.956,retriever_ti,2020.1.3,Win32,60,Chrome,1440,900,,,,,,,,,,,,,,,,,3,,,,,,,,,,,,,,,,,,,,,,,,,,,1111.41656,200,left,0.632045,calculator    ,4,9,-1,0,0,1111.450065,1111.450065,1113.93752,0,45,45,45,1,200,4,5,calculator    ,dolphin     ,html/resources/sequences_IDs/A/09_calculator.jpg,html/resources/sequences_IDs/B/02_dolphin.jpg,9,2,4,2,1,1,7,2,0,67,,,,,,,,,,,,,,,,,,,,
,,,,,67,2020-07-04_18h55.59.956,retriever_ti,2020.1.3,Win32,60,Chrome,1440,900,,,,,,,,,,,,,,,,,3,,,,,,,,,,,,,,,,,,,,,,,,,,,1115.040015,201,left,0.87877,hat           ,8,8,2,1,3,1115.07376,1115.07376,1117.56104,0,46,46,46,1,201,8,6,hat           ,wolf          ,html/resources/sequences_IDs/A/08_hat.jpg,html/resources/sequences_IDs/A/01_wolf.jpg,8,1,3,2,1,1,6,1,0,67,,,,,,,,,,,,,,,,,,,,
,,,,,67,2020-07-04_18h55.59.956,retriever_ti,2020.1.3,Win32,60,Chrome,1440,900,,,,,,,,,,,,,,,,,3,,,,,,,,,,,,,,,,,,,,,,,,,,,1118.162425,202,right,0.678065,calculator    ,4,9,1,1,1,1118.196205,1118.196205,1120.68361,0,47,47,47,1,202,3,4,radio       ,calculator    ,html/resources/sequences_IDs/B/10_radio.jpg,html/resources/sequences_IDs/A/09_calculator.jpg,10,9,4,2,4,2,8,7,0,67,,,,,,,,,,,,,,,,,,,,
,,,,,67,2020-07-04_18h55.59.956,retriever_ti,2020.1.3,Win32,60,Chrome,1440,900,,,,,,,,,,,,,,,,,3,,,,,,,,,,,,,,,,,,,,,,,,,,,1121.786175,203,left,0.94413,calculator    ,4,9,-3,0,3,1121.803015,1121.803015,1124.29045,0,48,48,48,1,203,4,7,calculator    ,gloves      ,html/resources/sequences_IDs/A/09_calculator.jpg,html/resources/sequences_IDs/B/06_gloves.jpg,9,6,4,2,3,2,7,5,0,67,,,,,,,,,,,,,,,,,,,,
,,,,,67,2020-07-04_18h55.59.956,retriever_ti,2020.1.3,Win32,60,Chrome,1440,900,,,,,,,,,,,,,,,,,3,,,,,,,,,,,,,,,,,,,,,,,,,,,1124.89193,204,right,0.9163,gloves      ,7,6,6,1,3,1124.9256,1124.9256,1127.413015,0,49,49,49,1,204,1,7,holdfast    ,gloves      ,html/resources/sequences_IDs/B/04_holdfast.jpg,html/resources/sequences_IDs/B/06_gloves.jpg,4,6,2,1,3,2,4,5,0,67,,,,,,,,,,,,,,,,,,,,
,,,,,67,2020-07-04_18h55.59.956,retriever_ti,2020.1.3,Win32,60,Chrome,1440,900,,,,,,,,,,,,,,,,,3,,,,,,,,,,,,,,,,,,,,,,,,,,,1128.014395,205,right,0.736375,hat           ,8,8,3,1,3,1128.03143,1128.03143,1130.518995,0,50,50,50,1,205,5,8,dolphin     ,hat           ,html/resources/sequences_IDs/B/02_dolphin.jpg,html/resources/sequences_IDs/A/08_hat.jpg,2,8,1,1,3,2,2,6,0,67,,,,,,,,,,,,,,,,,,,,
,,,,,67,2020-07-04_18h55.59.956,retriever_ti,2020.1.3,Win32,60,Chrome,1440,900,,,,,,,,,,,,,,,,,3,,,,,,,,,,,,,,,,,,,,,,,,,,,1131.120515,206,right,1.739125,dolphin     ,5,2,2,1,3,1131.154085,1131.154085,1133.641495,0,51,51,51,1,206,3,5,radio       ,dolphin     ,html/resources/sequences_IDs/B/10_radio.jpg,html/resources/sequences_IDs/B/02_dolphin.jpg,10,2,4,2,1,1,8,2,0,67,,,,,,,,,,,,,,,,,,,,
,,,,,67,2020-07-04_18h55.59.956,retriever_ti,2020.1.3,Win32,60,Chrome,1440,900,,,,,,,,,,,,,,,,,3,,,,,,,,,,,,,,,,,,,,,,,,,,,1134.24285,207,left,1.326655,radio       ,3,10,1,1,1,1134.27662,1134.27662,1136.76408,0,52,52,52,1,207,3,2,radio       ,camel         ,html/resources/sequences_IDs/B/10_radio.jpg,html/resources/sequences_IDs/A/03_camel.jpg,10,3,4,2,1,1,8,3,0,67,,,,,,,,,,,,,,,,,,,,
,,,,,67,2020-07-04_18h55.59.956,retriever_ti,2020.1.3,Win32,60,Chrome,1440,900,,,,,,,,,,,,,,,,,3,,,,,,,,,,,,,,,,,,,,,,,,,,,1137.86664,208,right,1.149045,radio       ,3,10,1,1,1,1137.88353,1137.88353,1140.3709,0,53,53,53,1,208,2,3,camel         ,radio       ,html/resources/sequences_IDs/A/03_camel.jpg,html/resources/sequences_IDs/B/10_radio.jpg,3,10,1,1,4,2,3,8,0,67,,,,,,,,,,,,,,,,,,,,
,,,,,67,2020-07-04_18h55.59.956,retriever_ti,2020.1.3,Win32,60,Chrome,1440,900,,,,,,,,,,,,,,,,,3,,,,,,,,,,,,,,,,,,,,,,,,,,,1141.473485,209,right,1.228155,calculator    ,4,9,-4,0,3,1141.507035,1141.507035,1143.994355,0,54,54,54,1,209,8,4,hat           ,calculator    ,html/resources/sequences_IDs/A/08_hat.jpg,html/resources/sequences_IDs/A/09_calculator.jpg,8,9,3,2,4,2,6,7,0,67,,,,,,,,,,,,,,,,,,,,
,,,,,67,2020-07-04_18h55.59.956,retriever_ti,2020.1.3,Win32,60,Chrome,1440,900,,,,,,,,,,,,,,,,,3,,,,,,,,,,,,,,,,,,,,,,,,,,,1144.59598,210,right,1.46196,holdfast    ,1,4,-1,0,0,1144.61285,1144.61285,1147.10026,0,55,55,55,1,210,2,1,camel         ,holdfast    ,html/resources/sequences_IDs/A/03_camel.jpg,html/resources/sequences_IDs/B/04_holdfast.jpg,3,4,1,1,2,1,3,4,0,67,,,,,,,,,,,,,,,,,,,,
,,,,,67,2020-07-04_18h55.59.956,retriever_ti,2020.1.3,Win32,60,Chrome,1440,900,,,,,,,,,,,,,,,,,3,,,,,,,,,,,,,,,,,,,,,,,,,,,1148.202645,211,right,0.953395,camel         ,2,3,-3,0,3,1148.2197,1148.2197,1150.707055,0,56,56,56,1,211,5,2,dolphin     ,camel         ,html/resources/sequences_IDs/B/02_dolphin.jpg,html/resources/sequences_IDs/A/03_camel.jpg,2,3,1,1,1,1,2,3,0,67,,,,,,,,,,,,,,,,,,,,
,,,,,67,2020-07-04_18h55.59.956,retriever_ti,2020.1.3,Win32,60,Chrome,1440,900,,,,,,,,,,,,,,,,,3,,,,,,,,,,,,,,,,,,,,,,,,,,,1151.308685,212,left,0.973305,radio       ,3,10,2,1,3,1151.325525,1151.325525,1153.81303,0,57,57,57,1,212,3,1,radio       ,holdfast    ,html/resources/sequences_IDs/B/10_radio.jpg,html/resources/sequences_IDs/B/04_holdfast.jpg,10,4,4,2,2,1,8,4,0,67,,,,,,,,,,,,,,,,,,,,
,,,,,67,2020-07-04_18h55.59.956,retriever_ti,2020.1.3,Win32,60,Chrome,1440,900,,,,,,,,,,,,,,,,,3,,,,,,,,,,,,,,,,,,,,,,,,,,,1154.41418,213,right,1.52951,dolphin     ,5,2,-1,0,0,1154.431395,1154.431395,1156.918825,0,58,58,58,1,213,6,5,wolf          ,dolphin     ,html/resources/sequences_IDs/A/01_wolf.jpg,html/resources/sequences_IDs/B/02_dolphin.jpg,1,2,1,1,1,1,1,2,0,67,,,,,,,,,,,,,,,,,,,,
,,,,,67,2020-07-04_18h55.59.956,retriever_ti,2020.1.3,Win32,60,Chrome,1440,900,,,,,,,,,,,,,,,,,3,,,,,,,,,,,,,,,,,,,,,,,,,,,1158.021465,214,left,1.44452,hat           ,8,8,1,1,0,1158.038195,1158.038195,1160.525685,0,59,59,59,1,214,8,7,hat           ,gloves      ,html/resources/sequences_IDs/A/08_hat.jpg,html/resources/sequences_IDs/B/06_gloves.jpg,8,6,3,2,3,2,6,5,1,67,,,,,,,,,,,,,,,,,,,,
,,,,,67,2020-07-04_18h55.59.956,retriever_ti,2020.1.3,Win32,60,Chrome,1440,900,,,,,,,,,,,,,,,,,3,,,,,,,,,,,,,,,,,,,,,,,,,,,1161.62825,215,right,0.89843,calculator    ,4,9,3,1,3,1161.645035,1161.645035,1164.13246,0,60,60,60,1,215,1,4,holdfast    ,calculator    ,html/resources/sequences_IDs/B/04_holdfast.jpg,html/resources/sequences_IDs/A/09_calculator.jpg,4,9,2,1,4,2,4,7,0,67,,,,,,,,,,,,,,,,,,,,
,,,,,67,2020-07-04_18h55.59.956,retriever_ti,2020.1.3,Win32,60,Chrome,1440,900,,,,,,,,,,,,,,,,,3,,,,,,,,,,,,,,,,,,,,,,,,,,,1164.73402,216,right,1.715045,camel         ,2,3,-5,0,3,1164.750955,1164.750955,1167.23835,0,61,61,61,1,216,7,2,gloves      ,camel         ,html/resources/sequences_IDs/B/06_gloves.jpg,html/resources/sequences_IDs/A/03_camel.jpg,6,3,3,2,1,1,5,3,0,67,,,,,,,,,,,,,,,,,,,,
,,,,,67,2020-07-04_18h55.59.956,retriever_ti,2020.1.3,Win32,60,Chrome,1440,900,,,,,,,,,,,,,,,,,3,,,,,,,,,,,,,,,,,,,,,,,,,,,1167.839795,217,left,1.97691,camel         ,2,3,-1,0,0,1167.85687,1167.85687,1170.34422,0,62,62,62,1,217,2,3,camel         ,radio       ,html/resources/sequences_IDs/A/03_camel.jpg,html/resources/sequences_IDs/B/10_radio.jpg,3,10,1,1,4,2,3,8,0,67,,,,,,,,,,,,,,,,,,,,
,,,,,67,2020-07-04_18h55.59.956,retriever_ti,2020.1.3,Win32,60,Chrome,1440,900,,,,,,,,,,,,,,,,,3,,,,,,,,,,,,,,,,,,,,,,,,,,,1171.446765,218,left,1.45016,calculator    ,4,9,3,1,3,1171.46364,1171.46364,1173.95106,0,63,63,63,1,218,4,1,calculator    ,holdfast    ,html/resources/sequences_IDs/A/09_calculator.jpg,html/resources/sequences_IDs/B/04_holdfast.jpg,9,4,4,2,2,1,7,4,0,67,,,,,,,,,,,,,,,,,,,,
,,,,,67,2020-07-04_18h55.59.956,retriever_ti,2020.1.3,Win32,60,Chrome,1440,900,,,,,,,,,,,,,,,,,3,,,,,,,,,,,,,,,,,,,,,,,,,,,1174.552585,219,right,1.27047,camel         ,2,3,1,1,1,1174.56962,1174.56962,1177.05705,0,64,64,64,1,219,1,2,holdfast    ,camel         ,html/resources/sequences_IDs/B/04_holdfast.jpg,html/resources/sequences_IDs/A/03_camel.jpg,4,3,2,1,1,1,4,3,0,67,,,,,,,,,,,,,,,,,,,,
,,,,,67,2020-07-04_18h55.59.956,retriever_ti,2020.1.3,Win32,60,Chrome,1440,900,,,,,,,,,,,,,,,,,3,,,,,,,,,,,,,,,,,,,,,,,,,,,1178.159255,220,left,2.082755,gloves      ,7,6,-1,0,0,1178.17632,1178.17632,1180.663775,0,65,65,65,1,220,7,8,gloves      ,hat           ,html/resources/sequences_IDs/B/06_gloves.jpg,html/resources/sequences_IDs/A/08_hat.jpg,6,8,3,2,3,2,5,6,0,67,,,,,,,,,,,,,,,,,,,,
,,,,,67,2020-07-04_18h55.59.956,retriever_ti,2020.1.3,Win32,60,Chrome,1440,900,,,,,,,,,,,,,,,,,3,,,,,,,,,,,,,,,,,,,,,,,,,,,1181.76629,221,right,1.48883,wolf          ,6,1,5,1,3,1181.783145,1181.783145,1184.27059,0,66,66,66,1,221,1,6,holdfast    ,wolf          ,html/resources/sequences_IDs/B/04_holdfast.jpg,html/resources/sequences_IDs/A/01_wolf.jpg,4,1,2,1,1,1,4,1,0,67,,,,,,,,,,,,,,,,,,,,
,,,,,67,2020-07-04_18h55.59.956,retriever_ti,2020.1.3,Win32,60,Chrome,1440,900,,,,,,,,,,,,,,,,,3,,,,,,,,,,,,,,,,,,,,,,,,,,,1184.872255,222,left,1.79997,calculator    ,4,9,-1,0,1,1184.889105,1184.889105,1187.376475,0,67,67,67,1,222,4,5,calculator    ,dolphin     ,html/resources/sequences_IDs/A/09_calculator.jpg,html/resources/sequences_IDs/B/02_dolphin.jpg,9,2,4,2,1,1,7,2,1,67,,,,,,,,,,,,,,,,,,,,
,,,,,67,2020-07-04_18h55.59.956,retriever_ti,2020.1.3,Win32,60,Chrome,1440,900,,,,,,,,,,,,,,,,,3,,,,,,,,,,,,,,,,,,,,,,,,,,,1188.47877,223,right,1.383915,camel         ,2,3,1,1,1,1188.495905,1188.495905,1190.983225,0,68,68,68,1,223,1,2,holdfast    ,camel         ,html/resources/sequences_IDs/B/04_holdfast.jpg,html/resources/sequences_IDs/A/03_camel.jpg,4,3,2,1,1,1,4,3,0,67,,,,,,,,,,,,,,,,,,,,
