instructionsLoop.thisRepN,instructionsLoop.thisTrialN,instructionsLoop.thisN,instructionsLoop.thisIndex,instructionsLoop.ran,participant,date,expName,psychopyVersion,OS,frameRate,browser,xResolution,yResolution,fix_onset,tprac,practiceKey.keys,practiceKey.rt,pracitem_chosen_name,acc_practice,P1_onsetPrac,P2_onsetPrac,onsetFeedbPrac,practiceTrials.thisRepN,practiceTrials.thisTrialN,practiceTrials.thisN,practiceTrials.thisIndex,practiceTrials.ran,P1,P2,Block,LocItem1,LocItem2,NameItem1,NameItem2,key_respAC_prac.keys,key_respAC_prac.corr,key_respAC_prac.rt,AC_acc,Attentions.thisRepN,Attentions.thisTrialN,Attentions.thisN,Attentions.thisIndex,Attentions.ran,Stim,Loc1,Loc2,Loc3,Loc4,CorrAns,keyDisturbed.keys,keyDisturbed.rt,repPractice.thisRepN,repPractice.thisTrialN,repPractice.thisN,repPractice.thisIndex,repPractice.ran,fixcross_onsetMain,trialNumber,key_resp.keys,key_resp.rt,item_chosen_name,item_chosen_value,item_chosen_ID,diff_chosen_minus_reject,acc_real,acc_feedback,P1_onset,P2_onset,feedb_onset,trials.thisRepN,trials.thisTrialN,trials.thisN,trials.thisIndex,trials.ran,Trial,ValueP1,ValueP2,P1name,P2name,P1Loc,P2Loc,P1id,P2id,Micro_categoryP1,Macro_categoryP1,Micro_categoryP2,Macro_categoryP2,ID_sequenceP1,ID_sequenceP2,InverseFb,pNumber,repBlocks.thisRepN,repBlocks.thisTrialN,repBlocks.thisN,repBlocks.thisIndex,repBlocks.ran,key_respAC.keys,key_respAC.corr,key_respAC.rt,trials_AC.thisRepN,trials_AC.thisTrialN,trials_AC.thisN,trials_AC.thisIndex,trials_AC.ran,Bonus,BonusLoop.thisRepN,BonusLoop.thisTrialN,BonusLoop.thisN,BonusLoop.thisIndex,BonusLoop.ran,comments
0,0,0,0,1,68,2020-07-04_18h58.28.036,retriever_ti,2020.1.3,Win32,60,Chrome,1536,864,,,,,,,,,,,,,,,,,,,,,,,,,,,,,,,,,,,,,,,,,,,,,,,,,,,,,,,,,,,,,,,,,,,,,,,,,,,,,,,,,,,,,,,,,,,,,,,,,,
1,0,1,0,1,68,2020-07-04_18h58.28.036,retriever_ti,2020.1.3,Win32,60,Chrome,1536,864,,,,,,,,,,,,,,,,,,,,,,,,,,,,,,,,,,,,,,,,,,,,,,,,,,,,,,,,,,,,,,,,,,,,,,,,,,,,,,,,,,,,,,,,,,,,,,,,,,
2,0,2,0,1,68,2020-07-04_18h58.28.036,retriever_ti,2020.1.3,Win32,60,Chrome,1536,864,,,,,,,,,,,,,,,,,,,,,,,,,,,,,,,,,,,,,,,,,,,,,,,,,,,,,,,,,,,,,,,,,,,,,,,,,,,,,,,,,,,,,,,,,,,,,,,,,,
3,0,3,0,1,68,2020-07-04_18h58.28.036,retriever_ti,2020.1.3,Win32,60,Chrome,1536,864,,,,,,,,,,,,,,,,,,,,,,,,,,,,,,,,,,,,,,,,,,,,,,,,,,,,,,,,,,,,,,,,,,,,,,,,,,,,,,,,,,,,,,,,,,,,,,,,,,
4,0,4,0,1,68,2020-07-04_18h58.28.036,retriever_ti,2020.1.3,Win32,60,Chrome,1536,864,,,,,,,,,,,,,,,,,,,,,,,,,,,,,,,,,,,,,,,,,,,,,,,,,,,,,,,,,,,,,,,,,,,,,,,,,,,,,,,,,,,,,,,,,,,,,,,,,,
5,0,5,0,1,68,2020-07-04_18h58.28.036,retriever_ti,2020.1.3,Win32,60,Chrome,1536,864,,,,,,,,,,,,,,,,,,,,,,,,,,,,,,,,,,,,,,,,,,,,,,,,,,,,,,,,,,,,,,,,,,,,,,,,,,,,,,,,,,,,,,,,,,,,,,,,,,
6,0,6,0,1,68,2020-07-04_18h58.28.036,retriever_ti,2020.1.3,Win32,60,Chrome,1536,864,,,,,,,,,,,,,,,,,,,,,,,,,,,,,,,,,,,,,,,,,,,,,,,,,,,,,,,,,,,,,,,,,,,,,,,,,,,,,,,,,,,,,,,,,,,,,,,,,,
7,0,7,0,1,68,2020-07-04_18h58.28.036,retriever_ti,2020.1.3,Win32,60,Chrome,1536,864,,,,,,,,,,,,,,,,,,,,,,,,,,,,,,,,,,,,,,,,,,,,,,,,,,,,,,,,,,,,,,,,,,,,,,,,,,,,,,,,,,,,,,,,,,,,,,,,,,
8,0,8,0,1,68,2020-07-04_18h58.28.036,retriever_ti,2020.1.3,Win32,60,Chrome,1536,864,,,,,,,,,,,,,,,,,,,,,,,,,,,,,,,,,,,,,,,,,,,,,,,,,,,,,,,,,,,,,,,,,,,,,,,,,,,,,,,,,,,,,,,,,,,,,,,,,,
9,0,9,0,1,68,2020-07-04_18h58.28.036,retriever_ti,2020.1.3,Win32,60,Chrome,1536,864,,,,,,,,,,,,,,,,,,,,,,,,,,,,,,,,,,,,,,,,,,,,,,,,,,,,,,,,,,,,,,,,,,,,,,,,,,,,,,,,,,,,,,,,,,,,,,,,,,
10,0,10,0,1,68,2020-07-04_18h58.28.036,retriever_ti,2020.1.3,Win32,60,Chrome,1536,864,,,,,,,,,,,,,,,,,,,,,,,,,,,,,,,,,,,,,,,,,,,,,,,,,,,,,,,,,,,,,,,,,,,,,,,,,,,,,,,,,,,,,,,,,,,,,,,,,,
11,0,11,0,1,68,2020-07-04_18h58.28.036,retriever_ti,2020.1.3,Win32,60,Chrome,1536,864,,,,,,,,,,,,,,,,,,,,,,,,,,,,,,,,,,,,,,,,,,,,,,,,,,,,,,,,,,,,,,,,,,,,,,,,,,,,,,,,,,,,,,,,,,,,,,,,,,
12,0,12,0,1,68,2020-07-04_18h58.28.036,retriever_ti,2020.1.3,Win32,60,Chrome,1536,864,,,,,,,,,,,,,,,,,,,,,,,,,,,,,,,,,,,,,,,,,,,,,,,,,,,,,,,,,,,,,,,,,,,,,,,,,,,,,,,,,,,,,,,,,,,,,,,,,,
13,0,13,0,1,68,2020-07-04_18h58.28.036,retriever_ti,2020.1.3,Win32,60,Chrome,1536,864,,,,,,,,,,,,,,,,,,,,,,,,,,,,,,,,,,,,,,,,,,,,,,,,,,,,,,,,,,,,,,,,,,,,,,,,,,,,,,,,,,,,,,,,,,,,,,,,,,
14,0,14,0,1,68,2020-07-04_18h58.28.036,retriever_ti,2020.1.3,Win32,60,Chrome,1536,864,,,,,,,,,,,,,,,,,,,,,,,,,,,,,,,,,,,,,,,,,,,,,,,,,,,,,,,,,,,,,,,,,,,,,,,,,,,,,,,,,,,,,,,,,,,,,,,,,,
,,,,,68,2020-07-04_18h58.28.036,retriever_ti,2020.1.3,Win32,60,Chrome,1536,864,296.05377,1,right,1.62315,canary,1,296.073375,296.073375,298.56492,0,0,0,0,1,2,5,1,html/resources/stimuli_practice_decision/04_beetle.jpg,html/resources/stimuli_practice_decision/02_canary.jpg,beetle,canary,,,,,,,,,,,,,,,,,,,,,,,,,,,,,,,,,,,,,,,,,,,,,,,,,,,,,,,,,,,,,,,,,,,,,,,,,,,,,
,,,,,68,2020-07-04_18h58.28.036,retriever_ti,2020.1.3,Win32,60,Chrome,1536,864,299.096885,2,left,2.07663,rabbit,1,299.109395,299.109395,301.59859,0,1,1,1,1,4,3,1,html/resources/stimuli_practice_decision/01_rabbit.jpg,html/resources/stimuli_practice_decision/07_sock.jpg,rabbit,sock,,,,,,,,,,,,,,,,,,,,,,,,,,,,,,,,,,,,,,,,,,,,,,,,,,,,,,,,,,,,,,,,,,,,,,,,,,,,,
,,,,,68,2020-07-04_18h58.28.036,retriever_ti,2020.1.3,Win32,60,Chrome,1536,864,302.592135,3,right,2.305605,beetle,0,302.60595,302.60595,305.098065,0,2,2,2,1,6,2,1,html/resources/stimuli_practice_decision/06_pullover.jpg,html/resources/stimuli_practice_decision/04_beetle.jpg,pullover,beetle,,,,,,,,,,,,,,,,,,,,,,,,,,,,,,,,,,,,,,,,,,,,,,,,,,,,,,,,,,,,,,,,,,,,,,,,,,,,,
,,,,,68,2020-07-04_18h58.28.036,retriever_ti,2020.1.3,Win32,60,Chrome,1536,864,305.60493,4,NaN,NaN,No_response,2,305.612235,305.612235,308.104445,0,3,3,3,1,7,1,1,html/resources/stimuli_practice_decision/05_glasses.jpg,html/resources/stimuli_practice_decision/08_handmixer.jpg,glasses,handmixer,,,,,,,,,,,,,,,,,,,,,,,,,,,,,,,,,,,,,,,,,,,,,,,,,,,,,,,,,,,,,,,,,,,,,,,,,,,,,
,,,,,68,2020-07-04_18h58.28.036,retriever_ti,2020.1.3,Win32,60,Chrome,1536,864,308.611545,5,right,0.36608,pullover,0,308.61875,308.61875,311.11072,0,4,4,4,1,7,6,1,html/resources/stimuli_practice_decision/05_glasses.jpg,html/resources/stimuli_practice_decision/06_pullover.jpg,glasses,pullover,,,,,,,,,,,,,,,,,,,,,,,,,,,,,,,,,,,,,,,,,,,,,,,,,,,,,,,,,,,,,,,,,,,,,,,,,,,,,
,,,,,68,2020-07-04_18h58.28.036,retriever_ti,2020.1.3,Win32,60,Chrome,1536,864,312.103715,6,left,1.74037,rabbit,0,312.11812,312.11812,314.610045,0,5,5,5,1,4,7,1,html/resources/stimuli_practice_decision/01_rabbit.jpg,html/resources/stimuli_practice_decision/05_glasses.jpg,rabbit,glasses,,,,,,,,,,,,,,,,,,,,,,,,,,,,,,,,,,,,,,,,,,,,,,,,,,,,,,,,,,,,,,,,,,,,,,,,,,,,,
,,,,,68,2020-07-04_18h58.28.036,retriever_ti,2020.1.3,Win32,60,Chrome,1536,864,315.11067,7,left,2.095725,handmixer,0,315.117135,315.117135,317.609345,0,6,6,6,1,1,2,1,html/resources/stimuli_practice_decision/08_handmixer.jpg,html/resources/stimuli_practice_decision/04_beetle.jpg,handmixer,beetle,,,,,,,,,,,,,,,,,,,,,,,,,,,,,,,,,,,,,,,,,,,,,,,,,,,,,,,,,,,,,,,,,,,,,,,,,,,,,
,,,,,68,2020-07-04_18h58.28.036,retriever_ti,2020.1.3,Win32,60,Chrome,1536,864,318.60227,8,NaN,NaN,No_response,2,318.616475,318.616475,321.108665,0,7,7,7,1,4,3,1,html/resources/stimuli_practice_decision/01_rabbit.jpg,html/resources/stimuli_practice_decision/07_sock.jpg,rabbit,sock,,,,,,,,,,,,,,,,,,,,,,,,,,,,,,,,,,,,,,,,,,,,,,,,,,,,,,,,,,,,,,,,,,,,,,,,,,,,,
,,,,,68,2020-07-04_18h58.28.036,retriever_ti,2020.1.3,Win32,60,Chrome,1536,864,,,,,,,,,,,,,,,,,,,,,,up,1,2.274365,1,0,0,0,0,1,html/resources/sequences_IDs/circle.png,circle ↑,square →,triangle ↓,← star ,up,,,,,,,,,,,,,,,,,,,,,,,,,,,,,,,,,,,,,,,,,,,,,,,,,,,,,,,,,,,,,,
,,,,,68,2020-07-04_18h58.28.036,retriever_ti,2020.1.3,Win32,60,Chrome,1536,864,,,,,,,,,,,,,,,,,,,,,,down,1,1.464625,1,0,1,1,1,1,html/resources/sequences_IDs/star.png,square ↑,circle →,star ↓,← triangle,down,,,,,,,,,,,,,,,,,,,,,,,,,,,,,,,,,,,,,,,,,,,,,,,,,,,,,,,,,,,,,,
,,,,,68,2020-07-04_18h58.28.036,retriever_ti,2020.1.3,Win32,60,Chrome,1536,864,,,,,,,,,,,,,,,,,,,,,,down,1,1.363065,1,0,2,2,3,1,html/resources/sequences_IDs/triangle.png,star ↑,square →,triangle ↓,← circle,down,,,,,,,,,,,,,,,,,,,,,,,,,,,,,,,,,,,,,,,,,,,,,,,,,,,,,,,,,,,,,,
,,,,,68,2020-07-04_18h58.28.036,retriever_ti,2020.1.3,Win32,60,Chrome,1536,864,,,,,,,,,,,,,,,,,,,,,,left,1,1.91439,1,0,3,3,2,1,html/resources/sequences_IDs/square1.png,star ↑,triangle →,circle ↓,← square,left,,,,,,,,,,,,,,,,,,,,,,,,,,,,,,,,,,,,,,,,,,,,,,,,,,,,,,,,,,,,,,
,,,,,68,2020-07-04_18h58.28.036,retriever_ti,2020.1.3,Win32,60,Chrome,1536,864,,,,,,,,,,,,,,,,,,,,,,,,,,,,,,,,,,,,,0,16.52033,0,0,0,0,1,,,,,,,,,,,,,,,,,,,,,,,,,,,,,,,,,,,,,,,,,,,,,,,,,,,,,,,
,,,,,68,2020-07-04_18h58.28.036,retriever_ti,2020.1.3,Win32,60,Chrome,1536,864,353.00668,9,right,1.12378,glasses,1,353.019185,353.019185,355.51142,0,0,0,0,1,6,7,1,html/resources/stimuli_practice_decision/06_pullover.jpg,html/resources/stimuli_practice_decision/05_glasses.jpg,pullover,glasses,,,,,,,,,,,,,,,,,,,,,,,,,,,,,,,,,,,,,,,,,,,,,,,,,,,,,,,,,,,,,,,,,,,,,,,,,,,,,
,,,,,68,2020-07-04_18h58.28.036,retriever_ti,2020.1.3,Win32,60,Chrome,1536,864,356.50447,10,left,1.076095,pullover,1,356.5122,356.5122,359.00366,0,1,1,1,1,6,2,1,html/resources/stimuli_practice_decision/06_pullover.jpg,html/resources/stimuli_practice_decision/04_beetle.jpg,pullover,beetle,,,,,,,,,,,,,,,,,,,,,,,,,,,,,,,,,,,,,,,,,,,,,,,,,,,,,,,,,,,,,,,,,,,,,,,,,,,,,
,,,,,68,2020-07-04_18h58.28.036,retriever_ti,2020.1.3,Win32,60,Chrome,1536,864,359.5118,11,left,1.49164,canary,0,359.525075,359.525075,362.017145,0,2,2,2,1,5,6,1,html/resources/stimuli_practice_decision/02_canary.jpg,html/resources/stimuli_practice_decision/06_pullover.jpg,canary,pullover,,,,,,,,,,,,,,,,,,,,,,,,,,,,,,,,,,,,,,,,,,,,,,,,,,,,,,,,,,,,,,,,,,,,,,,,,,,,,
,,,,,68,2020-07-04_18h58.28.036,retriever_ti,2020.1.3,Win32,60,Chrome,1536,864,363.0099,12,right,1.33929,glasses,0,363.017295,363.017295,365.509245,0,3,3,3,1,8,7,1,html/resources/stimuli_practice_decision/03_squirrel.jpg,html/resources/stimuli_practice_decision/05_glasses.jpg,squirrel,glasses,,,,,,,,,,,,,,,,,,,,,,,,,,,,,,,,,,,,,,,,,,,,,,,,,,,,,,,,,,,,,,,,,,,,,,,,,,,,,
,,,,,68,2020-07-04_18h58.28.036,retriever_ti,2020.1.3,Win32,60,Chrome,1536,864,366.502675,13,left,1.35179,canary,1,366.51657,366.51657,369.00877,0,4,4,4,1,5,3,1,html/resources/stimuli_practice_decision/02_canary.jpg,html/resources/stimuli_practice_decision/07_sock.jpg,canary,sock,,,,,,,,,,,,,,,,,,,,,,,,,,,,,,,,,,,,,,,,,,,,,,,,,,,,,,,,,,,,,,,,,,,,,,,,,,,,,
,,,,,68,2020-07-04_18h58.28.036,retriever_ti,2020.1.3,Win32,60,Chrome,1536,864,369.515735,14,left,1.25489,glasses,0,369.529815,369.529815,372.021865,0,5,5,5,1,7,8,1,html/resources/stimuli_practice_decision/05_glasses.jpg,html/resources/stimuli_practice_decision/03_squirrel.jpg,glasses,squirrel,,,,,,,,,,,,,,,,,,,,,,,,,,,,,,,,,,,,,,,,,,,,,,,,,,,,,,,,,,,,,,,,,,,,,,,,,,,,,
,,,,,68,2020-07-04_18h58.28.036,retriever_ti,2020.1.3,Win32,60,Chrome,1536,864,373.015555,15,right,1.324225,rabbit,0,373.0291,373.0291,375.521235,0,6,6,6,1,5,4,1,html/resources/stimuli_practice_decision/02_canary.jpg,html/resources/stimuli_practice_decision/01_rabbit.jpg,canary,rabbit,,,,,,,,,,,,,,,,,,,,,,,,,,,,,,,,,,,,,,,,,,,,,,,,,,,,,,,,,,,,,,,,,,,,,,,,,,,,,
,,,,,68,2020-07-04_18h58.28.036,retriever_ti,2020.1.3,Win32,60,Chrome,1536,864,376.514345,16,left,1.240655,canary,1,376.521575,376.521575,379.01361,0,7,7,7,1,5,3,1,html/resources/stimuli_practice_decision/02_canary.jpg,html/resources/stimuli_practice_decision/07_sock.jpg,canary,sock,,,,,,,,,,,,,,,,,,,,,,,,,,,,,,,,,,,,,,,,,,,,,,,,,,,,,,,,,,,,,,,,,,,,,,,,,,,,,
,,,,,68,2020-07-04_18h58.28.036,retriever_ti,2020.1.3,Win32,60,Chrome,1536,864,,,,,,,,,,,,,,,,,,,,,,down,1,2.53185,1,0,0,0,3,1,html/resources/sequences_IDs/triangle.png,star ↑,square →,triangle ↓,← circle,down,,,,,,,,,,,,,,,,,,,,,,,,,,,,,,,,,,,,,,,,,,,,,,,,,,,,,,,,,,,,,,
,,,,,68,2020-07-04_18h58.28.036,retriever_ti,2020.1.3,Win32,60,Chrome,1536,864,,,,,,,,,,,,,,,,,,,,,,down,1,1.145685,1,0,1,1,1,1,html/resources/sequences_IDs/star.png,square ↑,circle →,star ↓,← triangle,down,,,,,,,,,,,,,,,,,,,,,,,,,,,,,,,,,,,,,,,,,,,,,,,,,,,,,,,,,,,,,,
,,,,,68,2020-07-04_18h58.28.036,retriever_ti,2020.1.3,Win32,60,Chrome,1536,864,,,,,,,,,,,,,,,,,,,,,,left,1,2.327795,1,0,2,2,2,1,html/resources/sequences_IDs/square1.png,star ↑,triangle →,circle ↓,← square,left,,,,,,,,,,,,,,,,,,,,,,,,,,,,,,,,,,,,,,,,,,,,,,,,,,,,,,,,,,,,,,
,,,,,68,2020-07-04_18h58.28.036,retriever_ti,2020.1.3,Win32,60,Chrome,1536,864,,,,,,,,,,,,,,,,,,,,,,up,1,0.81326,1,0,3,3,0,1,html/resources/sequences_IDs/circle.png,circle ↑,square →,triangle ↓,← star ,up,,,,,,,,,,,,,,,,,,,,,,,,,,,,,,,,,,,,,,,,,,,,,,,,,,,,,,,,,,,,,,
,,,,,68,2020-07-04_18h58.28.036,retriever_ti,2020.1.3,Win32,60,Chrome,1536,864,,,,,,,,,,,,,,,,,,,,,,,,,,,,,,,,,,,,,0,3.998625,1,0,1,0,1,,,,,,,,,,,,,,,,,,,,,,,,,,,,,,,,,,,,,,,,,,,,,,,,,,,,,,,
,,,,,68,2020-07-04_18h58.28.036,retriever_ti,2020.1.3,Win32,60,Chrome,1536,864,,,,,,,,,,,,,,,,,1,,,,,,,,,,,,,,,,,,,,,,,,,,,404.66247,1,right,0.995485,redfox      ,5,1,1,1,1,404.67557,404.67557,407.168015,0,0,0,0,1,1,4,5,scarf         ,redfox      ,html/resources/sequences_IDs/A/06_scarf.jpg,html/resources/sequences_IDs/B/01_redfox.jpg,6,1,3,2,1,1,5,1,0,68,,,,,,,,,,,,,,,,,,,,
,,,,,68,2020-07-04_18h58.28.036,retriever_ti,2020.1.3,Win32,60,Chrome,1536,864,,,,,,,,,,,,,,,,,1,,,,,,,,,,,,,,,,,,,,,,,,,,,408.25794,2,left,0.74213,giraffe     ,1,3,-2,0,3,408.27205,408.27205,410.76405,0,1,1,1,1,2,1,3,giraffe     ,slipper     ,html/resources/sequences_IDs/B/03_giraffe.jpg,html/resources/sequences_IDs/B/08_slipper.jpg,3,8,1,1,3,2,3,7,0,68,,,,,,,,,,,,,,,,,,,,
,,,,,68,2020-07-04_18h58.28.036,retriever_ti,2020.1.3,Win32,60,Chrome,1536,864,,,,,,,,,,,,,,,,,1,,,,,,,,,,,,,,,,,,,,,,,,,,,411.36878,3,right,1.069415,seaturtle     ,6,2,2,1,3,411.37542,411.37542,413.867425,0,2,2,2,1,3,4,6,scarf         ,seaturtle     ,html/resources/sequences_IDs/A/06_scarf.jpg,html/resources/sequences_IDs/A/02_seaturtle.jpg,6,2,3,2,2,1,5,2,0,68,,,,,,,,,,,,,,,,,,,,
,,,,,68,2020-07-04_18h58.28.036,retriever_ti,2020.1.3,Win32,60,Chrome,1536,864,,,,,,,,,,,,,,,,,1,,,,,,,,,,,,,,,,,,,,,,,,,,,414.471805,4,left,1.472395,giraffe     ,1,3,-1,0,0,414.48623,414.48623,416.978095,0,3,3,3,1,4,1,2,giraffe     ,clownfish     ,html/resources/sequences_IDs/B/03_giraffe.jpg,html/resources/sequences_IDs/A/04_clownfish.jpg,3,4,1,1,2,1,3,4,0,68,,,,,,,,,,,,,,,,,,,,
,,,,,68,2020-07-04_18h58.28.036,retriever_ti,2020.1.3,Win32,60,Chrome,1536,864,,,,,,,,,,,,,,,,,1,,,,,,,,,,,,,,,,,,,,,,,,,,,418.06853,5,left,1.353995,seaturtle     ,6,2,-1,0,0,418.08246,418.08246,420.57443,0,4,4,4,1,5,6,7,seaturtle     ,radio       ,html/resources/sequences_IDs/A/02_seaturtle.jpg,html/resources/sequences_IDs/B/10_radio.jpg,2,10,2,1,4,2,2,8,0,68,,,,,,,,,,,,,,,,,,,,
,,,,,68,2020-07-04_18h58.28.036,retriever_ti,2020.1.3,Win32,60,Chrome,1536,864,,,,,,,,,,,,,,,,,1,,,,,,,,,,,,,,,,,,,,,,,,,,,421.66486,6,right,1.31156,giraffe     ,1,3,-4,0,3,421.67226,421.67226,424.16416,0,5,5,5,1,6,5,1,redfox      ,giraffe     ,html/resources/sequences_IDs/B/01_redfox.jpg,html/resources/sequences_IDs/B/03_giraffe.jpg,1,3,1,1,1,1,1,3,0,68,,,,,,,,,,,,,,,,,,,,
,,,,,68,2020-07-04_18h58.28.036,retriever_ti,2020.1.3,Win32,60,Chrome,1536,864,,,,,,,,,,,,,,,,,1,,,,,,,,,,,,,,,,,,,,,,,,,,,424.76898,7,left,1.283795,dress         ,8,7,5,1,3,424.78292,424.78292,427.274495,0,6,6,6,1,7,8,3,dress         ,slipper     ,html/resources/sequences_IDs/A/07_dress.jpg,html/resources/sequences_IDs/B/08_slipper.jpg,7,8,3,2,3,2,6,7,0,68,,,,,,,,,,,,,,,,,,,,
,,,,,68,2020-07-04_18h58.28.036,retriever_ti,2020.1.3,Win32,60,Chrome,1536,864,,,,,,,,,,,,,,,,,1,,,,,,,,,,,,,,,,,,,,,,,,,,,427.87881,8,left,2.266345,seaturtle     ,6,2,3,1,3,427.893425,427.893425,430.38511,0,7,7,7,1,8,6,3,seaturtle     ,slipper     ,html/resources/sequences_IDs/A/02_seaturtle.jpg,html/resources/sequences_IDs/B/08_slipper.jpg,2,8,2,1,3,2,2,7,0,68,,,,,,,,,,,,,,,,,,,,
,,,,,68,2020-07-04_18h58.28.036,retriever_ti,2020.1.3,Win32,60,Chrome,1536,864,,,,,,,,,,,,,,,,,1,,,,,,,,,,,,,,,,,,,,,,,,,,,430.98954,9,right,1.321115,seaturtle     ,6,2,-1,0,0,431.003455,431.003455,433.496565,0,8,8,8,1,9,7,6,radio       ,seaturtle     ,html/resources/sequences_IDs/B/10_radio.jpg,html/resources/sequences_IDs/A/02_seaturtle.jpg,10,2,4,2,2,1,8,2,0,68,,,,,,,,,,,,,,,,,,,,
,,,,,68,2020-07-04_18h58.28.036,retriever_ti,2020.1.3,Win32,60,Chrome,1536,864,,,,,,,,,,,,,,,,,1,,,,,,,,,,,,,,,,,,,,,,,,,,,434.585705,10,left,1.875895,scarf         ,4,6,1,1,1,434.593045,434.593045,437.085105,0,9,9,9,1,10,4,3,scarf         ,slipper     ,html/resources/sequences_IDs/A/06_scarf.jpg,html/resources/sequences_IDs/B/08_slipper.jpg,6,8,3,2,3,2,5,7,0,68,,,,,,,,,,,,,,,,,,,,
,,,,,68,2020-07-04_18h58.28.036,retriever_ti,2020.1.3,Win32,60,Chrome,1536,864,,,,,,,,,,,,,,,,,1,,,,,,,,,,,,,,,,,,,,,,,,,,,438.175655,11,left,1.574785,clownfish     ,2,4,-1,0,0,438.18249,438.18249,440.674635,0,10,10,10,1,11,2,3,clownfish     ,slipper     ,html/resources/sequences_IDs/A/04_clownfish.jpg,html/resources/sequences_IDs/B/08_slipper.jpg,4,8,2,1,3,2,4,7,0,68,,,,,,,,,,,,,,,,,,,,
,,,,,68,2020-07-04_18h58.28.036,retriever_ti,2020.1.3,Win32,60,Chrome,1536,864,,,,,,,,,,,,,,,,,1,,,,,,,,,,,,,,,,,,,,,,,,,,,441.76489,12,left,1.56131,radio       ,7,10,2,1,3,441.772085,441.772085,444.2642,0,11,11,11,1,12,7,5,radio       ,redfox      ,html/resources/sequences_IDs/B/10_radio.jpg,html/resources/sequences_IDs/B/01_redfox.jpg,10,1,4,2,1,1,8,1,0,68,,,,,,,,,,,,,,,,,,,,
,,,,,68,2020-07-04_18h58.28.036,retriever_ti,2020.1.3,Win32,60,Chrome,1536,864,,,,,,,,,,,,,,,,,1,,,,,,,,,,,,,,,,,,,,,,,,,,,444.868485,13,right,2.024795,seaturtle     ,6,2,1,1,1,444.88244,444.88244,447.37468,0,12,12,12,1,13,5,6,redfox      ,seaturtle     ,html/resources/sequences_IDs/B/01_redfox.jpg,html/resources/sequences_IDs/A/02_seaturtle.jpg,1,2,1,1,2,1,1,2,0,68,,,,,,,,,,,,,,,,,,,,
,,,,,68,2020-07-04_18h58.28.036,retriever_ti,2020.1.3,Win32,60,Chrome,1536,864,,,,,,,,,,,,,,,,,1,,,,,,,,,,,,,,,,,,,,,,,,,,,448.464875,14,left,1.40126,seaturtle     ,6,2,1,1,1,448.479105,448.479105,450.97121,0,13,13,13,1,14,6,5,seaturtle     ,redfox      ,html/resources/sequences_IDs/A/02_seaturtle.jpg,html/resources/sequences_IDs/B/01_redfox.jpg,2,1,2,1,1,1,2,1,0,68,,,,,,,,,,,,,,,,,,,,
,,,,,68,2020-07-04_18h58.28.036,retriever_ti,2020.1.3,Win32,60,Chrome,1536,864,,,,,,,,,,,,,,,,,1,,,,,,,,,,,,,,,,,,,,,,,,,,,452.06214,15,left,1.300355,dress         ,8,7,1,1,0,452.07604,452.07604,454.56766,0,14,14,14,1,15,8,7,dress         ,radio       ,html/resources/sequences_IDs/A/07_dress.jpg,html/resources/sequences_IDs/B/10_radio.jpg,7,10,3,2,4,2,6,8,1,68,,,,,,,,,,,,,,,,,,,,
,,,,,68,2020-07-04_18h58.28.036,retriever_ti,2020.1.3,Win32,60,Chrome,1536,864,,,,,,,,,,,,,,,,,1,,,,,,,,,,,,,,,,,,,,,,,,,,,455.657795,16,right,2.263715,seaturtle     ,6,2,1,1,0,455.672005,455.672005,458.16403,0,15,15,15,1,16,5,6,redfox      ,seaturtle     ,html/resources/sequences_IDs/B/01_redfox.jpg,html/resources/sequences_IDs/A/02_seaturtle.jpg,1,2,1,1,2,1,1,2,1,68,,,,,,,,,,,,,,,,,,,,
,,,,,68,2020-07-04_18h58.28.036,retriever_ti,2020.1.3,Win32,60,Chrome,1536,864,,,,,,,,,,,,,,,,,1,,,,,,,,,,,,,,,,,,,,,,,,,,,459.254965,17,left,2.170295,redfox      ,5,1,1,1,1,459.26162,459.26162,461.75357,0,16,16,16,1,17,5,4,redfox      ,scarf         ,html/resources/sequences_IDs/B/01_redfox.jpg,html/resources/sequences_IDs/A/06_scarf.jpg,1,6,1,1,3,2,1,5,0,68,,,,,,,,,,,,,,,,,,,,
,,,,,68,2020-07-04_18h58.28.036,retriever_ti,2020.1.3,Win32,60,Chrome,1536,864,,,,,,,,,,,,,,,,,1,,,,,,,,,,,,,,,,,,,,,,,,,,,462.84395,18,right,1.294185,radio       ,7,10,4,1,3,462.851325,462.851325,465.343225,0,17,17,17,1,18,3,7,slipper     ,radio       ,html/resources/sequences_IDs/B/08_slipper.jpg,html/resources/sequences_IDs/B/10_radio.jpg,8,10,3,2,4,2,7,8,0,68,,,,,,,,,,,,,,,,,,,,
,,,,,68,2020-07-04_18h58.28.036,retriever_ti,2020.1.3,Win32,60,Chrome,1536,864,,,,,,,,,,,,,,,,,1,,,,,,,,,,,,,,,,,,,,,,,,,,,465.94761,19,left,1.69838,radio       ,7,10,5,1,3,465.9616,465.9616,468.4536,0,18,18,18,1,19,7,2,radio       ,clownfish     ,html/resources/sequences_IDs/B/10_radio.jpg,html/resources/sequences_IDs/A/04_clownfish.jpg,10,4,4,2,2,1,8,4,0,68,,,,,,,,,,,,,,,,,,,,
,,,,,68,2020-07-04_18h58.28.036,retriever_ti,2020.1.3,Win32,60,Chrome,1536,864,,,,,,,,,,,,,,,,,1,,,,,,,,,,,,,,,,,,,,,,,,,,,469.057905,20,left,1.480465,radio       ,7,10,1,1,1,469.06508,469.06508,471.55721,0,19,19,19,1,20,7,6,radio       ,seaturtle     ,html/resources/sequences_IDs/B/10_radio.jpg,html/resources/sequences_IDs/A/02_seaturtle.jpg,10,2,4,2,2,1,8,2,0,68,,,,,,,,,,,,,,,,,,,,
,,,,,68,2020-07-04_18h58.28.036,retriever_ti,2020.1.3,Win32,60,Chrome,1536,864,,,,,,,,,,,,,,,,,1,,,,,,,,,,,,,,,,,,,,,,,,,,,472.647695,21,left,1.553345,radio       ,7,10,3,1,3,472.661825,472.661825,475.153755,0,20,20,20,1,21,7,4,radio       ,scarf         ,html/resources/sequences_IDs/B/10_radio.jpg,html/resources/sequences_IDs/A/06_scarf.jpg,10,6,4,2,3,2,8,5,0,68,,,,,,,,,,,,,,,,,,,,
,,,,,68,2020-07-04_18h58.28.036,retriever_ti,2020.1.3,Win32,60,Chrome,1536,864,,,,,,,,,,,,,,,,,1,,,,,,,,,,,,,,,,,,,,,,,,,,,475.758045,22,right,1.024935,giraffe     ,1,3,-6,0,3,475.772085,475.772085,478.26422,0,21,21,21,1,22,7,1,radio       ,giraffe     ,html/resources/sequences_IDs/B/10_radio.jpg,html/resources/sequences_IDs/B/03_giraffe.jpg,10,3,4,2,1,1,8,3,0,68,,,,,,,,,,,,,,,,,,,,
,,,,,68,2020-07-04_18h58.28.036,retriever_ti,2020.1.3,Win32,60,Chrome,1536,864,,,,,,,,,,,,,,,,,1,,,,,,,,,,,,,,,,,,,,,,,,,,,478.868615,23,left,1.548875,seaturtle     ,6,2,2,1,3,478.875465,478.875465,481.36764,0,22,22,22,1,23,6,4,seaturtle     ,scarf         ,html/resources/sequences_IDs/A/02_seaturtle.jpg,html/resources/sequences_IDs/A/06_scarf.jpg,2,6,2,1,3,2,2,5,0,68,,,,,,,,,,,,,,,,,,,,
,,,,,68,2020-07-04_18h58.28.036,retriever_ti,2020.1.3,Win32,60,Chrome,1536,864,,,,,,,,,,,,,,,,,1,,,,,,,,,,,,,,,,,,,,,,,,,,,481.9719,24,left,1.175355,scarf         ,4,6,1,1,1,481.979065,481.979065,484.471335,0,23,23,23,1,24,4,3,scarf         ,slipper     ,html/resources/sequences_IDs/A/06_scarf.jpg,html/resources/sequences_IDs/B/08_slipper.jpg,6,8,3,2,3,2,5,7,0,68,,,,,,,,,,,,,,,,,,,,
,,,,,68,2020-07-04_18h58.28.036,retriever_ti,2020.1.3,Win32,60,Chrome,1536,864,,,,,,,,,,,,,,,,,1,,,,,,,,,,,,,,,,,,,,,,,,,,,485.56163,25,left,1.287325,redfox      ,5,1,2,1,3,485.57582,485.57582,488.067665,0,24,24,24,1,25,5,3,redfox      ,slipper     ,html/resources/sequences_IDs/B/01_redfox.jpg,html/resources/sequences_IDs/B/08_slipper.jpg,1,8,1,1,3,2,1,7,0,68,,,,,,,,,,,,,,,,,,,,
,,,,,68,2020-07-04_18h58.28.036,retriever_ti,2020.1.3,Win32,60,Chrome,1536,864,,,,,,,,,,,,,,,,,1,,,,,,,,,,,,,,,,,,,,,,,,,,,488.67201,26,left,1.35649,slipper     ,3,8,1,1,1,488.686225,488.686225,491.178115,0,25,25,25,1,26,3,2,slipper     ,clownfish     ,html/resources/sequences_IDs/B/08_slipper.jpg,html/resources/sequences_IDs/A/04_clownfish.jpg,8,4,3,2,2,1,7,4,0,68,,,,,,,,,,,,,,,,,,,,
,,,,,68,2020-07-04_18h58.28.036,retriever_ti,2020.1.3,Win32,60,Chrome,1536,864,,,,,,,,,,,,,,,,,1,,,,,,,,,,,,,,,,,,,,,,,,,,,492.26883,27,right,2.106785,radio       ,7,10,1,1,0,492.275675,492.275675,494.767835,0,26,26,26,1,27,6,7,seaturtle     ,radio       ,html/resources/sequences_IDs/A/02_seaturtle.jpg,html/resources/sequences_IDs/B/10_radio.jpg,2,10,2,1,4,2,2,8,1,68,,,,,,,,,,,,,,,,,,,,
,,,,,68,2020-07-04_18h58.28.036,retriever_ti,2020.1.3,Win32,60,Chrome,1536,864,,,,,,,,,,,,,,,,,1,,,,,,,,,,,,,,,,,,,,,,,,,,,495.858065,28,right,0.881675,seaturtle     ,6,2,3,1,3,495.872205,495.872205,498.36429,0,27,27,27,1,28,3,6,slipper     ,seaturtle     ,html/resources/sequences_IDs/B/08_slipper.jpg,html/resources/sequences_IDs/A/02_seaturtle.jpg,8,2,3,2,2,1,7,2,0,68,,,,,,,,,,,,,,,,,,,,
,,,,,68,2020-07-04_18h58.28.036,retriever_ti,2020.1.3,Win32,60,Chrome,1536,864,,,,,,,,,,,,,,,,,1,,,,,,,,,,,,,,,,,,,,,,,,,,,498.96882,29,right,1.09346,giraffe     ,1,3,-5,0,3,498.982575,498.982575,501.474635,0,28,28,28,1,29,6,1,seaturtle     ,giraffe     ,html/resources/sequences_IDs/A/02_seaturtle.jpg,html/resources/sequences_IDs/B/03_giraffe.jpg,2,3,2,1,1,1,2,3,0,68,,,,,,,,,,,,,,,,,,,,
,,,,,68,2020-07-04_18h58.28.036,retriever_ti,2020.1.3,Win32,60,Chrome,1536,864,,,,,,,,,,,,,,,,,1,,,,,,,,,,,,,,,,,,,,,,,,,,,502.07907,30,right,1.16173,giraffe     ,1,3,-2,0,3,502.08622,502.08622,504.5782,0,29,29,29,1,30,3,1,slipper     ,giraffe     ,html/resources/sequences_IDs/B/08_slipper.jpg,html/resources/sequences_IDs/B/03_giraffe.jpg,8,3,3,2,1,1,7,3,0,68,,,,,,,,,,,,,,,,,,,,
,,,,,68,2020-07-04_18h58.28.036,retriever_ti,2020.1.3,Win32,60,Chrome,1536,864,,,,,,,,,,,,,,,,,1,,,,,,,,,,,,,,,,,,,,,,,,,,,505.183185,31,right,2.06541,seaturtle     ,6,2,-2,0,3,505.19658,505.19658,507.688855,0,30,30,30,1,31,8,6,dress         ,seaturtle     ,html/resources/sequences_IDs/A/07_dress.jpg,html/resources/sequences_IDs/A/02_seaturtle.jpg,7,2,3,2,2,1,6,2,0,68,,,,,,,,,,,,,,,,,,,,
,,,,,68,2020-07-04_18h58.28.036,retriever_ti,2020.1.3,Win32,60,Chrome,1536,864,,,,,,,,,,,,,,,,,1,,,,,,,,,,,,,,,,,,,,,,,,,,,508.29342,32,right,1.08154,giraffe     ,1,3,-7,0,3,508.307205,508.307205,510.79933,0,31,31,31,1,32,8,1,dress         ,giraffe     ,html/resources/sequences_IDs/A/07_dress.jpg,html/resources/sequences_IDs/B/03_giraffe.jpg,7,3,3,2,1,1,6,3,0,68,,,,,,,,,,,,,,,,,,,,
,,,,,68,2020-07-04_18h58.28.036,retriever_ti,2020.1.3,Win32,60,Chrome,1536,864,,,,,,,,,,,,,,,,,1,,,,,,,,,,,,,,,,,,,,,,,,,,,511.403915,33,left,1.443975,giraffe     ,1,3,-6,0,3,511.410595,511.410595,513.903245,0,32,32,32,1,33,1,7,giraffe     ,radio       ,html/resources/sequences_IDs/B/03_giraffe.jpg,html/resources/sequences_IDs/B/10_radio.jpg,3,10,1,1,4,2,3,8,0,68,,,,,,,,,,,,,,,,,,,,
,,,,,68,2020-07-04_18h58.28.036,retriever_ti,2020.1.3,Win32,60,Chrome,1536,864,,,,,,,,,,,,,,,,,1,,,,,,,,,,,,,,,,,,,,,,,,,,,514.50705,34,right,1.725235,seaturtle     ,6,2,1,1,1,514.52113,514.52113,517.01313,0,33,33,33,1,34,5,6,redfox      ,seaturtle     ,html/resources/sequences_IDs/B/01_redfox.jpg,html/resources/sequences_IDs/A/02_seaturtle.jpg,1,2,1,1,2,1,1,2,0,68,,,,,,,,,,,,,,,,,,,,
,,,,,68,2020-07-04_18h58.28.036,retriever_ti,2020.1.3,Win32,60,Chrome,1536,864,,,,,,,,,,,,,,,,,1,,,,,,,,,,,,,,,,,,,,,,,,,,,518.104215,35,right,2.08309,redfox      ,5,1,-3,0,3,518.117745,518.117745,520.60981,0,34,34,34,1,35,8,5,dress         ,redfox      ,html/resources/sequences_IDs/A/07_dress.jpg,html/resources/sequences_IDs/B/01_redfox.jpg,7,1,3,2,1,1,6,1,0,68,,,,,,,,,,,,,,,,,,,,
,,,,,68,2020-07-04_18h58.28.036,retriever_ti,2020.1.3,Win32,60,Chrome,1536,864,,,,,,,,,,,,,,,,,1,,,,,,,,,,,,,,,,,,,,,,,,,,,521.21441,36,left,2.04179,radio       ,7,10,4,1,3,521.2281,521.2281,523.72025,0,35,35,35,1,36,7,3,radio       ,slipper     ,html/resources/sequences_IDs/B/10_radio.jpg,html/resources/sequences_IDs/B/08_slipper.jpg,10,8,4,2,3,2,8,7,0,68,,,,,,,,,,,,,,,,,,,,
,,,,,68,2020-07-04_18h58.28.036,retriever_ti,2020.1.3,Win32,60,Chrome,1536,864,,,,,,,,,,,,,,,,,1,,,,,,,,,,,,,,,,,,,,,,,,,,,524.32465,37,right,1.178845,redfox      ,5,1,2,1,3,524.338655,524.338655,526.830825,0,36,36,36,1,37,3,5,slipper     ,redfox      ,html/resources/sequences_IDs/B/08_slipper.jpg,html/resources/sequences_IDs/B/01_redfox.jpg,8,1,3,2,1,1,7,1,0,68,,,,,,,,,,,,,,,,,,,,
,,,,,68,2020-07-04_18h58.28.036,retriever_ti,2020.1.3,Win32,60,Chrome,1536,864,,,,,,,,,,,,,,,,,1,,,,,,,,,,,,,,,,,,,,,,,,,,,527.434865,38,right,0.94245,slipper     ,3,8,-1,0,1,527.442095,527.442095,529.934205,0,37,37,37,1,38,4,3,scarf         ,slipper     ,html/resources/sequences_IDs/A/06_scarf.jpg,html/resources/sequences_IDs/B/08_slipper.jpg,6,8,3,2,3,2,5,7,1,68,,,,,,,,,,,,,,,,,,,,
,,,,,68,2020-07-04_18h58.28.036,retriever_ti,2020.1.3,Win32,60,Chrome,1536,864,,,,,,,,,,,,,,,,,1,,,,,,,,,,,,,,,,,,,,,,,,,,,531.02479,39,left,1.90159,radio       ,7,10,-1,0,0,531.031525,531.031525,533.52388,0,38,38,38,1,39,7,8,radio       ,dress         ,html/resources/sequences_IDs/B/10_radio.jpg,html/resources/sequences_IDs/A/07_dress.jpg,10,7,4,2,3,2,8,6,0,68,,,,,,,,,,,,,,,,,,,,
,,,,,68,2020-07-04_18h58.28.036,retriever_ti,2020.1.3,Win32,60,Chrome,1536,864,,,,,,,,,,,,,,,,,1,,,,,,,,,,,,,,,,,,,,,,,,,,,534.6141,40,right,1.883995,redfox      ,5,1,1,1,1,534.62833,534.62833,537.120175,0,39,39,39,1,40,4,5,scarf         ,redfox      ,html/resources/sequences_IDs/A/06_scarf.jpg,html/resources/sequences_IDs/B/01_redfox.jpg,6,1,3,2,1,1,5,1,0,68,,,,,,,,,,,,,,,,,,,,
,,,,,68,2020-07-04_18h58.28.036,retriever_ti,2020.1.3,Win32,60,Chrome,1536,864,,,,,,,,,,,,,,,,,1,,,,,,,,,,,,,,,,,,,,,,,,,,,538.21085,41,left,2.127385,clownfish     ,2,4,-6,0,3,538.22469,538.22469,540.71667,0,40,40,40,1,41,2,8,clownfish     ,dress         ,html/resources/sequences_IDs/A/04_clownfish.jpg,html/resources/sequences_IDs/A/07_dress.jpg,4,7,2,1,3,2,4,6,0,68,,,,,,,,,,,,,,,,,,,,
,,,,,68,2020-07-04_18h58.28.036,retriever_ti,2020.1.3,Win32,60,Chrome,1536,864,,,,,,,,,,,,,,,,,1,,,,,,,,,,,,,,,,,,,,,,,,,,,541.321085,42,left,1.370815,redfox      ,5,1,1,1,0,541.33521,541.33521,543.827105,0,41,41,41,1,42,5,4,redfox      ,scarf         ,html/resources/sequences_IDs/B/01_redfox.jpg,html/resources/sequences_IDs/A/06_scarf.jpg,1,6,1,1,3,2,1,5,1,68,,,,,,,,,,,,,,,,,,,,
,,,,,68,2020-07-04_18h58.28.036,retriever_ti,2020.1.3,Win32,60,Chrome,1536,864,,,,,,,,,,,,,,,,,1,,,,,,,,,,,,,,,,,,,,,,,,,,,544.918,43,right,2.373495,redfox      ,5,1,3,1,3,544.92456,544.92456,547.416745,0,42,42,42,1,43,2,5,clownfish     ,redfox      ,html/resources/sequences_IDs/A/04_clownfish.jpg,html/resources/sequences_IDs/B/01_redfox.jpg,4,1,2,1,1,1,4,1,0,68,,,,,,,,,,,,,,,,,,,,
,,,,,68,2020-07-04_18h58.28.036,retriever_ti,2020.1.3,Win32,60,Chrome,1536,864,,,,,,,,,,,,,,,,,1,,,,,,,,,,,,,,,,,,,,,,,,,,,548.02119,44,right,1.526515,scarf         ,4,6,1,1,1,548.02828,548.02828,550.520385,0,43,43,43,1,44,3,4,slipper     ,scarf         ,html/resources/sequences_IDs/B/08_slipper.jpg,html/resources/sequences_IDs/A/06_scarf.jpg,8,6,3,2,3,2,7,5,0,68,,,,,,,,,,,,,,,,,,,,
,,,,,68,2020-07-04_18h58.28.036,retriever_ti,2020.1.3,Win32,60,Chrome,1536,864,,,,,,,,,,,,,,,,,1,,,,,,,,,,,,,,,,,,,,,,,,,,,551.611305,45,right,1.39938,clownfish     ,2,4,-1,0,0,551.624635,551.624635,554.116725,0,44,44,44,1,45,3,2,slipper     ,clownfish     ,html/resources/sequences_IDs/B/08_slipper.jpg,html/resources/sequences_IDs/A/04_clownfish.jpg,8,4,3,2,2,1,7,4,0,68,,,,,,,,,,,,,,,,,,,,
,,,,,68,2020-07-04_18h58.28.036,retriever_ti,2020.1.3,Win32,60,Chrome,1536,864,,,,,,,,,,,,,,,,,1,,,,,,,,,,,,,,,,,,,,,,,,,,,555.207245,46,left,0.902855,redfox      ,5,1,3,1,3,555.21429,555.21429,557.706425,0,45,45,45,1,46,5,2,redfox      ,clownfish     ,html/resources/sequences_IDs/B/01_redfox.jpg,html/resources/sequences_IDs/A/04_clownfish.jpg,1,4,1,1,2,1,1,4,0,68,,,,,,,,,,,,,,,,,,,,
,,,,,68,2020-07-04_18h58.28.036,retriever_ti,2020.1.3,Win32,60,Chrome,1536,864,,,,,,,,,,,,,,,,,1,,,,,,,,,,,,,,,,,,,,,,,,,,,558.31095,47,right,1.478275,scarf         ,4,6,1,1,1,558.32481,558.32481,560.81691,0,46,46,46,1,47,3,4,slipper     ,scarf         ,html/resources/sequences_IDs/B/08_slipper.jpg,html/resources/sequences_IDs/A/06_scarf.jpg,8,6,3,2,3,2,7,5,0,68,,,,,,,,,,,,,,,,,,,,
,,,,,68,2020-07-04_18h58.28.036,retriever_ti,2020.1.3,Win32,60,Chrome,1536,864,,,,,,,,,,,,,,,,,1,,,,,,,,,,,,,,,,,,,,,,,,,,,561.907145,48,right,0.82919,giraffe     ,1,3,-3,0,3,561.921175,561.921175,564.413415,0,47,47,47,1,48,4,1,scarf         ,giraffe     ,html/resources/sequences_IDs/A/06_scarf.jpg,html/resources/sequences_IDs/B/03_giraffe.jpg,6,3,3,2,1,1,5,3,0,68,,,,,,,,,,,,,,,,,,,,
,,,,,68,2020-07-04_18h58.28.036,retriever_ti,2020.1.3,Win32,60,Chrome,1536,864,,,,,,,,,,,,,,,,,1,,,,,,,,,,,,,,,,,,,,,,,,,,,565.017715,49,right,1.713725,dress         ,8,7,1,1,1,565.02463,565.02463,567.51681,0,48,48,48,1,49,7,8,radio       ,dress         ,html/resources/sequences_IDs/B/10_radio.jpg,html/resources/sequences_IDs/A/07_dress.jpg,10,7,4,2,3,2,8,6,0,68,,,,,,,,,,,,,,,,,,,,
,,,,,68,2020-07-04_18h58.28.036,retriever_ti,2020.1.3,Win32,60,Chrome,1536,864,,,,,,,,,,,,,,,,,1,,,,,,,,,,,,,,,,,,,,,,,,,,,568.60704,50,left,2.270035,seaturtle     ,6,2,4,1,3,568.62116,568.62116,571.11437,0,49,49,49,1,50,6,2,seaturtle     ,clownfish     ,html/resources/sequences_IDs/A/02_seaturtle.jpg,html/resources/sequences_IDs/A/04_clownfish.jpg,2,4,2,1,2,1,2,4,0,68,,,,,,,,,,,,,,,,,,,,
,,,,,68,2020-07-04_18h58.28.036,retriever_ti,2020.1.3,Win32,60,Chrome,1536,864,,,,,,,,,,,,,,,,,1,,,,,,,,,,,,,,,,,,,,,,,,,,,571.71791,51,left,1.13938,redfox      ,5,1,1,1,1,571.72487,571.72487,574.216935,0,50,50,50,1,51,5,4,redfox      ,scarf         ,html/resources/sequences_IDs/B/01_redfox.jpg,html/resources/sequences_IDs/A/06_scarf.jpg,1,6,1,1,3,2,1,5,0,68,,,,,,,,,,,,,,,,,,,,
,,,,,68,2020-07-04_18h58.28.036,retriever_ti,2020.1.3,Win32,60,Chrome,1536,864,,,,,,,,,,,,,,,,,1,,,,,,,,,,,,,,,,,,,,,,,,,,,575.30705,52,right,1.006285,dress         ,8,7,5,1,3,575.32118,575.32118,577.813405,0,51,51,51,1,52,3,8,slipper     ,dress         ,html/resources/sequences_IDs/B/08_slipper.jpg,html/resources/sequences_IDs/A/07_dress.jpg,8,7,3,2,3,2,7,6,0,68,,,,,,,,,,,,,,,,,,,,
,,,,,68,2020-07-04_18h58.28.036,retriever_ti,2020.1.3,Win32,60,Chrome,1536,864,,,,,,,,,,,,,,,,,1,,,,,,,,,,,,,,,,,,,,,,,,,,,578.41826,53,right,1.14457,dress         ,8,7,4,1,3,578.431885,578.431885,580.923895,0,52,52,52,1,53,4,8,scarf         ,dress         ,html/resources/sequences_IDs/A/06_scarf.jpg,html/resources/sequences_IDs/A/07_dress.jpg,6,7,3,2,3,2,5,6,0,68,,,,,,,,,,,,,,,,,,,,
,,,,,68,2020-07-04_18h58.28.036,retriever_ti,2020.1.3,Win32,60,Chrome,1536,864,,,,,,,,,,,,,,,,,1,,,,,,,,,,,,,,,,,,,,,,,,,,,581.528625,54,left,1.222685,redfox      ,5,1,-2,0,3,581.53528,581.53528,584.0274,0,53,53,53,1,54,5,7,redfox      ,radio       ,html/resources/sequences_IDs/B/01_redfox.jpg,html/resources/sequences_IDs/B/10_radio.jpg,1,10,1,1,4,2,1,8,0,68,,,,,,,,,,,,,,,,,,,,
,,,,,68,2020-07-04_18h58.28.036,retriever_ti,2020.1.3,Win32,60,Chrome,1536,864,,,,,,,,,,,,,,,,,1,,,,,,,,,,,,,,,,,,,,,,,,,,,584.63193,55,left,1.14932,giraffe     ,1,3,-7,0,3,584.6463,584.6463,587.13789,0,54,54,54,1,55,1,8,giraffe     ,dress         ,html/resources/sequences_IDs/B/03_giraffe.jpg,html/resources/sequences_IDs/A/07_dress.jpg,3,7,1,1,3,2,3,6,0,68,,,,,,,,,,,,,,,,,,,,
,,,,,68,2020-07-04_18h58.28.036,retriever_ti,2020.1.3,Win32,60,Chrome,1536,864,,,,,,,,,,,,,,,,,1,,,,,,,,,,,,,,,,,,,,,,,,,,,587.74203,56,left,1.005345,dress         ,8,7,6,1,3,587.75637,587.75637,590.2484,0,55,55,55,1,56,8,2,dress         ,clownfish     ,html/resources/sequences_IDs/A/07_dress.jpg,html/resources/sequences_IDs/A/04_clownfish.jpg,7,4,3,2,2,1,6,4,0,68,,,,,,,,,,,,,,,,,,,,
,,,,,68,2020-07-04_18h58.28.036,retriever_ti,2020.1.3,Win32,60,Chrome,1536,864,,,,,,,,,,,,,,,,,1,,,,,,,,,,,,,,,,,,,,,,,,,,,590.85338,57,right,0.7962,redfox      ,5,1,-1,0,0,590.8601,590.8601,593.35197,0,56,56,56,1,57,6,5,seaturtle     ,redfox      ,html/resources/sequences_IDs/A/02_seaturtle.jpg,html/resources/sequences_IDs/B/01_redfox.jpg,2,1,2,1,1,1,2,1,0,68,,,,,,,,,,,,,,,,,,,,
,,,,,68,2020-07-04_18h58.28.036,retriever_ti,2020.1.3,Win32,60,Chrome,1536,864,,,,,,,,,,,,,,,,,1,,,,,,,,,,,,,,,,,,,,,,,,,,,594.442175,58,right,1.05068,giraffe     ,1,3,-1,0,0,594.45622,594.45622,596.94826,0,57,57,57,1,58,2,1,clownfish     ,giraffe     ,html/resources/sequences_IDs/A/04_clownfish.jpg,html/resources/sequences_IDs/B/03_giraffe.jpg,4,3,2,1,1,1,4,3,0,68,,,,,,,,,,,,,,,,,,,,
,,,,,68,2020-07-04_18h58.28.036,retriever_ti,2020.1.3,Win32,60,Chrome,1536,864,,,,,,,,,,,,,,,,,1,,,,,,,,,,,,,,,,,,,,,,,,,,,598.039295,59,left,1.2701,giraffe     ,1,3,-5,0,3,598.045885,598.045885,600.537845,0,58,58,58,1,59,1,6,giraffe     ,seaturtle     ,html/resources/sequences_IDs/B/03_giraffe.jpg,html/resources/sequences_IDs/A/02_seaturtle.jpg,3,2,1,1,2,1,3,2,0,68,,,,,,,,,,,,,,,,,,,,
,,,,,68,2020-07-04_18h58.28.036,retriever_ti,2020.1.3,Win32,60,Chrome,1536,864,,,,,,,,,,,,,,,,,1,,,,,,,,,,,,,,,,,,,,,,,,,,,601.14224,60,right,1.512245,giraffe     ,1,3,-1,0,0,601.15635,601.15635,603.648935,0,59,59,59,1,60,2,1,clownfish     ,giraffe     ,html/resources/sequences_IDs/A/04_clownfish.jpg,html/resources/sequences_IDs/B/03_giraffe.jpg,4,3,2,1,1,1,4,3,0,68,,,,,,,,,,,,,,,,,,,,
,,,,,68,2020-07-04_18h58.28.036,retriever_ti,2020.1.3,Win32,60,Chrome,1536,864,,,,,,,,,,,,,,,,,1,,,,,,,,,,,,,,,,,,,,,,,,,,,604.7389,61,right,2.073075,clownfish     ,2,4,1,1,0,604.753395,604.753395,607.24493,0,60,60,60,1,61,1,2,giraffe     ,clownfish     ,html/resources/sequences_IDs/B/03_giraffe.jpg,html/resources/sequences_IDs/A/04_clownfish.jpg,3,4,1,1,2,1,3,4,1,68,,,,,,,,,,,,,,,,,,,,
,,,,,68,2020-07-04_18h58.28.036,retriever_ti,2020.1.3,Win32,60,Chrome,1536,864,,,,,,,,,,,,,,,,,1,,,,,,,,,,,,,,,,,,,,,,,,,,,608.33522,62,left,1.819995,giraffe     ,1,3,-4,0,3,608.34238,608.34238,610.834525,0,61,61,61,1,62,1,5,giraffe     ,redfox      ,html/resources/sequences_IDs/B/03_giraffe.jpg,html/resources/sequences_IDs/B/01_redfox.jpg,3,1,1,1,1,1,3,1,0,68,,,,,,,,,,,,,,,,,,,,
,,,,,68,2020-07-04_18h58.28.036,retriever_ti,2020.1.3,Win32,60,Chrome,1536,864,,,,,,,,,,,,,,,,,1,,,,,,,,,,,,,,,,,,,,,,,,,,,611.43901,63,NaN,NaN,No_response,NaN,NaN,NaN,2,2,611.445925,611.445925,613.937995,0,62,62,62,1,63,2,6,clownfish     ,seaturtle     ,html/resources/sequences_IDs/A/04_clownfish.jpg,html/resources/sequences_IDs/A/02_seaturtle.jpg,4,2,2,1,2,1,4,2,0,68,,,,,,,,,,,,,,,,,,,,
,,,,,68,2020-07-04_18h58.28.036,retriever_ti,2020.1.3,Win32,60,Chrome,1536,864,,,,,,,,,,,,,,,,,1,,,,,,,,,,,,,,,,,,,,,,,,,,,615.02831,64,left,0.842585,giraffe     ,1,3,-1,0,0,615.042505,615.042505,617.53443,0,63,63,63,1,64,1,2,giraffe     ,clownfish     ,html/resources/sequences_IDs/B/03_giraffe.jpg,html/resources/sequences_IDs/A/04_clownfish.jpg,3,4,1,1,2,1,3,4,0,68,,,,,,,,,,,,,,,,,,,,
,,,,,68,2020-07-04_18h58.28.036,retriever_ti,2020.1.3,Win32,60,Chrome,1536,864,,,,,,,,,,,,,,,,,1,,,,,,,,,,,,,,,,,,,,,,,,,,,618.624915,65,left,0.84514,clownfish     ,2,4,-1,0,1,618.639015,618.639015,621.13109,0,64,64,64,1,65,2,3,clownfish     ,slipper     ,html/resources/sequences_IDs/A/04_clownfish.jpg,html/resources/sequences_IDs/B/08_slipper.jpg,4,8,2,1,3,2,4,7,1,68,,,,,,,,,,,,,,,,,,,,
,,,,,68,2020-07-04_18h58.28.036,retriever_ti,2020.1.3,Win32,60,Chrome,1536,864,,,,,,,,,,,,,,,,,1,,,,,,,,,,,,,,,,,,,,,,,,,,,622.22139,66,left,1.20566,scarf         ,4,6,-3,0,3,622.22835,622.22835,624.720445,0,65,65,65,1,66,4,7,scarf         ,radio       ,html/resources/sequences_IDs/A/06_scarf.jpg,html/resources/sequences_IDs/B/10_radio.jpg,6,10,3,2,4,2,5,8,0,68,,,,,,,,,,,,,,,,,,,,
,,,,,68,2020-07-04_18h58.28.036,retriever_ti,2020.1.3,Win32,60,Chrome,1536,864,,,,,,,,,,,,,,,,,1,,,,,,,,,,,,,,,,,,,,,,,,,,,625.32506,67,left,1.339215,clownfish     ,2,4,-5,0,3,625.33939,625.33939,627.83095,0,66,66,66,1,67,2,7,clownfish     ,radio       ,html/resources/sequences_IDs/A/04_clownfish.jpg,html/resources/sequences_IDs/B/10_radio.jpg,4,10,2,1,4,2,4,8,0,68,,,,,,,,,,,,,,,,,,,,
,,,,,68,2020-07-04_18h58.28.036,retriever_ti,2020.1.3,Win32,60,Chrome,1536,864,,,,,,,,,,,,,,,,,1,,,,,,,,,,,,,,,,,,,,,,,,,,,628.435315,68,left,0.493985,redfox      ,5,1,-3,0,3,628.449485,628.449485,630.941455,0,67,67,67,1,68,5,8,redfox      ,dress         ,html/resources/sequences_IDs/B/01_redfox.jpg,html/resources/sequences_IDs/A/07_dress.jpg,1,7,1,1,3,2,1,6,0,68,,,,,,,,,,,,,,,,,,,,
,,,,,68,2020-07-04_18h58.28.036,retriever_ti,2020.1.3,Win32,60,Chrome,1536,864,,,,,,,,,,,,,,,,,1,,,,,,,,,,,,,,,,,,,,,,,,,,,631.54608,69,right,0.5103,clownfish     ,2,4,-2,0,3,631.552765,631.552765,634.04509,0,68,68,68,1,69,4,2,scarf         ,clownfish     ,html/resources/sequences_IDs/A/06_scarf.jpg,html/resources/sequences_IDs/A/04_clownfish.jpg,6,4,3,2,2,1,5,4,0,68,,,,,,,,,,,,,,,,,,,,
,,,,,68,2020-07-04_18h58.28.036,retriever_ti,2020.1.3,Win32,60,Chrome,1536,864,,,,,,,,,,,,,,,,,1,,,,,,,,,,,,,,,,,,,,,,,,,,,634.64922,70,right,1.63751,radio       ,7,10,-1,0,0,634.656595,634.656595,637.14859,0,69,69,69,1,70,8,7,dress         ,radio       ,html/resources/sequences_IDs/A/07_dress.jpg,html/resources/sequences_IDs/B/10_radio.jpg,7,10,3,2,4,2,6,8,0,68,,,,,,,,,,,,,,,,,,,,
,,,,,68,2020-07-04_18h58.28.036,retriever_ti,2020.1.3,Win32,60,Chrome,1536,864,,,,,,,,,,,,,,,,,1,,,,,,,,,,,,,,,,,,,,,,,,,,,638.239145,71,left,0.720795,seaturtle     ,6,2,-1,0,0,638.24602,638.24602,640.73854,0,70,70,70,1,71,6,7,seaturtle     ,radio       ,html/resources/sequences_IDs/A/02_seaturtle.jpg,html/resources/sequences_IDs/B/10_radio.jpg,2,10,2,1,4,2,2,8,0,68,,,,,,,,,,,,,,,,,,,,
,,,,,68,2020-07-04_18h58.28.036,retriever_ti,2020.1.3,Win32,60,Chrome,1536,864,,,,,,,,,,,,,,,,,1,,,,,,,,,,,,,,,,,,,,,,,,,,,641.828435,72,left,0.557735,clownfish     ,2,4,-1,0,0,641.842545,641.842545,644.334725,0,71,71,71,1,72,2,3,clownfish     ,slipper     ,html/resources/sequences_IDs/A/04_clownfish.jpg,html/resources/sequences_IDs/B/08_slipper.jpg,4,8,2,1,3,2,4,7,0,68,,,,,,,,,,,,,,,,,,,,
,,,,,68,2020-07-04_18h58.28.036,retriever_ti,2020.1.3,Win32,60,Chrome,1536,864,,,,,,,,,,,,,,,,,1,,,,,,,,,,,,,,,,,,,,,,,,,,,645.425035,73,left,0.513025,seaturtle     ,6,2,-2,0,3,645.438975,645.438975,647.931195,0,72,72,72,1,73,6,8,seaturtle     ,dress         ,html/resources/sequences_IDs/A/02_seaturtle.jpg,html/resources/sequences_IDs/A/07_dress.jpg,2,7,2,1,3,2,2,6,0,68,,,,,,,,,,,,,,,,,,,,
,,,,,68,2020-07-04_18h58.28.036,retriever_ti,2020.1.3,Win32,60,Chrome,1536,864,,,,,,,,,,,,,,,,,1,,,,,,,,,,,,,,,,,,,,,,,,,,,648.53542,74,left,1.613785,dress         ,8,7,4,1,3,648.54947,648.54947,651.04157,0,73,73,73,1,74,8,4,dress         ,scarf         ,html/resources/sequences_IDs/A/07_dress.jpg,html/resources/sequences_IDs/A/06_scarf.jpg,7,6,3,2,3,2,6,5,0,68,,,,,,,,,,,,,,,,,,,,
,,,,,68,2020-07-04_18h58.28.036,retriever_ti,2020.1.3,Win32,60,Chrome,1536,864,,,,,,,,,,,,,,,,,1,,,,,,,,,,,,,,,,,,,,,,,,,,,651.646145,75,left,0.91912,giraffe     ,1,3,-3,0,3,651.653065,651.653065,654.14507,0,74,74,74,1,75,1,4,giraffe     ,scarf         ,html/resources/sequences_IDs/B/03_giraffe.jpg,html/resources/sequences_IDs/A/06_scarf.jpg,3,6,1,1,3,2,3,5,0,68,,,,,,,,,,,,,,,,,,,,
,,,,,68,2020-07-04_18h58.28.036,retriever_ti,2020.1.3,Win32,60,Chrome,1536,864,,,,,,,,,,,,,,,,,1,,,,,,,,,,,,,,,,,,,,,,,,,,,654.749755,76,left,0.783925,clownfish     ,2,4,-2,0,3,654.756535,654.756535,657.24877,0,75,75,75,1,76,2,4,clownfish     ,scarf         ,html/resources/sequences_IDs/A/04_clownfish.jpg,html/resources/sequences_IDs/A/06_scarf.jpg,4,6,2,1,3,2,4,5,0,68,,,,,,,,,,,,,,,,,,,,
,,,,,68,2020-07-04_18h58.28.036,retriever_ti,2020.1.3,Win32,60,Chrome,1536,864,,,,,,,,,,,,,,,,,1,,,,,,,,,,,,,,,,,,,,,,,,,,,657.853235,77,left,1.051965,dress         ,8,7,1,1,1,657.867175,657.867175,660.359195,0,76,76,76,1,77,8,7,dress         ,radio       ,html/resources/sequences_IDs/A/07_dress.jpg,html/resources/sequences_IDs/B/10_radio.jpg,7,10,3,2,4,2,6,8,0,68,,,,,,,,,,,,,,,,,,,,
,,,,,68,2020-07-04_18h58.28.036,retriever_ti,2020.1.3,Win32,60,Chrome,1536,864,,,,,,,,,,,,,,,,,,,,,,,,,,,,,,,,,,,,,0,6.36813,,,,,,,,,,,,,,,,,,,,,,,,,,,,,,,,,,,,,,,,,0,0,0,0,1,,,,,,,,,,,,,,,
,,,,,68,2020-07-04_18h58.28.036,retriever_ti,2020.1.3,Win32,60,Chrome,1536,864,,,,,,,,,,,,,,,,,2,,,,,,,,,,,,,,,,,,,,,,,,,,,685.995965,78,right,0.739195,seaturtle     ,6,2,2,1,3,686.000485,686.000485,688.492365,0,0,0,0,1,78,4,6,scarf         ,seaturtle     ,html/resources/sequences_IDs/A/06_scarf.jpg,html/resources/sequences_IDs/A/02_seaturtle.jpg,6,2,3,2,2,1,5,2,0,68,,,,,,,,,,,,,,,,,,,,
,,,,,68,2020-07-04_18h58.28.036,retriever_ti,2020.1.3,Win32,60,Chrome,1536,864,,,,,,,,,,,,,,,,,2,,,,,,,,,,,,,,,,,,,,,,,,,,,689.09662,79,right,0.52011,redfox      ,5,1,1,1,1,689.110765,689.110765,691.60268,0,1,1,1,1,79,4,5,scarf         ,redfox      ,html/resources/sequences_IDs/A/06_scarf.jpg,html/resources/sequences_IDs/B/01_redfox.jpg,6,1,3,2,1,1,5,1,0,68,,,,,,,,,,,,,,,,,,,,
,,,,,68,2020-07-04_18h58.28.036,retriever_ti,2020.1.3,Win32,60,Chrome,1536,864,,,,,,,,,,,,,,,,,2,,,,,,,,,,,,,,,,,,,,,,,,,,,692.69374,80,left,0.916015,scarf         ,4,6,1,1,1,692.700385,692.700385,695.19241,0,2,2,2,1,80,4,3,scarf         ,slipper     ,html/resources/sequences_IDs/A/06_scarf.jpg,html/resources/sequences_IDs/B/08_slipper.jpg,6,8,3,2,3,2,5,7,0,68,,,,,,,,,,,,,,,,,,,,
,,,,,68,2020-07-04_18h58.28.036,retriever_ti,2020.1.3,Win32,60,Chrome,1536,864,,,,,,,,,,,,,,,,,2,,,,,,,,,,,,,,,,,,,,,,,,,,,696.282635,81,right,0.47375,redfox      ,5,1,1,1,0,696.29672,696.29672,698.78885,0,3,3,3,1,81,4,5,scarf         ,redfox      ,html/resources/sequences_IDs/A/06_scarf.jpg,html/resources/sequences_IDs/B/01_redfox.jpg,6,1,3,2,1,1,5,1,1,68,,,,,,,,,,,,,,,,,,,,
,,,,,68,2020-07-04_18h58.28.036,retriever_ti,2020.1.3,Win32,60,Chrome,1536,864,,,,,,,,,,,,,,,,,2,,,,,,,,,,,,,,,,,,,,,,,,,,,699.87924,82,left,0.625865,giraffe     ,1,3,-7,0,3,699.89315,699.89315,702.385375,0,4,4,4,1,82,1,8,giraffe     ,dress         ,html/resources/sequences_IDs/B/03_giraffe.jpg,html/resources/sequences_IDs/A/07_dress.jpg,3,7,1,1,3,2,3,6,0,68,,,,,,,,,,,,,,,,,,,,
,,,,,68,2020-07-04_18h58.28.036,retriever_ti,2020.1.3,Win32,60,Chrome,1536,864,,,,,,,,,,,,,,,,,2,,,,,,,,,,,,,,,,,,,,,,,,,,,702.989695,83,left,0.486655,redfox      ,5,1,1,1,1,702.99661,702.99661,705.49008,0,5,5,5,1,83,5,4,redfox      ,scarf         ,html/resources/sequences_IDs/B/01_redfox.jpg,html/resources/sequences_IDs/A/06_scarf.jpg,1,6,1,1,3,2,1,5,0,68,,,,,,,,,,,,,,,,,,,,
,,,,,68,2020-07-04_18h58.28.036,retriever_ti,2020.1.3,Win32,60,Chrome,1536,864,,,,,,,,,,,,,,,,,2,,,,,,,,,,,,,,,,,,,,,,,,,,,706.579395,84,left,0.542055,clownfish     ,2,4,1,1,0,706.593205,706.593205,709.08546,0,6,6,6,1,84,2,1,clownfish     ,giraffe     ,html/resources/sequences_IDs/A/04_clownfish.jpg,html/resources/sequences_IDs/B/03_giraffe.jpg,4,3,2,1,1,1,4,3,1,68,,,,,,,,,,,,,,,,,,,,
,,,,,68,2020-07-04_18h58.28.036,retriever_ti,2020.1.3,Win32,60,Chrome,1536,864,,,,,,,,,,,,,,,,,2,,,,,,,,,,,,,,,,,,,,,,,,,,,710.17563,85,right,0.49931,seaturtle     ,6,2,-1,0,0,710.18268,710.18268,712.67488,0,7,7,7,1,85,7,6,radio       ,seaturtle     ,html/resources/sequences_IDs/B/10_radio.jpg,html/resources/sequences_IDs/A/02_seaturtle.jpg,10,2,4,2,2,1,8,2,0,68,,,,,,,,,,,,,,,,,,,,
,,,,,68,2020-07-04_18h58.28.036,retriever_ti,2020.1.3,Win32,60,Chrome,1536,864,,,,,,,,,,,,,,,,,2,,,,,,,,,,,,,,,,,,,,,,,,,,,713.7658,86,left,0.477905,clownfish     ,2,4,-6,0,3,713.77936,713.77936,716.27126,0,8,8,8,1,86,2,8,clownfish     ,dress         ,html/resources/sequences_IDs/A/04_clownfish.jpg,html/resources/sequences_IDs/A/07_dress.jpg,4,7,2,1,3,2,4,6,0,68,,,,,,,,,,,,,,,,,,,,
,,,,,68,2020-07-04_18h58.28.036,retriever_ti,2020.1.3,Win32,60,Chrome,1536,864,,,,,,,,,,,,,,,,,2,,,,,,,,,,,,,,,,,,,,,,,,,,,716.87567,87,right,1.001935,seaturtle     ,6,2,4,1,3,716.88983,716.88983,719.381865,0,9,9,9,1,87,2,6,clownfish     ,seaturtle     ,html/resources/sequences_IDs/A/04_clownfish.jpg,html/resources/sequences_IDs/A/02_seaturtle.jpg,4,2,2,1,2,1,4,2,0,68,,,,,,,,,,,,,,,,,,,,
,,,,,68,2020-07-04_18h58.28.036,retriever_ti,2020.1.3,Win32,60,Chrome,1536,864,,,,,,,,,,,,,,,,,2,,,,,,,,,,,,,,,,,,,,,,,,,,,719.98625,88,right,0.735445,giraffe     ,1,3,-2,0,3,720.000165,720.000165,722.49234,0,10,10,10,1,88,3,1,slipper     ,giraffe     ,html/resources/sequences_IDs/B/08_slipper.jpg,html/resources/sequences_IDs/B/03_giraffe.jpg,8,3,3,2,1,1,7,3,0,68,,,,,,,,,,,,,,,,,,,,
,,,,,68,2020-07-04_18h58.28.036,retriever_ti,2020.1.3,Win32,60,Chrome,1536,864,,,,,,,,,,,,,,,,,2,,,,,,,,,,,,,,,,,,,,,,,,,,,723.09655,89,right,1.65774,redfox      ,5,1,-1,0,0,723.11075,723.11075,725.602695,0,11,11,11,1,89,6,5,seaturtle     ,redfox      ,html/resources/sequences_IDs/A/02_seaturtle.jpg,html/resources/sequences_IDs/B/01_redfox.jpg,2,1,2,1,1,1,2,1,0,68,,,,,,,,,,,,,,,,,,,,
,,,,,68,2020-07-04_18h58.28.036,retriever_ti,2020.1.3,Win32,60,Chrome,1536,864,,,,,,,,,,,,,,,,,2,,,,,,,,,,,,,,,,,,,,,,,,,,,726.69338,90,right,1.203865,scarf         ,4,6,1,1,0,726.707505,726.707505,729.19925,0,12,12,12,1,90,3,4,slipper     ,scarf         ,html/resources/sequences_IDs/B/08_slipper.jpg,html/resources/sequences_IDs/A/06_scarf.jpg,8,6,3,2,3,2,7,5,1,68,,,,,,,,,,,,,,,,,,,,
,,,,,68,2020-07-04_18h58.28.036,retriever_ti,2020.1.3,Win32,60,Chrome,1536,864,,,,,,,,,,,,,,,,,2,,,,,,,,,,,,,,,,,,,,,,,,,,,730.289465,91,right,1.26869,seaturtle     ,6,2,1,1,1,730.29669,730.29669,732.788975,0,13,13,13,1,91,5,6,redfox      ,seaturtle     ,html/resources/sequences_IDs/B/01_redfox.jpg,html/resources/sequences_IDs/A/02_seaturtle.jpg,1,2,1,1,2,1,1,2,0,68,,,,,,,,,,,,,,,,,,,,
,,,,,68,2020-07-04_18h58.28.036,retriever_ti,2020.1.3,Win32,60,Chrome,1536,864,,,,,,,,,,,,,,,,,2,,,,,,,,,,,,,,,,,,,,,,,,,,,733.880365,92,left,0.950285,clownfish     ,2,4,-1,0,0,733.89332,733.89332,736.385285,0,14,14,14,1,92,2,3,clownfish     ,slipper     ,html/resources/sequences_IDs/A/04_clownfish.jpg,html/resources/sequences_IDs/B/08_slipper.jpg,4,8,2,1,3,2,4,7,0,68,,,,,,,,,,,,,,,,,,,,
,,,,,68,2020-07-04_18h58.28.036,retriever_ti,2020.1.3,Win32,60,Chrome,1536,864,,,,,,,,,,,,,,,,,2,,,,,,,,,,,,,,,,,,,,,,,,,,,737.47564,93,right,1.41416,dress         ,8,7,1,1,1,737.48984,737.48984,739.981845,0,15,15,15,1,93,7,8,radio       ,dress         ,html/resources/sequences_IDs/B/10_radio.jpg,html/resources/sequences_IDs/A/07_dress.jpg,10,7,4,2,3,2,8,6,0,68,,,,,,,,,,,,,,,,,,,,
,,,,,68,2020-07-04_18h58.28.036,retriever_ti,2020.1.3,Win32,60,Chrome,1536,864,,,,,,,,,,,,,,,,,2,,,,,,,,,,,,,,,,,,,,,,,,,,,741.072485,94,left,1.075605,giraffe     ,1,3,-1,0,0,741.08615,741.08615,743.57844,0,16,16,16,1,94,1,2,giraffe     ,clownfish     ,html/resources/sequences_IDs/B/03_giraffe.jpg,html/resources/sequences_IDs/A/04_clownfish.jpg,3,4,1,1,2,1,3,4,0,68,,,,,,,,,,,,,,,,,,,,
,,,,,68,2020-07-04_18h58.28.036,retriever_ti,2020.1.3,Win32,60,Chrome,1536,864,,,,,,,,,,,,,,,,,2,,,,,,,,,,,,,,,,,,,,,,,,,,,744.66863,95,right,1.84357,seaturtle     ,6,2,5,1,3,744.67583,744.67583,747.16787,0,17,17,17,1,95,1,6,giraffe     ,seaturtle     ,html/resources/sequences_IDs/B/03_giraffe.jpg,html/resources/sequences_IDs/A/02_seaturtle.jpg,3,2,1,1,2,1,3,2,0,68,,,,,,,,,,,,,,,,,,,,
,,,,,68,2020-07-04_18h58.28.036,retriever_ti,2020.1.3,Win32,60,Chrome,1536,864,,,,,,,,,,,,,,,,,2,,,,,,,,,,,,,,,,,,,,,,,,,,,747.77227,96,left,1.27782,scarf         ,4,6,-3,0,3,747.779365,747.779365,750.271495,0,18,18,18,1,96,4,7,scarf         ,radio       ,html/resources/sequences_IDs/A/06_scarf.jpg,html/resources/sequences_IDs/B/10_radio.jpg,6,10,3,2,4,2,5,8,0,68,,,,,,,,,,,,,,,,,,,,
,,,,,68,2020-07-04_18h58.28.036,retriever_ti,2020.1.3,Win32,60,Chrome,1536,864,,,,,,,,,,,,,,,,,2,,,,,,,,,,,,,,,,,,,,,,,,,,,750.875715,97,left,0.73285,dress         ,8,7,5,1,3,750.88299,750.88299,753.374945,0,19,19,19,1,97,8,3,dress         ,slipper     ,html/resources/sequences_IDs/A/07_dress.jpg,html/resources/sequences_IDs/B/08_slipper.jpg,7,8,3,2,3,2,6,7,0,68,,,,,,,,,,,,,,,,,,,,
,,,,,68,2020-07-04_18h58.28.036,retriever_ti,2020.1.3,Win32,60,Chrome,1536,864,,,,,,,,,,,,,,,,,2,,,,,,,,,,,,,,,,,,,,,,,,,,,753.979845,98,right,0.623075,scarf         ,4,6,1,1,1,753.993255,753.993255,756.485335,0,20,20,20,1,98,3,4,slipper     ,scarf         ,html/resources/sequences_IDs/B/08_slipper.jpg,html/resources/sequences_IDs/A/06_scarf.jpg,8,6,3,2,3,2,7,5,0,68,,,,,,,,,,,,,,,,,,,,
,,,,,68,2020-07-04_18h58.28.036,retriever_ti,2020.1.3,Win32,60,Chrome,1536,864,,,,,,,,,,,,,,,,,2,,,,,,,,,,,,,,,,,,,,,,,,,,,757.57575,99,left,1.105905,dress         ,8,7,4,1,3,757.589825,757.589825,760.081895,0,21,21,21,1,99,8,4,dress         ,scarf         ,html/resources/sequences_IDs/A/07_dress.jpg,html/resources/sequences_IDs/A/06_scarf.jpg,7,6,3,2,3,2,6,5,0,68,,,,,,,,,,,,,,,,,,,,
,,,,,68,2020-07-04_18h58.28.036,retriever_ti,2020.1.3,Win32,60,Chrome,1536,864,,,,,,,,,,,,,,,,,2,,,,,,,,,,,,,,,,,,,,,,,,,,,760.686405,100,NaN,NaN,No_response,NaN,NaN,NaN,2,2,760.69321,760.69321,763.18553,0,22,22,22,1,100,1,5,giraffe     ,redfox      ,html/resources/sequences_IDs/B/03_giraffe.jpg,html/resources/sequences_IDs/B/01_redfox.jpg,3,1,1,1,1,1,3,1,0,68,,,,,,,,,,,,,,,,,,,,
,,,,,68,2020-07-04_18h58.28.036,retriever_ti,2020.1.3,Win32,60,Chrome,1536,864,,,,,,,,,,,,,,,,,2,,,,,,,,,,,,,,,,,,,,,,,,,,,764.275785,101,left,0.85657,seaturtle     ,6,2,-1,0,0,764.282865,764.282865,766.77504,0,23,23,23,1,101,6,7,seaturtle     ,radio       ,html/resources/sequences_IDs/A/02_seaturtle.jpg,html/resources/sequences_IDs/B/10_radio.jpg,2,10,2,1,4,2,2,8,0,68,,,,,,,,,,,,,,,,,,,,
,,,,,68,2020-07-04_18h58.28.036,retriever_ti,2020.1.3,Win32,60,Chrome,1536,864,,,,,,,,,,,,,,,,,2,,,,,,,,,,,,,,,,,,,,,,,,,,,767.865515,102,left,0.5164,redfox      ,5,1,2,1,3,767.879405,767.879405,770.371595,0,24,24,24,1,102,5,3,redfox      ,slipper     ,html/resources/sequences_IDs/B/01_redfox.jpg,html/resources/sequences_IDs/B/08_slipper.jpg,1,8,1,1,3,2,1,7,0,68,,,,,,,,,,,,,,,,,,,,
,,,,,68,2020-07-04_18h58.28.036,retriever_ti,2020.1.3,Win32,60,Chrome,1536,864,,,,,,,,,,,,,,,,,2,,,,,,,,,,,,,,,,,,,,,,,,,,,770.975805,103,left,0.442355,redfox      ,5,1,1,1,1,770.982975,770.982975,773.47528,0,25,25,25,1,103,5,4,redfox      ,scarf         ,html/resources/sequences_IDs/B/01_redfox.jpg,html/resources/sequences_IDs/A/06_scarf.jpg,1,6,1,1,3,2,1,5,0,68,,,,,,,,,,,,,,,,,,,,
,,,,,68,2020-07-04_18h58.28.036,retriever_ti,2020.1.3,Win32,60,Chrome,1536,864,,,,,,,,,,,,,,,,,2,,,,,,,,,,,,,,,,,,,,,,,,,,,774.565445,104,right,1.23537,giraffe     ,1,3,-7,0,3,774.572345,774.572345,777.064555,0,26,26,26,1,104,8,1,dress         ,giraffe     ,html/resources/sequences_IDs/A/07_dress.jpg,html/resources/sequences_IDs/B/03_giraffe.jpg,7,3,3,2,1,1,6,3,0,68,,,,,,,,,,,,,,,,,,,,
,,,,,68,2020-07-04_18h58.28.036,retriever_ti,2020.1.3,Win32,60,Chrome,1536,864,,,,,,,,,,,,,,,,,2,,,,,,,,,,,,,,,,,,,,,,,,,,,777.66887,105,right,0.59029,giraffe     ,1,3,-6,0,3,777.676005,777.676005,780.16805,0,27,27,27,1,105,7,1,radio       ,giraffe     ,html/resources/sequences_IDs/B/10_radio.jpg,html/resources/sequences_IDs/B/03_giraffe.jpg,10,3,4,2,1,1,8,3,0,68,,,,,,,,,,,,,,,,,,,,
,,,,,68,2020-07-04_18h58.28.036,retriever_ti,2020.1.3,Win32,60,Chrome,1536,864,,,,,,,,,,,,,,,,,2,,,,,,,,,,,,,,,,,,,,,,,,,,,780.77273,106,right,0.72809,dress         ,8,7,5,1,3,780.779545,780.779545,783.271685,0,28,28,28,1,106,3,8,slipper     ,dress         ,html/resources/sequences_IDs/B/08_slipper.jpg,html/resources/sequences_IDs/A/07_dress.jpg,8,7,3,2,3,2,7,6,0,68,,,,,,,,,,,,,,,,,,,,
,,,,,68,2020-07-04_18h58.28.036,retriever_ti,2020.1.3,Win32,60,Chrome,1536,864,,,,,,,,,,,,,,,,,2,,,,,,,,,,,,,,,,,,,,,,,,,,,783.87594,107,left,0.51377,seaturtle     ,6,2,-1,0,0,783.88311,783.88311,786.375195,0,29,29,29,1,107,6,7,seaturtle     ,radio       ,html/resources/sequences_IDs/A/02_seaturtle.jpg,html/resources/sequences_IDs/B/10_radio.jpg,2,10,2,1,4,2,2,8,0,68,,,,,,,,,,,,,,,,,,,,
,,,,,68,2020-07-04_18h58.28.036,retriever_ti,2020.1.3,Win32,60,Chrome,1536,864,,,,,,,,,,,,,,,,,2,,,,,,,,,,,,,,,,,,,,,,,,,,,787.465585,108,left,0.45091,seaturtle     ,6,2,-2,0,3,787.47251,787.47251,789.964695,0,30,30,30,1,108,6,8,seaturtle     ,dress         ,html/resources/sequences_IDs/A/02_seaturtle.jpg,html/resources/sequences_IDs/A/07_dress.jpg,2,7,2,1,3,2,2,6,0,68,,,,,,,,,,,,,,,,,,,,
,,,,,68,2020-07-04_18h58.28.036,retriever_ti,2020.1.3,Win32,60,Chrome,1536,864,,,,,,,,,,,,,,,,,2,,,,,,,,,,,,,,,,,,,,,,,,,,,790.56896,109,right,0.523505,seaturtle     ,6,2,-1,0,1,790.57663,790.57663,793.068355,0,31,31,31,1,109,7,6,radio       ,seaturtle     ,html/resources/sequences_IDs/B/10_radio.jpg,html/resources/sequences_IDs/A/02_seaturtle.jpg,10,2,4,2,2,1,8,2,1,68,,,,,,,,,,,,,,,,,,,,
,,,,,68,2020-07-04_18h58.28.036,retriever_ti,2020.1.3,Win32,60,Chrome,1536,864,,,,,,,,,,,,,,,,,2,,,,,,,,,,,,,,,,,,,,,,,,,,,794.15884,110,left,0.693555,giraffe     ,1,3,-3,0,3,794.165785,794.165785,796.6579,0,32,32,32,1,110,1,4,giraffe     ,scarf         ,html/resources/sequences_IDs/B/03_giraffe.jpg,html/resources/sequences_IDs/A/06_scarf.jpg,3,6,1,1,3,2,3,5,0,68,,,,,,,,,,,,,,,,,,,,
,,,,,68,2020-07-04_18h58.28.036,retriever_ti,2020.1.3,Win32,60,Chrome,1536,864,,,,,,,,,,,,,,,,,2,,,,,,,,,,,,,,,,,,,,,,,,,,,797.26214,111,left,0.870855,scarf         ,4,6,1,1,1,797.276155,797.276155,799.76839,0,33,33,33,1,111,4,3,scarf         ,slipper     ,html/resources/sequences_IDs/A/06_scarf.jpg,html/resources/sequences_IDs/B/08_slipper.jpg,6,8,3,2,3,2,5,7,0,68,,,,,,,,,,,,,,,,,,,,
,,,,,68,2020-07-04_18h58.28.036,retriever_ti,2020.1.3,Win32,60,Chrome,1536,864,,,,,,,,,,,,,,,,,2,,,,,,,,,,,,,,,,,,,,,,,,,,,800.85876,112,right,0.7704,clownfish     ,2,4,-5,0,3,800.872785,800.872785,803.36472,0,34,34,34,1,112,7,2,radio       ,clownfish     ,html/resources/sequences_IDs/B/10_radio.jpg,html/resources/sequences_IDs/A/04_clownfish.jpg,10,4,4,2,2,1,8,4,0,68,,,,,,,,,,,,,,,,,,,,
,,,,,68,2020-07-04_18h58.28.036,retriever_ti,2020.1.3,Win32,60,Chrome,1536,864,,,,,,,,,,,,,,,,,2,,,,,,,,,,,,,,,,,,,,,,,,,,,803.96909,113,right,0.871865,giraffe     ,1,3,-1,0,0,803.983325,803.983325,806.47548,0,35,35,35,1,113,2,1,clownfish     ,giraffe     ,html/resources/sequences_IDs/A/04_clownfish.jpg,html/resources/sequences_IDs/B/03_giraffe.jpg,4,3,2,1,1,1,4,3,0,68,,,,,,,,,,,,,,,,,,,,
,,,,,68,2020-07-04_18h58.28.036,retriever_ti,2020.1.3,Win32,60,Chrome,1536,864,,,,,,,,,,,,,,,,,2,,,,,,,,,,,,,,,,,,,,,,,,,,,807.56591,114,right,1.07605,slipper     ,3,8,-4,0,3,807.572675,807.572675,810.064765,0,36,36,36,1,114,7,3,radio       ,slipper     ,html/resources/sequences_IDs/B/10_radio.jpg,html/resources/sequences_IDs/B/08_slipper.jpg,10,8,4,2,3,2,8,7,0,68,,,,,,,,,,,,,,,,,,,,
,,,,,68,2020-07-04_18h58.28.036,retriever_ti,2020.1.3,Win32,60,Chrome,1536,864,,,,,,,,,,,,,,,,,2,,,,,,,,,,,,,,,,,,,,,,,,,,,810.669475,115,right,1.63066,clownfish     ,2,4,-1,0,0,810.67641,810.67641,813.168835,0,37,37,37,1,115,3,2,slipper     ,clownfish     ,html/resources/sequences_IDs/B/08_slipper.jpg,html/resources/sequences_IDs/A/04_clownfish.jpg,8,4,3,2,2,1,7,4,0,68,,,,,,,,,,,,,,,,,,,,
,,,,,68,2020-07-04_18h58.28.036,retriever_ti,2020.1.3,Win32,60,Chrome,1536,864,,,,,,,,,,,,,,,,,2,,,,,,,,,,,,,,,,,,,,,,,,,,,814.25897,116,left,1.078945,seaturtle     ,6,2,1,1,1,814.27299,814.27299,816.764945,0,38,38,38,1,116,6,5,seaturtle     ,redfox      ,html/resources/sequences_IDs/A/02_seaturtle.jpg,html/resources/sequences_IDs/B/01_redfox.jpg,2,1,2,1,1,1,2,1,0,68,,,,,,,,,,,,,,,,,,,,
,,,,,68,2020-07-04_18h58.28.036,retriever_ti,2020.1.3,Win32,60,Chrome,1536,864,,,,,,,,,,,,,,,,,2,,,,,,,,,,,,,,,,,,,,,,,,,,,817.855165,117,right,1.720085,clownfish     ,2,4,-2,0,3,817.8693,817.8693,820.362105,0,39,39,39,1,117,4,2,scarf         ,clownfish     ,html/resources/sequences_IDs/A/06_scarf.jpg,html/resources/sequences_IDs/A/04_clownfish.jpg,6,4,3,2,2,1,5,4,0,68,,,,,,,,,,,,,,,,,,,,
,,,,,68,2020-07-04_18h58.28.036,retriever_ti,2020.1.3,Win32,60,Chrome,1536,864,,,,,,,,,,,,,,,,,2,,,,,,,,,,,,,,,,,,,,,,,,,,,820.96581,118,left,0.748215,giraffe     ,1,3,-6,0,3,820.979725,820.979725,823.47176,0,40,40,40,1,118,1,7,giraffe     ,radio       ,html/resources/sequences_IDs/B/03_giraffe.jpg,html/resources/sequences_IDs/B/10_radio.jpg,3,10,1,1,4,2,3,8,0,68,,,,,,,,,,,,,,,,,,,,
,,,,,68,2020-07-04_18h58.28.036,retriever_ti,2020.1.3,Win32,60,Chrome,1536,864,,,,,,,,,,,,,,,,,2,,,,,,,,,,,,,,,,,,,,,,,,,,,824.07598,119,right,1.449415,radio       ,7,10,4,1,3,824.09022,824.09022,826.58229,0,41,41,41,1,119,3,7,slipper     ,radio       ,html/resources/sequences_IDs/B/08_slipper.jpg,html/resources/sequences_IDs/B/10_radio.jpg,8,10,3,2,4,2,7,8,0,68,,,,,,,,,,,,,,,,,,,,
,,,,,68,2020-07-04_18h58.28.036,retriever_ti,2020.1.3,Win32,60,Chrome,1536,864,,,,,,,,,,,,,,,,,2,,,,,,,,,,,,,,,,,,,,,,,,,,,827.186875,120,left,0.86609,seaturtle     ,6,2,2,1,3,827.20077,827.20077,829.693245,0,42,42,42,1,120,6,4,seaturtle     ,scarf         ,html/resources/sequences_IDs/A/02_seaturtle.jpg,html/resources/sequences_IDs/A/06_scarf.jpg,2,6,2,1,3,2,2,5,0,68,,,,,,,,,,,,,,,,,,,,
,,,,,68,2020-07-04_18h58.28.036,retriever_ti,2020.1.3,Win32,60,Chrome,1536,864,,,,,,,,,,,,,,,,,2,,,,,,,,,,,,,,,,,,,,,,,,,,,830.297005,121,left,0.665705,dress         ,8,7,1,1,1,830.311175,830.311175,832.80316,0,43,43,43,1,121,8,7,dress         ,radio       ,html/resources/sequences_IDs/A/07_dress.jpg,html/resources/sequences_IDs/B/10_radio.jpg,7,10,3,2,4,2,6,8,0,68,,,,,,,,,,,,,,,,,,,,
,,,,,68,2020-07-04_18h58.28.036,retriever_ti,2020.1.3,Win32,60,Chrome,1536,864,,,,,,,,,,,,,,,,,2,,,,,,,,,,,,,,,,,,,,,,,,,,,833.893975,122,left,1.207995,redfox      ,5,1,3,1,3,833.901145,833.901145,836.392855,0,44,44,44,1,122,5,2,redfox      ,clownfish     ,html/resources/sequences_IDs/B/01_redfox.jpg,html/resources/sequences_IDs/A/04_clownfish.jpg,1,4,1,1,2,1,1,4,0,68,,,,,,,,,,,,,,,,,,,,
,,,,,68,2020-07-04_18h58.28.036,retriever_ti,2020.1.3,Win32,60,Chrome,1536,864,,,,,,,,,,,,,,,,,2,,,,,,,,,,,,,,,,,,,,,,,,,,,836.997455,123,right,0.91702,giraffe     ,1,3,-5,0,3,837.00433,837.00433,839.49632,0,45,45,45,1,123,6,1,seaturtle     ,giraffe     ,html/resources/sequences_IDs/A/02_seaturtle.jpg,html/resources/sequences_IDs/B/03_giraffe.jpg,2,3,2,1,1,1,2,3,0,68,,,,,,,,,,,,,,,,,,,,
,,,,,68,2020-07-04_18h58.28.036,retriever_ti,2020.1.3,Win32,60,Chrome,1536,864,,,,,,,,,,,,,,,,,2,,,,,,,,,,,,,,,,,,,,,,,,,,,840.10088,124,right,1.06541,seaturtle     ,6,2,-1,0,0,840.11481,840.11481,842.60663,0,46,46,46,1,124,7,6,radio       ,seaturtle     ,html/resources/sequences_IDs/B/10_radio.jpg,html/resources/sequences_IDs/A/02_seaturtle.jpg,10,2,4,2,2,1,8,2,0,68,,,,,,,,,,,,,,,,,,,,
,,,,,68,2020-07-04_18h58.28.036,retriever_ti,2020.1.3,Win32,60,Chrome,1536,864,,,,,,,,,,,,,,,,,2,,,,,,,,,,,,,,,,,,,,,,,,,,,843.697095,125,right,0.89493,dress         ,8,7,1,1,1,843.704465,843.704465,846.196295,0,47,47,47,1,125,7,8,radio       ,dress         ,html/resources/sequences_IDs/B/10_radio.jpg,html/resources/sequences_IDs/A/07_dress.jpg,10,7,4,2,3,2,8,6,0,68,,,,,,,,,,,,,,,,,,,,
,,,,,68,2020-07-04_18h58.28.036,retriever_ti,2020.1.3,Win32,60,Chrome,1536,864,,,,,,,,,,,,,,,,,2,,,,,,,,,,,,,,,,,,,,,,,,,,,847.287005,126,right,1.540035,redfox      ,5,1,-3,0,3,847.293855,847.293855,849.78599,0,48,48,48,1,126,8,5,dress         ,redfox      ,html/resources/sequences_IDs/A/07_dress.jpg,html/resources/sequences_IDs/B/01_redfox.jpg,7,1,3,2,1,1,6,1,0,68,,,,,,,,,,,,,,,,,,,,
,,,,,68,2020-07-04_18h58.28.036,retriever_ti,2020.1.3,Win32,60,Chrome,1536,864,,,,,,,,,,,,,,,,,2,,,,,,,,,,,,,,,,,,,,,,,,,,,850.390225,127,right,0.766155,seaturtle     ,6,2,-2,0,3,850.40421,850.40421,852.89645,0,49,49,49,1,127,8,6,dress         ,seaturtle     ,html/resources/sequences_IDs/A/07_dress.jpg,html/resources/sequences_IDs/A/02_seaturtle.jpg,7,2,3,2,2,1,6,2,0,68,,,,,,,,,,,,,,,,,,,,
,,,,,68,2020-07-04_18h58.28.036,retriever_ti,2020.1.3,Win32,60,Chrome,1536,864,,,,,,,,,,,,,,,,,2,,,,,,,,,,,,,,,,,,,,,,,,,,,853.50101,128,right,1.212185,scarf         ,4,6,-3,0,3,853.50789,853.50789,855.99979,0,50,50,50,1,128,7,4,radio       ,scarf         ,html/resources/sequences_IDs/B/10_radio.jpg,html/resources/sequences_IDs/A/06_scarf.jpg,10,6,4,2,3,2,8,5,0,68,,,,,,,,,,,,,,,,,,,,
,,,,,68,2020-07-04_18h58.28.036,retriever_ti,2020.1.3,Win32,60,Chrome,1536,864,,,,,,,,,,,,,,,,,2,,,,,,,,,,,,,,,,,,,,,,,,,,,856.604135,129,right,0.61002,redfox      ,5,1,-2,0,3,856.611215,856.611215,859.103525,0,51,51,51,1,129,7,5,radio       ,redfox      ,html/resources/sequences_IDs/B/10_radio.jpg,html/resources/sequences_IDs/B/01_redfox.jpg,10,1,4,2,1,1,8,1,0,68,,,,,,,,,,,,,,,,,,,,
,,,,,68,2020-07-04_18h58.28.036,retriever_ti,2020.1.3,Win32,60,Chrome,1536,864,,,,,,,,,,,,,,,,,2,,,,,,,,,,,,,,,,,,,,,,,,,,,859.707995,130,right,0.99145,giraffe     ,1,3,-1,0,0,859.72197,859.72197,862.214045,0,52,52,52,1,130,2,1,clownfish     ,giraffe     ,html/resources/sequences_IDs/A/04_clownfish.jpg,html/resources/sequences_IDs/B/03_giraffe.jpg,4,3,2,1,1,1,4,3,0,68,,,,,,,,,,,,,,,,,,,,
,,,,,68,2020-07-04_18h58.28.036,retriever_ti,2020.1.3,Win32,60,Chrome,1536,864,,,,,,,,,,,,,,,,,2,,,,,,,,,,,,,,,,,,,,,,,,,,,863.30426,131,right,1.53253,seaturtle     ,6,2,1,1,1,863.31143,863.31143,865.803595,0,53,53,53,1,131,5,6,redfox      ,seaturtle     ,html/resources/sequences_IDs/B/01_redfox.jpg,html/resources/sequences_IDs/A/02_seaturtle.jpg,1,2,1,1,2,1,1,2,0,68,,,,,,,,,,,,,,,,,,,,
,,,,,68,2020-07-04_18h58.28.036,retriever_ti,2020.1.3,Win32,60,Chrome,1536,864,,,,,,,,,,,,,,,,,2,,,,,,,,,,,,,,,,,,,,,,,,,,,866.894035,132,left,0.78749,giraffe     ,1,3,-2,0,3,866.908375,866.908375,869.40004,0,54,54,54,1,132,1,3,giraffe     ,slipper     ,html/resources/sequences_IDs/B/03_giraffe.jpg,html/resources/sequences_IDs/B/08_slipper.jpg,3,8,1,1,3,2,3,7,0,68,,,,,,,,,,,,,,,,,,,,
,,,,,68,2020-07-04_18h58.28.036,retriever_ti,2020.1.3,Win32,60,Chrome,1536,864,,,,,,,,,,,,,,,,,2,,,,,,,,,,,,,,,,,,,,,,,,,,,870.0041,133,right,0.797705,redfox      ,5,1,1,1,1,870.011695,870.011695,872.50359,0,55,55,55,1,133,4,5,scarf         ,redfox      ,html/resources/sequences_IDs/A/06_scarf.jpg,html/resources/sequences_IDs/B/01_redfox.jpg,6,1,3,2,1,1,5,1,0,68,,,,,,,,,,,,,,,,,,,,
,,,,,68,2020-07-04_18h58.28.036,retriever_ti,2020.1.3,Win32,60,Chrome,1536,864,,,,,,,,,,,,,,,,,2,,,,,,,,,,,,,,,,,,,,,,,,,,,873.59421,134,right,0.62823,dress         ,8,7,1,1,0,873.607905,873.607905,876.09993,0,56,56,56,1,134,7,8,radio       ,dress         ,html/resources/sequences_IDs/B/10_radio.jpg,html/resources/sequences_IDs/A/07_dress.jpg,10,7,4,2,3,2,8,6,1,68,,,,,,,,,,,,,,,,,,,,
,,,,,68,2020-07-04_18h58.28.036,retriever_ti,2020.1.3,Win32,60,Chrome,1536,864,,,,,,,,,,,,,,,,,2,,,,,,,,,,,,,,,,,,,,,,,,,,,877.190285,135,left,1.03687,clownfish     ,2,4,-3,0,3,877.197545,877.197545,879.689525,0,57,57,57,1,135,2,5,clownfish     ,redfox      ,html/resources/sequences_IDs/A/04_clownfish.jpg,html/resources/sequences_IDs/B/01_redfox.jpg,4,1,2,1,1,1,4,1,0,68,,,,,,,,,,,,,,,,,,,,
,,,,,68,2020-07-04_18h58.28.036,retriever_ti,2020.1.3,Win32,60,Chrome,1536,864,,,,,,,,,,,,,,,,,2,,,,,,,,,,,,,,,,,,,,,,,,,,,880.295155,136,right,0.89758,scarf         ,4,6,1,1,1,880.300885,880.300885,882.793065,0,58,58,58,1,136,3,4,slipper     ,scarf         ,html/resources/sequences_IDs/B/08_slipper.jpg,html/resources/sequences_IDs/A/06_scarf.jpg,8,6,3,2,3,2,7,5,0,68,,,,,,,,,,,,,,,,,,,,
,,,,,68,2020-07-04_18h58.28.036,retriever_ti,2020.1.3,Win32,60,Chrome,1536,864,,,,,,,,,,,,,,,,,2,,,,,,,,,,,,,,,,,,,,,,,,,,,883.883375,137,left,1.07003,seaturtle     ,6,2,1,1,0,883.890535,883.890535,886.382905,0,59,59,59,1,137,6,5,seaturtle     ,redfox      ,html/resources/sequences_IDs/A/02_seaturtle.jpg,html/resources/sequences_IDs/B/01_redfox.jpg,2,1,2,1,1,1,2,1,1,68,,,,,,,,,,,,,,,,,,,,
,,,,,68,2020-07-04_18h58.28.036,retriever_ti,2020.1.3,Win32,60,Chrome,1536,864,,,,,,,,,,,,,,,,,2,,,,,,,,,,,,,,,,,,,,,,,,,,,887.47319,138,left,0.851165,clownfish     ,2,4,-2,0,3,887.480155,887.480155,889.9722,0,60,60,60,1,138,2,4,clownfish     ,scarf         ,html/resources/sequences_IDs/A/04_clownfish.jpg,html/resources/sequences_IDs/A/06_scarf.jpg,4,6,2,1,3,2,4,5,0,68,,,,,,,,,,,,,,,,,,,,
,,,,,68,2020-07-04_18h58.28.036,retriever_ti,2020.1.3,Win32,60,Chrome,1536,864,,,,,,,,,,,,,,,,,2,,,,,,,,,,,,,,,,,,,,,,,,,,,890.576485,139,right,0.8198,clownfish     ,2,4,-1,0,0,890.59073,890.59073,893.08277,0,61,61,61,1,139,3,2,slipper     ,clownfish     ,html/resources/sequences_IDs/B/08_slipper.jpg,html/resources/sequences_IDs/A/04_clownfish.jpg,8,4,3,2,2,1,7,4,0,68,,,,,,,,,,,,,,,,,,,,
,,,,,68,2020-07-04_18h58.28.036,retriever_ti,2020.1.3,Win32,60,Chrome,1536,864,,,,,,,,,,,,,,,,,2,,,,,,,,,,,,,,,,,,,,,,,,,,,894.17327,140,left,1.372755,giraffe     ,1,3,-1,0,0,894.18709,894.18709,896.679295,0,62,62,62,1,140,1,2,giraffe     ,clownfish     ,html/resources/sequences_IDs/B/03_giraffe.jpg,html/resources/sequences_IDs/A/04_clownfish.jpg,3,4,1,1,2,1,3,4,0,68,,,,,,,,,,,,,,,,,,,,
,,,,,68,2020-07-04_18h58.28.036,retriever_ti,2020.1.3,Win32,60,Chrome,1536,864,,,,,,,,,,,,,,,,,2,,,,,,,,,,,,,,,,,,,,,,,,,,,897.770015,141,right,1.107125,dress         ,8,7,4,1,3,897.78353,897.78353,900.27569,0,63,63,63,1,141,4,8,scarf         ,dress         ,html/resources/sequences_IDs/A/06_scarf.jpg,html/resources/sequences_IDs/A/07_dress.jpg,6,7,3,2,3,2,5,6,0,68,,,,,,,,,,,,,,,,,,,,
,,,,,68,2020-07-04_18h58.28.036,retriever_ti,2020.1.3,Win32,60,Chrome,1536,864,,,,,,,,,,,,,,,,,2,,,,,,,,,,,,,,,,,,,,,,,,,,,900.880175,142,right,0.95048,giraffe     ,1,3,-4,0,3,900.88707,900.88707,903.37924,0,64,64,64,1,142,5,1,redfox      ,giraffe     ,html/resources/sequences_IDs/B/01_redfox.jpg,html/resources/sequences_IDs/B/03_giraffe.jpg,1,3,1,1,1,1,1,3,0,68,,,,,,,,,,,,,,,,,,,,
,,,,,68,2020-07-04_18h58.28.036,retriever_ti,2020.1.3,Win32,60,Chrome,1536,864,,,,,,,,,,,,,,,,,2,,,,,,,,,,,,,,,,,,,,,,,,,,,903.983375,143,left,0.823065,clownfish     ,2,4,-1,0,0,903.99059,903.99059,906.48271,0,65,65,65,1,143,2,3,clownfish     ,slipper     ,html/resources/sequences_IDs/A/04_clownfish.jpg,html/resources/sequences_IDs/B/08_slipper.jpg,4,8,2,1,3,2,4,7,0,68,,,,,,,,,,,,,,,,,,,,
,,,,,68,2020-07-04_18h58.28.036,retriever_ti,2020.1.3,Win32,60,Chrome,1536,864,,,,,,,,,,,,,,,,,2,,,,,,,,,,,,,,,,,,,,,,,,,,,907.573135,144,right,0.408015,redfox      ,5,1,2,1,3,907.5801,907.5801,910.07235,0,66,66,66,1,144,3,5,slipper     ,redfox      ,html/resources/sequences_IDs/B/08_slipper.jpg,html/resources/sequences_IDs/B/01_redfox.jpg,8,1,3,2,1,1,7,1,0,68,,,,,,,,,,,,,,,,,,,,
,,,,,68,2020-07-04_18h58.28.036,retriever_ti,2020.1.3,Win32,60,Chrome,1536,864,,,,,,,,,,,,,,,,,2,,,,,,,,,,,,,,,,,,,,,,,,,,,910.67639,145,right,0.6451,clownfish     ,2,4,-6,0,3,910.68358,910.68358,913.17581,0,67,67,67,1,145,8,2,dress         ,clownfish     ,html/resources/sequences_IDs/A/07_dress.jpg,html/resources/sequences_IDs/A/04_clownfish.jpg,7,4,3,2,2,1,6,4,0,68,,,,,,,,,,,,,,,,,,,,
,,,,,68,2020-07-04_18h58.28.036,retriever_ti,2020.1.3,Win32,60,Chrome,1536,864,,,,,,,,,,,,,,,,,2,,,,,,,,,,,,,,,,,,,,,,,,,,,913.780345,146,left,0.52466,redfox      ,5,1,-2,0,3,913.787405,913.787405,916.27931,0,68,68,68,1,146,5,7,redfox      ,radio       ,html/resources/sequences_IDs/B/01_redfox.jpg,html/resources/sequences_IDs/B/10_radio.jpg,1,10,1,1,4,2,1,8,0,68,,,,,,,,,,,,,,,,,,,,
,,,,,68,2020-07-04_18h58.28.036,retriever_ti,2020.1.3,Win32,60,Chrome,1536,864,,,,,,,,,,,,,,,,,2,,,,,,,,,,,,,,,,,,,,,,,,,,,916.88363,147,left,0.640655,dress         ,8,7,1,1,1,916.897585,916.897585,919.389865,0,69,69,69,1,147,8,7,dress         ,radio       ,html/resources/sequences_IDs/A/07_dress.jpg,html/resources/sequences_IDs/B/10_radio.jpg,7,10,3,2,4,2,6,8,0,68,,,,,,,,,,,,,,,,,,,,
,,,,,68,2020-07-04_18h58.28.036,retriever_ti,2020.1.3,Win32,60,Chrome,1536,864,,,,,,,,,,,,,,,,,2,,,,,,,,,,,,,,,,,,,,,,,,,,,920.48026,148,left,0.85953,seaturtle     ,6,2,4,1,3,920.49414,920.49414,922.986235,0,70,70,70,1,148,6,2,seaturtle     ,clownfish     ,html/resources/sequences_IDs/A/02_seaturtle.jpg,html/resources/sequences_IDs/A/04_clownfish.jpg,2,4,2,1,2,1,2,4,0,68,,,,,,,,,,,,,,,,,,,,
,,,,,68,2020-07-04_18h58.28.036,retriever_ti,2020.1.3,Win32,60,Chrome,1536,864,,,,,,,,,,,,,,,,,2,,,,,,,,,,,,,,,,,,,,,,,,,,,923.59046,149,left,0.525955,seaturtle     ,6,2,3,1,3,923.597625,923.597625,926.08987,0,71,71,71,1,149,6,3,seaturtle     ,slipper     ,html/resources/sequences_IDs/A/02_seaturtle.jpg,html/resources/sequences_IDs/B/08_slipper.jpg,2,8,2,1,3,2,2,7,0,68,,,,,,,,,,,,,,,,,,,,
,,,,,68,2020-07-04_18h58.28.036,retriever_ti,2020.1.3,Win32,60,Chrome,1536,864,,,,,,,,,,,,,,,,,2,,,,,,,,,,,,,,,,,,,,,,,,,,,926.69423,150,left,0.617295,clownfish     ,2,4,-5,0,3,926.70838,926.70838,929.200395,0,72,72,72,1,150,2,7,clownfish     ,radio       ,html/resources/sequences_IDs/A/04_clownfish.jpg,html/resources/sequences_IDs/B/10_radio.jpg,4,10,2,1,4,2,4,8,0,68,,,,,,,,,,,,,,,,,,,,
,,,,,68,2020-07-04_18h58.28.036,retriever_ti,2020.1.3,Win32,60,Chrome,1536,864,,,,,,,,,,,,,,,,,2,,,,,,,,,,,,,,,,,,,,,,,,,,,929.804645,151,right,0.45365,seaturtle     ,6,2,3,1,3,929.81878,929.81878,932.310975,0,73,73,73,1,151,3,6,slipper     ,seaturtle     ,html/resources/sequences_IDs/B/08_slipper.jpg,html/resources/sequences_IDs/A/02_seaturtle.jpg,8,2,3,2,2,1,7,2,0,68,,,,,,,,,,,,,,,,,,,,
,,,,,68,2020-07-04_18h58.28.036,retriever_ti,2020.1.3,Win32,60,Chrome,1536,864,,,,,,,,,,,,,,,,,2,,,,,,,,,,,,,,,,,,,,,,,,,,,932.91537,152,left,0.47787,redfox      ,5,1,-3,0,3,932.929195,932.929195,935.421305,0,74,74,74,1,152,5,8,redfox      ,dress         ,html/resources/sequences_IDs/B/01_redfox.jpg,html/resources/sequences_IDs/A/07_dress.jpg,1,7,1,1,3,2,1,6,0,68,,,,,,,,,,,,,,,,,,,,
,,,,,68,2020-07-04_18h58.28.036,retriever_ti,2020.1.3,Win32,60,Chrome,1536,864,,,,,,,,,,,,,,,,,2,,,,,,,,,,,,,,,,,,,,,,,,,,,936.02553,153,right,0.596145,giraffe     ,1,3,-3,0,3,936.03966,936.03966,938.53183,0,75,75,75,1,153,4,1,scarf         ,giraffe     ,html/resources/sequences_IDs/A/06_scarf.jpg,html/resources/sequences_IDs/B/03_giraffe.jpg,6,3,3,2,1,1,5,3,0,68,,,,,,,,,,,,,,,,,,,,
,,,,,68,2020-07-04_18h58.28.036,retriever_ti,2020.1.3,Win32,60,Chrome,1536,864,,,,,,,,,,,,,,,,,2,,,,,,,,,,,,,,,,,,,,,,,,,,,939.136365,154,right,0.50623,clownfish     ,2,4,-1,0,1,939.14328,939.14328,941.63537,0,76,76,76,1,154,3,2,slipper     ,clownfish     ,html/resources/sequences_IDs/B/08_slipper.jpg,html/resources/sequences_IDs/A/04_clownfish.jpg,8,4,3,2,2,1,7,4,1,68,,,,,,,,,,,,,,,,,,,,
,,,,,68,2020-07-04_18h58.28.036,retriever_ti,2020.1.3,Win32,60,Chrome,1536,864,,,,,,,,,,,,,,,,,,,,,,,,,,,,,,,,,,,,,0,4.53587,,,,,,,,,,,,,,,,,,,,,,,,,,,,,,,,,,,,,,,,,1,0,1,0,1,,,,,,,,,,,,,,,
,,,,,68,2020-07-04_18h58.28.036,retriever_ti,2020.1.3,Win32,60,Chrome,1536,864,,,,,,,,,,,,,,,,,3,,,,,,,,,,,,,,,,,,,,,,,,,,,955.43787,155,left,0.94341,scarf         ,4,6,-3,0,3,955.45239,955.45239,957.944505,0,0,0,0,1,155,4,7,scarf         ,radio       ,html/resources/sequences_IDs/A/06_scarf.jpg,html/resources/sequences_IDs/B/10_radio.jpg,6,10,3,2,4,2,5,8,0,68,,,,,,,,,,,,,,,,,,,,
,,,,,68,2020-07-04_18h58.28.036,retriever_ti,2020.1.3,Win32,60,Chrome,1536,864,,,,,,,,,,,,,,,,,3,,,,,,,,,,,,,,,,,,,,,,,,,,,958.549175,156,right,0.562555,clownfish     ,2,4,-1,0,0,958.55588,958.55588,961.04801,0,1,1,1,1,156,3,2,slipper     ,clownfish     ,html/resources/sequences_IDs/B/08_slipper.jpg,html/resources/sequences_IDs/A/04_clownfish.jpg,8,4,3,2,2,1,7,4,0,68,,,,,,,,,,,,,,,,,,,,
,,,,,68,2020-07-04_18h58.28.036,retriever_ti,2020.1.3,Win32,60,Chrome,1536,864,,,,,,,,,,,,,,,,,3,,,,,,,,,,,,,,,,,,,,,,,,,,,962.13837,157,right,0.838455,giraffe     ,1,3,-1,0,0,962.145515,962.145515,964.637465,0,2,2,2,1,157,2,1,clownfish     ,giraffe     ,html/resources/sequences_IDs/A/04_clownfish.jpg,html/resources/sequences_IDs/B/03_giraffe.jpg,4,3,2,1,1,1,4,3,0,68,,,,,,,,,,,,,,,,,,,,
,,,,,68,2020-07-04_18h58.28.036,retriever_ti,2020.1.3,Win32,60,Chrome,1536,864,,,,,,,,,,,,,,,,,3,,,,,,,,,,,,,,,,,,,,,,,,,,,965.728075,158,right,0.632355,redfox      ,5,1,1,1,1,965.74185,965.74185,968.23414,0,3,3,3,1,158,4,5,scarf         ,redfox      ,html/resources/sequences_IDs/A/06_scarf.jpg,html/resources/sequences_IDs/B/01_redfox.jpg,6,1,3,2,1,1,5,1,0,68,,,,,,,,,,,,,,,,,,,,
,,,,,68,2020-07-04_18h58.28.036,retriever_ti,2020.1.3,Win32,60,Chrome,1536,864,,,,,,,,,,,,,,,,,3,,,,,,,,,,,,,,,,,,,,,,,,,,,969.324735,159,right,1.33629,dress         ,8,7,1,1,1,969.339075,969.339075,971.830575,0,4,4,4,1,159,7,8,radio       ,dress         ,html/resources/sequences_IDs/B/10_radio.jpg,html/resources/sequences_IDs/A/07_dress.jpg,10,7,4,2,3,2,8,6,0,68,,,,,,,,,,,,,,,,,,,,
,,,,,68,2020-07-04_18h58.28.036,retriever_ti,2020.1.3,Win32,60,Chrome,1536,864,,,,,,,,,,,,,,,,,3,,,,,,,,,,,,,,,,,,,,,,,,,,,972.921025,160,right,0.7864,seaturtle     ,6,2,4,1,3,972.92802,972.92802,975.420145,0,5,5,5,1,160,2,6,clownfish     ,seaturtle     ,html/resources/sequences_IDs/A/04_clownfish.jpg,html/resources/sequences_IDs/A/02_seaturtle.jpg,4,2,2,1,2,1,4,2,0,68,,,,,,,,,,,,,,,,,,,,
,,,,,68,2020-07-04_18h58.28.036,retriever_ti,2020.1.3,Win32,60,Chrome,1536,864,,,,,,,,,,,,,,,,,3,,,,,,,,,,,,,,,,,,,,,,,,,,,976.024315,161,right,0.94521,clownfish     ,2,4,-2,0,3,976.03846,976.03846,978.530595,0,6,6,6,1,161,4,2,scarf         ,clownfish     ,html/resources/sequences_IDs/A/06_scarf.jpg,html/resources/sequences_IDs/A/04_clownfish.jpg,6,4,3,2,2,1,5,4,0,68,,,,,,,,,,,,,,,,,,,,
,,,,,68,2020-07-04_18h58.28.036,retriever_ti,2020.1.3,Win32,60,Chrome,1536,864,,,,,,,,,,,,,,,,,3,,,,,,,,,,,,,,,,,,,,,,,,,,,979.135235,162,left,0.60949,redfox      ,5,1,-2,0,3,979.14967,979.14967,981.64116,0,7,7,7,1,162,5,7,redfox      ,radio       ,html/resources/sequences_IDs/B/01_redfox.jpg,html/resources/sequences_IDs/B/10_radio.jpg,1,10,1,1,4,2,1,8,0,68,,,,,,,,,,,,,,,,,,,,
,,,,,68,2020-07-04_18h58.28.036,retriever_ti,2020.1.3,Win32,60,Chrome,1536,864,,,,,,,,,,,,,,,,,3,,,,,,,,,,,,,,,,,,,,,,,,,,,982.24535,163,right,0.52581,seaturtle     ,6,2,3,1,3,982.25255,982.25255,984.744595,0,8,8,8,1,163,3,6,slipper     ,seaturtle     ,html/resources/sequences_IDs/B/08_slipper.jpg,html/resources/sequences_IDs/A/02_seaturtle.jpg,8,2,3,2,2,1,7,2,0,68,,,,,,,,,,,,,,,,,,,,
,,,,,68,2020-07-04_18h58.28.036,retriever_ti,2020.1.3,Win32,60,Chrome,1536,864,,,,,,,,,,,,,,,,,3,,,,,,,,,,,,,,,,,,,,,,,,,,,985.3495,164,left,0.4952,redfox      ,5,1,-3,0,3,985.35664,985.35664,987.848155,0,9,9,9,1,164,5,8,redfox      ,dress         ,html/resources/sequences_IDs/B/01_redfox.jpg,html/resources/sequences_IDs/A/07_dress.jpg,1,7,1,1,3,2,1,6,0,68,,,,,,,,,,,,,,,,,,,,
,,,,,68,2020-07-04_18h58.28.036,retriever_ti,2020.1.3,Win32,60,Chrome,1536,864,,,,,,,,,,,,,,,,,3,,,,,,,,,,,,,,,,,,,,,,,,,,,988.45242,165,left,0.73704,giraffe     ,1,3,-7,0,3,988.459585,988.459585,990.95169,0,10,10,10,1,165,1,8,giraffe     ,dress         ,html/resources/sequences_IDs/B/03_giraffe.jpg,html/resources/sequences_IDs/A/07_dress.jpg,3,7,1,1,3,2,3,6,0,68,,,,,,,,,,,,,,,,,,,,
,,,,,68,2020-07-04_18h58.28.036,retriever_ti,2020.1.3,Win32,60,Chrome,1536,864,,,,,,,,,,,,,,,,,3,,,,,,,,,,,,,,,,,,,,,,,,,,,991.55609,166,right,0.62059,redfox      ,5,1,-3,0,3,991.56313,991.56313,994.055255,0,11,11,11,1,166,8,5,dress         ,redfox      ,html/resources/sequences_IDs/A/07_dress.jpg,html/resources/sequences_IDs/B/01_redfox.jpg,7,1,3,2,1,1,6,1,0,68,,,,,,,,,,,,,,,,,,,,
,,,,,68,2020-07-04_18h58.28.036,retriever_ti,2020.1.3,Win32,60,Chrome,1536,864,,,,,,,,,,,,,,,,,3,,,,,,,,,,,,,,,,,,,,,,,,,,,994.659555,167,right,0.650495,giraffe     ,1,3,-3,0,3,994.666495,994.666495,997.158665,0,12,12,12,1,167,4,1,scarf         ,giraffe     ,html/resources/sequences_IDs/A/06_scarf.jpg,html/resources/sequences_IDs/B/03_giraffe.jpg,6,3,3,2,1,1,5,3,0,68,,,,,,,,,,,,,,,,,,,,
,,,,,68,2020-07-04_18h58.28.036,retriever_ti,2020.1.3,Win32,60,Chrome,1536,864,,,,,,,,,,,,,,,,,3,,,,,,,,,,,,,,,,,,,,,,,,,,,997.76359,168,left,0.623025,seaturtle     ,6,2,2,1,3,997.777205,997.777205,1000.269255,0,13,13,13,1,168,6,4,seaturtle     ,scarf         ,html/resources/sequences_IDs/A/02_seaturtle.jpg,html/resources/sequences_IDs/A/06_scarf.jpg,2,6,2,1,3,2,2,5,0,68,,,,,,,,,,,,,,,,,,,,
,,,,,68,2020-07-04_18h58.28.036,retriever_ti,2020.1.3,Win32,60,Chrome,1536,864,,,,,,,,,,,,,,,,,3,,,,,,,,,,,,,,,,,,,,,,,,,,,1000.87361,169,left,1.338675,clownfish     ,2,4,-1,0,1,1000.887685,1000.887685,1003.379745,0,14,14,14,1,169,2,3,clownfish     ,slipper     ,html/resources/sequences_IDs/A/04_clownfish.jpg,html/resources/sequences_IDs/B/08_slipper.jpg,4,8,2,1,3,2,4,7,1,68,,,,,,,,,,,,,,,,,,,,
,,,,,68,2020-07-04_18h58.28.036,retriever_ti,2020.1.3,Win32,60,Chrome,1536,864,,,,,,,,,,,,,,,,,3,,,,,,,,,,,,,,,,,,,,,,,,,,,1004.4701,170,left,0.88978,dress         ,8,7,1,1,1,1004.477115,1004.477115,1006.969095,0,15,15,15,1,170,8,7,dress         ,radio       ,html/resources/sequences_IDs/A/07_dress.jpg,html/resources/sequences_IDs/B/10_radio.jpg,7,10,3,2,4,2,6,8,0,68,,,,,,,,,,,,,,,,,,,,
,,,,,68,2020-07-04_18h58.28.036,retriever_ti,2020.1.3,Win32,60,Chrome,1536,864,,,,,,,,,,,,,,,,,3,,,,,,,,,,,,,,,,,,,,,,,,,,,1008.059555,171,left,0.43894,seaturtle     ,6,2,-1,0,1,1008.073705,1008.073705,1010.565795,0,16,16,16,1,171,6,7,seaturtle     ,radio       ,html/resources/sequences_IDs/A/02_seaturtle.jpg,html/resources/sequences_IDs/B/10_radio.jpg,2,10,2,1,4,2,2,8,1,68,,,,,,,,,,,,,,,,,,,,
,,,,,68,2020-07-04_18h58.28.036,retriever_ti,2020.1.3,Win32,60,Chrome,1536,864,,,,,,,,,,,,,,,,,3,,,,,,,,,,,,,,,,,,,,,,,,,,,1011.656295,172,left,0.68496,redfox      ,5,1,3,1,3,1011.66334,1011.66334,1014.15545,0,17,17,17,1,172,5,2,redfox      ,clownfish     ,html/resources/sequences_IDs/B/01_redfox.jpg,html/resources/sequences_IDs/A/04_clownfish.jpg,1,4,1,1,2,1,1,4,0,68,,,,,,,,,,,,,,,,,,,,
,,,,,68,2020-07-04_18h58.28.036,retriever_ti,2020.1.3,Win32,60,Chrome,1536,864,,,,,,,,,,,,,,,,,3,,,,,,,,,,,,,,,,,,,,,,,,,,,1014.759645,173,left,0.86592,giraffe     ,1,3,-1,0,1,1014.766945,1014.766945,1017.25882,0,18,18,18,1,173,1,2,giraffe     ,clownfish     ,html/resources/sequences_IDs/B/03_giraffe.jpg,html/resources/sequences_IDs/A/04_clownfish.jpg,3,4,1,1,2,1,3,4,1,68,,,,,,,,,,,,,,,,,,,,
,,,,,68,2020-07-04_18h58.28.036,retriever_ti,2020.1.3,Win32,60,Chrome,1536,864,,,,,,,,,,,,,,,,,3,,,,,,,,,,,,,,,,,,,,,,,,,,,1018.3492,174,right,0.99756,dress         ,8,7,4,1,3,1018.363275,1018.363275,1020.855205,0,19,19,19,1,174,4,8,scarf         ,dress         ,html/resources/sequences_IDs/A/06_scarf.jpg,html/resources/sequences_IDs/A/07_dress.jpg,6,7,3,2,3,2,5,6,0,68,,,,,,,,,,,,,,,,,,,,
,,,,,68,2020-07-04_18h58.28.036,retriever_ti,2020.1.3,Win32,60,Chrome,1536,864,,,,,,,,,,,,,,,,,3,,,,,,,,,,,,,,,,,,,,,,,,,,,1021.459495,175,right,1.53883,seaturtle     ,6,2,-2,0,3,1021.473615,1021.473615,1023.96574,0,20,20,20,1,175,8,6,dress         ,seaturtle     ,html/resources/sequences_IDs/A/07_dress.jpg,html/resources/sequences_IDs/A/02_seaturtle.jpg,7,2,3,2,2,1,6,2,0,68,,,,,,,,,,,,,,,,,,,,
,,,,,68,2020-07-04_18h58.28.036,retriever_ti,2020.1.3,Win32,60,Chrome,1536,864,,,,,,,,,,,,,,,,,3,,,,,,,,,,,,,,,,,,,,,,,,,,,1024.57042,176,left,0.755095,redfox      ,5,1,1,1,1,1024.584215,1024.584215,1027.07633,0,21,21,21,1,176,5,4,redfox      ,scarf         ,html/resources/sequences_IDs/B/01_redfox.jpg,html/resources/sequences_IDs/A/06_scarf.jpg,1,6,1,1,3,2,1,5,0,68,,,,,,,,,,,,,,,,,,,,
,,,,,68,2020-07-04_18h58.28.036,retriever_ti,2020.1.3,Win32,60,Chrome,1536,864,,,,,,,,,,,,,,,,,3,,,,,,,,,,,,,,,,,,,,,,,,,,,1028.166635,177,right,0.909425,seaturtle     ,6,2,1,1,1,1028.173705,1028.173705,1030.66589,0,22,22,22,1,177,5,6,redfox      ,seaturtle     ,html/resources/sequences_IDs/B/01_redfox.jpg,html/resources/sequences_IDs/A/02_seaturtle.jpg,1,2,1,1,2,1,1,2,0,68,,,,,,,,,,,,,,,,,,,,
,,,,,68,2020-07-04_18h58.28.036,retriever_ti,2020.1.3,Win32,60,Chrome,1536,864,,,,,,,,,,,,,,,,,3,,,,,,,,,,,,,,,,,,,,,,,,,,,1031.75627,178,right,0.518635,redfox      ,5,1,1,1,1,1031.76323,1031.76323,1034.255295,0,23,23,23,1,178,4,5,scarf         ,redfox      ,html/resources/sequences_IDs/A/06_scarf.jpg,html/resources/sequences_IDs/B/01_redfox.jpg,6,1,3,2,1,1,5,1,0,68,,,,,,,,,,,,,,,,,,,,
,,,,,68,2020-07-04_18h58.28.036,retriever_ti,2020.1.3,Win32,60,Chrome,1536,864,,,,,,,,,,,,,,,,,3,,,,,,,,,,,,,,,,,,,,,,,,,,,1035.34676,179,left,0.53797,seaturtle     ,6,2,3,1,3,1035.35991,1035.35991,1037.851865,0,24,24,24,1,179,6,3,seaturtle     ,slipper     ,html/resources/sequences_IDs/A/02_seaturtle.jpg,html/resources/sequences_IDs/B/08_slipper.jpg,2,8,2,1,3,2,2,7,0,68,,,,,,,,,,,,,,,,,,,,
,,,,,68,2020-07-04_18h58.28.036,retriever_ti,2020.1.3,Win32,60,Chrome,1536,864,,,,,,,,,,,,,,,,,3,,,,,,,,,,,,,,,,,,,,,,,,,,,1038.456375,180,right,1.582075,clownfish     ,2,4,1,1,1,1038.47019,1038.47019,1040.96229,0,25,25,25,1,180,1,2,giraffe     ,clownfish     ,html/resources/sequences_IDs/B/03_giraffe.jpg,html/resources/sequences_IDs/A/04_clownfish.jpg,3,4,1,1,2,1,3,4,0,68,,,,,,,,,,,,,,,,,,,,
,,,,,68,2020-07-04_18h58.28.036,retriever_ti,2020.1.3,Win32,60,Chrome,1536,864,,,,,,,,,,,,,,,,,3,,,,,,,,,,,,,,,,,,,,,,,,,,,1042.05254,181,right,0.818395,redfox      ,5,1,-2,0,3,1042.059845,1042.059845,1044.55201,0,26,26,26,1,181,7,5,radio       ,redfox      ,html/resources/sequences_IDs/B/10_radio.jpg,html/resources/sequences_IDs/B/01_redfox.jpg,10,1,4,2,1,1,8,1,0,68,,,,,,,,,,,,,,,,,,,,
,,,,,68,2020-07-04_18h58.28.036,retriever_ti,2020.1.3,Win32,60,Chrome,1536,864,,,,,,,,,,,,,,,,,3,,,,,,,,,,,,,,,,,,,,,,,,,,,1045.15633,182,left,0.48181,clownfish     ,2,4,-6,0,3,1045.170345,1045.170345,1047.66223,0,27,27,27,1,182,2,8,clownfish     ,dress         ,html/resources/sequences_IDs/A/04_clownfish.jpg,html/resources/sequences_IDs/A/07_dress.jpg,4,7,2,1,3,2,4,6,0,68,,,,,,,,,,,,,,,,,,,,
,,,,,68,2020-07-04_18h58.28.036,retriever_ti,2020.1.3,Win32,60,Chrome,1536,864,,,,,,,,,,,,,,,,,3,,,,,,,,,,,,,,,,,,,,,,,,,,,1048.266645,183,left,0.50367,seaturtle     ,6,2,-2,0,3,1048.273845,1048.273845,1050.766,0,28,28,28,1,183,6,8,seaturtle     ,dress         ,html/resources/sequences_IDs/A/02_seaturtle.jpg,html/resources/sequences_IDs/A/07_dress.jpg,2,7,2,1,3,2,2,6,0,68,,,,,,,,,,,,,,,,,,,,
,,,,,68,2020-07-04_18h58.28.036,retriever_ti,2020.1.3,Win32,60,Chrome,1536,864,,,,,,,,,,,,,,,,,3,,,,,,,,,,,,,,,,,,,,,,,,,,,1051.370495,184,left,0.568005,seaturtle     ,6,2,-1,0,0,1051.37738,1051.37738,1053.869505,0,29,29,29,1,184,6,7,seaturtle     ,radio       ,html/resources/sequences_IDs/A/02_seaturtle.jpg,html/resources/sequences_IDs/B/10_radio.jpg,2,10,2,1,4,2,2,8,0,68,,,,,,,,,,,,,,,,,,,,
,,,,,68,2020-07-04_18h58.28.036,retriever_ti,2020.1.3,Win32,60,Chrome,1536,864,,,,,,,,,,,,,,,,,3,,,,,,,,,,,,,,,,,,,,,,,,,,,1054.959575,185,right,0.61069,giraffe     ,1,3,-2,0,3,1054.96691,1054.96691,1057.459045,0,30,30,30,1,185,3,1,slipper     ,giraffe     ,html/resources/sequences_IDs/B/08_slipper.jpg,html/resources/sequences_IDs/B/03_giraffe.jpg,8,3,3,2,1,1,7,3,0,68,,,,,,,,,,,,,,,,,,,,
,,,,,68,2020-07-04_18h58.28.036,retriever_ti,2020.1.3,Win32,60,Chrome,1536,864,,,,,,,,,,,,,,,,,3,,,,,,,,,,,,,,,,,,,,,,,,,,,1058.06355,186,right,1.21699,scarf         ,4,6,1,1,1,1058.07044,1058.07044,1060.562385,0,31,31,31,1,186,3,4,slipper     ,scarf         ,html/resources/sequences_IDs/B/08_slipper.jpg,html/resources/sequences_IDs/A/06_scarf.jpg,8,6,3,2,3,2,7,5,0,68,,,,,,,,,,,,,,,,,,,,
,,,,,68,2020-07-04_18h58.28.036,retriever_ti,2020.1.3,Win32,60,Chrome,1536,864,,,,,,,,,,,,,,,,,3,,,,,,,,,,,,,,,,,,,,,,,,,,,1061.6531,187,right,0.562295,scarf         ,4,6,1,1,1,1061.666995,1061.666995,1064.15891,0,32,32,32,1,187,3,4,slipper     ,scarf         ,html/resources/sequences_IDs/B/08_slipper.jpg,html/resources/sequences_IDs/A/06_scarf.jpg,8,6,3,2,3,2,7,5,0,68,,,,,,,,,,,,,,,,,,,,
,,,,,68,2020-07-04_18h58.28.036,retriever_ti,2020.1.3,Win32,60,Chrome,1536,864,,,,,,,,,,,,,,,,,3,,,,,,,,,,,,,,,,,,,,,,,,,,,1065.249585,188,right,0.84553,dress         ,8,7,1,1,1,1065.263575,1065.263575,1067.75554,0,33,33,33,1,188,7,8,radio       ,dress         ,html/resources/sequences_IDs/B/10_radio.jpg,html/resources/sequences_IDs/A/07_dress.jpg,10,7,4,2,3,2,8,6,0,68,,,,,,,,,,,,,,,,,,,,
,,,,,68,2020-07-04_18h58.28.036,retriever_ti,2020.1.3,Win32,60,Chrome,1536,864,,,,,,,,,,,,,,,,,3,,,,,,,,,,,,,,,,,,,,,,,,,,,1068.84577,189,right,1.27502,redfox      ,5,1,-1,0,0,1068.852835,1068.852835,1071.344965,0,34,34,34,1,189,6,5,seaturtle     ,redfox      ,html/resources/sequences_IDs/A/02_seaturtle.jpg,html/resources/sequences_IDs/B/01_redfox.jpg,2,1,2,1,1,1,2,1,0,68,,,,,,,,,,,,,,,,,,,,
,,,,,68,2020-07-04_18h58.28.036,retriever_ti,2020.1.3,Win32,60,Chrome,1536,864,,,,,,,,,,,,,,,,,3,,,,,,,,,,,,,,,,,,,,,,,,,,,1072.435515,190,left,0.753615,scarf         ,4,6,1,1,1,1072.449415,1072.449415,1074.941715,0,35,35,35,1,190,4,3,scarf         ,slipper     ,html/resources/sequences_IDs/A/06_scarf.jpg,html/resources/sequences_IDs/B/08_slipper.jpg,6,8,3,2,3,2,5,7,0,68,,,,,,,,,,,,,,,,,,,,
,,,,,68,2020-07-04_18h58.28.036,retriever_ti,2020.1.3,Win32,60,Chrome,1536,864,,,,,,,,,,,,,,,,,3,,,,,,,,,,,,,,,,,,,,,,,,,,,1076.031855,191,left,1.6723,clownfish     ,2,4,-1,0,0,1076.039005,1076.039005,1078.531125,0,36,36,36,1,191,2,3,clownfish     ,slipper     ,html/resources/sequences_IDs/A/04_clownfish.jpg,html/resources/sequences_IDs/B/08_slipper.jpg,4,8,2,1,3,2,4,7,0,68,,,,,,,,,,,,,,,,,,,,
,,,,,68,2020-07-04_18h58.28.036,retriever_ti,2020.1.3,Win32,60,Chrome,1536,864,,,,,,,,,,,,,,,,,3,,,,,,,,,,,,,,,,,,,,,,,,,,,1079.621595,192,left,0.784,giraffe     ,1,3,-6,0,3,1079.62843,1079.62843,1082.12058,0,37,37,37,1,192,1,7,giraffe     ,radio       ,html/resources/sequences_IDs/B/03_giraffe.jpg,html/resources/sequences_IDs/B/10_radio.jpg,3,10,1,1,4,2,3,8,0,68,,,,,,,,,,,,,,,,,,,,
,,,,,68,2020-07-04_18h58.28.036,retriever_ti,2020.1.3,Win32,60,Chrome,1536,864,,,,,,,,,,,,,,,,,3,,,,,,,,,,,,,,,,,,,,,,,,,,,1082.72483,193,right,2.14237,clownfish     ,2,4,1,1,1,1082.73902,1082.73902,1085.23108,0,38,38,38,1,193,1,2,giraffe     ,clownfish     ,html/resources/sequences_IDs/B/03_giraffe.jpg,html/resources/sequences_IDs/A/04_clownfish.jpg,3,4,1,1,2,1,3,4,0,68,,,,,,,,,,,,,,,,,,,,
,,,,,68,2020-07-04_18h58.28.036,retriever_ti,2020.1.3,Win32,60,Chrome,1536,864,,,,,,,,,,,,,,,,,3,,,,,,,,,,,,,,,,,,,,,,,,,,,1086.32172,194,left,1.34479,dress         ,8,7,5,1,3,1086.32862,1086.32862,1088.82073,0,39,39,39,1,194,8,3,dress         ,slipper     ,html/resources/sequences_IDs/A/07_dress.jpg,html/resources/sequences_IDs/B/08_slipper.jpg,7,8,3,2,3,2,6,7,0,68,,,,,,,,,,,,,,,,,,,,
,,,,,68,2020-07-04_18h58.28.036,retriever_ti,2020.1.3,Win32,60,Chrome,1536,864,,,,,,,,,,,,,,,,,3,,,,,,,,,,,,,,,,,,,,,,,,,,,1089.42496,195,right,1.13772,radio       ,7,10,4,1,3,1089.438945,1089.438945,1091.931185,0,40,40,40,1,195,3,7,slipper     ,radio       ,html/resources/sequences_IDs/B/08_slipper.jpg,html/resources/sequences_IDs/B/10_radio.jpg,8,10,3,2,4,2,7,8,0,68,,,,,,,,,,,,,,,,,,,,
,,,,,68,2020-07-04_18h58.28.036,retriever_ti,2020.1.3,Win32,60,Chrome,1536,864,,,,,,,,,,,,,,,,,3,,,,,,,,,,,,,,,,,,,,,,,,,,,1092.53595,196,right,1.18109,clownfish     ,2,4,-1,0,0,1092.549525,1092.549525,1095.04163,0,41,41,41,1,196,3,2,slipper     ,clownfish     ,html/resources/sequences_IDs/B/08_slipper.jpg,html/resources/sequences_IDs/A/04_clownfish.jpg,8,4,3,2,2,1,7,4,0,68,,,,,,,,,,,,,,,,,,,,
,,,,,68,2020-07-04_18h58.28.036,retriever_ti,2020.1.3,Win32,60,Chrome,1536,864,,,,,,,,,,,,,,,,,3,,,,,,,,,,,,,,,,,,,,,,,,,,,1096.131765,197,left,1.408605,giraffe     ,1,3,-3,0,3,1096.145955,1096.145955,1098.638005,0,42,42,42,1,197,1,4,giraffe     ,scarf         ,html/resources/sequences_IDs/B/03_giraffe.jpg,html/resources/sequences_IDs/A/06_scarf.jpg,3,6,1,1,3,2,3,5,0,68,,,,,,,,,,,,,,,,,,,,
,,,,,68,2020-07-04_18h58.28.036,retriever_ti,2020.1.3,Win32,60,Chrome,1536,864,,,,,,,,,,,,,,,,,3,,,,,,,,,,,,,,,,,,,,,,,,,,,1099.24279,198,right,0.96777,seaturtle     ,6,2,1,1,1,1099.25648,1099.25648,1101.74849,0,43,43,43,1,198,5,6,redfox      ,seaturtle     ,html/resources/sequences_IDs/B/01_redfox.jpg,html/resources/sequences_IDs/A/02_seaturtle.jpg,1,2,1,1,2,1,1,2,0,68,,,,,,,,,,,,,,,,,,,,
,,,,,68,2020-07-04_18h58.28.036,retriever_ti,2020.1.3,Win32,60,Chrome,1536,864,,,,,,,,,,,,,,,,,3,,,,,,,,,,,,,,,,,,,,,,,,,,,1102.83894,199,right,1.73852,seaturtle     ,6,2,2,1,3,1102.853145,1102.853145,1105.34501,0,44,44,44,1,199,4,6,scarf         ,seaturtle     ,html/resources/sequences_IDs/A/06_scarf.jpg,html/resources/sequences_IDs/A/02_seaturtle.jpg,6,2,3,2,2,1,5,2,0,68,,,,,,,,,,,,,,,,,,,,
,,,,,68,2020-07-04_18h58.28.036,retriever_ti,2020.1.3,Win32,60,Chrome,1536,864,,,,,,,,,,,,,,,,,3,,,,,,,,,,,,,,,,,,,,,,,,,,,1105.94973,200,left,1.143815,seaturtle     ,6,2,5,1,3,1105.95646,1105.95646,1108.448705,0,45,45,45,1,200,6,1,seaturtle     ,giraffe     ,html/resources/sequences_IDs/A/02_seaturtle.jpg,html/resources/sequences_IDs/B/03_giraffe.jpg,2,3,2,1,1,1,2,3,0,68,,,,,,,,,,,,,,,,,,,,
,,,,,68,2020-07-04_18h58.28.036,retriever_ti,2020.1.3,Win32,60,Chrome,1536,864,,,,,,,,,,,,,,,,,3,,,,,,,,,,,,,,,,,,,,,,,,,,,1109.05328,201,left,1.326115,redfox      ,5,1,4,1,3,1109.06003,1109.06003,1111.552215,0,46,46,46,1,201,5,1,redfox      ,giraffe     ,html/resources/sequences_IDs/B/01_redfox.jpg,html/resources/sequences_IDs/B/03_giraffe.jpg,1,3,1,1,1,1,1,3,0,68,,,,,,,,,,,,,,,,,,,,
,,,,,68,2020-07-04_18h58.28.036,retriever_ti,2020.1.3,Win32,60,Chrome,1536,864,,,,,,,,,,,,,,,,,3,,,,,,,,,,,,,,,,,,,,,,,,,,,1112.15675,202,right,1.090655,dress         ,8,7,5,1,3,1112.170615,1112.170615,1114.662615,0,47,47,47,1,202,3,8,slipper     ,dress         ,html/resources/sequences_IDs/B/08_slipper.jpg,html/resources/sequences_IDs/A/07_dress.jpg,8,7,3,2,3,2,7,6,0,68,,,,,,,,,,,,,,,,,,,,
,,,,,68,2020-07-04_18h58.28.036,retriever_ti,2020.1.3,Win32,60,Chrome,1536,864,,,,,,,,,,,,,,,,,3,,,,,,,,,,,,,,,,,,,,,,,,,,,1115.26682,203,right,0.91983,scarf         ,4,6,2,1,3,1115.274035,1115.274035,1117.76625,0,48,48,48,1,203,2,4,clownfish     ,scarf         ,html/resources/sequences_IDs/A/04_clownfish.jpg,html/resources/sequences_IDs/A/06_scarf.jpg,4,6,2,1,3,2,4,5,0,68,,,,,,,,,,,,,,,,,,,,
,,,,,68,2020-07-04_18h58.28.036,retriever_ti,2020.1.3,Win32,60,Chrome,1536,864,,,,,,,,,,,,,,,,,3,,,,,,,,,,,,,,,,,,,,,,,,,,,1118.370555,204,left,1.08198,dress         ,8,7,4,1,3,1118.38449,1118.38449,1120.8769,0,49,49,49,1,204,8,4,dress         ,scarf         ,html/resources/sequences_IDs/A/07_dress.jpg,html/resources/sequences_IDs/A/06_scarf.jpg,7,6,3,2,3,2,6,5,0,68,,,,,,,,,,,,,,,,,,,,
,,,,,68,2020-07-04_18h58.28.036,retriever_ti,2020.1.3,Win32,60,Chrome,1536,864,,,,,,,,,,,,,,,,,3,,,,,,,,,,,,,,,,,,,,,,,,,,,1121.48089,205,right,0.94223,scarf         ,4,6,-3,0,3,1121.495155,1121.495155,1123.987225,0,50,50,50,1,205,7,4,radio       ,scarf         ,html/resources/sequences_IDs/B/10_radio.jpg,html/resources/sequences_IDs/A/06_scarf.jpg,10,6,4,2,3,2,8,5,0,68,,,,,,,,,,,,,,,,,,,,
,,,,,68,2020-07-04_18h58.28.036,retriever_ti,2020.1.3,Win32,60,Chrome,1536,864,,,,,,,,,,,,,,,,,3,,,,,,,,,,,,,,,,,,,,,,,,,,,1124.59146,206,right,1.451175,redfox      ,5,1,2,1,3,1124.599,1124.599,1127.091015,0,51,51,51,1,206,3,5,slipper     ,redfox      ,html/resources/sequences_IDs/B/08_slipper.jpg,html/resources/sequences_IDs/B/01_redfox.jpg,8,1,3,2,1,1,7,1,0,68,,,,,,,,,,,,,,,,,,,,
,,,,,68,2020-07-04_18h58.28.036,retriever_ti,2020.1.3,Win32,60,Chrome,1536,864,,,,,,,,,,,,,,,,,3,,,,,,,,,,,,,,,,,,,,,,,,,,,1127.694965,207,right,0.95775,clownfish     ,2,4,-5,0,3,1127.702665,1127.702665,1130.194265,0,52,52,52,1,207,7,2,radio       ,clownfish     ,html/resources/sequences_IDs/B/10_radio.jpg,html/resources/sequences_IDs/A/04_clownfish.jpg,10,4,4,2,2,1,8,4,0,68,,,,,,,,,,,,,,,,,,,,
,,,,,68,2020-07-04_18h58.28.036,retriever_ti,2020.1.3,Win32,60,Chrome,1536,864,,,,,,,,,,,,,,,,,3,,,,,,,,,,,,,,,,,,,,,,,,,,,1130.798715,208,left,1.348515,dress         ,8,7,6,1,3,1130.805665,1130.805665,1133.297745,0,53,53,53,1,208,8,2,dress         ,clownfish     ,html/resources/sequences_IDs/A/07_dress.jpg,html/resources/sequences_IDs/A/04_clownfish.jpg,7,4,3,2,2,1,6,4,0,68,,,,,,,,,,,,,,,,,,,,
,,,,,68,2020-07-04_18h58.28.036,retriever_ti,2020.1.3,Win32,60,Chrome,1536,864,,,,,,,,,,,,,,,,,3,,,,,,,,,,,,,,,,,,,,,,,,,,,1133.902435,209,left,1.161725,seaturtle     ,6,2,1,1,1,1133.90938,1133.90938,1136.40138,0,54,54,54,1,209,6,5,seaturtle     ,redfox      ,html/resources/sequences_IDs/A/02_seaturtle.jpg,html/resources/sequences_IDs/B/01_redfox.jpg,2,1,2,1,1,1,2,1,0,68,,,,,,,,,,,,,,,,,,,,
,,,,,68,2020-07-04_18h58.28.036,retriever_ti,2020.1.3,Win32,60,Chrome,1536,864,,,,,,,,,,,,,,,,,3,,,,,,,,,,,,,,,,,,,,,,,,,,,1137.49188,210,left,0.998085,clownfish     ,2,4,1,1,1,1137.505765,1137.505765,1139.99768,0,55,55,55,1,210,2,1,clownfish     ,giraffe     ,html/resources/sequences_IDs/A/04_clownfish.jpg,html/resources/sequences_IDs/B/03_giraffe.jpg,4,3,2,1,1,1,4,3,0,68,,,,,,,,,,,,,,,,,,,,
,,,,,68,2020-07-04_18h58.28.036,retriever_ti,2020.1.3,Win32,60,Chrome,1536,864,,,,,,,,,,,,,,,,,3,,,,,,,,,,,,,,,,,,,,,,,,,,,1141.0879,211,left,1.25709,scarf         ,4,6,1,1,0,1141.09516,1141.09516,1143.587375,0,56,56,56,1,211,4,3,scarf         ,slipper     ,html/resources/sequences_IDs/A/06_scarf.jpg,html/resources/sequences_IDs/B/08_slipper.jpg,6,8,3,2,3,2,5,7,1,68,,,,,,,,,,,,,,,,,,,,
,,,,,68,2020-07-04_18h58.28.036,retriever_ti,2020.1.3,Win32,60,Chrome,1536,864,,,,,,,,,,,,,,,,,3,,,,,,,,,,,,,,,,,,,,,,,,,,,1144.677745,212,left,1.148665,redfox      ,5,1,2,1,3,1144.684705,1144.684705,1147.176815,0,57,57,57,1,212,5,3,redfox      ,slipper     ,html/resources/sequences_IDs/B/01_redfox.jpg,html/resources/sequences_IDs/B/08_slipper.jpg,1,8,1,1,3,2,1,7,0,68,,,,,,,,,,,,,,,,,,,,
,,,,,68,2020-07-04_18h58.28.036,retriever_ti,2020.1.3,Win32,60,Chrome,1536,864,,,,,,,,,,,,,,,,,3,,,,,,,,,,,,,,,,,,,,,,,,,,,1147.78155,213,left,1.206385,seaturtle     ,6,2,4,1,3,1147.788345,1147.788345,1150.280355,0,58,58,58,1,213,6,2,seaturtle     ,clownfish     ,html/resources/sequences_IDs/A/02_seaturtle.jpg,html/resources/sequences_IDs/A/04_clownfish.jpg,2,4,2,1,2,1,2,4,0,68,,,,,,,,,,,,,,,,,,,,
,,,,,68,2020-07-04_18h58.28.036,retriever_ti,2020.1.3,Win32,60,Chrome,1536,864,,,,,,,,,,,,,,,,,3,,,,,,,,,,,,,,,,,,,,,,,,,,,1150.885005,214,right,1.231975,seaturtle     ,6,2,-1,0,0,1150.891855,1150.891855,1153.384325,0,59,59,59,1,214,7,6,radio       ,seaturtle     ,html/resources/sequences_IDs/B/10_radio.jpg,html/resources/sequences_IDs/A/02_seaturtle.jpg,10,2,4,2,2,1,8,2,0,68,,,,,,,,,,,,,,,,,,,,
,,,,,68,2020-07-04_18h58.28.036,retriever_ti,2020.1.3,Win32,60,Chrome,1536,864,,,,,,,,,,,,,,,,,3,,,,,,,,,,,,,,,,,,,,,,,,,,,1154.47427,215,left,1.68009,clownfish     ,2,4,-1,0,0,1154.488425,1154.488425,1156.980555,0,60,60,60,1,215,2,3,clownfish     ,slipper     ,html/resources/sequences_IDs/A/04_clownfish.jpg,html/resources/sequences_IDs/B/08_slipper.jpg,4,8,2,1,3,2,4,7,0,68,,,,,,,,,,,,,,,,,,,,
,,,,,68,2020-07-04_18h58.28.036,retriever_ti,2020.1.3,Win32,60,Chrome,1536,864,,,,,,,,,,,,,,,,,3,,,,,,,,,,,,,,,,,,,,,,,,,,,1158.071035,216,right,1.67869,radio       ,7,10,1,1,1,1158.084925,1158.084925,1160.57689,0,61,61,61,1,216,6,7,seaturtle     ,radio       ,html/resources/sequences_IDs/A/02_seaturtle.jpg,html/resources/sequences_IDs/B/10_radio.jpg,2,10,2,1,4,2,2,8,0,68,,,,,,,,,,,,,,,,,,,,
,,,,,68,2020-07-04_18h58.28.036,retriever_ti,2020.1.3,Win32,60,Chrome,1536,864,,,,,,,,,,,,,,,,,3,,,,,,,,,,,,,,,,,,,,,,,,,,,1161.667215,217,right,1.08493,slipper     ,3,8,2,1,3,1161.68138,1161.68138,1164.173435,0,62,62,62,1,217,1,3,giraffe     ,slipper     ,html/resources/sequences_IDs/B/03_giraffe.jpg,html/resources/sequences_IDs/B/08_slipper.jpg,3,8,1,1,3,2,3,7,0,68,,,,,,,,,,,,,,,,,,,,
,,,,,68,2020-07-04_18h58.28.036,retriever_ti,2020.1.3,Win32,60,Chrome,1536,864,,,,,,,,,,,,,,,,,3,,,,,,,,,,,,,,,,,,,,,,,,,,,1164.778005,218,right,1.24119,slipper     ,3,8,-4,0,3,1164.78503,1164.78503,1167.27687,0,63,63,63,1,218,7,3,radio       ,slipper     ,html/resources/sequences_IDs/B/10_radio.jpg,html/resources/sequences_IDs/B/08_slipper.jpg,10,8,4,2,3,2,8,7,0,68,,,,,,,,,,,,,,,,,,,,
,,,,,68,2020-07-04_18h58.28.036,retriever_ti,2020.1.3,Win32,60,Chrome,1536,864,,,,,,,,,,,,,,,,,3,,,,,,,,,,,,,,,,,,,,,,,,,,,1167.88117,219,right,0.74693,seaturtle     ,6,2,-1,0,0,1167.888465,1167.888465,1170.380405,0,64,64,64,1,219,7,6,radio       ,seaturtle     ,html/resources/sequences_IDs/B/10_radio.jpg,html/resources/sequences_IDs/A/02_seaturtle.jpg,10,2,4,2,2,1,8,2,0,68,,,,,,,,,,,,,,,,,,,,
,,,,,68,2020-07-04_18h58.28.036,retriever_ti,2020.1.3,Win32,60,Chrome,1536,864,,,,,,,,,,,,,,,,,3,,,,,,,,,,,,,,,,,,,,,,,,,,,1171.47104,220,left,1.791235,redfox      ,5,1,1,1,0,1171.484925,1171.484925,1173.976995,0,65,65,65,1,220,5,4,redfox      ,scarf         ,html/resources/sequences_IDs/B/01_redfox.jpg,html/resources/sequences_IDs/A/06_scarf.jpg,1,6,1,1,3,2,1,5,1,68,,,,,,,,,,,,,,,,,,,,
,,,,,68,2020-07-04_18h58.28.036,retriever_ti,2020.1.3,Win32,60,Chrome,1536,864,,,,,,,,,,,,,,,,,3,,,,,,,,,,,,,,,,,,,,,,,,,,,1175.067125,221,left,1.208945,dress         ,8,7,1,1,1,1175.074345,1175.074345,1177.56653,0,66,66,66,1,221,8,7,dress         ,radio       ,html/resources/sequences_IDs/A/07_dress.jpg,html/resources/sequences_IDs/B/10_radio.jpg,7,10,3,2,4,2,6,8,0,68,,,,,,,,,,,,,,,,,,,,
,,,,,68,2020-07-04_18h58.28.036,retriever_ti,2020.1.3,Win32,60,Chrome,1536,864,,,,,,,,,,,,,,,,,3,,,,,,,,,,,,,,,,,,,,,,,,,,,1178.65698,222,right,1.72452,redfox      ,5,1,4,1,3,1178.663955,1178.663955,1181.15613,0,67,67,67,1,222,1,5,giraffe     ,redfox      ,html/resources/sequences_IDs/B/03_giraffe.jpg,html/resources/sequences_IDs/B/01_redfox.jpg,3,1,1,1,1,1,3,1,0,68,,,,,,,,,,,,,,,,,,,,
,,,,,68,2020-07-04_18h58.28.036,retriever_ti,2020.1.3,Win32,60,Chrome,1536,864,,,,,,,,,,,,,,,,,3,,,,,,,,,,,,,,,,,,,,,,,,,,,1181.76034,223,left,0.89572,dress         ,8,7,1,1,0,1181.76759,1181.76759,1184.259565,0,68,68,68,1,223,8,7,dress         ,radio       ,html/resources/sequences_IDs/A/07_dress.jpg,html/resources/sequences_IDs/B/10_radio.jpg,7,10,3,2,4,2,6,8,1,68,,,,,,,,,,,,,,,,,,,,
