instructionsLoop.thisRepN,instructionsLoop.thisTrialN,instructionsLoop.thisN,instructionsLoop.thisIndex,instructionsLoop.ran,participant,date,expName,psychopyVersion,OS,frameRate,browser,xResolution,yResolution,fix_onset,tprac,practiceKey.keys,practiceKey.rt,pracitem_chosen_name,acc_practice,P1_onsetPrac,P2_onsetPrac,onsetFeedbPrac,practiceTrials.thisRepN,practiceTrials.thisTrialN,practiceTrials.thisN,practiceTrials.thisIndex,practiceTrials.ran,P1,P2,Block,LocItem1,LocItem2,NameItem1,NameItem2,key_respAC_prac.keys,key_respAC_prac.corr,key_respAC_prac.rt,AC_acc,Attentions.thisRepN,Attentions.thisTrialN,Attentions.thisN,Attentions.thisIndex,Attentions.ran,Stim,Loc1,Loc2,Loc3,Loc4,CorrAns,keyDisturbed.keys,keyDisturbed.rt,repPractice.thisRepN,repPractice.thisTrialN,repPractice.thisN,repPractice.thisIndex,repPractice.ran,fixcross_onsetMain,trialNumber,key_resp.keys,key_resp.rt,item_chosen_name,item_chosen_value,item_chosen_ID,diff_chosen_minus_reject,acc_real,acc_feedback,P1_onset,P2_onset,feedb_onset,trials.thisRepN,trials.thisTrialN,trials.thisN,trials.thisIndex,trials.ran,Trial,ValueP1,ValueP2,P1name,P2name,P1Loc,P2Loc,P1id,P2id,Micro_categoryP1,Macro_categoryP1,Micro_categoryP2,Macro_categoryP2,ID_sequenceP1,ID_sequenceP2,InverseFb,pNumber,repBlocks.thisRepN,repBlocks.thisTrialN,repBlocks.thisN,repBlocks.thisIndex,repBlocks.ran,key_respAC.keys,key_respAC.corr,key_respAC.rt,trials_AC.thisRepN,trials_AC.thisTrialN,trials_AC.thisN,trials_AC.thisIndex,trials_AC.ran,Bonus,BonusLoop.thisRepN,BonusLoop.thisTrialN,BonusLoop.thisN,BonusLoop.thisIndex,BonusLoop.ran,comments
0,0,0,0,1,69,2020-07-04_18h12.12.367,retriever_ti,2020.1.3,Win32,60,Chrome,1920,1080,,,,,,,,,,,,,,,,,,,,,,,,,,,,,,,,,,,,,,,,,,,,,,,,,,,,,,,,,,,,,,,,,,,,,,,,,,,,,,,,,,,,,,,,,,,,,,,,,,
1,0,1,0,1,69,2020-07-04_18h12.12.367,retriever_ti,2020.1.3,Win32,60,Chrome,1920,1080,,,,,,,,,,,,,,,,,,,,,,,,,,,,,,,,,,,,,,,,,,,,,,,,,,,,,,,,,,,,,,,,,,,,,,,,,,,,,,,,,,,,,,,,,,,,,,,,,,
2,0,2,0,1,69,2020-07-04_18h12.12.367,retriever_ti,2020.1.3,Win32,60,Chrome,1920,1080,,,,,,,,,,,,,,,,,,,,,,,,,,,,,,,,,,,,,,,,,,,,,,,,,,,,,,,,,,,,,,,,,,,,,,,,,,,,,,,,,,,,,,,,,,,,,,,,,,
3,0,3,0,1,69,2020-07-04_18h12.12.367,retriever_ti,2020.1.3,Win32,60,Chrome,1920,1080,,,,,,,,,,,,,,,,,,,,,,,,,,,,,,,,,,,,,,,,,,,,,,,,,,,,,,,,,,,,,,,,,,,,,,,,,,,,,,,,,,,,,,,,,,,,,,,,,,
4,0,4,0,1,69,2020-07-04_18h12.12.367,retriever_ti,2020.1.3,Win32,60,Chrome,1920,1080,,,,,,,,,,,,,,,,,,,,,,,,,,,,,,,,,,,,,,,,,,,,,,,,,,,,,,,,,,,,,,,,,,,,,,,,,,,,,,,,,,,,,,,,,,,,,,,,,,
5,0,5,0,1,69,2020-07-04_18h12.12.367,retriever_ti,2020.1.3,Win32,60,Chrome,1920,1080,,,,,,,,,,,,,,,,,,,,,,,,,,,,,,,,,,,,,,,,,,,,,,,,,,,,,,,,,,,,,,,,,,,,,,,,,,,,,,,,,,,,,,,,,,,,,,,,,,
6,0,6,0,1,69,2020-07-04_18h12.12.367,retriever_ti,2020.1.3,Win32,60,Chrome,1920,1080,,,,,,,,,,,,,,,,,,,,,,,,,,,,,,,,,,,,,,,,,,,,,,,,,,,,,,,,,,,,,,,,,,,,,,,,,,,,,,,,,,,,,,,,,,,,,,,,,,
7,0,7,0,1,69,2020-07-04_18h12.12.367,retriever_ti,2020.1.3,Win32,60,Chrome,1920,1080,,,,,,,,,,,,,,,,,,,,,,,,,,,,,,,,,,,,,,,,,,,,,,,,,,,,,,,,,,,,,,,,,,,,,,,,,,,,,,,,,,,,,,,,,,,,,,,,,,
8,0,8,0,1,69,2020-07-04_18h12.12.367,retriever_ti,2020.1.3,Win32,60,Chrome,1920,1080,,,,,,,,,,,,,,,,,,,,,,,,,,,,,,,,,,,,,,,,,,,,,,,,,,,,,,,,,,,,,,,,,,,,,,,,,,,,,,,,,,,,,,,,,,,,,,,,,,
9,0,9,0,1,69,2020-07-04_18h12.12.367,retriever_ti,2020.1.3,Win32,60,Chrome,1920,1080,,,,,,,,,,,,,,,,,,,,,,,,,,,,,,,,,,,,,,,,,,,,,,,,,,,,,,,,,,,,,,,,,,,,,,,,,,,,,,,,,,,,,,,,,,,,,,,,,,
10,0,10,0,1,69,2020-07-04_18h12.12.367,retriever_ti,2020.1.3,Win32,60,Chrome,1920,1080,,,,,,,,,,,,,,,,,,,,,,,,,,,,,,,,,,,,,,,,,,,,,,,,,,,,,,,,,,,,,,,,,,,,,,,,,,,,,,,,,,,,,,,,,,,,,,,,,,
11,0,11,0,1,69,2020-07-04_18h12.12.367,retriever_ti,2020.1.3,Win32,60,Chrome,1920,1080,,,,,,,,,,,,,,,,,,,,,,,,,,,,,,,,,,,,,,,,,,,,,,,,,,,,,,,,,,,,,,,,,,,,,,,,,,,,,,,,,,,,,,,,,,,,,,,,,,
12,0,12,0,1,69,2020-07-04_18h12.12.367,retriever_ti,2020.1.3,Win32,60,Chrome,1920,1080,,,,,,,,,,,,,,,,,,,,,,,,,,,,,,,,,,,,,,,,,,,,,,,,,,,,,,,,,,,,,,,,,,,,,,,,,,,,,,,,,,,,,,,,,,,,,,,,,,
13,0,13,0,1,69,2020-07-04_18h12.12.367,retriever_ti,2020.1.3,Win32,60,Chrome,1920,1080,,,,,,,,,,,,,,,,,,,,,,,,,,,,,,,,,,,,,,,,,,,,,,,,,,,,,,,,,,,,,,,,,,,,,,,,,,,,,,,,,,,,,,,,,,,,,,,,,,
14,0,14,0,1,69,2020-07-04_18h12.12.367,retriever_ti,2020.1.3,Win32,60,Chrome,1920,1080,,,,,,,,,,,,,,,,,,,,,,,,,,,,,,,,,,,,,,,,,,,,,,,,,,,,,,,,,,,,,,,,,,,,,,,,,,,,,,,,,,,,,,,,,,,,,,,,,,
,,,,,69,2020-07-04_18h12.12.367,retriever_ti,2020.1.3,Win32,60,Chrome,1920,1080,354.850615,1,right,1.53112,canary,1,354.86641,354.86641,357.359,0,0,0,0,1,2,5,1,html/resources/stimuli_practice_decision/04_beetle.jpg,html/resources/stimuli_practice_decision/02_canary.jpg,beetle,canary,,,,,,,,,,,,,,,,,,,,,,,,,,,,,,,,,,,,,,,,,,,,,,,,,,,,,,,,,,,,,,,,,,,,,,,,,,,,,
,,,,,69,2020-07-04_18h12.12.367,retriever_ti,2020.1.3,Win32,60,Chrome,1920,1080,357.897385,2,left,1.64864,rabbit,1,357.908015,357.908015,360.396555,0,1,1,1,1,4,3,1,html/resources/stimuli_practice_decision/01_rabbit.jpg,html/resources/stimuli_practice_decision/07_sock.jpg,rabbit,sock,,,,,,,,,,,,,,,,,,,,,,,,,,,,,,,,,,,,,,,,,,,,,,,,,,,,,,,,,,,,,,,,,,,,,,,,,,,,,
,,,,,69,2020-07-04_18h12.12.367,retriever_ti,2020.1.3,Win32,60,Chrome,1920,1080,361.398695,3,right,2.46712,beetle,0,361.412265,361.412265,363.91781,0,2,2,2,1,6,2,1,html/resources/stimuli_practice_decision/06_pullover.jpg,html/resources/stimuli_practice_decision/04_beetle.jpg,pullover,beetle,,,,,,,,,,,,,,,,,,,,,,,,,,,,,,,,,,,,,,,,,,,,,,,,,,,,,,,,,,,,,,,,,,,,,,,,,,,,,
,,,,,69,2020-07-04_18h12.12.367,retriever_ti,2020.1.3,Win32,60,Chrome,1920,1080,364.430475,4,right,1.631775,handmixer,0,364.452335,364.452335,366.9432,0,3,3,3,1,7,1,1,html/resources/stimuli_practice_decision/05_glasses.jpg,html/resources/stimuli_practice_decision/08_handmixer.jpg,glasses,handmixer,,,,,,,,,,,,,,,,,,,,,,,,,,,,,,,,,,,,,,,,,,,,,,,,,,,,,,,,,,,,,,,,,,,,,,,,,,,,,
,,,,,69,2020-07-04_18h12.12.367,retriever_ti,2020.1.3,Win32,60,Chrome,1920,1080,367.450345,5,left,2.15142,glasses,1,367.482775,367.482775,369.97179,0,4,4,4,1,7,6,1,html/resources/stimuli_practice_decision/05_glasses.jpg,html/resources/stimuli_practice_decision/06_pullover.jpg,glasses,pullover,,,,,,,,,,,,,,,,,,,,,,,,,,,,,,,,,,,,,,,,,,,,,,,,,,,,,,,,,,,,,,,,,,,,,,,,,,,,,
,,,,,69,2020-07-04_18h12.12.367,retriever_ti,2020.1.3,Win32,60,Chrome,1920,1080,370.96958,6,left,2.10124,rabbit,0,371.00803,371.00803,373.506205,0,5,5,5,1,4,7,1,html/resources/stimuli_practice_decision/01_rabbit.jpg,html/resources/stimuli_practice_decision/05_glasses.jpg,rabbit,glasses,,,,,,,,,,,,,,,,,,,,,,,,,,,,,,,,,,,,,,,,,,,,,,,,,,,,,,,,,,,,,,,,,,,,,,,,,,,,,
,,,,,69,2020-07-04_18h12.12.367,retriever_ti,2020.1.3,Win32,60,Chrome,1920,1080,374.01415,7,right,1.89027,beetle,1,374.044835,374.044835,376.54003,0,6,6,6,1,1,2,1,html/resources/stimuli_practice_decision/08_handmixer.jpg,html/resources/stimuli_practice_decision/04_beetle.jpg,handmixer,beetle,,,,,,,,,,,,,,,,,,,,,,,,,,,,,,,,,,,,,,,,,,,,,,,,,,,,,,,,,,,,,,,,,,,,,,,,,,,,,
,,,,,69,2020-07-04_18h12.12.367,retriever_ti,2020.1.3,Win32,60,Chrome,1920,1080,377.54758,8,left,1.88518,rabbit,1,377.58037,377.58037,380.073625,0,7,7,7,1,4,3,1,html/resources/stimuli_practice_decision/01_rabbit.jpg,html/resources/stimuli_practice_decision/07_sock.jpg,rabbit,sock,,,,,,,,,,,,,,,,,,,,,,,,,,,,,,,,,,,,,,,,,,,,,,,,,,,,,,,,,,,,,,,,,,,,,,,,,,,,,
,,,,,69,2020-07-04_18h12.12.367,retriever_ti,2020.1.3,Win32,60,Chrome,1920,1080,,,,,,,,,,,,,,,,,,,,,,down,1,2.69785,1,0,0,0,1,1,html/resources/sequences_IDs/star.png,square ↑,circle →,star ↓,← triangle,down,,,,,,,,,,,,,,,,,,,,,,,,,,,,,,,,,,,,,,,,,,,,,,,,,,,,,,,,,,,,,,
,,,,,69,2020-07-04_18h12.12.367,retriever_ti,2020.1.3,Win32,60,Chrome,1920,1080,,,,,,,,,,,,,,,,,,,,,,left,1,1.990755,1,0,1,1,2,1,html/resources/sequences_IDs/square1.png,star ↑,triangle →,circle ↓,← square,left,,,,,,,,,,,,,,,,,,,,,,,,,,,,,,,,,,,,,,,,,,,,,,,,,,,,,,,,,,,,,,
,,,,,69,2020-07-04_18h12.12.367,retriever_ti,2020.1.3,Win32,60,Chrome,1920,1080,,,,,,,,,,,,,,,,,,,,,,down,1,1.78672,1,0,2,2,3,1,html/resources/sequences_IDs/triangle.png,star ↑,square →,triangle ↓,← circle,down,,,,,,,,,,,,,,,,,,,,,,,,,,,,,,,,,,,,,,,,,,,,,,,,,,,,,,,,,,,,,,
,,,,,69,2020-07-04_18h12.12.367,retriever_ti,2020.1.3,Win32,60,Chrome,1920,1080,,,,,,,,,,,,,,,,,,,,,,up,1,1.74215,1,0,3,3,0,1,html/resources/sequences_IDs/circle.png,circle ↑,square →,triangle ↓,← star ,up,,,,,,,,,,,,,,,,,,,,,,,,,,,,,,,,,,,,,,,,,,,,,,,,,,,,,,,,,,,,,,
,,,,,69,2020-07-04_18h12.12.367,retriever_ti,2020.1.3,Win32,60,Chrome,1920,1080,,,,,,,,,,,,,,,,,,,,,,,,,,,,,,,,,,,,,0,39.028925,0,0,0,0,1,,,,,,,,,,,,,,,,,,,,,,,,,,,,,,,,,,,,,,,,,,,,,,,,,,,,,,,
,,,,,69,2020-07-04_18h12.12.367,retriever_ti,2020.1.3,Win32,60,Chrome,1920,1080,435.607495,9,right,1.41252,glasses,1,435.61797,435.61797,438.12361,0,0,0,0,1,6,7,1,html/resources/stimuli_practice_decision/06_pullover.jpg,html/resources/stimuli_practice_decision/05_glasses.jpg,pullover,glasses,,,,,,,,,,,,,,,,,,,,,,,,,,,,,,,,,,,,,,,,,,,,,,,,,,,,,,,,,,,,,,,,,,,,,,,,,,,,,
,,,,,69,2020-07-04_18h12.12.367,retriever_ti,2020.1.3,Win32,60,Chrome,1920,1080,439.11409,10,right,1.426965,beetle,0,439.14736,439.14736,441.63995,0,1,1,1,1,6,2,1,html/resources/stimuli_practice_decision/06_pullover.jpg,html/resources/stimuli_practice_decision/04_beetle.jpg,pullover,beetle,,,,,,,,,,,,,,,,,,,,,,,,,,,,,,,,,,,,,,,,,,,,,,,,,,,,,,,,,,,,,,,,,,,,,,,,,,,,,
,,,,,69,2020-07-04_18h12.12.367,retriever_ti,2020.1.3,Win32,60,Chrome,1920,1080,442.151685,11,left,1.337705,canary,0,442.18353,442.18353,444.679115,0,2,2,2,1,5,6,1,html/resources/stimuli_practice_decision/02_canary.jpg,html/resources/stimuli_practice_decision/06_pullover.jpg,canary,pullover,,,,,,,,,,,,,,,,,,,,,,,,,,,,,,,,,,,,,,,,,,,,,,,,,,,,,,,,,,,,,,,,,,,,,,,,,,,,,
,,,,,69,2020-07-04_18h12.12.367,retriever_ti,2020.1.3,Win32,60,Chrome,1920,1080,445.675135,12,right,1.704075,glasses,0,445.712585,445.712585,448.203045,0,3,3,3,1,8,7,1,html/resources/stimuli_practice_decision/03_squirrel.jpg,html/resources/stimuli_practice_decision/05_glasses.jpg,squirrel,glasses,,,,,,,,,,,,,,,,,,,,,,,,,,,,,,,,,,,,,,,,,,,,,,,,,,,,,,,,,,,,,,,,,,,,,,,,,,,,,
,,,,,69,2020-07-04_18h12.12.367,retriever_ti,2020.1.3,Win32,60,Chrome,1920,1080,449.19839,13,left,1.633725,canary,1,449.230695,449.230695,451.72445,0,4,4,4,1,5,3,1,html/resources/stimuli_practice_decision/02_canary.jpg,html/resources/stimuli_practice_decision/07_sock.jpg,canary,sock,,,,,,,,,,,,,,,,,,,,,,,,,,,,,,,,,,,,,,,,,,,,,,,,,,,,,,,,,,,,,,,,,,,,,,,,,,,,,
,,,,,69,2020-07-04_18h12.12.367,retriever_ti,2020.1.3,Win32,60,Chrome,1920,1080,452.239965,14,right,1.63565,squirrel,1,452.253885,452.253885,454.74136,0,5,5,5,1,7,8,1,html/resources/stimuli_practice_decision/05_glasses.jpg,html/resources/stimuli_practice_decision/03_squirrel.jpg,glasses,squirrel,,,,,,,,,,,,,,,,,,,,,,,,,,,,,,,,,,,,,,,,,,,,,,,,,,,,,,,,,,,,,,,,,,,,,,,,,,,,,
,,,,,69,2020-07-04_18h12.12.367,retriever_ti,2020.1.3,Win32,60,Chrome,1920,1080,455.74684,15,right,2.27996,rabbit,0,455.78154,455.78154,458.266665,0,6,6,6,1,5,4,1,html/resources/stimuli_practice_decision/02_canary.jpg,html/resources/stimuli_practice_decision/01_rabbit.jpg,canary,rabbit,,,,,,,,,,,,,,,,,,,,,,,,,,,,,,,,,,,,,,,,,,,,,,,,,,,,,,,,,,,,,,,,,,,,,,,,,,,,,
,,,,,69,2020-07-04_18h12.12.367,retriever_ti,2020.1.3,Win32,60,Chrome,1920,1080,459.261265,16,left,1.63296,canary,1,459.296485,459.296485,461.795225,0,7,7,7,1,5,3,1,html/resources/stimuli_practice_decision/02_canary.jpg,html/resources/stimuli_practice_decision/07_sock.jpg,canary,sock,,,,,,,,,,,,,,,,,,,,,,,,,,,,,,,,,,,,,,,,,,,,,,,,,,,,,,,,,,,,,,,,,,,,,,,,,,,,,
,,,,,69,2020-07-04_18h12.12.367,retriever_ti,2020.1.3,Win32,60,Chrome,1920,1080,,,,,,,,,,,,,,,,,,,,,,up,1,1.39238,1,0,0,0,0,1,html/resources/sequences_IDs/circle.png,circle ↑,square →,triangle ↓,← star ,up,,,,,,,,,,,,,,,,,,,,,,,,,,,,,,,,,,,,,,,,,,,,,,,,,,,,,,,,,,,,,,
,,,,,69,2020-07-04_18h12.12.367,retriever_ti,2020.1.3,Win32,60,Chrome,1920,1080,,,,,,,,,,,,,,,,,,,,,,down,1,1.6146,1,0,1,1,1,1,html/resources/sequences_IDs/star.png,square ↑,circle →,star ↓,← triangle,down,,,,,,,,,,,,,,,,,,,,,,,,,,,,,,,,,,,,,,,,,,,,,,,,,,,,,,,,,,,,,,
,,,,,69,2020-07-04_18h12.12.367,retriever_ti,2020.1.3,Win32,60,Chrome,1920,1080,,,,,,,,,,,,,,,,,,,,,,down,1,1.69909,1,0,2,2,3,1,html/resources/sequences_IDs/triangle.png,star ↑,square →,triangle ↓,← circle,down,,,,,,,,,,,,,,,,,,,,,,,,,,,,,,,,,,,,,,,,,,,,,,,,,,,,,,,,,,,,,,
,,,,,69,2020-07-04_18h12.12.367,retriever_ti,2020.1.3,Win32,60,Chrome,1920,1080,,,,,,,,,,,,,,,,,,,,,,left,1,2.54255,1,0,3,3,2,1,html/resources/sequences_IDs/square1.png,star ↑,triangle →,circle ↓,← square,left,,,,,,,,,,,,,,,,,,,,,,,,,,,,,,,,,,,,,,,,,,,,,,,,,,,,,,,,,,,,,,
,,,,,69,2020-07-04_18h12.12.367,retriever_ti,2020.1.3,Win32,60,Chrome,1920,1080,,,,,,,,,,,,,,,,,,,,,,,,,,,,,,,,,,,,,0,2.963595,1,0,1,0,1,,,,,,,,,,,,,,,,,,,,,,,,,,,,,,,,,,,,,,,,,,,,,,,,,,,,,,,
,,,,,69,2020-07-04_18h12.12.367,retriever_ti,2020.1.3,Win32,60,Chrome,1920,1080,,,,,,,,,,,,,,,,,1,,,,,,,,,,,,,,,,,,,,,,,,,,,485.188625,1,right,1.52088,hat           ,4,8,1,1,1,485.20913,485.20913,487.699485,0,0,0,0,1,1,3,4,sport_tshirt,hat           ,html/resources/sequences_IDs/B/07_sport_tshirt.jpg,html/resources/sequences_IDs/A/08_hat.jpg,7,8,3,2,3,2,6,7,0,69,,,,,,,,,,,,,,,,,,,,
,,,,,69,2020-07-04_18h12.12.367,retriever_ti,2020.1.3,Win32,60,Chrome,1920,1080,,,,,,,,,,,,,,,,,1,,,,,,,,,,,,,,,,,,,,,,,,,,,488.79835,2,left,1.736515,dolphin     ,1,2,-6,0,3,488.82925,488.82925,491.32193,0,1,1,1,1,2,1,7,dolphin     ,parrot      ,html/resources/sequences_IDs/B/02_dolphin.jpg,html/resources/sequences_IDs/B/05_parrot.jpg,2,5,1,1,2,1,2,4,0,69,,,,,,,,,,,,,,,,,,,,
,,,,,69,2020-07-04_18h12.12.367,retriever_ti,2020.1.3,Win32,60,Chrome,1920,1080,,,,,,,,,,,,,,,,,1,,,,,,,,,,,,,,,,,,,,,,,,,,,491.93655,3,left,1.677055,camel         ,6,3,1,1,1,491.950515,491.950515,494.44444,0,2,2,2,1,3,6,5,camel         ,gloves      ,html/resources/sequences_IDs/A/03_camel.jpg,html/resources/sequences_IDs/B/06_gloves.jpg,3,6,1,1,3,2,3,5,0,69,,,,,,,,,,,,,,,,,,,,
,,,,,69,2020-07-04_18h12.12.367,retriever_ti,2020.1.3,Win32,60,Chrome,1920,1080,,,,,,,,,,,,,,,,,1,,,,,,,,,,,,,,,,,,,,,,,,,,,495.54299,4,right,1.82441,parrot      ,7,5,2,1,3,495.555945,495.555945,498.04954,0,3,3,3,1,4,5,7,gloves      ,parrot      ,html/resources/sequences_IDs/B/06_gloves.jpg,html/resources/sequences_IDs/B/05_parrot.jpg,6,5,3,2,2,1,5,4,0,69,,,,,,,,,,,,,,,,,,,,
,,,,,69,2020-07-04_18h12.12.367,retriever_ti,2020.1.3,Win32,60,Chrome,1920,1080,,,,,,,,,,,,,,,,,1,,,,,,,,,,,,,,,,,,,,,,,,,,,498.656775,5,left,1.457745,hat           ,4,8,1,1,1,498.694305,498.694305,501.18525,0,4,4,4,1,5,4,3,hat           ,sport_tshirt,html/resources/sequences_IDs/A/08_hat.jpg,html/resources/sequences_IDs/B/07_sport_tshirt.jpg,8,7,3,2,3,2,7,6,0,69,,,,,,,,,,,,,,,,,,,,
,,,,,69,2020-07-04_18h12.12.367,retriever_ti,2020.1.3,Win32,60,Chrome,1920,1080,,,,,,,,,,,,,,,,,1,,,,,,,,,,,,,,,,,,,,,,,,,,,502.276765,6,left,1.635495,parrot      ,7,5,6,1,3,502.29205,502.29205,504.78504,0,5,5,5,1,6,7,1,parrot      ,dolphin     ,html/resources/sequences_IDs/B/05_parrot.jpg,html/resources/sequences_IDs/B/02_dolphin.jpg,5,2,2,1,1,1,4,2,0,69,,,,,,,,,,,,,,,,,,,,
,,,,,69,2020-07-04_18h12.12.367,retriever_ti,2020.1.3,Win32,60,Chrome,1920,1080,,,,,,,,,,,,,,,,,1,,,,,,,,,,,,,,,,,,,,,,,,,,,505.40055,7,left,1.594445,wolf          ,2,1,-2,0,3,505.415105,505.415105,507.912335,0,6,6,6,1,7,2,4,wolf          ,hat           ,html/resources/sequences_IDs/A/01_wolf.jpg,html/resources/sequences_IDs/A/08_hat.jpg,1,8,1,1,3,2,1,7,0,69,,,,,,,,,,,,,,,,,,,,
,,,,,69,2020-07-04_18h12.12.367,retriever_ti,2020.1.3,Win32,60,Chrome,1920,1080,,,,,,,,,,,,,,,,,1,,,,,,,,,,,,,,,,,,,,,,,,,,,508.53063,8,right,1.24733,camel         ,6,3,1,1,0,508.56835,508.56835,511.05628,0,7,7,7,1,8,5,6,gloves      ,camel         ,html/resources/sequences_IDs/B/06_gloves.jpg,html/resources/sequences_IDs/A/03_camel.jpg,6,3,3,2,1,1,5,3,1,69,,,,,,,,,,,,,,,,,,,,
,,,,,69,2020-07-04_18h12.12.367,retriever_ti,2020.1.3,Win32,60,Chrome,1920,1080,,,,,,,,,,,,,,,,,1,,,,,,,,,,,,,,,,,,,,,,,,,,,512.158205,9,left,1.48633,satellite_dish,8,10,5,1,3,512.18657,512.18657,514.68937,0,8,8,8,1,9,8,3,satellite_dish,sport_tshirt,html/resources/sequences_IDs/A/10_satellite_dish.jpg,html/resources/sequences_IDs/B/07_sport_tshirt.jpg,10,7,4,2,3,2,8,6,0,69,,,,,,,,,,,,,,,,,,,,
,,,,,69,2020-07-04_18h12.12.367,retriever_ti,2020.1.3,Win32,60,Chrome,1920,1080,,,,,,,,,,,,,,,,,1,,,,,,,,,,,,,,,,,,,,,,,,,,,515.291765,10,left,1.58709,gloves      ,5,6,2,1,3,515.32637,515.32637,517.820275,0,9,9,9,1,10,5,3,gloves      ,sport_tshirt,html/resources/sequences_IDs/B/06_gloves.jpg,html/resources/sequences_IDs/B/07_sport_tshirt.jpg,6,7,3,2,3,2,5,6,0,69,,,,,,,,,,,,,,,,,,,,
,,,,,69,2020-07-04_18h12.12.367,retriever_ti,2020.1.3,Win32,60,Chrome,1920,1080,,,,,,,,,,,,,,,,,1,,,,,,,,,,,,,,,,,,,,,,,,,,,518.4333,11,right,1.54971,dolphin     ,1,2,-7,0,3,518.45257,518.45257,520.952785,0,10,10,10,1,11,8,1,satellite_dish,dolphin     ,html/resources/sequences_IDs/A/10_satellite_dish.jpg,html/resources/sequences_IDs/B/02_dolphin.jpg,10,2,4,2,1,1,8,2,0,69,,,,,,,,,,,,,,,,,,,,
,,,,,69,2020-07-04_18h12.12.367,retriever_ti,2020.1.3,Win32,60,Chrome,1920,1080,,,,,,,,,,,,,,,,,1,,,,,,,,,,,,,,,,,,,,,,,,,,,521.55663,12,left,2.092925,wolf          ,2,1,-6,0,3,521.58797,521.58797,524.083775,0,11,11,11,1,12,2,8,wolf          ,satellite_dish,html/resources/sequences_IDs/A/01_wolf.jpg,html/resources/sequences_IDs/A/10_satellite_dish.jpg,1,10,1,1,4,2,1,8,0,69,,,,,,,,,,,,,,,,,,,,
,,,,,69,2020-07-04_18h12.12.367,retriever_ti,2020.1.3,Win32,60,Chrome,1920,1080,,,,,,,,,,,,,,,,,1,,,,,,,,,,,,,,,,,,,,,,,,,,,524.705455,13,right,1.46528,parrot      ,7,5,1,1,1,524.74002,524.74002,527.23564,0,12,12,12,1,13,6,7,camel         ,parrot      ,html/resources/sequences_IDs/A/03_camel.jpg,html/resources/sequences_IDs/B/05_parrot.jpg,3,5,1,1,2,1,3,4,0,69,,,,,,,,,,,,,,,,,,,,
,,,,,69,2020-07-04_18h12.12.367,retriever_ti,2020.1.3,Win32,60,Chrome,1920,1080,,,,,,,,,,,,,,,,,1,,,,,,,,,,,,,,,,,,,,,,,,,,,528.340205,14,right,1.214015,parrot      ,7,5,3,1,3,528.360845,528.360845,530.859835,0,13,13,13,1,14,4,7,hat           ,parrot      ,html/resources/sequences_IDs/A/08_hat.jpg,html/resources/sequences_IDs/B/05_parrot.jpg,8,5,3,2,2,1,7,4,0,69,,,,,,,,,,,,,,,,,,,,
,,,,,69,2020-07-04_18h12.12.367,retriever_ti,2020.1.3,Win32,60,Chrome,1920,1080,,,,,,,,,,,,,,,,,1,,,,,,,,,,,,,,,,,,,,,,,,,,,531.47374,15,left,1.51638,camel         ,6,3,-1,0,0,531.485395,531.485395,533.980355,0,14,14,14,1,15,6,7,camel         ,parrot      ,html/resources/sequences_IDs/A/03_camel.jpg,html/resources/sequences_IDs/B/05_parrot.jpg,3,5,1,1,2,1,3,4,0,69,,,,,,,,,,,,,,,,,,,,
,,,,,69,2020-07-04_18h12.12.367,retriever_ti,2020.1.3,Win32,60,Chrome,1920,1080,,,,,,,,,,,,,,,,,1,,,,,,,,,,,,,,,,,,,,,,,,,,,535.0771,16,right,1.86235,satellite_dish,8,10,7,1,3,535.115,535.115,537.61864,0,15,15,15,1,16,1,8,dolphin     ,satellite_dish,html/resources/sequences_IDs/B/02_dolphin.jpg,html/resources/sequences_IDs/A/10_satellite_dish.jpg,2,10,1,1,4,2,2,8,0,69,,,,,,,,,,,,,,,,,,,,
,,,,,69,2020-07-04_18h12.12.367,retriever_ti,2020.1.3,Win32,60,Chrome,1920,1080,,,,,,,,,,,,,,,,,1,,,,,,,,,,,,,,,,,,,,,,,,,,,538.233545,17,right,1.04228,wolf          ,2,1,-1,0,0,538.26541,538.26541,540.758725,0,16,16,16,1,17,3,2,sport_tshirt,wolf          ,html/resources/sequences_IDs/B/07_sport_tshirt.jpg,html/resources/sequences_IDs/A/01_wolf.jpg,7,1,3,2,1,1,6,1,0,69,,,,,,,,,,,,,,,,,,,,
,,,,,69,2020-07-04_18h12.12.367,retriever_ti,2020.1.3,Win32,60,Chrome,1920,1080,,,,,,,,,,,,,,,,,1,,,,,,,,,,,,,,,,,,,,,,,,,,,541.851575,18,right,1.12067,satellite_dish,8,10,4,1,3,541.88333,541.88333,544.38532,0,17,17,17,1,18,4,8,hat           ,satellite_dish,html/resources/sequences_IDs/A/08_hat.jpg,html/resources/sequences_IDs/A/10_satellite_dish.jpg,8,10,3,2,4,2,7,8,0,69,,,,,,,,,,,,,,,,,,,,
,,,,,69,2020-07-04_18h12.12.367,retriever_ti,2020.1.3,Win32,60,Chrome,1920,1080,,,,,,,,,,,,,,,,,1,,,,,,,,,,,,,,,,,,,,,,,,,,,544.99121,19,left,1.89594,hat           ,4,8,1,1,0,545.00933,545.00933,547.497405,0,18,18,18,1,19,4,3,hat           ,sport_tshirt,html/resources/sequences_IDs/A/08_hat.jpg,html/resources/sequences_IDs/B/07_sport_tshirt.jpg,8,7,3,2,3,2,7,6,1,69,,,,,,,,,,,,,,,,,,,,
,,,,,69,2020-07-04_18h12.12.367,retriever_ti,2020.1.3,Win32,60,Chrome,1920,1080,,,,,,,,,,,,,,,,,1,,,,,,,,,,,,,,,,,,,,,,,,,,,548.597795,20,left,2.206575,camel         ,6,3,-2,0,3,548.61994,548.61994,551.121605,0,19,19,19,1,20,6,8,camel         ,satellite_dish,html/resources/sequences_IDs/A/03_camel.jpg,html/resources/sequences_IDs/A/10_satellite_dish.jpg,3,10,1,1,4,2,3,8,0,69,,,,,,,,,,,,,,,,,,,,
,,,,,69,2020-07-04_18h12.12.367,retriever_ti,2020.1.3,Win32,60,Chrome,1920,1080,,,,,,,,,,,,,,,,,1,,,,,,,,,,,,,,,,,,,,,,,,,,,551.734315,21,right,1.026455,parrot      ,7,5,-1,0,1,551.76437,551.76437,554.260325,0,20,20,20,1,21,8,7,satellite_dish,parrot      ,html/resources/sequences_IDs/A/10_satellite_dish.jpg,html/resources/sequences_IDs/B/05_parrot.jpg,10,5,4,2,2,1,8,4,1,69,,,,,,,,,,,,,,,,,,,,
,,,,,69,2020-07-04_18h12.12.367,retriever_ti,2020.1.3,Win32,60,Chrome,1920,1080,,,,,,,,,,,,,,,,,1,,,,,,,,,,,,,,,,,,,,,,,,,,,555.354785,22,right,1.46556,parrot      ,7,5,-1,0,0,555.38784,555.38784,557.878155,0,21,21,21,1,22,8,7,satellite_dish,parrot      ,html/resources/sequences_IDs/A/10_satellite_dish.jpg,html/resources/sequences_IDs/B/05_parrot.jpg,10,5,4,2,2,1,8,4,0,69,,,,,,,,,,,,,,,,,,,,
,,,,,69,2020-07-04_18h12.12.367,retriever_ti,2020.1.3,Win32,60,Chrome,1920,1080,,,,,,,,,,,,,,,,,1,,,,,,,,,,,,,,,,,,,,,,,,,,,558.968795,23,left,2.162745,wolf          ,2,1,-1,0,0,559.000535,559.000535,561.487935,0,22,22,22,1,23,2,3,wolf          ,sport_tshirt,html/resources/sequences_IDs/A/01_wolf.jpg,html/resources/sequences_IDs/B/07_sport_tshirt.jpg,1,7,1,1,3,2,1,6,0,69,,,,,,,,,,,,,,,,,,,,
,,,,,69,2020-07-04_18h12.12.367,retriever_ti,2020.1.3,Win32,60,Chrome,1920,1080,,,,,,,,,,,,,,,,,1,,,,,,,,,,,,,,,,,,,,,,,,,,,562.593325,24,left,1.611715,dolphin     ,1,2,-1,0,0,562.608355,562.608355,565.10126,0,23,23,23,1,24,1,2,dolphin     ,wolf          ,html/resources/sequences_IDs/B/02_dolphin.jpg,html/resources/sequences_IDs/A/01_wolf.jpg,2,1,1,1,1,1,2,1,0,69,,,,,,,,,,,,,,,,,,,,
,,,,,69,2020-07-04_18h12.12.367,retriever_ti,2020.1.3,Win32,60,Chrome,1920,1080,,,,,,,,,,,,,,,,,1,,,,,,,,,,,,,,,,,,,,,,,,,,,566.194215,25,right,1.373825,parrot      ,7,5,5,1,3,566.21187,566.21187,568.70525,0,24,24,24,1,25,2,7,wolf          ,parrot      ,html/resources/sequences_IDs/A/01_wolf.jpg,html/resources/sequences_IDs/B/05_parrot.jpg,1,5,1,1,2,1,1,4,0,69,,,,,,,,,,,,,,,,,,,,
,,,,,69,2020-07-04_18h12.12.367,retriever_ti,2020.1.3,Win32,60,Chrome,1920,1080,,,,,,,,,,,,,,,,,1,,,,,,,,,,,,,,,,,,,,,,,,,,,569.325,26,left,1.47176,hat           ,4,8,-1,0,0,569.34342,569.34342,571.836195,0,25,25,25,1,26,4,5,hat           ,gloves      ,html/resources/sequences_IDs/A/08_hat.jpg,html/resources/sequences_IDs/B/06_gloves.jpg,8,6,3,2,3,2,7,5,0,69,,,,,,,,,,,,,,,,,,,,
,,,,,69,2020-07-04_18h12.12.367,retriever_ti,2020.1.3,Win32,60,Chrome,1920,1080,,,,,,,,,,,,,,,,,1,,,,,,,,,,,,,,,,,,,,,,,,,,,572.928455,27,right,1.08884,dolphin     ,1,2,-4,0,3,572.960765,572.960765,575.463045,0,26,26,26,1,27,5,1,gloves      ,dolphin     ,html/resources/sequences_IDs/B/06_gloves.jpg,html/resources/sequences_IDs/B/02_dolphin.jpg,6,2,3,2,1,1,5,2,0,69,,,,,,,,,,,,,,,,,,,,
,,,,,69,2020-07-04_18h12.12.367,retriever_ti,2020.1.3,Win32,60,Chrome,1920,1080,,,,,,,,,,,,,,,,,1,,,,,,,,,,,,,,,,,,,,,,,,,,,576.08176,28,left,1.54337,dolphin     ,1,2,-1,0,1,576.11539,576.11539,578.618665,0,27,27,27,1,28,1,2,dolphin     ,wolf          ,html/resources/sequences_IDs/B/02_dolphin.jpg,html/resources/sequences_IDs/A/01_wolf.jpg,2,1,1,1,1,1,2,1,1,69,,,,,,,,,,,,,,,,,,,,
,,,,,69,2020-07-04_18h12.12.367,retriever_ti,2020.1.3,Win32,60,Chrome,1920,1080,,,,,,,,,,,,,,,,,1,,,,,,,,,,,,,,,,,,,,,,,,,,,579.7281,29,right,1.440875,dolphin     ,1,2,-2,0,3,579.739615,579.739615,582.23443,0,28,28,28,1,29,3,1,sport_tshirt,dolphin     ,html/resources/sequences_IDs/B/07_sport_tshirt.jpg,html/resources/sequences_IDs/B/02_dolphin.jpg,7,2,3,2,1,1,6,2,0,69,,,,,,,,,,,,,,,,,,,,
,,,,,69,2020-07-04_18h12.12.367,retriever_ti,2020.1.3,Win32,60,Chrome,1920,1080,,,,,,,,,,,,,,,,,1,,,,,,,,,,,,,,,,,,,,,,,,,,,582.836325,30,right,1.151105,hat           ,4,8,1,1,1,582.871535,582.871535,585.37205,0,29,29,29,1,30,3,4,sport_tshirt,hat           ,html/resources/sequences_IDs/B/07_sport_tshirt.jpg,html/resources/sequences_IDs/A/08_hat.jpg,7,8,3,2,3,2,6,7,0,69,,,,,,,,,,,,,,,,,,,,
,,,,,69,2020-07-04_18h12.12.367,retriever_ti,2020.1.3,Win32,60,Chrome,1920,1080,,,,,,,,,,,,,,,,,1,,,,,,,,,,,,,,,,,,,,,,,,,,,586.469475,31,left,1.26679,dolphin     ,1,2,-2,0,3,586.482235,586.482235,588.978825,0,30,30,30,1,31,1,3,dolphin     ,sport_tshirt,html/resources/sequences_IDs/B/02_dolphin.jpg,html/resources/sequences_IDs/B/07_sport_tshirt.jpg,2,7,1,1,3,2,2,6,0,69,,,,,,,,,,,,,,,,,,,,
,,,,,69,2020-07-04_18h12.12.367,retriever_ti,2020.1.3,Win32,60,Chrome,1920,1080,,,,,,,,,,,,,,,,,1,,,,,,,,,,,,,,,,,,,,,,,,,,,589.58692,32,left,1.284185,hat           ,4,8,-1,0,0,589.604785,589.604785,592.09337,0,31,31,31,1,32,4,5,hat           ,gloves      ,html/resources/sequences_IDs/A/08_hat.jpg,html/resources/sequences_IDs/B/06_gloves.jpg,8,6,3,2,3,2,7,5,0,69,,,,,,,,,,,,,,,,,,,,
,,,,,69,2020-07-04_18h12.12.367,retriever_ti,2020.1.3,Win32,60,Chrome,1920,1080,,,,,,,,,,,,,,,,,1,,,,,,,,,,,,,,,,,,,,,,,,,,,593.184505,33,left,1.02151,gloves      ,5,6,1,1,1,593.223195,593.223195,595.71268,0,32,32,32,1,33,5,4,gloves      ,hat           ,html/resources/sequences_IDs/B/06_gloves.jpg,html/resources/sequences_IDs/A/08_hat.jpg,6,8,3,2,3,2,5,7,0,69,,,,,,,,,,,,,,,,,,,,
,,,,,69,2020-07-04_18h12.12.367,retriever_ti,2020.1.3,Win32,60,Chrome,1920,1080,,,,,,,,,,,,,,,,,1,,,,,,,,,,,,,,,,,,,,,,,,,,,596.809755,34,right,2.26696,dolphin     ,1,2,-1,0,0,596.84199,596.84199,599.3364,0,33,33,33,1,34,2,1,wolf          ,dolphin     ,html/resources/sequences_IDs/A/01_wolf.jpg,html/resources/sequences_IDs/B/02_dolphin.jpg,1,2,1,1,1,1,1,2,0,69,,,,,,,,,,,,,,,,,,,,
,,,,,69,2020-07-04_18h12.12.367,retriever_ti,2020.1.3,Win32,60,Chrome,1920,1080,,,,,,,,,,,,,,,,,1,,,,,,,,,,,,,,,,,,,,,,,,,,,600.440405,35,right,1.767515,gloves      ,5,6,1,1,0,600.45394,600.45394,602.9426,0,34,34,34,1,35,4,5,hat           ,gloves      ,html/resources/sequences_IDs/A/08_hat.jpg,html/resources/sequences_IDs/B/06_gloves.jpg,8,6,3,2,3,2,7,5,1,69,,,,,,,,,,,,,,,,,,,,
,,,,,69,2020-07-04_18h12.12.367,retriever_ti,2020.1.3,Win32,60,Chrome,1920,1080,,,,,,,,,,,,,,,,,1,,,,,,,,,,,,,,,,,,,,,,,,,,,604.038035,36,left,1.05333,sport_tshirt,3,7,1,1,0,604.05849,604.05849,606.557915,0,35,35,35,1,36,3,2,sport_tshirt,wolf          ,html/resources/sequences_IDs/B/07_sport_tshirt.jpg,html/resources/sequences_IDs/A/01_wolf.jpg,7,1,3,2,1,1,6,1,1,69,,,,,,,,,,,,,,,,,,,,
,,,,,69,2020-07-04_18h12.12.367,retriever_ti,2020.1.3,Win32,60,Chrome,1920,1080,,,,,,,,,,,,,,,,,1,,,,,,,,,,,,,,,,,,,,,,,,,,,607.651325,37,left,2.22366,parrot      ,7,5,1,1,0,607.684375,607.684375,610.181795,0,36,36,36,1,37,7,6,parrot      ,camel         ,html/resources/sequences_IDs/B/05_parrot.jpg,html/resources/sequences_IDs/A/03_camel.jpg,5,3,2,1,1,1,4,3,1,69,,,,,,,,,,,,,,,,,,,,
,,,,,69,2020-07-04_18h12.12.367,retriever_ti,2020.1.3,Win32,60,Chrome,1920,1080,,,,,,,,,,,,,,,,,1,,,,,,,,,,,,,,,,,,,,,,,,,,,611.27633,38,right,0.737455,camel         ,6,3,-1,0,0,611.313335,611.313335,613.80614,0,37,37,37,1,38,7,6,parrot      ,camel         ,html/resources/sequences_IDs/B/05_parrot.jpg,html/resources/sequences_IDs/A/03_camel.jpg,5,3,2,1,1,1,4,3,0,69,,,,,,,,,,,,,,,,,,,,
,,,,,69,2020-07-04_18h12.12.367,retriever_ti,2020.1.3,Win32,60,Chrome,1920,1080,,,,,,,,,,,,,,,,,1,,,,,,,,,,,,,,,,,,,,,,,,,,,614.898355,39,right,1.037065,camel         ,6,3,2,1,3,614.929345,614.929345,617.414125,0,38,38,38,1,39,4,6,hat           ,camel         ,html/resources/sequences_IDs/A/08_hat.jpg,html/resources/sequences_IDs/A/03_camel.jpg,8,3,3,2,1,1,7,3,0,69,,,,,,,,,,,,,,,,,,,,
,,,,,69,2020-07-04_18h12.12.367,retriever_ti,2020.1.3,Win32,60,Chrome,1920,1080,,,,,,,,,,,,,,,,,1,,,,,,,,,,,,,,,,,,,,,,,,,,,618.015925,40,right,1.567155,satellite_dish,8,10,1,1,1,618.056565,618.056565,620.546945,0,39,39,39,1,40,7,8,parrot      ,satellite_dish,html/resources/sequences_IDs/B/05_parrot.jpg,html/resources/sequences_IDs/A/10_satellite_dish.jpg,5,10,2,1,4,2,4,8,0,69,,,,,,,,,,,,,,,,,,,,
,,,,,69,2020-07-04_18h12.12.367,retriever_ti,2020.1.3,Win32,60,Chrome,1920,1080,,,,,,,,,,,,,,,,,1,,,,,,,,,,,,,,,,,,,,,,,,,,,621.643425,41,left,1.647005,satellite_dish,8,10,2,1,3,621.676155,621.676155,624.18335,0,40,40,40,1,41,8,6,satellite_dish,camel         ,html/resources/sequences_IDs/A/10_satellite_dish.jpg,html/resources/sequences_IDs/A/03_camel.jpg,10,3,4,2,1,1,8,3,0,69,,,,,,,,,,,,,,,,,,,,
,,,,,69,2020-07-04_18h12.12.367,retriever_ti,2020.1.3,Win32,60,Chrome,1920,1080,,,,,,,,,,,,,,,,,1,,,,,,,,,,,,,,,,,,,,,,,,,,,624.80272,42,left,1.21656,wolf          ,2,1,-4,0,3,624.821455,624.821455,627.323785,0,41,41,41,1,42,2,6,wolf          ,camel         ,html/resources/sequences_IDs/A/01_wolf.jpg,html/resources/sequences_IDs/A/03_camel.jpg,1,3,1,1,1,1,1,3,0,69,,,,,,,,,,,,,,,,,,,,
,,,,,69,2020-07-04_18h12.12.367,retriever_ti,2020.1.3,Win32,60,Chrome,1920,1080,,,,,,,,,,,,,,,,,1,,,,,,,,,,,,,,,,,,,,,,,,,,,627.927635,43,left,1.84795,camel         ,6,3,2,1,3,627.95045,627.95045,630.43711,0,42,42,42,1,43,6,4,camel         ,hat           ,html/resources/sequences_IDs/A/03_camel.jpg,html/resources/sequences_IDs/A/08_hat.jpg,3,8,1,1,3,2,3,7,0,69,,,,,,,,,,,,,,,,,,,,
,,,,,69,2020-07-04_18h12.12.367,retriever_ti,2020.1.3,Win32,60,Chrome,1920,1080,,,,,,,,,,,,,,,,,1,,,,,,,,,,,,,,,,,,,,,,,,,,,631.04863,44,left,1.398025,hat           ,4,8,3,1,3,631.06116,631.06116,633.56435,0,43,43,43,1,44,4,1,hat           ,dolphin     ,html/resources/sequences_IDs/A/08_hat.jpg,html/resources/sequences_IDs/B/02_dolphin.jpg,8,2,3,2,1,1,7,2,0,69,,,,,,,,,,,,,,,,,,,,
,,,,,69,2020-07-04_18h12.12.367,retriever_ti,2020.1.3,Win32,60,Chrome,1920,1080,,,,,,,,,,,,,,,,,1,,,,,,,,,,,,,,,,,,,,,,,,,,,634.179995,45,left,2.079675,dolphin     ,1,2,-5,0,3,634.214725,634.214725,636.70456,0,44,44,44,1,45,1,6,dolphin     ,camel         ,html/resources/sequences_IDs/B/02_dolphin.jpg,html/resources/sequences_IDs/A/03_camel.jpg,2,3,1,1,1,1,2,3,0,69,,,,,,,,,,,,,,,,,,,,
,,,,,69,2020-07-04_18h12.12.367,retriever_ti,2020.1.3,Win32,60,Chrome,1920,1080,,,,,,,,,,,,,,,,,1,,,,,,,,,,,,,,,,,,,,,,,,,,,637.317775,46,left,1.658195,dolphin     ,1,2,-3,0,3,637.334515,637.334515,639.8238,0,45,45,45,1,46,1,4,dolphin     ,hat           ,html/resources/sequences_IDs/B/02_dolphin.jpg,html/resources/sequences_IDs/A/08_hat.jpg,2,8,1,1,3,2,2,7,0,69,,,,,,,,,,,,,,,,,,,,
,,,,,69,2020-07-04_18h12.12.367,retriever_ti,2020.1.3,Win32,60,Chrome,1920,1080,,,,,,,,,,,,,,,,,1,,,,,,,,,,,,,,,,,,,,,,,,,,,640.43252,47,left,1.678195,parrot      ,7,5,4,1,3,640.45597,640.45597,642.952045,0,46,46,46,1,47,7,3,parrot      ,sport_tshirt,html/resources/sequences_IDs/B/05_parrot.jpg,html/resources/sequences_IDs/B/07_sport_tshirt.jpg,5,7,2,1,3,2,4,6,0,69,,,,,,,,,,,,,,,,,,,,
,,,,,69,2020-07-04_18h12.12.367,retriever_ti,2020.1.3,Win32,60,Chrome,1920,1080,,,,,,,,,,,,,,,,,1,,,,,,,,,,,,,,,,,,,,,,,,,,,643.560475,48,right,1.249985,hat           ,4,8,-4,0,3,643.58027,643.58027,646.067775,0,47,47,47,1,48,8,4,satellite_dish,hat           ,html/resources/sequences_IDs/A/10_satellite_dish.jpg,html/resources/sequences_IDs/A/08_hat.jpg,10,8,4,2,3,2,8,7,0,69,,,,,,,,,,,,,,,,,,,,
,,,,,69,2020-07-04_18h12.12.367,retriever_ti,2020.1.3,Win32,60,Chrome,1920,1080,,,,,,,,,,,,,,,,,1,,,,,,,,,,,,,,,,,,,,,,,,,,,646.67601,49,left,1.83305,satellite_dish,8,10,6,1,3,646.717845,646.717845,649.222375,0,48,48,48,1,49,8,2,satellite_dish,wolf          ,html/resources/sequences_IDs/A/10_satellite_dish.jpg,html/resources/sequences_IDs/A/01_wolf.jpg,10,1,4,2,1,1,8,1,0,69,,,,,,,,,,,,,,,,,,,,
,,,,,69,2020-07-04_18h12.12.367,retriever_ti,2020.1.3,Win32,60,Chrome,1920,1080,,,,,,,,,,,,,,,,,1,,,,,,,,,,,,,,,,,,,,,,,,,,,649.83517,50,left,1.19261,wolf          ,2,1,-1,0,0,649.853065,649.853065,652.34984,0,49,49,49,1,50,2,3,wolf          ,sport_tshirt,html/resources/sequences_IDs/A/01_wolf.jpg,html/resources/sequences_IDs/B/07_sport_tshirt.jpg,1,7,1,1,3,2,1,6,0,69,,,,,,,,,,,,,,,,,,,,
,,,,,69,2020-07-04_18h12.12.367,retriever_ti,2020.1.3,Win32,60,Chrome,1920,1080,,,,,,,,,,,,,,,,,1,,,,,,,,,,,,,,,,,,,,,,,,,,,653.447775,51,right,0.871705,satellite_dish,8,10,5,1,3,653.466295,653.466295,655.954645,0,50,50,50,1,51,3,8,sport_tshirt,satellite_dish,html/resources/sequences_IDs/B/07_sport_tshirt.jpg,html/resources/sequences_IDs/A/10_satellite_dish.jpg,7,10,3,2,4,2,6,8,0,69,,,,,,,,,,,,,,,,,,,,
,,,,,69,2020-07-04_18h12.12.367,retriever_ti,2020.1.3,Win32,60,Chrome,1920,1080,,,,,,,,,,,,,,,,,1,,,,,,,,,,,,,,,,,,,,,,,,,,,656.56993,52,left,1.34905,parrot      ,7,5,-1,0,0,656.61201,656.61201,659.104605,0,51,51,51,1,52,7,8,parrot      ,satellite_dish,html/resources/sequences_IDs/B/05_parrot.jpg,html/resources/sequences_IDs/A/10_satellite_dish.jpg,5,10,2,1,4,2,4,8,0,69,,,,,,,,,,,,,,,,,,,,
,,,,,69,2020-07-04_18h12.12.367,retriever_ti,2020.1.3,Win32,60,Chrome,1920,1080,,,,,,,,,,,,,,,,,1,,,,,,,,,,,,,,,,,,,,,,,,,,,660.199005,53,right,0.98655,gloves      ,5,6,4,1,3,660.210545,660.210545,662.70292,0,52,52,52,1,53,1,5,dolphin     ,gloves      ,html/resources/sequences_IDs/B/02_dolphin.jpg,html/resources/sequences_IDs/B/06_gloves.jpg,2,6,1,1,3,2,2,5,0,69,,,,,,,,,,,,,,,,,,,,
,,,,,69,2020-07-04_18h12.12.367,retriever_ti,2020.1.3,Win32,60,Chrome,1920,1080,,,,,,,,,,,,,,,,,1,,,,,,,,,,,,,,,,,,,,,,,,,,,663.311015,54,right,1.40142,wolf          ,2,1,1,1,1,663.32987,663.32987,665.81846,0,53,53,53,1,54,1,2,dolphin     ,wolf          ,html/resources/sequences_IDs/B/02_dolphin.jpg,html/resources/sequences_IDs/A/01_wolf.jpg,2,1,1,1,1,1,2,1,0,69,,,,,,,,,,,,,,,,,,,,
,,,,,69,2020-07-04_18h12.12.367,retriever_ti,2020.1.3,Win32,60,Chrome,1920,1080,,,,,,,,,,,,,,,,,1,,,,,,,,,,,,,,,,,,,,,,,,,,,666.91589,55,right,2.02233,dolphin     ,1,2,-5,0,3,666.93283,666.93283,669.427675,0,54,54,54,1,55,6,1,camel         ,dolphin     ,html/resources/sequences_IDs/A/03_camel.jpg,html/resources/sequences_IDs/B/02_dolphin.jpg,3,2,1,1,1,1,3,2,0,69,,,,,,,,,,,,,,,,,,,,
,,,,,69,2020-07-04_18h12.12.367,retriever_ti,2020.1.3,Win32,60,Chrome,1920,1080,,,,,,,,,,,,,,,,,1,,,,,,,,,,,,,,,,,,,,,,,,,,,670.03892,56,left,1.192385,gloves      ,5,6,1,1,1,670.070935,670.070935,672.560965,0,55,55,55,1,56,5,4,gloves      ,hat           ,html/resources/sequences_IDs/B/06_gloves.jpg,html/resources/sequences_IDs/A/08_hat.jpg,6,8,3,2,3,2,5,7,0,69,,,,,,,,,,,,,,,,,,,,
,,,,,69,2020-07-04_18h12.12.367,retriever_ti,2020.1.3,Win32,60,Chrome,1920,1080,,,,,,,,,,,,,,,,,1,,,,,,,,,,,,,,,,,,,,,,,,,,,673.66427,57,right,1.61351,sport_tshirt,3,7,-1,0,0,673.682055,673.682055,676.17603,0,56,56,56,1,57,4,3,hat           ,sport_tshirt,html/resources/sequences_IDs/A/08_hat.jpg,html/resources/sequences_IDs/B/07_sport_tshirt.jpg,8,7,3,2,3,2,7,6,0,69,,,,,,,,,,,,,,,,,,,,
,,,,,69,2020-07-04_18h12.12.367,retriever_ti,2020.1.3,Win32,60,Chrome,1920,1080,,,,,,,,,,,,,,,,,1,,,,,,,,,,,,,,,,,,,,,,,,,,,677.273575,58,left,1.364925,gloves      ,5,6,-1,0,0,677.29377,677.29377,679.78512,0,57,57,57,1,58,5,6,gloves      ,camel         ,html/resources/sequences_IDs/B/06_gloves.jpg,html/resources/sequences_IDs/A/03_camel.jpg,6,3,3,2,1,1,5,3,0,69,,,,,,,,,,,,,,,,,,,,
,,,,,69,2020-07-04_18h12.12.367,retriever_ti,2020.1.3,Win32,60,Chrome,1920,1080,,,,,,,,,,,,,,,,,1,,,,,,,,,,,,,,,,,,,,,,,,,,,680.886675,59,right,1.03248,parrot      ,7,5,4,1,3,680.89854,680.89854,683.40356,0,58,58,58,1,59,3,7,sport_tshirt,parrot      ,html/resources/sequences_IDs/B/07_sport_tshirt.jpg,html/resources/sequences_IDs/B/05_parrot.jpg,7,5,3,2,2,1,6,4,0,69,,,,,,,,,,,,,,,,,,,,
,,,,,69,2020-07-04_18h12.12.367,retriever_ti,2020.1.3,Win32,60,Chrome,1920,1080,,,,,,,,,,,,,,,,,1,,,,,,,,,,,,,,,,,,,,,,,,,,,684.016335,60,left,2.10576,parrot      ,7,5,3,1,3,684.049455,684.049455,686.539075,0,59,59,59,1,60,7,4,parrot      ,hat           ,html/resources/sequences_IDs/B/05_parrot.jpg,html/resources/sequences_IDs/A/08_hat.jpg,5,8,2,1,3,2,4,7,0,69,,,,,,,,,,,,,,,,,,,,
,,,,,69,2020-07-04_18h12.12.367,retriever_ti,2020.1.3,Win32,60,Chrome,1920,1080,,,,,,,,,,,,,,,,,1,,,,,,,,,,,,,,,,,,,,,,,,,,,687.15294,61,left,1.54971,gloves      ,5,6,3,1,3,687.16711,687.16711,689.661155,0,60,60,60,1,61,5,2,gloves      ,wolf          ,html/resources/sequences_IDs/B/06_gloves.jpg,html/resources/sequences_IDs/A/01_wolf.jpg,6,1,3,2,1,1,5,1,0,69,,,,,,,,,,,,,,,,,,,,
,,,,,69,2020-07-04_18h12.12.367,retriever_ti,2020.1.3,Win32,60,Chrome,1920,1080,,,,,,,,,,,,,,,,,1,,,,,,,,,,,,,,,,,,,,,,,,,,,690.262905,62,left,1.09179,parrot      ,7,5,1,1,1,690.28097,690.28097,692.77728,0,61,61,61,1,62,7,6,parrot      ,camel         ,html/resources/sequences_IDs/B/05_parrot.jpg,html/resources/sequences_IDs/A/03_camel.jpg,5,3,2,1,1,1,4,3,0,69,,,,,,,,,,,,,,,,,,,,
,,,,,69,2020-07-04_18h12.12.367,retriever_ti,2020.1.3,Win32,60,Chrome,1920,1080,,,,,,,,,,,,,,,,,1,,,,,,,,,,,,,,,,,,,,,,,,,,,693.88185,63,right,1.065745,gloves      ,5,6,2,1,3,693.89386,693.89386,696.38197,0,62,62,62,1,63,3,5,sport_tshirt,gloves      ,html/resources/sequences_IDs/B/07_sport_tshirt.jpg,html/resources/sequences_IDs/B/06_gloves.jpg,7,6,3,2,3,2,6,5,0,69,,,,,,,,,,,,,,,,,,,,
,,,,,69,2020-07-04_18h12.12.367,retriever_ti,2020.1.3,Win32,60,Chrome,1920,1080,,,,,,,,,,,,,,,,,1,,,,,,,,,,,,,,,,,,,,,,,,,,,697.00285,64,left,1.118355,parrot      ,7,5,5,1,3,697.03551,697.03551,699.523185,0,63,63,63,1,64,7,2,parrot      ,wolf          ,html/resources/sequences_IDs/B/05_parrot.jpg,html/resources/sequences_IDs/A/01_wolf.jpg,5,1,2,1,1,1,4,1,0,69,,,,,,,,,,,,,,,,,,,,
,,,,,69,2020-07-04_18h12.12.367,retriever_ti,2020.1.3,Win32,60,Chrome,1920,1080,,,,,,,,,,,,,,,,,1,,,,,,,,,,,,,,,,,,,,,,,,,,,700.125135,65,right,1.7576,satellite_dish,8,10,3,1,3,700.145485,700.145485,702.634085,0,64,64,64,1,65,5,8,gloves      ,satellite_dish,html/resources/sequences_IDs/B/06_gloves.jpg,html/resources/sequences_IDs/A/10_satellite_dish.jpg,6,10,3,2,4,2,5,8,0,69,,,,,,,,,,,,,,,,,,,,
,,,,,69,2020-07-04_18h12.12.367,retriever_ti,2020.1.3,Win32,60,Chrome,1920,1080,,,,,,,,,,,,,,,,,1,,,,,,,,,,,,,,,,,,,,,,,,,,,703.24719,66,left,1.82811,parrot      ,7,5,2,1,3,703.25984,703.25984,705.763475,0,65,65,65,1,66,7,5,parrot      ,gloves      ,html/resources/sequences_IDs/B/05_parrot.jpg,html/resources/sequences_IDs/B/06_gloves.jpg,5,6,2,1,3,2,4,5,0,69,,,,,,,,,,,,,,,,,,,,
,,,,,69,2020-07-04_18h12.12.367,retriever_ti,2020.1.3,Win32,60,Chrome,1920,1080,,,,,,,,,,,,,,,,,1,,,,,,,,,,,,,,,,,,,,,,,,,,,706.365735,67,left,1.744175,camel         ,6,3,1,1,1,706.399765,706.399765,708.88678,0,66,66,66,1,67,6,5,camel         ,gloves      ,html/resources/sequences_IDs/A/03_camel.jpg,html/resources/sequences_IDs/B/06_gloves.jpg,3,6,1,1,3,2,3,5,0,69,,,,,,,,,,,,,,,,,,,,
,,,,,69,2020-07-04_18h12.12.367,retriever_ti,2020.1.3,Win32,60,Chrome,1920,1080,,,,,,,,,,,,,,,,,1,,,,,,,,,,,,,,,,,,,,,,,,,,,709.97642,68,right,1.6661,wolf          ,2,1,-2,0,3,709.992985,709.992985,712.49042,0,67,67,67,1,68,4,2,hat           ,wolf          ,html/resources/sequences_IDs/A/08_hat.jpg,html/resources/sequences_IDs/A/01_wolf.jpg,8,1,3,2,1,1,7,1,0,69,,,,,,,,,,,,,,,,,,,,
,,,,,69,2020-07-04_18h12.12.367,retriever_ti,2020.1.3,Win32,60,Chrome,1920,1080,,,,,,,,,,,,,,,,,1,,,,,,,,,,,,,,,,,,,,,,,,,,,713.10277,69,left,0.87002,camel         ,6,3,4,1,3,713.13796,713.13796,715.62413,0,68,68,68,1,69,6,2,camel         ,wolf          ,html/resources/sequences_IDs/A/03_camel.jpg,html/resources/sequences_IDs/A/01_wolf.jpg,3,1,1,1,1,1,3,1,0,69,,,,,,,,,,,,,,,,,,,,
,,,,,69,2020-07-04_18h12.12.367,retriever_ti,2020.1.3,Win32,60,Chrome,1920,1080,,,,,,,,,,,,,,,,,1,,,,,,,,,,,,,,,,,,,,,,,,,,,716.2316,70,right,1.48299,wolf          ,2,1,-1,0,0,716.25335,716.25335,718.74472,0,69,69,69,1,70,3,2,sport_tshirt,wolf          ,html/resources/sequences_IDs/B/07_sport_tshirt.jpg,html/resources/sequences_IDs/A/01_wolf.jpg,7,1,3,2,1,1,6,1,0,69,,,,,,,,,,,,,,,,,,,,
,,,,,69,2020-07-04_18h12.12.367,retriever_ti,2020.1.3,Win32,60,Chrome,1920,1080,,,,,,,,,,,,,,,,,1,,,,,,,,,,,,,,,,,,,,,,,,,,,719.843085,71,right,1.22152,dolphin     ,1,2,-1,0,0,719.88368,719.88368,722.37157,0,70,70,70,1,71,2,1,wolf          ,dolphin     ,html/resources/sequences_IDs/A/01_wolf.jpg,html/resources/sequences_IDs/B/02_dolphin.jpg,1,2,1,1,1,1,1,2,0,69,,,,,,,,,,,,,,,,,,,,
,,,,,69,2020-07-04_18h12.12.367,retriever_ti,2020.1.3,Win32,60,Chrome,1920,1080,,,,,,,,,,,,,,,,,1,,,,,,,,,,,,,,,,,,,,,,,,,,,723.47748,72,left,1.080515,gloves      ,5,6,-1,0,0,723.50795,723.50795,726.003825,0,71,71,71,1,72,5,6,gloves      ,camel         ,html/resources/sequences_IDs/B/06_gloves.jpg,html/resources/sequences_IDs/A/03_camel.jpg,6,3,3,2,1,1,5,3,0,69,,,,,,,,,,,,,,,,,,,,
,,,,,69,2020-07-04_18h12.12.367,retriever_ti,2020.1.3,Win32,60,Chrome,1920,1080,,,,,,,,,,,,,,,,,1,,,,,,,,,,,,,,,,,,,,,,,,,,,727.100935,73,right,2.154915,gloves      ,5,6,-3,0,3,727.11323,727.11323,729.61408,0,72,72,72,1,73,8,5,satellite_dish,gloves      ,html/resources/sequences_IDs/A/10_satellite_dish.jpg,html/resources/sequences_IDs/B/06_gloves.jpg,10,6,4,2,3,2,8,5,0,69,,,,,,,,,,,,,,,,,,,,
,,,,,69,2020-07-04_18h12.12.367,retriever_ti,2020.1.3,Win32,60,Chrome,1920,1080,,,,,,,,,,,,,,,,,1,,,,,,,,,,,,,,,,,,,,,,,,,,,730.215445,74,left,0.965325,sport_tshirt,3,7,-3,0,3,730.24535,730.24535,732.744865,0,73,73,73,1,74,3,6,sport_tshirt,camel         ,html/resources/sequences_IDs/B/07_sport_tshirt.jpg,html/resources/sequences_IDs/A/03_camel.jpg,7,3,3,2,1,1,6,3,0,69,,,,,,,,,,,,,,,,,,,,
,,,,,69,2020-07-04_18h12.12.367,retriever_ti,2020.1.3,Win32,60,Chrome,1920,1080,,,,,,,,,,,,,,,,,1,,,,,,,,,,,,,,,,,,,,,,,,,,,733.36039,75,right,1.436195,parrot      ,7,5,-1,0,0,733.37307,733.37307,735.861205,0,74,74,74,1,75,8,7,satellite_dish,parrot      ,html/resources/sequences_IDs/A/10_satellite_dish.jpg,html/resources/sequences_IDs/B/05_parrot.jpg,10,5,4,2,2,1,8,4,0,69,,,,,,,,,,,,,,,,,,,,
,,,,,69,2020-07-04_18h12.12.367,retriever_ti,2020.1.3,Win32,60,Chrome,1920,1080,,,,,,,,,,,,,,,,,1,,,,,,,,,,,,,,,,,,,,,,,,,,,736.95847,76,right,1.001225,sport_tshirt,3,7,-3,0,3,736.975825,736.975825,739.46221,0,75,75,75,1,76,6,3,camel         ,sport_tshirt,html/resources/sequences_IDs/A/03_camel.jpg,html/resources/sequences_IDs/B/07_sport_tshirt.jpg,3,7,1,1,3,2,3,6,0,69,,,,,,,,,,,,,,,,,,,,
,,,,,69,2020-07-04_18h12.12.367,retriever_ti,2020.1.3,Win32,60,Chrome,1920,1080,,,,,,,,,,,,,,,,,1,,,,,,,,,,,,,,,,,,,,,,,,,,,740.06768,77,right,0.859055,gloves      ,5,6,3,1,3,740.08444,740.08444,742.573275,0,76,76,76,1,77,2,5,wolf          ,gloves      ,html/resources/sequences_IDs/A/01_wolf.jpg,html/resources/sequences_IDs/B/06_gloves.jpg,1,6,1,1,3,2,1,5,0,69,,,,,,,,,,,,,,,,,,,,
,,,,,69,2020-07-04_18h12.12.367,retriever_ti,2020.1.3,Win32,60,Chrome,1920,1080,,,,,,,,,,,,,,,,,,,,,,,,,,,,,,,,,,,,,0,8.731555,,,,,,,,,,,,,,,,,,,,,,,,,,,,,,,,,,,,,,,,,0,0,0,0,1,,,,,,,,,,,,,,,
,,,,,69,2020-07-04_18h12.12.367,retriever_ti,2020.1.3,Win32,60,Chrome,1920,1080,,,,,,,,,,,,,,,,,2,,,,,,,,,,,,,,,,,,,,,,,,,,,785.03569,78,left,1.23329,sport_tshirt,3,7,1,1,1,785.05693,785.05693,787.56257,0,0,0,0,1,78,3,2,sport_tshirt,wolf          ,html/resources/sequences_IDs/B/07_sport_tshirt.jpg,html/resources/sequences_IDs/A/01_wolf.jpg,7,1,3,2,1,1,6,1,0,69,,,,,,,,,,,,,,,,,,,,
,,,,,69,2020-07-04_18h12.12.367,retriever_ti,2020.1.3,Win32,60,Chrome,1920,1080,,,,,,,,,,,,,,,,,2,,,,,,,,,,,,,,,,,,,,,,,,,,,788.66449,79,right,1.27519,satellite_dish,8,10,7,1,3,788.683675,788.683675,791.1757,0,1,1,1,1,79,1,8,dolphin     ,satellite_dish,html/resources/sequences_IDs/B/02_dolphin.jpg,html/resources/sequences_IDs/A/10_satellite_dish.jpg,2,10,1,1,4,2,2,8,0,69,,,,,,,,,,,,,,,,,,,,
,,,,,69,2020-07-04_18h12.12.367,retriever_ti,2020.1.3,Win32,60,Chrome,1920,1080,,,,,,,,,,,,,,,,,2,,,,,,,,,,,,,,,,,,,,,,,,,,,791.79645,80,left,1.798585,satellite_dish,8,10,1,1,1,791.831365,791.831365,794.322025,0,2,2,2,1,80,8,7,satellite_dish,parrot      ,html/resources/sequences_IDs/A/10_satellite_dish.jpg,html/resources/sequences_IDs/B/05_parrot.jpg,10,5,4,2,2,1,8,4,0,69,,,,,,,,,,,,,,,,,,,,
,,,,,69,2020-07-04_18h12.12.367,retriever_ti,2020.1.3,Win32,60,Chrome,1920,1080,,,,,,,,,,,,,,,,,2,,,,,,,,,,,,,,,,,,,,,,,,,,,795.421695,81,right,0.93234,sport_tshirt,3,7,1,1,1,795.455165,795.455165,797.948625,0,3,3,3,1,81,2,3,wolf          ,sport_tshirt,html/resources/sequences_IDs/A/01_wolf.jpg,html/resources/sequences_IDs/B/07_sport_tshirt.jpg,1,7,1,1,3,2,1,6,0,69,,,,,,,,,,,,,,,,,,,,
,,,,,69,2020-07-04_18h12.12.367,retriever_ti,2020.1.3,Win32,60,Chrome,1920,1080,,,,,,,,,,,,,,,,,2,,,,,,,,,,,,,,,,,,,,,,,,,,,799.044865,82,left,1.975015,gloves      ,5,6,-3,0,3,799.06179,799.06179,801.549035,0,4,4,4,1,82,5,8,gloves      ,satellite_dish,html/resources/sequences_IDs/B/06_gloves.jpg,html/resources/sequences_IDs/A/10_satellite_dish.jpg,6,10,3,2,4,2,5,8,0,69,,,,,,,,,,,,,,,,,,,,
,,,,,69,2020-07-04_18h12.12.367,retriever_ti,2020.1.3,Win32,60,Chrome,1920,1080,,,,,,,,,,,,,,,,,2,,,,,,,,,,,,,,,,,,,,,,,,,,,802.1611,83,right,2.0958,hat           ,4,8,1,1,1,802.195215,802.195215,804.697795,0,5,5,5,1,83,3,4,sport_tshirt,hat           ,html/resources/sequences_IDs/B/07_sport_tshirt.jpg,html/resources/sequences_IDs/A/08_hat.jpg,7,8,3,2,3,2,6,7,0,69,,,,,,,,,,,,,,,,,,,,
,,,,,69,2020-07-04_18h12.12.367,retriever_ti,2020.1.3,Win32,60,Chrome,1920,1080,,,,,,,,,,,,,,,,,2,,,,,,,,,,,,,,,,,,,,,,,,,,,805.794015,84,left,0.987415,gloves      ,5,6,-1,0,0,805.82093,805.82093,808.318795,0,6,6,6,1,84,5,6,gloves      ,camel         ,html/resources/sequences_IDs/B/06_gloves.jpg,html/resources/sequences_IDs/A/03_camel.jpg,6,3,3,2,1,1,5,3,0,69,,,,,,,,,,,,,,,,,,,,
,,,,,69,2020-07-04_18h12.12.367,retriever_ti,2020.1.3,Win32,60,Chrome,1920,1080,,,,,,,,,,,,,,,,,2,,,,,,,,,,,,,,,,,,,,,,,,,,,809.412335,85,right,1.07494,wolf          ,2,1,1,1,1,809.442845,809.442845,811.937925,0,7,7,7,1,85,1,2,dolphin     ,wolf          ,html/resources/sequences_IDs/B/02_dolphin.jpg,html/resources/sequences_IDs/A/01_wolf.jpg,2,1,1,1,1,1,2,1,0,69,,,,,,,,,,,,,,,,,,,,
,,,,,69,2020-07-04_18h12.12.367,retriever_ti,2020.1.3,Win32,60,Chrome,1920,1080,,,,,,,,,,,,,,,,,2,,,,,,,,,,,,,,,,,,,,,,,,,,,813.04711,86,right,0.62243,wolf          ,2,1,1,1,0,813.07802,813.07802,815.57413,0,8,8,8,1,86,1,2,dolphin     ,wolf          ,html/resources/sequences_IDs/B/02_dolphin.jpg,html/resources/sequences_IDs/A/01_wolf.jpg,2,1,1,1,1,1,2,1,1,69,,,,,,,,,,,,,,,,,,,,
,,,,,69,2020-07-04_18h12.12.367,retriever_ti,2020.1.3,Win32,60,Chrome,1920,1080,,,,,,,,,,,,,,,,,2,,,,,,,,,,,,,,,,,,,,,,,,,,,816.676565,87,right,1.646705,parrot      ,7,5,6,1,3,816.71249,816.71249,819.197795,0,9,9,9,1,87,1,7,dolphin     ,parrot      ,html/resources/sequences_IDs/B/02_dolphin.jpg,html/resources/sequences_IDs/B/05_parrot.jpg,2,5,1,1,2,1,2,4,0,69,,,,,,,,,,,,,,,,,,,,
,,,,,69,2020-07-04_18h12.12.367,retriever_ti,2020.1.3,Win32,60,Chrome,1920,1080,,,,,,,,,,,,,,,,,2,,,,,,,,,,,,,,,,,,,,,,,,,,,819.81102,88,left,0.769345,gloves      ,5,6,-1,0,0,819.843945,819.843945,822.339725,0,10,10,10,1,88,5,6,gloves      ,camel         ,html/resources/sequences_IDs/B/06_gloves.jpg,html/resources/sequences_IDs/A/03_camel.jpg,6,3,3,2,1,1,5,3,0,69,,,,,,,,,,,,,,,,,,,,
,,,,,69,2020-07-04_18h12.12.367,retriever_ti,2020.1.3,Win32,60,Chrome,1920,1080,,,,,,,,,,,,,,,,,2,,,,,,,,,,,,,,,,,,,,,,,,,,,823.44323,89,right,0.641605,gloves      ,5,6,-1,0,0,823.45645,823.45645,825.96504,0,11,11,11,1,89,6,5,camel         ,gloves      ,html/resources/sequences_IDs/A/03_camel.jpg,html/resources/sequences_IDs/B/06_gloves.jpg,3,6,1,1,3,2,3,5,0,69,,,,,,,,,,,,,,,,,,,,
,,,,,69,2020-07-04_18h12.12.367,retriever_ti,2020.1.3,Win32,60,Chrome,1920,1080,,,,,,,,,,,,,,,,,2,,,,,,,,,,,,,,,,,,,,,,,,,,,827.058935,90,left,1.26541,sport_tshirt,3,7,-3,0,3,827.07259,827.07259,829.57298,0,12,12,12,1,90,3,6,sport_tshirt,camel         ,html/resources/sequences_IDs/B/07_sport_tshirt.jpg,html/resources/sequences_IDs/A/03_camel.jpg,7,3,3,2,1,1,6,3,0,69,,,,,,,,,,,,,,,,,,,,
,,,,,69,2020-07-04_18h12.12.367,retriever_ti,2020.1.3,Win32,60,Chrome,1920,1080,,,,,,,,,,,,,,,,,2,,,,,,,,,,,,,,,,,,,,,,,,,,,830.1811,91,left,1.503,parrot      ,7,5,1,1,1,830.19472,830.19472,832.6838,0,13,13,13,1,91,7,6,parrot      ,camel         ,html/resources/sequences_IDs/B/05_parrot.jpg,html/resources/sequences_IDs/A/03_camel.jpg,5,3,2,1,1,1,4,3,0,69,,,,,,,,,,,,,,,,,,,,
,,,,,69,2020-07-04_18h12.12.367,retriever_ti,2020.1.3,Win32,60,Chrome,1920,1080,,,,,,,,,,,,,,,,,2,,,,,,,,,,,,,,,,,,,,,,,,,,,833.781455,92,right,1.448665,gloves      ,5,6,1,1,1,833.79994,833.79994,836.28839,0,14,14,14,1,92,4,5,hat           ,gloves      ,html/resources/sequences_IDs/A/08_hat.jpg,html/resources/sequences_IDs/B/06_gloves.jpg,8,6,3,2,3,2,7,5,0,69,,,,,,,,,,,,,,,,,,,,
,,,,,69,2020-07-04_18h12.12.367,retriever_ti,2020.1.3,Win32,60,Chrome,1920,1080,,,,,,,,,,,,,,,,,2,,,,,,,,,,,,,,,,,,,,,,,,,,,837.39164,93,left,0.66395,gloves      ,5,6,1,1,1,837.42255,837.42255,839.916005,0,15,15,15,1,93,5,4,gloves      ,hat           ,html/resources/sequences_IDs/B/06_gloves.jpg,html/resources/sequences_IDs/A/08_hat.jpg,6,8,3,2,3,2,5,7,0,69,,,,,,,,,,,,,,,,,,,,
,,,,,69,2020-07-04_18h12.12.367,retriever_ti,2020.1.3,Win32,60,Chrome,1920,1080,,,,,,,,,,,,,,,,,2,,,,,,,,,,,,,,,,,,,,,,,,,,,841.01112,94,left,1.44227,parrot      ,7,5,3,1,3,841.05147,841.05147,843.54222,0,16,16,16,1,94,7,4,parrot      ,hat           ,html/resources/sequences_IDs/B/05_parrot.jpg,html/resources/sequences_IDs/A/08_hat.jpg,5,8,2,1,3,2,4,7,0,69,,,,,,,,,,,,,,,,,,,,
,,,,,69,2020-07-04_18h12.12.367,retriever_ti,2020.1.3,Win32,60,Chrome,1920,1080,,,,,,,,,,,,,,,,,2,,,,,,,,,,,,,,,,,,,,,,,,,,,844.14946,95,right,1.39945,satellite_dish,8,10,1,1,1,844.165625,844.165625,846.66897,0,17,17,17,1,95,7,8,parrot      ,satellite_dish,html/resources/sequences_IDs/B/05_parrot.jpg,html/resources/sequences_IDs/A/10_satellite_dish.jpg,5,10,2,1,4,2,4,8,0,69,,,,,,,,,,,,,,,,,,,,
,,,,,69,2020-07-04_18h12.12.367,retriever_ti,2020.1.3,Win32,60,Chrome,1920,1080,,,,,,,,,,,,,,,,,2,,,,,,,,,,,,,,,,,,,,,,,,,,,847.761045,96,right,0.67689,satellite_dish,8,10,1,1,1,847.797855,847.797855,850.285035,0,18,18,18,1,96,7,8,parrot      ,satellite_dish,html/resources/sequences_IDs/B/05_parrot.jpg,html/resources/sequences_IDs/A/10_satellite_dish.jpg,5,10,2,1,4,2,4,8,0,69,,,,,,,,,,,,,,,,,,,,
,,,,,69,2020-07-04_18h12.12.367,retriever_ti,2020.1.3,Win32,60,Chrome,1920,1080,,,,,,,,,,,,,,,,,2,,,,,,,,,,,,,,,,,,,,,,,,,,,851.384785,97,right,1.05646,gloves      ,5,6,4,1,3,851.40285,851.40285,853.897195,0,19,19,19,1,97,1,5,dolphin     ,gloves      ,html/resources/sequences_IDs/B/02_dolphin.jpg,html/resources/sequences_IDs/B/06_gloves.jpg,2,6,1,1,3,2,2,5,0,69,,,,,,,,,,,,,,,,,,,,
,,,,,69,2020-07-04_18h12.12.367,retriever_ti,2020.1.3,Win32,60,Chrome,1920,1080,,,,,,,,,,,,,,,,,2,,,,,,,,,,,,,,,,,,,,,,,,,,,854.506965,98,NaN,NaN,No_response,NaN,NaN,NaN,2,2,854.52507,854.52507,857.020795,0,20,20,20,1,98,2,6,wolf          ,camel         ,html/resources/sequences_IDs/A/01_wolf.jpg,html/resources/sequences_IDs/A/03_camel.jpg,1,3,1,1,1,1,1,3,0,69,,,,,,,,,,,,,,,,,,,,
,,,,,69,2020-07-04_18h12.12.367,retriever_ti,2020.1.3,Win32,60,Chrome,1920,1080,,,,,,,,,,,,,,,,,2,,,,,,,,,,,,,,,,,,,,,,,,,,,858.114565,99,left,0.795685,gloves      ,5,6,1,1,1,858.151445,858.151445,860.640335,0,21,21,21,1,99,5,4,gloves      ,hat           ,html/resources/sequences_IDs/B/06_gloves.jpg,html/resources/sequences_IDs/A/08_hat.jpg,6,8,3,2,3,2,5,7,0,69,,,,,,,,,,,,,,,,,,,,
,,,,,69,2020-07-04_18h12.12.367,retriever_ti,2020.1.3,Win32,60,Chrome,1920,1080,,,,,,,,,,,,,,,,,2,,,,,,,,,,,,,,,,,,,,,,,,,,,861.733185,100,left,1.693415,satellite_dish,8,10,4,1,3,861.7447,861.7447,864.2387,0,22,22,22,1,100,8,4,satellite_dish,hat           ,html/resources/sequences_IDs/A/10_satellite_dish.jpg,html/resources/sequences_IDs/A/08_hat.jpg,10,8,4,2,3,2,8,7,0,69,,,,,,,,,,,,,,,,,,,,
,,,,,69,2020-07-04_18h12.12.367,retriever_ti,2020.1.3,Win32,60,Chrome,1920,1080,,,,,,,,,,,,,,,,,2,,,,,,,,,,,,,,,,,,,,,,,,,,,864.8397,101,right,1.41684,hat           ,4,8,2,1,3,864.853465,864.853465,867.34212,0,23,23,23,1,101,2,4,wolf          ,hat           ,html/resources/sequences_IDs/A/01_wolf.jpg,html/resources/sequences_IDs/A/08_hat.jpg,1,8,1,1,3,2,1,7,0,69,,,,,,,,,,,,,,,,,,,,
,,,,,69,2020-07-04_18h12.12.367,retriever_ti,2020.1.3,Win32,60,Chrome,1920,1080,,,,,,,,,,,,,,,,,2,,,,,,,,,,,,,,,,,,,,,,,,,,,867.94479,102,right,1.036735,dolphin     ,1,2,-5,0,3,867.964905,867.964905,870.457565,0,24,24,24,1,102,6,1,camel         ,dolphin     ,html/resources/sequences_IDs/A/03_camel.jpg,html/resources/sequences_IDs/B/02_dolphin.jpg,3,2,1,1,1,1,3,2,0,69,,,,,,,,,,,,,,,,,,,,
,,,,,69,2020-07-04_18h12.12.367,retriever_ti,2020.1.3,Win32,60,Chrome,1920,1080,,,,,,,,,,,,,,,,,2,,,,,,,,,,,,,,,,,,,,,,,,,,,871.05991,103,right,1.1318,parrot      ,7,5,-1,0,0,871.09377,871.09377,873.60013,0,25,25,25,1,103,8,7,satellite_dish,parrot      ,html/resources/sequences_IDs/A/10_satellite_dish.jpg,html/resources/sequences_IDs/B/05_parrot.jpg,10,5,4,2,2,1,8,4,0,69,,,,,,,,,,,,,,,,,,,,
,,,,,69,2020-07-04_18h12.12.367,retriever_ti,2020.1.3,Win32,60,Chrome,1920,1080,,,,,,,,,,,,,,,,,2,,,,,,,,,,,,,,,,,,,,,,,,,,,874.69385,104,left,0.851935,sport_tshirt,3,7,-4,0,3,874.72738,874.72738,877.22496,0,26,26,26,1,104,3,7,sport_tshirt,parrot      ,html/resources/sequences_IDs/B/07_sport_tshirt.jpg,html/resources/sequences_IDs/B/05_parrot.jpg,7,5,3,2,2,1,6,4,0,69,,,,,,,,,,,,,,,,,,,,
,,,,,69,2020-07-04_18h12.12.367,retriever_ti,2020.1.3,Win32,60,Chrome,1920,1080,,,,,,,,,,,,,,,,,2,,,,,,,,,,,,,,,,,,,,,,,,,,,877.83238,105,right,0.74115,gloves      ,5,6,-2,0,3,877.874265,877.874265,880.36743,0,27,27,27,1,105,7,5,parrot      ,gloves      ,html/resources/sequences_IDs/B/05_parrot.jpg,html/resources/sequences_IDs/B/06_gloves.jpg,5,6,2,1,3,2,4,5,0,69,,,,,,,,,,,,,,,,,,,,
,,,,,69,2020-07-04_18h12.12.367,retriever_ti,2020.1.3,Win32,60,Chrome,1920,1080,,,,,,,,,,,,,,,,,2,,,,,,,,,,,,,,,,,,,,,,,,,,,880.98778,106,left,1.162955,camel         ,6,3,4,1,3,881.02159,881.02159,883.52688,0,28,28,28,1,106,6,2,camel         ,wolf          ,html/resources/sequences_IDs/A/03_camel.jpg,html/resources/sequences_IDs/A/01_wolf.jpg,3,1,1,1,1,1,3,1,0,69,,,,,,,,,,,,,,,,,,,,
,,,,,69,2020-07-04_18h12.12.367,retriever_ti,2020.1.3,Win32,60,Chrome,1920,1080,,,,,,,,,,,,,,,,,2,,,,,,,,,,,,,,,,,,,,,,,,,,,884.14081,107,right,0.995675,gloves      ,5,6,3,1,3,884.18361,884.18361,886.672785,0,29,29,29,1,107,2,5,wolf          ,gloves      ,html/resources/sequences_IDs/A/01_wolf.jpg,html/resources/sequences_IDs/B/06_gloves.jpg,1,6,1,1,3,2,1,5,0,69,,,,,,,,,,,,,,,,,,,,
,,,,,69,2020-07-04_18h12.12.367,retriever_ti,2020.1.3,Win32,60,Chrome,1920,1080,,,,,,,,,,,,,,,,,2,,,,,,,,,,,,,,,,,,,,,,,,,,,887.28293,108,left,1.00731,gloves      ,5,6,2,1,3,887.29858,887.29858,889.794445,0,30,30,30,1,108,5,3,gloves      ,sport_tshirt,html/resources/sequences_IDs/B/06_gloves.jpg,html/resources/sequences_IDs/B/07_sport_tshirt.jpg,6,7,3,2,3,2,5,6,0,69,,,,,,,,,,,,,,,,,,,,
,,,,,69,2020-07-04_18h12.12.367,retriever_ti,2020.1.3,Win32,60,Chrome,1920,1080,,,,,,,,,,,,,,,,,2,,,,,,,,,,,,,,,,,,,,,,,,,,,890.405595,109,left,1.464855,hat           ,4,8,-3,0,3,890.427305,890.427305,892.927175,0,31,31,31,1,109,4,7,hat           ,parrot      ,html/resources/sequences_IDs/A/08_hat.jpg,html/resources/sequences_IDs/B/05_parrot.jpg,8,5,3,2,2,1,7,4,0,69,,,,,,,,,,,,,,,,,,,,
,,,,,69,2020-07-04_18h12.12.367,retriever_ti,2020.1.3,Win32,60,Chrome,1920,1080,,,,,,,,,,,,,,,,,2,,,,,,,,,,,,,,,,,,,,,,,,,,,893.53765,110,right,1.34477,parrot      ,7,5,1,1,1,893.57012,893.57012,896.060575,0,32,32,32,1,110,6,7,camel         ,parrot      ,html/resources/sequences_IDs/A/03_camel.jpg,html/resources/sequences_IDs/B/05_parrot.jpg,3,5,1,1,2,1,3,4,0,69,,,,,,,,,,,,,,,,,,,,
,,,,,69,2020-07-04_18h12.12.367,retriever_ti,2020.1.3,Win32,60,Chrome,1920,1080,,,,,,,,,,,,,,,,,2,,,,,,,,,,,,,,,,,,,,,,,,,,,897.154295,111,left,1.311225,satellite_dish,8,10,1,1,0,897.184295,897.184295,899.672095,0,33,33,33,1,111,8,7,satellite_dish,parrot      ,html/resources/sequences_IDs/A/10_satellite_dish.jpg,html/resources/sequences_IDs/B/05_parrot.jpg,10,5,4,2,2,1,8,4,1,69,,,,,,,,,,,,,,,,,,,,
,,,,,69,2020-07-04_18h12.12.367,retriever_ti,2020.1.3,Win32,60,Chrome,1920,1080,,,,,,,,,,,,,,,,,2,,,,,,,,,,,,,,,,,,,,,,,,,,,900.765685,112,right,0.714675,sport_tshirt,3,7,1,1,1,900.80225,900.80225,903.30687,0,34,34,34,1,112,2,3,wolf          ,sport_tshirt,html/resources/sequences_IDs/A/01_wolf.jpg,html/resources/sequences_IDs/B/07_sport_tshirt.jpg,1,7,1,1,3,2,1,6,0,69,,,,,,,,,,,,,,,,,,,,
,,,,,69,2020-07-04_18h12.12.367,retriever_ti,2020.1.3,Win32,60,Chrome,1920,1080,,,,,,,,,,,,,,,,,2,,,,,,,,,,,,,,,,,,,,,,,,,,,904.40191,113,right,0.90796,sport_tshirt,3,7,-1,0,0,904.43987,904.43987,906.931485,0,35,35,35,1,113,4,3,hat           ,sport_tshirt,html/resources/sequences_IDs/A/08_hat.jpg,html/resources/sequences_IDs/B/07_sport_tshirt.jpg,8,7,3,2,3,2,7,6,0,69,,,,,,,,,,,,,,,,,,,,
,,,,,69,2020-07-04_18h12.12.367,retriever_ti,2020.1.3,Win32,60,Chrome,1920,1080,,,,,,,,,,,,,,,,,2,,,,,,,,,,,,,,,,,,,,,,,,,,,908.02802,114,left,1.9985,parrot      ,7,5,5,1,3,908.04632,908.04632,910.53743,0,36,36,36,1,114,7,2,parrot      ,wolf          ,html/resources/sequences_IDs/B/05_parrot.jpg,html/resources/sequences_IDs/A/01_wolf.jpg,5,1,2,1,1,1,4,1,0,69,,,,,,,,,,,,,,,,,,,,
,,,,,69,2020-07-04_18h12.12.367,retriever_ti,2020.1.3,Win32,60,Chrome,1920,1080,,,,,,,,,,,,,,,,,2,,,,,,,,,,,,,,,,,,,,,,,,,,,911.151655,115,right,1.046645,dolphin     ,1,2,-1,0,0,911.18769,911.18769,913.68209,0,37,37,37,1,115,2,1,wolf          ,dolphin     ,html/resources/sequences_IDs/A/01_wolf.jpg,html/resources/sequences_IDs/B/02_dolphin.jpg,1,2,1,1,1,1,1,2,0,69,,,,,,,,,,,,,,,,,,,,
,,,,,69,2020-07-04_18h12.12.367,retriever_ti,2020.1.3,Win32,60,Chrome,1920,1080,,,,,,,,,,,,,,,,,2,,,,,,,,,,,,,,,,,,,,,,,,,,,914.77824,116,right,0.74444,satellite_dish,8,10,2,1,3,914.79224,914.79224,917.285895,0,38,38,38,1,116,6,8,camel         ,satellite_dish,html/resources/sequences_IDs/A/03_camel.jpg,html/resources/sequences_IDs/A/10_satellite_dish.jpg,3,10,1,1,4,2,3,8,0,69,,,,,,,,,,,,,,,,,,,,
,,,,,69,2020-07-04_18h12.12.367,retriever_ti,2020.1.3,Win32,60,Chrome,1920,1080,,,,,,,,,,,,,,,,,2,,,,,,,,,,,,,,,,,,,,,,,,,,,917.897355,117,left,0.77889,dolphin     ,1,2,-1,0,0,917.929505,917.929505,920.423285,0,39,39,39,1,117,1,2,dolphin     ,wolf          ,html/resources/sequences_IDs/B/02_dolphin.jpg,html/resources/sequences_IDs/A/01_wolf.jpg,2,1,1,1,1,1,2,1,0,69,,,,,,,,,,,,,,,,,,,,
,,,,,69,2020-07-04_18h12.12.367,retriever_ti,2020.1.3,Win32,60,Chrome,1920,1080,,,,,,,,,,,,,,,,,2,,,,,,,,,,,,,,,,,,,,,,,,,,,921.522495,118,left,1.07504,sport_tshirt,3,7,1,1,0,921.540705,921.540705,924.03608,0,40,40,40,1,118,3,2,sport_tshirt,wolf          ,html/resources/sequences_IDs/B/07_sport_tshirt.jpg,html/resources/sequences_IDs/A/01_wolf.jpg,7,1,3,2,1,1,6,1,1,69,,,,,,,,,,,,,,,,,,,,
,,,,,69,2020-07-04_18h12.12.367,retriever_ti,2020.1.3,Win32,60,Chrome,1920,1080,,,,,,,,,,,,,,,,,2,,,,,,,,,,,,,,,,,,,,,,,,,,,925.13122,119,right,0.767245,hat           ,4,8,3,1,3,925.16249,925.16249,927.653705,0,41,41,41,1,119,1,4,dolphin     ,hat           ,html/resources/sequences_IDs/B/02_dolphin.jpg,html/resources/sequences_IDs/A/08_hat.jpg,2,8,1,1,3,2,2,7,0,69,,,,,,,,,,,,,,,,,,,,
,,,,,69,2020-07-04_18h12.12.367,retriever_ti,2020.1.3,Win32,60,Chrome,1920,1080,,,,,,,,,,,,,,,,,2,,,,,,,,,,,,,,,,,,,,,,,,,,,928.26241,120,left,1.02261,satellite_dish,8,10,6,1,3,928.297665,928.297665,930.78626,0,42,42,42,1,120,8,2,satellite_dish,wolf          ,html/resources/sequences_IDs/A/10_satellite_dish.jpg,html/resources/sequences_IDs/A/01_wolf.jpg,10,1,4,2,1,1,8,1,0,69,,,,,,,,,,,,,,,,,,,,
,,,,,69,2020-07-04_18h12.12.367,retriever_ti,2020.1.3,Win32,60,Chrome,1920,1080,,,,,,,,,,,,,,,,,2,,,,,,,,,,,,,,,,,,,,,,,,,,,931.400385,121,right,0.95679,camel         ,6,3,5,1,3,931.41173,931.41173,933.900215,0,43,43,43,1,121,1,6,dolphin     ,camel         ,html/resources/sequences_IDs/B/02_dolphin.jpg,html/resources/sequences_IDs/A/03_camel.jpg,2,3,1,1,1,1,2,3,0,69,,,,,,,,,,,,,,,,,,,,
,,,,,69,2020-07-04_18h12.12.367,retriever_ti,2020.1.3,Win32,60,Chrome,1920,1080,,,,,,,,,,,,,,,,,2,,,,,,,,,,,,,,,,,,,,,,,,,,,934.50212,122,right,0.822155,gloves      ,5,6,1,1,1,934.52234,934.52234,937.01105,0,44,44,44,1,122,4,5,hat           ,gloves      ,html/resources/sequences_IDs/A/08_hat.jpg,html/resources/sequences_IDs/B/06_gloves.jpg,8,6,3,2,3,2,7,5,0,69,,,,,,,,,,,,,,,,,,,,
,,,,,69,2020-07-04_18h12.12.367,retriever_ti,2020.1.3,Win32,60,Chrome,1920,1080,,,,,,,,,,,,,,,,,2,,,,,,,,,,,,,,,,,,,,,,,,,,,938.105545,123,left,0.743685,parrot      ,7,5,1,1,1,938.118335,938.118335,940.614115,0,45,45,45,1,123,7,6,parrot      ,camel         ,html/resources/sequences_IDs/B/05_parrot.jpg,html/resources/sequences_IDs/A/03_camel.jpg,5,3,2,1,1,1,4,3,0,69,,,,,,,,,,,,,,,,,,,,
,,,,,69,2020-07-04_18h12.12.367,retriever_ti,2020.1.3,Win32,60,Chrome,1920,1080,,,,,,,,,,,,,,,,,2,,,,,,,,,,,,,,,,,,,,,,,,,,,941.71455,124,left,0.6826,sport_tshirt,3,7,-5,0,3,941.74533,941.74533,944.24307,0,46,46,46,1,124,3,8,sport_tshirt,satellite_dish,html/resources/sequences_IDs/B/07_sport_tshirt.jpg,html/resources/sequences_IDs/A/10_satellite_dish.jpg,7,10,3,2,4,2,6,8,0,69,,,,,,,,,,,,,,,,,,,,
,,,,,69,2020-07-04_18h12.12.367,retriever_ti,2020.1.3,Win32,60,Chrome,1920,1080,,,,,,,,,,,,,,,,,2,,,,,,,,,,,,,,,,,,,,,,,,,,,944.84698,125,right,0.74063,sport_tshirt,3,7,-5,0,3,944.88792,944.88792,947.38592,0,47,47,47,1,125,8,3,satellite_dish,sport_tshirt,html/resources/sequences_IDs/A/10_satellite_dish.jpg,html/resources/sequences_IDs/B/07_sport_tshirt.jpg,10,7,4,2,3,2,8,6,0,69,,,,,,,,,,,,,,,,,,,,
,,,,,69,2020-07-04_18h12.12.367,retriever_ti,2020.1.3,Win32,60,Chrome,1920,1080,,,,,,,,,,,,,,,,,2,,,,,,,,,,,,,,,,,,,,,,,,,,,947.999495,126,right,1.13382,hat           ,4,8,-2,0,3,948.01589,948.01589,950.518775,0,48,48,48,1,126,6,4,camel         ,hat           ,html/resources/sequences_IDs/A/03_camel.jpg,html/resources/sequences_IDs/A/08_hat.jpg,3,8,1,1,3,2,3,7,0,69,,,,,,,,,,,,,,,,,,,,
,,,,,69,2020-07-04_18h12.12.367,retriever_ti,2020.1.3,Win32,60,Chrome,1920,1080,,,,,,,,,,,,,,,,,2,,,,,,,,,,,,,,,,,,,,,,,,,,,951.124,127,right,0.810755,gloves      ,5,6,-1,0,0,951.14412,951.14412,953.63903,0,49,49,49,1,127,6,5,camel         ,gloves      ,html/resources/sequences_IDs/A/03_camel.jpg,html/resources/sequences_IDs/B/06_gloves.jpg,3,6,1,1,3,2,3,5,0,69,,,,,,,,,,,,,,,,,,,,
,,,,,69,2020-07-04_18h12.12.367,retriever_ti,2020.1.3,Win32,60,Chrome,1920,1080,,,,,,,,,,,,,,,,,2,,,,,,,,,,,,,,,,,,,,,,,,,,,954.729775,128,left,0.8422,wolf          ,2,1,1,1,1,954.76524,954.76524,957.26028,0,50,50,50,1,128,2,1,wolf          ,dolphin     ,html/resources/sequences_IDs/A/01_wolf.jpg,html/resources/sequences_IDs/B/02_dolphin.jpg,1,2,1,1,1,1,1,2,0,69,,,,,,,,,,,,,,,,,,,,
,,,,,69,2020-07-04_18h12.12.367,retriever_ti,2020.1.3,Win32,60,Chrome,1920,1080,,,,,,,,,,,,,,,,,2,,,,,,,,,,,,,,,,,,,,,,,,,,,958.350895,129,right,1.40496,wolf          ,2,1,-1,0,0,958.369575,958.369575,960.855855,0,51,51,51,1,129,3,2,sport_tshirt,wolf          ,html/resources/sequences_IDs/B/07_sport_tshirt.jpg,html/resources/sequences_IDs/A/01_wolf.jpg,7,1,3,2,1,1,6,1,0,69,,,,,,,,,,,,,,,,,,,,
,,,,,69,2020-07-04_18h12.12.367,retriever_ti,2020.1.3,Win32,60,Chrome,1920,1080,,,,,,,,,,,,,,,,,2,,,,,,,,,,,,,,,,,,,,,,,,,,,961.95255,130,right,0.78904,gloves      ,5,6,2,1,3,961.986105,961.986105,964.49165,0,52,52,52,1,130,3,5,sport_tshirt,gloves      ,html/resources/sequences_IDs/B/07_sport_tshirt.jpg,html/resources/sequences_IDs/B/06_gloves.jpg,7,6,3,2,3,2,6,5,0,69,,,,,,,,,,,,,,,,,,,,
,,,,,69,2020-07-04_18h12.12.367,retriever_ti,2020.1.3,Win32,60,Chrome,1920,1080,,,,,,,,,,,,,,,,,2,,,,,,,,,,,,,,,,,,,,,,,,,,,965.097535,131,left,1.954965,hat           ,4,8,-4,0,3,965.12743,965.12743,967.623515,0,53,53,53,1,131,4,8,hat           ,satellite_dish,html/resources/sequences_IDs/A/08_hat.jpg,html/resources/sequences_IDs/A/10_satellite_dish.jpg,8,10,3,2,4,2,7,8,0,69,,,,,,,,,,,,,,,,,,,,
,,,,,69,2020-07-04_18h12.12.367,retriever_ti,2020.1.3,Win32,60,Chrome,1920,1080,,,,,,,,,,,,,,,,,2,,,,,,,,,,,,,,,,,,,,,,,,,,,968.237185,132,right,1.143015,sport_tshirt,3,7,-3,0,3,968.257535,968.257535,970.746515,0,54,54,54,1,132,6,3,camel         ,sport_tshirt,html/resources/sequences_IDs/A/03_camel.jpg,html/resources/sequences_IDs/B/07_sport_tshirt.jpg,3,7,1,1,3,2,3,6,0,69,,,,,,,,,,,,,,,,,,,,
,,,,,69,2020-07-04_18h12.12.367,retriever_ti,2020.1.3,Win32,60,Chrome,1920,1080,,,,,,,,,,,,,,,,,2,,,,,,,,,,,,,,,,,,,,,,,,,,,971.35941,133,left,0.659025,hat           ,4,8,2,1,3,971.38916,971.38916,973.876795,0,55,55,55,1,133,4,2,hat           ,wolf          ,html/resources/sequences_IDs/A/08_hat.jpg,html/resources/sequences_IDs/A/01_wolf.jpg,8,1,3,2,1,1,7,1,0,69,,,,,,,,,,,,,,,,,,,,
,,,,,69,2020-07-04_18h12.12.367,retriever_ti,2020.1.3,Win32,60,Chrome,1920,1080,,,,,,,,,,,,,,,,,2,,,,,,,,,,,,,,,,,,,,,,,,,,,974.48809,134,left,1.39805,satellite_dish,8,10,2,1,3,974.520295,974.520295,977.00971,0,56,56,56,1,134,8,6,satellite_dish,camel         ,html/resources/sequences_IDs/A/10_satellite_dish.jpg,html/resources/sequences_IDs/A/03_camel.jpg,10,3,4,2,1,1,8,3,0,69,,,,,,,,,,,,,,,,,,,,
,,,,,69,2020-07-04_18h12.12.367,retriever_ti,2020.1.3,Win32,60,Chrome,1920,1080,,,,,,,,,,,,,,,,,2,,,,,,,,,,,,,,,,,,,,,,,,,,,977.62181,135,left,1.247875,parrot      ,7,5,6,1,3,977.635635,977.635635,980.12703,0,57,57,57,1,135,7,1,parrot      ,dolphin     ,html/resources/sequences_IDs/B/05_parrot.jpg,html/resources/sequences_IDs/B/02_dolphin.jpg,5,2,2,1,1,1,4,2,0,69,,,,,,,,,,,,,,,,,,,,
,,,,,69,2020-07-04_18h12.12.367,retriever_ti,2020.1.3,Win32,60,Chrome,1920,1080,,,,,,,,,,,,,,,,,2,,,,,,,,,,,,,,,,,,,,,,,,,,,980.74599,136,left,1.06452,sport_tshirt,3,7,2,1,3,980.758465,980.758465,983.25234,0,58,58,58,1,136,3,1,sport_tshirt,dolphin     ,html/resources/sequences_IDs/B/07_sport_tshirt.jpg,html/resources/sequences_IDs/B/02_dolphin.jpg,7,2,3,2,1,1,6,2,0,69,,,,,,,,,,,,,,,,,,,,
,,,,,69,2020-07-04_18h12.12.367,retriever_ti,2020.1.3,Win32,60,Chrome,1920,1080,,,,,,,,,,,,,,,,,2,,,,,,,,,,,,,,,,,,,,,,,,,,,983.858685,137,left,1.788785,hat           ,4,8,3,1,3,983.876455,983.876455,986.366275,0,59,59,59,1,137,4,1,hat           ,dolphin     ,html/resources/sequences_IDs/A/08_hat.jpg,html/resources/sequences_IDs/B/02_dolphin.jpg,8,2,3,2,1,1,7,2,0,69,,,,,,,,,,,,,,,,,,,,
,,,,,69,2020-07-04_18h12.12.367,retriever_ti,2020.1.3,Win32,60,Chrome,1920,1080,,,,,,,,,,,,,,,,,2,,,,,,,,,,,,,,,,,,,,,,,,,,,986.98375,138,left,0.88193,gloves      ,5,6,-2,0,3,986.99925,986.99925,989.48973,0,60,60,60,1,138,5,7,gloves      ,parrot      ,html/resources/sequences_IDs/B/06_gloves.jpg,html/resources/sequences_IDs/B/05_parrot.jpg,6,5,3,2,2,1,5,4,0,69,,,,,,,,,,,,,,,,,,,,
,,,,,69,2020-07-04_18h12.12.367,retriever_ti,2020.1.3,Win32,60,Chrome,1920,1080,,,,,,,,,,,,,,,,,2,,,,,,,,,,,,,,,,,,,,,,,,,,,990.09384,139,right,0.94615,satellite_dish,8,10,6,1,3,990.128495,990.128495,992.62288,0,61,61,61,1,139,2,8,wolf          ,satellite_dish,html/resources/sequences_IDs/A/01_wolf.jpg,html/resources/sequences_IDs/A/10_satellite_dish.jpg,1,10,1,1,4,2,1,8,0,69,,,,,,,,,,,,,,,,,,,,
,,,,,69,2020-07-04_18h12.12.367,retriever_ti,2020.1.3,Win32,60,Chrome,1920,1080,,,,,,,,,,,,,,,,,2,,,,,,,,,,,,,,,,,,,,,,,,,,,993.2296,140,left,0.779155,satellite_dish,8,10,7,1,3,993.25083,993.25083,995.74047,0,62,62,62,1,140,8,1,satellite_dish,dolphin     ,html/resources/sequences_IDs/A/10_satellite_dish.jpg,html/resources/sequences_IDs/B/02_dolphin.jpg,10,2,4,2,1,1,8,2,0,69,,,,,,,,,,,,,,,,,,,,
,,,,,69,2020-07-04_18h12.12.367,retriever_ti,2020.1.3,Win32,60,Chrome,1920,1080,,,,,,,,,,,,,,,,,2,,,,,,,,,,,,,,,,,,,,,,,,,,,996.34529,141,left,0.68423,gloves      ,5,6,3,1,3,996.36628,996.36628,998.85329,0,63,63,63,1,141,5,2,gloves      ,wolf          ,html/resources/sequences_IDs/B/06_gloves.jpg,html/resources/sequences_IDs/A/01_wolf.jpg,6,1,3,2,1,1,5,1,0,69,,,,,,,,,,,,,,,,,,,,
,,,,,69,2020-07-04_18h12.12.367,retriever_ti,2020.1.3,Win32,60,Chrome,1920,1080,,,,,,,,,,,,,,,,,2,,,,,,,,,,,,,,,,,,,,,,,,,,,999.457945,142,right,0.59492,sport_tshirt,3,7,-1,0,0,999.499115,999.499115,1001.996755,0,64,64,64,1,142,4,3,hat           ,sport_tshirt,html/resources/sequences_IDs/A/08_hat.jpg,html/resources/sequences_IDs/B/07_sport_tshirt.jpg,8,7,3,2,3,2,7,6,0,69,,,,,,,,,,,,,,,,,,,,
,,,,,69,2020-07-04_18h12.12.367,retriever_ti,2020.1.3,Win32,60,Chrome,1920,1080,,,,,,,,,,,,,,,,,2,,,,,,,,,,,,,,,,,,,,,,,,,,,1003.092125,143,left,0.88548,hat           ,4,8,-2,0,3,1003.12288,1003.12288,1005.62267,0,65,65,65,1,143,4,6,hat           ,camel         ,html/resources/sequences_IDs/A/08_hat.jpg,html/resources/sequences_IDs/A/03_camel.jpg,8,3,3,2,1,1,7,3,0,69,,,,,,,,,,,,,,,,,,,,
,,,,,69,2020-07-04_18h12.12.367,retriever_ti,2020.1.3,Win32,60,Chrome,1920,1080,,,,,,,,,,,,,,,,,2,,,,,,,,,,,,,,,,,,,,,,,,,,,1006.226545,144,right,1.48873,hat           ,4,8,1,1,1,1006.242435,1006.242435,1008.72632,0,66,66,66,1,144,3,4,sport_tshirt,hat           ,html/resources/sequences_IDs/B/07_sport_tshirt.jpg,html/resources/sequences_IDs/A/08_hat.jpg,7,8,3,2,3,2,6,7,0,69,,,,,,,,,,,,,,,,,,,,
,,,,,69,2020-07-04_18h12.12.367,retriever_ti,2020.1.3,Win32,60,Chrome,1920,1080,,,,,,,,,,,,,,,,,2,,,,,,,,,,,,,,,,,,,,,,,,,,,1009.83235,145,left,1.45574,hat           ,4,8,-1,0,1,1009.865035,1009.865035,1012.35711,0,67,67,67,1,145,4,5,hat           ,gloves      ,html/resources/sequences_IDs/A/08_hat.jpg,html/resources/sequences_IDs/B/06_gloves.jpg,8,6,3,2,3,2,7,5,1,69,,,,,,,,,,,,,,,,,,,,
,,,,,69,2020-07-04_18h12.12.367,retriever_ti,2020.1.3,Win32,60,Chrome,1920,1080,,,,,,,,,,,,,,,,,2,,,,,,,,,,,,,,,,,,,,,,,,,,,1013.463105,146,right,0.91586,sport_tshirt,3,7,-4,0,3,1013.47661,1013.47661,1015.975125,0,68,68,68,1,146,7,3,parrot      ,sport_tshirt,html/resources/sequences_IDs/B/05_parrot.jpg,html/resources/sequences_IDs/B/07_sport_tshirt.jpg,5,7,2,1,3,2,4,6,0,69,,,,,,,,,,,,,,,,,,,,
,,,,,69,2020-07-04_18h12.12.367,retriever_ti,2020.1.3,Win32,60,Chrome,1920,1080,,,,,,,,,,,,,,,,,2,,,,,,,,,,,,,,,,,,,,,,,,,,,1016.58716,147,right,0.95137,gloves      ,5,6,-3,0,3,1016.62255,1016.62255,1019.120765,0,69,69,69,1,147,8,5,satellite_dish,gloves      ,html/resources/sequences_IDs/A/10_satellite_dish.jpg,html/resources/sequences_IDs/B/06_gloves.jpg,10,6,4,2,3,2,8,5,0,69,,,,,,,,,,,,,,,,,,,,
,,,,,69,2020-07-04_18h12.12.367,retriever_ti,2020.1.3,Win32,60,Chrome,1920,1080,,,,,,,,,,,,,,,,,2,,,,,,,,,,,,,,,,,,,,,,,,,,,1019.72868,148,right,1.452915,sport_tshirt,3,7,2,1,3,1019.76092,1019.76092,1022.254135,0,70,70,70,1,148,1,3,dolphin     ,sport_tshirt,html/resources/sequences_IDs/B/02_dolphin.jpg,html/resources/sequences_IDs/B/07_sport_tshirt.jpg,2,7,1,1,3,2,2,6,0,69,,,,,,,,,,,,,,,,,,,,
,,,,,69,2020-07-04_18h12.12.367,retriever_ti,2020.1.3,Win32,60,Chrome,1920,1080,,,,,,,,,,,,,,,,,2,,,,,,,,,,,,,,,,,,,,,,,,,,,1022.861025,149,left,1.153945,gloves      ,5,6,4,1,3,1022.89331,1022.89331,1025.38241,0,71,71,71,1,149,5,1,gloves      ,dolphin     ,html/resources/sequences_IDs/B/06_gloves.jpg,html/resources/sequences_IDs/B/02_dolphin.jpg,6,2,3,2,1,1,5,2,0,69,,,,,,,,,,,,,,,,,,,,
,,,,,69,2020-07-04_18h12.12.367,retriever_ti,2020.1.3,Win32,60,Chrome,1920,1080,,,,,,,,,,,,,,,,,2,,,,,,,,,,,,,,,,,,,,,,,,,,,1025.995365,150,right,1.74252,camel         ,6,3,1,1,0,1026.044375,1026.044375,1028.540795,0,72,72,72,1,150,5,6,gloves      ,camel         ,html/resources/sequences_IDs/B/06_gloves.jpg,html/resources/sequences_IDs/A/03_camel.jpg,6,3,3,2,1,1,5,3,1,69,,,,,,,,,,,,,,,,,,,,
,,,,,69,2020-07-04_18h12.12.367,retriever_ti,2020.1.3,Win32,60,Chrome,1920,1080,,,,,,,,,,,,,,,,,2,,,,,,,,,,,,,,,,,,,,,,,,,,,1029.63904,151,right,1.629235,parrot      ,7,5,5,1,3,1029.67221,1029.67221,1032.163175,0,73,73,73,1,151,2,7,wolf          ,parrot      ,html/resources/sequences_IDs/A/01_wolf.jpg,html/resources/sequences_IDs/B/05_parrot.jpg,1,5,1,1,2,1,1,4,0,69,,,,,,,,,,,,,,,,,,,,
,,,,,69,2020-07-04_18h12.12.367,retriever_ti,2020.1.3,Win32,60,Chrome,1920,1080,,,,,,,,,,,,,,,,,2,,,,,,,,,,,,,,,,,,,,,,,,,,,1032.773835,152,left,0.98289,parrot      ,7,5,1,1,0,1032.78702,1032.78702,1035.27603,0,74,74,74,1,152,7,6,parrot      ,camel         ,html/resources/sequences_IDs/B/05_parrot.jpg,html/resources/sequences_IDs/A/03_camel.jpg,5,3,2,1,1,1,4,3,1,69,,,,,,,,,,,,,,,,,,,,
,,,,,69,2020-07-04_18h12.12.367,retriever_ti,2020.1.3,Win32,60,Chrome,1920,1080,,,,,,,,,,,,,,,,,2,,,,,,,,,,,,,,,,,,,,,,,,,,,1036.364785,153,right,1.196815,sport_tshirt,3,7,-1,0,1,1036.397615,1036.397615,1038.88977,0,75,75,75,1,153,4,3,hat           ,sport_tshirt,html/resources/sequences_IDs/A/08_hat.jpg,html/resources/sequences_IDs/B/07_sport_tshirt.jpg,8,7,3,2,3,2,7,6,1,69,,,,,,,,,,,,,,,,,,,,
,,,,,69,2020-07-04_18h12.12.367,retriever_ti,2020.1.3,Win32,60,Chrome,1920,1080,,,,,,,,,,,,,,,,,2,,,,,,,,,,,,,,,,,,,,,,,,,,,1039.998735,154,left,0.7263,camel         ,6,3,-1,0,0,1040.011205,1040.011205,1042.50429,0,76,76,76,1,154,6,7,camel         ,parrot      ,html/resources/sequences_IDs/A/03_camel.jpg,html/resources/sequences_IDs/B/05_parrot.jpg,3,5,1,1,2,1,3,4,0,69,,,,,,,,,,,,,,,,,,,,
,,,,,69,2020-07-04_18h12.12.367,retriever_ti,2020.1.3,Win32,60,Chrome,1920,1080,,,,,,,,,,,,,,,,,,,,,,,,,,,,,,,,,,,,,0,3.119225,,,,,,,,,,,,,,,,,,,,,,,,,,,,,,,,,,,,,,,,,1,0,1,0,1,,,,,,,,,,,,,,,
,,,,,69,2020-07-04_18h12.12.367,retriever_ti,2020.1.3,Win32,60,Chrome,1920,1080,,,,,,,,,,,,,,,,,3,,,,,,,,,,,,,,,,,,,,,,,,,,,1060.30666,155,left,1.40234,hat           ,4,8,-3,0,3,1060.332075,1060.332075,1062.83138,0,0,0,0,1,155,4,7,hat           ,parrot      ,html/resources/sequences_IDs/A/08_hat.jpg,html/resources/sequences_IDs/B/05_parrot.jpg,8,5,3,2,2,1,7,4,0,69,,,,,,,,,,,,,,,,,,,,
,,,,,69,2020-07-04_18h12.12.367,retriever_ti,2020.1.3,Win32,60,Chrome,1920,1080,,,,,,,,,,,,,,,,,3,,,,,,,,,,,,,,,,,,,,,,,,,,,1063.449015,156,left,1.126855,wolf          ,2,1,1,1,1,1063.461215,1063.461215,1065.95172,0,1,1,1,1,156,2,1,wolf          ,dolphin     ,html/resources/sequences_IDs/A/01_wolf.jpg,html/resources/sequences_IDs/B/02_dolphin.jpg,1,2,1,1,1,1,1,2,0,69,,,,,,,,,,,,,,,,,,,,
,,,,,69,2020-07-04_18h12.12.367,retriever_ti,2020.1.3,Win32,60,Chrome,1920,1080,,,,,,,,,,,,,,,,,3,,,,,,,,,,,,,,,,,,,,,,,,,,,1067.04662,157,right,0.96472,satellite_dish,8,10,2,1,3,1067.0815,1067.0815,1069.58584,0,2,2,2,1,157,6,8,camel         ,satellite_dish,html/resources/sequences_IDs/A/03_camel.jpg,html/resources/sequences_IDs/A/10_satellite_dish.jpg,3,10,1,1,4,2,3,8,0,69,,,,,,,,,,,,,,,,,,,,
,,,,,69,2020-07-04_18h12.12.367,retriever_ti,2020.1.3,Win32,60,Chrome,1920,1080,,,,,,,,,,,,,,,,,3,,,,,,,,,,,,,,,,,,,,,,,,,,,1070.195915,158,left,1.114555,camel         ,6,3,2,1,3,1070.236355,1070.236355,1072.73892,0,3,3,3,1,158,6,4,camel         ,hat           ,html/resources/sequences_IDs/A/03_camel.jpg,html/resources/sequences_IDs/A/08_hat.jpg,3,8,1,1,3,2,3,7,0,69,,,,,,,,,,,,,,,,,,,,
,,,,,69,2020-07-04_18h12.12.367,retriever_ti,2020.1.3,Win32,60,Chrome,1920,1080,,,,,,,,,,,,,,,,,3,,,,,,,,,,,,,,,,,,,,,,,,,,,1073.346695,159,right,0.780965,wolf          ,2,1,-5,0,3,1073.37788,1073.37788,1075.86735,0,4,4,4,1,159,7,2,parrot      ,wolf          ,html/resources/sequences_IDs/B/05_parrot.jpg,html/resources/sequences_IDs/A/01_wolf.jpg,5,1,2,1,1,1,4,1,0,69,,,,,,,,,,,,,,,,,,,,
,,,,,69,2020-07-04_18h12.12.367,retriever_ti,2020.1.3,Win32,60,Chrome,1920,1080,,,,,,,,,,,,,,,,,3,,,,,,,,,,,,,,,,,,,,,,,,,,,1076.484735,160,right,0.83135,sport_tshirt,3,7,-3,0,3,1076.51635,1076.51635,1079.007185,0,5,5,5,1,160,6,3,camel         ,sport_tshirt,html/resources/sequences_IDs/A/03_camel.jpg,html/resources/sequences_IDs/B/07_sport_tshirt.jpg,3,7,1,1,3,2,3,6,0,69,,,,,,,,,,,,,,,,,,,,
,,,,,69,2020-07-04_18h12.12.367,retriever_ti,2020.1.3,Win32,60,Chrome,1920,1080,,,,,,,,,,,,,,,,,3,,,,,,,,,,,,,,,,,,,,,,,,,,,1079.61303,161,left,1.45618,gloves      ,5,6,-3,0,3,1079.63512,1079.63512,1082.140665,0,6,6,6,1,161,5,8,gloves      ,satellite_dish,html/resources/sequences_IDs/B/06_gloves.jpg,html/resources/sequences_IDs/A/10_satellite_dish.jpg,6,10,3,2,4,2,5,8,0,69,,,,,,,,,,,,,,,,,,,,
,,,,,69,2020-07-04_18h12.12.367,retriever_ti,2020.1.3,Win32,60,Chrome,1920,1080,,,,,,,,,,,,,,,,,3,,,,,,,,,,,,,,,,,,,,,,,,,,,1082.75815,162,right,0.899285,gloves      ,5,6,1,1,1,1082.771835,1082.771835,1085.269365,0,7,7,7,1,162,4,5,hat           ,gloves      ,html/resources/sequences_IDs/A/08_hat.jpg,html/resources/sequences_IDs/B/06_gloves.jpg,8,6,3,2,3,2,7,5,0,69,,,,,,,,,,,,,,,,,,,,
,,,,,69,2020-07-04_18h12.12.367,retriever_ti,2020.1.3,Win32,60,Chrome,1920,1080,,,,,,,,,,,,,,,,,3,,,,,,,,,,,,,,,,,,,,,,,,,,,1086.359795,163,right,0.756525,hat           ,4,8,-4,0,3,1086.374375,1086.374375,1088.8703,0,8,8,8,1,163,8,4,satellite_dish,hat           ,html/resources/sequences_IDs/A/10_satellite_dish.jpg,html/resources/sequences_IDs/A/08_hat.jpg,10,8,4,2,3,2,8,7,0,69,,,,,,,,,,,,,,,,,,,,
,,,,,69,2020-07-04_18h12.12.367,retriever_ti,2020.1.3,Win32,60,Chrome,1920,1080,,,,,,,,,,,,,,,,,3,,,,,,,,,,,,,,,,,,,,,,,,,,,1089.48066,164,left,2.2931,dolphin     ,1,2,-7,0,3,1089.494935,1089.494935,1091.98416,0,9,9,9,1,164,1,8,dolphin     ,satellite_dish,html/resources/sequences_IDs/B/02_dolphin.jpg,html/resources/sequences_IDs/A/10_satellite_dish.jpg,2,10,1,1,4,2,2,8,0,69,,,,,,,,,,,,,,,,,,,,
,,,,,69,2020-07-04_18h12.12.367,retriever_ti,2020.1.3,Win32,60,Chrome,1920,1080,,,,,,,,,,,,,,,,,3,,,,,,,,,,,,,,,,,,,,,,,,,,,1092.59345,165,left,0.82979,gloves      ,5,6,-1,0,0,1092.62817,1092.62817,1095.125895,0,10,10,10,1,165,5,6,gloves      ,camel         ,html/resources/sequences_IDs/B/06_gloves.jpg,html/resources/sequences_IDs/A/03_camel.jpg,6,3,3,2,1,1,5,3,0,69,,,,,,,,,,,,,,,,,,,,
,,,,,69,2020-07-04_18h12.12.367,retriever_ti,2020.1.3,Win32,60,Chrome,1920,1080,,,,,,,,,,,,,,,,,3,,,,,,,,,,,,,,,,,,,,,,,,,,,1096.225035,166,right,0.56598,gloves      ,5,6,-2,0,3,1096.23593,1096.23593,1098.73612,0,11,11,11,1,166,7,5,parrot      ,gloves      ,html/resources/sequences_IDs/B/05_parrot.jpg,html/resources/sequences_IDs/B/06_gloves.jpg,5,6,2,1,3,2,4,5,0,69,,,,,,,,,,,,,,,,,,,,
,,,,,69,2020-07-04_18h12.12.367,retriever_ti,2020.1.3,Win32,60,Chrome,1920,1080,,,,,,,,,,,,,,,,,3,,,,,,,,,,,,,,,,,,,,,,,,,,,1099.35731,167,left,0.79263,sport_tshirt,3,7,-3,0,3,1099.36915,1099.36915,1101.86633,0,12,12,12,1,167,3,6,sport_tshirt,camel         ,html/resources/sequences_IDs/B/07_sport_tshirt.jpg,html/resources/sequences_IDs/A/03_camel.jpg,7,3,3,2,1,1,6,3,0,69,,,,,,,,,,,,,,,,,,,,
,,,,,69,2020-07-04_18h12.12.367,retriever_ti,2020.1.3,Win32,60,Chrome,1920,1080,,,,,,,,,,,,,,,,,3,,,,,,,,,,,,,,,,,,,,,,,,,,,1102.473715,168,left,0.947765,hat           ,4,8,2,1,3,1102.48657,1102.48657,1104.99194,0,13,13,13,1,168,4,2,hat           ,wolf          ,html/resources/sequences_IDs/A/08_hat.jpg,html/resources/sequences_IDs/A/01_wolf.jpg,8,1,3,2,1,1,7,1,0,69,,,,,,,,,,,,,,,,,,,,
,,,,,69,2020-07-04_18h12.12.367,retriever_ti,2020.1.3,Win32,60,Chrome,1920,1080,,,,,,,,,,,,,,,,,3,,,,,,,,,,,,,,,,,,,,,,,,,,,1105.6029,169,left,1.162045,gloves      ,5,6,1,1,1,1105.624615,1105.624615,1108.121475,0,14,14,14,1,169,5,4,gloves      ,hat           ,html/resources/sequences_IDs/B/06_gloves.jpg,html/resources/sequences_IDs/A/08_hat.jpg,6,8,3,2,3,2,5,7,0,69,,,,,,,,,,,,,,,,,,,,
,,,,,69,2020-07-04_18h12.12.367,retriever_ti,2020.1.3,Win32,60,Chrome,1920,1080,,,,,,,,,,,,,,,,,3,,,,,,,,,,,,,,,,,,,,,,,,,,,1109.223775,170,right,0.88609,satellite_dish,8,10,1,1,1,1109.25432,1109.25432,1111.74252,0,15,15,15,1,170,7,8,parrot      ,satellite_dish,html/resources/sequences_IDs/B/05_parrot.jpg,html/resources/sequences_IDs/A/10_satellite_dish.jpg,5,10,2,1,4,2,4,8,0,69,,,,,,,,,,,,,,,,,,,,
,,,,,69,2020-07-04_18h12.12.367,retriever_ti,2020.1.3,Win32,60,Chrome,1920,1080,,,,,,,,,,,,,,,,,3,,,,,,,,,,,,,,,,,,,,,,,,,,,1112.8329,171,right,0.63554,gloves      ,5,6,3,1,3,1112.866475,1112.866475,1115.353635,0,16,16,16,1,171,2,5,wolf          ,gloves      ,html/resources/sequences_IDs/A/01_wolf.jpg,html/resources/sequences_IDs/B/06_gloves.jpg,1,6,1,1,3,2,1,5,0,69,,,,,,,,,,,,,,,,,,,,
,,,,,69,2020-07-04_18h12.12.367,retriever_ti,2020.1.3,Win32,60,Chrome,1920,1080,,,,,,,,,,,,,,,,,3,,,,,,,,,,,,,,,,,,,,,,,,,,,1115.96471,172,left,0.81374,sport_tshirt,3,7,-5,0,3,1115.99594,1115.99594,1118.48774,0,17,17,17,1,172,3,8,sport_tshirt,satellite_dish,html/resources/sequences_IDs/B/07_sport_tshirt.jpg,html/resources/sequences_IDs/A/10_satellite_dish.jpg,7,10,3,2,4,2,6,8,0,69,,,,,,,,,,,,,,,,,,,,
,,,,,69,2020-07-04_18h12.12.367,retriever_ti,2020.1.3,Win32,60,Chrome,1920,1080,,,,,,,,,,,,,,,,,3,,,,,,,,,,,,,,,,,,,,,,,,,,,1119.092705,173,left,0.842665,gloves      ,5,6,-1,0,0,1119.126635,1119.126635,1121.61494,0,18,18,18,1,173,5,6,gloves      ,camel         ,html/resources/sequences_IDs/B/06_gloves.jpg,html/resources/sequences_IDs/A/03_camel.jpg,6,3,3,2,1,1,5,3,0,69,,,,,,,,,,,,,,,,,,,,
,,,,,69,2020-07-04_18h12.12.367,retriever_ti,2020.1.3,Win32,60,Chrome,1920,1080,,,,,,,,,,,,,,,,,3,,,,,,,,,,,,,,,,,,,,,,,,,,,1122.715335,174,right,0.8038,gloves      ,5,6,4,1,3,1122.73477,1122.73477,1125.222465,0,19,19,19,1,174,1,5,dolphin     ,gloves      ,html/resources/sequences_IDs/B/02_dolphin.jpg,html/resources/sequences_IDs/B/06_gloves.jpg,2,6,1,1,3,2,2,5,0,69,,,,,,,,,,,,,,,,,,,,
,,,,,69,2020-07-04_18h12.12.367,retriever_ti,2020.1.3,Win32,60,Chrome,1920,1080,,,,,,,,,,,,,,,,,3,,,,,,,,,,,,,,,,,,,,,,,,,,,1125.83071,175,left,1.530685,sport_tshirt,3,7,-1,0,0,1125.85058,1125.85058,1128.337665,0,20,20,20,1,175,3,4,sport_tshirt,hat           ,html/resources/sequences_IDs/B/07_sport_tshirt.jpg,html/resources/sequences_IDs/A/08_hat.jpg,7,8,3,2,3,2,6,7,0,69,,,,,,,,,,,,,,,,,,,,
,,,,,69,2020-07-04_18h12.12.367,retriever_ti,2020.1.3,Win32,60,Chrome,1920,1080,,,,,,,,,,,,,,,,,3,,,,,,,,,,,,,,,,,,,,,,,,,,,1129.43333,176,right,0.96283,sport_tshirt,3,7,1,1,1,1129.44665,1129.44665,1131.935465,0,21,21,21,1,176,2,3,wolf          ,sport_tshirt,html/resources/sequences_IDs/A/01_wolf.jpg,html/resources/sequences_IDs/B/07_sport_tshirt.jpg,1,7,1,1,3,2,1,6,0,69,,,,,,,,,,,,,,,,,,,,
,,,,,69,2020-07-04_18h12.12.367,retriever_ti,2020.1.3,Win32,60,Chrome,1920,1080,,,,,,,,,,,,,,,,,3,,,,,,,,,,,,,,,,,,,,,,,,,,,1133.0319,177,right,1.183355,hat           ,4,8,2,1,3,1133.04724,1133.04724,1135.542945,0,22,22,22,1,177,2,4,wolf          ,hat           ,html/resources/sequences_IDs/A/01_wolf.jpg,html/resources/sequences_IDs/A/08_hat.jpg,1,8,1,1,3,2,1,7,0,69,,,,,,,,,,,,,,,,,,,,
,,,,,69,2020-07-04_18h12.12.367,retriever_ti,2020.1.3,Win32,60,Chrome,1920,1080,,,,,,,,,,,,,,,,,3,,,,,,,,,,,,,,,,,,,,,,,,,,,1136.15594,178,right,1.173025,sport_tshirt,3,7,1,1,0,1136.183685,1136.183685,1138.67456,0,23,23,23,1,178,2,3,wolf          ,sport_tshirt,html/resources/sequences_IDs/A/01_wolf.jpg,html/resources/sequences_IDs/B/07_sport_tshirt.jpg,1,7,1,1,3,2,1,6,1,69,,,,,,,,,,,,,,,,,,,,
,,,,,69,2020-07-04_18h12.12.367,retriever_ti,2020.1.3,Win32,60,Chrome,1920,1080,,,,,,,,,,,,,,,,,3,,,,,,,,,,,,,,,,,,,,,,,,,,,1139.774685,179,right,1.03036,gloves      ,5,6,-1,0,0,1139.788295,1139.788295,1142.287825,0,24,24,24,1,179,6,5,camel         ,gloves      ,html/resources/sequences_IDs/A/03_camel.jpg,html/resources/sequences_IDs/B/06_gloves.jpg,3,6,1,1,3,2,3,5,0,69,,,,,,,,,,,,,,,,,,,,
,,,,,69,2020-07-04_18h12.12.367,retriever_ti,2020.1.3,Win32,60,Chrome,1920,1080,,,,,,,,,,,,,,,,,3,,,,,,,,,,,,,,,,,,,,,,,,,,,1143.384405,180,right,0.74869,parrot      ,7,5,5,1,3,1143.401545,1143.401545,1145.89516,0,25,25,25,1,180,2,7,wolf          ,parrot      ,html/resources/sequences_IDs/A/01_wolf.jpg,html/resources/sequences_IDs/B/05_parrot.jpg,1,5,1,1,2,1,1,4,0,69,,,,,,,,,,,,,,,,,,,,
,,,,,69,2020-07-04_18h12.12.367,retriever_ti,2020.1.3,Win32,60,Chrome,1920,1080,,,,,,,,,,,,,,,,,3,,,,,,,,,,,,,,,,,,,,,,,,,,,1146.51126,181,right,1.38996,sport_tshirt,3,7,-1,0,0,1146.52432,1146.52432,1149.02987,0,26,26,26,1,181,4,3,hat           ,sport_tshirt,html/resources/sequences_IDs/A/08_hat.jpg,html/resources/sequences_IDs/B/07_sport_tshirt.jpg,8,7,3,2,3,2,7,6,0,69,,,,,,,,,,,,,,,,,,,,
,,,,,69,2020-07-04_18h12.12.367,retriever_ti,2020.1.3,Win32,60,Chrome,1920,1080,,,,,,,,,,,,,,,,,3,,,,,,,,,,,,,,,,,,,,,,,,,,,1150.1303,182,left,0.67368,sport_tshirt,3,7,-2,0,3,1150.150905,1150.150905,1152.63301,0,27,27,27,1,182,3,5,sport_tshirt,gloves      ,html/resources/sequences_IDs/B/07_sport_tshirt.jpg,html/resources/sequences_IDs/B/06_gloves.jpg,7,6,3,2,3,2,6,5,0,69,,,,,,,,,,,,,,,,,,,,
,,,,,69,2020-07-04_18h12.12.367,retriever_ti,2020.1.3,Win32,60,Chrome,1920,1080,,,,,,,,,,,,,,,,,3,,,,,,,,,,,,,,,,,,,,,,,,,,,1153.247305,183,left,0.696405,satellite_dish,8,10,5,1,3,1153.26334,1153.26334,1155.754625,0,28,28,28,1,183,8,3,satellite_dish,sport_tshirt,html/resources/sequences_IDs/A/10_satellite_dish.jpg,html/resources/sequences_IDs/B/07_sport_tshirt.jpg,10,7,4,2,3,2,8,6,0,69,,,,,,,,,,,,,,,,,,,,
,,,,,69,2020-07-04_18h12.12.367,retriever_ti,2020.1.3,Win32,60,Chrome,1920,1080,,,,,,,,,,,,,,,,,3,,,,,,,,,,,,,,,,,,,,,,,,,,,1156.37354,184,left,0.90791,parrot      ,7,5,-1,0,1,1156.406175,1156.406175,1158.894965,0,29,29,29,1,184,7,8,parrot      ,satellite_dish,html/resources/sequences_IDs/B/05_parrot.jpg,html/resources/sequences_IDs/A/10_satellite_dish.jpg,5,10,2,1,4,2,4,8,1,69,,,,,,,,,,,,,,,,,,,,
,,,,,69,2020-07-04_18h12.12.367,retriever_ti,2020.1.3,Win32,60,Chrome,1920,1080,,,,,,,,,,,,,,,,,3,,,,,,,,,,,,,,,,,,,,,,,,,,,1159.993155,185,right,1.377795,satellite_dish,8,10,6,1,3,1160.03137,1160.03137,1162.51602,0,30,30,30,1,185,2,8,wolf          ,satellite_dish,html/resources/sequences_IDs/A/01_wolf.jpg,html/resources/sequences_IDs/A/10_satellite_dish.jpg,1,10,1,1,4,2,1,8,0,69,,,,,,,,,,,,,,,,,,,,
,,,,,69,2020-07-04_18h12.12.367,retriever_ti,2020.1.3,Win32,60,Chrome,1920,1080,,,,,,,,,,,,,,,,,3,,,,,,,,,,,,,,,,,,,,,,,,,,,1163.121205,186,left,1.233195,gloves      ,5,6,2,1,3,1163.139535,1163.139535,1165.635435,0,31,31,31,1,186,5,3,gloves      ,sport_tshirt,html/resources/sequences_IDs/B/06_gloves.jpg,html/resources/sequences_IDs/B/07_sport_tshirt.jpg,6,7,3,2,3,2,5,6,0,69,,,,,,,,,,,,,,,,,,,,
,,,,,69,2020-07-04_18h12.12.367,retriever_ti,2020.1.3,Win32,60,Chrome,1920,1080,,,,,,,,,,,,,,,,,3,,,,,,,,,,,,,,,,,,,,,,,,,,,1166.24175,187,left,0.93296,gloves      ,5,6,3,1,3,1166.27909,1166.27909,1168.76775,0,32,32,32,1,187,5,2,gloves      ,wolf          ,html/resources/sequences_IDs/B/06_gloves.jpg,html/resources/sequences_IDs/A/01_wolf.jpg,6,1,3,2,1,1,5,1,0,69,,,,,,,,,,,,,,,,,,,,
,,,,,69,2020-07-04_18h12.12.367,retriever_ti,2020.1.3,Win32,60,Chrome,1920,1080,,,,,,,,,,,,,,,,,3,,,,,,,,,,,,,,,,,,,,,,,,,,,1169.368705,188,right,1.45865,parrot      ,7,5,1,1,1,1169.4025,1169.4025,1171.892595,0,33,33,33,1,188,6,7,camel         ,parrot      ,html/resources/sequences_IDs/A/03_camel.jpg,html/resources/sequences_IDs/B/05_parrot.jpg,3,5,1,1,2,1,3,4,0,69,,,,,,,,,,,,,,,,,,,,
,,,,,69,2020-07-04_18h12.12.367,retriever_ti,2020.1.3,Win32,60,Chrome,1920,1080,,,,,,,,,,,,,,,,,3,,,,,,,,,,,,,,,,,,,,,,,,,,,1172.990065,189,right,1.97381,gloves      ,5,6,1,1,1,1173.004015,1173.004015,1175.491435,0,34,34,34,1,189,4,5,hat           ,gloves      ,html/resources/sequences_IDs/A/08_hat.jpg,html/resources/sequences_IDs/B/06_gloves.jpg,8,6,3,2,3,2,7,5,0,69,,,,,,,,,,,,,,,,,,,,
,,,,,69,2020-07-04_18h12.12.367,retriever_ti,2020.1.3,Win32,60,Chrome,1920,1080,,,,,,,,,,,,,,,,,3,,,,,,,,,,,,,,,,,,,,,,,,,,,1176.587235,190,left,1.793765,camel         ,6,3,5,1,3,1176.606925,1176.606925,1179.09521,0,35,35,35,1,190,6,1,camel         ,dolphin     ,html/resources/sequences_IDs/A/03_camel.jpg,html/resources/sequences_IDs/B/02_dolphin.jpg,3,2,1,1,1,1,3,2,0,69,,,,,,,,,,,,,,,,,,,,
,,,,,69,2020-07-04_18h12.12.367,retriever_ti,2020.1.3,Win32,60,Chrome,1920,1080,,,,,,,,,,,,,,,,,3,,,,,,,,,,,,,,,,,,,,,,,,,,,1179.71149,191,right,1.05111,gloves      ,5,6,-1,0,1,1179.744395,1179.744395,1182.24452,0,36,36,36,1,191,6,5,camel         ,gloves      ,html/resources/sequences_IDs/A/03_camel.jpg,html/resources/sequences_IDs/B/06_gloves.jpg,3,6,1,1,3,2,3,5,1,69,,,,,,,,,,,,,,,,,,,,
,,,,,69,2020-07-04_18h12.12.367,retriever_ti,2020.1.3,Win32,60,Chrome,1920,1080,,,,,,,,,,,,,,,,,3,,,,,,,,,,,,,,,,,,,,,,,,,,,1183.345185,192,right,0.916585,parrot      ,7,5,2,1,3,1183.37517,1183.37517,1185.86295,0,37,37,37,1,192,5,7,gloves      ,parrot      ,html/resources/sequences_IDs/B/06_gloves.jpg,html/resources/sequences_IDs/B/05_parrot.jpg,6,5,3,2,2,1,5,4,0,69,,,,,,,,,,,,,,,,,,,,
,,,,,69,2020-07-04_18h12.12.367,retriever_ti,2020.1.3,Win32,60,Chrome,1920,1080,,,,,,,,,,,,,,,,,3,,,,,,,,,,,,,,,,,,,,,,,,,,,1186.47938,193,right,1.50191,camel         ,6,3,5,1,3,1186.51405,1186.51405,1189.01146,0,38,38,38,1,193,1,6,dolphin     ,camel         ,html/resources/sequences_IDs/B/02_dolphin.jpg,html/resources/sequences_IDs/A/03_camel.jpg,2,3,1,1,1,1,2,3,0,69,,,,,,,,,,,,,,,,,,,,
,,,,,69,2020-07-04_18h12.12.367,retriever_ti,2020.1.3,Win32,60,Chrome,1920,1080,,,,,,,,,,,,,,,,,3,,,,,,,,,,,,,,,,,,,,,,,,,,,1189.622445,194,right,0.814085,hat           ,4,8,1,1,0,1189.64498,1189.64498,1192.14104,0,39,39,39,1,194,3,4,sport_tshirt,hat           ,html/resources/sequences_IDs/B/07_sport_tshirt.jpg,html/resources/sequences_IDs/A/08_hat.jpg,7,8,3,2,3,2,6,7,1,69,,,,,,,,,,,,,,,,,,,,
,,,,,69,2020-07-04_18h12.12.367,retriever_ti,2020.1.3,Win32,60,Chrome,1920,1080,,,,,,,,,,,,,,,,,3,,,,,,,,,,,,,,,,,,,,,,,,,,,1193.24087,195,left,0.595575,satellite_dish,8,10,1,1,1,1193.278615,1193.278615,1195.769465,0,40,40,40,1,195,8,7,satellite_dish,parrot      ,html/resources/sequences_IDs/A/10_satellite_dish.jpg,html/resources/sequences_IDs/B/05_parrot.jpg,10,5,4,2,2,1,8,4,0,69,,,,,,,,,,,,,,,,,,,,
,,,,,69,2020-07-04_18h12.12.367,retriever_ti,2020.1.3,Win32,60,Chrome,1920,1080,,,,,,,,,,,,,,,,,3,,,,,,,,,,,,,,,,,,,,,,,,,,,1196.871215,196,left,1.62645,sport_tshirt,3,7,-1,0,0,1196.904485,1196.904485,1199.39707,0,41,41,41,1,196,3,4,sport_tshirt,hat           ,html/resources/sequences_IDs/B/07_sport_tshirt.jpg,html/resources/sequences_IDs/A/08_hat.jpg,7,8,3,2,3,2,6,7,0,69,,,,,,,,,,,,,,,,,,,,
,,,,,69,2020-07-04_18h12.12.367,retriever_ti,2020.1.3,Win32,60,Chrome,1920,1080,,,,,,,,,,,,,,,,,3,,,,,,,,,,,,,,,,,,,,,,,,,,,1200.493525,197,left,1.220665,satellite_dish,8,10,7,1,3,1200.507065,1200.507065,1202.99293,0,42,42,42,1,197,8,1,satellite_dish,dolphin     ,html/resources/sequences_IDs/A/10_satellite_dish.jpg,html/resources/sequences_IDs/B/02_dolphin.jpg,10,2,4,2,1,1,8,2,0,69,,,,,,,,,,,,,,,,,,,,
,,,,,69,2020-07-04_18h12.12.367,retriever_ti,2020.1.3,Win32,60,Chrome,1920,1080,,,,,,,,,,,,,,,,,3,,,,,,,,,,,,,,,,,,,,,,,,,,,1203.599885,198,left,1.859785,camel         ,6,3,1,1,1,1203.62035,1203.62035,1206.12592,0,43,43,43,1,198,6,5,camel         ,gloves      ,html/resources/sequences_IDs/A/03_camel.jpg,html/resources/sequences_IDs/B/06_gloves.jpg,3,6,1,1,3,2,3,5,0,69,,,,,,,,,,,,,,,,,,,,
,,,,,69,2020-07-04_18h12.12.367,retriever_ti,2020.1.3,Win32,60,Chrome,1920,1080,,,,,,,,,,,,,,,,,3,,,,,,,,,,,,,,,,,,,,,,,,,,,1207.224565,199,left,1.827795,parrot      ,7,5,1,1,1,1207.24218,1207.24218,1209.745,0,44,44,44,1,199,7,6,parrot      ,camel         ,html/resources/sequences_IDs/B/05_parrot.jpg,html/resources/sequences_IDs/A/03_camel.jpg,5,3,2,1,1,1,4,3,0,69,,,,,,,,,,,,,,,,,,,,
,,,,,69,2020-07-04_18h12.12.367,retriever_ti,2020.1.3,Win32,60,Chrome,1920,1080,,,,,,,,,,,,,,,,,3,,,,,,,,,,,,,,,,,,,,,,,,,,,1210.84243,200,left,1.539165,sport_tshirt,3,7,1,1,1,1210.87635,1210.87635,1213.366415,0,45,45,45,1,200,3,2,sport_tshirt,wolf          ,html/resources/sequences_IDs/B/07_sport_tshirt.jpg,html/resources/sequences_IDs/A/01_wolf.jpg,7,1,3,2,1,1,6,1,0,69,,,,,,,,,,,,,,,,,,,,
,,,,,69,2020-07-04_18h12.12.367,retriever_ti,2020.1.3,Win32,60,Chrome,1920,1080,,,,,,,,,,,,,,,,,3,,,,,,,,,,,,,,,,,,,,,,,,,,,1214.463405,201,left,1.113225,sport_tshirt,3,7,2,1,3,1214.47706,1214.47706,1216.9734,0,46,46,46,1,201,3,1,sport_tshirt,dolphin     ,html/resources/sequences_IDs/B/07_sport_tshirt.jpg,html/resources/sequences_IDs/B/02_dolphin.jpg,7,2,3,2,1,1,6,2,0,69,,,,,,,,,,,,,,,,,,,,
,,,,,69,2020-07-04_18h12.12.367,retriever_ti,2020.1.3,Win32,60,Chrome,1920,1080,,,,,,,,,,,,,,,,,3,,,,,,,,,,,,,,,,,,,,,,,,,,,1217.578955,202,right,1.09462,parrot      ,7,5,6,1,3,1217.597755,1217.597755,1220.09246,0,47,47,47,1,202,1,7,dolphin     ,parrot      ,html/resources/sequences_IDs/B/02_dolphin.jpg,html/resources/sequences_IDs/B/05_parrot.jpg,2,5,1,1,2,1,2,4,0,69,,,,,,,,,,,,,,,,,,,,
,,,,,69,2020-07-04_18h12.12.367,retriever_ti,2020.1.3,Win32,60,Chrome,1920,1080,,,,,,,,,,,,,,,,,3,,,,,,,,,,,,,,,,,,,,,,,,,,,1220.70254,203,right,1.24446,camel         ,6,3,2,1,3,1220.73022,1220.73022,1223.2295,0,48,48,48,1,203,4,6,hat           ,camel         ,html/resources/sequences_IDs/A/08_hat.jpg,html/resources/sequences_IDs/A/03_camel.jpg,8,3,3,2,1,1,7,3,0,69,,,,,,,,,,,,,,,,,,,,
,,,,,69,2020-07-04_18h12.12.367,retriever_ti,2020.1.3,Win32,60,Chrome,1920,1080,,,,,,,,,,,,,,,,,3,,,,,,,,,,,,,,,,,,,,,,,,,,,1223.83647,204,right,1.23027,satellite_dish,8,10,4,1,3,1223.85677,1223.85677,1226.35227,0,49,49,49,1,204,4,8,hat           ,satellite_dish,html/resources/sequences_IDs/A/08_hat.jpg,html/resources/sequences_IDs/A/10_satellite_dish.jpg,8,10,3,2,4,2,7,8,0,69,,,,,,,,,,,,,,,,,,,,
,,,,,69,2020-07-04_18h12.12.367,retriever_ti,2020.1.3,Win32,60,Chrome,1920,1080,,,,,,,,,,,,,,,,,3,,,,,,,,,,,,,,,,,,,,,,,,,,,1226.95566,205,right,1.005575,sport_tshirt,3,7,1,1,1,1226.973495,1226.973495,1229.459355,0,50,50,50,1,205,2,3,wolf          ,sport_tshirt,html/resources/sequences_IDs/A/01_wolf.jpg,html/resources/sequences_IDs/B/07_sport_tshirt.jpg,1,7,1,1,3,2,1,6,0,69,,,,,,,,,,,,,,,,,,,,
,,,,,69,2020-07-04_18h12.12.367,retriever_ti,2020.1.3,Win32,60,Chrome,1920,1080,,,,,,,,,,,,,,,,,3,,,,,,,,,,,,,,,,,,,,,,,,,,,1230.549945,206,left,0.487485,wolf          ,2,1,-4,0,3,1230.580635,1230.580635,1233.078175,0,51,51,51,1,206,2,6,wolf          ,camel         ,html/resources/sequences_IDs/A/01_wolf.jpg,html/resources/sequences_IDs/A/03_camel.jpg,1,3,1,1,1,1,1,3,0,69,,,,,,,,,,,,,,,,,,,,
,,,,,69,2020-07-04_18h12.12.367,retriever_ti,2020.1.3,Win32,60,Chrome,1920,1080,,,,,,,,,,,,,,,,,3,,,,,,,,,,,,,,,,,,,,,,,,,,,1233.699905,207,left,1.248225,dolphin     ,1,2,-1,0,0,1233.713225,1233.713225,1236.20989,0,52,52,52,1,207,1,2,dolphin     ,wolf          ,html/resources/sequences_IDs/B/02_dolphin.jpg,html/resources/sequences_IDs/A/01_wolf.jpg,2,1,1,1,1,1,2,1,0,69,,,,,,,,,,,,,,,,,,,,
,,,,,69,2020-07-04_18h12.12.367,retriever_ti,2020.1.3,Win32,60,Chrome,1920,1080,,,,,,,,,,,,,,,,,3,,,,,,,,,,,,,,,,,,,,,,,,,,,1237.309225,208,left,0.99442,satellite_dish,8,10,2,1,3,1237.34647,1237.34647,1239.839445,0,53,53,53,1,208,8,6,satellite_dish,camel         ,html/resources/sequences_IDs/A/10_satellite_dish.jpg,html/resources/sequences_IDs/A/03_camel.jpg,10,3,4,2,1,1,8,3,0,69,,,,,,,,,,,,,,,,,,,,
,,,,,69,2020-07-04_18h12.12.367,retriever_ti,2020.1.3,Win32,60,Chrome,1920,1080,,,,,,,,,,,,,,,,,3,,,,,,,,,,,,,,,,,,,,,,,,,,,1240.44823,209,right,1.48094,sport_tshirt,3,7,-1,0,0,1240.461155,1240.461155,1242.965265,0,54,54,54,1,209,4,3,hat           ,sport_tshirt,html/resources/sequences_IDs/A/08_hat.jpg,html/resources/sequences_IDs/B/07_sport_tshirt.jpg,8,7,3,2,3,2,7,6,0,69,,,,,,,,,,,,,,,,,,,,
,,,,,69,2020-07-04_18h12.12.367,retriever_ti,2020.1.3,Win32,60,Chrome,1920,1080,,,,,,,,,,,,,,,,,3,,,,,,,,,,,,,,,,,,,,,,,,,,,1244.06382,210,right,1.072245,parrot      ,7,5,1,1,1,1244.09649,1244.09649,1246.58345,0,55,55,55,1,210,6,7,camel         ,parrot      ,html/resources/sequences_IDs/A/03_camel.jpg,html/resources/sequences_IDs/B/05_parrot.jpg,3,5,1,1,2,1,3,4,0,69,,,,,,,,,,,,,,,,,,,,
,,,,,69,2020-07-04_18h12.12.367,retriever_ti,2020.1.3,Win32,60,Chrome,1920,1080,,,,,,,,,,,,,,,,,3,,,,,,,,,,,,,,,,,,,,,,,,,,,1247.686335,211,right,0.644125,parrot      ,7,5,1,1,0,1247.721905,1247.721905,1250.22502,0,56,56,56,1,211,6,7,camel         ,parrot      ,html/resources/sequences_IDs/A/03_camel.jpg,html/resources/sequences_IDs/B/05_parrot.jpg,3,5,1,1,2,1,3,4,1,69,,,,,,,,,,,,,,,,,,,,
,,,,,69,2020-07-04_18h12.12.367,retriever_ti,2020.1.3,Win32,60,Chrome,1920,1080,,,,,,,,,,,,,,,,,3,,,,,,,,,,,,,,,,,,,,,,,,,,,1251.319795,212,left,0.704915,sport_tshirt,3,7,-4,0,3,1251.34856,1251.34856,1253.836175,0,57,57,57,1,212,3,7,sport_tshirt,parrot      ,html/resources/sequences_IDs/B/07_sport_tshirt.jpg,html/resources/sequences_IDs/B/05_parrot.jpg,7,5,3,2,2,1,6,4,0,69,,,,,,,,,,,,,,,,,,,,
,,,,,69,2020-07-04_18h12.12.367,retriever_ti,2020.1.3,Win32,60,Chrome,1920,1080,,,,,,,,,,,,,,,,,3,,,,,,,,,,,,,,,,,,,,,,,,,,,1254.439085,213,right,0.647275,sport_tshirt,3,7,2,1,3,1254.48027,1254.48027,1256.9697,0,58,58,58,1,213,1,3,dolphin     ,sport_tshirt,html/resources/sequences_IDs/B/02_dolphin.jpg,html/resources/sequences_IDs/B/07_sport_tshirt.jpg,2,7,1,1,3,2,2,6,0,69,,,,,,,,,,,,,,,,,,,,
,,,,,69,2020-07-04_18h12.12.367,retriever_ti,2020.1.3,Win32,60,Chrome,1920,1080,,,,,,,,,,,,,,,,,3,,,,,,,,,,,,,,,,,,,,,,,,,,,1257.57313,214,right,0.949905,satellite_dish,8,10,1,1,1,1257.60563,1257.60563,1260.09583,0,59,59,59,1,214,7,8,parrot      ,satellite_dish,html/resources/sequences_IDs/B/05_parrot.jpg,html/resources/sequences_IDs/A/10_satellite_dish.jpg,5,10,2,1,4,2,4,8,0,69,,,,,,,,,,,,,,,,,,,,
,,,,,69,2020-07-04_18h12.12.367,retriever_ti,2020.1.3,Win32,60,Chrome,1920,1080,,,,,,,,,,,,,,,,,3,,,,,,,,,,,,,,,,,,,,,,,,,,,1261.193005,215,right,1.51384,dolphin     ,1,2,-1,0,0,1261.225075,1261.225075,1263.716415,0,60,60,60,1,215,2,1,wolf          ,dolphin     ,html/resources/sequences_IDs/A/01_wolf.jpg,html/resources/sequences_IDs/B/02_dolphin.jpg,1,2,1,1,1,1,1,2,0,69,,,,,,,,,,,,,,,,,,,,
,,,,,69,2020-07-04_18h12.12.367,retriever_ti,2020.1.3,Win32,60,Chrome,1920,1080,,,,,,,,,,,,,,,,,3,,,,,,,,,,,,,,,,,,,,,,,,,,,1264.809015,216,right,0.756195,gloves      ,5,6,-3,0,3,1264.82079,1264.82079,1267.32246,0,61,61,61,1,216,8,5,satellite_dish,gloves      ,html/resources/sequences_IDs/A/10_satellite_dish.jpg,html/resources/sequences_IDs/B/06_gloves.jpg,10,6,4,2,3,2,8,5,0,69,,,,,,,,,,,,,,,,,,,,
,,,,,69,2020-07-04_18h12.12.367,retriever_ti,2020.1.3,Win32,60,Chrome,1920,1080,,,,,,,,,,,,,,,,,3,,,,,,,,,,,,,,,,,,,,,,,,,,,1267.93249,217,left,0.6343,gloves      ,5,6,1,1,1,1267.952135,1267.952135,1270.44435,0,62,62,62,1,217,5,4,gloves      ,hat           ,html/resources/sequences_IDs/B/06_gloves.jpg,html/resources/sequences_IDs/A/08_hat.jpg,6,8,3,2,3,2,5,7,0,69,,,,,,,,,,,,,,,,,,,,
,,,,,69,2020-07-04_18h12.12.367,retriever_ti,2020.1.3,Win32,60,Chrome,1920,1080,,,,,,,,,,,,,,,,,3,,,,,,,,,,,,,,,,,,,,,,,,,,,1271.54171,218,right,0.45338,hat           ,4,8,3,1,3,1271.557515,1271.557515,1274.045875,0,63,63,63,1,218,1,4,dolphin     ,hat           ,html/resources/sequences_IDs/B/02_dolphin.jpg,html/resources/sequences_IDs/A/08_hat.jpg,2,8,1,1,3,2,2,7,0,69,,,,,,,,,,,,,,,,,,,,
,,,,,69,2020-07-04_18h12.12.367,retriever_ti,2020.1.3,Win32,60,Chrome,1920,1080,,,,,,,,,,,,,,,,,3,,,,,,,,,,,,,,,,,,,,,,,,,,,1274.66159,219,right,0.81152,wolf          ,2,1,1,1,1,1274.69707,1274.69707,1277.18666,0,64,64,64,1,219,1,2,dolphin     ,wolf          ,html/resources/sequences_IDs/B/02_dolphin.jpg,html/resources/sequences_IDs/A/01_wolf.jpg,2,1,1,1,1,1,2,1,0,69,,,,,,,,,,,,,,,,,,,,
,,,,,69,2020-07-04_18h12.12.367,retriever_ti,2020.1.3,Win32,60,Chrome,1920,1080,,,,,,,,,,,,,,,,,3,,,,,,,,,,,,,,,,,,,,,,,,,,,1278.28408,220,left,0.72735,gloves      ,5,6,1,1,0,1278.324875,1278.324875,1280.83229,0,65,65,65,1,220,5,4,gloves      ,hat           ,html/resources/sequences_IDs/B/06_gloves.jpg,html/resources/sequences_IDs/A/08_hat.jpg,6,8,3,2,3,2,5,7,1,69,,,,,,,,,,,,,,,,,,,,
,,,,,69,2020-07-04_18h12.12.367,retriever_ti,2020.1.3,Win32,60,Chrome,1920,1080,,,,,,,,,,,,,,,,,3,,,,,,,,,,,,,,,,,,,,,,,,,,,1281.934765,221,right,0.554395,dolphin     ,1,2,-3,0,3,1281.95174,1281.95174,1284.45232,0,66,66,66,1,221,4,1,hat           ,dolphin     ,html/resources/sequences_IDs/A/08_hat.jpg,html/resources/sequences_IDs/B/02_dolphin.jpg,8,2,3,2,1,1,7,2,0,69,,,,,,,,,,,,,,,,,,,,
,,,,,69,2020-07-04_18h12.12.367,retriever_ti,2020.1.3,Win32,60,Chrome,1920,1080,,,,,,,,,,,,,,,,,3,,,,,,,,,,,,,,,,,,,,,,,,,,,1285.05667,222,right,0.774475,camel         ,6,3,-1,0,0,1285.09044,1285.09044,1287.595905,0,67,67,67,1,222,7,6,parrot      ,camel         ,html/resources/sequences_IDs/B/05_parrot.jpg,html/resources/sequences_IDs/A/03_camel.jpg,5,3,2,1,1,1,4,3,0,69,,,,,,,,,,,,,,,,,,,,
