instructionsLoop.thisRepN,instructionsLoop.thisTrialN,instructionsLoop.thisN,instructionsLoop.thisIndex,instructionsLoop.ran,participant,date,expName,psychopyVersion,OS,frameRate,browser,xResolution,yResolution,fix_onset,tprac,practiceKey.keys,practiceKey.rt,pracitem_chosen_name,acc_practice,P1_onsetPrac,P2_onsetPrac,onsetFeedbPrac,practiceTrials.thisRepN,practiceTrials.thisTrialN,practiceTrials.thisN,practiceTrials.thisIndex,practiceTrials.ran,P1,P2,Block,LocItem1,LocItem2,NameItem1,NameItem2,key_respAC_prac.keys,key_respAC_prac.corr,key_respAC_prac.rt,AC_acc,Attentions.thisRepN,Attentions.thisTrialN,Attentions.thisN,Attentions.thisIndex,Attentions.ran,Stim,Loc1,Loc2,Loc3,Loc4,CorrAns,keyDisturbed.keys,keyDisturbed.rt,repPractice.thisRepN,repPractice.thisTrialN,repPractice.thisN,repPractice.thisIndex,repPractice.ran,fixcross_onsetMain,trialNumber,key_resp.keys,key_resp.rt,item_chosen_name,item_chosen_value,item_chosen_ID,diff_chosen_minus_reject,acc_real,acc_feedback,P1_onset,P2_onset,feedb_onset,trials.thisRepN,trials.thisTrialN,trials.thisN,trials.thisIndex,trials.ran,Trial,ValueP1,ValueP2,P1name,P2name,P1Loc,P2Loc,P1id,P2id,Micro_categoryP1,Macro_categoryP1,Micro_categoryP2,Macro_categoryP2,ID_sequenceP1,ID_sequenceP2,InverseFb,pNumber,repBlocks.thisRepN,repBlocks.thisTrialN,repBlocks.thisN,repBlocks.thisIndex,repBlocks.ran,key_respAC.keys,key_respAC.corr,key_respAC.rt,trials_AC.thisRepN,trials_AC.thisTrialN,trials_AC.thisN,trials_AC.thisIndex,trials_AC.ran,Bonus,BonusLoop.thisRepN,BonusLoop.thisTrialN,BonusLoop.thisN,BonusLoop.thisIndex,BonusLoop.ran,comments
0,0,0,0,1,71,2020-07-04_19h27.40.230,retriever_ti,2020.1.3,Win32,60,Chrome,1366,768,,,,,,,,,,,,,,,,,,,,,,,,,,,,,,,,,,,,,,,,,,,,,,,,,,,,,,,,,,,,,,,,,,,,,,,,,,,,,,,,,,,,,,,,,,,,,,,,,,
1,0,1,0,1,71,2020-07-04_19h27.40.230,retriever_ti,2020.1.3,Win32,60,Chrome,1366,768,,,,,,,,,,,,,,,,,,,,,,,,,,,,,,,,,,,,,,,,,,,,,,,,,,,,,,,,,,,,,,,,,,,,,,,,,,,,,,,,,,,,,,,,,,,,,,,,,,
2,0,2,0,1,71,2020-07-04_19h27.40.230,retriever_ti,2020.1.3,Win32,60,Chrome,1366,768,,,,,,,,,,,,,,,,,,,,,,,,,,,,,,,,,,,,,,,,,,,,,,,,,,,,,,,,,,,,,,,,,,,,,,,,,,,,,,,,,,,,,,,,,,,,,,,,,,
3,0,3,0,1,71,2020-07-04_19h27.40.230,retriever_ti,2020.1.3,Win32,60,Chrome,1366,768,,,,,,,,,,,,,,,,,,,,,,,,,,,,,,,,,,,,,,,,,,,,,,,,,,,,,,,,,,,,,,,,,,,,,,,,,,,,,,,,,,,,,,,,,,,,,,,,,,
4,0,4,0,1,71,2020-07-04_19h27.40.230,retriever_ti,2020.1.3,Win32,60,Chrome,1366,768,,,,,,,,,,,,,,,,,,,,,,,,,,,,,,,,,,,,,,,,,,,,,,,,,,,,,,,,,,,,,,,,,,,,,,,,,,,,,,,,,,,,,,,,,,,,,,,,,,
5,0,5,0,1,71,2020-07-04_19h27.40.230,retriever_ti,2020.1.3,Win32,60,Chrome,1366,768,,,,,,,,,,,,,,,,,,,,,,,,,,,,,,,,,,,,,,,,,,,,,,,,,,,,,,,,,,,,,,,,,,,,,,,,,,,,,,,,,,,,,,,,,,,,,,,,,,
6,0,6,0,1,71,2020-07-04_19h27.40.230,retriever_ti,2020.1.3,Win32,60,Chrome,1366,768,,,,,,,,,,,,,,,,,,,,,,,,,,,,,,,,,,,,,,,,,,,,,,,,,,,,,,,,,,,,,,,,,,,,,,,,,,,,,,,,,,,,,,,,,,,,,,,,,,
7,0,7,0,1,71,2020-07-04_19h27.40.230,retriever_ti,2020.1.3,Win32,60,Chrome,1366,768,,,,,,,,,,,,,,,,,,,,,,,,,,,,,,,,,,,,,,,,,,,,,,,,,,,,,,,,,,,,,,,,,,,,,,,,,,,,,,,,,,,,,,,,,,,,,,,,,,
8,0,8,0,1,71,2020-07-04_19h27.40.230,retriever_ti,2020.1.3,Win32,60,Chrome,1366,768,,,,,,,,,,,,,,,,,,,,,,,,,,,,,,,,,,,,,,,,,,,,,,,,,,,,,,,,,,,,,,,,,,,,,,,,,,,,,,,,,,,,,,,,,,,,,,,,,,
9,0,9,0,1,71,2020-07-04_19h27.40.230,retriever_ti,2020.1.3,Win32,60,Chrome,1366,768,,,,,,,,,,,,,,,,,,,,,,,,,,,,,,,,,,,,,,,,,,,,,,,,,,,,,,,,,,,,,,,,,,,,,,,,,,,,,,,,,,,,,,,,,,,,,,,,,,
10,0,10,0,1,71,2020-07-04_19h27.40.230,retriever_ti,2020.1.3,Win32,60,Chrome,1366,768,,,,,,,,,,,,,,,,,,,,,,,,,,,,,,,,,,,,,,,,,,,,,,,,,,,,,,,,,,,,,,,,,,,,,,,,,,,,,,,,,,,,,,,,,,,,,,,,,,
11,0,11,0,1,71,2020-07-04_19h27.40.230,retriever_ti,2020.1.3,Win32,60,Chrome,1366,768,,,,,,,,,,,,,,,,,,,,,,,,,,,,,,,,,,,,,,,,,,,,,,,,,,,,,,,,,,,,,,,,,,,,,,,,,,,,,,,,,,,,,,,,,,,,,,,,,,
12,0,12,0,1,71,2020-07-04_19h27.40.230,retriever_ti,2020.1.3,Win32,60,Chrome,1366,768,,,,,,,,,,,,,,,,,,,,,,,,,,,,,,,,,,,,,,,,,,,,,,,,,,,,,,,,,,,,,,,,,,,,,,,,,,,,,,,,,,,,,,,,,,,,,,,,,,
13,0,13,0,1,71,2020-07-04_19h27.40.230,retriever_ti,2020.1.3,Win32,60,Chrome,1366,768,,,,,,,,,,,,,,,,,,,,,,,,,,,,,,,,,,,,,,,,,,,,,,,,,,,,,,,,,,,,,,,,,,,,,,,,,,,,,,,,,,,,,,,,,,,,,,,,,,
14,0,14,0,1,71,2020-07-04_19h27.40.230,retriever_ti,2020.1.3,Win32,60,Chrome,1366,768,,,,,,,,,,,,,,,,,,,,,,,,,,,,,,,,,,,,,,,,,,,,,,,,,,,,,,,,,,,,,,,,,,,,,,,,,,,,,,,,,,,,,,,,,,,,,,,,,,
15,0,15,0,1,71,2020-07-04_19h27.40.230,retriever_ti,2020.1.3,Win32,60,Chrome,1366,768,,,,,,,,,,,,,,,,,,,,,,,,,,,,,,,,,,,,,,,,,,,,,,,,,,,,,,,,,,,,,,,,,,,,,,,,,,,,,,,,,,,,,,,,,,,,,,,,,,
16,0,16,0,1,71,2020-07-04_19h27.40.230,retriever_ti,2020.1.3,Win32,60,Chrome,1366,768,,,,,,,,,,,,,,,,,,,,,,,,,,,,,,,,,,,,,,,,,,,,,,,,,,,,,,,,,,,,,,,,,,,,,,,,,,,,,,,,,,,,,,,,,,,,,,,,,,
17,0,17,0,1,71,2020-07-04_19h27.40.230,retriever_ti,2020.1.3,Win32,60,Chrome,1366,768,,,,,,,,,,,,,,,,,,,,,,,,,,,,,,,,,,,,,,,,,,,,,,,,,,,,,,,,,,,,,,,,,,,,,,,,,,,,,,,,,,,,,,,,,,,,,,,,,,
18,0,18,0,1,71,2020-07-04_19h27.40.230,retriever_ti,2020.1.3,Win32,60,Chrome,1366,768,,,,,,,,,,,,,,,,,,,,,,,,,,,,,,,,,,,,,,,,,,,,,,,,,,,,,,,,,,,,,,,,,,,,,,,,,,,,,,,,,,,,,,,,,,,,,,,,,,
19,0,19,0,1,71,2020-07-04_19h27.40.230,retriever_ti,2020.1.3,Win32,60,Chrome,1366,768,,,,,,,,,,,,,,,,,,,,,,,,,,,,,,,,,,,,,,,,,,,,,,,,,,,,,,,,,,,,,,,,,,,,,,,,,,,,,,,,,,,,,,,,,,,,,,,,,,
20,0,20,0,1,71,2020-07-04_19h27.40.230,retriever_ti,2020.1.3,Win32,60,Chrome,1366,768,,,,,,,,,,,,,,,,,,,,,,,,,,,,,,,,,,,,,,,,,,,,,,,,,,,,,,,,,,,,,,,,,,,,,,,,,,,,,,,,,,,,,,,,,,,,,,,,,,
,,,,,71,2020-07-04_19h27.40.230,retriever_ti,2020.1.3,Win32,60,Chrome,1366,768,427.57345,1,NaN,NaN,No_response,2,427.64559,427.64559,430.147685,0,0,0,0,1,2,5,1,html/resources/stimuli_practice_decision/04_beetle.jpg,html/resources/stimuli_practice_decision/02_canary.jpg,beetle,canary,,,,,,,,,,,,,,,,,,,,,,,,,,,,,,,,,,,,,,,,,,,,,,,,,,,,,,,,,,,,,,,,,,,,,,,,,,,,,
,,,,,71,2020-07-04_19h27.40.230,retriever_ti,2020.1.3,Win32,60,Chrome,1366,768,430.7291,2,left,0.898775,rabbit,1,430.755965,430.755965,433.250145,0,1,1,1,1,4,3,1,html/resources/stimuli_practice_decision/01_rabbit.jpg,html/resources/stimuli_practice_decision/07_sock.jpg,rabbit,sock,,,,,,,,,,,,,,,,,,,,,,,,,,,,,,,,,,,,,,,,,,,,,,,,,,,,,,,,,,,,,,,,,,,,,,,,,,,,,
,,,,,71,2020-07-04_19h27.40.230,retriever_ti,2020.1.3,Win32,60,Chrome,1366,768,434.257145,3,left,0.854325,pullover,1,434.288465,434.288465,436.77733,0,2,2,2,1,6,2,1,html/resources/stimuli_practice_decision/06_pullover.jpg,html/resources/stimuli_practice_decision/04_beetle.jpg,pullover,beetle,,,,,,,,,,,,,,,,,,,,,,,,,,,,,,,,,,,,,,,,,,,,,,,,,,,,,,,,,,,,,,,,,,,,,,,,,,,,,
,,,,,71,2020-07-04_19h27.40.230,retriever_ti,2020.1.3,Win32,60,Chrome,1366,768,437.295385,4,right,0.869305,handmixer,0,437.334815,437.334815,439.817265,0,3,3,3,1,7,1,1,html/resources/stimuli_practice_decision/05_glasses.jpg,html/resources/stimuli_practice_decision/08_handmixer.jpg,glasses,handmixer,,,,,,,,,,,,,,,,,,,,,,,,,,,,,,,,,,,,,,,,,,,,,,,,,,,,,,,,,,,,,,,,,,,,,,,,,,,,,
,,,,,71,2020-07-04_19h27.40.230,retriever_ti,2020.1.3,Win32,60,Chrome,1366,768,440.326575,5,right,1.061115,pullover,0,440.34766,440.34766,442.831845,0,4,4,4,1,7,6,1,html/resources/stimuli_practice_decision/05_glasses.jpg,html/resources/stimuli_practice_decision/06_pullover.jpg,glasses,pullover,,,,,,,,,,,,,,,,,,,,,,,,,,,,,,,,,,,,,,,,,,,,,,,,,,,,,,,,,,,,,,,,,,,,,,,,,,,,,
,,,,,71,2020-07-04_19h27.40.230,retriever_ti,2020.1.3,Win32,60,Chrome,1366,768,443.83786,6,left,0.57757,rabbit,0,443.87627,443.87627,446.35896,0,5,5,5,1,4,7,1,html/resources/stimuli_practice_decision/01_rabbit.jpg,html/resources/stimuli_practice_decision/05_glasses.jpg,rabbit,glasses,,,,,,,,,,,,,,,,,,,,,,,,,,,,,,,,,,,,,,,,,,,,,,,,,,,,,,,,,,,,,,,,,,,,,,,,,,,,,
,,,,,71,2020-07-04_19h27.40.230,retriever_ti,2020.1.3,Win32,60,Chrome,1366,768,446.869505,7,left,1.06917,handmixer,0,446.889375,446.889375,449.37365,0,6,6,6,1,1,2,1,html/resources/stimuli_practice_decision/08_handmixer.jpg,html/resources/stimuli_practice_decision/04_beetle.jpg,handmixer,beetle,,,,,,,,,,,,,,,,,,,,,,,,,,,,,,,,,,,,,,,,,,,,,,,,,,,,,,,,,,,,,,,,,,,,,,,,,,,,,
,,,,,71,2020-07-04_19h27.40.230,retriever_ti,2020.1.3,Win32,60,Chrome,1366,768,450.367635,8,left,1.014785,rabbit,1,450.389725,450.389725,452.873745,0,7,7,7,1,4,3,1,html/resources/stimuli_practice_decision/01_rabbit.jpg,html/resources/stimuli_practice_decision/07_sock.jpg,rabbit,sock,,,,,,,,,,,,,,,,,,,,,,,,,,,,,,,,,,,,,,,,,,,,,,,,,,,,,,,,,,,,,,,,,,,,,,,,,,,,,
,,,,,71,2020-07-04_19h27.40.230,retriever_ti,2020.1.3,Win32,60,Chrome,1366,768,,,,,,,,,,,,,,,,,,,,,,down,1,2.977055,1,0,0,0,1,1,html/resources/sequences_IDs/star.png,square ↑,circle →,star ↓,← triangle,down,,,,,,,,,,,,,,,,,,,,,,,,,,,,,,,,,,,,,,,,,,,,,,,,,,,,,,,,,,,,,,
,,,,,71,2020-07-04_19h27.40.230,retriever_ti,2020.1.3,Win32,60,Chrome,1366,768,,,,,,,,,,,,,,,,,,,,,,down,1,2.878645,1,0,1,1,3,1,html/resources/sequences_IDs/triangle.png,star ↑,square →,triangle ↓,← circle,down,,,,,,,,,,,,,,,,,,,,,,,,,,,,,,,,,,,,,,,,,,,,,,,,,,,,,,,,,,,,,,
,,,,,71,2020-07-04_19h27.40.230,retriever_ti,2020.1.3,Win32,60,Chrome,1366,768,,,,,,,,,,,,,,,,,,,,,,up,1,8.915675,1,0,2,2,0,1,html/resources/sequences_IDs/circle.png,circle ↑,square →,triangle ↓,← star ,up,,,,,,,,,,,,,,,,,,,,,,,,,,,,,,,,,,,,,,,,,,,,,,,,,,,,,,,,,,,,,,
,,,,,71,2020-07-04_19h27.40.230,retriever_ti,2020.1.3,Win32,60,Chrome,1366,768,,,,,,,,,,,,,,,,,,,,,,left,1,5.21683,1,0,3,3,2,1,html/resources/sequences_IDs/square1.png,star ↑,triangle →,circle ↓,← square,left,,,,,,,,,,,,,,,,,,,,,,,,,,,,,,,,,,,,,,,,,,,,,,,,,,,,,,,,,,,,,,
,,,,,71,2020-07-04_19h27.40.230,retriever_ti,2020.1.3,Win32,60,Chrome,1366,768,,,,,,,,,,,,,,,,,,,,,,,,,,,,,,,,,,,,,0,157.78381,0,0,0,0,1,,,,,,,,,,,,,,,,,,,,,,,,,,,,,,,,,,,,,,,,,,,,,,,,,,,,,,,
,,,,,71,2020-07-04_19h27.40.230,retriever_ti,2020.1.3,Win32,60,Chrome,1366,768,644.182345,9,left,0.860335,pullover,0,644.201335,644.201335,646.68632,0,0,0,0,1,6,7,1,html/resources/stimuli_practice_decision/06_pullover.jpg,html/resources/stimuli_practice_decision/05_glasses.jpg,pullover,glasses,,,,,,,,,,,,,,,,,,,,,,,,,,,,,,,,,,,,,,,,,,,,,,,,,,,,,,,,,,,,,,,,,,,,,,,,,,,,,
,,,,,71,2020-07-04_19h27.40.230,retriever_ti,2020.1.3,Win32,60,Chrome,1366,768,647.67978,10,right,1.208245,beetle,0,647.716905,647.716905,650.198265,0,1,1,1,1,6,2,1,html/resources/stimuli_practice_decision/06_pullover.jpg,html/resources/stimuli_practice_decision/04_beetle.jpg,pullover,beetle,,,,,,,,,,,,,,,,,,,,,,,,,,,,,,,,,,,,,,,,,,,,,,,,,,,,,,,,,,,,,,,,,,,,,,,,,,,,,
,,,,,71,2020-07-04_19h27.40.230,retriever_ti,2020.1.3,Win32,60,Chrome,1366,768,650.715445,11,left,0.869835,canary,0,650.731855,650.731855,653.219535,0,2,2,2,1,5,6,1,html/resources/stimuli_practice_decision/02_canary.jpg,html/resources/stimuli_practice_decision/06_pullover.jpg,canary,pullover,,,,,,,,,,,,,,,,,,,,,,,,,,,,,,,,,,,,,,,,,,,,,,,,,,,,,,,,,,,,,,,,,,,,,,,,,,,,,
,,,,,71,2020-07-04_19h27.40.230,retriever_ti,2020.1.3,Win32,60,Chrome,1366,768,654.21976,12,right,1.20328,glasses,0,654.242345,654.242345,656.73246,0,3,3,3,1,8,7,1,html/resources/stimuli_practice_decision/03_squirrel.jpg,html/resources/stimuli_practice_decision/05_glasses.jpg,squirrel,glasses,,,,,,,,,,,,,,,,,,,,,,,,,,,,,,,,,,,,,,,,,,,,,,,,,,,,,,,,,,,,,,,,,,,,,,,,,,,,,
,,,,,71,2020-07-04_19h27.40.230,retriever_ti,2020.1.3,Win32,60,Chrome,1366,768,657.733455,13,left,1.716285,canary,1,657.768375,657.768375,660.260135,0,4,4,4,1,5,3,1,html/resources/stimuli_practice_decision/02_canary.jpg,html/resources/stimuli_practice_decision/07_sock.jpg,canary,sock,,,,,,,,,,,,,,,,,,,,,,,,,,,,,,,,,,,,,,,,,,,,,,,,,,,,,,,,,,,,,,,,,,,,,,,,,,,,,
,,,,,71,2020-07-04_19h27.40.230,retriever_ti,2020.1.3,Win32,60,Chrome,1366,768,660.76683,14,left,1.19837,glasses,0,660.807995,660.807995,663.28927,0,5,5,5,1,7,8,1,html/resources/stimuli_practice_decision/05_glasses.jpg,html/resources/stimuli_practice_decision/03_squirrel.jpg,glasses,squirrel,,,,,,,,,,,,,,,,,,,,,,,,,,,,,,,,,,,,,,,,,,,,,,,,,,,,,,,,,,,,,,,,,,,,,,,,,,,,,
,,,,,71,2020-07-04_19h27.40.230,retriever_ti,2020.1.3,Win32,60,Chrome,1366,768,664.291925,15,right,0.99418,rabbit,0,664.30922,664.30922,666.80671,0,6,6,6,1,5,4,1,html/resources/stimuli_practice_decision/02_canary.jpg,html/resources/stimuli_practice_decision/01_rabbit.jpg,canary,rabbit,,,,,,,,,,,,,,,,,,,,,,,,,,,,,,,,,,,,,,,,,,,,,,,,,,,,,,,,,,,,,,,,,,,,,,,,,,,,,
,,,,,71,2020-07-04_19h27.40.230,retriever_ti,2020.1.3,Win32,60,Chrome,1366,768,667.806505,16,right,1.222215,sock,0,667.82542,667.82542,670.316165,0,7,7,7,1,5,3,1,html/resources/stimuli_practice_decision/02_canary.jpg,html/resources/stimuli_practice_decision/07_sock.jpg,canary,sock,,,,,,,,,,,,,,,,,,,,,,,,,,,,,,,,,,,,,,,,,,,,,,,,,,,,,,,,,,,,,,,,,,,,,,,,,,,,,
,,,,,71,2020-07-04_19h27.40.230,retriever_ti,2020.1.3,Win32,60,Chrome,1366,768,,,,,,,,,,,,,,,,,,,,,,left,1,2.78105,1,0,0,0,2,1,html/resources/sequences_IDs/square1.png,star ↑,triangle →,circle ↓,← square,left,,,,,,,,,,,,,,,,,,,,,,,,,,,,,,,,,,,,,,,,,,,,,,,,,,,,,,,,,,,,,,
,,,,,71,2020-07-04_19h27.40.230,retriever_ti,2020.1.3,Win32,60,Chrome,1366,768,,,,,,,,,,,,,,,,,,,,,,down,1,1.83554,1,0,1,1,1,1,html/resources/sequences_IDs/star.png,square ↑,circle →,star ↓,← triangle,down,,,,,,,,,,,,,,,,,,,,,,,,,,,,,,,,,,,,,,,,,,,,,,,,,,,,,,,,,,,,,,
,,,,,71,2020-07-04_19h27.40.230,retriever_ti,2020.1.3,Win32,60,Chrome,1366,768,,,,,,,,,,,,,,,,,,,,,,up,1,1.476685,1,0,2,2,0,1,html/resources/sequences_IDs/circle.png,circle ↑,square →,triangle ↓,← star ,up,,,,,,,,,,,,,,,,,,,,,,,,,,,,,,,,,,,,,,,,,,,,,,,,,,,,,,,,,,,,,,
,,,,,71,2020-07-04_19h27.40.230,retriever_ti,2020.1.3,Win32,60,Chrome,1366,768,,,,,,,,,,,,,,,,,,,,,,down,1,3.647325,1,0,3,3,3,1,html/resources/sequences_IDs/triangle.png,star ↑,square →,triangle ↓,← circle,down,,,,,,,,,,,,,,,,,,,,,,,,,,,,,,,,,,,,,,,,,,,,,,,,,,,,,,,,,,,,,,
,,,,,71,2020-07-04_19h27.40.230,retriever_ti,2020.1.3,Win32,60,Chrome,1366,768,,,,,,,,,,,,,,,,,,,,,,,,,,,,,,,,,,,,,0,12.480835,1,0,1,0,1,,,,,,,,,,,,,,,,,,,,,,,,,,,,,,,,,,,,,,,,,,,,,,,,,,,,,,,
,,,,,71,2020-07-04_19h27.40.230,retriever_ti,2020.1.3,Win32,60,Chrome,1366,768,,,,,,,,,,,,,,,,,1,,,,,,,,,,,,,,,,,,,,,,,,,,,847.812375,1,left,0.96194,holdfast    ,4,4,-3,0,3,847.84246,847.84246,850.342765,0,0,0,0,1,1,4,7,holdfast    ,camel         ,html/resources/sequences_IDs/B/04_holdfast.jpg,html/resources/sequences_IDs/A/03_camel.jpg,4,3,2,1,1,1,3,2,0,71,,,,,,,,,,,,,,,,,,,,
,,,,,71,2020-07-04_19h27.40.230,retriever_ti,2020.1.3,Win32,60,Chrome,1366,768,,,,,,,,,,,,,,,,,1,,,,,,,,,,,,,,,,,,,,,,,,,,,850.96319,2,right,1.20373,peacock       ,3,5,-3,0,3,851.004475,851.004475,853.496265,0,1,1,1,1,2,6,3,sport_tshirt,peacock       ,html/resources/sequences_IDs/B/07_sport_tshirt.jpg,html/resources/sequences_IDs/A/05_peacock.jpg,7,5,3,2,2,1,5,4,0,71,,,,,,,,,,,,,,,,,,,,
,,,,,71,2020-07-04_19h27.40.230,retriever_ti,2020.1.3,Win32,60,Chrome,1366,768,,,,,,,,,,,,,,,,,1,,,,,,,,,,,,,,,,,,,,,,,,,,,854.115245,3,left,1.2643,camel         ,7,3,-1,0,0,854.136835,854.136835,856.62883,0,2,2,2,1,3,7,8,camel         ,dolphin     ,html/resources/sequences_IDs/A/03_camel.jpg,html/resources/sequences_IDs/B/02_dolphin.jpg,3,2,1,1,1,1,2,1,0,71,,,,,,,,,,,,,,,,,,,,
,,,,,71,2020-07-04_19h27.40.230,retriever_ti,2020.1.3,Win32,60,Chrome,1366,768,,,,,,,,,,,,,,,,,1,,,,,,,,,,,,,,,,,,,,,,,,,,,857.728255,4,left,1.256685,hat           ,5,8,4,1,3,857.775785,857.775785,860.243525,0,3,3,3,1,4,5,1,hat           ,satellite_dish,html/resources/sequences_IDs/A/08_hat.jpg,html/resources/sequences_IDs/A/10_satellite_dish.jpg,8,10,3,2,4,2,6,8,0,71,,,,,,,,,,,,,,,,,,,,
,,,,,71,2020-07-04_19h27.40.230,retriever_ti,2020.1.3,Win32,60,Chrome,1366,768,,,,,,,,,,,,,,,,,1,,,,,,,,,,,,,,,,,,,,,,,,,,,860.858685,5,left,1.27229,hat           ,5,8,3,1,3,860.895965,860.895965,863.370965,0,4,4,4,1,5,5,2,hat           ,phone       ,html/resources/sequences_IDs/A/08_hat.jpg,html/resources/sequences_IDs/B/09_phone.jpg,8,9,3,2,4,2,6,7,0,71,,,,,,,,,,,,,,,,,,,,
,,,,,71,2020-07-04_19h27.40.230,retriever_ti,2020.1.3,Win32,60,Chrome,1366,768,,,,,,,,,,,,,,,,,1,,,,,,,,,,,,,,,,,,,,,,,,,,,863.98693,6,left,1.16583,sport_tshirt,6,7,-1,0,0,864.025665,864.025665,866.523115,0,5,5,5,1,6,6,7,sport_tshirt,camel         ,html/resources/sequences_IDs/B/07_sport_tshirt.jpg,html/resources/sequences_IDs/A/03_camel.jpg,7,3,3,2,1,1,5,2,0,71,,,,,,,,,,,,,,,,,,,,
,,,,,71,2020-07-04_19h27.40.230,retriever_ti,2020.1.3,Win32,60,Chrome,1366,768,,,,,,,,,,,,,,,,,1,,,,,,,,,,,,,,,,,,,,,,,,,,,867.623,7,right,1.25187,camel         ,7,3,-1,0,0,867.641655,867.641655,870.136715,0,6,6,6,1,7,8,7,dolphin     ,camel         ,html/resources/sequences_IDs/B/02_dolphin.jpg,html/resources/sequences_IDs/A/03_camel.jpg,2,3,1,1,1,1,1,2,0,71,,,,,,,,,,,,,,,,,,,,
,,,,,71,2020-07-04_19h27.40.230,retriever_ti,2020.1.3,Win32,60,Chrome,1366,768,,,,,,,,,,,,,,,,,1,,,,,,,,,,,,,,,,,,,,,,,,,,,871.229355,8,left,0.936955,dolphin     ,8,2,3,1,3,871.275095,871.275095,873.755805,0,7,7,7,1,8,8,5,dolphin     ,hat           ,html/resources/sequences_IDs/B/02_dolphin.jpg,html/resources/sequences_IDs/A/08_hat.jpg,2,8,1,1,3,2,1,6,0,71,,,,,,,,,,,,,,,,,,,,
,,,,,71,2020-07-04_19h27.40.230,retriever_ti,2020.1.3,Win32,60,Chrome,1366,768,,,,,,,,,,,,,,,,,1,,,,,,,,,,,,,,,,,,,,,,,,,,,874.37734,9,right,1.21146,dolphin     ,8,2,3,1,3,874.40437,874.40437,876.893865,0,8,8,8,1,9,5,8,hat           ,dolphin     ,html/resources/sequences_IDs/A/08_hat.jpg,html/resources/sequences_IDs/B/02_dolphin.jpg,8,2,3,2,1,1,6,1,0,71,,,,,,,,,,,,,,,,,,,,
,,,,,71,2020-07-04_19h27.40.230,retriever_ti,2020.1.3,Win32,60,Chrome,1366,768,,,,,,,,,,,,,,,,,1,,,,,,,,,,,,,,,,,,,,,,,,,,,877.50776,10,right,1.401175,camel         ,7,3,6,1,3,877.525065,877.525065,880.01434,0,9,9,9,1,10,1,7,satellite_dish,camel         ,html/resources/sequences_IDs/A/10_satellite_dish.jpg,html/resources/sequences_IDs/A/03_camel.jpg,10,3,4,2,1,1,8,2,0,71,,,,,,,,,,,,,,,,,,,,
,,,,,71,2020-07-04_19h27.40.230,retriever_ti,2020.1.3,Win32,60,Chrome,1366,768,,,,,,,,,,,,,,,,,1,,,,,,,,,,,,,,,,,,,,,,,,,,,880.63611,11,right,1.62097,holdfast    ,4,4,-2,0,3,880.65557,880.65557,883.1451,0,10,10,10,1,11,6,4,sport_tshirt,holdfast    ,html/resources/sequences_IDs/B/07_sport_tshirt.jpg,html/resources/sequences_IDs/B/04_holdfast.jpg,7,4,3,2,2,1,5,3,0,71,,,,,,,,,,,,,,,,,,,,
,,,,,71,2020-07-04_19h27.40.230,retriever_ti,2020.1.3,Win32,60,Chrome,1366,768,,,,,,,,,,,,,,,,,1,,,,,,,,,,,,,,,,,,,,,,,,,,,883.752715,12,left,1.254305,peacock       ,3,5,-2,0,3,883.77122,883.77122,886.266965,0,11,11,11,1,12,3,5,peacock       ,hat           ,html/resources/sequences_IDs/A/05_peacock.jpg,html/resources/sequences_IDs/A/08_hat.jpg,5,8,2,1,3,2,4,6,0,71,,,,,,,,,,,,,,,,,,,,
,,,,,71,2020-07-04_19h27.40.230,retriever_ti,2020.1.3,Win32,60,Chrome,1366,768,,,,,,,,,,,,,,,,,1,,,,,,,,,,,,,,,,,,,,,,,,,,,886.8783,13,right,1.530875,peacock       ,3,5,1,1,1,886.89795,886.89795,889.381005,0,12,12,12,1,13,2,3,phone       ,peacock       ,html/resources/sequences_IDs/B/09_phone.jpg,html/resources/sequences_IDs/A/05_peacock.jpg,9,5,4,2,2,1,7,4,0,71,,,,,,,,,,,,,,,,,,,,
,,,,,71,2020-07-04_19h27.40.230,retriever_ti,2020.1.3,Win32,60,Chrome,1366,768,,,,,,,,,,,,,,,,,1,,,,,,,,,,,,,,,,,,,,,,,,,,,890.48962,14,left,0.87961,peacock       ,3,5,-4,0,3,890.51271,890.51271,892.992845,0,13,13,13,1,14,3,7,peacock       ,camel         ,html/resources/sequences_IDs/A/05_peacock.jpg,html/resources/sequences_IDs/A/03_camel.jpg,5,3,2,1,1,1,4,2,0,71,,,,,,,,,,,,,,,,,,,,
,,,,,71,2020-07-04_19h27.40.230,retriever_ti,2020.1.3,Win32,60,Chrome,1366,768,,,,,,,,,,,,,,,,,1,,,,,,,,,,,,,,,,,,,,,,,,,,,893.607975,15,left,0.994575,peacock       ,3,5,-1,0,0,893.626905,893.626905,896.113105,0,14,14,14,1,15,3,4,peacock       ,holdfast    ,html/resources/sequences_IDs/A/05_peacock.jpg,html/resources/sequences_IDs/B/04_holdfast.jpg,5,4,2,1,2,1,4,3,0,71,,,,,,,,,,,,,,,,,,,,
,,,,,71,2020-07-04_19h27.40.230,retriever_ti,2020.1.3,Win32,60,Chrome,1366,768,,,,,,,,,,,,,,,,,1,,,,,,,,,,,,,,,,,,,,,,,,,,,897.212365,16,right,1.153865,holdfast    ,4,4,-1,0,0,897.233325,897.233325,899.765835,0,15,15,15,1,16,5,4,hat           ,holdfast    ,html/resources/sequences_IDs/A/08_hat.jpg,html/resources/sequences_IDs/B/04_holdfast.jpg,8,4,3,2,2,1,6,3,0,71,,,,,,,,,,,,,,,,,,,,
,,,,,71,2020-07-04_19h27.40.230,retriever_ti,2020.1.3,Win32,60,Chrome,1366,768,,,,,,,,,,,,,,,,,1,,,,,,,,,,,,,,,,,,,,,,,,,,,900.861005,17,left,0.79629,hat           ,5,8,-1,0,0,900.896635,900.896635,903.387555,0,16,16,16,1,17,5,6,hat           ,sport_tshirt,html/resources/sequences_IDs/A/08_hat.jpg,html/resources/sequences_IDs/B/07_sport_tshirt.jpg,8,7,3,2,3,2,6,5,0,71,,,,,,,,,,,,,,,,,,,,
,,,,,71,2020-07-04_19h27.40.230,retriever_ti,2020.1.3,Win32,60,Chrome,1366,768,,,,,,,,,,,,,,,,,1,,,,,,,,,,,,,,,,,,,,,,,,,,,904.490875,18,left,1.340415,satellite_dish,1,10,-4,0,3,904.52621,904.52621,907.015985,0,17,17,17,1,18,1,5,satellite_dish,hat           ,html/resources/sequences_IDs/A/10_satellite_dish.jpg,html/resources/sequences_IDs/A/08_hat.jpg,10,8,4,2,3,2,8,6,0,71,,,,,,,,,,,,,,,,,,,,
,,,,,71,2020-07-04_19h27.40.230,retriever_ti,2020.1.3,Win32,60,Chrome,1366,768,,,,,,,,,,,,,,,,,1,,,,,,,,,,,,,,,,,,,,,,,,,,,907.622955,19,right,0.89657,camel         ,7,3,5,1,3,907.66148,907.66148,910.15733,0,18,18,18,1,19,2,7,phone       ,camel         ,html/resources/sequences_IDs/B/09_phone.jpg,html/resources/sequences_IDs/A/03_camel.jpg,9,3,4,2,1,1,7,2,0,71,,,,,,,,,,,,,,,,,,,,
,,,,,71,2020-07-04_19h27.40.230,retriever_ti,2020.1.3,Win32,60,Chrome,1366,768,,,,,,,,,,,,,,,,,1,,,,,,,,,,,,,,,,,,,,,,,,,,,910.770505,20,right,1.20706,hat           ,5,8,1,1,1,910.80489,910.80489,913.292625,0,19,19,19,1,20,4,5,holdfast    ,hat           ,html/resources/sequences_IDs/B/04_holdfast.jpg,html/resources/sequences_IDs/A/08_hat.jpg,4,8,2,1,3,2,3,6,0,71,,,,,,,,,,,,,,,,,,,,
,,,,,71,2020-07-04_19h27.40.230,retriever_ti,2020.1.3,Win32,60,Chrome,1366,768,,,,,,,,,,,,,,,,,1,,,,,,,,,,,,,,,,,,,,,,,,,,,914.391825,21,right,1.196235,sport_tshirt,6,7,2,1,3,914.42876,914.42876,916.920135,0,20,20,20,1,21,4,6,holdfast    ,sport_tshirt,html/resources/sequences_IDs/B/04_holdfast.jpg,html/resources/sequences_IDs/B/07_sport_tshirt.jpg,4,7,2,1,3,2,3,5,0,71,,,,,,,,,,,,,,,,,,,,
,,,,,71,2020-07-04_19h27.40.230,retriever_ti,2020.1.3,Win32,60,Chrome,1366,768,,,,,,,,,,,,,,,,,1,,,,,,,,,,,,,,,,,,,,,,,,,,,917.52528,22,NaN,NaN,No_response,NaN,NaN,NaN,2,2,917.56167,917.56167,920.044405,0,21,21,21,1,22,3,1,peacock       ,satellite_dish,html/resources/sequences_IDs/A/05_peacock.jpg,html/resources/sequences_IDs/A/10_satellite_dish.jpg,5,10,2,1,4,2,4,8,0,71,,,,,,,,,,,,,,,,,,,,
,,,,,71,2020-07-04_19h27.40.230,retriever_ti,2020.1.3,Win32,60,Chrome,1366,768,,,,,,,,,,,,,,,,,1,,,,,,,,,,,,,,,,,,,,,,,,,,,921.14094,23,left,0.726165,camel         ,7,3,1,1,1,921.1783,921.1783,923.66489,0,22,22,22,1,23,7,6,camel         ,sport_tshirt,html/resources/sequences_IDs/A/03_camel.jpg,html/resources/sequences_IDs/B/07_sport_tshirt.jpg,3,7,1,1,3,2,2,5,0,71,,,,,,,,,,,,,,,,,,,,
,,,,,71,2020-07-04_19h27.40.230,retriever_ti,2020.1.3,Win32,60,Chrome,1366,768,,,,,,,,,,,,,,,,,1,,,,,,,,,,,,,,,,,,,,,,,,,,,924.76441,24,right,1.045015,satellite_dish,1,10,-5,0,3,924.782585,924.782585,927.277655,0,23,23,23,1,24,6,1,sport_tshirt,satellite_dish,html/resources/sequences_IDs/B/07_sport_tshirt.jpg,html/resources/sequences_IDs/A/10_satellite_dish.jpg,7,10,3,2,4,2,5,8,0,71,,,,,,,,,,,,,,,,,,,,
,,,,,71,2020-07-04_19h27.40.230,retriever_ti,2020.1.3,Win32,60,Chrome,1366,768,,,,,,,,,,,,,,,,,1,,,,,,,,,,,,,,,,,,,,,,,,,,,927.882225,25,right,1.145985,peacock       ,3,5,1,1,1,927.902485,927.902485,930.39817,0,24,24,24,1,25,2,3,phone       ,peacock       ,html/resources/sequences_IDs/B/09_phone.jpg,html/resources/sequences_IDs/A/05_peacock.jpg,9,5,4,2,2,1,7,4,0,71,,,,,,,,,,,,,,,,,,,,
,,,,,71,2020-07-04_19h27.40.230,retriever_ti,2020.1.3,Win32,60,Chrome,1366,768,,,,,,,,,,,,,,,,,1,,,,,,,,,,,,,,,,,,,,,,,,,,,931.50327,26,right,1.116835,sport_tshirt,6,7,3,1,3,931.531055,931.531055,934.019035,0,25,25,25,1,26,3,6,peacock       ,sport_tshirt,html/resources/sequences_IDs/A/05_peacock.jpg,html/resources/sequences_IDs/B/07_sport_tshirt.jpg,5,7,2,1,3,2,4,5,0,71,,,,,,,,,,,,,,,,,,,,
,,,,,71,2020-07-04_19h27.40.230,retriever_ti,2020.1.3,Win32,60,Chrome,1366,768,,,,,,,,,,,,,,,,,1,,,,,,,,,,,,,,,,,,,,,,,,,,,934.64055,27,right,1.13701,hat           ,5,8,1,1,0,934.6792,934.6792,937.172375,0,26,26,26,1,27,4,5,holdfast    ,hat           ,html/resources/sequences_IDs/B/04_holdfast.jpg,html/resources/sequences_IDs/A/08_hat.jpg,4,8,2,1,3,2,3,6,1,71,,,,,,,,,,,,,,,,,,,,
,,,,,71,2020-07-04_19h27.40.230,retriever_ti,2020.1.3,Win32,60,Chrome,1366,768,,,,,,,,,,,,,,,,,1,,,,,,,,,,,,,,,,,,,,,,,,,,,938.267165,28,right,1.109935,hat           ,5,8,-1,0,0,938.286805,938.286805,940.769465,0,27,27,27,1,28,6,5,sport_tshirt,hat           ,html/resources/sequences_IDs/B/07_sport_tshirt.jpg,html/resources/sequences_IDs/A/08_hat.jpg,7,8,3,2,3,2,5,6,0,71,,,,,,,,,,,,,,,,,,,,
,,,,,71,2020-07-04_19h27.40.230,retriever_ti,2020.1.3,Win32,60,Chrome,1366,768,,,,,,,,,,,,,,,,,1,,,,,,,,,,,,,,,,,,,,,,,,,,,941.85926,29,right,1.171615,phone       ,2,9,1,1,1,941.895705,941.895705,944.388025,0,28,28,28,1,29,1,2,satellite_dish,phone       ,html/resources/sequences_IDs/A/10_satellite_dish.jpg,html/resources/sequences_IDs/B/09_phone.jpg,10,9,4,2,4,2,8,7,0,71,,,,,,,,,,,,,,,,,,,,
,,,,,71,2020-07-04_19h27.40.230,retriever_ti,2020.1.3,Win32,60,Chrome,1366,768,,,,,,,,,,,,,,,,,1,,,,,,,,,,,,,,,,,,,,,,,,,,,945.49352,30,left,1.03931,dolphin     ,8,2,5,1,3,945.510335,945.510335,947.99398,0,29,29,29,1,30,8,3,dolphin     ,peacock       ,html/resources/sequences_IDs/B/02_dolphin.jpg,html/resources/sequences_IDs/A/05_peacock.jpg,2,5,1,1,2,1,1,4,0,71,,,,,,,,,,,,,,,,,,,,
,,,,,71,2020-07-04_19h27.40.230,retriever_ti,2020.1.3,Win32,60,Chrome,1366,768,,,,,,,,,,,,,,,,,1,,,,,,,,,,,,,,,,,,,,,,,,,,,948.60214,31,right,1.39081,holdfast    ,4,4,1,1,1,948.61652,948.61652,951.107395,0,30,30,30,1,31,3,4,peacock       ,holdfast    ,html/resources/sequences_IDs/A/05_peacock.jpg,html/resources/sequences_IDs/B/04_holdfast.jpg,5,4,2,1,2,1,4,3,0,71,,,,,,,,,,,,,,,,,,,,
,,,,,71,2020-07-04_19h27.40.230,retriever_ti,2020.1.3,Win32,60,Chrome,1366,768,,,,,,,,,,,,,,,,,1,,,,,,,,,,,,,,,,,,,,,,,,,,,952.207135,32,right,1.236145,hat           ,5,8,-1,0,1,952.24002,952.24002,954.734605,0,31,31,31,1,32,6,5,sport_tshirt,hat           ,html/resources/sequences_IDs/B/07_sport_tshirt.jpg,html/resources/sequences_IDs/A/08_hat.jpg,7,8,3,2,3,2,5,6,1,71,,,,,,,,,,,,,,,,,,,,
,,,,,71,2020-07-04_19h27.40.230,retriever_ti,2020.1.3,Win32,60,Chrome,1366,768,,,,,,,,,,,,,,,,,1,,,,,,,,,,,,,,,,,,,,,,,,,,,955.83427,33,right,1.28619,sport_tshirt,6,7,-1,0,0,955.869465,955.869465,958.357195,0,32,32,32,1,33,7,6,camel         ,sport_tshirt,html/resources/sequences_IDs/A/03_camel.jpg,html/resources/sequences_IDs/B/07_sport_tshirt.jpg,3,7,1,1,3,2,2,5,0,71,,,,,,,,,,,,,,,,,,,,
,,,,,71,2020-07-04_19h27.40.230,retriever_ti,2020.1.3,Win32,60,Chrome,1366,768,,,,,,,,,,,,,,,,,1,,,,,,,,,,,,,,,,,,,,,,,,,,,959.45648,34,left,0.80778,dolphin     ,8,2,4,1,3,959.49414,959.49414,962.187465,0,33,33,33,1,34,8,4,dolphin     ,holdfast    ,html/resources/sequences_IDs/B/02_dolphin.jpg,html/resources/sequences_IDs/B/04_holdfast.jpg,2,4,1,1,2,1,1,3,0,71,,,,,,,,,,,,,,,,,,,,
,,,,,71,2020-07-04_19h27.40.230,retriever_ti,2020.1.3,Win32,60,Chrome,1366,768,,,,,,,,,,,,,,,,,1,,,,,,,,,,,,,,,,,,,,,,,,,,,962.84362,35,left,0.87321,camel         ,7,3,2,1,3,963.51352,963.51352,966.00257,0,34,34,34,1,35,7,5,camel         ,hat           ,html/resources/sequences_IDs/A/03_camel.jpg,html/resources/sequences_IDs/A/08_hat.jpg,3,8,1,1,3,2,2,6,0,71,,,,,,,,,,,,,,,,,,,,
,,,,,71,2020-07-04_19h27.40.230,retriever_ti,2020.1.3,Win32,60,Chrome,1366,768,,,,,,,,,,,,,,,,,1,,,,,,,,,,,,,,,,,,,,,,,,,,,966.61431,36,right,1.015855,satellite_dish,1,10,-1,0,0,966.635555,966.635555,969.1257,0,35,35,35,1,36,2,1,phone       ,satellite_dish,html/resources/sequences_IDs/B/09_phone.jpg,html/resources/sequences_IDs/A/10_satellite_dish.jpg,9,10,4,2,4,2,7,8,0,71,,,,,,,,,,,,,,,,,,,,
,,,,,71,2020-07-04_19h27.40.230,retriever_ti,2020.1.3,Win32,60,Chrome,1366,768,,,,,,,,,,,,,,,,,1,,,,,,,,,,,,,,,,,,,,,,,,,,,970.230425,37,right,1.069365,sport_tshirt,6,7,4,1,3,970.24987,970.24987,972.747125,0,36,36,36,1,37,2,6,phone       ,sport_tshirt,html/resources/sequences_IDs/B/09_phone.jpg,html/resources/sequences_IDs/B/07_sport_tshirt.jpg,9,7,4,2,3,2,7,5,0,71,,,,,,,,,,,,,,,,,,,,
,,,,,71,2020-07-04_19h27.40.230,retriever_ti,2020.1.3,Win32,60,Chrome,1366,768,,,,,,,,,,,,,,,,,1,,,,,,,,,,,,,,,,,,,,,,,,,,,973.363625,38,left,1.00356,camel         ,7,3,5,1,3,973.402915,973.402915,975.884105,0,37,37,37,1,38,7,2,camel         ,phone       ,html/resources/sequences_IDs/A/03_camel.jpg,html/resources/sequences_IDs/B/09_phone.jpg,3,9,1,1,4,2,2,7,0,71,,,,,,,,,,,,,,,,,,,,
,,,,,71,2020-07-04_19h27.40.230,retriever_ti,2020.1.3,Win32,60,Chrome,1366,768,,,,,,,,,,,,,,,,,1,,,,,,,,,,,,,,,,,,,,,,,,,,,976.51013,39,left,1.154905,dolphin     ,8,2,7,1,3,976.54134,976.54134,979.03904,0,38,38,38,1,39,8,1,dolphin     ,satellite_dish,html/resources/sequences_IDs/B/02_dolphin.jpg,html/resources/sequences_IDs/A/10_satellite_dish.jpg,2,10,1,1,4,2,1,8,0,71,,,,,,,,,,,,,,,,,,,,
,,,,,71,2020-07-04_19h27.40.230,retriever_ti,2020.1.3,Win32,60,Chrome,1366,768,,,,,,,,,,,,,,,,,1,,,,,,,,,,,,,,,,,,,,,,,,,,,979.655965,40,left,1.071215,phone       ,2,9,1,1,0,979.691275,979.691275,982.185135,0,39,39,39,1,40,2,1,phone       ,satellite_dish,html/resources/sequences_IDs/B/09_phone.jpg,html/resources/sequences_IDs/A/10_satellite_dish.jpg,9,10,4,2,4,2,7,8,1,71,,,,,,,,,,,,,,,,,,,,
,,,,,71,2020-07-04_19h27.40.230,retriever_ti,2020.1.3,Win32,60,Chrome,1366,768,,,,,,,,,,,,,,,,,1,,,,,,,,,,,,,,,,,,,,,,,,,,,983.278825,41,left,0.90255,dolphin     ,8,2,2,1,3,983.297995,983.297995,985.79063,0,40,40,40,1,41,8,6,dolphin     ,sport_tshirt,html/resources/sequences_IDs/B/02_dolphin.jpg,html/resources/sequences_IDs/B/07_sport_tshirt.jpg,2,7,1,1,3,2,1,5,0,71,,,,,,,,,,,,,,,,,,,,
,,,,,71,2020-07-04_19h27.40.230,retriever_ti,2020.1.3,Win32,60,Chrome,1366,768,,,,,,,,,,,,,,,,,1,,,,,,,,,,,,,,,,,,,,,,,,,,,986.41046,42,right,1.053155,holdfast    ,4,4,2,1,3,986.430105,986.430105,988.91327,0,41,41,41,1,42,2,4,phone       ,holdfast    ,html/resources/sequences_IDs/B/09_phone.jpg,html/resources/sequences_IDs/B/04_holdfast.jpg,9,4,4,2,2,1,7,3,0,71,,,,,,,,,,,,,,,,,,,,
,,,,,71,2020-07-04_19h27.40.230,retriever_ti,2020.1.3,Win32,60,Chrome,1366,768,,,,,,,,,,,,,,,,,1,,,,,,,,,,,,,,,,,,,,,,,,,,,989.520635,43,left,1.309395,hat           ,5,8,2,1,3,989.539775,989.539775,992.0504,0,42,42,42,1,43,5,3,hat           ,peacock       ,html/resources/sequences_IDs/A/08_hat.jpg,html/resources/sequences_IDs/A/05_peacock.jpg,8,5,3,2,2,1,6,4,0,71,,,,,,,,,,,,,,,,,,,,
,,,,,71,2020-07-04_19h27.40.230,retriever_ti,2020.1.3,Win32,60,Chrome,1366,768,,,,,,,,,,,,,,,,,1,,,,,,,,,,,,,,,,,,,,,,,,,,,992.671405,44,right,1.04274,holdfast    ,4,4,3,1,3,992.688045,992.688045,995.17692,0,43,43,43,1,44,1,4,satellite_dish,holdfast    ,html/resources/sequences_IDs/A/10_satellite_dish.jpg,html/resources/sequences_IDs/B/04_holdfast.jpg,10,4,4,2,2,1,8,3,0,71,,,,,,,,,,,,,,,,,,,,
,,,,,71,2020-07-04_19h27.40.230,retriever_ti,2020.1.3,Win32,60,Chrome,1366,768,,,,,,,,,,,,,,,,,1,,,,,,,,,,,,,,,,,,,,,,,,,,,995.796215,45,left,0.86996,camel         ,7,3,6,1,3,995.817945,995.817945,998.306375,0,44,44,44,1,45,7,1,camel         ,satellite_dish,html/resources/sequences_IDs/A/03_camel.jpg,html/resources/sequences_IDs/A/10_satellite_dish.jpg,3,10,1,1,4,2,2,8,0,71,,,,,,,,,,,,,,,,,,,,
,,,,,71,2020-07-04_19h27.40.230,retriever_ti,2020.1.3,Win32,60,Chrome,1366,768,,,,,,,,,,,,,,,,,1,,,,,,,,,,,,,,,,,,,,,,,,,,,998.925315,46,right,1.137545,camel         ,7,3,-1,0,0,998.966755,998.966755,1001.4528,0,45,45,45,1,46,8,7,dolphin     ,camel         ,html/resources/sequences_IDs/B/02_dolphin.jpg,html/resources/sequences_IDs/A/03_camel.jpg,2,3,1,1,1,1,1,2,0,71,,,,,,,,,,,,,,,,,,,,
,,,,,71,2020-07-04_19h27.40.230,retriever_ti,2020.1.3,Win32,60,Chrome,1366,768,,,,,,,,,,,,,,,,,1,,,,,,,,,,,,,,,,,,,,,,,,,,,1002.56323,47,left,1.255155,holdfast    ,4,4,2,1,3,1002.580865,1002.580865,1005.064835,0,46,46,46,1,47,4,2,holdfast    ,phone       ,html/resources/sequences_IDs/B/04_holdfast.jpg,html/resources/sequences_IDs/B/09_phone.jpg,4,9,2,1,4,2,3,7,0,71,,,,,,,,,,,,,,,,,,,,
,,,,,71,2020-07-04_19h27.40.230,retriever_ti,2020.1.3,Win32,60,Chrome,1366,768,,,,,,,,,,,,,,,,,1,,,,,,,,,,,,,,,,,,,,,,,,,,,1005.68471,48,left,0.944755,camel         ,7,3,3,1,3,1005.723075,1005.723075,1008.213435,0,47,47,47,1,48,7,4,camel         ,holdfast    ,html/resources/sequences_IDs/A/03_camel.jpg,html/resources/sequences_IDs/B/04_holdfast.jpg,3,4,1,1,2,1,2,3,0,71,,,,,,,,,,,,,,,,,,,,
,,,,,71,2020-07-04_19h27.40.230,retriever_ti,2020.1.3,Win32,60,Chrome,1366,768,,,,,,,,,,,,,,,,,1,,,,,,,,,,,,,,,,,,,,,,,,,,,1008.816615,49,right,1.03985,sport_tshirt,6,7,5,1,3,1008.83903,1008.83903,1011.336825,0,48,48,48,1,49,1,6,satellite_dish,sport_tshirt,html/resources/sequences_IDs/A/10_satellite_dish.jpg,html/resources/sequences_IDs/B/07_sport_tshirt.jpg,10,7,4,2,3,2,8,5,0,71,,,,,,,,,,,,,,,,,,,,
,,,,,71,2020-07-04_19h27.40.230,retriever_ti,2020.1.3,Win32,60,Chrome,1366,768,,,,,,,,,,,,,,,,,1,,,,,,,,,,,,,,,,,,,,,,,,,,,1011.9455,50,left,1.15724,holdfast    ,4,4,1,1,1,1011.983435,1011.983435,1014.464995,0,49,49,49,1,50,4,3,holdfast    ,peacock       ,html/resources/sequences_IDs/B/04_holdfast.jpg,html/resources/sequences_IDs/A/05_peacock.jpg,4,5,2,1,2,1,3,4,0,71,,,,,,,,,,,,,,,,,,,,
,,,,,71,2020-07-04_19h27.40.230,retriever_ti,2020.1.3,Win32,60,Chrome,1366,768,,,,,,,,,,,,,,,,,1,,,,,,,,,,,,,,,,,,,,,,,,,,,1015.57442,51,right,0.95347,dolphin     ,8,2,7,1,3,1015.593785,1015.593785,1018.08423,0,50,50,50,1,51,1,8,satellite_dish,dolphin     ,html/resources/sequences_IDs/A/10_satellite_dish.jpg,html/resources/sequences_IDs/B/02_dolphin.jpg,10,2,4,2,1,1,8,1,0,71,,,,,,,,,,,,,,,,,,,,
,,,,,71,2020-07-04_19h27.40.230,retriever_ti,2020.1.3,Win32,60,Chrome,1366,768,,,,,,,,,,,,,,,,,1,,,,,,,,,,,,,,,,,,,,,,,,,,,1018.70119,52,left,1.13869,holdfast    ,4,4,-4,0,3,1018.757325,1018.757325,1021.24931,0,51,51,51,1,52,4,8,holdfast    ,dolphin     ,html/resources/sequences_IDs/B/04_holdfast.jpg,html/resources/sequences_IDs/B/02_dolphin.jpg,4,2,2,1,1,1,3,1,0,71,,,,,,,,,,,,,,,,,,,,
,,,,,71,2020-07-04_19h27.40.230,retriever_ti,2020.1.3,Win32,60,Chrome,1366,768,,,,,,,,,,,,,,,,,1,,,,,,,,,,,,,,,,,,,,,,,,,,,1021.86375,53,right,0.844085,camel         ,7,3,1,1,1,1021.886065,1021.886065,1024.369225,0,52,52,52,1,53,6,7,sport_tshirt,camel         ,html/resources/sequences_IDs/B/07_sport_tshirt.jpg,html/resources/sequences_IDs/A/03_camel.jpg,7,3,3,2,1,1,5,2,0,71,,,,,,,,,,,,,,,,,,,,
,,,,,71,2020-07-04_19h27.40.230,retriever_ti,2020.1.3,Win32,60,Chrome,1366,768,,,,,,,,,,,,,,,,,1,,,,,,,,,,,,,,,,,,,,,,,,,,,1025.468035,54,right,1.2926,camel         ,7,3,-1,0,1,1025.501375,1025.501375,1027.988865,0,53,53,53,1,54,8,7,dolphin     ,camel         ,html/resources/sequences_IDs/B/02_dolphin.jpg,html/resources/sequences_IDs/A/03_camel.jpg,2,3,1,1,1,1,1,2,1,71,,,,,,,,,,,,,,,,,,,,
,,,,,71,2020-07-04_19h27.40.230,retriever_ti,2020.1.3,Win32,60,Chrome,1366,768,,,,,,,,,,,,,,,,,1,,,,,,,,,,,,,,,,,,,,,,,,,,,1029.09097,55,left,1.39097,peacock       ,3,5,1,1,1,1029.111095,1029.111095,1031.601215,0,54,54,54,1,55,3,2,peacock       ,phone       ,html/resources/sequences_IDs/A/05_peacock.jpg,html/resources/sequences_IDs/B/09_phone.jpg,5,9,2,1,4,2,4,7,0,71,,,,,,,,,,,,,,,,,,,,
,,,,,71,2020-07-04_19h27.40.230,retriever_ti,2020.1.3,Win32,60,Chrome,1366,768,,,,,,,,,,,,,,,,,1,,,,,,,,,,,,,,,,,,,,,,,,,,,1032.716605,56,right,1.22826,peacock       ,3,5,-4,0,3,1032.736225,1032.736225,1035.22893,0,55,55,55,1,56,7,3,camel         ,peacock       ,html/resources/sequences_IDs/A/03_camel.jpg,html/resources/sequences_IDs/A/05_peacock.jpg,3,5,1,1,2,1,2,4,0,71,,,,,,,,,,,,,,,,,,,,
,,,,,71,2020-07-04_19h27.40.230,retriever_ti,2020.1.3,Win32,60,Chrome,1366,768,,,,,,,,,,,,,,,,,1,,,,,,,,,,,,,,,,,,,,,,,,,,,1035.848165,57,NaN,NaN,No_response,NaN,NaN,NaN,2,2,1035.870045,1035.870045,1038.36021,0,56,56,56,1,57,2,8,phone       ,dolphin     ,html/resources/sequences_IDs/B/09_phone.jpg,html/resources/sequences_IDs/B/02_dolphin.jpg,9,2,4,2,1,1,7,1,0,71,,,,,,,,,,,,,,,,,,,,
,,,,,71,2020-07-04_19h27.40.230,retriever_ti,2020.1.3,Win32,60,Chrome,1366,768,,,,,,,,,,,,,,,,,1,,,,,,,,,,,,,,,,,,,,,,,,,,,1039.46291,58,left,0.869195,holdfast    ,4,4,1,1,1,1039.4992,1039.4992,1041.982245,0,57,57,57,1,58,4,3,holdfast    ,peacock       ,html/resources/sequences_IDs/B/04_holdfast.jpg,html/resources/sequences_IDs/A/05_peacock.jpg,4,5,2,1,2,1,3,4,0,71,,,,,,,,,,,,,,,,,,,,
,,,,,71,2020-07-04_19h27.40.230,retriever_ti,2020.1.3,Win32,60,Chrome,1366,768,,,,,,,,,,,,,,,,,1,,,,,,,,,,,,,,,,,,,,,,,,,,,1043.074005,59,left,0.852015,phone       ,2,9,1,1,1,1043.128265,1043.128265,1045.60359,0,58,58,58,1,59,2,1,phone       ,satellite_dish,html/resources/sequences_IDs/B/09_phone.jpg,html/resources/sequences_IDs/A/10_satellite_dish.jpg,9,10,4,2,4,2,7,8,0,71,,,,,,,,,,,,,,,,,,,,
,,,,,71,2020-07-04_19h27.40.230,retriever_ti,2020.1.3,Win32,60,Chrome,1366,768,,,,,,,,,,,,,,,,,1,,,,,,,,,,,,,,,,,,,,,,,,,,,1046.708695,60,right,1.18924,phone       ,2,9,-4,0,3,1046.725995,1046.725995,1049.21455,0,59,59,59,1,60,6,2,sport_tshirt,phone       ,html/resources/sequences_IDs/B/07_sport_tshirt.jpg,html/resources/sequences_IDs/B/09_phone.jpg,7,9,3,2,4,2,5,7,0,71,,,,,,,,,,,,,,,,,,,,
,,,,,71,2020-07-04_19h27.40.230,retriever_ti,2020.1.3,Win32,60,Chrome,1366,768,,,,,,,,,,,,,,,,,1,,,,,,,,,,,,,,,,,,,,,,,,,,,1049.833405,61,right,1.244035,hat           ,5,8,-1,0,0,1049.86947,1049.86947,1052.360075,0,60,60,60,1,61,6,5,sport_tshirt,hat           ,html/resources/sequences_IDs/B/07_sport_tshirt.jpg,html/resources/sequences_IDs/A/08_hat.jpg,7,8,3,2,3,2,5,6,0,71,,,,,,,,,,,,,,,,,,,,
,,,,,71,2020-07-04_19h27.40.230,retriever_ti,2020.1.3,Win32,60,Chrome,1366,768,,,,,,,,,,,,,,,,,1,,,,,,,,,,,,,,,,,,,,,,,,,,,1053.46111,62,left,1.129145,camel         ,7,3,-1,0,0,1053.49714,1053.49714,1055.984425,0,61,61,61,1,62,7,8,camel         ,dolphin     ,html/resources/sequences_IDs/A/03_camel.jpg,html/resources/sequences_IDs/B/02_dolphin.jpg,3,2,1,1,1,1,2,1,0,71,,,,,,,,,,,,,,,,,,,,
,,,,,71,2020-07-04_19h27.40.230,retriever_ti,2020.1.3,Win32,60,Chrome,1366,768,,,,,,,,,,,,,,,,,1,,,,,,,,,,,,,,,,,,,,,,,,,,,1057.091065,63,left,0.940695,peacock       ,3,5,1,1,0,1057.13133,1057.13133,1059.625825,0,62,62,62,1,63,3,2,peacock       ,phone       ,html/resources/sequences_IDs/A/05_peacock.jpg,html/resources/sequences_IDs/B/09_phone.jpg,5,9,2,1,4,2,4,7,1,71,,,,,,,,,,,,,,,,,,,,
,,,,,71,2020-07-04_19h27.40.230,retriever_ti,2020.1.3,Win32,60,Chrome,1366,768,,,,,,,,,,,,,,,,,1,,,,,,,,,,,,,,,,,,,,,,,,,,,1060.72417,64,left,0.964875,camel         ,7,3,1,1,0,1060.76428,1060.76428,1063.22989,0,63,63,63,1,64,7,6,camel         ,sport_tshirt,html/resources/sequences_IDs/A/03_camel.jpg,html/resources/sequences_IDs/B/07_sport_tshirt.jpg,3,7,1,1,3,2,2,5,1,71,,,,,,,,,,,,,,,,,,,,
,,,,,71,2020-07-04_19h27.40.230,retriever_ti,2020.1.3,Win32,60,Chrome,1366,768,,,,,,,,,,,,,,,,,1,,,,,,,,,,,,,,,,,,,,,,,,,,,1064.335065,65,NaN,NaN,No_response,NaN,NaN,NaN,2,2,1064.458455,1064.458455,1067.25467,0,64,64,64,1,65,5,7,hat           ,camel         ,html/resources/sequences_IDs/A/08_hat.jpg,html/resources/sequences_IDs/A/03_camel.jpg,8,3,3,2,1,1,6,2,0,71,,,,,,,,,,,,,,,,,,,,
,,,,,71,2020-07-04_19h27.40.230,retriever_ti,2020.1.3,Win32,60,Chrome,1366,768,,,,,,,,,,,,,,,,,1,,,,,,,,,,,,,,,,,,,,,,,,,,,1068.36346,66,right,1.53509,holdfast    ,4,4,-1,0,0,1068.39888,1068.39888,1070.887055,0,65,65,65,1,66,5,4,hat           ,holdfast    ,html/resources/sequences_IDs/A/08_hat.jpg,html/resources/sequences_IDs/B/04_holdfast.jpg,8,4,3,2,2,1,6,3,0,71,,,,,,,,,,,,,,,,,,,,
,,,,,71,2020-07-04_19h27.40.230,retriever_ti,2020.1.3,Win32,60,Chrome,1366,768,,,,,,,,,,,,,,,,,1,,,,,,,,,,,,,,,,,,,,,,,,,,,1071.978585,67,right,1.117775,phone       ,2,9,-1,0,0,1072.01319,1072.01319,1074.502475,0,66,66,66,1,67,3,2,peacock       ,phone       ,html/resources/sequences_IDs/A/05_peacock.jpg,html/resources/sequences_IDs/B/09_phone.jpg,5,9,2,1,4,2,4,7,0,71,,,,,,,,,,,,,,,,,,,,
,,,,,71,2020-07-04_19h27.40.230,retriever_ti,2020.1.3,Win32,60,Chrome,1366,768,,,,,,,,,,,,,,,,,1,,,,,,,,,,,,,,,,,,,,,,,,,,,1075.60147,68,left,1.117935,phone       ,2,9,-3,0,3,1075.62065,1075.62065,1078.10402,0,67,67,67,1,68,2,5,phone       ,hat           ,html/resources/sequences_IDs/B/09_phone.jpg,html/resources/sequences_IDs/A/08_hat.jpg,9,8,4,2,3,2,7,6,0,71,,,,,,,,,,,,,,,,,,,,
,,,,,71,2020-07-04_19h27.40.230,retriever_ti,2020.1.3,Win32,60,Chrome,1366,768,,,,,,,,,,,,,,,,,1,,,,,,,,,,,,,,,,,,,,,,,,,,,1078.71357,69,left,1.028305,dolphin     ,8,2,6,1,3,1078.75274,1078.75274,1081.24607,0,68,68,68,1,69,8,2,dolphin     ,phone       ,html/resources/sequences_IDs/B/02_dolphin.jpg,html/resources/sequences_IDs/B/09_phone.jpg,2,9,1,1,4,2,1,7,0,71,,,,,,,,,,,,,,,,,,,,
,,,,,71,2020-07-04_19h27.40.230,retriever_ti,2020.1.3,Win32,60,Chrome,1366,768,,,,,,,,,,,,,,,,,1,,,,,,,,,,,,,,,,,,,,,,,,,,,1081.86043,70,right,1.200775,dolphin     ,8,2,2,1,3,1081.89915,1081.89915,1084.39512,0,69,69,69,1,70,6,8,sport_tshirt,dolphin     ,html/resources/sequences_IDs/B/07_sport_tshirt.jpg,html/resources/sequences_IDs/B/02_dolphin.jpg,7,2,3,2,1,1,5,1,0,71,,,,,,,,,,,,,,,,,,,,
,,,,,71,2020-07-04_19h27.40.230,retriever_ti,2020.1.3,Win32,60,Chrome,1366,768,,,,,,,,,,,,,,,,,1,,,,,,,,,,,,,,,,,,,,,,,,,,,1085.006165,71,NaN,NaN,No_response,NaN,NaN,NaN,2,2,1085.02714,1085.02714,1087.50923,0,70,70,70,1,71,5,6,hat           ,sport_tshirt,html/resources/sequences_IDs/A/08_hat.jpg,html/resources/sequences_IDs/B/07_sport_tshirt.jpg,8,7,3,2,3,2,6,5,0,71,,,,,,,,,,,,,,,,,,,,
,,,,,71,2020-07-04_19h27.40.230,retriever_ti,2020.1.3,Win32,60,Chrome,1366,768,,,,,,,,,,,,,,,,,1,,,,,,,,,,,,,,,,,,,,,,,,,,,1088.603695,72,left,0.93343,holdfast    ,4,4,1,1,0,1088.624205,1088.624205,1091.1163,0,71,71,71,1,72,4,3,holdfast    ,peacock       ,html/resources/sequences_IDs/B/04_holdfast.jpg,html/resources/sequences_IDs/A/05_peacock.jpg,4,5,2,1,2,1,3,4,1,71,,,,,,,,,,,,,,,,,,,,
,,,,,71,2020-07-04_19h27.40.230,retriever_ti,2020.1.3,Win32,60,Chrome,1366,768,,,,,,,,,,,,,,,,,1,,,,,,,,,,,,,,,,,,,,,,,,,,,1092.21402,73,right,0.78058,peacock       ,3,5,2,1,3,1092.252165,1092.252165,1094.74204,0,72,72,72,1,73,1,3,satellite_dish,peacock       ,html/resources/sequences_IDs/A/10_satellite_dish.jpg,html/resources/sequences_IDs/A/05_peacock.jpg,10,5,4,2,2,1,8,4,0,71,,,,,,,,,,,,,,,,,,,,
,,,,,71,2020-07-04_19h27.40.230,retriever_ti,2020.1.3,Win32,60,Chrome,1366,768,,,,,,,,,,,,,,,,,1,,,,,,,,,,,,,,,,,,,,,,,,,,,1095.35948,74,left,0.772415,holdfast    ,4,4,-1,0,0,1095.37144,1095.37144,1097.88014,0,73,73,73,1,74,4,5,holdfast    ,hat           ,html/resources/sequences_IDs/B/04_holdfast.jpg,html/resources/sequences_IDs/A/08_hat.jpg,4,8,2,1,3,2,3,6,0,71,,,,,,,,,,,,,,,,,,,,
,,,,,71,2020-07-04_19h27.40.230,retriever_ti,2020.1.3,Win32,60,Chrome,1366,768,,,,,,,,,,,,,,,,,1,,,,,,,,,,,,,,,,,,,,,,,,,,,1098.97371,75,left,0.681035,holdfast    ,4,4,3,1,3,1098.99185,1098.99185,1101.474605,0,74,74,74,1,75,4,1,holdfast    ,satellite_dish,html/resources/sequences_IDs/B/04_holdfast.jpg,html/resources/sequences_IDs/A/10_satellite_dish.jpg,4,10,2,1,4,2,3,8,0,71,,,,,,,,,,,,,,,,,,,,
,,,,,71,2020-07-04_19h27.40.230,retriever_ti,2020.1.3,Win32,60,Chrome,1366,768,,,,,,,,,,,,,,,,,1,,,,,,,,,,,,,,,,,,,,,,,,,,,1102.086345,76,left,1.0554,satellite_dish,1,10,-1,0,0,1102.14062,1102.14062,1104.619285,0,75,75,75,1,76,1,2,satellite_dish,phone       ,html/resources/sequences_IDs/A/10_satellite_dish.jpg,html/resources/sequences_IDs/B/09_phone.jpg,10,9,4,2,4,2,8,7,0,71,,,,,,,,,,,,,,,,,,,,
,,,,,71,2020-07-04_19h27.40.230,retriever_ti,2020.1.3,Win32,60,Chrome,1366,768,,,,,,,,,,,,,,,,,1,,,,,,,,,,,,,,,,,,,,,,,,,,,1105.71688,77,left,1.1895,peacock       ,3,5,-5,0,3,1105.737545,1105.737545,1108.22979,0,76,76,76,1,77,3,8,peacock       ,dolphin     ,html/resources/sequences_IDs/A/05_peacock.jpg,html/resources/sequences_IDs/B/02_dolphin.jpg,5,2,2,1,1,1,4,1,0,71,,,,,,,,,,,,,,,,,,,,
,,,,,71,2020-07-04_19h27.40.230,retriever_ti,2020.1.3,Win32,60,Chrome,1366,768,,,,,,,,,,,,,,,,,,,,,,,,,,,,,,,,,,,,,0,9.464145,,,,,,,,,,,,,,,,,,,,,,,,,,,,,,,,,,,,,,,,,0,0,0,0,1,,,,,,,,,,,,,,,
,,,,,71,2020-07-04_19h27.40.230,retriever_ti,2020.1.3,Win32,60,Chrome,1366,768,,,,,,,,,,,,,,,,,2,,,,,,,,,,,,,,,,,,,,,,,,,,,1157.1203,78,left,0.895915,holdfast    ,4,4,-4,0,3,1157.20553,1157.20553,1159.665635,0,0,0,0,1,78,4,8,holdfast    ,dolphin     ,html/resources/sequences_IDs/B/04_holdfast.jpg,html/resources/sequences_IDs/B/02_dolphin.jpg,4,2,2,1,1,1,3,1,0,71,,,,,,,,,,,,,,,,,,,,
,,,,,71,2020-07-04_19h27.40.230,retriever_ti,2020.1.3,Win32,60,Chrome,1366,768,,,,,,,,,,,,,,,,,2,,,,,,,,,,,,,,,,,,,,,,,,,,,1160.29894,79,right,0.783425,camel         ,7,3,1,1,1,1160.32728,1160.32728,1162.81147,0,1,1,1,1,79,6,7,sport_tshirt,camel         ,html/resources/sequences_IDs/B/07_sport_tshirt.jpg,html/resources/sequences_IDs/A/03_camel.jpg,7,3,3,2,1,1,5,2,0,71,,,,,,,,,,,,,,,,,,,,
,,,,,71,2020-07-04_19h27.40.230,retriever_ti,2020.1.3,Win32,60,Chrome,1366,768,,,,,,,,,,,,,,,,,2,,,,,,,,,,,,,,,,,,,,,,,,,,,1163.90341,80,left,0.831855,hat           ,5,8,-1,0,0,1163.92349,1163.92349,1166.413635,0,2,2,2,1,80,5,6,hat           ,sport_tshirt,html/resources/sequences_IDs/A/08_hat.jpg,html/resources/sequences_IDs/B/07_sport_tshirt.jpg,8,7,3,2,3,2,6,5,0,71,,,,,,,,,,,,,,,,,,,,
,,,,,71,2020-07-04_19h27.40.230,retriever_ti,2020.1.3,Win32,60,Chrome,1366,768,,,,,,,,,,,,,,,,,2,,,,,,,,,,,,,,,,,,,,,,,,,,,1167.506375,81,right,1.174725,holdfast    ,4,4,-2,0,3,1167.526045,1167.526045,1170.0199,0,3,3,3,1,81,6,4,sport_tshirt,holdfast    ,html/resources/sequences_IDs/B/07_sport_tshirt.jpg,html/resources/sequences_IDs/B/04_holdfast.jpg,7,4,3,2,2,1,5,3,0,71,,,,,,,,,,,,,,,,,,,,
,,,,,71,2020-07-04_19h27.40.230,retriever_ti,2020.1.3,Win32,60,Chrome,1366,768,,,,,,,,,,,,,,,,,2,,,,,,,,,,,,,,,,,,,,,,,,,,,1170.62741,82,left,1.16563,satellite_dish,1,10,-2,0,3,1170.661845,1170.661845,1173.147665,0,4,4,4,1,82,1,3,satellite_dish,peacock       ,html/resources/sequences_IDs/A/10_satellite_dish.jpg,html/resources/sequences_IDs/A/05_peacock.jpg,10,5,4,2,2,1,8,4,0,71,,,,,,,,,,,,,,,,,,,,
,,,,,71,2020-07-04_19h27.40.230,retriever_ti,2020.1.3,Win32,60,Chrome,1366,768,,,,,,,,,,,,,,,,,2,,,,,,,,,,,,,,,,,,,,,,,,,,,1173.767745,83,left,0.79347,dolphin     ,8,2,3,1,3,1173.7887,1173.7887,1176.26992,0,5,5,5,1,83,8,5,dolphin     ,hat           ,html/resources/sequences_IDs/B/02_dolphin.jpg,html/resources/sequences_IDs/A/08_hat.jpg,2,8,1,1,3,2,1,6,0,71,,,,,,,,,,,,,,,,,,,,
,,,,,71,2020-07-04_19h27.40.230,retriever_ti,2020.1.3,Win32,60,Chrome,1366,768,,,,,,,,,,,,,,,,,2,,,,,,,,,,,,,,,,,,,,,,,,,,,1176.88237,84,left,1.25219,satellite_dish,1,10,-5,0,3,1176.90058,1176.90058,1179.389735,0,6,6,6,1,84,1,6,satellite_dish,sport_tshirt,html/resources/sequences_IDs/A/10_satellite_dish.jpg,html/resources/sequences_IDs/B/07_sport_tshirt.jpg,10,7,4,2,3,2,8,5,0,71,,,,,,,,,,,,,,,,,,,,
,,,,,71,2020-07-04_19h27.40.230,retriever_ti,2020.1.3,Win32,60,Chrome,1366,768,,,,,,,,,,,,,,,,,2,,,,,,,,,,,,,,,,,,,,,,,,,,,1180.009565,85,right,0.872635,camel         ,7,3,-1,0,0,1180.032185,1180.032185,1182.5231,0,7,7,7,1,85,8,7,dolphin     ,camel         ,html/resources/sequences_IDs/B/02_dolphin.jpg,html/resources/sequences_IDs/A/03_camel.jpg,2,3,1,1,1,1,1,2,0,71,,,,,,,,,,,,,,,,,,,,
,,,,,71,2020-07-04_19h27.40.230,retriever_ti,2020.1.3,Win32,60,Chrome,1366,768,,,,,,,,,,,,,,,,,2,,,,,,,,,,,,,,,,,,,,,,,,,,,1183.621765,86,left,1.078245,phone       ,2,9,-4,0,3,1183.63918,1183.63918,1186.137515,0,8,8,8,1,86,2,6,phone       ,sport_tshirt,html/resources/sequences_IDs/B/09_phone.jpg,html/resources/sequences_IDs/B/07_sport_tshirt.jpg,9,7,4,2,3,2,7,5,0,71,,,,,,,,,,,,,,,,,,,,
,,,,,71,2020-07-04_19h27.40.230,retriever_ti,2020.1.3,Win32,60,Chrome,1366,768,,,,,,,,,,,,,,,,,2,,,,,,,,,,,,,,,,,,,,,,,,,,,1186.75368,87,left,1.030875,hat           ,5,8,3,1,3,1186.773185,1186.773185,1189.26337,0,9,9,9,1,87,5,2,hat           ,phone       ,html/resources/sequences_IDs/A/08_hat.jpg,html/resources/sequences_IDs/B/09_phone.jpg,8,9,3,2,4,2,6,7,0,71,,,,,,,,,,,,,,,,,,,,
,,,,,71,2020-07-04_19h27.40.230,retriever_ti,2020.1.3,Win32,60,Chrome,1366,768,,,,,,,,,,,,,,,,,2,,,,,,,,,,,,,,,,,,,,,,,,,,,1189.871365,88,left,0.841375,dolphin     ,8,2,6,1,3,1189.902265,1189.902265,1192.392295,0,10,10,10,1,88,8,2,dolphin     ,phone       ,html/resources/sequences_IDs/B/02_dolphin.jpg,html/resources/sequences_IDs/B/09_phone.jpg,2,9,1,1,4,2,1,7,0,71,,,,,,,,,,,,,,,,,,,,
,,,,,71,2020-07-04_19h27.40.230,retriever_ti,2020.1.3,Win32,60,Chrome,1366,768,,,,,,,,,,,,,,,,,2,,,,,,,,,,,,,,,,,,,,,,,,,,,1193.013385,89,right,0.841805,hat           ,5,8,4,1,3,1193.04998,1193.04998,1195.537845,0,11,11,11,1,89,1,5,satellite_dish,hat           ,html/resources/sequences_IDs/A/10_satellite_dish.jpg,html/resources/sequences_IDs/A/08_hat.jpg,10,8,4,2,3,2,8,6,0,71,,,,,,,,,,,,,,,,,,,,
,,,,,71,2020-07-04_19h27.40.230,retriever_ti,2020.1.3,Win32,60,Chrome,1366,768,,,,,,,,,,,,,,,,,2,,,,,,,,,,,,,,,,,,,,,,,,,,,1196.146975,90,right,1.0542,holdfast    ,4,4,1,1,1,1196.184525,1196.184525,1198.669225,0,12,12,12,1,90,3,4,peacock       ,holdfast    ,html/resources/sequences_IDs/A/05_peacock.jpg,html/resources/sequences_IDs/B/04_holdfast.jpg,5,4,2,1,2,1,4,3,0,71,,,,,,,,,,,,,,,,,,,,
,,,,,71,2020-07-04_19h27.40.230,retriever_ti,2020.1.3,Win32,60,Chrome,1366,768,,,,,,,,,,,,,,,,,2,,,,,,,,,,,,,,,,,,,,,,,,,,,1199.769615,91,left,1.22919,camel         ,7,3,-1,0,0,1199.80887,1199.80887,1202.29859,0,13,13,13,1,91,7,8,camel         ,dolphin     ,html/resources/sequences_IDs/A/03_camel.jpg,html/resources/sequences_IDs/B/02_dolphin.jpg,3,2,1,1,1,1,2,1,0,71,,,,,,,,,,,,,,,,,,,,
,,,,,71,2020-07-04_19h27.40.230,retriever_ti,2020.1.3,Win32,60,Chrome,1366,768,,,,,,,,,,,,,,,,,2,,,,,,,,,,,,,,,,,,,,,,,,,,,1203.423785,92,right,1.274685,hat           ,5,8,-1,0,0,1203.44091,1203.44091,1205.926675,0,14,14,14,1,92,6,5,sport_tshirt,hat           ,html/resources/sequences_IDs/B/07_sport_tshirt.jpg,html/resources/sequences_IDs/A/08_hat.jpg,7,8,3,2,3,2,5,6,0,71,,,,,,,,,,,,,,,,,,,,
,,,,,71,2020-07-04_19h27.40.230,retriever_ti,2020.1.3,Win32,60,Chrome,1366,768,,,,,,,,,,,,,,,,,2,,,,,,,,,,,,,,,,,,,,,,,,,,,1207.029305,93,left,0.759005,dolphin     ,8,2,4,1,3,1207.06325,1207.06325,1209.55524,0,15,15,15,1,93,8,4,dolphin     ,holdfast    ,html/resources/sequences_IDs/B/02_dolphin.jpg,html/resources/sequences_IDs/B/04_holdfast.jpg,2,4,1,1,2,1,1,3,0,71,,,,,,,,,,,,,,,,,,,,
,,,,,71,2020-07-04_19h27.40.230,retriever_ti,2020.1.3,Win32,60,Chrome,1366,768,,,,,,,,,,,,,,,,,2,,,,,,,,,,,,,,,,,,,,,,,,,,,1210.18763,94,right,1.109005,phone       ,2,9,1,1,1,1210.19848,1210.19848,1212.69437,0,16,16,16,1,94,1,2,satellite_dish,phone       ,html/resources/sequences_IDs/A/10_satellite_dish.jpg,html/resources/sequences_IDs/B/09_phone.jpg,10,9,4,2,4,2,8,7,0,71,,,,,,,,,,,,,,,,,,,,
,,,,,71,2020-07-04_19h27.40.230,retriever_ti,2020.1.3,Win32,60,Chrome,1366,768,,,,,,,,,,,,,,,,,2,,,,,,,,,,,,,,,,,,,,,,,,,,,1213.789495,95,right,0.87711,camel         ,7,3,6,1,3,1213.807175,1213.807175,1216.29814,0,17,17,17,1,95,1,7,satellite_dish,camel         ,html/resources/sequences_IDs/A/10_satellite_dish.jpg,html/resources/sequences_IDs/A/03_camel.jpg,10,3,4,2,1,1,8,2,0,71,,,,,,,,,,,,,,,,,,,,
,,,,,71,2020-07-04_19h27.40.230,retriever_ti,2020.1.3,Win32,60,Chrome,1366,768,,,,,,,,,,,,,,,,,2,,,,,,,,,,,,,,,,,,,,,,,,,,,1216.915995,96,right,1.246405,satellite_dish,1,10,-5,0,3,1216.955095,1216.955095,1219.44246,0,18,18,18,1,96,6,1,sport_tshirt,satellite_dish,html/resources/sequences_IDs/B/07_sport_tshirt.jpg,html/resources/sequences_IDs/A/10_satellite_dish.jpg,7,10,3,2,4,2,5,8,0,71,,,,,,,,,,,,,,,,,,,,
,,,,,71,2020-07-04_19h27.40.230,retriever_ti,2020.1.3,Win32,60,Chrome,1366,768,,,,,,,,,,,,,,,,,2,,,,,,,,,,,,,,,,,,,,,,,,,,,1220.06162,97,left,0.793435,holdfast    ,4,4,-1,0,0,1220.086995,1220.086995,1222.57346,0,19,19,19,1,97,4,5,holdfast    ,hat           ,html/resources/sequences_IDs/B/04_holdfast.jpg,html/resources/sequences_IDs/A/08_hat.jpg,4,8,2,1,3,2,3,6,0,71,,,,,,,,,,,,,,,,,,,,
,,,,,71,2020-07-04_19h27.40.230,retriever_ti,2020.1.3,Win32,60,Chrome,1366,768,,,,,,,,,,,,,,,,,2,,,,,,,,,,,,,,,,,,,,,,,,,,,1223.66466,98,right,0.916635,hat           ,5,8,2,1,3,1223.68281,1223.68281,1226.169205,0,20,20,20,1,98,3,5,peacock       ,hat           ,html/resources/sequences_IDs/A/05_peacock.jpg,html/resources/sequences_IDs/A/08_hat.jpg,5,8,2,1,3,2,4,6,0,71,,,,,,,,,,,,,,,,,,,,
,,,,,71,2020-07-04_19h27.40.230,retriever_ti,2020.1.3,Win32,60,Chrome,1366,768,,,,,,,,,,,,,,,,,2,,,,,,,,,,,,,,,,,,,,,,,,,,,1226.775975,99,right,0.93065,dolphin     ,8,2,7,1,3,1226.797155,1226.797155,1229.281505,0,21,21,21,1,99,1,8,satellite_dish,dolphin     ,html/resources/sequences_IDs/A/10_satellite_dish.jpg,html/resources/sequences_IDs/B/02_dolphin.jpg,10,2,4,2,1,1,8,1,0,71,,,,,,,,,,,,,,,,,,,,
,,,,,71,2020-07-04_19h27.40.230,retriever_ti,2020.1.3,Win32,60,Chrome,1366,768,,,,,,,,,,,,,,,,,2,,,,,,,,,,,,,,,,,,,,,,,,,,,1229.890125,100,left,1.25228,peacock       ,3,5,1,1,1,1229.908155,1229.908155,1232.39473,0,22,22,22,1,100,3,2,peacock       ,phone       ,html/resources/sequences_IDs/A/05_peacock.jpg,html/resources/sequences_IDs/B/09_phone.jpg,5,9,2,1,4,2,4,7,0,71,,,,,,,,,,,,,,,,,,,,
,,,,,71,2020-07-04_19h27.40.230,retriever_ti,2020.1.3,Win32,60,Chrome,1366,768,,,,,,,,,,,,,,,,,2,,,,,,,,,,,,,,,,,,,,,,,,,,,1233.48797,101,left,1.43788,phone       ,2,9,-1,0,0,1233.50572,1233.50572,1235.99013,0,23,23,23,1,101,2,3,phone       ,peacock       ,html/resources/sequences_IDs/B/09_phone.jpg,html/resources/sequences_IDs/A/05_peacock.jpg,9,5,4,2,2,1,7,4,0,71,,,,,,,,,,,,,,,,,,,,
,,,,,71,2020-07-04_19h27.40.230,retriever_ti,2020.1.3,Win32,60,Chrome,1366,768,,,,,,,,,,,,,,,,,2,,,,,,,,,,,,,,,,,,,,,,,,,,,1237.092125,102,right,1.307275,camel         ,7,3,-1,0,0,1237.11279,1237.11279,1239.597905,0,24,24,24,1,102,8,7,dolphin     ,camel         ,html/resources/sequences_IDs/B/02_dolphin.jpg,html/resources/sequences_IDs/A/03_camel.jpg,2,3,1,1,1,1,1,2,0,71,,,,,,,,,,,,,,,,,,,,
,,,,,71,2020-07-04_19h27.40.230,retriever_ti,2020.1.3,Win32,60,Chrome,1366,768,,,,,,,,,,,,,,,,,2,,,,,,,,,,,,,,,,,,,,,,,,,,,1240.706475,103,right,1.20151,hat           ,5,8,-1,0,0,1240.74492,1240.74492,1243.231955,0,25,25,25,1,103,6,5,sport_tshirt,hat           ,html/resources/sequences_IDs/B/07_sport_tshirt.jpg,html/resources/sequences_IDs/A/08_hat.jpg,7,8,3,2,3,2,5,6,0,71,,,,,,,,,,,,,,,,,,,,
,,,,,71,2020-07-04_19h27.40.230,retriever_ti,2020.1.3,Win32,60,Chrome,1366,768,,,,,,,,,,,,,,,,,2,,,,,,,,,,,,,,,,,,,,,,,,,,,1244.355915,104,right,1.31617,phone       ,2,9,-4,0,3,1244.392575,1244.392575,1247.377605,0,26,26,26,1,104,6,2,sport_tshirt,phone       ,html/resources/sequences_IDs/B/07_sport_tshirt.jpg,html/resources/sequences_IDs/B/09_phone.jpg,7,9,3,2,4,2,5,7,0,71,,,,,,,,,,,,,,,,,,,,
,,,,,71,2020-07-04_19h27.40.230,retriever_ti,2020.1.3,Win32,60,Chrome,1366,768,,,,,,,,,,,,,,,,,2,,,,,,,,,,,,,,,,,,,,,,,,,,,1248.39451,105,left,1.30638,sport_tshirt,6,7,1,1,0,1248.41473,1248.41473,1250.91073,0,27,27,27,1,105,6,5,sport_tshirt,hat           ,html/resources/sequences_IDs/B/07_sport_tshirt.jpg,html/resources/sequences_IDs/A/08_hat.jpg,7,8,3,2,3,2,5,6,1,71,,,,,,,,,,,,,,,,,,,,
,,,,,71,2020-07-04_19h27.40.230,retriever_ti,2020.1.3,Win32,60,Chrome,1366,768,,,,,,,,,,,,,,,,,2,,,,,,,,,,,,,,,,,,,,,,,,,,,1252.00576,106,right,1.17519,dolphin     ,8,2,5,1,3,1252.027445,1252.027445,1254.542425,0,28,28,28,1,106,3,8,peacock       ,dolphin     ,html/resources/sequences_IDs/A/05_peacock.jpg,html/resources/sequences_IDs/B/02_dolphin.jpg,5,2,2,1,1,1,4,1,0,71,,,,,,,,,,,,,,,,,,,,
,,,,,71,2020-07-04_19h27.40.230,retriever_ti,2020.1.3,Win32,60,Chrome,1366,768,,,,,,,,,,,,,,,,,2,,,,,,,,,,,,,,,,,,,,,,,,,,,1255.159915,107,right,1.294255,camel         ,7,3,4,1,3,1255.1925,1255.1925,1257.67498,0,29,29,29,1,107,3,7,peacock       ,camel         ,html/resources/sequences_IDs/A/05_peacock.jpg,html/resources/sequences_IDs/A/03_camel.jpg,5,3,2,1,1,1,4,2,0,71,,,,,,,,,,,,,,,,,,,,
,,,,,71,2020-07-04_19h27.40.230,retriever_ti,2020.1.3,Win32,60,Chrome,1366,768,,,,,,,,,,,,,,,,,2,,,,,,,,,,,,,,,,,,,,,,,,,,,1258.2891,108,right,0.85356,dolphin     ,8,2,2,1,3,1258.309945,1258.309945,1260.80379,0,30,30,30,1,108,6,8,sport_tshirt,dolphin     ,html/resources/sequences_IDs/B/07_sport_tshirt.jpg,html/resources/sequences_IDs/B/02_dolphin.jpg,7,2,3,2,1,1,5,1,0,71,,,,,,,,,,,,,,,,,,,,
,,,,,71,2020-07-04_19h27.40.230,retriever_ti,2020.1.3,Win32,60,Chrome,1366,768,,,,,,,,,,,,,,,,,2,,,,,,,,,,,,,,,,,,,,,,,,,,,1261.41288,109,left,0.86135,holdfast    ,4,4,3,1,3,1261.434125,1261.434125,1263.92587,0,31,31,31,1,109,4,1,holdfast    ,satellite_dish,html/resources/sequences_IDs/B/04_holdfast.jpg,html/resources/sequences_IDs/A/10_satellite_dish.jpg,4,10,2,1,4,2,3,8,0,71,,,,,,,,,,,,,,,,,,,,
,,,,,71,2020-07-04_19h27.40.230,retriever_ti,2020.1.3,Win32,60,Chrome,1366,768,,,,,,,,,,,,,,,,,2,,,,,,,,,,,,,,,,,,,,,,,,,,,1264.54397,110,right,1.1533,dolphin     ,8,2,1,1,1,1264.58098,1264.58098,1267.06957,0,32,32,32,1,110,7,8,camel         ,dolphin     ,html/resources/sequences_IDs/A/03_camel.jpg,html/resources/sequences_IDs/B/02_dolphin.jpg,3,2,1,1,1,1,2,1,0,71,,,,,,,,,,,,,,,,,,,,
,,,,,71,2020-07-04_19h27.40.230,retriever_ti,2020.1.3,Win32,60,Chrome,1366,768,,,,,,,,,,,,,,,,,2,,,,,,,,,,,,,,,,,,,,,,,,,,,1268.1714,111,left,1.120835,peacock       ,3,5,-3,0,3,1268.18978,1268.18978,1270.684265,0,33,33,33,1,111,3,6,peacock       ,sport_tshirt,html/resources/sequences_IDs/A/05_peacock.jpg,html/resources/sequences_IDs/B/07_sport_tshirt.jpg,5,7,2,1,3,2,4,5,0,71,,,,,,,,,,,,,,,,,,,,
,,,,,71,2020-07-04_19h27.40.230,retriever_ti,2020.1.3,Win32,60,Chrome,1366,768,,,,,,,,,,,,,,,,,2,,,,,,,,,,,,,,,,,,,,,,,,,,,1271.29203,112,right,0.82405,camel         ,7,3,5,1,3,1271.322335,1271.322335,1273.811405,0,34,34,34,1,112,2,7,phone       ,camel         ,html/resources/sequences_IDs/B/09_phone.jpg,html/resources/sequences_IDs/A/03_camel.jpg,9,3,4,2,1,1,7,2,0,71,,,,,,,,,,,,,,,,,,,,
,,,,,71,2020-07-04_19h27.40.230,retriever_ti,2020.1.3,Win32,60,Chrome,1366,768,,,,,,,,,,,,,,,,,2,,,,,,,,,,,,,,,,,,,,,,,,,,,1274.42002,113,left,0.78076,holdfast    ,4,4,-2,0,3,1274.439445,1274.439445,1276.930935,0,35,35,35,1,113,4,6,holdfast    ,sport_tshirt,html/resources/sequences_IDs/B/04_holdfast.jpg,html/resources/sequences_IDs/B/07_sport_tshirt.jpg,4,7,2,1,3,2,3,5,0,71,,,,,,,,,,,,,,,,,,,,
,,,,,71,2020-07-04_19h27.40.230,retriever_ti,2020.1.3,Win32,60,Chrome,1366,768,,,,,,,,,,,,,,,,,2,,,,,,,,,,,,,,,,,,,,,,,,,,,1277.54624,114,left,0.833735,camel         ,7,3,2,1,3,1277.567005,1277.567005,1280.054055,0,36,36,36,1,114,7,5,camel         ,hat           ,html/resources/sequences_IDs/A/03_camel.jpg,html/resources/sequences_IDs/A/08_hat.jpg,3,8,1,1,3,2,2,6,0,71,,,,,,,,,,,,,,,,,,,,
,,,,,71,2020-07-04_19h27.40.230,retriever_ti,2020.1.3,Win32,60,Chrome,1366,768,,,,,,,,,,,,,,,,,2,,,,,,,,,,,,,,,,,,,,,,,,,,,1280.672935,115,left,1.048065,camel         ,7,3,5,1,3,1280.69513,1280.69513,1283.183435,0,37,37,37,1,115,7,2,camel         ,phone       ,html/resources/sequences_IDs/A/03_camel.jpg,html/resources/sequences_IDs/B/09_phone.jpg,3,9,1,1,4,2,2,7,0,71,,,,,,,,,,,,,,,,,,,,
,,,,,71,2020-07-04_19h27.40.230,retriever_ti,2020.1.3,Win32,60,Chrome,1366,768,,,,,,,,,,,,,,,,,2,,,,,,,,,,,,,,,,,,,,,,,,,,,1283.80517,116,left,1.30306,phone       ,2,9,1,1,1,1283.84123,1283.84123,1286.329855,0,38,38,38,1,116,2,1,phone       ,satellite_dish,html/resources/sequences_IDs/B/09_phone.jpg,html/resources/sequences_IDs/A/10_satellite_dish.jpg,9,10,4,2,4,2,7,8,0,71,,,,,,,,,,,,,,,,,,,,
,,,,,71,2020-07-04_19h27.40.230,retriever_ti,2020.1.3,Win32,60,Chrome,1366,768,,,,,,,,,,,,,,,,,2,,,,,,,,,,,,,,,,,,,,,,,,,,,1287.431375,117,right,0.98884,peacock       ,3,5,-3,0,3,1287.4685,1287.4685,1289.969185,0,39,39,39,1,117,6,3,sport_tshirt,peacock       ,html/resources/sequences_IDs/B/07_sport_tshirt.jpg,html/resources/sequences_IDs/A/05_peacock.jpg,7,5,3,2,2,1,5,4,0,71,,,,,,,,,,,,,,,,,,,,
,,,,,71,2020-07-04_19h27.40.230,retriever_ti,2020.1.3,Win32,60,Chrome,1366,768,,,,,,,,,,,,,,,,,2,,,,,,,,,,,,,,,,,,,,,,,,,,,1290.577715,118,right,1.022705,peacock       ,3,5,-2,0,3,1290.600195,1290.600195,1293.10106,0,40,40,40,1,118,5,3,hat           ,peacock       ,html/resources/sequences_IDs/A/08_hat.jpg,html/resources/sequences_IDs/A/05_peacock.jpg,8,5,3,2,2,1,6,4,0,71,,,,,,,,,,,,,,,,,,,,
,,,,,71,2020-07-04_19h27.40.230,retriever_ti,2020.1.3,Win32,60,Chrome,1366,768,,,,,,,,,,,,,,,,,2,,,,,,,,,,,,,,,,,,,,,,,,,,,1293.71174,119,right,0.89988,holdfast    ,4,4,2,1,3,1293.732315,1293.732315,1296.228595,0,41,41,41,1,119,2,4,phone       ,holdfast    ,html/resources/sequences_IDs/B/09_phone.jpg,html/resources/sequences_IDs/B/04_holdfast.jpg,9,4,4,2,2,1,7,3,0,71,,,,,,,,,,,,,,,,,,,,
,,,,,71,2020-07-04_19h27.40.230,retriever_ti,2020.1.3,Win32,60,Chrome,1366,768,,,,,,,,,,,,,,,,,2,,,,,,,,,,,,,,,,,,,,,,,,,,,1296.84298,120,left,0.703715,dolphin     ,8,2,2,1,3,1296.86244,1296.86244,1299.34817,0,42,42,42,1,120,8,6,dolphin     ,sport_tshirt,html/resources/sequences_IDs/B/02_dolphin.jpg,html/resources/sequences_IDs/B/07_sport_tshirt.jpg,2,7,1,1,3,2,1,5,0,71,,,,,,,,,,,,,,,,,,,,
,,,,,71,2020-07-04_19h27.40.230,retriever_ti,2020.1.3,Win32,60,Chrome,1366,768,,,,,,,,,,,,,,,,,2,,,,,,,,,,,,,,,,,,,,,,,,,,,1299.968105,121,left,0.887315,camel         ,7,3,1,1,0,1299.987585,1299.987585,1302.477825,0,43,43,43,1,121,7,6,camel         ,sport_tshirt,html/resources/sequences_IDs/A/03_camel.jpg,html/resources/sequences_IDs/B/07_sport_tshirt.jpg,3,7,1,1,3,2,2,5,1,71,,,,,,,,,,,,,,,,,,,,
,,,,,71,2020-07-04_19h27.40.230,retriever_ti,2020.1.3,Win32,60,Chrome,1366,768,,,,,,,,,,,,,,,,,2,,,,,,,,,,,,,,,,,,,,,,,,,,,1303.58123,122,left,0.79927,peacock       ,3,5,2,1,3,1303.600665,1303.600665,1306.08583,0,44,44,44,1,122,3,1,peacock       ,satellite_dish,html/resources/sequences_IDs/A/05_peacock.jpg,html/resources/sequences_IDs/A/10_satellite_dish.jpg,5,10,2,1,4,2,4,8,0,71,,,,,,,,,,,,,,,,,,,,
,,,,,71,2020-07-04_19h27.40.230,retriever_ti,2020.1.3,Win32,60,Chrome,1366,768,,,,,,,,,,,,,,,,,2,,,,,,,,,,,,,,,,,,,,,,,,,,,1306.696655,123,right,0.75502,holdfast    ,4,4,-1,0,0,1306.75173,1306.75173,1309.22544,0,45,45,45,1,123,5,4,hat           ,holdfast    ,html/resources/sequences_IDs/A/08_hat.jpg,html/resources/sequences_IDs/B/04_holdfast.jpg,8,4,3,2,2,1,6,3,0,71,,,,,,,,,,,,,,,,,,,,
,,,,,71,2020-07-04_19h27.40.230,retriever_ti,2020.1.3,Win32,60,Chrome,1366,768,,,,,,,,,,,,,,,,,2,,,,,,,,,,,,,,,,,,,,,,,,,,,1310.3223,124,left,1.2876,camel         ,7,3,4,1,3,1310.340225,1310.340225,1312.830595,0,46,46,46,1,124,7,3,camel         ,peacock       ,html/resources/sequences_IDs/A/03_camel.jpg,html/resources/sequences_IDs/A/05_peacock.jpg,3,5,1,1,2,1,2,4,0,71,,,,,,,,,,,,,,,,,,,,
,,,,,71,2020-07-04_19h27.40.230,retriever_ti,2020.1.3,Win32,60,Chrome,1366,768,,,,,,,,,,,,,,,,,2,,,,,,,,,,,,,,,,,,,,,,,,,,,1313.4403,125,right,0.73647,camel         ,7,3,1,1,1,1313.47065,1313.47065,1315.96602,0,47,47,47,1,125,6,7,sport_tshirt,camel         ,html/resources/sequences_IDs/B/07_sport_tshirt.jpg,html/resources/sequences_IDs/A/03_camel.jpg,7,3,3,2,1,1,5,2,0,71,,,,,,,,,,,,,,,,,,,,
,,,,,71,2020-07-04_19h27.40.230,retriever_ti,2020.1.3,Win32,60,Chrome,1366,768,,,,,,,,,,,,,,,,,2,,,,,,,,,,,,,,,,,,,,,,,,,,,1317.06095,126,left,0.709475,holdfast    ,4,4,-1,0,1,1317.08093,1317.08093,1319.568005,0,48,48,48,1,126,4,5,holdfast    ,hat           ,html/resources/sequences_IDs/B/04_holdfast.jpg,html/resources/sequences_IDs/A/08_hat.jpg,4,8,2,1,3,2,3,6,1,71,,,,,,,,,,,,,,,,,,,,
,,,,,71,2020-07-04_19h27.40.230,retriever_ti,2020.1.3,Win32,60,Chrome,1366,768,,,,,,,,,,,,,,,,,2,,,,,,,,,,,,,,,,,,,,,,,,,,,1320.671355,127,left,1.358995,phone       ,2,9,-1,0,0,1320.723835,1320.723835,1323.212895,0,49,49,49,1,127,2,3,phone       ,peacock       ,html/resources/sequences_IDs/B/09_phone.jpg,html/resources/sequences_IDs/A/05_peacock.jpg,9,5,4,2,2,1,7,4,0,71,,,,,,,,,,,,,,,,,,,,
,,,,,71,2020-07-04_19h27.40.230,retriever_ti,2020.1.3,Win32,60,Chrome,1366,768,,,,,,,,,,,,,,,,,2,,,,,,,,,,,,,,,,,,,,,,,,,,,1324.308975,128,left,1.60868,phone       ,2,9,-3,0,3,1324.34697,1324.34697,1326.83157,0,50,50,50,1,128,2,5,phone       ,hat           ,html/resources/sequences_IDs/B/09_phone.jpg,html/resources/sequences_IDs/A/08_hat.jpg,9,8,4,2,3,2,7,6,0,71,,,,,,,,,,,,,,,,,,,,
,,,,,71,2020-07-04_19h27.40.230,retriever_ti,2020.1.3,Win32,60,Chrome,1366,768,,,,,,,,,,,,,,,,,2,,,,,,,,,,,,,,,,,,,,,,,,,,,1327.45079,129,left,0.77248,holdfast    ,4,4,-1,0,0,1327.490435,1327.490435,1329.97352,0,51,51,51,1,129,4,5,holdfast    ,hat           ,html/resources/sequences_IDs/B/04_holdfast.jpg,html/resources/sequences_IDs/A/08_hat.jpg,4,8,2,1,3,2,3,6,0,71,,,,,,,,,,,,,,,,,,,,
,,,,,71,2020-07-04_19h27.40.230,retriever_ti,2020.1.3,Win32,60,Chrome,1366,768,,,,,,,,,,,,,,,,,2,,,,,,,,,,,,,,,,,,,,,,,,,,,1331.08575,130,right,0.97004,holdfast    ,4,4,1,1,1,1331.11887,1331.11887,1334.27183,0,52,52,52,1,130,3,4,peacock       ,holdfast    ,html/resources/sequences_IDs/A/05_peacock.jpg,html/resources/sequences_IDs/B/04_holdfast.jpg,5,4,2,1,2,1,4,3,0,71,,,,,,,,,,,,,,,,,,,,
,,,,,71,2020-07-04_19h27.40.230,retriever_ti,2020.1.3,Win32,60,Chrome,1366,768,,,,,,,,,,,,,,,,,2,,,,,,,,,,,,,,,,,,,,,,,,,,,1335.38283,131,left,1.37458,peacock       ,3,5,1,1,0,1335.414475,1335.414475,1337.90878,0,53,53,53,1,131,3,2,peacock       ,phone       ,html/resources/sequences_IDs/A/05_peacock.jpg,html/resources/sequences_IDs/B/09_phone.jpg,5,9,2,1,4,2,4,7,1,71,,,,,,,,,,,,,,,,,,,,
,,,,,71,2020-07-04_19h27.40.230,retriever_ti,2020.1.3,Win32,60,Chrome,1366,768,,,,,,,,,,,,,,,,,2,,,,,,,,,,,,,,,,,,,,,,,,,,,1339.011525,132,right,1.177825,sport_tshirt,6,7,1,1,1,1339.02952,1339.02952,1341.515895,0,54,54,54,1,132,5,6,hat           ,sport_tshirt,html/resources/sequences_IDs/A/08_hat.jpg,html/resources/sequences_IDs/B/07_sport_tshirt.jpg,8,7,3,2,3,2,6,5,0,71,,,,,,,,,,,,,,,,,,,,
,,,,,71,2020-07-04_19h27.40.230,retriever_ti,2020.1.3,Win32,60,Chrome,1366,768,,,,,,,,,,,,,,,,,2,,,,,,,,,,,,,,,,,,,,,,,,,,,1342.61576,133,left,0.750795,dolphin     ,8,2,7,1,3,1342.63437,1342.63437,1345.11957,0,55,55,55,1,133,8,1,dolphin     ,satellite_dish,html/resources/sequences_IDs/B/02_dolphin.jpg,html/resources/sequences_IDs/A/10_satellite_dish.jpg,2,10,1,1,4,2,1,8,0,71,,,,,,,,,,,,,,,,,,,,
,,,,,71,2020-07-04_19h27.40.230,retriever_ti,2020.1.3,Win32,60,Chrome,1366,768,,,,,,,,,,,,,,,,,2,,,,,,,,,,,,,,,,,,,,,,,,,,,1345.72902,134,left,0.819645,holdfast    ,4,4,2,1,3,1345.76684,1345.76684,1348.26075,0,56,56,56,1,134,4,2,holdfast    ,phone       ,html/resources/sequences_IDs/B/04_holdfast.jpg,html/resources/sequences_IDs/B/09_phone.jpg,4,9,2,1,4,2,3,7,0,71,,,,,,,,,,,,,,,,,,,,
,,,,,71,2020-07-04_19h27.40.230,retriever_ti,2020.1.3,Win32,60,Chrome,1366,768,,,,,,,,,,,,,,,,,2,,,,,,,,,,,,,,,,,,,,,,,,,,,1348.88377,135,right,0.798575,dolphin     ,8,2,6,1,3,1348.9139,1348.9139,1351.40442,0,57,57,57,1,135,2,8,phone       ,dolphin     ,html/resources/sequences_IDs/B/09_phone.jpg,html/resources/sequences_IDs/B/02_dolphin.jpg,9,2,4,2,1,1,7,1,0,71,,,,,,,,,,,,,,,,,,,,
,,,,,71,2020-07-04_19h27.40.230,retriever_ti,2020.1.3,Win32,60,Chrome,1366,768,,,,,,,,,,,,,,,,,2,,,,,,,,,,,,,,,,,,,,,,,,,,,1352.02419,136,right,0.762895,holdfast    ,4,4,3,1,3,1352.059645,1352.059645,1354.548385,0,58,58,58,1,136,1,4,satellite_dish,holdfast    ,html/resources/sequences_IDs/A/10_satellite_dish.jpg,html/resources/sequences_IDs/B/04_holdfast.jpg,10,4,4,2,2,1,8,3,0,71,,,,,,,,,,,,,,,,,,,,
,,,,,71,2020-07-04_19h27.40.230,retriever_ti,2020.1.3,Win32,60,Chrome,1366,768,,,,,,,,,,,,,,,,,2,,,,,,,,,,,,,,,,,,,,,,,,,,,1355.152885,137,right,1.382215,holdfast    ,4,4,-3,0,3,1355.17369,1355.17369,1357.661695,0,59,59,59,1,137,7,4,camel         ,holdfast    ,html/resources/sequences_IDs/A/03_camel.jpg,html/resources/sequences_IDs/B/04_holdfast.jpg,3,4,1,1,2,1,2,3,0,71,,,,,,,,,,,,,,,,,,,,
,,,,,71,2020-07-04_19h27.40.230,retriever_ti,2020.1.3,Win32,60,Chrome,1366,768,,,,,,,,,,,,,,,,,2,,,,,,,,,,,,,,,,,,,,,,,,,,,1358.283615,138,right,0.91916,holdfast    ,4,4,-1,0,0,1358.302665,1358.302665,1360.78316,0,60,60,60,1,138,5,4,hat           ,holdfast    ,html/resources/sequences_IDs/A/08_hat.jpg,html/resources/sequences_IDs/B/04_holdfast.jpg,8,4,3,2,2,1,6,3,0,71,,,,,,,,,,,,,,,,,,,,
,,,,,71,2020-07-04_19h27.40.230,retriever_ti,2020.1.3,Win32,60,Chrome,1366,768,,,,,,,,,,,,,,,,,2,,,,,,,,,,,,,,,,,,,,,,,,,,,1361.878015,139,right,0.760205,camel         ,7,3,2,1,3,1361.915395,1361.915395,1364.405325,0,61,61,61,1,139,5,7,hat           ,camel         ,html/resources/sequences_IDs/A/08_hat.jpg,html/resources/sequences_IDs/A/03_camel.jpg,8,3,3,2,1,1,6,2,0,71,,,,,,,,,,,,,,,,,,,,
,,,,,71,2020-07-04_19h27.40.230,retriever_ti,2020.1.3,Win32,60,Chrome,1366,768,,,,,,,,,,,,,,,,,2,,,,,,,,,,,,,,,,,,,,,,,,,,,1365.023185,140,left,0.94974,peacock       ,3,5,1,1,1,1365.046365,1365.046365,1367.533475,0,62,62,62,1,140,3,2,peacock       ,phone       ,html/resources/sequences_IDs/A/05_peacock.jpg,html/resources/sequences_IDs/B/09_phone.jpg,5,9,2,1,4,2,4,7,0,71,,,,,,,,,,,,,,,,,,,,
,,,,,71,2020-07-04_19h27.40.230,retriever_ti,2020.1.3,Win32,60,Chrome,1366,768,,,,,,,,,,,,,,,,,2,,,,,,,,,,,,,,,,,,,,,,,,,,,1368.636695,141,left,0.884235,dolphin     ,8,2,1,1,0,1368.659695,1368.659695,1371.14639,0,63,63,63,1,141,8,7,dolphin     ,camel         ,html/resources/sequences_IDs/B/02_dolphin.jpg,html/resources/sequences_IDs/A/03_camel.jpg,2,3,1,1,1,1,1,2,1,71,,,,,,,,,,,,,,,,,,,,
,,,,,71,2020-07-04_19h27.40.230,retriever_ti,2020.1.3,Win32,60,Chrome,1366,768,,,,,,,,,,,,,,,,,2,,,,,,,,,,,,,,,,,,,,,,,,,,,1372.24908,142,right,0.721585,dolphin     ,8,2,3,1,3,1372.28519,1372.28519,1374.768415,0,64,64,64,1,142,5,8,hat           ,dolphin     ,html/resources/sequences_IDs/A/08_hat.jpg,html/resources/sequences_IDs/B/02_dolphin.jpg,8,2,3,2,1,1,6,1,0,71,,,,,,,,,,,,,,,,,,,,
,,,,,71,2020-07-04_19h27.40.230,retriever_ti,2020.1.3,Win32,60,Chrome,1366,768,,,,,,,,,,,,,,,,,2,,,,,,,,,,,,,,,,,,,,,,,,,,,1375.37763,143,left,1.151545,holdfast    ,4,4,1,1,1,1375.414715,1375.414715,1377.904405,0,65,65,65,1,143,4,3,holdfast    ,peacock       ,html/resources/sequences_IDs/B/04_holdfast.jpg,html/resources/sequences_IDs/A/05_peacock.jpg,4,5,2,1,2,1,3,4,0,71,,,,,,,,,,,,,,,,,,,,
,,,,,71,2020-07-04_19h27.40.230,retriever_ti,2020.1.3,Win32,60,Chrome,1366,768,,,,,,,,,,,,,,,,,2,,,,,,,,,,,,,,,,,,,,,,,,,,,1378.997,144,left,1.019705,hat           ,5,8,4,1,3,1379.01431,1379.01431,1381.50974,0,66,66,66,1,144,5,1,hat           ,satellite_dish,html/resources/sequences_IDs/A/08_hat.jpg,html/resources/sequences_IDs/A/10_satellite_dish.jpg,8,10,3,2,4,2,6,8,0,71,,,,,,,,,,,,,,,,,,,,
,,,,,71,2020-07-04_19h27.40.230,retriever_ti,2020.1.3,Win32,60,Chrome,1366,768,,,,,,,,,,,,,,,,,2,,,,,,,,,,,,,,,,,,,,,,,,,,,1382.120075,145,NaN,NaN,No_response,NaN,NaN,NaN,2,2,1382.13998,1382.13998,1384.630075,0,67,67,67,1,145,4,7,holdfast    ,camel         ,html/resources/sequences_IDs/B/04_holdfast.jpg,html/resources/sequences_IDs/A/03_camel.jpg,4,3,2,1,1,1,3,2,0,71,,,,,,,,,,,,,,,,,,,,
,,,,,71,2020-07-04_19h27.40.230,retriever_ti,2020.1.3,Win32,60,Chrome,1366,768,,,,,,,,,,,,,,,,,2,,,,,,,,,,,,,,,,,,,,,,,,,,,1385.7315,146,right,0.75706,satellite_dish,1,10,-1,0,1,1385.770355,1385.770355,1388.258085,0,68,68,68,1,146,2,1,phone       ,satellite_dish,html/resources/sequences_IDs/B/09_phone.jpg,html/resources/sequences_IDs/A/10_satellite_dish.jpg,9,10,4,2,4,2,7,8,1,71,,,,,,,,,,,,,,,,,,,,
,,,,,71,2020-07-04_19h27.40.230,retriever_ti,2020.1.3,Win32,60,Chrome,1366,768,,,,,,,,,,,,,,,,,2,,,,,,,,,,,,,,,,,,,,,,,,,,,1389.35985,147,left,0.81083,dolphin     ,8,2,5,1,3,1389.396025,1389.396025,1391.886795,0,69,69,69,1,147,8,3,dolphin     ,peacock       ,html/resources/sequences_IDs/B/02_dolphin.jpg,html/resources/sequences_IDs/A/05_peacock.jpg,2,5,1,1,2,1,1,4,0,71,,,,,,,,,,,,,,,,,,,,
,,,,,71,2020-07-04_19h27.40.230,retriever_ti,2020.1.3,Win32,60,Chrome,1366,768,,,,,,,,,,,,,,,,,2,,,,,,,,,,,,,,,,,,,,,,,,,,,1392.508165,148,left,0.963035,holdfast    ,4,4,1,1,1,1392.52853,1392.52853,1395.01653,0,70,70,70,1,148,4,3,holdfast    ,peacock       ,html/resources/sequences_IDs/B/04_holdfast.jpg,html/resources/sequences_IDs/A/05_peacock.jpg,4,5,2,1,2,1,3,4,0,71,,,,,,,,,,,,,,,,,,,,
,,,,,71,2020-07-04_19h27.40.230,retriever_ti,2020.1.3,Win32,60,Chrome,1366,768,,,,,,,,,,,,,,,,,2,,,,,,,,,,,,,,,,,,,,,,,,,,,1396.11823,149,right,0.92261,satellite_dish,1,10,-1,0,0,1396.156655,1396.156655,1398.640535,0,71,71,71,1,149,2,1,phone       ,satellite_dish,html/resources/sequences_IDs/B/09_phone.jpg,html/resources/sequences_IDs/A/10_satellite_dish.jpg,9,10,4,2,4,2,7,8,0,71,,,,,,,,,,,,,,,,,,,,
,,,,,71,2020-07-04_19h27.40.230,retriever_ti,2020.1.3,Win32,60,Chrome,1366,768,,,,,,,,,,,,,,,,,2,,,,,,,,,,,,,,,,,,,,,,,,,,,1399.739775,150,left,0.88533,camel         ,7,3,1,1,1,1399.78655,1399.78655,1402.27507,0,72,72,72,1,150,7,6,camel         ,sport_tshirt,html/resources/sequences_IDs/A/03_camel.jpg,html/resources/sequences_IDs/B/07_sport_tshirt.jpg,3,7,1,1,3,2,2,5,0,71,,,,,,,,,,,,,,,,,,,,
,,,,,71,2020-07-04_19h27.40.230,retriever_ti,2020.1.3,Win32,60,Chrome,1366,768,,,,,,,,,,,,,,,,,2,,,,,,,,,,,,,,,,,,,,,,,,,,,1403.36568,151,left,1.24167,satellite_dish,1,10,-1,0,0,1403.40493,1403.40493,1405.886925,0,73,73,73,1,151,1,2,satellite_dish,phone       ,html/resources/sequences_IDs/A/10_satellite_dish.jpg,html/resources/sequences_IDs/B/09_phone.jpg,10,9,4,2,4,2,8,7,0,71,,,,,,,,,,,,,,,,,,,,
,,,,,71,2020-07-04_19h27.40.230,retriever_ti,2020.1.3,Win32,60,Chrome,1366,768,,,,,,,,,,,,,,,,,2,,,,,,,,,,,,,,,,,,,,,,,,,,,1406.98076,152,left,0.674255,camel         ,7,3,6,1,3,1407.025805,1407.025805,1409.52105,0,74,74,74,1,152,7,1,camel         ,satellite_dish,html/resources/sequences_IDs/A/03_camel.jpg,html/resources/sequences_IDs/A/10_satellite_dish.jpg,3,10,1,1,4,2,2,8,0,71,,,,,,,,,,,,,,,,,,,,
,,,,,71,2020-07-04_19h27.40.230,retriever_ti,2020.1.3,Win32,60,Chrome,1366,768,,,,,,,,,,,,,,,,,2,,,,,,,,,,,,,,,,,,,,,,,,,,,1410.13484,153,left,1.145985,holdfast    ,4,4,1,1,0,1410.15723,1410.15723,1412.64106,0,75,75,75,1,153,4,3,holdfast    ,peacock       ,html/resources/sequences_IDs/B/04_holdfast.jpg,html/resources/sequences_IDs/A/05_peacock.jpg,4,5,2,1,2,1,3,4,1,71,,,,,,,,,,,,,,,,,,,,
,,,,,71,2020-07-04_19h27.40.230,retriever_ti,2020.1.3,Win32,60,Chrome,1366,768,,,,,,,,,,,,,,,,,2,,,,,,,,,,,,,,,,,,,,,,,,,,,1413.73333,154,left,0.738395,camel         ,7,3,1,1,1,1413.75371,1413.75371,1416.242685,0,76,76,76,1,154,7,6,camel         ,sport_tshirt,html/resources/sequences_IDs/A/03_camel.jpg,html/resources/sequences_IDs/B/07_sport_tshirt.jpg,3,7,1,1,3,2,2,5,0,71,,,,,,,,,,,,,,,,,,,,
,,,,,71,2020-07-04_19h27.40.230,retriever_ti,2020.1.3,Win32,60,Chrome,1366,768,,,,,,,,,,,,,,,,,,,,,,,,,,,,,,,,,,,,,0,3.429495,,,,,,,,,,,,,,,,,,,,,,,,,,,,,,,,,,,,,,,,,1,0,1,0,1,,,,,,,,,,,,,,,
,,,,,71,2020-07-04_19h27.40.230,retriever_ti,2020.1.3,Win32,60,Chrome,1366,768,,,,,,,,,,,,,,,,,3,,,,,,,,,,,,,,,,,,,,,,,,,,,1431.92844,155,left,0.649185,holdfast    ,4,4,2,1,3,1431.962485,1431.962485,1434.447665,0,0,0,0,1,155,4,2,holdfast    ,phone       ,html/resources/sequences_IDs/B/04_holdfast.jpg,html/resources/sequences_IDs/B/09_phone.jpg,4,9,2,1,4,2,3,7,0,71,,,,,,,,,,,,,,,,,,,,
,,,,,71,2020-07-04_19h27.40.230,retriever_ti,2020.1.3,Win32,60,Chrome,1366,768,,,,,,,,,,,,,,,,,3,,,,,,,,,,,,,,,,,,,,,,,,,,,1435.05356,156,left,0.72054,dolphin     ,8,2,3,1,3,1435.07753,1435.07753,1437.566575,0,1,1,1,1,156,8,5,dolphin     ,hat           ,html/resources/sequences_IDs/B/02_dolphin.jpg,html/resources/sequences_IDs/A/08_hat.jpg,2,8,1,1,3,2,1,6,0,71,,,,,,,,,,,,,,,,,,,,
,,,,,71,2020-07-04_19h27.40.230,retriever_ti,2020.1.3,Win32,60,Chrome,1366,768,,,,,,,,,,,,,,,,,3,,,,,,,,,,,,,,,,,,,,,,,,,,,1438.187085,157,left,0.577835,dolphin     ,8,2,7,1,3,1438.20776,1438.20776,1440.688335,0,2,2,2,1,157,8,1,dolphin     ,satellite_dish,html/resources/sequences_IDs/B/02_dolphin.jpg,html/resources/sequences_IDs/A/10_satellite_dish.jpg,2,10,1,1,4,2,1,8,0,71,,,,,,,,,,,,,,,,,,,,
,,,,,71,2020-07-04_19h27.40.230,retriever_ti,2020.1.3,Win32,60,Chrome,1366,768,,,,,,,,,,,,,,,,,3,,,,,,,,,,,,,,,,,,,,,,,,,,,1441.30566,158,right,0.87243,holdfast    ,4,4,1,1,1,1441.339955,1441.339955,1443.83594,0,3,3,3,1,158,3,4,peacock       ,holdfast    ,html/resources/sequences_IDs/A/05_peacock.jpg,html/resources/sequences_IDs/B/04_holdfast.jpg,5,4,2,1,2,1,4,3,0,71,,,,,,,,,,,,,,,,,,,,
,,,,,71,2020-07-04_19h27.40.230,retriever_ti,2020.1.3,Win32,60,Chrome,1366,768,,,,,,,,,,,,,,,,,3,,,,,,,,,,,,,,,,,,,,,,,,,,,1444.942675,159,left,0.719255,peacock       ,3,5,-5,0,3,1444.960255,1444.960255,1447.454305,0,4,4,4,1,159,3,8,peacock       ,dolphin     ,html/resources/sequences_IDs/A/05_peacock.jpg,html/resources/sequences_IDs/B/02_dolphin.jpg,5,2,2,1,1,1,4,1,0,71,,,,,,,,,,,,,,,,,,,,
,,,,,71,2020-07-04_19h27.40.230,retriever_ti,2020.1.3,Win32,60,Chrome,1366,768,,,,,,,,,,,,,,,,,3,,,,,,,,,,,,,,,,,,,,,,,,,,,1448.07394,160,right,1.051035,dolphin     ,8,2,1,1,1,1448.095225,1448.095225,1450.59075,0,5,5,5,1,160,7,8,camel         ,dolphin     ,html/resources/sequences_IDs/A/03_camel.jpg,html/resources/sequences_IDs/B/02_dolphin.jpg,3,2,1,1,1,1,2,1,0,71,,,,,,,,,,,,,,,,,,,,
,,,,,71,2020-07-04_19h27.40.230,retriever_ti,2020.1.3,Win32,60,Chrome,1366,768,,,,,,,,,,,,,,,,,3,,,,,,,,,,,,,,,,,,,,,,,,,,,1451.68683,161,left,0.77904,peacock       ,3,5,1,1,1,1451.724635,1451.724635,1454.21258,0,6,6,6,1,161,3,2,peacock       ,phone       ,html/resources/sequences_IDs/A/05_peacock.jpg,html/resources/sequences_IDs/B/09_phone.jpg,5,9,2,1,4,2,4,7,0,71,,,,,,,,,,,,,,,,,,,,
,,,,,71,2020-07-04_19h27.40.230,retriever_ti,2020.1.3,Win32,60,Chrome,1366,768,,,,,,,,,,,,,,,,,3,,,,,,,,,,,,,,,,,,,,,,,,,,,1455.315715,162,right,1.03804,sport_tshirt,6,7,5,1,3,1455.356805,1455.356805,1457.844625,0,7,7,7,1,162,1,6,satellite_dish,sport_tshirt,html/resources/sequences_IDs/A/10_satellite_dish.jpg,html/resources/sequences_IDs/B/07_sport_tshirt.jpg,10,7,4,2,3,2,8,5,0,71,,,,,,,,,,,,,,,,,,,,
,,,,,71,2020-07-04_19h27.40.230,retriever_ti,2020.1.3,Win32,60,Chrome,1366,768,,,,,,,,,,,,,,,,,3,,,,,,,,,,,,,,,,,,,,,,,,,,,1458.449335,163,right,0.97868,hat           ,5,8,2,1,3,1458.50056,1458.50056,1460.98776,0,8,8,8,1,163,3,5,peacock       ,hat           ,html/resources/sequences_IDs/A/05_peacock.jpg,html/resources/sequences_IDs/A/08_hat.jpg,5,8,2,1,3,2,4,6,0,71,,,,,,,,,,,,,,,,,,,,
,,,,,71,2020-07-04_19h27.40.230,retriever_ti,2020.1.3,Win32,60,Chrome,1366,768,,,,,,,,,,,,,,,,,3,,,,,,,,,,,,,,,,,,,,,,,,,,,1461.609545,164,right,1.07669,peacock       ,3,5,-4,0,3,1461.6452,1461.6452,1464.140935,0,9,9,9,1,164,7,3,camel         ,peacock       ,html/resources/sequences_IDs/A/03_camel.jpg,html/resources/sequences_IDs/A/05_peacock.jpg,3,5,1,1,2,1,2,4,0,71,,,,,,,,,,,,,,,,,,,,
,,,,,71,2020-07-04_19h27.40.230,retriever_ti,2020.1.3,Win32,60,Chrome,1366,768,,,,,,,,,,,,,,,,,3,,,,,,,,,,,,,,,,,,,,,,,,,,,1464.753195,165,right,1.052795,hat           ,5,8,3,1,3,1464.774935,1464.774935,1467.25786,0,10,10,10,1,165,2,5,phone       ,hat           ,html/resources/sequences_IDs/B/09_phone.jpg,html/resources/sequences_IDs/A/08_hat.jpg,9,8,4,2,3,2,7,6,0,71,,,,,,,,,,,,,,,,,,,,
,,,,,71,2020-07-04_19h27.40.230,retriever_ti,2020.1.3,Win32,60,Chrome,1366,768,,,,,,,,,,,,,,,,,3,,,,,,,,,,,,,,,,,,,,,,,,,,,1467.87263,166,left,0.85502,sport_tshirt,6,7,5,1,3,1467.890935,1467.890935,1470.38685,0,11,11,11,1,166,6,1,sport_tshirt,satellite_dish,html/resources/sequences_IDs/B/07_sport_tshirt.jpg,html/resources/sequences_IDs/A/10_satellite_dish.jpg,7,10,3,2,4,2,5,8,0,71,,,,,,,,,,,,,,,,,,,,
,,,,,71,2020-07-04_19h27.40.230,retriever_ti,2020.1.3,Win32,60,Chrome,1366,768,,,,,,,,,,,,,,,,,3,,,,,,,,,,,,,,,,,,,,,,,,,,,1470.999885,167,right,0.8359,holdfast    ,4,4,1,1,0,1471.02025,1471.02025,1473.51669,0,12,12,12,1,167,3,4,peacock       ,holdfast    ,html/resources/sequences_IDs/A/05_peacock.jpg,html/resources/sequences_IDs/B/04_holdfast.jpg,5,4,2,1,2,1,4,3,1,71,,,,,,,,,,,,,,,,,,,,
,,,,,71,2020-07-04_19h27.40.230,retriever_ti,2020.1.3,Win32,60,Chrome,1366,768,,,,,,,,,,,,,,,,,3,,,,,,,,,,,,,,,,,,,,,,,,,,,1474.60801,168,left,0.639045,holdfast    ,4,4,-1,0,0,1474.62542,1474.62542,1477.109955,0,13,13,13,1,168,4,5,holdfast    ,hat           ,html/resources/sequences_IDs/B/04_holdfast.jpg,html/resources/sequences_IDs/A/08_hat.jpg,4,8,2,1,3,2,3,6,0,71,,,,,,,,,,,,,,,,,,,,
,,,,,71,2020-07-04_19h27.40.230,retriever_ti,2020.1.3,Win32,60,Chrome,1366,768,,,,,,,,,,,,,,,,,3,,,,,,,,,,,,,,,,,,,,,,,,,,,1478.20349,169,right,0.85166,sport_tshirt,6,7,4,1,3,1478.222745,1478.222745,1480.7249,0,14,14,14,1,169,2,6,phone       ,sport_tshirt,html/resources/sequences_IDs/B/09_phone.jpg,html/resources/sequences_IDs/B/07_sport_tshirt.jpg,9,7,4,2,3,2,7,5,0,71,,,,,,,,,,,,,,,,,,,,
,,,,,71,2020-07-04_19h27.40.230,retriever_ti,2020.1.3,Win32,60,Chrome,1366,768,,,,,,,,,,,,,,,,,3,,,,,,,,,,,,,,,,,,,,,,,,,,,1481.33304,170,left,0.736575,camel         ,7,3,5,1,3,1481.37738,1481.37738,1483.86332,0,15,15,15,1,170,7,2,camel         ,phone       ,html/resources/sequences_IDs/A/03_camel.jpg,html/resources/sequences_IDs/B/09_phone.jpg,3,9,1,1,4,2,2,7,0,71,,,,,,,,,,,,,,,,,,,,
,,,,,71,2020-07-04_19h27.40.230,retriever_ti,2020.1.3,Win32,60,Chrome,1366,768,,,,,,,,,,,,,,,,,3,,,,,,,,,,,,,,,,,,,,,,,,,,,1484.480675,171,left,0.72452,holdfast    ,4,4,-4,0,3,1484.51956,1484.51956,1487.009465,0,16,16,16,1,171,4,8,holdfast    ,dolphin     ,html/resources/sequences_IDs/B/04_holdfast.jpg,html/resources/sequences_IDs/B/02_dolphin.jpg,4,2,2,1,1,1,3,1,0,71,,,,,,,,,,,,,,,,,,,,
,,,,,71,2020-07-04_19h27.40.230,retriever_ti,2020.1.3,Win32,60,Chrome,1366,768,,,,,,,,,,,,,,,,,3,,,,,,,,,,,,,,,,,,,,,,,,,,,1487.62721,172,left,0.75314,peacock       ,3,5,1,1,1,1487.648275,1487.648275,1490.14029,0,17,17,17,1,172,3,2,peacock       ,phone       ,html/resources/sequences_IDs/A/05_peacock.jpg,html/resources/sequences_IDs/B/09_phone.jpg,5,9,2,1,4,2,4,7,0,71,,,,,,,,,,,,,,,,,,,,
,,,,,71,2020-07-04_19h27.40.230,retriever_ti,2020.1.3,Win32,60,Chrome,1366,768,,,,,,,,,,,,,,,,,3,,,,,,,,,,,,,,,,,,,,,,,,,,,1491.409355,173,right,0.73796,peacock       ,3,5,1,1,1,1491.865175,1491.865175,1494.35597,0,18,18,18,1,173,2,3,phone       ,peacock       ,html/resources/sequences_IDs/B/09_phone.jpg,html/resources/sequences_IDs/A/05_peacock.jpg,9,5,4,2,2,1,7,4,0,71,,,,,,,,,,,,,,,,,,,,
,,,,,71,2020-07-04_19h27.40.230,retriever_ti,2020.1.3,Win32,60,Chrome,1366,768,,,,,,,,,,,,,,,,,3,,,,,,,,,,,,,,,,,,,,,,,,,,,1495.45544,174,left,0.90409,peacock       ,3,5,-3,0,3,1495.49202,1495.49202,1497.977715,0,19,19,19,1,174,3,6,peacock       ,sport_tshirt,html/resources/sequences_IDs/A/05_peacock.jpg,html/resources/sequences_IDs/B/07_sport_tshirt.jpg,5,7,2,1,3,2,4,5,0,71,,,,,,,,,,,,,,,,,,,,
,,,,,71,2020-07-04_19h27.40.230,retriever_ti,2020.1.3,Win32,60,Chrome,1366,768,,,,,,,,,,,,,,,,,3,,,,,,,,,,,,,,,,,,,,,,,,,,,1498.598275,175,right,0.70732,peacock       ,3,5,-3,0,3,1498.63785,1498.63785,1501.115935,0,20,20,20,1,175,6,3,sport_tshirt,peacock       ,html/resources/sequences_IDs/B/07_sport_tshirt.jpg,html/resources/sequences_IDs/A/05_peacock.jpg,7,5,3,2,2,1,5,4,0,71,,,,,,,,,,,,,,,,,,,,
,,,,,71,2020-07-04_19h27.40.230,retriever_ti,2020.1.3,Win32,60,Chrome,1366,768,,,,,,,,,,,,,,,,,3,,,,,,,,,,,,,,,,,,,,,,,,,,,1501.732075,176,right,0.66711,camel         ,7,3,2,1,3,1501.751315,1501.751315,1504.235915,0,21,21,21,1,176,5,7,hat           ,camel         ,html/resources/sequences_IDs/A/08_hat.jpg,html/resources/sequences_IDs/A/03_camel.jpg,8,3,3,2,1,1,6,2,0,71,,,,,,,,,,,,,,,,,,,,
,,,,,71,2020-07-04_19h27.40.230,retriever_ti,2020.1.3,Win32,60,Chrome,1366,768,,,,,,,,,,,,,,,,,3,,,,,,,,,,,,,,,,,,,,,,,,,,,1504.855175,177,right,0.785225,dolphin     ,8,2,6,1,3,1504.894895,1504.894895,1507.39329,0,22,22,22,1,177,2,8,phone       ,dolphin     ,html/resources/sequences_IDs/B/09_phone.jpg,html/resources/sequences_IDs/B/02_dolphin.jpg,9,2,4,2,1,1,7,1,0,71,,,,,,,,,,,,,,,,,,,,
,,,,,71,2020-07-04_19h27.40.230,retriever_ti,2020.1.3,Win32,60,Chrome,1366,768,,,,,,,,,,,,,,,,,3,,,,,,,,,,,,,,,,,,,,,,,,,,,1508.00314,178,left,0.60654,dolphin     ,8,2,2,1,3,1508.02393,1508.02393,1510.52622,0,23,23,23,1,178,8,6,dolphin     ,sport_tshirt,html/resources/sequences_IDs/B/02_dolphin.jpg,html/resources/sequences_IDs/B/07_sport_tshirt.jpg,2,7,1,1,3,2,1,5,0,71,,,,,,,,,,,,,,,,,,,,
,,,,,71,2020-07-04_19h27.40.230,retriever_ti,2020.1.3,Win32,60,Chrome,1366,768,,,,,,,,,,,,,,,,,3,,,,,,,,,,,,,,,,,,,,,,,,,,,1511.13247,179,left,0.984865,phone       ,2,9,1,1,1,1511.16983,1511.16983,1513.652555,0,24,24,24,1,179,2,1,phone       ,satellite_dish,html/resources/sequences_IDs/B/09_phone.jpg,html/resources/sequences_IDs/A/10_satellite_dish.jpg,9,10,4,2,4,2,7,8,0,71,,,,,,,,,,,,,,,,,,,,
,,,,,71,2020-07-04_19h27.40.230,retriever_ti,2020.1.3,Win32,60,Chrome,1366,768,,,,,,,,,,,,,,,,,3,,,,,,,,,,,,,,,,,,,,,,,,,,,1514.745365,180,left,1.03424,sport_tshirt,6,7,1,1,1,1514.78188,1514.78188,1517.271485,0,25,25,25,1,180,6,5,sport_tshirt,hat           ,html/resources/sequences_IDs/B/07_sport_tshirt.jpg,html/resources/sequences_IDs/A/08_hat.jpg,7,8,3,2,3,2,5,6,0,71,,,,,,,,,,,,,,,,,,,,
,,,,,71,2020-07-04_19h27.40.230,retriever_ti,2020.1.3,Win32,60,Chrome,1366,768,,,,,,,,,,,,,,,,,3,,,,,,,,,,,,,,,,,,,,,,,,,,,1518.375155,181,left,1.289395,phone       ,2,9,1,1,1,1518.402695,1518.402695,1520.884195,0,26,26,26,1,181,2,1,phone       ,satellite_dish,html/resources/sequences_IDs/B/09_phone.jpg,html/resources/sequences_IDs/A/10_satellite_dish.jpg,9,10,4,2,4,2,7,8,0,71,,,,,,,,,,,,,,,,,,,,
,,,,,71,2020-07-04_19h27.40.230,retriever_ti,2020.1.3,Win32,60,Chrome,1366,768,,,,,,,,,,,,,,,,,3,,,,,,,,,,,,,,,,,,,,,,,,,,,1521.98499,182,left,1.22829,camel         ,7,3,6,1,3,1522.021845,1522.021845,1524.51345,0,27,27,27,1,182,7,1,camel         ,satellite_dish,html/resources/sequences_IDs/A/03_camel.jpg,html/resources/sequences_IDs/A/10_satellite_dish.jpg,3,10,1,1,4,2,2,8,0,71,,,,,,,,,,,,,,,,,,,,
,,,,,71,2020-07-04_19h27.40.230,retriever_ti,2020.1.3,Win32,60,Chrome,1366,768,,,,,,,,,,,,,,,,,3,,,,,,,,,,,,,,,,,,,,,,,,,,,1525.11876,183,left,1.29161,holdfast    ,4,4,-3,0,3,1525.14083,1525.14083,1527.626445,0,28,28,28,1,183,4,7,holdfast    ,camel         ,html/resources/sequences_IDs/B/04_holdfast.jpg,html/resources/sequences_IDs/A/03_camel.jpg,4,3,2,1,1,1,3,2,0,71,,,,,,,,,,,,,,,,,,,,
,,,,,71,2020-07-04_19h27.40.230,retriever_ti,2020.1.3,Win32,60,Chrome,1366,768,,,,,,,,,,,,,,,,,3,,,,,,,,,,,,,,,,,,,,,,,,,,,1528.232165,184,right,1.401805,sport_tshirt,6,7,1,1,1,1528.25062,1528.25062,1530.73898,0,29,29,29,1,184,5,6,hat           ,sport_tshirt,html/resources/sequences_IDs/A/08_hat.jpg,html/resources/sequences_IDs/B/07_sport_tshirt.jpg,8,7,3,2,3,2,6,5,0,71,,,,,,,,,,,,,,,,,,,,
,,,,,71,2020-07-04_19h27.40.230,retriever_ti,2020.1.3,Win32,60,Chrome,1366,768,,,,,,,,,,,,,,,,,3,,,,,,,,,,,,,,,,,,,,,,,,,,,1531.84063,185,right,0.81131,camel         ,7,3,1,1,0,1531.861725,1531.861725,1534.34417,0,30,30,30,1,185,6,7,sport_tshirt,camel         ,html/resources/sequences_IDs/B/07_sport_tshirt.jpg,html/resources/sequences_IDs/A/03_camel.jpg,7,3,3,2,1,1,5,2,1,71,,,,,,,,,,,,,,,,,,,,
,,,,,71,2020-07-04_19h27.40.230,retriever_ti,2020.1.3,Win32,60,Chrome,1366,768,,,,,,,,,,,,,,,,,3,,,,,,,,,,,,,,,,,,,,,,,,,,,1535.44332,186,left,0.677055,holdfast    ,4,4,-1,0,0,1535.477715,1535.477715,1537.9638,0,31,31,31,1,186,4,5,holdfast    ,hat           ,html/resources/sequences_IDs/B/04_holdfast.jpg,html/resources/sequences_IDs/A/08_hat.jpg,4,8,2,1,3,2,3,6,0,71,,,,,,,,,,,,,,,,,,,,
,,,,,71,2020-07-04_19h27.40.230,retriever_ti,2020.1.3,Win32,60,Chrome,1366,768,,,,,,,,,,,,,,,,,3,,,,,,,,,,,,,,,,,,,,,,,,,,,1539.0655,187,right,0.87172,peacock       ,3,5,1,1,0,1539.102075,1539.102075,1541.59291,0,32,32,32,1,187,2,3,phone       ,peacock       ,html/resources/sequences_IDs/B/09_phone.jpg,html/resources/sequences_IDs/A/05_peacock.jpg,9,5,4,2,2,1,7,4,1,71,,,,,,,,,,,,,,,,,,,,
,,,,,71,2020-07-04_19h27.40.230,retriever_ti,2020.1.3,Win32,60,Chrome,1366,768,,,,,,,,,,,,,,,,,3,,,,,,,,,,,,,,,,,,,,,,,,,,,1542.69262,188,right,0.94584,phone       ,2,9,1,1,1,1542.73097,1542.73097,1545.224395,0,33,33,33,1,188,1,2,satellite_dish,phone       ,html/resources/sequences_IDs/A/10_satellite_dish.jpg,html/resources/sequences_IDs/B/09_phone.jpg,10,9,4,2,4,2,8,7,0,71,,,,,,,,,,,,,,,,,,,,
,,,,,71,2020-07-04_19h27.40.230,retriever_ti,2020.1.3,Win32,60,Chrome,1366,768,,,,,,,,,,,,,,,,,3,,,,,,,,,,,,,,,,,,,,,,,,,,,1546.328445,189,left,1.135155,sport_tshirt,6,7,1,1,1,1546.367955,1546.367955,1548.849945,0,34,34,34,1,189,6,5,sport_tshirt,hat           ,html/resources/sequences_IDs/B/07_sport_tshirt.jpg,html/resources/sequences_IDs/A/08_hat.jpg,7,8,3,2,3,2,5,6,0,71,,,,,,,,,,,,,,,,,,,,
,,,,,71,2020-07-04_19h27.40.230,retriever_ti,2020.1.3,Win32,60,Chrome,1366,768,,,,,,,,,,,,,,,,,3,,,,,,,,,,,,,,,,,,,,,,,,,,,1549.953095,190,right,0.868415,dolphin     ,8,2,3,1,3,1549.991375,1549.991375,1552.4794,0,35,35,35,1,190,5,8,hat           ,dolphin     ,html/resources/sequences_IDs/A/08_hat.jpg,html/resources/sequences_IDs/B/02_dolphin.jpg,8,2,3,2,1,1,6,1,0,71,,,,,,,,,,,,,,,,,,,,
,,,,,71,2020-07-04_19h27.40.230,retriever_ti,2020.1.3,Win32,60,Chrome,1366,768,,,,,,,,,,,,,,,,,3,,,,,,,,,,,,,,,,,,,,,,,,,,,1553.099285,191,left,0.825485,dolphin     ,8,2,5,1,3,1553.1388,1553.1388,1555.625455,0,36,36,36,1,191,8,3,dolphin     ,peacock       ,html/resources/sequences_IDs/B/02_dolphin.jpg,html/resources/sequences_IDs/A/05_peacock.jpg,2,5,1,1,2,1,1,4,0,71,,,,,,,,,,,,,,,,,,,,
,,,,,71,2020-07-04_19h27.40.230,retriever_ti,2020.1.3,Win32,60,Chrome,1366,768,,,,,,,,,,,,,,,,,3,,,,,,,,,,,,,,,,,,,,,,,,,,,1556.246085,192,right,0.851715,sport_tshirt,6,7,1,1,1,1556.26649,1556.26649,1558.77899,0,37,37,37,1,192,5,6,hat           ,sport_tshirt,html/resources/sequences_IDs/A/08_hat.jpg,html/resources/sequences_IDs/B/07_sport_tshirt.jpg,8,7,3,2,3,2,6,5,0,71,,,,,,,,,,,,,,,,,,,,
,,,,,71,2020-07-04_19h27.40.230,retriever_ti,2020.1.3,Win32,60,Chrome,1366,768,,,,,,,,,,,,,,,,,3,,,,,,,,,,,,,,,,,,,,,,,,,,,1559.880565,193,left,0.77403,camel         ,7,3,2,1,3,1559.91225,1559.91225,1562.404885,0,38,38,38,1,193,7,5,camel         ,hat           ,html/resources/sequences_IDs/A/03_camel.jpg,html/resources/sequences_IDs/A/08_hat.jpg,3,8,1,1,3,2,2,6,0,71,,,,,,,,,,,,,,,,,,,,
,,,,,71,2020-07-04_19h27.40.230,retriever_ti,2020.1.3,Win32,60,Chrome,1366,768,,,,,,,,,,,,,,,,,3,,,,,,,,,,,,,,,,,,,,,,,,,,,1563.017105,194,right,1.13752,camel         ,7,3,5,1,3,1563.04427,1563.04427,1565.530775,0,39,39,39,1,194,2,7,phone       ,camel         ,html/resources/sequences_IDs/B/09_phone.jpg,html/resources/sequences_IDs/A/03_camel.jpg,9,3,4,2,1,1,7,2,0,71,,,,,,,,,,,,,,,,,,,,
,,,,,71,2020-07-04_19h27.40.230,retriever_ti,2020.1.3,Win32,60,Chrome,1366,768,,,,,,,,,,,,,,,,,3,,,,,,,,,,,,,,,,,,,,,,,,,,,1566.13583,195,left,0.919065,holdfast    ,4,4,-2,0,3,1566.155145,1566.155145,1568.650955,0,40,40,40,1,195,4,6,holdfast    ,sport_tshirt,html/resources/sequences_IDs/B/04_holdfast.jpg,html/resources/sequences_IDs/B/07_sport_tshirt.jpg,4,7,2,1,3,2,3,5,0,71,,,,,,,,,,,,,,,,,,,,
,,,,,71,2020-07-04_19h27.40.230,retriever_ti,2020.1.3,Win32,60,Chrome,1366,768,,,,,,,,,,,,,,,,,3,,,,,,,,,,,,,,,,,,,,,,,,,,,1569.26409,196,left,1.15698,peacock       ,3,5,2,1,3,1569.299755,1569.299755,1572.1314,0,41,41,41,1,196,3,1,peacock       ,satellite_dish,html/resources/sequences_IDs/A/05_peacock.jpg,html/resources/sequences_IDs/A/10_satellite_dish.jpg,5,10,2,1,4,2,4,8,0,71,,,,,,,,,,,,,,,,,,,,
,,,,,71,2020-07-04_19h27.40.230,retriever_ti,2020.1.3,Win32,60,Chrome,1366,768,,,,,,,,,,,,,,,,,3,,,,,,,,,,,,,,,,,,,,,,,,,,,1572.74449,197,left,0.64961,holdfast    ,4,4,3,1,3,1572.784365,1572.784365,1575.27403,0,42,42,42,1,197,4,1,holdfast    ,satellite_dish,html/resources/sequences_IDs/B/04_holdfast.jpg,html/resources/sequences_IDs/A/10_satellite_dish.jpg,4,10,2,1,4,2,3,8,0,71,,,,,,,,,,,,,,,,,,,,
,,,,,71,2020-07-04_19h27.40.230,retriever_ti,2020.1.3,Win32,60,Chrome,1366,768,,,,,,,,,,,,,,,,,3,,,,,,,,,,,,,,,,,,,,,,,,,,,1575.886405,198,left,0.759515,camel         ,7,3,1,1,1,1575.925945,1575.925945,1578.422925,0,43,43,43,1,198,7,6,camel         ,sport_tshirt,html/resources/sequences_IDs/A/03_camel.jpg,html/resources/sequences_IDs/B/07_sport_tshirt.jpg,3,7,1,1,3,2,2,5,0,71,,,,,,,,,,,,,,,,,,,,
,,,,,71,2020-07-04_19h27.40.230,retriever_ti,2020.1.3,Win32,60,Chrome,1366,768,,,,,,,,,,,,,,,,,3,,,,,,,,,,,,,,,,,,,,,,,,,,,1579.519335,199,left,0.833775,dolphin     ,8,2,1,1,1,1579.557885,1579.557885,1582.04719,0,44,44,44,1,199,8,7,dolphin     ,camel         ,html/resources/sequences_IDs/B/02_dolphin.jpg,html/resources/sequences_IDs/A/03_camel.jpg,2,3,1,1,1,1,1,2,0,71,,,,,,,,,,,,,,,,,,,,
,,,,,71,2020-07-04_19h27.40.230,retriever_ti,2020.1.3,Win32,60,Chrome,1366,768,,,,,,,,,,,,,,,,,3,,,,,,,,,,,,,,,,,,,,,,,,,,,1583.147405,200,right,0.977815,satellite_dish,1,10,-4,0,3,1583.18442,1583.18442,1585.67966,0,45,45,45,1,200,5,1,hat           ,satellite_dish,html/resources/sequences_IDs/A/08_hat.jpg,html/resources/sequences_IDs/A/10_satellite_dish.jpg,8,10,3,2,4,2,6,8,0,71,,,,,,,,,,,,,,,,,,,,
,,,,,71,2020-07-04_19h27.40.230,retriever_ti,2020.1.3,Win32,60,Chrome,1366,768,,,,,,,,,,,,,,,,,3,,,,,,,,,,,,,,,,,,,,,,,,,,,1586.292995,201,right,0.72026,holdfast    ,4,4,-1,0,0,1586.330675,1586.330675,1588.828335,0,46,46,46,1,201,5,4,hat           ,holdfast    ,html/resources/sequences_IDs/A/08_hat.jpg,html/resources/sequences_IDs/B/04_holdfast.jpg,8,4,3,2,2,1,6,3,0,71,,,,,,,,,,,,,,,,,,,,
,,,,,71,2020-07-04_19h27.40.230,retriever_ti,2020.1.3,Win32,60,Chrome,1366,768,,,,,,,,,,,,,,,,,3,,,,,,,,,,,,,,,,,,,,,,,,,,,1589.93369,202,right,0.8749,dolphin     ,8,2,2,1,3,1589.963625,1589.963625,1592.45156,0,47,47,47,1,202,6,8,sport_tshirt,dolphin     ,html/resources/sequences_IDs/B/07_sport_tshirt.jpg,html/resources/sequences_IDs/B/02_dolphin.jpg,7,2,3,2,1,1,5,1,0,71,,,,,,,,,,,,,,,,,,,,
,,,,,71,2020-07-04_19h27.40.230,retriever_ti,2020.1.3,Win32,60,Chrome,1366,768,,,,,,,,,,,,,,,,,3,,,,,,,,,,,,,,,,,,,,,,,,,,,1593.066945,203,right,0.75412,holdfast    ,4,4,2,1,3,1593.10573,1593.10573,1595.594375,0,48,48,48,1,203,2,4,phone       ,holdfast    ,html/resources/sequences_IDs/B/09_phone.jpg,html/resources/sequences_IDs/B/04_holdfast.jpg,9,4,4,2,2,1,7,3,0,71,,,,,,,,,,,,,,,,,,,,
,,,,,71,2020-07-04_19h27.40.230,retriever_ti,2020.1.3,Win32,60,Chrome,1366,768,,,,,,,,,,,,,,,,,3,,,,,,,,,,,,,,,,,,,,,,,,,,,1596.199395,204,right,1.08607,phone       ,2,9,-3,0,3,1596.22084,1596.22084,1598.70638,0,49,49,49,1,204,5,2,hat           ,phone       ,html/resources/sequences_IDs/A/08_hat.jpg,html/resources/sequences_IDs/B/09_phone.jpg,8,9,3,2,4,2,6,7,0,71,,,,,,,,,,,,,,,,,,,,
,,,,,71,2020-07-04_19h27.40.230,retriever_ti,2020.1.3,Win32,60,Chrome,1366,768,,,,,,,,,,,,,,,,,3,,,,,,,,,,,,,,,,,,,,,,,,,,,1599.31388,205,left,1.459455,peacock       ,3,5,-1,0,0,1599.351205,1599.351205,1601.835955,0,50,50,50,1,205,3,4,peacock       ,holdfast    ,html/resources/sequences_IDs/A/05_peacock.jpg,html/resources/sequences_IDs/B/04_holdfast.jpg,5,4,2,1,2,1,4,3,0,71,,,,,,,,,,,,,,,,,,,,
,,,,,71,2020-07-04_19h27.40.230,retriever_ti,2020.1.3,Win32,60,Chrome,1366,768,,,,,,,,,,,,,,,,,3,,,,,,,,,,,,,,,,,,,,,,,,,,,1602.93929,206,right,0.865275,holdfast    ,4,4,-3,0,3,1602.973515,1602.973515,1605.46583,0,51,51,51,1,206,7,4,camel         ,holdfast    ,html/resources/sequences_IDs/A/03_camel.jpg,html/resources/sequences_IDs/B/04_holdfast.jpg,3,4,1,1,2,1,2,3,0,71,,,,,,,,,,,,,,,,,,,,
,,,,,71,2020-07-04_19h27.40.230,retriever_ti,2020.1.3,Win32,60,Chrome,1366,768,,,,,,,,,,,,,,,,,3,,,,,,,,,,,,,,,,,,,,,,,,,,,1606.084645,207,right,0.82161,holdfast    ,4,4,-2,0,3,1606.10703,1606.10703,1608.596485,0,52,52,52,1,207,6,4,sport_tshirt,holdfast    ,html/resources/sequences_IDs/B/07_sport_tshirt.jpg,html/resources/sequences_IDs/B/04_holdfast.jpg,7,4,3,2,2,1,5,3,0,71,,,,,,,,,,,,,,,,,,,,
,,,,,71,2020-07-04_19h27.40.230,retriever_ti,2020.1.3,Win32,60,Chrome,1366,768,,,,,,,,,,,,,,,,,3,,,,,,,,,,,,,,,,,,,,,,,,,,,1609.216475,208,left,1.037805,holdfast    ,4,4,1,1,1,1609.256805,1609.256805,1611.746385,0,53,53,53,1,208,4,3,holdfast    ,peacock       ,html/resources/sequences_IDs/B/04_holdfast.jpg,html/resources/sequences_IDs/A/05_peacock.jpg,4,5,2,1,2,1,3,4,0,71,,,,,,,,,,,,,,,,,,,,
,,,,,71,2020-07-04_19h27.40.230,retriever_ti,2020.1.3,Win32,60,Chrome,1366,768,,,,,,,,,,,,,,,,,3,,,,,,,,,,,,,,,,,,,,,,,,,,,1612.847735,209,right,0.89176,holdfast    ,4,4,-1,0,0,1612.87905,1612.87905,1615.37221,0,54,54,54,1,209,5,4,hat           ,holdfast    ,html/resources/sequences_IDs/A/08_hat.jpg,html/resources/sequences_IDs/B/04_holdfast.jpg,8,4,3,2,2,1,6,3,0,71,,,,,,,,,,,,,,,,,,,,
,,,,,71,2020-07-04_19h27.40.230,retriever_ti,2020.1.3,Win32,60,Chrome,1366,768,,,,,,,,,,,,,,,,,3,,,,,,,,,,,,,,,,,,,,,,,,,,,1616.486875,210,left,1.007615,hat           ,5,8,1,1,0,1616.52546,1616.52546,1619.018135,0,55,55,55,1,210,5,4,hat           ,holdfast    ,html/resources/sequences_IDs/A/08_hat.jpg,html/resources/sequences_IDs/B/04_holdfast.jpg,8,4,3,2,2,1,6,3,1,71,,,,,,,,,,,,,,,,,,,,
,,,,,71,2020-07-04_19h27.40.230,retriever_ti,2020.1.3,Win32,60,Chrome,1366,768,,,,,,,,,,,,,,,,,3,,,,,,,,,,,,,,,,,,,,,,,,,,,1620.120795,211,left,1.53417,satellite_dish,1,10,-1,0,1,1620.157655,1620.157655,1622.63874,0,56,56,56,1,211,1,2,satellite_dish,phone       ,html/resources/sequences_IDs/A/10_satellite_dish.jpg,html/resources/sequences_IDs/B/09_phone.jpg,10,9,4,2,4,2,8,7,1,71,,,,,,,,,,,,,,,,,,,,
,,,,,71,2020-07-04_19h27.40.230,retriever_ti,2020.1.3,Win32,60,Chrome,1366,768,,,,,,,,,,,,,,,,,3,,,,,,,,,,,,,,,,,,,,,,,,,,,1623.74452,212,right,1.18711,camel         ,7,3,1,1,1,1623.76557,1623.76557,1626.258475,0,57,57,57,1,212,6,7,sport_tshirt,camel         ,html/resources/sequences_IDs/B/07_sport_tshirt.jpg,html/resources/sequences_IDs/A/03_camel.jpg,7,3,3,2,1,1,5,2,0,71,,,,,,,,,,,,,,,,,,,,
,,,,,71,2020-07-04_19h27.40.230,retriever_ti,2020.1.3,Win32,60,Chrome,1366,768,,,,,,,,,,,,,,,,,3,,,,,,,,,,,,,,,,,,,,,,,,,,,1627.36222,213,right,0.79399,peacock       ,3,5,1,1,1,1627.39905,1627.39905,1629.8814,0,58,58,58,1,213,2,3,phone       ,peacock       ,html/resources/sequences_IDs/B/09_phone.jpg,html/resources/sequences_IDs/A/05_peacock.jpg,9,5,4,2,2,1,7,4,0,71,,,,,,,,,,,,,,,,,,,,
,,,,,71,2020-07-04_19h27.40.230,retriever_ti,2020.1.3,Win32,60,Chrome,1366,768,,,,,,,,,,,,,,,,,3,,,,,,,,,,,,,,,,,,,,,,,,,,,1630.99017,214,left,0.94449,holdfast    ,4,4,1,1,1,1631.031495,1631.031495,1633.515125,0,59,59,59,1,214,4,3,holdfast    ,peacock       ,html/resources/sequences_IDs/B/04_holdfast.jpg,html/resources/sequences_IDs/A/05_peacock.jpg,4,5,2,1,2,1,3,4,0,71,,,,,,,,,,,,,,,,,,,,
,,,,,71,2020-07-04_19h27.40.230,retriever_ti,2020.1.3,Win32,60,Chrome,1366,768,,,,,,,,,,,,,,,,,3,,,,,,,,,,,,,,,,,,,,,,,,,,,1634.620845,215,right,0.81779,peacock       ,3,5,2,1,3,1634.66868,1634.66868,1637.16171,0,60,60,60,1,215,1,3,satellite_dish,peacock       ,html/resources/sequences_IDs/A/10_satellite_dish.jpg,html/resources/sequences_IDs/A/05_peacock.jpg,10,5,4,2,2,1,8,4,0,71,,,,,,,,,,,,,,,,,,,,
,,,,,71,2020-07-04_19h27.40.230,retriever_ti,2020.1.3,Win32,60,Chrome,1366,768,,,,,,,,,,,,,,,,,3,,,,,,,,,,,,,,,,,,,,,,,,,,,1637.76844,216,right,0.790095,camel         ,7,3,1,1,1,1637.80565,1637.80565,1640.29437,0,61,61,61,1,216,6,7,sport_tshirt,camel         ,html/resources/sequences_IDs/B/07_sport_tshirt.jpg,html/resources/sequences_IDs/A/03_camel.jpg,7,3,3,2,1,1,5,2,0,71,,,,,,,,,,,,,,,,,,,,
,,,,,71,2020-07-04_19h27.40.230,retriever_ti,2020.1.3,Win32,60,Chrome,1366,768,,,,,,,,,,,,,,,,,3,,,,,,,,,,,,,,,,,,,,,,,,,,,1641.40103,217,left,0.8357,hat           ,5,8,-1,0,1,1641.427045,1641.427045,1643.907195,0,62,62,62,1,217,5,6,hat           ,sport_tshirt,html/resources/sequences_IDs/A/08_hat.jpg,html/resources/sequences_IDs/B/07_sport_tshirt.jpg,8,7,3,2,3,2,6,5,1,71,,,,,,,,,,,,,,,,,,,,
,,,,,71,2020-07-04_19h27.40.230,retriever_ti,2020.1.3,Win32,60,Chrome,1366,768,,,,,,,,,,,,,,,,,3,,,,,,,,,,,,,,,,,,,,,,,,,,,1645.00121,218,left,1.152715,camel         ,7,3,1,1,1,1645.01377,1645.01377,1647.499115,0,63,63,63,1,218,7,6,camel         ,sport_tshirt,html/resources/sequences_IDs/A/03_camel.jpg,html/resources/sequences_IDs/B/07_sport_tshirt.jpg,3,7,1,1,3,2,2,5,0,71,,,,,,,,,,,,,,,,,,,,
