instructionsLoop.thisRepN,instructionsLoop.thisTrialN,instructionsLoop.thisN,instructionsLoop.thisIndex,instructionsLoop.ran,participant,date,expName,psychopyVersion,OS,frameRate,browser,xResolution,yResolution,fix_onset,tprac,practiceKey.keys,practiceKey.rt,pracitem_chosen_name,acc_practice,P1_onsetPrac,P2_onsetPrac,onsetFeedbPrac,practiceTrials.thisRepN,practiceTrials.thisTrialN,practiceTrials.thisN,practiceTrials.thisIndex,practiceTrials.ran,P1,P2,Block,LocItem1,LocItem2,NameItem1,NameItem2,key_respAC_prac.keys,key_respAC_prac.corr,key_respAC_prac.rt,AC_acc,Attentions.thisRepN,Attentions.thisTrialN,Attentions.thisN,Attentions.thisIndex,Attentions.ran,Stim,Loc1,Loc2,Loc3,Loc4,CorrAns,keyDisturbed.keys,keyDisturbed.rt,repPractice.thisRepN,repPractice.thisTrialN,repPractice.thisN,repPractice.thisIndex,repPractice.ran,fixcross_onsetMain,trialNumber,key_resp.keys,key_resp.rt,item_chosen_name,item_chosen_value,item_chosen_ID,diff_chosen_minus_reject,acc_real,acc_feedback,P1_onset,P2_onset,feedb_onset,trials.thisRepN,trials.thisTrialN,trials.thisN,trials.thisIndex,trials.ran,Trial,ValueP1,ValueP2,P1name,P2name,P1Loc,P2Loc,P1id,P2id,Micro_categoryP1,Macro_categoryP1,Micro_categoryP2,Macro_categoryP2,ID_sequenceP1,ID_sequenceP2,InverseFb,pNumber,repBlocks.thisRepN,repBlocks.thisTrialN,repBlocks.thisN,repBlocks.thisIndex,repBlocks.ran,key_respAC.keys,key_respAC.corr,key_respAC.rt,trials_AC.thisRepN,trials_AC.thisTrialN,trials_AC.thisN,trials_AC.thisIndex,trials_AC.ran,Bonus,BonusLoop.thisRepN,BonusLoop.thisTrialN,BonusLoop.thisN,BonusLoop.thisIndex,BonusLoop.ran,comments
0,0,0,0,1,72,2020-07-04_13h25.00.031,retriever_ti,2020.1.3,MacIntel,60,Chrome,1440,900,,,,,,,,,,,,,,,,,,,,,,,,,,,,,,,,,,,,,,,,,,,,,,,,,,,,,,,,,,,,,,,,,,,,,,,,,,,,,,,,,,,,,,,,,,,,,,,,,,
1,0,1,0,1,72,2020-07-04_13h25.00.031,retriever_ti,2020.1.3,MacIntel,60,Chrome,1440,900,,,,,,,,,,,,,,,,,,,,,,,,,,,,,,,,,,,,,,,,,,,,,,,,,,,,,,,,,,,,,,,,,,,,,,,,,,,,,,,,,,,,,,,,,,,,,,,,,,
2,0,2,0,1,72,2020-07-04_13h25.00.031,retriever_ti,2020.1.3,MacIntel,60,Chrome,1440,900,,,,,,,,,,,,,,,,,,,,,,,,,,,,,,,,,,,,,,,,,,,,,,,,,,,,,,,,,,,,,,,,,,,,,,,,,,,,,,,,,,,,,,,,,,,,,,,,,,
3,0,3,0,1,72,2020-07-04_13h25.00.031,retriever_ti,2020.1.3,MacIntel,60,Chrome,1440,900,,,,,,,,,,,,,,,,,,,,,,,,,,,,,,,,,,,,,,,,,,,,,,,,,,,,,,,,,,,,,,,,,,,,,,,,,,,,,,,,,,,,,,,,,,,,,,,,,,
4,0,4,0,1,72,2020-07-04_13h25.00.031,retriever_ti,2020.1.3,MacIntel,60,Chrome,1440,900,,,,,,,,,,,,,,,,,,,,,,,,,,,,,,,,,,,,,,,,,,,,,,,,,,,,,,,,,,,,,,,,,,,,,,,,,,,,,,,,,,,,,,,,,,,,,,,,,,
5,0,5,0,1,72,2020-07-04_13h25.00.031,retriever_ti,2020.1.3,MacIntel,60,Chrome,1440,900,,,,,,,,,,,,,,,,,,,,,,,,,,,,,,,,,,,,,,,,,,,,,,,,,,,,,,,,,,,,,,,,,,,,,,,,,,,,,,,,,,,,,,,,,,,,,,,,,,
6,0,6,0,1,72,2020-07-04_13h25.00.031,retriever_ti,2020.1.3,MacIntel,60,Chrome,1440,900,,,,,,,,,,,,,,,,,,,,,,,,,,,,,,,,,,,,,,,,,,,,,,,,,,,,,,,,,,,,,,,,,,,,,,,,,,,,,,,,,,,,,,,,,,,,,,,,,,
7,0,7,0,1,72,2020-07-04_13h25.00.031,retriever_ti,2020.1.3,MacIntel,60,Chrome,1440,900,,,,,,,,,,,,,,,,,,,,,,,,,,,,,,,,,,,,,,,,,,,,,,,,,,,,,,,,,,,,,,,,,,,,,,,,,,,,,,,,,,,,,,,,,,,,,,,,,,
8,0,8,0,1,72,2020-07-04_13h25.00.031,retriever_ti,2020.1.3,MacIntel,60,Chrome,1440,900,,,,,,,,,,,,,,,,,,,,,,,,,,,,,,,,,,,,,,,,,,,,,,,,,,,,,,,,,,,,,,,,,,,,,,,,,,,,,,,,,,,,,,,,,,,,,,,,,,
9,0,9,0,1,72,2020-07-04_13h25.00.031,retriever_ti,2020.1.3,MacIntel,60,Chrome,1440,900,,,,,,,,,,,,,,,,,,,,,,,,,,,,,,,,,,,,,,,,,,,,,,,,,,,,,,,,,,,,,,,,,,,,,,,,,,,,,,,,,,,,,,,,,,,,,,,,,,
10,0,10,0,1,72,2020-07-04_13h25.00.031,retriever_ti,2020.1.3,MacIntel,60,Chrome,1440,900,,,,,,,,,,,,,,,,,,,,,,,,,,,,,,,,,,,,,,,,,,,,,,,,,,,,,,,,,,,,,,,,,,,,,,,,,,,,,,,,,,,,,,,,,,,,,,,,,,
11,0,11,0,1,72,2020-07-04_13h25.00.031,retriever_ti,2020.1.3,MacIntel,60,Chrome,1440,900,,,,,,,,,,,,,,,,,,,,,,,,,,,,,,,,,,,,,,,,,,,,,,,,,,,,,,,,,,,,,,,,,,,,,,,,,,,,,,,,,,,,,,,,,,,,,,,,,,
12,0,12,0,1,72,2020-07-04_13h25.00.031,retriever_ti,2020.1.3,MacIntel,60,Chrome,1440,900,,,,,,,,,,,,,,,,,,,,,,,,,,,,,,,,,,,,,,,,,,,,,,,,,,,,,,,,,,,,,,,,,,,,,,,,,,,,,,,,,,,,,,,,,,,,,,,,,,
13,0,13,0,1,72,2020-07-04_13h25.00.031,retriever_ti,2020.1.3,MacIntel,60,Chrome,1440,900,,,,,,,,,,,,,,,,,,,,,,,,,,,,,,,,,,,,,,,,,,,,,,,,,,,,,,,,,,,,,,,,,,,,,,,,,,,,,,,,,,,,,,,,,,,,,,,,,,
14,0,14,0,1,72,2020-07-04_13h25.00.031,retriever_ti,2020.1.3,MacIntel,60,Chrome,1440,900,,,,,,,,,,,,,,,,,,,,,,,,,,,,,,,,,,,,,,,,,,,,,,,,,,,,,,,,,,,,,,,,,,,,,,,,,,,,,,,,,,,,,,,,,,,,,,,,,,
,,,,,72,2020-07-04_13h25.00.031,retriever_ti,2020.1.3,MacIntel,60,Chrome,1440,900,397.237765,1,NaN,NaN,No_response,2,397.26417,397.26417,399.763525,0,0,0,0,1,2,5,1,html/resources/stimuli_practice_decision/04_beetle.jpg,html/resources/stimuli_practice_decision/02_canary.jpg,beetle,canary,,,,,,,,,,,,,,,,,,,,,,,,,,,,,,,,,,,,,,,,,,,,,,,,,,,,,,,,,,,,,,,,,,,,,,,,,,,,,
,,,,,72,2020-07-04_13h25.00.031,retriever_ti,2020.1.3,MacIntel,60,Chrome,1440,900,400.293505,2,left,1.423815,rabbit,1,400.31459,400.31459,402.810485,0,1,1,1,1,4,3,1,html/resources/stimuli_practice_decision/01_rabbit.jpg,html/resources/stimuli_practice_decision/07_sock.jpg,rabbit,sock,,,,,,,,,,,,,,,,,,,,,,,,,,,,,,,,,,,,,,,,,,,,,,,,,,,,,,,,,,,,,,,,,,,,,,,,,,,,,
,,,,,72,2020-07-04_13h25.00.031,retriever_ti,2020.1.3,MacIntel,60,Chrome,1440,900,403.81189,3,left,1.022865,pullover,1,403.848755,403.848755,406.34521,0,2,2,2,1,6,2,1,html/resources/stimuli_practice_decision/06_pullover.jpg,html/resources/stimuli_practice_decision/04_beetle.jpg,pullover,beetle,,,,,,,,,,,,,,,,,,,,,,,,,,,,,,,,,,,,,,,,,,,,,,,,,,,,,,,,,,,,,,,,,,,,,,,,,,,,,
,,,,,72,2020-07-04_13h25.00.031,retriever_ti,2020.1.3,MacIntel,60,Chrome,1440,900,406.863855,4,right,1.67616,handmixer,0,406.898145,406.898145,409.39497,0,3,3,3,1,7,1,1,html/resources/stimuli_practice_decision/05_glasses.jpg,html/resources/stimuli_practice_decision/08_handmixer.jpg,glasses,handmixer,,,,,,,,,,,,,,,,,,,,,,,,,,,,,,,,,,,,,,,,,,,,,,,,,,,,,,,,,,,,,,,,,,,,,,,,,,,,,
,,,,,72,2020-07-04_13h25.00.031,retriever_ti,2020.1.3,MacIntel,60,Chrome,1440,900,409.91264,5,NaN,NaN,No_response,2,409.947235,409.947235,412.44509,0,4,4,4,1,7,6,1,html/resources/stimuli_practice_decision/05_glasses.jpg,html/resources/stimuli_practice_decision/06_pullover.jpg,glasses,pullover,,,,,,,,,,,,,,,,,,,,,,,,,,,,,,,,,,,,,,,,,,,,,,,,,,,,,,,,,,,,,,,,,,,,,,,,,,,,,
,,,,,72,2020-07-04_13h25.00.031,retriever_ti,2020.1.3,MacIntel,60,Chrome,1440,900,412.963845,6,left,1.122355,rabbit,0,412.97928,412.97928,415.479185,0,5,5,5,1,4,7,1,html/resources/stimuli_practice_decision/01_rabbit.jpg,html/resources/stimuli_practice_decision/05_glasses.jpg,rabbit,glasses,,,,,,,,,,,,,,,,,,,,,,,,,,,,,,,,,,,,,,,,,,,,,,,,,,,,,,,,,,,,,,,,,,,,,,,,,,,,,
,,,,,72,2020-07-04_13h25.00.031,retriever_ti,2020.1.3,MacIntel,60,Chrome,1440,900,415.99763,7,left,1.439795,handmixer,0,416.034745,416.034745,418.527965,0,6,6,6,1,1,2,1,html/resources/stimuli_practice_decision/08_handmixer.jpg,html/resources/stimuli_practice_decision/04_beetle.jpg,handmixer,beetle,,,,,,,,,,,,,,,,,,,,,,,,,,,,,,,,,,,,,,,,,,,,,,,,,,,,,,,,,,,,,,,,,,,,,,,,,,,,,
,,,,,72,2020-07-04_13h25.00.031,retriever_ti,2020.1.3,MacIntel,60,Chrome,1440,900,419.529445,8,right,0.93111,sock,0,419.54904,419.54904,422.04502,0,7,7,7,1,4,3,1,html/resources/stimuli_practice_decision/01_rabbit.jpg,html/resources/stimuli_practice_decision/07_sock.jpg,rabbit,sock,,,,,,,,,,,,,,,,,,,,,,,,,,,,,,,,,,,,,,,,,,,,,,,,,,,,,,,,,,,,,,,,,,,,,,,,,,,,,
,,,,,72,2020-07-04_13h25.00.031,retriever_ti,2020.1.3,MacIntel,60,Chrome,1440,900,,,,,,,,,,,,,,,,,,,,,,up,1,1.275865,1,0,0,0,0,1,html/resources/sequences_IDs/circle.png,circle ↑,square →,triangle ↓,← star ,up,,,,,,,,,,,,,,,,,,,,,,,,,,,,,,,,,,,,,,,,,,,,,,,,,,,,,,,,,,,,,,
,,,,,72,2020-07-04_13h25.00.031,retriever_ti,2020.1.3,MacIntel,60,Chrome,1440,900,,,,,,,,,,,,,,,,,,,,,,left,1,1.749375,1,0,1,1,2,1,html/resources/sequences_IDs/square1.png,star ↑,triangle →,circle ↓,← square,left,,,,,,,,,,,,,,,,,,,,,,,,,,,,,,,,,,,,,,,,,,,,,,,,,,,,,,,,,,,,,,
,,,,,72,2020-07-04_13h25.00.031,retriever_ti,2020.1.3,MacIntel,60,Chrome,1440,900,,,,,,,,,,,,,,,,,,,,,,down,1,1.794605,1,0,2,2,3,1,html/resources/sequences_IDs/triangle.png,star ↑,square →,triangle ↓,← circle,down,,,,,,,,,,,,,,,,,,,,,,,,,,,,,,,,,,,,,,,,,,,,,,,,,,,,,,,,,,,,,,
,,,,,72,2020-07-04_13h25.00.031,retriever_ti,2020.1.3,MacIntel,60,Chrome,1440,900,,,,,,,,,,,,,,,,,,,,,,down,1,1.67799,1,0,3,3,1,1,html/resources/sequences_IDs/star.png,square ↑,circle →,star ↓,← triangle,down,,,,,,,,,,,,,,,,,,,,,,,,,,,,,,,,,,,,,,,,,,,,,,,,,,,,,,,,,,,,,,
,,,,,72,2020-07-04_13h25.00.031,retriever_ti,2020.1.3,MacIntel,60,Chrome,1440,900,,,,,,,,,,,,,,,,,,,,,,,,,,,,,,,,,,,,,0,6.69159,0,0,0,0,1,,,,,,,,,,,,,,,,,,,,,,,,,,,,,,,,,,,,,,,,,,,,,,,,,,,,,,,
,,,,,72,2020-07-04_13h25.00.031,retriever_ti,2020.1.3,MacIntel,60,Chrome,1440,900,440.27432,9,left,1.325875,pullover,0,440.31508,440.31508,442.81397,0,0,0,0,1,6,7,1,html/resources/stimuli_practice_decision/06_pullover.jpg,html/resources/stimuli_practice_decision/05_glasses.jpg,pullover,glasses,,,,,,,,,,,,,,,,,,,,,,,,,,,,,,,,,,,,,,,,,,,,,,,,,,,,,,,,,,,,,,,,,,,,,,,,,,,,,
,,,,,72,2020-07-04_13h25.00.031,retriever_ti,2020.1.3,MacIntel,60,Chrome,1440,900,443.81601,10,right,2.207675,beetle,0,443.83168,443.83168,446.33113,0,1,1,1,1,6,2,1,html/resources/stimuli_practice_decision/06_pullover.jpg,html/resources/stimuli_practice_decision/04_beetle.jpg,pullover,beetle,,,,,,,,,,,,,,,,,,,,,,,,,,,,,,,,,,,,,,,,,,,,,,,,,,,,,,,,,,,,,,,,,,,,,,,,,,,,,
,,,,,72,2020-07-04_13h25.00.031,retriever_ti,2020.1.3,MacIntel,60,Chrome,1440,900,446.848865,11,left,2.16528,canary,0,446.884315,446.884315,449.382175,0,2,2,2,1,5,6,1,html/resources/stimuli_practice_decision/02_canary.jpg,html/resources/stimuli_practice_decision/06_pullover.jpg,canary,pullover,,,,,,,,,,,,,,,,,,,,,,,,,,,,,,,,,,,,,,,,,,,,,,,,,,,,,,,,,,,,,,,,,,,,,,,,,,,,,
,,,,,72,2020-07-04_13h25.00.031,retriever_ti,2020.1.3,MacIntel,60,Chrome,1440,900,450.38151,12,right,1.639965,glasses,0,450.400155,450.400155,452.897995,0,3,3,3,1,8,7,1,html/resources/stimuli_practice_decision/03_squirrel.jpg,html/resources/stimuli_practice_decision/05_glasses.jpg,squirrel,glasses,,,,,,,,,,,,,,,,,,,,,,,,,,,,,,,,,,,,,,,,,,,,,,,,,,,,,,,,,,,,,,,,,,,,,,,,,,,,,
,,,,,72,2020-07-04_13h25.00.031,retriever_ti,2020.1.3,MacIntel,60,Chrome,1440,900,453.898335,13,right,1.57533,sock,0,453.932275,453.932275,456.43163,0,4,4,4,1,5,3,1,html/resources/stimuli_practice_decision/02_canary.jpg,html/resources/stimuli_practice_decision/07_sock.jpg,canary,sock,,,,,,,,,,,,,,,,,,,,,,,,,,,,,,,,,,,,,,,,,,,,,,,,,,,,,,,,,,,,,,,,,,,,,,,,,,,,,
,,,,,72,2020-07-04_13h25.00.031,retriever_ti,2020.1.3,MacIntel,60,Chrome,1440,900,456.948485,14,NaN,NaN,No_response,2,456.96854,456.96854,459.46558,0,5,5,5,1,7,8,1,html/resources/stimuli_practice_decision/05_glasses.jpg,html/resources/stimuli_practice_decision/03_squirrel.jpg,glasses,squirrel,,,,,,,,,,,,,,,,,,,,,,,,,,,,,,,,,,,,,,,,,,,,,,,,,,,,,,,,,,,,,,,,,,,,,,,,,,,,,
,,,,,72,2020-07-04_13h25.00.031,retriever_ti,2020.1.3,MacIntel,60,Chrome,1440,900,459.98379,15,left,1.67941,canary,1,460.002895,460.002895,462.498955,0,6,6,6,1,5,4,1,html/resources/stimuli_practice_decision/02_canary.jpg,html/resources/stimuli_practice_decision/01_rabbit.jpg,canary,rabbit,,,,,,,,,,,,,,,,,,,,,,,,,,,,,,,,,,,,,,,,,,,,,,,,,,,,,,,,,,,,,,,,,,,,,,,,,,,,,
,,,,,72,2020-07-04_13h25.00.031,retriever_ti,2020.1.3,MacIntel,60,Chrome,1440,900,463.498995,16,left,1.17589,canary,1,463.533065,463.533065,466.031645,0,7,7,7,1,5,3,1,html/resources/stimuli_practice_decision/02_canary.jpg,html/resources/stimuli_practice_decision/07_sock.jpg,canary,sock,,,,,,,,,,,,,,,,,,,,,,,,,,,,,,,,,,,,,,,,,,,,,,,,,,,,,,,,,,,,,,,,,,,,,,,,,,,,,
,,,,,72,2020-07-04_13h25.00.031,retriever_ti,2020.1.3,MacIntel,60,Chrome,1440,900,,,,,,,,,,,,,,,,,,,,,,up,1,0.876465,1,0,0,0,0,1,html/resources/sequences_IDs/circle.png,circle ↑,square →,triangle ↓,← star ,up,,,,,,,,,,,,,,,,,,,,,,,,,,,,,,,,,,,,,,,,,,,,,,,,,,,,,,,,,,,,,,
,,,,,72,2020-07-04_13h25.00.031,retriever_ti,2020.1.3,MacIntel,60,Chrome,1440,900,,,,,,,,,,,,,,,,,,,,,,left,1,1.354275,1,0,1,1,2,1,html/resources/sequences_IDs/square1.png,star ↑,triangle →,circle ↓,← square,left,,,,,,,,,,,,,,,,,,,,,,,,,,,,,,,,,,,,,,,,,,,,,,,,,,,,,,,,,,,,,,
,,,,,72,2020-07-04_13h25.00.031,retriever_ti,2020.1.3,MacIntel,60,Chrome,1440,900,,,,,,,,,,,,,,,,,,,,,,down,1,1.05144,1,0,2,2,1,1,html/resources/sequences_IDs/star.png,square ↑,circle →,star ↓,← triangle,down,,,,,,,,,,,,,,,,,,,,,,,,,,,,,,,,,,,,,,,,,,,,,,,,,,,,,,,,,,,,,,
,,,,,72,2020-07-04_13h25.00.031,retriever_ti,2020.1.3,MacIntel,60,Chrome,1440,900,,,,,,,,,,,,,,,,,,,,,,down,1,1.99498,1,0,3,3,3,1,html/resources/sequences_IDs/triangle.png,star ↑,square →,triangle ↓,← circle,down,,,,,,,,,,,,,,,,,,,,,,,,,,,,,,,,,,,,,,,,,,,,,,,,,,,,,,,,,,,,,,
,,,,,72,2020-07-04_13h25.00.031,retriever_ti,2020.1.3,MacIntel,60,Chrome,1440,900,,,,,,,,,,,,,,,,,,,,,,,,,,,,,,,,,,,,,0,4.859905,1,0,1,0,1,,,,,,,,,,,,,,,,,,,,,,,,,,,,,,,,,,,,,,,,,,,,,,,,,,,,,,,
,,,,,72,2020-07-04_13h25.00.031,retriever_ti,2020.1.3,MacIntel,60,Chrome,1440,900,,,,,,,,,,,,,,,,,1,,,,,,,,,,,,,,,,,,,,,,,,,,,485.56624,1,right,0.895945,radio       ,2,10,-4,0,3,485.605235,485.605235,488.101695,0,0,0,0,1,1,6,2,giraffe     ,radio       ,html/resources/sequences_IDs/B/03_giraffe.jpg,html/resources/sequences_IDs/B/10_radio.jpg,3,10,1,1,4,2,2,8,0,72,,,,,,,,,,,,,,,,,,,,
,,,,,72,2020-07-04_13h25.00.031,retriever_ti,2020.1.3,MacIntel,60,Chrome,1440,900,,,,,,,,,,,,,,,,,1,,,,,,,,,,,,,,,,,,,,,,,,,,,488.736335,2,left,1.513795,hat           ,7,8,5,1,3,488.76828,488.76828,491.26636,0,1,1,1,1,2,7,2,hat           ,radio       ,html/resources/sequences_IDs/A/08_hat.jpg,html/resources/sequences_IDs/B/10_radio.jpg,8,10,3,2,4,2,6,8,0,72,,,,,,,,,,,,,,,,,,,,
,,,,,72,2020-07-04_13h25.00.031,retriever_ti,2020.1.3,MacIntel,60,Chrome,1440,900,,,,,,,,,,,,,,,,,1,,,,,,,,,,,,,,,,,,,,,,,,,,,491.884435,3,right,1.722655,dress         ,5,7,-1,0,0,491.919315,491.919315,494.417935,0,2,2,2,1,3,6,5,giraffe     ,dress         ,html/resources/sequences_IDs/B/03_giraffe.jpg,html/resources/sequences_IDs/A/07_dress.jpg,3,7,1,1,3,2,2,5,0,72,,,,,,,,,,,,,,,,,,,,
,,,,,72,2020-07-04_13h25.00.031,retriever_ti,2020.1.3,MacIntel,60,Chrome,1440,900,,,,,,,,,,,,,,,,,1,,,,,,,,,,,,,,,,,,,,,,,,,,,495.51947,4,NaN,NaN,No_response,NaN,NaN,NaN,2,2,495.537495,495.537495,498.03355,0,3,3,3,1,4,6,7,giraffe     ,hat           ,html/resources/sequences_IDs/B/03_giraffe.jpg,html/resources/sequences_IDs/A/08_hat.jpg,3,8,1,1,3,2,2,6,0,72,,,,,,,,,,,,,,,,,,,,
,,,,,72,2020-07-04_13h25.00.031,retriever_ti,2020.1.3,MacIntel,60,Chrome,1440,900,,,,,,,,,,,,,,,,,1,,,,,,,,,,,,,,,,,,,,,,,,,,,499.134115,5,right,1.27837,redfox      ,8,1,3,1,3,499.15416,499.15416,501.65042,0,4,4,4,1,5,5,8,dress         ,redfox      ,html/resources/sequences_IDs/A/07_dress.jpg,html/resources/sequences_IDs/B/01_redfox.jpg,7,1,3,2,1,1,5,1,0,72,,,,,,,,,,,,,,,,,,,,
,,,,,72,2020-07-04_13h25.00.031,retriever_ti,2020.1.3,MacIntel,60,Chrome,1440,900,,,,,,,,,,,,,,,,,1,,,,,,,,,,,,,,,,,,,,,,,,,,,502.252775,6,right,1.96474,dress         ,5,7,3,1,3,502.28937,502.28937,504.785325,0,5,5,5,1,6,2,5,radio       ,dress         ,html/resources/sequences_IDs/B/10_radio.jpg,html/resources/sequences_IDs/A/07_dress.jpg,10,7,4,2,3,2,8,5,0,72,,,,,,,,,,,,,,,,,,,,
,,,,,72,2020-07-04_13h25.00.031,retriever_ti,2020.1.3,MacIntel,60,Chrome,1440,900,,,,,,,,,,,,,,,,,1,,,,,,,,,,,,,,,,,,,,,,,,,,,505.40186,7,left,1.46663,hat           ,7,8,2,1,3,505.41941,505.41941,507.91908,0,6,6,6,1,7,7,5,hat           ,dress         ,html/resources/sequences_IDs/A/08_hat.jpg,html/resources/sequences_IDs/A/07_dress.jpg,8,7,3,2,3,2,6,5,0,72,,,,,,,,,,,,,,,,,,,,
,,,,,72,2020-07-04_13h25.00.031,retriever_ti,2020.1.3,MacIntel,60,Chrome,1440,900,,,,,,,,,,,,,,,,,1,,,,,,,,,,,,,,,,,,,,,,,,,,,508.53481,8,right,1.652535,parrot      ,4,5,-4,0,3,508.56897,508.56897,511.068915,0,7,7,7,1,8,8,4,redfox      ,parrot      ,html/resources/sequences_IDs/B/01_redfox.jpg,html/resources/sequences_IDs/B/05_parrot.jpg,1,5,1,1,2,1,1,4,0,72,,,,,,,,,,,,,,,,,,,,
,,,,,72,2020-07-04_13h25.00.031,retriever_ti,2020.1.3,MacIntel,60,Chrome,1440,900,,,,,,,,,,,,,,,,,1,,,,,,,,,,,,,,,,,,,,,,,,,,,511.68586,9,right,2.064895,redfox      ,8,1,1,1,1,511.71968,511.71968,514.21788,0,8,8,8,1,9,7,8,hat           ,redfox      ,html/resources/sequences_IDs/A/08_hat.jpg,html/resources/sequences_IDs/B/01_redfox.jpg,8,1,3,2,1,1,6,1,0,72,,,,,,,,,,,,,,,,,,,,
,,,,,72,2020-07-04_13h25.00.031,retriever_ti,2020.1.3,MacIntel,60,Chrome,1440,900,,,,,,,,,,,,,,,,,1,,,,,,,,,,,,,,,,,,,,,,,,,,,515.31891,10,NaN,NaN,No_response,NaN,NaN,NaN,2,2,515.33827,515.33827,517.823635,0,9,9,9,1,10,6,7,giraffe     ,hat           ,html/resources/sequences_IDs/B/03_giraffe.jpg,html/resources/sequences_IDs/A/08_hat.jpg,3,8,1,1,3,2,2,6,1,72,,,,,,,,,,,,,,,,,,,,
,,,,,72,2020-07-04_13h25.00.031,retriever_ti,2020.1.3,MacIntel,60,Chrome,1440,900,,,,,,,,,,,,,,,,,1,,,,,,,,,,,,,,,,,,,,,,,,,,,518.92169,11,right,1.007685,hat           ,7,8,-1,0,1,518.95645,518.95645,521.451805,0,10,10,10,1,11,8,7,redfox      ,hat           ,html/resources/sequences_IDs/B/01_redfox.jpg,html/resources/sequences_IDs/A/08_hat.jpg,1,8,1,1,3,2,1,6,1,72,,,,,,,,,,,,,,,,,,,,
,,,,,72,2020-07-04_13h25.00.031,retriever_ti,2020.1.3,MacIntel,60,Chrome,1440,900,,,,,,,,,,,,,,,,,1,,,,,,,,,,,,,,,,,,,,,,,,,,,522.553745,12,left,1.375445,clownfish     ,3,4,1,1,1,522.569915,522.569915,525.07037,0,11,11,11,1,12,3,2,clownfish     ,radio       ,html/resources/sequences_IDs/A/04_clownfish.jpg,html/resources/sequences_IDs/B/10_radio.jpg,4,10,2,1,4,2,3,8,0,72,,,,,,,,,,,,,,,,,,,,
,,,,,72,2020-07-04_13h25.00.031,retriever_ti,2020.1.3,MacIntel,60,Chrome,1440,900,,,,,,,,,,,,,,,,,1,,,,,,,,,,,,,,,,,,,,,,,,,,,526.16995,13,left,0.91238,clownfish     ,3,4,1,1,0,526.188775,526.188775,528.6868,0,12,12,12,1,13,3,2,clownfish     ,radio       ,html/resources/sequences_IDs/A/04_clownfish.jpg,html/resources/sequences_IDs/B/10_radio.jpg,4,10,2,1,4,2,3,8,1,72,,,,,,,,,,,,,,,,,,,,
,,,,,72,2020-07-04_13h25.00.031,retriever_ti,2020.1.3,MacIntel,60,Chrome,1440,900,,,,,,,,,,,,,,,,,1,,,,,,,,,,,,,,,,,,,,,,,,,,,529.78827,14,right,1.3297,hat           ,7,8,2,1,3,529.80625,529.80625,532.306725,0,13,13,13,1,14,5,7,dress         ,hat           ,html/resources/sequences_IDs/A/07_dress.jpg,html/resources/sequences_IDs/A/08_hat.jpg,7,8,3,2,3,2,5,6,0,72,,,,,,,,,,,,,,,,,,,,
,,,,,72,2020-07-04_13h25.00.031,retriever_ti,2020.1.3,MacIntel,60,Chrome,1440,900,,,,,,,,,,,,,,,,,1,,,,,,,,,,,,,,,,,,,,,,,,,,,532.922025,15,right,1.375705,redfox      ,8,1,4,1,3,532.958145,532.958145,535.453785,0,14,14,14,1,15,4,8,parrot      ,redfox      ,html/resources/sequences_IDs/B/05_parrot.jpg,html/resources/sequences_IDs/B/01_redfox.jpg,5,1,2,1,1,1,4,1,0,72,,,,,,,,,,,,,,,,,,,,
,,,,,72,2020-07-04_13h25.00.031,retriever_ti,2020.1.3,MacIntel,60,Chrome,1440,900,,,,,,,,,,,,,,,,,1,,,,,,,,,,,,,,,,,,,,,,,,,,,536.070765,16,left,1.710605,parrot      ,4,5,1,1,1,536.104215,536.104215,538.604165,0,15,15,15,1,16,4,3,parrot      ,clownfish     ,html/resources/sequences_IDs/B/05_parrot.jpg,html/resources/sequences_IDs/A/04_clownfish.jpg,5,4,2,1,2,1,4,3,0,72,,,,,,,,,,,,,,,,,,,,
,,,,,72,2020-07-04_13h25.00.031,retriever_ti,2020.1.3,MacIntel,60,Chrome,1440,900,,,,,,,,,,,,,,,,,1,,,,,,,,,,,,,,,,,,,,,,,,,,,539.704175,17,right,2.113165,parrot      ,4,5,1,1,1,539.723755,539.723755,542.219775,0,16,16,16,1,17,3,4,clownfish     ,parrot      ,html/resources/sequences_IDs/A/04_clownfish.jpg,html/resources/sequences_IDs/B/05_parrot.jpg,4,5,2,1,2,1,3,4,0,72,,,,,,,,,,,,,,,,,,,,
,,,,,72,2020-07-04_13h25.00.031,retriever_ti,2020.1.3,MacIntel,60,Chrome,1440,900,,,,,,,,,,,,,,,,,1,,,,,,,,,,,,,,,,,,,,,,,,,,,543.30919,18,right,1.325625,hat           ,7,8,6,1,3,543.338655,543.338655,545.83807,0,17,17,17,1,18,1,7,calculator    ,hat           ,html/resources/sequences_IDs/A/09_calculator.jpg,html/resources/sequences_IDs/A/08_hat.jpg,9,8,4,2,3,2,7,6,0,72,,,,,,,,,,,,,,,,,,,,
,,,,,72,2020-07-04_13h25.00.031,retriever_ti,2020.1.3,MacIntel,60,Chrome,1440,900,,,,,,,,,,,,,,,,,1,,,,,,,,,,,,,,,,,,,,,,,,,,,546.456545,19,left,2.27229,clownfish     ,3,4,2,1,3,546.491645,546.491645,548.989125,0,18,18,18,1,19,3,1,clownfish     ,calculator    ,html/resources/sequences_IDs/A/04_clownfish.jpg,html/resources/sequences_IDs/A/09_calculator.jpg,4,9,2,1,4,2,3,7,0,72,,,,,,,,,,,,,,,,,,,,
,,,,,72,2020-07-04_13h25.00.031,retriever_ti,2020.1.3,MacIntel,60,Chrome,1440,900,,,,,,,,,,,,,,,,,1,,,,,,,,,,,,,,,,,,,,,,,,,,,549.605385,20,left,1.920665,parrot      ,4,5,-1,0,0,549.64142,549.64142,552.137215,0,19,19,19,1,20,4,5,parrot      ,dress         ,html/resources/sequences_IDs/B/05_parrot.jpg,html/resources/sequences_IDs/A/07_dress.jpg,5,7,2,1,3,2,4,5,0,72,,,,,,,,,,,,,,,,,,,,
,,,,,72,2020-07-04_13h25.00.031,retriever_ti,2020.1.3,MacIntel,60,Chrome,1440,900,,,,,,,,,,,,,,,,,1,,,,,,,,,,,,,,,,,,,,,,,,,,,553.23776,21,right,1.38265,redfox      ,8,1,5,1,3,553.27264,553.27264,555.77219,0,20,20,20,1,21,3,8,clownfish     ,redfox      ,html/resources/sequences_IDs/A/04_clownfish.jpg,html/resources/sequences_IDs/B/01_redfox.jpg,4,1,2,1,1,1,3,1,0,72,,,,,,,,,,,,,,,,,,,,
,,,,,72,2020-07-04_13h25.00.031,retriever_ti,2020.1.3,MacIntel,60,Chrome,1440,900,,,,,,,,,,,,,,,,,1,,,,,,,,,,,,,,,,,,,,,,,,,,,556.39092,22,left,1.487465,redfox      ,8,1,3,1,3,556.4249,556.4249,558.922565,0,21,21,21,1,22,8,5,redfox      ,dress         ,html/resources/sequences_IDs/B/01_redfox.jpg,html/resources/sequences_IDs/A/07_dress.jpg,1,7,1,1,3,2,1,5,0,72,,,,,,,,,,,,,,,,,,,,
,,,,,72,2020-07-04_13h25.00.031,retriever_ti,2020.1.3,MacIntel,60,Chrome,1440,900,,,,,,,,,,,,,,,,,1,,,,,,,,,,,,,,,,,,,,,,,,,,,559.53943,23,right,0.92804,hat           ,7,8,5,1,3,559.57305,559.57305,562.07129,0,22,22,22,1,23,2,7,radio       ,hat           ,html/resources/sequences_IDs/B/10_radio.jpg,html/resources/sequences_IDs/A/08_hat.jpg,10,8,4,2,3,2,8,6,0,72,,,,,,,,,,,,,,,,,,,,
,,,,,72,2020-07-04_13h25.00.031,retriever_ti,2020.1.3,MacIntel,60,Chrome,1440,900,,,,,,,,,,,,,,,,,1,,,,,,,,,,,,,,,,,,,,,,,,,,,562.673105,24,left,1.510065,parrot      ,4,5,-2,0,3,562.708565,562.708565,565.205685,0,23,23,23,1,24,4,6,parrot      ,giraffe     ,html/resources/sequences_IDs/B/05_parrot.jpg,html/resources/sequences_IDs/B/03_giraffe.jpg,5,3,2,1,1,1,4,2,0,72,,,,,,,,,,,,,,,,,,,,
,,,,,72,2020-07-04_13h25.00.031,retriever_ti,2020.1.3,MacIntel,60,Chrome,1440,900,,,,,,,,,,,,,,,,,1,,,,,,,,,,,,,,,,,,,,,,,,,,,565.824515,25,right,1.65523,giraffe     ,6,3,1,1,1,565.86083,565.86083,568.35515,0,24,24,24,1,25,5,6,dress         ,giraffe     ,html/resources/sequences_IDs/A/07_dress.jpg,html/resources/sequences_IDs/B/03_giraffe.jpg,7,3,3,2,1,1,5,2,0,72,,,,,,,,,,,,,,,,,,,,
,,,,,72,2020-07-04_13h25.00.031,retriever_ti,2020.1.3,MacIntel,60,Chrome,1440,900,,,,,,,,,,,,,,,,,1,,,,,,,,,,,,,,,,,,,,,,,,,,,569.455495,26,left,1.242085,redfox      ,8,1,7,1,3,569.476655,569.476655,571.973145,0,25,25,25,1,26,8,1,redfox      ,calculator    ,html/resources/sequences_IDs/B/01_redfox.jpg,html/resources/sequences_IDs/A/09_calculator.jpg,1,9,1,1,4,2,1,7,0,72,,,,,,,,,,,,,,,,,,,,
,,,,,72,2020-07-04_13h25.00.031,retriever_ti,2020.1.3,MacIntel,60,Chrome,1440,900,,,,,,,,,,,,,,,,,1,,,,,,,,,,,,,,,,,,,,,,,,,,,572.59095,27,left,2.214615,giraffe     ,6,3,1,1,0,572.62364,572.62364,575.123355,0,26,26,26,1,27,6,5,giraffe     ,dress         ,html/resources/sequences_IDs/B/03_giraffe.jpg,html/resources/sequences_IDs/A/07_dress.jpg,3,7,1,1,3,2,2,5,1,72,,,,,,,,,,,,,,,,,,,,
,,,,,72,2020-07-04_13h25.00.031,retriever_ti,2020.1.3,MacIntel,60,Chrome,1440,900,,,,,,,,,,,,,,,,,1,,,,,,,,,,,,,,,,,,,,,,,,,,,576.224945,28,left,1.87147,redfox      ,8,1,6,1,3,576.24328,576.24328,578.74036,0,27,27,27,1,28,8,2,redfox      ,radio       ,html/resources/sequences_IDs/B/01_redfox.jpg,html/resources/sequences_IDs/B/10_radio.jpg,1,10,1,1,4,2,1,8,0,72,,,,,,,,,,,,,,,,,,,,
,,,,,72,2020-07-04_13h25.00.031,retriever_ti,2020.1.3,MacIntel,60,Chrome,1440,900,,,,,,,,,,,,,,,,,1,,,,,,,,,,,,,,,,,,,,,,,,,,,579.358025,29,right,1.63905,clownfish     ,3,4,1,1,1,579.390815,579.390815,581.89041,0,28,28,28,1,29,2,3,radio       ,clownfish     ,html/resources/sequences_IDs/B/10_radio.jpg,html/resources/sequences_IDs/A/04_clownfish.jpg,10,4,4,2,2,1,8,3,0,72,,,,,,,,,,,,,,,,,,,,
,,,,,72,2020-07-04_13h25.00.031,retriever_ti,2020.1.3,MacIntel,60,Chrome,1440,900,,,,,,,,,,,,,,,,,1,,,,,,,,,,,,,,,,,,,,,,,,,,,582.99232,30,right,1.655955,parrot      ,4,5,2,1,3,583.02448,583.02448,585.525025,0,29,29,29,1,30,2,4,radio       ,parrot      ,html/resources/sequences_IDs/B/10_radio.jpg,html/resources/sequences_IDs/B/05_parrot.jpg,10,5,4,2,2,1,8,4,0,72,,,,,,,,,,,,,,,,,,,,
,,,,,72,2020-07-04_13h25.00.031,retriever_ti,2020.1.3,MacIntel,60,Chrome,1440,900,,,,,,,,,,,,,,,,,1,,,,,,,,,,,,,,,,,,,,,,,,,,,586.141005,31,right,1.6761,clownfish     ,3,4,1,1,1,586.16042,586.16042,588.657595,0,30,30,30,1,31,2,3,radio       ,clownfish     ,html/resources/sequences_IDs/B/10_radio.jpg,html/resources/sequences_IDs/A/04_clownfish.jpg,10,4,4,2,2,1,8,3,0,72,,,,,,,,,,,,,,,,,,,,
,,,,,72,2020-07-04_13h25.00.031,retriever_ti,2020.1.3,MacIntel,60,Chrome,1440,900,,,,,,,,,,,,,,,,,1,,,,,,,,,,,,,,,,,,,,,,,,,,,589.75948,32,left,1.84223,clownfish     ,3,4,-2,0,3,589.777605,589.777605,592.273345,0,31,31,31,1,32,3,5,clownfish     ,dress         ,html/resources/sequences_IDs/A/04_clownfish.jpg,html/resources/sequences_IDs/A/07_dress.jpg,4,7,2,1,3,2,3,5,0,72,,,,,,,,,,,,,,,,,,,,
,,,,,72,2020-07-04_13h25.00.031,retriever_ti,2020.1.3,MacIntel,60,Chrome,1440,900,,,,,,,,,,,,,,,,,1,,,,,,,,,,,,,,,,,,,,,,,,,,,592.876955,33,left,1.46613,hat           ,7,8,-1,0,0,592.893205,592.893205,595.39147,0,32,32,32,1,33,7,8,hat           ,redfox      ,html/resources/sequences_IDs/A/08_hat.jpg,html/resources/sequences_IDs/B/01_redfox.jpg,8,1,3,2,1,1,6,1,0,72,,,,,,,,,,,,,,,,,,,,
,,,,,72,2020-07-04_13h25.00.031,retriever_ti,2020.1.3,MacIntel,60,Chrome,1440,900,,,,,,,,,,,,,,,,,1,,,,,,,,,,,,,,,,,,,,,,,,,,,596.493075,34,left,1.412705,hat           ,7,8,1,1,1,596.51159,596.51159,599.01102,0,33,33,33,1,34,7,6,hat           ,giraffe     ,html/resources/sequences_IDs/A/08_hat.jpg,html/resources/sequences_IDs/B/03_giraffe.jpg,8,3,3,2,1,1,6,2,0,72,,,,,,,,,,,,,,,,,,,,
,,,,,72,2020-07-04_13h25.00.031,retriever_ti,2020.1.3,MacIntel,60,Chrome,1440,900,,,,,,,,,,,,,,,,,1,,,,,,,,,,,,,,,,,,,,,,,,,,,600.109875,35,right,1.95574,giraffe     ,6,3,3,1,3,600.14241,600.14241,602.640795,0,34,34,34,1,35,3,6,clownfish     ,giraffe     ,html/resources/sequences_IDs/A/04_clownfish.jpg,html/resources/sequences_IDs/B/03_giraffe.jpg,4,3,2,1,1,1,3,2,0,72,,,,,,,,,,,,,,,,,,,,
,,,,,72,2020-07-04_13h25.00.031,retriever_ti,2020.1.3,MacIntel,60,Chrome,1440,900,,,,,,,,,,,,,,,,,1,,,,,,,,,,,,,,,,,,,,,,,,,,,603.25786,36,left,1.71028,parrot      ,4,5,1,1,1,603.29233,603.29233,605.79244,0,35,35,35,1,36,4,3,parrot      ,clownfish     ,html/resources/sequences_IDs/B/05_parrot.jpg,html/resources/sequences_IDs/A/04_clownfish.jpg,5,4,2,1,2,1,4,3,0,72,,,,,,,,,,,,,,,,,,,,
,,,,,72,2020-07-04_13h25.00.031,retriever_ti,2020.1.3,MacIntel,60,Chrome,1440,900,,,,,,,,,,,,,,,,,1,,,,,,,,,,,,,,,,,,,,,,,,,,,606.894535,37,NaN,NaN,No_response,NaN,NaN,NaN,2,2,606.91033,606.91033,609.40784,0,36,36,36,1,37,1,4,calculator    ,parrot      ,html/resources/sequences_IDs/A/09_calculator.jpg,html/resources/sequences_IDs/B/05_parrot.jpg,9,5,4,2,2,1,7,4,0,72,,,,,,,,,,,,,,,,,,,,
,,,,,72,2020-07-04_13h25.00.031,retriever_ti,2020.1.3,MacIntel,60,Chrome,1440,900,,,,,,,,,,,,,,,,,1,,,,,,,,,,,,,,,,,,,,,,,,,,,610.5109,38,left,1.01177,hat           ,7,8,1,1,1,610.528805,610.528805,613.02605,0,37,37,37,1,38,7,6,hat           ,giraffe     ,html/resources/sequences_IDs/A/08_hat.jpg,html/resources/sequences_IDs/B/03_giraffe.jpg,8,3,3,2,1,1,6,2,0,72,,,,,,,,,,,,,,,,,,,,
,,,,,72,2020-07-04_13h25.00.031,retriever_ti,2020.1.3,MacIntel,60,Chrome,1440,900,,,,,,,,,,,,,,,,,1,,,,,,,,,,,,,,,,,,,,,,,,,,,614.127935,39,left,1.88525,dress         ,5,7,3,1,3,614.143335,614.143335,616.643305,0,38,38,38,1,39,5,2,dress         ,radio       ,html/resources/sequences_IDs/A/07_dress.jpg,html/resources/sequences_IDs/B/10_radio.jpg,7,10,3,2,4,2,5,8,0,72,,,,,,,,,,,,,,,,,,,,
,,,,,72,2020-07-04_13h25.00.031,retriever_ti,2020.1.3,MacIntel,60,Chrome,1440,900,,,,,,,,,,,,,,,,,1,,,,,,,,,,,,,,,,,,,,,,,,,,,617.25904,40,right,1.224645,calculator    ,1,9,-1,0,0,617.293645,617.293645,619.79188,0,39,39,39,1,40,2,1,radio       ,calculator    ,html/resources/sequences_IDs/B/10_radio.jpg,html/resources/sequences_IDs/A/09_calculator.jpg,10,9,4,2,4,2,8,7,0,72,,,,,,,,,,,,,,,,,,,,
,,,,,72,2020-07-04_13h25.00.031,retriever_ti,2020.1.3,MacIntel,60,Chrome,1440,900,,,,,,,,,,,,,,,,,1,,,,,,,,,,,,,,,,,,,,,,,,,,,620.894715,41,left,1.11115,giraffe     ,6,3,3,1,3,620.92776,620.92776,623.426495,0,40,40,40,1,41,6,3,giraffe     ,clownfish     ,html/resources/sequences_IDs/B/03_giraffe.jpg,html/resources/sequences_IDs/A/04_clownfish.jpg,3,4,1,1,2,1,2,3,0,72,,,,,,,,,,,,,,,,,,,,
,,,,,72,2020-07-04_13h25.00.031,retriever_ti,2020.1.3,MacIntel,60,Chrome,1440,900,,,,,,,,,,,,,,,,,1,,,,,,,,,,,,,,,,,,,,,,,,,,,624.044225,42,right,1.57791,hat           ,7,8,-1,0,0,624.060475,624.060475,626.560345,0,41,41,41,1,42,8,7,redfox      ,hat           ,html/resources/sequences_IDs/B/01_redfox.jpg,html/resources/sequences_IDs/A/08_hat.jpg,1,8,1,1,3,2,1,6,0,72,,,,,,,,,,,,,,,,,,,,
,,,,,72,2020-07-04_13h25.00.031,retriever_ti,2020.1.3,MacIntel,60,Chrome,1440,900,,,,,,,,,,,,,,,,,1,,,,,,,,,,,,,,,,,,,,,,,,,,,627.66042,43,NaN,NaN,No_response,NaN,NaN,NaN,2,2,627.67738,627.67738,630.176975,0,42,42,42,1,43,5,4,dress         ,parrot      ,html/resources/sequences_IDs/A/07_dress.jpg,html/resources/sequences_IDs/B/05_parrot.jpg,7,5,3,2,2,1,5,4,0,72,,,,,,,,,,,,,,,,,,,,
,,,,,72,2020-07-04_13h25.00.031,retriever_ti,2020.1.3,MacIntel,60,Chrome,1440,900,,,,,,,,,,,,,,,,,1,,,,,,,,,,,,,,,,,,,,,,,,,,,631.27667,44,left,1.51978,parrot      ,4,5,-1,0,1,631.3115,631.3115,633.8095,0,43,43,43,1,44,4,5,parrot      ,dress         ,html/resources/sequences_IDs/B/05_parrot.jpg,html/resources/sequences_IDs/A/07_dress.jpg,5,7,2,1,3,2,4,5,1,72,,,,,,,,,,,,,,,,,,,,
,,,,,72,2020-07-04_13h25.00.031,retriever_ti,2020.1.3,MacIntel,60,Chrome,1440,900,,,,,,,,,,,,,,,,,1,,,,,,,,,,,,,,,,,,,,,,,,,,,634.91223,45,right,1.04305,hat           ,7,8,4,1,3,634.9471,634.9471,637.4443,0,44,44,44,1,45,3,7,clownfish     ,hat           ,html/resources/sequences_IDs/A/04_clownfish.jpg,html/resources/sequences_IDs/A/08_hat.jpg,4,8,2,1,3,2,3,6,0,72,,,,,,,,,,,,,,,,,,,,
,,,,,72,2020-07-04_13h25.00.031,retriever_ti,2020.1.3,MacIntel,60,Chrome,1440,900,,,,,,,,,,,,,,,,,1,,,,,,,,,,,,,,,,,,,,,,,,,,,638.062585,46,right,1.47955,giraffe     ,6,3,4,1,3,638.078,638.078,640.578125,0,45,45,45,1,46,2,6,radio       ,giraffe     ,html/resources/sequences_IDs/B/10_radio.jpg,html/resources/sequences_IDs/B/03_giraffe.jpg,10,3,4,2,1,1,8,2,0,72,,,,,,,,,,,,,,,,,,,,
,,,,,72,2020-07-04_13h25.00.031,retriever_ti,2020.1.3,MacIntel,60,Chrome,1440,900,,,,,,,,,,,,,,,,,1,,,,,,,,,,,,,,,,,,,,,,,,,,,641.195615,47,right,1.34687,parrot      ,4,5,1,1,1,641.228505,641.228505,643.726855,0,46,46,46,1,47,3,4,clownfish     ,parrot      ,html/resources/sequences_IDs/A/04_clownfish.jpg,html/resources/sequences_IDs/B/05_parrot.jpg,4,5,2,1,2,1,3,4,0,72,,,,,,,,,,,,,,,,,,,,
,,,,,72,2020-07-04_13h25.00.031,retriever_ti,2020.1.3,MacIntel,60,Chrome,1440,900,,,,,,,,,,,,,,,,,1,,,,,,,,,,,,,,,,,,,,,,,,,,,644.82975,48,left,0.946425,radio       ,2,10,1,1,1,644.848345,644.848345,647.345025,0,47,47,47,1,48,2,1,radio       ,calculator    ,html/resources/sequences_IDs/B/10_radio.jpg,html/resources/sequences_IDs/A/09_calculator.jpg,10,9,4,2,4,2,8,7,0,72,,,,,,,,,,,,,,,,,,,,
,,,,,72,2020-07-04_13h25.00.031,retriever_ti,2020.1.3,MacIntel,60,Chrome,1440,900,,,,,,,,,,,,,,,,,1,,,,,,,,,,,,,,,,,,,,,,,,,,,648.44663,49,left,1.18472,hat           ,7,8,6,1,3,648.478815,648.478815,650.977855,0,48,48,48,1,49,7,1,hat           ,calculator    ,html/resources/sequences_IDs/A/08_hat.jpg,html/resources/sequences_IDs/A/09_calculator.jpg,8,9,3,2,4,2,6,7,0,72,,,,,,,,,,,,,,,,,,,,
,,,,,72,2020-07-04_13h25.00.031,retriever_ti,2020.1.3,MacIntel,60,Chrome,1440,900,,,,,,,,,,,,,,,,,1,,,,,,,,,,,,,,,,,,,,,,,,,,,651.59487,50,left,1.231065,giraffe     ,6,3,2,1,3,651.629395,651.629395,654.128895,0,49,49,49,1,50,6,4,giraffe     ,parrot      ,html/resources/sequences_IDs/B/03_giraffe.jpg,html/resources/sequences_IDs/B/05_parrot.jpg,3,5,1,1,2,1,2,4,0,72,,,,,,,,,,,,,,,,,,,,
,,,,,72,2020-07-04_13h25.00.031,retriever_ti,2020.1.3,MacIntel,60,Chrome,1440,900,,,,,,,,,,,,,,,,,1,,,,,,,,,,,,,,,,,,,,,,,,,,,654.74684,51,left,1.611345,dress         ,5,7,-1,0,0,654.76544,654.76544,657.26238,0,50,50,50,1,51,5,6,dress         ,giraffe     ,html/resources/sequences_IDs/A/07_dress.jpg,html/resources/sequences_IDs/B/03_giraffe.jpg,7,3,3,2,1,1,5,2,0,72,,,,,,,,,,,,,,,,,,,,
,,,,,72,2020-07-04_13h25.00.031,retriever_ti,2020.1.3,MacIntel,60,Chrome,1440,900,,,,,,,,,,,,,,,,,1,,,,,,,,,,,,,,,,,,,,,,,,,,,658.364175,52,left,1.78628,parrot      ,4,5,-1,0,0,658.396565,658.396565,660.895945,0,51,51,51,1,52,4,5,parrot      ,dress         ,html/resources/sequences_IDs/B/05_parrot.jpg,html/resources/sequences_IDs/A/07_dress.jpg,5,7,2,1,3,2,4,5,0,72,,,,,,,,,,,,,,,,,,,,
,,,,,72,2020-07-04_13h25.00.031,retriever_ti,2020.1.3,MacIntel,60,Chrome,1440,900,,,,,,,,,,,,,,,,,1,,,,,,,,,,,,,,,,,,,,,,,,,,,661.998245,53,left,1.70218,giraffe     ,6,3,5,1,3,662.030145,662.030145,664.528245,0,52,52,52,1,53,6,1,giraffe     ,calculator    ,html/resources/sequences_IDs/B/03_giraffe.jpg,html/resources/sequences_IDs/A/09_calculator.jpg,3,9,1,1,4,2,2,7,0,72,,,,,,,,,,,,,,,,,,,,
,,,,,72,2020-07-04_13h25.00.031,retriever_ti,2020.1.3,MacIntel,60,Chrome,1440,900,,,,,,,,,,,,,,,,,1,,,,,,,,,,,,,,,,,,,,,,,,,,,665.131025,54,NaN,NaN,No_response,NaN,NaN,NaN,2,2,665.165845,665.165845,667.663825,0,53,53,53,1,54,8,7,redfox      ,hat           ,html/resources/sequences_IDs/B/01_redfox.jpg,html/resources/sequences_IDs/A/08_hat.jpg,1,8,1,1,3,2,1,6,0,72,,,,,,,,,,,,,,,,,,,,
,,,,,72,2020-07-04_13h25.00.031,retriever_ti,2020.1.3,MacIntel,60,Chrome,1440,900,,,,,,,,,,,,,,,,,1,,,,,,,,,,,,,,,,,,,,,,,,,,,668.76338,55,left,1.838125,clownfish     ,3,4,1,1,1,668.78303,668.78303,671.278965,0,54,54,54,1,55,3,2,clownfish     ,radio       ,html/resources/sequences_IDs/A/04_clownfish.jpg,html/resources/sequences_IDs/B/10_radio.jpg,4,10,2,1,4,2,3,8,0,72,,,,,,,,,,,,,,,,,,,,
,,,,,72,2020-07-04_13h25.00.031,retriever_ti,2020.1.3,MacIntel,60,Chrome,1440,900,,,,,,,,,,,,,,,,,1,,,,,,,,,,,,,,,,,,,,,,,,,,,672.380065,56,right,1.7969,dress         ,5,7,4,1,3,672.416045,672.416045,674.91446,0,55,55,55,1,56,1,5,calculator    ,dress         ,html/resources/sequences_IDs/A/09_calculator.jpg,html/resources/sequences_IDs/A/07_dress.jpg,9,7,4,2,3,2,7,5,0,72,,,,,,,,,,,,,,,,,,,,
,,,,,72,2020-07-04_13h25.00.031,retriever_ti,2020.1.3,MacIntel,60,Chrome,1440,900,,,,,,,,,,,,,,,,,1,,,,,,,,,,,,,,,,,,,,,,,,,,,675.531335,57,left,1.296215,parrot      ,4,5,3,1,3,675.56426,675.56426,678.062915,0,56,56,56,1,57,4,1,parrot      ,calculator    ,html/resources/sequences_IDs/B/05_parrot.jpg,html/resources/sequences_IDs/A/09_calculator.jpg,5,9,2,1,4,2,4,7,0,72,,,,,,,,,,,,,,,,,,,,
,,,,,72,2020-07-04_13h25.00.031,retriever_ti,2020.1.3,MacIntel,60,Chrome,1440,900,,,,,,,,,,,,,,,,,1,,,,,,,,,,,,,,,,,,,,,,,,,,,678.66537,58,left,0.99798,hat           ,7,8,3,1,3,678.68341,678.68341,681.179505,0,57,57,57,1,58,7,4,hat           ,parrot      ,html/resources/sequences_IDs/A/08_hat.jpg,html/resources/sequences_IDs/B/05_parrot.jpg,8,5,3,2,2,1,6,4,0,72,,,,,,,,,,,,,,,,,,,,
,,,,,72,2020-07-04_13h25.00.031,retriever_ti,2020.1.3,MacIntel,60,Chrome,1440,900,,,,,,,,,,,,,,,,,1,,,,,,,,,,,,,,,,,,,,,,,,,,,681.782385,59,right,1.445085,parrot      ,4,5,-1,0,0,681.798595,681.798595,684.2963,0,58,58,58,1,59,5,4,dress         ,parrot      ,html/resources/sequences_IDs/A/07_dress.jpg,html/resources/sequences_IDs/B/05_parrot.jpg,7,5,3,2,2,1,5,4,0,72,,,,,,,,,,,,,,,,,,,,
,,,,,72,2020-07-04_13h25.00.031,retriever_ti,2020.1.3,MacIntel,60,Chrome,1440,900,,,,,,,,,,,,,,,,,1,,,,,,,,,,,,,,,,,,,,,,,,,,,685.39887,60,right,0.84802,hat           ,7,8,3,1,3,685.434805,685.434805,687.931525,0,59,59,59,1,60,4,7,parrot      ,hat           ,html/resources/sequences_IDs/B/05_parrot.jpg,html/resources/sequences_IDs/A/08_hat.jpg,5,8,2,1,3,2,4,6,0,72,,,,,,,,,,,,,,,,,,,,
,,,,,72,2020-07-04_13h25.00.031,retriever_ti,2020.1.3,MacIntel,60,Chrome,1440,900,,,,,,,,,,,,,,,,,1,,,,,,,,,,,,,,,,,,,,,,,,,,,688.54946,61,right,1.17669,redfox      ,8,1,2,1,3,688.584105,688.584105,691.08021,0,60,60,60,1,61,6,8,giraffe     ,redfox      ,html/resources/sequences_IDs/B/03_giraffe.jpg,html/resources/sequences_IDs/B/01_redfox.jpg,3,1,1,1,1,1,2,1,0,72,,,,,,,,,,,,,,,,,,,,
,,,,,72,2020-07-04_13h25.00.031,retriever_ti,2020.1.3,MacIntel,60,Chrome,1440,900,,,,,,,,,,,,,,,,,1,,,,,,,,,,,,,,,,,,,,,,,,,,,691.69745,62,right,1.13353,hat           ,7,8,1,1,1,691.717965,691.717965,694.213595,0,61,61,61,1,62,6,7,giraffe     ,hat           ,html/resources/sequences_IDs/B/03_giraffe.jpg,html/resources/sequences_IDs/A/08_hat.jpg,3,8,1,1,3,2,2,6,0,72,,,,,,,,,,,,,,,,,,,,
,,,,,72,2020-07-04_13h25.00.031,retriever_ti,2020.1.3,MacIntel,60,Chrome,1440,900,,,,,,,,,,,,,,,,,1,,,,,,,,,,,,,,,,,,,,,,,,,,,695.316665,63,left,1.042785,hat           ,7,8,4,1,3,695.351895,695.351895,697.848825,0,62,62,62,1,63,7,3,hat           ,clownfish     ,html/resources/sequences_IDs/A/08_hat.jpg,html/resources/sequences_IDs/A/04_clownfish.jpg,8,4,3,2,2,1,6,3,0,72,,,,,,,,,,,,,,,,,,,,
,,,,,72,2020-07-04_13h25.00.031,retriever_ti,2020.1.3,MacIntel,60,Chrome,1440,900,,,,,,,,,,,,,,,,,1,,,,,,,,,,,,,,,,,,,,,,,,,,,698.466835,64,left,1.156735,parrot      ,4,5,2,1,3,698.4859,698.4859,700.981825,0,63,63,63,1,64,4,2,parrot      ,radio       ,html/resources/sequences_IDs/B/05_parrot.jpg,html/resources/sequences_IDs/B/10_radio.jpg,5,10,2,1,4,2,4,8,0,72,,,,,,,,,,,,,,,,,,,,
,,,,,72,2020-07-04_13h25.00.031,retriever_ti,2020.1.3,MacIntel,60,Chrome,1440,900,,,,,,,,,,,,,,,,,1,,,,,,,,,,,,,,,,,,,,,,,,,,,701.59813,65,right,1.498075,clownfish     ,3,4,2,1,3,701.618775,701.618775,704.115475,0,64,64,64,1,65,1,3,calculator    ,clownfish     ,html/resources/sequences_IDs/A/09_calculator.jpg,html/resources/sequences_IDs/A/04_clownfish.jpg,9,4,4,2,2,1,7,3,0,72,,,,,,,,,,,,,,,,,,,,
,,,,,72,2020-07-04_13h25.00.031,retriever_ti,2020.1.3,MacIntel,60,Chrome,1440,900,,,,,,,,,,,,,,,,,1,,,,,,,,,,,,,,,,,,,,,,,,,,,704.73237,66,right,0.90305,redfox      ,8,1,7,1,3,704.74963,704.74963,707.249145,0,65,65,65,1,66,1,8,calculator    ,redfox      ,html/resources/sequences_IDs/A/09_calculator.jpg,html/resources/sequences_IDs/B/01_redfox.jpg,9,1,4,2,1,1,7,1,0,72,,,,,,,,,,,,,,,,,,,,
,,,,,72,2020-07-04_13h25.00.031,retriever_ti,2020.1.3,MacIntel,60,Chrome,1440,900,,,,,,,,,,,,,,,,,1,,,,,,,,,,,,,,,,,,,,,,,,,,,707.86587,67,left,1.184815,redfox      ,8,1,2,1,3,707.89953,707.89953,710.399745,0,66,66,66,1,67,8,6,redfox      ,giraffe     ,html/resources/sequences_IDs/B/01_redfox.jpg,html/resources/sequences_IDs/B/03_giraffe.jpg,1,3,1,1,1,1,1,2,0,72,,,,,,,,,,,,,,,,,,,,
,,,,,72,2020-07-04_13h25.00.031,retriever_ti,2020.1.3,MacIntel,60,Chrome,1440,900,,,,,,,,,,,,,,,,,1,,,,,,,,,,,,,,,,,,,,,,,,,,,711.017315,68,left,1.86008,dress         ,5,7,2,1,3,711.035055,711.035055,713.531635,0,67,67,67,1,68,5,3,dress         ,clownfish     ,html/resources/sequences_IDs/A/07_dress.jpg,html/resources/sequences_IDs/A/04_clownfish.jpg,7,4,3,2,2,1,5,3,0,72,,,,,,,,,,,,,,,,,,,,
,,,,,72,2020-07-04_13h25.00.031,retriever_ti,2020.1.3,MacIntel,60,Chrome,1440,900,,,,,,,,,,,,,,,,,1,,,,,,,,,,,,,,,,,,,,,,,,,,,714.133365,69,right,1.804775,giraffe     ,6,3,5,1,3,714.150455,714.150455,716.650155,0,68,68,68,1,69,1,6,calculator    ,giraffe     ,html/resources/sequences_IDs/A/09_calculator.jpg,html/resources/sequences_IDs/B/03_giraffe.jpg,9,3,4,2,1,1,7,2,0,72,,,,,,,,,,,,,,,,,,,,
,,,,,72,2020-07-04_13h25.00.031,retriever_ti,2020.1.3,MacIntel,60,Chrome,1440,900,,,,,,,,,,,,,,,,,1,,,,,,,,,,,,,,,,,,,,,,,,,,,717.26577,70,right,0.9388,redfox      ,8,1,6,1,3,717.300275,717.300275,719.833765,0,69,69,69,1,70,2,8,radio       ,redfox      ,html/resources/sequences_IDs/B/10_radio.jpg,html/resources/sequences_IDs/B/01_redfox.jpg,10,1,4,2,1,1,8,1,0,72,,,,,,,,,,,,,,,,,,,,
,,,,,72,2020-07-04_13h25.00.031,retriever_ti,2020.1.3,MacIntel,60,Chrome,1440,900,,,,,,,,,,,,,,,,,1,,,,,,,,,,,,,,,,,,,,,,,,,,,720.450355,71,right,1.335675,parrot      ,4,5,1,1,0,720.467965,720.467965,722.9668,0,70,70,70,1,71,3,4,clownfish     ,parrot      ,html/resources/sequences_IDs/A/04_clownfish.jpg,html/resources/sequences_IDs/B/05_parrot.jpg,4,5,2,1,2,1,3,4,1,72,,,,,,,,,,,,,,,,,,,,
,,,,,72,2020-07-04_13h25.00.031,retriever_ti,2020.1.3,MacIntel,60,Chrome,1440,900,,,,,,,,,,,,,,,,,1,,,,,,,,,,,,,,,,,,,,,,,,,,,724.066935,72,right,1.62297,radio       ,2,10,1,1,1,724.101055,724.101055,726.6001,0,71,71,71,1,72,1,2,calculator    ,radio       ,html/resources/sequences_IDs/A/09_calculator.jpg,html/resources/sequences_IDs/B/10_radio.jpg,9,10,4,2,4,2,7,8,0,72,,,,,,,,,,,,,,,,,,,,
,,,,,72,2020-07-04_13h25.00.031,retriever_ti,2020.1.3,MacIntel,60,Chrome,1440,900,,,,,,,,,,,,,,,,,1,,,,,,,,,,,,,,,,,,,,,,,,,,,727.70116,73,NaN,NaN,No_response,NaN,NaN,NaN,2,2,727.73753,727.73753,730.232865,0,72,72,72,1,73,6,5,giraffe     ,dress         ,html/resources/sequences_IDs/B/03_giraffe.jpg,html/resources/sequences_IDs/A/07_dress.jpg,3,7,1,1,3,2,2,5,0,72,,,,,,,,,,,,,,,,,,,,
,,,,,72,2020-07-04_13h25.00.031,retriever_ti,2020.1.3,MacIntel,60,Chrome,1440,900,,,,,,,,,,,,,,,,,1,,,,,,,,,,,,,,,,,,,,,,,,,,,731.33579,74,right,1.03724,radio       ,2,10,1,1,0,731.354395,731.354395,733.850395,0,73,73,73,1,74,1,2,calculator    ,radio       ,html/resources/sequences_IDs/A/09_calculator.jpg,html/resources/sequences_IDs/B/10_radio.jpg,9,10,4,2,4,2,7,8,1,72,,,,,,,,,,,,,,,,,,,,
,,,,,72,2020-07-04_13h25.00.031,retriever_ti,2020.1.3,MacIntel,60,Chrome,1440,900,,,,,,,,,,,,,,,,,1,,,,,,,,,,,,,,,,,,,,,,,,,,,734.95321,75,left,1.50554,redfox      ,8,1,5,1,3,734.988765,734.988765,737.48332,0,74,74,74,1,75,8,3,redfox      ,clownfish     ,html/resources/sequences_IDs/B/01_redfox.jpg,html/resources/sequences_IDs/A/04_clownfish.jpg,1,4,1,1,2,1,1,3,0,72,,,,,,,,,,,,,,,,,,,,
,,,,,72,2020-07-04_13h25.00.031,retriever_ti,2020.1.3,MacIntel,60,Chrome,1440,900,,,,,,,,,,,,,,,,,1,,,,,,,,,,,,,,,,,,,,,,,,,,,738.08658,76,right,1.352275,radio       ,2,10,1,1,1,738.102165,738.102165,740.60146,0,75,75,75,1,76,1,2,calculator    ,radio       ,html/resources/sequences_IDs/A/09_calculator.jpg,html/resources/sequences_IDs/B/10_radio.jpg,9,10,4,2,4,2,7,8,0,72,,,,,,,,,,,,,,,,,,,,
,,,,,72,2020-07-04_13h25.00.031,retriever_ti,2020.1.3,MacIntel,60,Chrome,1440,900,,,,,,,,,,,,,,,,,1,,,,,,,,,,,,,,,,,,,,,,,,,,,741.70244,77,left,1.301055,dress         ,5,7,4,1,3,741.718565,741.718565,744.21714,0,76,76,76,1,77,5,1,dress         ,calculator    ,html/resources/sequences_IDs/A/07_dress.jpg,html/resources/sequences_IDs/A/09_calculator.jpg,7,9,3,2,4,2,5,7,0,72,,,,,,,,,,,,,,,,,,,,
,,,,,72,2020-07-04_13h25.00.031,retriever_ti,2020.1.3,MacIntel,60,Chrome,1440,900,,,,,,,,,,,,,,,,,,,,,,,,,,,,,,,,,,,,,0,1.459765,,,,,,,,,,,,,,,,,,,,,,,,,,,,,,,,,,,,,,,,,0,0,0,0,1,,,,,,,,,,,,,,,
,,,,,72,2020-07-04_13h25.00.031,retriever_ti,2020.1.3,MacIntel,60,Chrome,1440,900,,,,,,,,,,,,,,,,,2,,,,,,,,,,,,,,,,,,,,,,,,,,,755.842295,78,left,0.960155,radio       ,2,10,-1,0,0,755.87147,755.87147,758.370415,0,0,0,0,1,78,2,3,radio       ,clownfish     ,html/resources/sequences_IDs/B/10_radio.jpg,html/resources/sequences_IDs/A/04_clownfish.jpg,10,4,4,2,2,1,8,3,0,72,,,,,,,,,,,,,,,,,,,,
,,,,,72,2020-07-04_13h25.00.031,retriever_ti,2020.1.3,MacIntel,60,Chrome,1440,900,,,,,,,,,,,,,,,,,2,,,,,,,,,,,,,,,,,,,,,,,,,,,759.470525,79,right,0.842105,redfox      ,8,1,3,1,3,759.504435,759.504435,762.00318,0,1,1,1,1,79,5,8,dress         ,redfox      ,html/resources/sequences_IDs/A/07_dress.jpg,html/resources/sequences_IDs/B/01_redfox.jpg,7,1,3,2,1,1,5,1,0,72,,,,,,,,,,,,,,,,,,,,
,,,,,72,2020-07-04_13h25.00.031,retriever_ti,2020.1.3,MacIntel,60,Chrome,1440,900,,,,,,,,,,,,,,,,,2,,,,,,,,,,,,,,,,,,,,,,,,,,,762.6214,80,left,1.145325,giraffe     ,6,3,5,1,3,762.63642,762.63642,765.137595,0,2,2,2,1,80,6,1,giraffe     ,calculator    ,html/resources/sequences_IDs/B/03_giraffe.jpg,html/resources/sequences_IDs/A/09_calculator.jpg,3,9,1,1,4,2,2,7,0,72,,,,,,,,,,,,,,,,,,,,
,,,,,72,2020-07-04_13h25.00.031,retriever_ti,2020.1.3,MacIntel,60,Chrome,1440,900,,,,,,,,,,,,,,,,,2,,,,,,,,,,,,,,,,,,,,,,,,,,,765.75367,81,left,1.66811,giraffe     ,6,3,1,1,1,765.789475,765.789475,768.285455,0,3,3,3,1,81,6,5,giraffe     ,dress         ,html/resources/sequences_IDs/B/03_giraffe.jpg,html/resources/sequences_IDs/A/07_dress.jpg,3,7,1,1,3,2,2,5,0,72,,,,,,,,,,,,,,,,,,,,
,,,,,72,2020-07-04_13h25.00.031,retriever_ti,2020.1.3,MacIntel,60,Chrome,1440,900,,,,,,,,,,,,,,,,,2,,,,,,,,,,,,,,,,,,,,,,,,,,,769.38676,82,left,0.976735,redfox      ,8,1,3,1,3,769.40393,769.40393,771.902255,0,4,4,4,1,82,8,5,redfox      ,dress         ,html/resources/sequences_IDs/B/01_redfox.jpg,html/resources/sequences_IDs/A/07_dress.jpg,1,7,1,1,3,2,1,5,0,72,,,,,,,,,,,,,,,,,,,,
,,,,,72,2020-07-04_13h25.00.031,retriever_ti,2020.1.3,MacIntel,60,Chrome,1440,900,,,,,,,,,,,,,,,,,2,,,,,,,,,,,,,,,,,,,,,,,,,,,772.50486,83,right,0.76857,hat           ,7,8,3,1,3,772.541455,772.541455,775.03612,0,5,5,5,1,83,4,7,parrot      ,hat           ,html/resources/sequences_IDs/B/05_parrot.jpg,html/resources/sequences_IDs/A/08_hat.jpg,5,8,2,1,3,2,4,6,0,72,,,,,,,,,,,,,,,,,,,,
,,,,,72,2020-07-04_13h25.00.031,retriever_ti,2020.1.3,MacIntel,60,Chrome,1440,900,,,,,,,,,,,,,,,,,2,,,,,,,,,,,,,,,,,,,,,,,,,,,775.637815,84,right,1.167165,giraffe     ,6,3,5,1,3,775.655655,775.655655,778.15336,0,6,6,6,1,84,1,6,calculator    ,giraffe     ,html/resources/sequences_IDs/A/09_calculator.jpg,html/resources/sequences_IDs/B/03_giraffe.jpg,9,3,4,2,1,1,7,2,0,72,,,,,,,,,,,,,,,,,,,,
,,,,,72,2020-07-04_13h25.00.031,retriever_ti,2020.1.3,MacIntel,60,Chrome,1440,900,,,,,,,,,,,,,,,,,2,,,,,,,,,,,,,,,,,,,,,,,,,,,778.756045,85,right,2.042045,giraffe     ,6,3,3,1,3,778.789545,778.789545,781.28768,0,7,7,7,1,85,3,6,clownfish     ,giraffe     ,html/resources/sequences_IDs/A/04_clownfish.jpg,html/resources/sequences_IDs/B/03_giraffe.jpg,4,3,2,1,1,1,3,2,0,72,,,,,,,,,,,,,,,,,,,,
,,,,,72,2020-07-04_13h25.00.031,retriever_ti,2020.1.3,MacIntel,60,Chrome,1440,900,,,,,,,,,,,,,,,,,2,,,,,,,,,,,,,,,,,,,,,,,,,,,781.90495,86,left,0.94021,hat           ,7,8,1,1,1,781.939545,781.939545,784.436865,0,8,8,8,1,86,7,6,hat           ,giraffe     ,html/resources/sequences_IDs/A/08_hat.jpg,html/resources/sequences_IDs/B/03_giraffe.jpg,8,3,3,2,1,1,6,2,0,72,,,,,,,,,,,,,,,,,,,,
,,,,,72,2020-07-04_13h25.00.031,retriever_ti,2020.1.3,MacIntel,60,Chrome,1440,900,,,,,,,,,,,,,,,,,2,,,,,,,,,,,,,,,,,,,,,,,,,,,785.5391,87,right,0.872535,redfox      ,8,1,7,1,3,785.55768,785.55768,788.05494,0,9,9,9,1,87,1,8,calculator    ,redfox      ,html/resources/sequences_IDs/A/09_calculator.jpg,html/resources/sequences_IDs/B/01_redfox.jpg,9,1,4,2,1,1,7,1,0,72,,,,,,,,,,,,,,,,,,,,
,,,,,72,2020-07-04_13h25.00.031,retriever_ti,2020.1.3,MacIntel,60,Chrome,1440,900,,,,,,,,,,,,,,,,,2,,,,,,,,,,,,,,,,,,,,,,,,,,,788.671375,88,right,1.579145,clownfish     ,3,4,2,1,3,788.708085,788.708085,791.203705,0,10,10,10,1,88,1,3,calculator    ,clownfish     ,html/resources/sequences_IDs/A/09_calculator.jpg,html/resources/sequences_IDs/A/04_clownfish.jpg,9,4,4,2,2,1,7,3,0,72,,,,,,,,,,,,,,,,,,,,
,,,,,72,2020-07-04_13h25.00.031,retriever_ti,2020.1.3,MacIntel,60,Chrome,1440,900,,,,,,,,,,,,,,,,,2,,,,,,,,,,,,,,,,,,,,,,,,,,,791.82096,89,left,1.028745,hat           ,7,8,2,1,3,791.85573,791.85573,794.35389,0,11,11,11,1,89,7,5,hat           ,dress         ,html/resources/sequences_IDs/A/08_hat.jpg,html/resources/sequences_IDs/A/07_dress.jpg,8,7,3,2,3,2,6,5,0,72,,,,,,,,,,,,,,,,,,,,
,,,,,72,2020-07-04_13h25.00.031,retriever_ti,2020.1.3,MacIntel,60,Chrome,1440,900,,,,,,,,,,,,,,,,,2,,,,,,,,,,,,,,,,,,,,,,,,,,,794.97188,90,left,1.204845,redfox      ,8,1,7,1,3,794.989175,794.989175,797.4891,0,12,12,12,1,90,8,1,redfox      ,calculator    ,html/resources/sequences_IDs/B/01_redfox.jpg,html/resources/sequences_IDs/A/09_calculator.jpg,1,9,1,1,4,2,1,7,0,72,,,,,,,,,,,,,,,,,,,,
,,,,,72,2020-07-04_13h25.00.031,retriever_ti,2020.1.3,MacIntel,60,Chrome,1440,900,,,,,,,,,,,,,,,,,2,,,,,,,,,,,,,,,,,,,,,,,,,,,798.091275,91,left,1.323385,dress         ,5,7,4,1,3,798.125905,798.125905,800.62214,0,13,13,13,1,91,5,1,dress         ,calculator    ,html/resources/sequences_IDs/A/07_dress.jpg,html/resources/sequences_IDs/A/09_calculator.jpg,7,9,3,2,4,2,5,7,0,72,,,,,,,,,,,,,,,,,,,,
,,,,,72,2020-07-04_13h25.00.031,retriever_ti,2020.1.3,MacIntel,60,Chrome,1440,900,,,,,,,,,,,,,,,,,2,,,,,,,,,,,,,,,,,,,,,,,,,,,801.239545,92,left,1.22697,redfox      ,8,1,4,1,3,801.27284,801.27284,803.771455,0,14,14,14,1,92,8,4,redfox      ,parrot      ,html/resources/sequences_IDs/B/01_redfox.jpg,html/resources/sequences_IDs/B/05_parrot.jpg,1,5,1,1,2,1,1,4,0,72,,,,,,,,,,,,,,,,,,,,
,,,,,72,2020-07-04_13h25.00.031,retriever_ti,2020.1.3,MacIntel,60,Chrome,1440,900,,,,,,,,,,,,,,,,,2,,,,,,,,,,,,,,,,,,,,,,,,,,,804.39192,93,right,1.359075,parrot      ,4,5,2,1,3,804.409105,804.409105,806.906065,0,15,15,15,1,93,2,4,radio       ,parrot      ,html/resources/sequences_IDs/B/10_radio.jpg,html/resources/sequences_IDs/B/05_parrot.jpg,10,5,4,2,2,1,8,4,0,72,,,,,,,,,,,,,,,,,,,,
,,,,,72,2020-07-04_13h25.00.031,retriever_ti,2020.1.3,MacIntel,60,Chrome,1440,900,,,,,,,,,,,,,,,,,2,,,,,,,,,,,,,,,,,,,,,,,,,,,807.52207,94,right,2.06951,parrot      ,4,5,1,1,0,807.556895,807.556895,810.05499,0,16,16,16,1,94,3,4,clownfish     ,parrot      ,html/resources/sequences_IDs/A/04_clownfish.jpg,html/resources/sequences_IDs/B/05_parrot.jpg,4,5,2,1,2,1,3,4,1,72,,,,,,,,,,,,,,,,,,,,
,,,,,72,2020-07-04_13h25.00.031,retriever_ti,2020.1.3,MacIntel,60,Chrome,1440,900,,,,,,,,,,,,,,,,,2,,,,,,,,,,,,,,,,,,,,,,,,,,,811.15811,95,NaN,NaN,No_response,NaN,NaN,NaN,2,2,811.17708,811.17708,813.673275,0,17,17,17,1,95,4,5,parrot      ,dress         ,html/resources/sequences_IDs/B/05_parrot.jpg,html/resources/sequences_IDs/A/07_dress.jpg,5,7,2,1,3,2,4,5,0,72,,,,,,,,,,,,,,,,,,,,
,,,,,72,2020-07-04_13h25.00.031,retriever_ti,2020.1.3,MacIntel,60,Chrome,1440,900,,,,,,,,,,,,,,,,,2,,,,,,,,,,,,,,,,,,,,,,,,,,,814.77319,96,left,0.98273,parrot      ,4,5,2,1,3,814.807165,814.807165,817.30554,0,18,18,18,1,96,4,2,parrot      ,radio       ,html/resources/sequences_IDs/B/05_parrot.jpg,html/resources/sequences_IDs/B/10_radio.jpg,5,10,2,1,4,2,4,8,0,72,,,,,,,,,,,,,,,,,,,,
,,,,,72,2020-07-04_13h25.00.031,retriever_ti,2020.1.3,MacIntel,60,Chrome,1440,900,,,,,,,,,,,,,,,,,2,,,,,,,,,,,,,,,,,,,,,,,,,,,817.907775,97,left,0.776825,clownfish     ,3,4,1,1,1,817.92647,817.92647,820.42368,0,19,19,19,1,97,3,2,clownfish     ,radio       ,html/resources/sequences_IDs/A/04_clownfish.jpg,html/resources/sequences_IDs/B/10_radio.jpg,4,10,2,1,4,2,3,8,0,72,,,,,,,,,,,,,,,,,,,,
,,,,,72,2020-07-04_13h25.00.031,retriever_ti,2020.1.3,MacIntel,60,Chrome,1440,900,,,,,,,,,,,,,,,,,2,,,,,,,,,,,,,,,,,,,,,,,,,,,821.52544,98,left,1.03334,redfox      ,8,1,5,1,3,821.557365,821.557365,824.056915,0,20,20,20,1,98,8,3,redfox      ,clownfish     ,html/resources/sequences_IDs/B/01_redfox.jpg,html/resources/sequences_IDs/A/04_clownfish.jpg,1,4,1,1,2,1,1,3,0,72,,,,,,,,,,,,,,,,,,,,
,,,,,72,2020-07-04_13h25.00.031,retriever_ti,2020.1.3,MacIntel,60,Chrome,1440,900,,,,,,,,,,,,,,,,,2,,,,,,,,,,,,,,,,,,,,,,,,,,,824.67342,99,left,1.459525,clownfish     ,3,4,-1,0,0,824.70926,824.70926,827.207745,0,21,21,21,1,99,3,4,clownfish     ,parrot      ,html/resources/sequences_IDs/A/04_clownfish.jpg,html/resources/sequences_IDs/B/05_parrot.jpg,4,5,2,1,2,1,3,4,0,72,,,,,,,,,,,,,,,,,,,,
,,,,,72,2020-07-04_13h25.00.031,retriever_ti,2020.1.3,MacIntel,60,Chrome,1440,900,,,,,,,,,,,,,,,,,2,,,,,,,,,,,,,,,,,,,,,,,,,,,828.30928,100,left,1.34435,parrot      ,4,5,-1,0,0,828.32511,828.32511,830.823215,0,22,22,22,1,100,4,5,parrot      ,dress         ,html/resources/sequences_IDs/B/05_parrot.jpg,html/resources/sequences_IDs/A/07_dress.jpg,5,7,2,1,3,2,4,5,0,72,,,,,,,,,,,,,,,,,,,,
,,,,,72,2020-07-04_13h25.00.031,retriever_ti,2020.1.3,MacIntel,60,Chrome,1440,900,,,,,,,,,,,,,,,,,2,,,,,,,,,,,,,,,,,,,,,,,,,,,831.924935,101,left,1.70282,clownfish     ,3,4,1,1,1,831.95832,831.95832,834.45808,0,23,23,23,1,101,3,2,clownfish     ,radio       ,html/resources/sequences_IDs/A/04_clownfish.jpg,html/resources/sequences_IDs/B/10_radio.jpg,4,10,2,1,4,2,3,8,0,72,,,,,,,,,,,,,,,,,,,,
,,,,,72,2020-07-04_13h25.00.031,retriever_ti,2020.1.3,MacIntel,60,Chrome,1440,900,,,,,,,,,,,,,,,,,2,,,,,,,,,,,,,,,,,,,,,,,,,,,835.55827,102,left,0.79897,radio       ,2,10,1,1,1,835.577655,835.577655,838.07363,0,24,24,24,1,102,2,1,radio       ,calculator    ,html/resources/sequences_IDs/B/10_radio.jpg,html/resources/sequences_IDs/A/09_calculator.jpg,10,9,4,2,4,2,8,7,0,72,,,,,,,,,,,,,,,,,,,,
,,,,,72,2020-07-04_13h25.00.031,retriever_ti,2020.1.3,MacIntel,60,Chrome,1440,900,,,,,,,,,,,,,,,,,2,,,,,,,,,,,,,,,,,,,,,,,,,,,839.1765,103,left,1.612725,clownfish     ,3,4,-2,0,3,839.194715,839.194715,841.690465,0,25,25,25,1,103,3,5,clownfish     ,dress         ,html/resources/sequences_IDs/A/04_clownfish.jpg,html/resources/sequences_IDs/A/07_dress.jpg,4,7,2,1,3,2,3,5,0,72,,,,,,,,,,,,,,,,,,,,
,,,,,72,2020-07-04_13h25.00.031,retriever_ti,2020.1.3,MacIntel,60,Chrome,1440,900,,,,,,,,,,,,,,,,,2,,,,,,,,,,,,,,,,,,,,,,,,,,,842.293415,104,left,1.135565,parrot      ,4,5,3,1,3,842.326325,842.326325,844.82531,0,26,26,26,1,104,4,1,parrot      ,calculator    ,html/resources/sequences_IDs/B/05_parrot.jpg,html/resources/sequences_IDs/A/09_calculator.jpg,5,9,2,1,4,2,4,7,0,72,,,,,,,,,,,,,,,,,,,,
,,,,,72,2020-07-04_13h25.00.031,retriever_ti,2020.1.3,MacIntel,60,Chrome,1440,900,,,,,,,,,,,,,,,,,2,,,,,,,,,,,,,,,,,,,,,,,,,,,845.443495,105,left,1.33824,hat           ,7,8,-1,0,0,845.462355,845.462355,847.958875,0,27,27,27,1,105,7,8,hat           ,redfox      ,html/resources/sequences_IDs/A/08_hat.jpg,html/resources/sequences_IDs/B/01_redfox.jpg,8,1,3,2,1,1,6,1,0,72,,,,,,,,,,,,,,,,,,,,
,,,,,72,2020-07-04_13h25.00.031,retriever_ti,2020.1.3,MacIntel,60,Chrome,1440,900,,,,,,,,,,,,,,,,,2,,,,,,,,,,,,,,,,,,,,,,,,,,,849.05899,106,right,0.832365,parrot      ,4,5,3,1,3,849.076745,849.076745,851.575385,0,28,28,28,1,106,1,4,calculator    ,parrot      ,html/resources/sequences_IDs/A/09_calculator.jpg,html/resources/sequences_IDs/B/05_parrot.jpg,9,5,4,2,2,1,7,4,0,72,,,,,,,,,,,,,,,,,,,,
,,,,,72,2020-07-04_13h25.00.031,retriever_ti,2020.1.3,MacIntel,60,Chrome,1440,900,,,,,,,,,,,,,,,,,2,,,,,,,,,,,,,,,,,,,,,,,,,,,852.177735,107,left,0.669285,redfox      ,8,1,6,1,3,852.19259,852.19259,854.69299,0,29,29,29,1,107,8,2,redfox      ,radio       ,html/resources/sequences_IDs/B/01_redfox.jpg,html/resources/sequences_IDs/B/10_radio.jpg,1,10,1,1,4,2,1,8,0,72,,,,,,,,,,,,,,,,,,,,
,,,,,72,2020-07-04_13h25.00.031,retriever_ti,2020.1.3,MacIntel,60,Chrome,1440,900,,,,,,,,,,,,,,,,,2,,,,,,,,,,,,,,,,,,,,,,,,,,,855.30997,108,right,1.18198,giraffe     ,6,3,4,1,3,855.34473,855.34473,857.842795,0,30,30,30,1,108,2,6,radio       ,giraffe     ,html/resources/sequences_IDs/B/10_radio.jpg,html/resources/sequences_IDs/B/03_giraffe.jpg,10,3,4,2,1,1,8,2,0,72,,,,,,,,,,,,,,,,,,,,
,,,,,72,2020-07-04_13h25.00.031,retriever_ti,2020.1.3,MacIntel,60,Chrome,1440,900,,,,,,,,,,,,,,,,,2,,,,,,,,,,,,,,,,,,,,,,,,,,,858.46143,109,right,0.9867,hat           ,7,8,4,1,3,858.480345,858.480345,860.976575,0,31,31,31,1,109,3,7,clownfish     ,hat           ,html/resources/sequences_IDs/A/04_clownfish.jpg,html/resources/sequences_IDs/A/08_hat.jpg,4,8,2,1,3,2,3,6,0,72,,,,,,,,,,,,,,,,,,,,
,,,,,72,2020-07-04_13h25.00.031,retriever_ti,2020.1.3,MacIntel,60,Chrome,1440,900,,,,,,,,,,,,,,,,,2,,,,,,,,,,,,,,,,,,,,,,,,,,,861.59444,110,right,0.822635,hat           ,7,8,6,1,3,861.62714,861.62714,864.126585,0,32,32,32,1,110,1,7,calculator    ,hat           ,html/resources/sequences_IDs/A/09_calculator.jpg,html/resources/sequences_IDs/A/08_hat.jpg,9,8,4,2,3,2,7,6,0,72,,,,,,,,,,,,,,,,,,,,
,,,,,72,2020-07-04_13h25.00.031,retriever_ti,2020.1.3,MacIntel,60,Chrome,1440,900,,,,,,,,,,,,,,,,,2,,,,,,,,,,,,,,,,,,,,,,,,,,,864.743305,111,left,0.838965,redfox      ,8,1,2,1,3,864.76306,864.76306,867.260625,0,33,33,33,1,111,8,6,redfox      ,giraffe     ,html/resources/sequences_IDs/B/01_redfox.jpg,html/resources/sequences_IDs/B/03_giraffe.jpg,1,3,1,1,1,1,1,2,0,72,,,,,,,,,,,,,,,,,,,,
,,,,,72,2020-07-04_13h25.00.031,retriever_ti,2020.1.3,MacIntel,60,Chrome,1440,900,,,,,,,,,,,,,,,,,2,,,,,,,,,,,,,,,,,,,,,,,,,,,867.87622,112,left,1.56182,hat           ,7,8,3,1,3,867.91134,867.91134,870.40926,0,34,34,34,1,112,7,4,hat           ,parrot      ,html/resources/sequences_IDs/A/08_hat.jpg,html/resources/sequences_IDs/B/05_parrot.jpg,8,5,3,2,2,1,6,4,0,72,,,,,,,,,,,,,,,,,,,,
,,,,,72,2020-07-04_13h25.00.031,retriever_ti,2020.1.3,MacIntel,60,Chrome,1440,900,,,,,,,,,,,,,,,,,2,,,,,,,,,,,,,,,,,,,,,,,,,,,871.012045,113,left,1.0033,hat           ,7,8,1,1,1,871.047485,871.047485,873.543855,0,35,35,35,1,113,7,6,hat           ,giraffe     ,html/resources/sequences_IDs/A/08_hat.jpg,html/resources/sequences_IDs/B/03_giraffe.jpg,8,3,3,2,1,1,6,2,0,72,,,,,,,,,,,,,,,,,,,,
,,,,,72,2020-07-04_13h25.00.031,retriever_ti,2020.1.3,MacIntel,60,Chrome,1440,900,,,,,,,,,,,,,,,,,2,,,,,,,,,,,,,,,,,,,,,,,,,,,874.64448,114,right,0.73974,redfox      ,8,1,5,1,3,874.66109,874.66109,877.16087,0,36,36,36,1,114,3,8,clownfish     ,redfox      ,html/resources/sequences_IDs/A/04_clownfish.jpg,html/resources/sequences_IDs/B/01_redfox.jpg,4,1,2,1,1,1,3,1,0,72,,,,,,,,,,,,,,,,,,,,
,,,,,72,2020-07-04_13h25.00.031,retriever_ti,2020.1.3,MacIntel,60,Chrome,1440,900,,,,,,,,,,,,,,,,,2,,,,,,,,,,,,,,,,,,,,,,,,,,,877.778245,115,right,0.713995,hat           ,7,8,2,1,3,877.797765,877.797765,880.29399,0,37,37,37,1,115,5,7,dress         ,hat           ,html/resources/sequences_IDs/A/07_dress.jpg,html/resources/sequences_IDs/A/08_hat.jpg,7,8,3,2,3,2,5,6,0,72,,,,,,,,,,,,,,,,,,,,
,,,,,72,2020-07-04_13h25.00.031,retriever_ti,2020.1.3,MacIntel,60,Chrome,1440,900,,,,,,,,,,,,,,,,,2,,,,,,,,,,,,,,,,,,,,,,,,,,,880.91332,116,left,1.1393,hat           ,7,8,6,1,3,880.93158,880.93158,883.426685,0,38,38,38,1,116,7,1,hat           ,calculator    ,html/resources/sequences_IDs/A/08_hat.jpg,html/resources/sequences_IDs/A/09_calculator.jpg,8,9,3,2,4,2,6,7,0,72,,,,,,,,,,,,,,,,,,,,
,,,,,72,2020-07-04_13h25.00.031,retriever_ti,2020.1.3,MacIntel,60,Chrome,1440,900,,,,,,,,,,,,,,,,,2,,,,,,,,,,,,,,,,,,,,,,,,,,,884.028795,117,left,1.33444,clownfish     ,3,4,1,1,0,884.06442,884.06442,886.56438,0,39,39,39,1,117,3,2,clownfish     ,radio       ,html/resources/sequences_IDs/A/04_clownfish.jpg,html/resources/sequences_IDs/B/10_radio.jpg,4,10,2,1,4,2,3,8,1,72,,,,,,,,,,,,,,,,,,,,
,,,,,72,2020-07-04_13h25.00.031,retriever_ti,2020.1.3,MacIntel,60,Chrome,1440,900,,,,,,,,,,,,,,,,,2,,,,,,,,,,,,,,,,,,,,,,,,,,,887.66165,118,right,1.618645,clownfish     ,3,4,-2,0,3,887.69886,887.69886,890.195205,0,40,40,40,1,118,5,3,dress         ,clownfish     ,html/resources/sequences_IDs/A/07_dress.jpg,html/resources/sequences_IDs/A/04_clownfish.jpg,7,4,3,2,2,1,5,3,0,72,,,,,,,,,,,,,,,,,,,,
,,,,,72,2020-07-04_13h25.00.031,retriever_ti,2020.1.3,MacIntel,60,Chrome,1440,900,,,,,,,,,,,,,,,,,2,,,,,,,,,,,,,,,,,,,,,,,,,,,890.8136,119,left,1.11034,parrot      ,4,5,-1,0,1,890.845715,890.845715,893.34406,0,41,41,41,1,119,4,5,parrot      ,dress         ,html/resources/sequences_IDs/B/05_parrot.jpg,html/resources/sequences_IDs/A/07_dress.jpg,5,7,2,1,3,2,4,5,1,72,,,,,,,,,,,,,,,,,,,,
,,,,,72,2020-07-04_13h25.00.031,retriever_ti,2020.1.3,MacIntel,60,Chrome,1440,900,,,,,,,,,,,,,,,,,2,,,,,,,,,,,,,,,,,,,,,,,,,,,894.445595,120,right,1.17905,redfox      ,8,1,2,1,3,894.481925,894.481925,896.97762,0,42,42,42,1,120,6,8,giraffe     ,redfox      ,html/resources/sequences_IDs/B/03_giraffe.jpg,html/resources/sequences_IDs/B/01_redfox.jpg,3,1,1,1,1,1,2,1,0,72,,,,,,,,,,,,,,,,,,,,
,,,,,72,2020-07-04_13h25.00.031,retriever_ti,2020.1.3,MacIntel,60,Chrome,1440,900,,,,,,,,,,,,,,,,,2,,,,,,,,,,,,,,,,,,,,,,,,,,,897.579355,121,right,1.556475,parrot      ,4,5,-1,0,0,897.59638,897.59638,900.09576,0,43,43,43,1,121,5,4,dress         ,parrot      ,html/resources/sequences_IDs/A/07_dress.jpg,html/resources/sequences_IDs/B/05_parrot.jpg,7,5,3,2,2,1,5,4,0,72,,,,,,,,,,,,,,,,,,,,
,,,,,72,2020-07-04_13h25.00.031,retriever_ti,2020.1.3,MacIntel,60,Chrome,1440,900,,,,,,,,,,,,,,,,,2,,,,,,,,,,,,,,,,,,,,,,,,,,,901.196455,122,right,0.830355,hat           ,7,8,1,1,0,901.23062,901.23062,903.728255,0,44,44,44,1,122,6,7,giraffe     ,hat           ,html/resources/sequences_IDs/B/03_giraffe.jpg,html/resources/sequences_IDs/A/08_hat.jpg,3,8,1,1,3,2,2,6,1,72,,,,,,,,,,,,,,,,,,,,
,,,,,72,2020-07-04_13h25.00.031,retriever_ti,2020.1.3,MacIntel,60,Chrome,1440,900,,,,,,,,,,,,,,,,,2,,,,,,,,,,,,,,,,,,,,,,,,,,,904.829525,123,left,0.96471,parrot      ,4,5,-2,0,3,904.849245,904.849245,907.345015,0,45,45,45,1,123,4,6,parrot      ,giraffe     ,html/resources/sequences_IDs/B/05_parrot.jpg,html/resources/sequences_IDs/B/03_giraffe.jpg,5,3,2,1,1,1,4,2,0,72,,,,,,,,,,,,,,,,,,,,
,,,,,72,2020-07-04_13h25.00.031,retriever_ti,2020.1.3,MacIntel,60,Chrome,1440,900,,,,,,,,,,,,,,,,,2,,,,,,,,,,,,,,,,,,,,,,,,,,,907.962495,124,left,1.0457,giraffe     ,6,3,1,1,0,907.983095,907.983095,910.47989,0,46,46,46,1,124,6,5,giraffe     ,dress         ,html/resources/sequences_IDs/B/03_giraffe.jpg,html/resources/sequences_IDs/A/07_dress.jpg,3,7,1,1,3,2,2,5,1,72,,,,,,,,,,,,,,,,,,,,
,,,,,72,2020-07-04_13h25.00.031,retriever_ti,2020.1.3,MacIntel,60,Chrome,1440,900,,,,,,,,,,,,,,,,,2,,,,,,,,,,,,,,,,,,,,,,,,,,,911.58168,125,left,1.48478,radio       ,2,10,1,1,1,911.600025,911.600025,914.095895,0,47,47,47,1,125,2,1,radio       ,calculator    ,html/resources/sequences_IDs/B/10_radio.jpg,html/resources/sequences_IDs/A/09_calculator.jpg,10,9,4,2,4,2,8,7,0,72,,,,,,,,,,,,,,,,,,,,
,,,,,72,2020-07-04_13h25.00.031,retriever_ti,2020.1.3,MacIntel,60,Chrome,1440,900,,,,,,,,,,,,,,,,,2,,,,,,,,,,,,,,,,,,,,,,,,,,,915.1969,126,left,0.873745,hat           ,7,8,5,1,3,915.231,915.231,917.72989,0,48,48,48,1,126,7,2,hat           ,radio       ,html/resources/sequences_IDs/A/08_hat.jpg,html/resources/sequences_IDs/B/10_radio.jpg,8,10,3,2,4,2,6,8,0,72,,,,,,,,,,,,,,,,,,,,
,,,,,72,2020-07-04_13h25.00.031,retriever_ti,2020.1.3,MacIntel,60,Chrome,1440,900,,,,,,,,,,,,,,,,,2,,,,,,,,,,,,,,,,,,,,,,,,,,,918.347085,127,left,1.773625,giraffe     ,6,3,3,1,3,918.367625,918.367625,920.86305,0,49,49,49,1,127,6,3,giraffe     ,clownfish     ,html/resources/sequences_IDs/B/03_giraffe.jpg,html/resources/sequences_IDs/A/04_clownfish.jpg,3,4,1,1,2,1,2,3,0,72,,,,,,,,,,,,,,,,,,,,
,,,,,72,2020-07-04_13h25.00.031,retriever_ti,2020.1.3,MacIntel,60,Chrome,1440,900,,,,,,,,,,,,,,,,,2,,,,,,,,,,,,,,,,,,,,,,,,,,,921.46526,128,left,0.80204,giraffe     ,6,3,2,1,3,921.499145,921.499145,923.99616,0,50,50,50,1,128,6,4,giraffe     ,parrot      ,html/resources/sequences_IDs/B/03_giraffe.jpg,html/resources/sequences_IDs/B/05_parrot.jpg,3,5,1,1,2,1,2,4,0,72,,,,,,,,,,,,,,,,,,,,
,,,,,72,2020-07-04_13h25.00.031,retriever_ti,2020.1.3,MacIntel,60,Chrome,1440,900,,,,,,,,,,,,,,,,,2,,,,,,,,,,,,,,,,,,,,,,,,,,,924.614085,129,left,0.71983,giraffe     ,6,3,4,1,3,924.63141,924.63141,927.12972,0,51,51,51,1,129,6,2,giraffe     ,radio       ,html/resources/sequences_IDs/B/03_giraffe.jpg,html/resources/sequences_IDs/B/10_radio.jpg,3,10,1,1,4,2,2,8,0,72,,,,,,,,,,,,,,,,,,,,
,,,,,72,2020-07-04_13h25.00.031,retriever_ti,2020.1.3,MacIntel,60,Chrome,1440,900,,,,,,,,,,,,,,,,,2,,,,,,,,,,,,,,,,,,,,,,,,,,,927.731255,130,left,0.696865,giraffe     ,6,3,1,1,1,927.75196,927.75196,930.24661,0,52,52,52,1,130,6,5,giraffe     ,dress         ,html/resources/sequences_IDs/B/03_giraffe.jpg,html/resources/sequences_IDs/A/07_dress.jpg,3,7,1,1,3,2,2,5,0,72,,,,,,,,,,,,,,,,,,,,
,,,,,72,2020-07-04_13h25.00.031,retriever_ti,2020.1.3,MacIntel,60,Chrome,1440,900,,,,,,,,,,,,,,,,,2,,,,,,,,,,,,,,,,,,,,,,,,,,,931.34969,131,left,0.79271,redfox      ,8,1,1,1,0,931.365475,931.365475,933.864725,0,53,53,53,1,131,8,7,redfox      ,hat           ,html/resources/sequences_IDs/B/01_redfox.jpg,html/resources/sequences_IDs/A/08_hat.jpg,1,8,1,1,3,2,1,6,1,72,,,,,,,,,,,,,,,,,,,,
,,,,,72,2020-07-04_13h25.00.031,retriever_ti,2020.1.3,MacIntel,60,Chrome,1440,900,,,,,,,,,,,,,,,,,2,,,,,,,,,,,,,,,,,,,,,,,,,,,934.96643,132,right,2.18483,clownfish     ,3,4,-1,0,0,934.9831,934.9831,937.482545,0,54,54,54,1,132,4,3,parrot      ,clownfish     ,html/resources/sequences_IDs/B/05_parrot.jpg,html/resources/sequences_IDs/A/04_clownfish.jpg,5,4,2,1,2,1,4,3,0,72,,,,,,,,,,,,,,,,,,,,
,,,,,72,2020-07-04_13h25.00.031,retriever_ti,2020.1.3,MacIntel,60,Chrome,1440,900,,,,,,,,,,,,,,,,,2,,,,,,,,,,,,,,,,,,,,,,,,,,,938.583645,133,right,0.639035,redfox      ,8,1,6,1,3,938.59894,938.59894,941.097435,0,55,55,55,1,133,2,8,radio       ,redfox      ,html/resources/sequences_IDs/B/10_radio.jpg,html/resources/sequences_IDs/B/01_redfox.jpg,10,1,4,2,1,1,8,1,0,72,,,,,,,,,,,,,,,,,,,,
,,,,,72,2020-07-04_13h25.00.031,retriever_ti,2020.1.3,MacIntel,60,Chrome,1440,900,,,,,,,,,,,,,,,,,2,,,,,,,,,,,,,,,,,,,,,,,,,,,941.71489,134,left,1.315715,redfox      ,8,1,1,1,1,941.73272,941.73272,944.232435,0,56,56,56,1,134,8,7,redfox      ,hat           ,html/resources/sequences_IDs/B/01_redfox.jpg,html/resources/sequences_IDs/A/08_hat.jpg,1,8,1,1,3,2,1,6,0,72,,,,,,,,,,,,,,,,,,,,
,,,,,72,2020-07-04_13h25.00.031,retriever_ti,2020.1.3,MacIntel,60,Chrome,1440,900,,,,,,,,,,,,,,,,,2,,,,,,,,,,,,,,,,,,,,,,,,,,,945.33234,135,right,2.10598,giraffe     ,6,3,1,1,1,945.3523,945.3523,947.849815,0,57,57,57,1,135,5,6,dress         ,giraffe     ,html/resources/sequences_IDs/A/07_dress.jpg,html/resources/sequences_IDs/B/03_giraffe.jpg,7,3,3,2,1,1,5,2,0,72,,,,,,,,,,,,,,,,,,,,
,,,,,72,2020-07-04_13h25.00.031,retriever_ti,2020.1.3,MacIntel,60,Chrome,1440,900,,,,,,,,,,,,,,,,,2,,,,,,,,,,,,,,,,,,,,,,,,,,,948.95087,136,right,1.05219,radio       ,2,10,1,1,0,948.9855,948.9855,951.48141,0,58,58,58,1,136,1,2,calculator    ,radio       ,html/resources/sequences_IDs/A/09_calculator.jpg,html/resources/sequences_IDs/B/10_radio.jpg,9,10,4,2,4,2,7,8,1,72,,,,,,,,,,,,,,,,,,,,
,,,,,72,2020-07-04_13h25.00.031,retriever_ti,2020.1.3,MacIntel,60,Chrome,1440,900,,,,,,,,,,,,,,,,,2,,,,,,,,,,,,,,,,,,,,,,,,,,,952.582685,137,left,0.63079,redfox      ,8,1,1,1,1,952.616285,952.616285,955.114855,0,59,59,59,1,137,8,7,redfox      ,hat           ,html/resources/sequences_IDs/B/01_redfox.jpg,html/resources/sequences_IDs/A/08_hat.jpg,1,8,1,1,3,2,1,6,0,72,,,,,,,,,,,,,,,,,,,,
,,,,,72,2020-07-04_13h25.00.031,retriever_ti,2020.1.3,MacIntel,60,Chrome,1440,900,,,,,,,,,,,,,,,,,2,,,,,,,,,,,,,,,,,,,,,,,,,,,956.215825,138,left,1.068375,hat           ,7,8,4,1,3,956.250445,956.250445,958.7486,0,60,60,60,1,138,7,3,hat           ,clownfish     ,html/resources/sequences_IDs/A/08_hat.jpg,html/resources/sequences_IDs/A/04_clownfish.jpg,8,4,3,2,2,1,6,3,0,72,,,,,,,,,,,,,,,,,,,,
,,,,,72,2020-07-04_13h25.00.031,retriever_ti,2020.1.3,MacIntel,60,Chrome,1440,900,,,,,,,,,,,,,,,,,2,,,,,,,,,,,,,,,,,,,,,,,,,,,959.36796,139,right,1.576925,dress         ,5,7,3,1,3,959.40181,959.40181,961.90007,0,61,61,61,1,139,2,5,radio       ,dress         ,html/resources/sequences_IDs/B/10_radio.jpg,html/resources/sequences_IDs/A/07_dress.jpg,10,7,4,2,3,2,8,5,0,72,,,,,,,,,,,,,,,,,,,,
,,,,,72,2020-07-04_13h25.00.031,retriever_ti,2020.1.3,MacIntel,60,Chrome,1440,900,,,,,,,,,,,,,,,,,2,,,,,,,,,,,,,,,,,,,,,,,,,,,962.51674,140,right,0.950025,redfox      ,8,1,1,1,1,962.55346,962.55346,965.050215,0,62,62,62,1,140,7,8,hat           ,redfox      ,html/resources/sequences_IDs/A/08_hat.jpg,html/resources/sequences_IDs/B/01_redfox.jpg,8,1,3,2,1,1,6,1,0,72,,,,,,,,,,,,,,,,,,,,
,,,,,72,2020-07-04_13h25.00.031,retriever_ti,2020.1.3,MacIntel,60,Chrome,1440,900,,,,,,,,,,,,,,,,,2,,,,,,,,,,,,,,,,,,,,,,,,,,,966.152115,141,right,0.808035,redfox      ,8,1,4,1,3,966.16774,966.16774,968.665965,0,63,63,63,1,141,4,8,parrot      ,redfox      ,html/resources/sequences_IDs/B/05_parrot.jpg,html/resources/sequences_IDs/B/01_redfox.jpg,5,1,2,1,1,1,4,1,0,72,,,,,,,,,,,,,,,,,,,,
,,,,,72,2020-07-04_13h25.00.031,retriever_ti,2020.1.3,MacIntel,60,Chrome,1440,900,,,,,,,,,,,,,,,,,2,,,,,,,,,,,,,,,,,,,,,,,,,,,969.26932,142,right,0.87994,parrot      ,4,5,-1,0,0,969.287045,969.287045,971.78418,0,64,64,64,1,142,5,4,dress         ,parrot      ,html/resources/sequences_IDs/A/07_dress.jpg,html/resources/sequences_IDs/B/05_parrot.jpg,7,5,3,2,2,1,5,4,0,72,,,,,,,,,,,,,,,,,,,,
,,,,,72,2020-07-04_13h25.00.031,retriever_ti,2020.1.3,MacIntel,60,Chrome,1440,900,,,,,,,,,,,,,,,,,2,,,,,,,,,,,,,,,,,,,,,,,,,,,972.886525,143,right,0.64654,giraffe     ,6,3,1,1,1,972.920905,972.920905,975.41768,0,65,65,65,1,143,5,6,dress         ,giraffe     ,html/resources/sequences_IDs/A/07_dress.jpg,html/resources/sequences_IDs/B/03_giraffe.jpg,7,3,3,2,1,1,5,2,0,72,,,,,,,,,,,,,,,,,,,,
,,,,,72,2020-07-04_13h25.00.031,retriever_ti,2020.1.3,MacIntel,60,Chrome,1440,900,,,,,,,,,,,,,,,,,2,,,,,,,,,,,,,,,,,,,,,,,,,,,976.51763,144,right,1.98772,hat           ,7,8,1,1,1,976.551905,976.551905,979.05012,0,66,66,66,1,144,6,7,giraffe     ,hat           ,html/resources/sequences_IDs/B/03_giraffe.jpg,html/resources/sequences_IDs/A/08_hat.jpg,3,8,1,1,3,2,2,6,0,72,,,,,,,,,,,,,,,,,,,,
,,,,,72,2020-07-04_13h25.00.031,retriever_ti,2020.1.3,MacIntel,60,Chrome,1440,900,,,,,,,,,,,,,,,,,2,,,,,,,,,,,,,,,,,,,,,,,,,,,980.150595,145,right,0.68733,hat           ,7,8,1,1,1,980.171075,980.171075,982.666895,0,67,67,67,1,145,6,7,giraffe     ,hat           ,html/resources/sequences_IDs/B/03_giraffe.jpg,html/resources/sequences_IDs/A/08_hat.jpg,3,8,1,1,3,2,2,6,0,72,,,,,,,,,,,,,,,,,,,,
,,,,,72,2020-07-04_13h25.00.031,retriever_ti,2020.1.3,MacIntel,60,Chrome,1440,900,,,,,,,,,,,,,,,,,2,,,,,,,,,,,,,,,,,,,,,,,,,,,983.76995,146,left,2.13616,clownfish     ,3,4,2,1,3,983.7856,983.7856,986.28473,0,68,68,68,1,146,3,1,clownfish     ,calculator    ,html/resources/sequences_IDs/A/04_clownfish.jpg,html/resources/sequences_IDs/A/09_calculator.jpg,4,9,2,1,4,2,3,7,0,72,,,,,,,,,,,,,,,,,,,,
,,,,,72,2020-07-04_13h25.00.031,retriever_ti,2020.1.3,MacIntel,60,Chrome,1440,900,,,,,,,,,,,,,,,,,2,,,,,,,,,,,,,,,,,,,,,,,,,,,986.90398,147,right,0.58123,clownfish     ,3,4,1,1,1,986.93518,986.93518,989.435675,0,69,69,69,1,147,2,3,radio       ,clownfish     ,html/resources/sequences_IDs/B/10_radio.jpg,html/resources/sequences_IDs/A/04_clownfish.jpg,10,4,4,2,2,1,8,3,0,72,,,,,,,,,,,,,,,,,,,,
,,,,,72,2020-07-04_13h25.00.031,retriever_ti,2020.1.3,MacIntel,60,Chrome,1440,900,,,,,,,,,,,,,,,,,2,,,,,,,,,,,,,,,,,,,,,,,,,,,990.535405,148,right,0.8614,dress         ,5,7,4,1,3,990.572605,990.572605,993.069015,0,70,70,70,1,148,1,5,calculator    ,dress         ,html/resources/sequences_IDs/A/09_calculator.jpg,html/resources/sequences_IDs/A/07_dress.jpg,9,7,4,2,3,2,7,5,0,72,,,,,,,,,,,,,,,,,,,,
,,,,,72,2020-07-04_13h25.00.031,retriever_ti,2020.1.3,MacIntel,60,Chrome,1440,900,,,,,,,,,,,,,,,,,2,,,,,,,,,,,,,,,,,,,,,,,,,,,993.686485,149,right,1.35243,radio       ,2,10,-3,0,3,993.70563,993.70563,996.202405,0,71,71,71,1,149,5,2,dress         ,radio       ,html/resources/sequences_IDs/A/07_dress.jpg,html/resources/sequences_IDs/B/10_radio.jpg,7,10,3,2,4,2,5,8,0,72,,,,,,,,,,,,,,,,,,,,
,,,,,72,2020-07-04_13h25.00.031,retriever_ti,2020.1.3,MacIntel,60,Chrome,1440,900,,,,,,,,,,,,,,,,,2,,,,,,,,,,,,,,,,,,,,,,,,,,,996.821125,150,right,0.954895,hat           ,7,8,5,1,3,996.856,996.856,999.35297,0,72,72,72,1,150,2,7,radio       ,hat           ,html/resources/sequences_IDs/B/10_radio.jpg,html/resources/sequences_IDs/A/08_hat.jpg,10,8,4,2,3,2,8,6,0,72,,,,,,,,,,,,,,,,,,,,
,,,,,72,2020-07-04_13h25.00.031,retriever_ti,2020.1.3,MacIntel,60,Chrome,1440,900,,,,,,,,,,,,,,,,,2,,,,,,,,,,,,,,,,,,,,,,,,,,,999.968685,151,right,0.869385,radio       ,2,10,1,1,1,999.98637,999.98637,1002.484865,0,73,73,73,1,151,1,2,calculator    ,radio       ,html/resources/sequences_IDs/A/09_calculator.jpg,html/resources/sequences_IDs/B/10_radio.jpg,9,10,4,2,4,2,7,8,0,72,,,,,,,,,,,,,,,,,,,,
,,,,,72,2020-07-04_13h25.00.031,retriever_ti,2020.1.3,MacIntel,60,Chrome,1440,900,,,,,,,,,,,,,,,,,2,,,,,,,,,,,,,,,,,,,,,,,,,,,1003.588075,152,left,1.81174,parrot      ,4,5,1,1,1,1003.603475,1003.603475,1006.103425,0,74,74,74,1,152,4,3,parrot      ,clownfish     ,html/resources/sequences_IDs/B/05_parrot.jpg,html/resources/sequences_IDs/A/04_clownfish.jpg,5,4,2,1,2,1,4,3,0,72,,,,,,,,,,,,,,,,,,,,
,,,,,72,2020-07-04_13h25.00.031,retriever_ti,2020.1.3,MacIntel,60,Chrome,1440,900,,,,,,,,,,,,,,,,,2,,,,,,,,,,,,,,,,,,,,,,,,,,,1007.2048,153,right,0.705265,radio       ,2,10,1,1,1,1007.223585,1007.223585,1009.718735,0,75,75,75,1,153,1,2,calculator    ,radio       ,html/resources/sequences_IDs/A/09_calculator.jpg,html/resources/sequences_IDs/B/10_radio.jpg,9,10,4,2,4,2,7,8,0,72,,,,,,,,,,,,,,,,,,,,
,,,,,72,2020-07-04_13h25.00.031,retriever_ti,2020.1.3,MacIntel,60,Chrome,1440,900,,,,,,,,,,,,,,,,,2,,,,,,,,,,,,,,,,,,,,,,,,,,,1010.82001,154,right,0.67078,parrot      ,4,5,1,1,1,1010.85406,1010.85406,1013.35371,0,76,76,76,1,154,3,4,clownfish     ,parrot      ,html/resources/sequences_IDs/A/04_clownfish.jpg,html/resources/sequences_IDs/B/05_parrot.jpg,4,5,2,1,2,1,3,4,0,72,,,,,,,,,,,,,,,,,,,,
,,,,,72,2020-07-04_13h25.00.031,retriever_ti,2020.1.3,MacIntel,60,Chrome,1440,900,,,,,,,,,,,,,,,,,,,,,,,,,,,,,,,,,,,,,0,3.259755,,,,,,,,,,,,,,,,,,,,,,,,,,,,,,,,,,,,,,,,,1,0,1,0,1,,,,,,,,,,,,,,,
,,,,,72,2020-07-04_13h25.00.031,retriever_ti,2020.1.3,MacIntel,60,Chrome,1440,900,,,,,,,,,,,,,,,,,3,,,,,,,,,,,,,,,,,,,,,,,,,,,1023.08323,155,left,0.87178,redfox      ,8,1,5,1,3,1023.10807,1023.10807,1025.60337,0,0,0,0,1,155,8,3,redfox      ,clownfish     ,html/resources/sequences_IDs/B/01_redfox.jpg,html/resources/sequences_IDs/A/04_clownfish.jpg,1,4,1,1,2,1,1,3,0,72,,,,,,,,,,,,,,,,,,,,
,,,,,72,2020-07-04_13h25.00.031,retriever_ti,2020.1.3,MacIntel,60,Chrome,1440,900,,,,,,,,,,,,,,,,,3,,,,,,,,,,,,,,,,,,,,,,,,,,,1026.20628,156,left,0.85601,parrot      ,4,5,1,1,1,1026.24108,1026.24108,1028.73806,0,1,1,1,1,156,4,3,parrot      ,clownfish     ,html/resources/sequences_IDs/B/05_parrot.jpg,html/resources/sequences_IDs/A/04_clownfish.jpg,5,4,2,1,2,1,4,3,0,72,,,,,,,,,,,,,,,,,,,,
,,,,,72,2020-07-04_13h25.00.031,retriever_ti,2020.1.3,MacIntel,60,Chrome,1440,900,,,,,,,,,,,,,,,,,3,,,,,,,,,,,,,,,,,,,,,,,,,,,1029.83879,157,right,0.617225,parrot      ,4,5,1,1,1,1029.87375,1029.87375,1032.37032,0,2,2,2,1,157,3,4,clownfish     ,parrot      ,html/resources/sequences_IDs/A/04_clownfish.jpg,html/resources/sequences_IDs/B/05_parrot.jpg,4,5,2,1,2,1,3,4,0,72,,,,,,,,,,,,,,,,,,,,
,,,,,72,2020-07-04_13h25.00.031,retriever_ti,2020.1.3,MacIntel,60,Chrome,1440,900,,,,,,,,,,,,,,,,,3,,,,,,,,,,,,,,,,,,,,,,,,,,,1033.47166,158,left,1.4262,hat           ,7,8,4,1,3,1033.491615,1033.491615,1035.98828,0,3,3,3,1,158,7,3,hat           ,clownfish     ,html/resources/sequences_IDs/A/08_hat.jpg,html/resources/sequences_IDs/A/04_clownfish.jpg,8,4,3,2,2,1,6,3,0,72,,,,,,,,,,,,,,,,,,,,
,,,,,72,2020-07-04_13h25.00.031,retriever_ti,2020.1.3,MacIntel,60,Chrome,1440,900,,,,,,,,,,,,,,,,,3,,,,,,,,,,,,,,,,,,,,,,,,,,,1036.60603,159,right,1.111285,giraffe     ,6,3,1,1,1,1036.639265,1036.639265,1039.13954,0,4,4,4,1,159,5,6,dress         ,giraffe     ,html/resources/sequences_IDs/A/07_dress.jpg,html/resources/sequences_IDs/B/03_giraffe.jpg,7,3,3,2,1,1,5,2,0,72,,,,,,,,,,,,,,,,,,,,
,,,,,72,2020-07-04_13h25.00.031,retriever_ti,2020.1.3,MacIntel,60,Chrome,1440,900,,,,,,,,,,,,,,,,,3,,,,,,,,,,,,,,,,,,,,,,,,,,,1040.238925,160,right,0.739475,redfox      ,8,1,5,1,3,1040.25919,1040.25919,1042.754385,0,5,5,5,1,160,3,8,clownfish     ,redfox      ,html/resources/sequences_IDs/A/04_clownfish.jpg,html/resources/sequences_IDs/B/01_redfox.jpg,4,1,2,1,1,1,3,1,0,72,,,,,,,,,,,,,,,,,,,,
,,,,,72,2020-07-04_13h25.00.031,retriever_ti,2020.1.3,MacIntel,60,Chrome,1440,900,,,,,,,,,,,,,,,,,3,,,,,,,,,,,,,,,,,,,,,,,,,,,1043.35683,161,right,0.869925,redfox      ,8,1,1,1,1,1043.37355,1043.37355,1045.872735,0,6,6,6,1,161,7,8,hat           ,redfox      ,html/resources/sequences_IDs/A/08_hat.jpg,html/resources/sequences_IDs/B/01_redfox.jpg,8,1,3,2,1,1,6,1,0,72,,,,,,,,,,,,,,,,,,,,
,,,,,72,2020-07-04_13h25.00.031,retriever_ti,2020.1.3,MacIntel,60,Chrome,1440,900,,,,,,,,,,,,,,,,,3,,,,,,,,,,,,,,,,,,,,,,,,,,,1046.9744,162,left,1.640945,giraffe     ,6,3,3,1,3,1046.990725,1046.990725,1049.48982,0,7,7,7,1,162,6,3,giraffe     ,clownfish     ,html/resources/sequences_IDs/B/03_giraffe.jpg,html/resources/sequences_IDs/A/04_clownfish.jpg,3,4,1,1,2,1,2,3,0,72,,,,,,,,,,,,,,,,,,,,
,,,,,72,2020-07-04_13h25.00.031,retriever_ti,2020.1.3,MacIntel,60,Chrome,1440,900,,,,,,,,,,,,,,,,,3,,,,,,,,,,,,,,,,,,,,,,,,,,,1050.10807,163,right,0.82585,radio       ,2,10,1,1,1,1050.140305,1050.140305,1052.6384,0,8,8,8,1,163,1,2,calculator    ,radio       ,html/resources/sequences_IDs/A/09_calculator.jpg,html/resources/sequences_IDs/B/10_radio.jpg,9,10,4,2,4,2,7,8,0,72,,,,,,,,,,,,,,,,,,,,
,,,,,72,2020-07-04_13h25.00.031,retriever_ti,2020.1.3,MacIntel,60,Chrome,1440,900,,,,,,,,,,,,,,,,,3,,,,,,,,,,,,,,,,,,,,,,,,,,,1053.741595,164,right,1.20122,hat           ,7,8,1,1,1,1053.7771,1053.7771,1056.273375,0,9,9,9,1,164,6,7,giraffe     ,hat           ,html/resources/sequences_IDs/B/03_giraffe.jpg,html/resources/sequences_IDs/A/08_hat.jpg,3,8,1,1,3,2,2,6,0,72,,,,,,,,,,,,,,,,,,,,
,,,,,72,2020-07-04_13h25.00.031,retriever_ti,2020.1.3,MacIntel,60,Chrome,1440,900,,,,,,,,,,,,,,,,,3,,,,,,,,,,,,,,,,,,,,,,,,,,,1057.37413,165,left,1.14996,redfox      ,8,1,6,1,3,1057.407375,1057.407375,1059.90717,0,10,10,10,1,165,8,2,redfox      ,radio       ,html/resources/sequences_IDs/B/01_redfox.jpg,html/resources/sequences_IDs/B/10_radio.jpg,1,10,1,1,4,2,1,8,0,72,,,,,,,,,,,,,,,,,,,,
,,,,,72,2020-07-04_13h25.00.031,retriever_ti,2020.1.3,MacIntel,60,Chrome,1440,900,,,,,,,,,,,,,,,,,3,,,,,,,,,,,,,,,,,,,,,,,,,,,1060.523855,166,right,0.59836,radio       ,2,10,-3,0,3,1060.559005,1060.559005,1063.055955,0,11,11,11,1,166,5,2,dress         ,radio       ,html/resources/sequences_IDs/A/07_dress.jpg,html/resources/sequences_IDs/B/10_radio.jpg,7,10,3,2,4,2,5,8,0,72,,,,,,,,,,,,,,,,,,,,
,,,,,72,2020-07-04_13h25.00.031,retriever_ti,2020.1.3,MacIntel,60,Chrome,1440,900,,,,,,,,,,,,,,,,,3,,,,,,,,,,,,,,,,,,,,,,,,,,,1063.658855,167,left,1.488435,clownfish     ,3,4,-2,0,3,1063.674465,1063.674465,1066.17399,0,12,12,12,1,167,3,5,clownfish     ,dress         ,html/resources/sequences_IDs/A/04_clownfish.jpg,html/resources/sequences_IDs/A/07_dress.jpg,4,7,2,1,3,2,3,5,0,72,,,,,,,,,,,,,,,,,,,,
,,,,,72,2020-07-04_13h25.00.031,retriever_ti,2020.1.3,MacIntel,60,Chrome,1440,900,,,,,,,,,,,,,,,,,3,,,,,,,,,,,,,,,,,,,,,,,,,,,1066.792545,168,right,0.724395,redfox      ,8,1,1,1,0,1066.81126,1066.81126,1069.307595,0,13,13,13,1,168,7,8,hat           ,redfox      ,html/resources/sequences_IDs/A/08_hat.jpg,html/resources/sequences_IDs/B/01_redfox.jpg,8,1,3,2,1,1,6,1,1,72,,,,,,,,,,,,,,,,,,,,
,,,,,72,2020-07-04_13h25.00.031,retriever_ti,2020.1.3,MacIntel,60,Chrome,1440,900,,,,,,,,,,,,,,,,,3,,,,,,,,,,,,,,,,,,,,,,,,,,,1070.409345,169,left,0.56965,redfox      ,8,1,2,1,3,1070.441605,1070.441605,1072.93994,0,14,14,14,1,169,8,6,redfox      ,giraffe     ,html/resources/sequences_IDs/B/01_redfox.jpg,html/resources/sequences_IDs/B/03_giraffe.jpg,1,3,1,1,1,1,1,2,0,72,,,,,,,,,,,,,,,,,,,,
,,,,,72,2020-07-04_13h25.00.031,retriever_ti,2020.1.3,MacIntel,60,Chrome,1440,900,,,,,,,,,,,,,,,,,3,,,,,,,,,,,,,,,,,,,,,,,,,,,1073.559655,170,left,0.81445,radio       ,2,10,1,1,1,1073.575415,1073.575415,1076.074725,0,15,15,15,1,170,2,1,radio       ,calculator    ,html/resources/sequences_IDs/B/10_radio.jpg,html/resources/sequences_IDs/A/09_calculator.jpg,10,9,4,2,4,2,8,7,0,72,,,,,,,,,,,,,,,,,,,,
,,,,,72,2020-07-04_13h25.00.031,retriever_ti,2020.1.3,MacIntel,60,Chrome,1440,900,,,,,,,,,,,,,,,,,3,,,,,,,,,,,,,,,,,,,,,,,,,,,1077.175195,171,left,1.177745,parrot      ,4,5,1,1,0,1077.194585,1077.194585,1079.690395,0,16,16,16,1,171,4,3,parrot      ,clownfish     ,html/resources/sequences_IDs/B/05_parrot.jpg,html/resources/sequences_IDs/A/04_clownfish.jpg,5,4,2,1,2,1,4,3,1,72,,,,,,,,,,,,,,,,,,,,
,,,,,72,2020-07-04_13h25.00.031,retriever_ti,2020.1.3,MacIntel,60,Chrome,1440,900,,,,,,,,,,,,,,,,,3,,,,,,,,,,,,,,,,,,,,,,,,,,,1080.793705,172,left,0.49218,parrot      ,4,5,3,1,3,1080.809165,1080.809165,1083.307135,0,17,17,17,1,172,4,1,parrot      ,calculator    ,html/resources/sequences_IDs/B/05_parrot.jpg,html/resources/sequences_IDs/A/09_calculator.jpg,5,9,2,1,4,2,4,7,0,72,,,,,,,,,,,,,,,,,,,,
,,,,,72,2020-07-04_13h25.00.031,retriever_ti,2020.1.3,MacIntel,60,Chrome,1440,900,,,,,,,,,,,,,,,,,3,,,,,,,,,,,,,,,,,,,,,,,,,,,1083.926695,173,right,1.05186,redfox      ,8,1,3,1,3,1083.942765,1083.942765,1086.44251,0,18,18,18,1,173,5,8,dress         ,redfox      ,html/resources/sequences_IDs/A/07_dress.jpg,html/resources/sequences_IDs/B/01_redfox.jpg,7,1,3,2,1,1,5,1,0,72,,,,,,,,,,,,,,,,,,,,
,,,,,72,2020-07-04_13h25.00.031,retriever_ti,2020.1.3,MacIntel,60,Chrome,1440,900,,,,,,,,,,,,,,,,,3,,,,,,,,,,,,,,,,,,,,,,,,,,,1087.05948,174,left,0.93713,hat           ,7,8,1,1,0,1087.07912,1087.07912,1089.57548,0,19,19,19,1,174,7,6,hat           ,giraffe     ,html/resources/sequences_IDs/A/08_hat.jpg,html/resources/sequences_IDs/B/03_giraffe.jpg,8,3,3,2,1,1,6,2,1,72,,,,,,,,,,,,,,,,,,,,
,,,,,72,2020-07-04_13h25.00.031,retriever_ti,2020.1.3,MacIntel,60,Chrome,1440,900,,,,,,,,,,,,,,,,,3,,,,,,,,,,,,,,,,,,,,,,,,,,,1090.677135,175,right,0.829315,redfox      ,8,1,1,1,1,1090.709895,1090.709895,1093.207855,0,20,20,20,1,175,7,8,hat           ,redfox      ,html/resources/sequences_IDs/A/08_hat.jpg,html/resources/sequences_IDs/B/01_redfox.jpg,8,1,3,2,1,1,6,1,0,72,,,,,,,,,,,,,,,,,,,,
,,,,,72,2020-07-04_13h25.00.031,retriever_ti,2020.1.3,MacIntel,60,Chrome,1440,900,,,,,,,,,,,,,,,,,3,,,,,,,,,,,,,,,,,,,,,,,,,,,1094.310725,176,left,1.77305,clownfish     ,3,4,-3,0,3,1094.345945,1094.345945,1096.842845,0,21,21,21,1,176,3,6,clownfish     ,giraffe     ,html/resources/sequences_IDs/A/04_clownfish.jpg,html/resources/sequences_IDs/B/03_giraffe.jpg,4,3,2,1,1,1,3,2,0,72,,,,,,,,,,,,,,,,,,,,
,,,,,72,2020-07-04_13h25.00.031,retriever_ti,2020.1.3,MacIntel,60,Chrome,1440,900,,,,,,,,,,,,,,,,,3,,,,,,,,,,,,,,,,,,,,,,,,,,,1097.4609,177,right,1.55935,hat           ,7,8,1,1,1,1097.4961,1097.4961,1099.993275,0,22,22,22,1,177,6,7,giraffe     ,hat           ,html/resources/sequences_IDs/B/03_giraffe.jpg,html/resources/sequences_IDs/A/08_hat.jpg,3,8,1,1,3,2,2,6,0,72,,,,,,,,,,,,,,,,,,,,
,,,,,72,2020-07-04_13h25.00.031,retriever_ti,2020.1.3,MacIntel,60,Chrome,1440,900,,,,,,,,,,,,,,,,,3,,,,,,,,,,,,,,,,,,,,,,,,,,,1101.093985,178,left,1.84098,parrot      ,4,5,2,1,3,1101.113655,1101.113655,1103.60971,0,23,23,23,1,178,4,2,parrot      ,radio       ,html/resources/sequences_IDs/B/05_parrot.jpg,html/resources/sequences_IDs/B/10_radio.jpg,5,10,2,1,4,2,4,8,0,72,,,,,,,,,,,,,,,,,,,,
,,,,,72,2020-07-04_13h25.00.031,retriever_ti,2020.1.3,MacIntel,60,Chrome,1440,900,,,,,,,,,,,,,,,,,3,,,,,,,,,,,,,,,,,,,,,,,,,,,1104.228505,179,right,0.671665,hat           ,7,8,4,1,3,1104.243915,1104.243915,1106.743715,0,24,24,24,1,179,3,7,clownfish     ,hat           ,html/resources/sequences_IDs/A/04_clownfish.jpg,html/resources/sequences_IDs/A/08_hat.jpg,4,8,2,1,3,2,3,6,0,72,,,,,,,,,,,,,,,,,,,,
,,,,,72,2020-07-04_13h25.00.031,retriever_ti,2020.1.3,MacIntel,60,Chrome,1440,900,,,,,,,,,,,,,,,,,3,,,,,,,,,,,,,,,,,,,,,,,,,,,1107.3454,180,left,1.0496,parrot      ,4,5,-2,0,3,1107.38005,1107.38005,1109.87681,0,25,25,25,1,180,4,6,parrot      ,giraffe     ,html/resources/sequences_IDs/B/05_parrot.jpg,html/resources/sequences_IDs/B/03_giraffe.jpg,5,3,2,1,1,1,4,2,0,72,,,,,,,,,,,,,,,,,,,,
,,,,,72,2020-07-04_13h25.00.031,retriever_ti,2020.1.3,MacIntel,60,Chrome,1440,900,,,,,,,,,,,,,,,,,3,,,,,,,,,,,,,,,,,,,,,,,,,,,1110.495155,181,left,0.88832,redfox      ,8,1,4,1,3,1110.528415,1110.528415,1113.02601,0,26,26,26,1,181,8,4,redfox      ,parrot      ,html/resources/sequences_IDs/B/01_redfox.jpg,html/resources/sequences_IDs/B/05_parrot.jpg,1,5,1,1,2,1,1,4,0,72,,,,,,,,,,,,,,,,,,,,
,,,,,72,2020-07-04_13h25.00.031,retriever_ti,2020.1.3,MacIntel,60,Chrome,1440,900,,,,,,,,,,,,,,,,,3,,,,,,,,,,,,,,,,,,,,,,,,,,,1113.645485,182,left,0.70416,parrot      ,4,5,1,1,1,1113.66129,1113.66129,1116.16104,0,27,27,27,1,182,4,3,parrot      ,clownfish     ,html/resources/sequences_IDs/B/05_parrot.jpg,html/resources/sequences_IDs/A/04_clownfish.jpg,5,4,2,1,2,1,4,3,0,72,,,,,,,,,,,,,,,,,,,,
,,,,,72,2020-07-04_13h25.00.031,retriever_ti,2020.1.3,MacIntel,60,Chrome,1440,900,,,,,,,,,,,,,,,,,3,,,,,,,,,,,,,,,,,,,,,,,,,,,1117.259775,183,right,0.53765,parrot      ,4,5,-1,0,0,1117.27916,1117.27916,1119.77759,0,28,28,28,1,183,5,4,dress         ,parrot      ,html/resources/sequences_IDs/A/07_dress.jpg,html/resources/sequences_IDs/B/05_parrot.jpg,7,5,3,2,2,1,5,4,0,72,,,,,,,,,,,,,,,,,,,,
,,,,,72,2020-07-04_13h25.00.031,retriever_ti,2020.1.3,MacIntel,60,Chrome,1440,900,,,,,,,,,,,,,,,,,3,,,,,,,,,,,,,,,,,,,,,,,,,,,1120.879425,184,right,0.91244,hat           ,7,8,2,1,3,1120.89722,1120.89722,1123.39327,0,29,29,29,1,184,5,7,dress         ,hat           ,html/resources/sequences_IDs/A/07_dress.jpg,html/resources/sequences_IDs/A/08_hat.jpg,7,8,3,2,3,2,5,6,0,72,,,,,,,,,,,,,,,,,,,,
,,,,,72,2020-07-04_13h25.00.031,retriever_ti,2020.1.3,MacIntel,60,Chrome,1440,900,,,,,,,,,,,,,,,,,3,,,,,,,,,,,,,,,,,,,,,,,,,,,1124.01152,185,left,1.24067,giraffe     ,6,3,5,1,3,1124.047785,1124.047785,1126.545125,0,30,30,30,1,185,6,1,giraffe     ,calculator    ,html/resources/sequences_IDs/B/03_giraffe.jpg,html/resources/sequences_IDs/A/09_calculator.jpg,3,9,1,1,4,2,2,7,0,72,,,,,,,,,,,,,,,,,,,,
,,,,,72,2020-07-04_13h25.00.031,retriever_ti,2020.1.3,MacIntel,60,Chrome,1440,900,,,,,,,,,,,,,,,,,3,,,,,,,,,,,,,,,,,,,,,,,,,,,1127.162495,186,NaN,NaN,No_response,NaN,NaN,NaN,2,2,1127.197725,1127.197725,1129.69482,0,31,31,31,1,186,2,6,radio       ,giraffe     ,html/resources/sequences_IDs/B/10_radio.jpg,html/resources/sequences_IDs/B/03_giraffe.jpg,10,3,4,2,1,1,8,2,0,72,,,,,,,,,,,,,,,,,,,,
,,,,,72,2020-07-04_13h25.00.031,retriever_ti,2020.1.3,MacIntel,60,Chrome,1440,900,,,,,,,,,,,,,,,,,3,,,,,,,,,,,,,,,,,,,,,,,,,,,1130.797165,187,left,1.286535,giraffe     ,6,3,1,1,1,1130.81246,1130.81246,1133.31068,0,32,32,32,1,187,6,5,giraffe     ,dress         ,html/resources/sequences_IDs/B/03_giraffe.jpg,html/resources/sequences_IDs/A/07_dress.jpg,3,7,1,1,3,2,2,5,0,72,,,,,,,,,,,,,,,,,,,,
,,,,,72,2020-07-04_13h25.00.031,retriever_ti,2020.1.3,MacIntel,60,Chrome,1440,900,,,,,,,,,,,,,,,,,3,,,,,,,,,,,,,,,,,,,,,,,,,,,1134.41331,188,right,1.52823,redfox      ,8,1,6,1,3,1134.431915,1134.431915,1136.929655,0,33,33,33,1,188,2,8,radio       ,redfox      ,html/resources/sequences_IDs/B/10_radio.jpg,html/resources/sequences_IDs/B/01_redfox.jpg,10,1,4,2,1,1,8,1,0,72,,,,,,,,,,,,,,,,,,,,
,,,,,72,2020-07-04_13h25.00.031,retriever_ti,2020.1.3,MacIntel,60,Chrome,1440,900,,,,,,,,,,,,,,,,,3,,,,,,,,,,,,,,,,,,,,,,,,,,,1137.547455,189,right,0.657095,parrot      ,4,5,2,1,3,1137.56356,1137.56356,1140.062085,0,34,34,34,1,189,2,4,radio       ,parrot      ,html/resources/sequences_IDs/B/10_radio.jpg,html/resources/sequences_IDs/B/05_parrot.jpg,10,5,4,2,2,1,8,4,0,72,,,,,,,,,,,,,,,,,,,,
,,,,,72,2020-07-04_13h25.00.031,retriever_ti,2020.1.3,MacIntel,60,Chrome,1440,900,,,,,,,,,,,,,,,,,3,,,,,,,,,,,,,,,,,,,,,,,,,,,1140.6806,190,right,0.969355,redfox      ,8,1,4,1,3,1140.698795,1140.698795,1143.19469,0,35,35,35,1,190,4,8,parrot      ,redfox      ,html/resources/sequences_IDs/B/05_parrot.jpg,html/resources/sequences_IDs/B/01_redfox.jpg,5,1,2,1,1,1,4,1,0,72,,,,,,,,,,,,,,,,,,,,
,,,,,72,2020-07-04_13h25.00.031,retriever_ti,2020.1.3,MacIntel,60,Chrome,1440,900,,,,,,,,,,,,,,,,,3,,,,,,,,,,,,,,,,,,,,,,,,,,,1143.797485,191,left,0.693155,radio       ,2,10,1,1,1,1143.816355,1143.816355,1146.3139,0,36,36,36,1,191,2,1,radio       ,calculator    ,html/resources/sequences_IDs/B/10_radio.jpg,html/resources/sequences_IDs/A/09_calculator.jpg,10,9,4,2,4,2,8,7,0,72,,,,,,,,,,,,,,,,,,,,
,,,,,72,2020-07-04_13h25.00.031,retriever_ti,2020.1.3,MacIntel,60,Chrome,1440,900,,,,,,,,,,,,,,,,,3,,,,,,,,,,,,,,,,,,,,,,,,,,,1147.414235,192,right,1.37664,parrot      ,4,5,-1,0,1,1147.43202,1147.43202,1149.9301,0,37,37,37,1,192,5,4,dress         ,parrot      ,html/resources/sequences_IDs/A/07_dress.jpg,html/resources/sequences_IDs/B/05_parrot.jpg,7,5,3,2,2,1,5,4,1,72,,,,,,,,,,,,,,,,,,,,
,,,,,72,2020-07-04_13h25.00.031,retriever_ti,2020.1.3,MacIntel,60,Chrome,1440,900,,,,,,,,,,,,,,,,,3,,,,,,,,,,,,,,,,,,,,,,,,,,,1151.03087,193,right,0.62747,radio       ,2,10,1,1,1,1151.04953,1151.04953,1153.545435,0,38,38,38,1,193,1,2,calculator    ,radio       ,html/resources/sequences_IDs/A/09_calculator.jpg,html/resources/sequences_IDs/B/10_radio.jpg,9,10,4,2,4,2,7,8,0,72,,,,,,,,,,,,,,,,,,,,
,,,,,72,2020-07-04_13h25.00.031,retriever_ti,2020.1.3,MacIntel,60,Chrome,1440,900,,,,,,,,,,,,,,,,,3,,,,,,,,,,,,,,,,,,,,,,,,,,,1154.64866,194,right,0.899225,giraffe     ,6,3,1,1,0,1154.68309,1154.68309,1157.180245,0,39,39,39,1,194,5,6,dress         ,giraffe     ,html/resources/sequences_IDs/A/07_dress.jpg,html/resources/sequences_IDs/B/03_giraffe.jpg,7,3,3,2,1,1,5,2,1,72,,,,,,,,,,,,,,,,,,,,
,,,,,72,2020-07-04_13h25.00.031,retriever_ti,2020.1.3,MacIntel,60,Chrome,1440,900,,,,,,,,,,,,,,,,,3,,,,,,,,,,,,,,,,,,,,,,,,,,,1158.28179,195,left,0.7927,parrot      ,4,5,-1,0,0,1158.300145,1158.300145,1160.797495,0,40,40,40,1,195,4,5,parrot      ,dress         ,html/resources/sequences_IDs/B/05_parrot.jpg,html/resources/sequences_IDs/A/07_dress.jpg,5,7,2,1,3,2,4,5,0,72,,,,,,,,,,,,,,,,,,,,
,,,,,72,2020-07-04_13h25.00.031,retriever_ti,2020.1.3,MacIntel,60,Chrome,1440,900,,,,,,,,,,,,,,,,,3,,,,,,,,,,,,,,,,,,,,,,,,,,,1161.898685,196,right,0.78123,dress         ,5,7,1,1,1,1161.933855,1161.933855,1164.430685,0,41,41,41,1,196,4,5,parrot      ,dress         ,html/resources/sequences_IDs/B/05_parrot.jpg,html/resources/sequences_IDs/A/07_dress.jpg,5,7,2,1,3,2,4,5,0,72,,,,,,,,,,,,,,,,,,,,
,,,,,72,2020-07-04_13h25.00.031,retriever_ti,2020.1.3,MacIntel,60,Chrome,1440,900,,,,,,,,,,,,,,,,,3,,,,,,,,,,,,,,,,,,,,,,,,,,,1165.531505,197,left,1.06239,hat           ,7,8,1,1,1,1165.550675,1165.550675,1168.046785,0,42,42,42,1,197,7,6,hat           ,giraffe     ,html/resources/sequences_IDs/A/08_hat.jpg,html/resources/sequences_IDs/B/03_giraffe.jpg,8,3,3,2,1,1,6,2,0,72,,,,,,,,,,,,,,,,,,,,
,,,,,72,2020-07-04_13h25.00.031,retriever_ti,2020.1.3,MacIntel,60,Chrome,1440,900,,,,,,,,,,,,,,,,,3,,,,,,,,,,,,,,,,,,,,,,,,,,,1169.149345,198,right,1.461945,hat           ,7,8,5,1,3,1169.167825,1169.167825,1171.664575,0,43,43,43,1,198,2,7,radio       ,hat           ,html/resources/sequences_IDs/B/10_radio.jpg,html/resources/sequences_IDs/A/08_hat.jpg,10,8,4,2,3,2,8,6,0,72,,,,,,,,,,,,,,,,,,,,
,,,,,72,2020-07-04_13h25.00.031,retriever_ti,2020.1.3,MacIntel,60,Chrome,1440,900,,,,,,,,,,,,,,,,,3,,,,,,,,,,,,,,,,,,,,,,,,,,,1172.28285,199,left,0.799445,redfox      ,8,1,1,1,1,1172.315155,1172.315155,1174.814865,0,44,44,44,1,199,8,7,redfox      ,hat           ,html/resources/sequences_IDs/B/01_redfox.jpg,html/resources/sequences_IDs/A/08_hat.jpg,1,8,1,1,3,2,1,6,0,72,,,,,,,,,,,,,,,,,,,,
,,,,,72,2020-07-04_13h25.00.031,retriever_ti,2020.1.3,MacIntel,60,Chrome,1440,900,,,,,,,,,,,,,,,,,3,,,,,,,,,,,,,,,,,,,,,,,,,,,1175.916605,200,left,0.586,redfox      ,8,1,1,1,1,1175.93475,1175.93475,1178.432575,0,45,45,45,1,200,8,7,redfox      ,hat           ,html/resources/sequences_IDs/B/01_redfox.jpg,html/resources/sequences_IDs/A/08_hat.jpg,1,8,1,1,3,2,1,6,0,72,,,,,,,,,,,,,,,,,,,,
,,,,,72,2020-07-04_13h25.00.031,retriever_ti,2020.1.3,MacIntel,60,Chrome,1440,900,,,,,,,,,,,,,,,,,3,,,,,,,,,,,,,,,,,,,,,,,,,,,1179.53293,201,left,1.16081,hat           ,7,8,5,1,3,1179.55187,1179.55187,1182.048455,0,46,46,46,1,201,7,2,hat           ,radio       ,html/resources/sequences_IDs/A/08_hat.jpg,html/resources/sequences_IDs/B/10_radio.jpg,8,10,3,2,4,2,6,8,0,72,,,,,,,,,,,,,,,,,,,,
,,,,,72,2020-07-04_13h25.00.031,retriever_ti,2020.1.3,MacIntel,60,Chrome,1440,900,,,,,,,,,,,,,,,,,3,,,,,,,,,,,,,,,,,,,,,,,,,,,1182.6504,202,right,0.883915,parrot      ,4,5,-1,0,0,1182.682385,1182.682385,1185.182015,0,47,47,47,1,202,5,4,dress         ,parrot      ,html/resources/sequences_IDs/A/07_dress.jpg,html/resources/sequences_IDs/B/05_parrot.jpg,7,5,3,2,2,1,5,4,0,72,,,,,,,,,,,,,,,,,,,,
,,,,,72,2020-07-04_13h25.00.031,retriever_ti,2020.1.3,MacIntel,60,Chrome,1440,900,,,,,,,,,,,,,,,,,3,,,,,,,,,,,,,,,,,,,,,,,,,,,1186.283785,203,left,1.626575,hat           ,7,8,2,1,3,1186.301805,1186.301805,1188.799115,0,48,48,48,1,203,7,5,hat           ,dress         ,html/resources/sequences_IDs/A/08_hat.jpg,html/resources/sequences_IDs/A/07_dress.jpg,8,7,3,2,3,2,6,5,0,72,,,,,,,,,,,,,,,,,,,,
,,,,,72,2020-07-04_13h25.00.031,retriever_ti,2020.1.3,MacIntel,60,Chrome,1440,900,,,,,,,,,,,,,,,,,3,,,,,,,,,,,,,,,,,,,,,,,,,,,1189.414965,204,left,1.88955,dress         ,5,7,-1,0,0,1189.449905,1189.449905,1191.94944,0,49,49,49,1,204,5,6,dress         ,giraffe     ,html/resources/sequences_IDs/A/07_dress.jpg,html/resources/sequences_IDs/B/03_giraffe.jpg,7,3,3,2,1,1,5,2,0,72,,,,,,,,,,,,,,,,,,,,
,,,,,72,2020-07-04_13h25.00.031,retriever_ti,2020.1.3,MacIntel,60,Chrome,1440,900,,,,,,,,,,,,,,,,,3,,,,,,,,,,,,,,,,,,,,,,,,,,,1193.04941,205,right,1.33042,giraffe     ,6,3,5,1,3,1193.083265,1193.083265,1195.58166,0,50,50,50,1,205,1,6,calculator    ,giraffe     ,html/resources/sequences_IDs/A/09_calculator.jpg,html/resources/sequences_IDs/B/03_giraffe.jpg,9,3,4,2,1,1,7,2,0,72,,,,,,,,,,,,,,,,,,,,
,,,,,72,2020-07-04_13h25.00.031,retriever_ti,2020.1.3,MacIntel,60,Chrome,1440,900,,,,,,,,,,,,,,,,,3,,,,,,,,,,,,,,,,,,,,,,,,,,,1196.18474,206,left,1.059915,clownfish     ,3,4,1,1,1,1196.200075,1196.200075,1198.7002,0,51,51,51,1,206,3,2,clownfish     ,radio       ,html/resources/sequences_IDs/A/04_clownfish.jpg,html/resources/sequences_IDs/B/10_radio.jpg,4,10,2,1,4,2,3,8,0,72,,,,,,,,,,,,,,,,,,,,
,,,,,72,2020-07-04_13h25.00.031,retriever_ti,2020.1.3,MacIntel,60,Chrome,1440,900,,,,,,,,,,,,,,,,,3,,,,,,,,,,,,,,,,,,,,,,,,,,,1199.80125,207,right,1.02682,dress         ,5,7,3,1,3,1199.833925,1199.833925,1202.332075,0,52,52,52,1,207,2,5,radio       ,dress         ,html/resources/sequences_IDs/B/10_radio.jpg,html/resources/sequences_IDs/A/07_dress.jpg,10,7,4,2,3,2,8,5,0,72,,,,,,,,,,,,,,,,,,,,
,,,,,72,2020-07-04_13h25.00.031,retriever_ti,2020.1.3,MacIntel,60,Chrome,1440,900,,,,,,,,,,,,,,,,,3,,,,,,,,,,,,,,,,,,,,,,,,,,,1202.93429,208,right,0.70403,redfox      ,8,1,2,1,3,1202.95089,1202.95089,1205.450385,0,53,53,53,1,208,6,8,giraffe     ,redfox      ,html/resources/sequences_IDs/B/03_giraffe.jpg,html/resources/sequences_IDs/B/01_redfox.jpg,3,1,1,1,1,1,2,1,0,72,,,,,,,,,,,,,,,,,,,,
,,,,,72,2020-07-04_13h25.00.031,retriever_ti,2020.1.3,MacIntel,60,Chrome,1440,900,,,,,,,,,,,,,,,,,3,,,,,,,,,,,,,,,,,,,,,,,,,,,1206.06866,209,left,1.088385,redfox      ,8,1,3,1,3,1206.08622,1206.08622,1208.583435,0,54,54,54,1,209,8,5,redfox      ,dress         ,html/resources/sequences_IDs/B/01_redfox.jpg,html/resources/sequences_IDs/A/07_dress.jpg,1,7,1,1,3,2,1,5,0,72,,,,,,,,,,,,,,,,,,,,
,,,,,72,2020-07-04_13h25.00.031,retriever_ti,2020.1.3,MacIntel,60,Chrome,1440,900,,,,,,,,,,,,,,,,,3,,,,,,,,,,,,,,,,,,,,,,,,,,,1209.20133,210,left,1.14879,redfox      ,8,1,7,1,3,1209.21993,1209.21993,1211.71602,0,55,55,55,1,210,8,1,redfox      ,calculator    ,html/resources/sequences_IDs/B/01_redfox.jpg,html/resources/sequences_IDs/A/09_calculator.jpg,1,9,1,1,4,2,1,7,0,72,,,,,,,,,,,,,,,,,,,,
,,,,,72,2020-07-04_13h25.00.031,retriever_ti,2020.1.3,MacIntel,60,Chrome,1440,900,,,,,,,,,,,,,,,,,3,,,,,,,,,,,,,,,,,,,,,,,,,,,1212.33462,211,right,0.986155,clownfish     ,3,4,2,1,3,1212.35129,1212.35129,1214.85005,0,56,56,56,1,211,1,3,calculator    ,clownfish     ,html/resources/sequences_IDs/A/09_calculator.jpg,html/resources/sequences_IDs/A/04_clownfish.jpg,9,4,4,2,2,1,7,3,0,72,,,,,,,,,,,,,,,,,,,,
,,,,,72,2020-07-04_13h25.00.031,retriever_ti,2020.1.3,MacIntel,60,Chrome,1440,900,,,,,,,,,,,,,,,,,3,,,,,,,,,,,,,,,,,,,,,,,,,,,1215.46824,212,left,0.640715,radio       ,2,10,1,1,0,1215.486975,1215.486975,1217.984345,0,57,57,57,1,212,2,1,radio       ,calculator    ,html/resources/sequences_IDs/B/10_radio.jpg,html/resources/sequences_IDs/A/09_calculator.jpg,10,9,4,2,4,2,8,7,1,72,,,,,,,,,,,,,,,,,,,,
,,,,,72,2020-07-04_13h25.00.031,retriever_ti,2020.1.3,MacIntel,60,Chrome,1440,900,,,,,,,,,,,,,,,,,3,,,,,,,,,,,,,,,,,,,,,,,,,,,1219.086745,213,left,1.606685,dress         ,5,7,4,1,3,1219.10203,1219.10203,1221.600075,0,58,58,58,1,213,5,1,dress         ,calculator    ,html/resources/sequences_IDs/A/07_dress.jpg,html/resources/sequences_IDs/A/09_calculator.jpg,7,9,3,2,4,2,5,7,0,72,,,,,,,,,,,,,,,,,,,,
,,,,,72,2020-07-04_13h25.00.031,retriever_ti,2020.1.3,MacIntel,60,Chrome,1440,900,,,,,,,,,,,,,,,,,3,,,,,,,,,,,,,,,,,,,,,,,,,,,1222.22148,214,right,1.26818,clownfish     ,3,4,1,1,1,1222.237685,1222.237685,1224.734815,0,59,59,59,1,214,2,3,radio       ,clownfish     ,html/resources/sequences_IDs/B/10_radio.jpg,html/resources/sequences_IDs/A/04_clownfish.jpg,10,4,4,2,2,1,8,3,0,72,,,,,,,,,,,,,,,,,,,,
,,,,,72,2020-07-04_13h25.00.031,retriever_ti,2020.1.3,MacIntel,60,Chrome,1440,900,,,,,,,,,,,,,,,,,3,,,,,,,,,,,,,,,,,,,,,,,,,,,1225.83707,215,right,0.990175,hat           ,7,8,3,1,3,1225.868855,1225.868855,1228.36732,0,60,60,60,1,215,4,7,parrot      ,hat           ,html/resources/sequences_IDs/B/05_parrot.jpg,html/resources/sequences_IDs/A/08_hat.jpg,5,8,2,1,3,2,4,6,0,72,,,,,,,,,,,,,,,,,,,,
,,,,,72,2020-07-04_13h25.00.031,retriever_ti,2020.1.3,MacIntel,60,Chrome,1440,900,,,,,,,,,,,,,,,,,3,,,,,,,,,,,,,,,,,,,,,,,,,,,1228.986235,216,right,1.16247,clownfish     ,3,4,-2,0,3,1229.018915,1229.018915,1231.51749,0,61,61,61,1,216,5,3,dress         ,clownfish     ,html/resources/sequences_IDs/A/07_dress.jpg,html/resources/sequences_IDs/A/04_clownfish.jpg,7,4,3,2,2,1,5,3,0,72,,,,,,,,,,,,,,,,,,,,
,,,,,72,2020-07-04_13h25.00.031,retriever_ti,2020.1.3,MacIntel,60,Chrome,1440,900,,,,,,,,,,,,,,,,,3,,,,,,,,,,,,,,,,,,,,,,,,,,,1232.1205,217,left,0.952845,clownfish     ,3,4,2,1,3,1232.15254,1232.15254,1234.65205,0,62,62,62,1,217,3,1,clownfish     ,calculator    ,html/resources/sequences_IDs/A/04_clownfish.jpg,html/resources/sequences_IDs/A/09_calculator.jpg,4,9,2,1,4,2,3,7,0,72,,,,,,,,,,,,,,,,,,,,
,,,,,72,2020-07-04_13h25.00.031,retriever_ti,2020.1.3,MacIntel,60,Chrome,1440,900,,,,,,,,,,,,,,,,,3,,,,,,,,,,,,,,,,,,,,,,,,,,,1235.268425,218,right,0.934545,dress         ,5,7,4,1,3,1235.305155,1235.305155,1237.80275,0,63,63,63,1,218,1,5,calculator    ,dress         ,html/resources/sequences_IDs/A/09_calculator.jpg,html/resources/sequences_IDs/A/07_dress.jpg,9,7,4,2,3,2,7,5,0,72,,,,,,,,,,,,,,,,,,,,
,,,,,72,2020-07-04_13h25.00.031,retriever_ti,2020.1.3,MacIntel,60,Chrome,1440,900,,,,,,,,,,,,,,,,,3,,,,,,,,,,,,,,,,,,,,,,,,,,,1238.40477,219,right,1.19191,parrot      ,4,5,1,1,1,1238.43942,1238.43942,1240.934675,0,64,64,64,1,219,3,4,clownfish     ,parrot      ,html/resources/sequences_IDs/A/04_clownfish.jpg,html/resources/sequences_IDs/B/05_parrot.jpg,4,5,2,1,2,1,3,4,0,72,,,,,,,,,,,,,,,,,,,,
,,,,,72,2020-07-04_13h25.00.031,retriever_ti,2020.1.3,MacIntel,60,Chrome,1440,900,,,,,,,,,,,,,,,,,3,,,,,,,,,,,,,,,,,,,,,,,,,,,1242.038475,220,right,0.55136,redfox      ,8,1,7,1,3,1242.072245,1242.072245,1244.56968,0,65,65,65,1,220,1,8,calculator    ,redfox      ,html/resources/sequences_IDs/A/09_calculator.jpg,html/resources/sequences_IDs/B/01_redfox.jpg,9,1,4,2,1,1,7,1,0,72,,,,,,,,,,,,,,,,,,,,
,,,,,72,2020-07-04_13h25.00.031,retriever_ti,2020.1.3,MacIntel,60,Chrome,1440,900,,,,,,,,,,,,,,,,,3,,,,,,,,,,,,,,,,,,,,,,,,,,,1245.18729,221,left,1.356825,giraffe     ,6,3,4,1,3,1245.2062,1245.2062,1247.70323,0,66,66,66,1,221,6,2,giraffe     ,radio       ,html/resources/sequences_IDs/B/03_giraffe.jpg,html/resources/sequences_IDs/B/10_radio.jpg,3,10,1,1,4,2,2,8,0,72,,,,,,,,,,,,,,,,,,,,
,,,,,72,2020-07-04_13h25.00.031,retriever_ti,2020.1.3,MacIntel,60,Chrome,1440,900,,,,,,,,,,,,,,,,,3,,,,,,,,,,,,,,,,,,,,,,,,,,,1248.305595,222,right,0.707305,parrot      ,4,5,3,1,3,1248.34058,1248.34058,1250.835405,0,67,67,67,1,222,1,4,calculator    ,parrot      ,html/resources/sequences_IDs/A/09_calculator.jpg,html/resources/sequences_IDs/B/05_parrot.jpg,9,5,4,2,2,1,7,4,0,72,,,,,,,,,,,,,,,,,,,,
