instructionsLoop.thisRepN,instructionsLoop.thisTrialN,instructionsLoop.thisN,instructionsLoop.thisIndex,instructionsLoop.ran,participant,date,expName,psychopyVersion,OS,frameRate,browser,xResolution,yResolution,fix_onset,tprac,practiceKey.keys,practiceKey.rt,pracitem_chosen_name,acc_practice,P1_onsetPrac,P2_onsetPrac,onsetFeedbPrac,practiceTrials.thisRepN,practiceTrials.thisTrialN,practiceTrials.thisN,practiceTrials.thisIndex,practiceTrials.ran,P1,P2,Block,LocItem1,LocItem2,NameItem1,NameItem2,key_respAC_prac.keys,key_respAC_prac.corr,key_respAC_prac.rt,AC_acc,Attentions.thisRepN,Attentions.thisTrialN,Attentions.thisN,Attentions.thisIndex,Attentions.ran,Stim,Loc1,Loc2,Loc3,Loc4,CorrAns,keyDisturbed.keys,keyDisturbed.rt,repPractice.thisRepN,repPractice.thisTrialN,repPractice.thisN,repPractice.thisIndex,repPractice.ran,fixcross_onsetMain,trialNumber,key_resp.keys,key_resp.rt,item_chosen_name,item_chosen_value,item_chosen_ID,diff_chosen_minus_reject,acc_real,acc_feedback,P1_onset,P2_onset,feedb_onset,trials.thisRepN,trials.thisTrialN,trials.thisN,trials.thisIndex,trials.ran,Trial,ValueP1,ValueP2,P1name,P2name,P1Loc,P2Loc,P1id,P2id,Micro_categoryP1,Macro_categoryP1,Micro_categoryP2,Macro_categoryP2,ID_sequenceP1,ID_sequenceP2,InverseFb,pNumber,repBlocks.thisRepN,repBlocks.thisTrialN,repBlocks.thisN,repBlocks.thisIndex,repBlocks.ran,key_respAC.keys,key_respAC.corr,key_respAC.rt,trials_AC.thisRepN,trials_AC.thisTrialN,trials_AC.thisN,trials_AC.thisIndex,trials_AC.ran,Bonus,BonusLoop.thisRepN,BonusLoop.thisTrialN,BonusLoop.thisN,BonusLoop.thisIndex,BonusLoop.ran,comments
0,0,0,0,1,73,2020-07-04_18h27.41.656,retriever_ti,2020.1.3,Win32,60,Chrome,1920,1080,,,,,,,,,,,,,,,,,,,,,,,,,,,,,,,,,,,,,,,,,,,,,,,,,,,,,,,,,,,,,,,,,,,,,,,,,,,,,,,,,,,,,,,,,,,,,,,,,,
1,0,1,0,1,73,2020-07-04_18h27.41.656,retriever_ti,2020.1.3,Win32,60,Chrome,1920,1080,,,,,,,,,,,,,,,,,,,,,,,,,,,,,,,,,,,,,,,,,,,,,,,,,,,,,,,,,,,,,,,,,,,,,,,,,,,,,,,,,,,,,,,,,,,,,,,,,,
2,0,2,0,1,73,2020-07-04_18h27.41.656,retriever_ti,2020.1.3,Win32,60,Chrome,1920,1080,,,,,,,,,,,,,,,,,,,,,,,,,,,,,,,,,,,,,,,,,,,,,,,,,,,,,,,,,,,,,,,,,,,,,,,,,,,,,,,,,,,,,,,,,,,,,,,,,,
3,0,3,0,1,73,2020-07-04_18h27.41.656,retriever_ti,2020.1.3,Win32,60,Chrome,1920,1080,,,,,,,,,,,,,,,,,,,,,,,,,,,,,,,,,,,,,,,,,,,,,,,,,,,,,,,,,,,,,,,,,,,,,,,,,,,,,,,,,,,,,,,,,,,,,,,,,,
4,0,4,0,1,73,2020-07-04_18h27.41.656,retriever_ti,2020.1.3,Win32,60,Chrome,1920,1080,,,,,,,,,,,,,,,,,,,,,,,,,,,,,,,,,,,,,,,,,,,,,,,,,,,,,,,,,,,,,,,,,,,,,,,,,,,,,,,,,,,,,,,,,,,,,,,,,,
5,0,5,0,1,73,2020-07-04_18h27.41.656,retriever_ti,2020.1.3,Win32,60,Chrome,1920,1080,,,,,,,,,,,,,,,,,,,,,,,,,,,,,,,,,,,,,,,,,,,,,,,,,,,,,,,,,,,,,,,,,,,,,,,,,,,,,,,,,,,,,,,,,,,,,,,,,,
6,0,6,0,1,73,2020-07-04_18h27.41.656,retriever_ti,2020.1.3,Win32,60,Chrome,1920,1080,,,,,,,,,,,,,,,,,,,,,,,,,,,,,,,,,,,,,,,,,,,,,,,,,,,,,,,,,,,,,,,,,,,,,,,,,,,,,,,,,,,,,,,,,,,,,,,,,,
7,0,7,0,1,73,2020-07-04_18h27.41.656,retriever_ti,2020.1.3,Win32,60,Chrome,1920,1080,,,,,,,,,,,,,,,,,,,,,,,,,,,,,,,,,,,,,,,,,,,,,,,,,,,,,,,,,,,,,,,,,,,,,,,,,,,,,,,,,,,,,,,,,,,,,,,,,,
8,0,8,0,1,73,2020-07-04_18h27.41.656,retriever_ti,2020.1.3,Win32,60,Chrome,1920,1080,,,,,,,,,,,,,,,,,,,,,,,,,,,,,,,,,,,,,,,,,,,,,,,,,,,,,,,,,,,,,,,,,,,,,,,,,,,,,,,,,,,,,,,,,,,,,,,,,,
9,0,9,0,1,73,2020-07-04_18h27.41.656,retriever_ti,2020.1.3,Win32,60,Chrome,1920,1080,,,,,,,,,,,,,,,,,,,,,,,,,,,,,,,,,,,,,,,,,,,,,,,,,,,,,,,,,,,,,,,,,,,,,,,,,,,,,,,,,,,,,,,,,,,,,,,,,,
10,0,10,0,1,73,2020-07-04_18h27.41.656,retriever_ti,2020.1.3,Win32,60,Chrome,1920,1080,,,,,,,,,,,,,,,,,,,,,,,,,,,,,,,,,,,,,,,,,,,,,,,,,,,,,,,,,,,,,,,,,,,,,,,,,,,,,,,,,,,,,,,,,,,,,,,,,,
11,0,11,0,1,73,2020-07-04_18h27.41.656,retriever_ti,2020.1.3,Win32,60,Chrome,1920,1080,,,,,,,,,,,,,,,,,,,,,,,,,,,,,,,,,,,,,,,,,,,,,,,,,,,,,,,,,,,,,,,,,,,,,,,,,,,,,,,,,,,,,,,,,,,,,,,,,,
12,0,12,0,1,73,2020-07-04_18h27.41.656,retriever_ti,2020.1.3,Win32,60,Chrome,1920,1080,,,,,,,,,,,,,,,,,,,,,,,,,,,,,,,,,,,,,,,,,,,,,,,,,,,,,,,,,,,,,,,,,,,,,,,,,,,,,,,,,,,,,,,,,,,,,,,,,,
13,0,13,0,1,73,2020-07-04_18h27.41.656,retriever_ti,2020.1.3,Win32,60,Chrome,1920,1080,,,,,,,,,,,,,,,,,,,,,,,,,,,,,,,,,,,,,,,,,,,,,,,,,,,,,,,,,,,,,,,,,,,,,,,,,,,,,,,,,,,,,,,,,,,,,,,,,,
14,0,14,0,1,73,2020-07-04_18h27.41.656,retriever_ti,2020.1.3,Win32,60,Chrome,1920,1080,,,,,,,,,,,,,,,,,,,,,,,,,,,,,,,,,,,,,,,,,,,,,,,,,,,,,,,,,,,,,,,,,,,,,,,,,,,,,,,,,,,,,,,,,,,,,,,,,,
,,,,,73,2020-07-04_18h27.41.656,retriever_ti,2020.1.3,Win32,60,Chrome,1920,1080,188.242205,1,right,1.545835,canary,1,188.254575,188.254575,190.746885,0,0,0,0,1,2,5,1,html/resources/stimuli_practice_decision/04_beetle.jpg,html/resources/stimuli_practice_decision/02_canary.jpg,beetle,canary,,,,,,,,,,,,,,,,,,,,,,,,,,,,,,,,,,,,,,,,,,,,,,,,,,,,,,,,,,,,,,,,,,,,,,,,,,,,,
,,,,,73,2020-07-04_18h27.41.656,retriever_ti,2020.1.3,Win32,60,Chrome,1920,1080,191.269135,2,left,1.19937,rabbit,1,191.281715,191.281715,193.774365,0,1,1,1,1,4,3,1,html/resources/stimuli_practice_decision/01_rabbit.jpg,html/resources/stimuli_practice_decision/07_sock.jpg,rabbit,sock,,,,,,,,,,,,,,,,,,,,,,,,,,,,,,,,,,,,,,,,,,,,,,,,,,,,,,,,,,,,,,,,,,,,,,,,,,,,,
,,,,,73,2020-07-04_18h27.41.656,retriever_ti,2020.1.3,Win32,60,Chrome,1920,1080,194.767925,3,left,1.119175,pullover,1,194.774925,194.774925,197.26735,0,2,2,2,1,6,2,1,html/resources/stimuli_practice_decision/06_pullover.jpg,html/resources/stimuli_practice_decision/04_beetle.jpg,pullover,beetle,,,,,,,,,,,,,,,,,,,,,,,,,,,,,,,,,,,,,,,,,,,,,,,,,,,,,,,,,,,,,,,,,,,,,,,,,,,,,
,,,,,73,2020-07-04_18h27.41.656,retriever_ti,2020.1.3,Win32,60,Chrome,1920,1080,197.774665,4,right,1.300635,handmixer,0,197.788545,197.788545,200.28108,0,3,3,3,1,7,1,1,html/resources/stimuli_practice_decision/05_glasses.jpg,html/resources/stimuli_practice_decision/08_handmixer.jpg,glasses,handmixer,,,,,,,,,,,,,,,,,,,,,,,,,,,,,,,,,,,,,,,,,,,,,,,,,,,,,,,,,,,,,,,,,,,,,,,,,,,,,
,,,,,73,2020-07-04_18h27.41.656,retriever_ti,2020.1.3,Win32,60,Chrome,1920,1080,200.781355,5,left,2.13887,glasses,1,200.79545,200.79545,203.28796,0,4,4,4,1,7,6,1,html/resources/stimuli_practice_decision/05_glasses.jpg,html/resources/stimuli_practice_decision/06_pullover.jpg,glasses,pullover,,,,,,,,,,,,,,,,,,,,,,,,,,,,,,,,,,,,,,,,,,,,,,,,,,,,,,,,,,,,,,,,,,,,,,,,,,,,,
,,,,,73,2020-07-04_18h27.41.656,retriever_ti,2020.1.3,Win32,60,Chrome,1920,1080,204.28142,6,right,1.155195,glasses,1,204.28828,204.28828,206.780925,0,5,5,5,1,4,7,1,html/resources/stimuli_practice_decision/01_rabbit.jpg,html/resources/stimuli_practice_decision/05_glasses.jpg,rabbit,glasses,,,,,,,,,,,,,,,,,,,,,,,,,,,,,,,,,,,,,,,,,,,,,,,,,,,,,,,,,,,,,,,,,,,,,,,,,,,,,
,,,,,73,2020-07-04_18h27.41.656,retriever_ti,2020.1.3,Win32,60,Chrome,1920,1080,207.288045,7,left,1.16339,handmixer,0,207.29522,207.29522,209.78782,0,6,6,6,1,1,2,1,html/resources/stimuli_practice_decision/08_handmixer.jpg,html/resources/stimuli_practice_decision/04_beetle.jpg,handmixer,beetle,,,,,,,,,,,,,,,,,,,,,,,,,,,,,,,,,,,,,,,,,,,,,,,,,,,,,,,,,,,,,,,,,,,,,,,,,,,,,
,,,,,73,2020-07-04_18h27.41.656,retriever_ti,2020.1.3,Win32,60,Chrome,1920,1080,210.781215,8,left,2.420785,rabbit,1,210.788135,210.788135,213.280745,0,7,7,7,1,4,3,1,html/resources/stimuli_practice_decision/01_rabbit.jpg,html/resources/stimuli_practice_decision/07_sock.jpg,rabbit,sock,,,,,,,,,,,,,,,,,,,,,,,,,,,,,,,,,,,,,,,,,,,,,,,,,,,,,,,,,,,,,,,,,,,,,,,,,,,,,
,,,,,73,2020-07-04_18h27.41.656,retriever_ti,2020.1.3,Win32,60,Chrome,1920,1080,,,,,,,,,,,,,,,,,,,,,,up,1,4.62092,1,0,0,0,0,1,html/resources/sequences_IDs/circle.png,circle ↑,square →,triangle ↓,← star ,up,,,,,,,,,,,,,,,,,,,,,,,,,,,,,,,,,,,,,,,,,,,,,,,,,,,,,,,,,,,,,,
,,,,,73,2020-07-04_18h27.41.656,retriever_ti,2020.1.3,Win32,60,Chrome,1920,1080,,,,,,,,,,,,,,,,,,,,,,down,1,1.582965,1,0,1,1,1,1,html/resources/sequences_IDs/star.png,square ↑,circle →,star ↓,← triangle,down,,,,,,,,,,,,,,,,,,,,,,,,,,,,,,,,,,,,,,,,,,,,,,,,,,,,,,,,,,,,,,
,,,,,73,2020-07-04_18h27.41.656,retriever_ti,2020.1.3,Win32,60,Chrome,1920,1080,,,,,,,,,,,,,,,,,,,,,,left,1,1.686805,1,0,2,2,2,1,html/resources/sequences_IDs/square1.png,star ↑,triangle →,circle ↓,← square,left,,,,,,,,,,,,,,,,,,,,,,,,,,,,,,,,,,,,,,,,,,,,,,,,,,,,,,,,,,,,,,
,,,,,73,2020-07-04_18h27.41.656,retriever_ti,2020.1.3,Win32,60,Chrome,1920,1080,,,,,,,,,,,,,,,,,,,,,,down,1,1.604385,1,0,3,3,3,1,html/resources/sequences_IDs/triangle.png,star ↑,square →,triangle ↓,← circle,down,,,,,,,,,,,,,,,,,,,,,,,,,,,,,,,,,,,,,,,,,,,,,,,,,,,,,,,,,,,,,,
,,,,,73,2020-07-04_18h27.41.656,retriever_ti,2020.1.3,Win32,60,Chrome,1920,1080,,,,,,,,,,,,,,,,,,,,,,,,,,,,,,,,,,,,,0,15.96625,0,0,0,0,1,,,,,,,,,,,,,,,,,,,,,,,,,,,,,,,,,,,,,,,,,,,,,,,,,,,,,,,
,,,,,73,2020-07-04_18h27.41.656,retriever_ti,2020.1.3,Win32,60,Chrome,1920,1080,246.25399,9,right,1.878305,glasses,1,246.26654,246.26654,248.759025,0,0,0,0,1,6,7,1,html/resources/stimuli_practice_decision/06_pullover.jpg,html/resources/stimuli_practice_decision/05_glasses.jpg,pullover,glasses,,,,,,,,,,,,,,,,,,,,,,,,,,,,,,,,,,,,,,,,,,,,,,,,,,,,,,,,,,,,,,,,,,,,,,,,,,,,,
,,,,,73,2020-07-04_18h27.41.656,retriever_ti,2020.1.3,Win32,60,Chrome,1920,1080,249.752275,10,left,1.0544,pullover,1,249.76642,249.76642,252.258905,0,1,1,1,1,6,2,1,html/resources/stimuli_practice_decision/06_pullover.jpg,html/resources/stimuli_practice_decision/04_beetle.jpg,pullover,beetle,,,,,,,,,,,,,,,,,,,,,,,,,,,,,,,,,,,,,,,,,,,,,,,,,,,,,,,,,,,,,,,,,,,,,,,,,,,,,
,,,,,73,2020-07-04_18h27.41.656,retriever_ti,2020.1.3,Win32,60,Chrome,1920,1080,252.759405,11,NaN,NaN,No_response,2,252.766355,252.766355,255.25884,0,2,2,2,1,5,6,1,html/resources/stimuli_practice_decision/02_canary.jpg,html/resources/stimuli_practice_decision/06_pullover.jpg,canary,pullover,,,,,,,,,,,,,,,,,,,,,,,,,,,,,,,,,,,,,,,,,,,,,,,,,,,,,,,,,,,,,,,,,,,,,,,,,,,,,
,,,,,73,2020-07-04_18h27.41.656,retriever_ti,2020.1.3,Win32,60,Chrome,1920,1080,255.76597,12,right,1.28365,glasses,0,255.773085,255.773085,258.26572,0,3,3,3,1,8,7,1,html/resources/stimuli_practice_decision/03_squirrel.jpg,html/resources/stimuli_practice_decision/05_glasses.jpg,squirrel,glasses,,,,,,,,,,,,,,,,,,,,,,,,,,,,,,,,,,,,,,,,,,,,,,,,,,,,,,,,,,,,,,,,,,,,,,,,,,,,,
,,,,,73,2020-07-04_18h27.41.656,retriever_ti,2020.1.3,Win32,60,Chrome,1920,1080,259.259195,13,left,0.75469,canary,1,259.266045,259.266045,261.7587,0,4,4,4,1,5,3,1,html/resources/stimuli_practice_decision/02_canary.jpg,html/resources/stimuli_practice_decision/07_sock.jpg,canary,sock,,,,,,,,,,,,,,,,,,,,,,,,,,,,,,,,,,,,,,,,,,,,,,,,,,,,,,,,,,,,,,,,,,,,,,,,,,,,,
,,,,,73,2020-07-04_18h27.41.656,retriever_ti,2020.1.3,Win32,60,Chrome,1920,1080,262.266,14,left,0.62469,glasses,0,262.273025,262.273025,264.765605,0,5,5,5,1,7,8,1,html/resources/stimuli_practice_decision/05_glasses.jpg,html/resources/stimuli_practice_decision/03_squirrel.jpg,glasses,squirrel,,,,,,,,,,,,,,,,,,,,,,,,,,,,,,,,,,,,,,,,,,,,,,,,,,,,,,,,,,,,,,,,,,,,,,,,,,,,,
,,,,,73,2020-07-04_18h27.41.656,retriever_ti,2020.1.3,Win32,60,Chrome,1920,1080,265.758745,15,right,1.123195,rabbit,0,265.765945,265.765945,268.2585,0,6,6,6,1,5,4,1,html/resources/stimuli_practice_decision/02_canary.jpg,html/resources/stimuli_practice_decision/01_rabbit.jpg,canary,rabbit,,,,,,,,,,,,,,,,,,,,,,,,,,,,,,,,,,,,,,,,,,,,,,,,,,,,,,,,,,,,,,,,,,,,,,,,,,,,,
,,,,,73,2020-07-04_18h27.41.656,retriever_ti,2020.1.3,Win32,60,Chrome,1920,1080,269.25197,16,left,0.765765,canary,1,269.25886,269.25886,271.75156,0,7,7,7,1,5,3,1,html/resources/stimuli_practice_decision/02_canary.jpg,html/resources/stimuli_practice_decision/07_sock.jpg,canary,sock,,,,,,,,,,,,,,,,,,,,,,,,,,,,,,,,,,,,,,,,,,,,,,,,,,,,,,,,,,,,,,,,,,,,,,,,,,,,,
,,,,,73,2020-07-04_18h27.41.656,retriever_ti,2020.1.3,Win32,60,Chrome,1920,1080,,,,,,,,,,,,,,,,,,,,,,down,1,1.82082,1,0,0,0,3,1,html/resources/sequences_IDs/triangle.png,star ↑,square →,triangle ↓,← circle,down,,,,,,,,,,,,,,,,,,,,,,,,,,,,,,,,,,,,,,,,,,,,,,,,,,,,,,,,,,,,,,
,,,,,73,2020-07-04_18h27.41.656,retriever_ti,2020.1.3,Win32,60,Chrome,1920,1080,,,,,,,,,,,,,,,,,,,,,,down,1,1.469685,1,0,1,1,1,1,html/resources/sequences_IDs/star.png,square ↑,circle →,star ↓,← triangle,down,,,,,,,,,,,,,,,,,,,,,,,,,,,,,,,,,,,,,,,,,,,,,,,,,,,,,,,,,,,,,,
,,,,,73,2020-07-04_18h27.41.656,retriever_ti,2020.1.3,Win32,60,Chrome,1920,1080,,,,,,,,,,,,,,,,,,,,,,up,1,1.002895,1,0,2,2,0,1,html/resources/sequences_IDs/circle.png,circle ↑,square →,triangle ↓,← star ,up,,,,,,,,,,,,,,,,,,,,,,,,,,,,,,,,,,,,,,,,,,,,,,,,,,,,,,,,,,,,,,
,,,,,73,2020-07-04_18h27.41.656,retriever_ti,2020.1.3,Win32,60,Chrome,1920,1080,,,,,,,,,,,,,,,,,,,,,,left,1,0.962665,1,0,3,3,2,1,html/resources/sequences_IDs/square1.png,star ↑,triangle →,circle ↓,← square,left,,,,,,,,,,,,,,,,,,,,,,,,,,,,,,,,,,,,,,,,,,,,,,,,,,,,,,,,,,,,,,
,,,,,73,2020-07-04_18h27.41.656,retriever_ti,2020.1.3,Win32,60,Chrome,1920,1080,,,,,,,,,,,,,,,,,,,,,,,,,,,,,,,,,,,,,0,2.865605,1,0,1,0,1,,,,,,,,,,,,,,,,,,,,,,,,,,,,,,,,,,,,,,,,,,,,,,,,,,,,,,,
,,,,,73,2020-07-04_18h27.41.656,retriever_ti,2020.1.3,Win32,60,Chrome,1920,1080,,,,,,,,,,,,,,,,,1,,,,,,,,,,,,,,,,,,,,,,,,,,,286.654945,1,left,1.1536,dolphin     ,4,2,1,1,1,286.66167,286.66167,289.15415,0,0,0,0,1,1,4,3,dolphin     ,camel         ,html/resources/sequences_IDs/B/02_dolphin.jpg,html/resources/sequences_IDs/A/03_camel.jpg,2,3,1,1,1,1,1,2,0,73,,,,,,,,,,,,,,,,,,,,
,,,,,73,2020-07-04_18h27.41.656,retriever_ti,2020.1.3,Win32,60,Chrome,1920,1080,,,,,,,,,,,,,,,,,1,,,,,,,,,,,,,,,,,,,,,,,,,,,290.244435,2,left,1.04079,dolphin     ,4,2,-3,0,3,290.251415,290.251415,292.744015,0,1,1,1,1,2,4,7,dolphin     ,peacock       ,html/resources/sequences_IDs/B/02_dolphin.jpg,html/resources/sequences_IDs/A/05_peacock.jpg,2,5,1,1,2,1,1,4,0,73,,,,,,,,,,,,,,,,,,,,
,,,,,73,2020-07-04_18h27.41.656,retriever_ti,2020.1.3,Win32,60,Chrome,1920,1080,,,,,,,,,,,,,,,,,1,,,,,,,,,,,,,,,,,,,,,,,,,,,293.348715,3,left,1.099855,camel         ,3,3,1,1,1,293.355525,293.355525,295.848115,0,2,2,2,1,3,3,2,camel         ,sport_tshirt,html/resources/sequences_IDs/A/03_camel.jpg,html/resources/sequences_IDs/B/07_sport_tshirt.jpg,3,7,1,1,3,2,2,6,0,73,,,,,,,,,,,,,,,,,,,,
,,,,,73,2020-07-04_18h27.41.656,retriever_ti,2020.1.3,Win32,60,Chrome,1920,1080,,,,,,,,,,,,,,,,,1,,,,,,,,,,,,,,,,,,,,,,,,,,,296.938775,4,left,1.18558,holdfast    ,8,4,2,1,3,296.9457,296.9457,299.438295,0,3,3,3,1,4,8,6,holdfast    ,gloves      ,html/resources/sequences_IDs/B/04_holdfast.jpg,html/resources/sequences_IDs/B/06_gloves.jpg,4,6,2,1,3,2,3,5,0,73,,,,,,,,,,,,,,,,,,,,
,,,,,73,2020-07-04_18h27.41.656,retriever_ti,2020.1.3,Win32,60,Chrome,1920,1080,,,,,,,,,,,,,,,,,1,,,,,,,,,,,,,,,,,,,,,,,,,,,300.042675,5,left,0.971075,peacock       ,7,5,6,1,3,300.056955,300.056955,302.549365,0,4,4,4,1,5,7,1,peacock       ,hat           ,html/resources/sequences_IDs/A/05_peacock.jpg,html/resources/sequences_IDs/A/08_hat.jpg,5,8,2,1,3,2,4,7,0,73,,,,,,,,,,,,,,,,,,,,
,,,,,73,2020-07-04_18h27.41.656,retriever_ti,2020.1.3,Win32,60,Chrome,1920,1080,,,,,,,,,,,,,,,,,1,,,,,,,,,,,,,,,,,,,,,,,,,,,303.154,6,right,1.992885,gloves      ,6,6,4,1,3,303.16098,303.16098,305.653455,0,5,5,5,1,6,2,6,sport_tshirt,gloves      ,html/resources/sequences_IDs/B/07_sport_tshirt.jpg,html/resources/sequences_IDs/B/06_gloves.jpg,7,6,3,2,3,2,6,5,0,73,,,,,,,,,,,,,,,,,,,,
,,,,,73,2020-07-04_18h27.41.656,retriever_ti,2020.1.3,Win32,60,Chrome,1920,1080,,,,,,,,,,,,,,,,,1,,,,,,,,,,,,,,,,,,,,,,,,,,,306.257855,7,right,1.13444,sport_tshirt,2,7,1,1,1,306.264845,306.264845,308.75752,0,6,6,6,1,7,1,2,hat           ,sport_tshirt,html/resources/sequences_IDs/A/08_hat.jpg,html/resources/sequences_IDs/B/07_sport_tshirt.jpg,8,7,3,2,3,2,7,6,0,73,,,,,,,,,,,,,,,,,,,,
,,,,,73,2020-07-04_18h27.41.656,retriever_ti,2020.1.3,Win32,60,Chrome,1920,1080,,,,,,,,,,,,,,,,,1,,,,,,,,,,,,,,,,,,,,,,,,,,,309.8482,8,right,0.63084,camel         ,3,3,2,1,3,309.862065,309.862065,312.354675,0,7,7,7,1,8,1,3,hat           ,camel         ,html/resources/sequences_IDs/A/08_hat.jpg,html/resources/sequences_IDs/A/03_camel.jpg,8,3,3,2,1,1,7,2,0,73,,,,,,,,,,,,,,,,,,,,
,,,,,73,2020-07-04_18h27.41.656,retriever_ti,2020.1.3,Win32,60,Chrome,1920,1080,,,,,,,,,,,,,,,,,1,,,,,,,,,,,,,,,,,,,,,,,,,,,312.95921,9,right,0.77299,dolphin     ,4,2,-1,0,1,312.973055,312.973055,315.465675,0,8,8,8,1,9,5,4,satellite_dish,dolphin     ,html/resources/sequences_IDs/A/10_satellite_dish.jpg,html/resources/sequences_IDs/B/02_dolphin.jpg,10,2,4,2,1,1,8,1,1,73,,,,,,,,,,,,,,,,,,,,
,,,,,73,2020-07-04_18h27.41.656,retriever_ti,2020.1.3,Win32,60,Chrome,1920,1080,,,,,,,,,,,,,,,,,1,,,,,,,,,,,,,,,,,,,,,,,,,,,316.556115,10,left,0.74326,camel         ,3,3,-5,0,3,316.563265,316.563265,319.05587,0,9,9,9,1,10,3,8,camel         ,holdfast    ,html/resources/sequences_IDs/A/03_camel.jpg,html/resources/sequences_IDs/B/04_holdfast.jpg,3,4,1,1,2,1,2,3,0,73,,,,,,,,,,,,,,,,,,,,
,,,,,73,2020-07-04_18h27.41.656,retriever_ti,2020.1.3,Win32,60,Chrome,1920,1080,,,,,,,,,,,,,,,,,1,,,,,,,,,,,,,,,,,,,,,,,,,,,319.66047,11,left,1.001455,sport_tshirt,2,7,1,1,1,319.66726,319.66726,322.159965,0,10,10,10,1,11,2,1,sport_tshirt,hat           ,html/resources/sequences_IDs/B/07_sport_tshirt.jpg,html/resources/sequences_IDs/A/08_hat.jpg,7,8,3,2,3,2,6,7,0,73,,,,,,,,,,,,,,,,,,,,
,,,,,73,2020-07-04_18h27.41.656,retriever_ti,2020.1.3,Win32,60,Chrome,1920,1080,,,,,,,,,,,,,,,,,1,,,,,,,,,,,,,,,,,,,,,,,,,,,323.250665,12,left,0.62671,dolphin     ,4,2,-1,0,0,323.257515,323.257515,325.75027,0,11,11,11,1,12,4,5,dolphin     ,satellite_dish,html/resources/sequences_IDs/B/02_dolphin.jpg,html/resources/sequences_IDs/A/10_satellite_dish.jpg,2,10,1,1,4,2,1,8,0,73,,,,,,,,,,,,,,,,,,,,
,,,,,73,2020-07-04_18h27.41.656,retriever_ti,2020.1.3,Win32,60,Chrome,1920,1080,,,,,,,,,,,,,,,,,1,,,,,,,,,,,,,,,,,,,,,,,,,,,326.840875,13,right,0.956695,satellite_dish,5,10,-3,0,3,326.854695,326.854695,329.347295,0,12,12,12,1,13,8,5,holdfast    ,satellite_dish,html/resources/sequences_IDs/B/04_holdfast.jpg,html/resources/sequences_IDs/A/10_satellite_dish.jpg,4,10,2,1,4,2,3,8,0,73,,,,,,,,,,,,,,,,,,,,
,,,,,73,2020-07-04_18h27.41.656,retriever_ti,2020.1.3,Win32,60,Chrome,1920,1080,,,,,,,,,,,,,,,,,1,,,,,,,,,,,,,,,,,,,,,,,,,,,329.951615,14,left,0.91839,dolphin     ,4,2,1,1,1,329.95874,329.95874,332.451415,0,13,13,13,1,14,4,3,dolphin     ,camel         ,html/resources/sequences_IDs/B/02_dolphin.jpg,html/resources/sequences_IDs/A/03_camel.jpg,2,3,1,1,1,1,1,2,0,73,,,,,,,,,,,,,,,,,,,,
,,,,,73,2020-07-04_18h27.41.656,retriever_ti,2020.1.3,Win32,60,Chrome,1920,1080,,,,,,,,,,,,,,,,,1,,,,,,,,,,,,,,,,,,,,,,,,,,,333.542125,15,right,0.83858,satellite_dish,5,10,-1,0,0,333.548885,333.548885,336.04155,0,14,14,14,1,15,6,5,gloves      ,satellite_dish,html/resources/sequences_IDs/B/06_gloves.jpg,html/resources/sequences_IDs/A/10_satellite_dish.jpg,6,10,3,2,4,2,5,8,0,73,,,,,,,,,,,,,,,,,,,,
,,,,,73,2020-07-04_18h27.41.656,retriever_ti,2020.1.3,Win32,60,Chrome,1920,1080,,,,,,,,,,,,,,,,,1,,,,,,,,,,,,,,,,,,,,,,,,,,,337.1322,16,left,1.657745,gloves      ,6,6,1,1,1,337.146055,337.146055,339.63869,0,15,15,15,1,16,6,5,gloves      ,satellite_dish,html/resources/sequences_IDs/B/06_gloves.jpg,html/resources/sequences_IDs/A/10_satellite_dish.jpg,6,10,3,2,4,2,5,8,0,73,,,,,,,,,,,,,,,,,,,,
,,,,,73,2020-07-04_18h27.41.656,retriever_ti,2020.1.3,Win32,60,Chrome,1920,1080,,,,,,,,,,,,,,,,,1,,,,,,,,,,,,,,,,,,,,,,,,,,,340.72936,17,right,1.44948,peacock       ,7,5,-1,0,0,340.7363,340.7363,343.22899,0,16,16,16,1,17,8,7,holdfast    ,peacock       ,html/resources/sequences_IDs/B/04_holdfast.jpg,html/resources/sequences_IDs/A/05_peacock.jpg,4,5,2,1,2,1,3,4,0,73,,,,,,,,,,,,,,,,,,,,
,,,,,73,2020-07-04_18h27.41.656,retriever_ti,2020.1.3,Win32,60,Chrome,1920,1080,,,,,,,,,,,,,,,,,1,,,,,,,,,,,,,,,,,,,,,,,,,,,344.32038,18,right,1.667045,peacock       ,7,5,1,1,1,344.333555,344.333555,346.825995,0,17,17,17,1,18,6,7,gloves      ,peacock       ,html/resources/sequences_IDs/B/06_gloves.jpg,html/resources/sequences_IDs/A/05_peacock.jpg,6,5,3,2,2,1,5,4,0,73,,,,,,,,,,,,,,,,,,,,
,,,,,73,2020-07-04_18h27.41.656,retriever_ti,2020.1.3,Win32,60,Chrome,1920,1080,,,,,,,,,,,,,,,,,1,,,,,,,,,,,,,,,,,,,,,,,,,,,347.91675,19,right,0.862665,sport_tshirt,2,7,-5,0,3,347.930565,347.930565,350.42316,0,18,18,18,1,19,7,2,peacock       ,sport_tshirt,html/resources/sequences_IDs/A/05_peacock.jpg,html/resources/sequences_IDs/B/07_sport_tshirt.jpg,5,7,2,1,3,2,4,6,0,73,,,,,,,,,,,,,,,,,,,,
,,,,,73,2020-07-04_18h27.41.656,retriever_ti,2020.1.3,Win32,60,Chrome,1920,1080,,,,,,,,,,,,,,,,,1,,,,,,,,,,,,,,,,,,,,,,,,,,,351.027685,20,left,1.04174,satellite_dish,5,10,-3,0,3,351.03461,351.03461,353.527195,0,19,19,19,1,20,5,8,satellite_dish,holdfast    ,html/resources/sequences_IDs/A/10_satellite_dish.jpg,html/resources/sequences_IDs/B/04_holdfast.jpg,10,4,4,2,2,1,8,3,0,73,,,,,,,,,,,,,,,,,,,,
,,,,,73,2020-07-04_18h27.41.656,retriever_ti,2020.1.3,Win32,60,Chrome,1920,1080,,,,,,,,,,,,,,,,,1,,,,,,,,,,,,,,,,,,,,,,,,,,,354.131605,21,left,1.375455,satellite_dish,5,10,-1,0,1,354.145725,354.145725,356.63823,0,20,20,20,1,21,5,6,satellite_dish,gloves      ,html/resources/sequences_IDs/A/10_satellite_dish.jpg,html/resources/sequences_IDs/B/06_gloves.jpg,10,6,4,2,3,2,8,5,1,73,,,,,,,,,,,,,,,,,,,,
,,,,,73,2020-07-04_18h27.41.656,retriever_ti,2020.1.3,Win32,60,Chrome,1920,1080,,,,,,,,,,,,,,,,,1,,,,,,,,,,,,,,,,,,,,,,,,,,,357.729315,22,left,0.88019,sport_tshirt,2,7,-5,0,3,357.73589,357.73589,360.228735,0,21,21,21,1,22,2,7,sport_tshirt,peacock       ,html/resources/sequences_IDs/B/07_sport_tshirt.jpg,html/resources/sequences_IDs/A/05_peacock.jpg,7,5,3,2,2,1,6,4,0,73,,,,,,,,,,,,,,,,,,,,
,,,,,73,2020-07-04_18h27.41.656,retriever_ti,2020.1.3,Win32,60,Chrome,1920,1080,,,,,,,,,,,,,,,,,1,,,,,,,,,,,,,,,,,,,,,,,,,,,360.833045,23,left,1.80367,gloves      ,6,6,5,1,3,360.846885,360.846885,363.33954,0,22,22,22,1,23,6,1,gloves      ,hat           ,html/resources/sequences_IDs/B/06_gloves.jpg,html/resources/sequences_IDs/A/08_hat.jpg,6,8,3,2,3,2,5,7,0,73,,,,,,,,,,,,,,,,,,,,
,,,,,73,2020-07-04_18h27.41.656,retriever_ti,2020.1.3,Win32,60,Chrome,1920,1080,,,,,,,,,,,,,,,,,1,,,,,,,,,,,,,,,,,,,,,,,,,,,363.94395,24,left,0.76649,camel         ,3,3,-4,0,3,363.957925,363.957925,366.45049,0,23,23,23,1,24,3,7,camel         ,peacock       ,html/resources/sequences_IDs/A/03_camel.jpg,html/resources/sequences_IDs/A/05_peacock.jpg,3,5,1,1,2,1,2,4,0,73,,,,,,,,,,,,,,,,,,,,
,,,,,73,2020-07-04_18h27.41.656,retriever_ti,2020.1.3,Win32,60,Chrome,1920,1080,,,,,,,,,,,,,,,,,1,,,,,,,,,,,,,,,,,,,,,,,,,,,367.05514,25,right,1.084705,camel         ,3,3,1,1,1,367.06897,367.06897,369.561545,0,24,24,24,1,25,2,3,sport_tshirt,camel         ,html/resources/sequences_IDs/B/07_sport_tshirt.jpg,html/resources/sequences_IDs/A/03_camel.jpg,7,3,3,2,1,1,6,2,0,73,,,,,,,,,,,,,,,,,,,,
,,,,,73,2020-07-04_18h27.41.656,retriever_ti,2020.1.3,Win32,60,Chrome,1920,1080,,,,,,,,,,,,,,,,,1,,,,,,,,,,,,,,,,,,,,,,,,,,,370.652295,26,right,0.88511,dolphin     ,4,2,3,1,3,370.66626,370.66626,373.15863,0,25,25,25,1,26,1,4,hat           ,dolphin     ,html/resources/sequences_IDs/A/08_hat.jpg,html/resources/sequences_IDs/B/02_dolphin.jpg,8,2,3,2,1,1,7,1,0,73,,,,,,,,,,,,,,,,,,,,
,,,,,73,2020-07-04_18h27.41.656,retriever_ti,2020.1.3,Win32,60,Chrome,1920,1080,,,,,,,,,,,,,,,,,1,,,,,,,,,,,,,,,,,,,,,,,,,,,373.763025,27,left,0.81548,dolphin     ,4,2,-2,0,3,373.77714,373.77714,376.269675,0,26,26,26,1,27,4,6,dolphin     ,gloves      ,html/resources/sequences_IDs/B/02_dolphin.jpg,html/resources/sequences_IDs/B/06_gloves.jpg,2,6,1,1,3,2,1,5,0,73,,,,,,,,,,,,,,,,,,,,
,,,,,73,2020-07-04_18h27.41.656,retriever_ti,2020.1.3,Win32,60,Chrome,1920,1080,,,,,,,,,,,,,,,,,1,,,,,,,,,,,,,,,,,,,,,,,,,,,376.87432,28,right,1.78241,peacock       ,7,5,1,1,0,376.881155,376.881155,379.37384,0,27,27,27,1,28,6,7,gloves      ,peacock       ,html/resources/sequences_IDs/B/06_gloves.jpg,html/resources/sequences_IDs/A/05_peacock.jpg,6,5,3,2,2,1,5,4,1,73,,,,,,,,,,,,,,,,,,,,
,,,,,73,2020-07-04_18h27.41.656,retriever_ti,2020.1.3,Win32,60,Chrome,1920,1080,,,,,,,,,,,,,,,,,1,,,,,,,,,,,,,,,,,,,,,,,,,,,380.46423,29,right,0.79679,camel         ,3,3,-5,0,3,380.47135,380.47135,382.96396,0,28,28,28,1,29,8,3,holdfast    ,camel         ,html/resources/sequences_IDs/B/04_holdfast.jpg,html/resources/sequences_IDs/A/03_camel.jpg,4,3,2,1,1,1,3,2,0,73,,,,,,,,,,,,,,,,,,,,
,,,,,73,2020-07-04_18h27.41.656,retriever_ti,2020.1.3,Win32,60,Chrome,1920,1080,,,,,,,,,,,,,,,,,1,,,,,,,,,,,,,,,,,,,,,,,,,,,383.568605,30,right,0.69528,dolphin     ,4,2,1,1,0,383.582495,383.582495,386.07501,0,29,29,29,1,30,3,4,camel         ,dolphin     ,html/resources/sequences_IDs/A/03_camel.jpg,html/resources/sequences_IDs/B/02_dolphin.jpg,3,2,1,1,1,1,2,1,1,73,,,,,,,,,,,,,,,,,,,,
,,,,,73,2020-07-04_18h27.41.656,retriever_ti,2020.1.3,Win32,60,Chrome,1920,1080,,,,,,,,,,,,,,,,,1,,,,,,,,,,,,,,,,,,,,,,,,,,,387.16568,31,right,0.824835,dolphin     ,4,2,1,1,1,387.17957,387.17957,389.672085,0,30,30,30,1,31,3,4,camel         ,dolphin     ,html/resources/sequences_IDs/A/03_camel.jpg,html/resources/sequences_IDs/B/02_dolphin.jpg,3,2,1,1,1,1,2,1,0,73,,,,,,,,,,,,,,,,,,,,
,,,,,73,2020-07-04_18h27.41.656,retriever_ti,2020.1.3,Win32,60,Chrome,1920,1080,,,,,,,,,,,,,,,,,1,,,,,,,,,,,,,,,,,,,,,,,,,,,390.762815,32,right,1.432885,camel         ,3,3,-2,0,3,390.769685,390.769685,393.26229,0,31,31,31,1,32,5,3,satellite_dish,camel         ,html/resources/sequences_IDs/A/10_satellite_dish.jpg,html/resources/sequences_IDs/A/03_camel.jpg,10,3,4,2,1,1,8,2,0,73,,,,,,,,,,,,,,,,,,,,
,,,,,73,2020-07-04_18h27.41.656,retriever_ti,2020.1.3,Win32,60,Chrome,1920,1080,,,,,,,,,,,,,,,,,1,,,,,,,,,,,,,,,,,,,,,,,,,,,393.866715,33,left,0.637245,peacock       ,7,5,-1,0,0,393.87391,393.87391,396.366375,0,32,32,32,1,33,7,8,peacock       ,holdfast    ,html/resources/sequences_IDs/A/05_peacock.jpg,html/resources/sequences_IDs/B/04_holdfast.jpg,5,4,2,1,2,1,4,3,0,73,,,,,,,,,,,,,,,,,,,,
,,,,,73,2020-07-04_18h27.41.656,retriever_ti,2020.1.3,Win32,60,Chrome,1920,1080,,,,,,,,,,,,,,,,,1,,,,,,,,,,,,,,,,,,,,,,,,,,,397.457085,34,left,0.576755,dolphin     ,4,2,3,1,3,397.463975,397.463975,399.95659,0,33,33,33,1,34,4,1,dolphin     ,hat           ,html/resources/sequences_IDs/B/02_dolphin.jpg,html/resources/sequences_IDs/A/08_hat.jpg,2,8,1,1,3,2,1,7,0,73,,,,,,,,,,,,,,,,,,,,
,,,,,73,2020-07-04_18h27.41.656,retriever_ti,2020.1.3,Win32,60,Chrome,1920,1080,,,,,,,,,,,,,,,,,1,,,,,,,,,,,,,,,,,,,,,,,,,,,400.561565,35,left,0.623995,peacock       ,7,5,-1,0,0,400.56805,400.56805,403.06072,0,34,34,34,1,35,7,8,peacock       ,holdfast    ,html/resources/sequences_IDs/A/05_peacock.jpg,html/resources/sequences_IDs/B/04_holdfast.jpg,5,4,2,1,2,1,4,3,0,73,,,,,,,,,,,,,,,,,,,,
,,,,,73,2020-07-04_18h27.41.656,retriever_ti,2020.1.3,Win32,60,Chrome,1920,1080,,,,,,,,,,,,,,,,,1,,,,,,,,,,,,,,,,,,,,,,,,,,,404.15142,36,right,0.599575,peacock       ,7,5,6,1,3,404.16522,404.16522,406.65784,0,35,35,35,1,36,1,7,hat           ,peacock       ,html/resources/sequences_IDs/A/08_hat.jpg,html/resources/sequences_IDs/A/05_peacock.jpg,8,5,3,2,2,1,7,4,0,73,,,,,,,,,,,,,,,,,,,,
,,,,,73,2020-07-04_18h27.41.656,retriever_ti,2020.1.3,Win32,60,Chrome,1920,1080,,,,,,,,,,,,,,,,,1,,,,,,,,,,,,,,,,,,,,,,,,,,,407.2624,37,left,0.5008,peacock       ,7,5,1,1,1,407.26939,407.26939,409.761895,0,36,36,36,1,37,7,6,peacock       ,gloves      ,html/resources/sequences_IDs/A/05_peacock.jpg,html/resources/sequences_IDs/B/06_gloves.jpg,5,6,2,1,3,2,4,5,0,73,,,,,,,,,,,,,,,,,,,,
,,,,,73,2020-07-04_18h27.41.656,retriever_ti,2020.1.3,Win32,60,Chrome,1920,1080,,,,,,,,,,,,,,,,,1,,,,,,,,,,,,,,,,,,,,,,,,,,,410.852675,38,left,0.90217,gloves      ,6,6,-2,0,3,410.866565,410.866565,413.359025,0,37,37,37,1,38,6,8,gloves      ,holdfast    ,html/resources/sequences_IDs/B/06_gloves.jpg,html/resources/sequences_IDs/B/04_holdfast.jpg,6,4,3,2,2,1,5,3,0,73,,,,,,,,,,,,,,,,,,,,
,,,,,73,2020-07-04_18h27.41.656,retriever_ti,2020.1.3,Win32,60,Chrome,1920,1080,,,,,,,,,,,,,,,,,1,,,,,,,,,,,,,,,,,,,,,,,,,,,413.9634,39,right,0.507685,peacock       ,7,5,-1,0,0,413.97749,413.97749,416.47008,0,38,38,38,1,39,8,7,holdfast    ,peacock       ,html/resources/sequences_IDs/B/04_holdfast.jpg,html/resources/sequences_IDs/A/05_peacock.jpg,4,5,2,1,2,1,3,4,0,73,,,,,,,,,,,,,,,,,,,,
,,,,,73,2020-07-04_18h27.41.656,retriever_ti,2020.1.3,Win32,60,Chrome,1920,1080,,,,,,,,,,,,,,,,,1,,,,,,,,,,,,,,,,,,,,,,,,,,,417.56076,40,right,0.655105,satellite_dish,5,10,4,1,3,417.57467,417.57467,420.0672,0,39,39,39,1,40,1,5,hat           ,satellite_dish,html/resources/sequences_IDs/A/08_hat.jpg,html/resources/sequences_IDs/A/10_satellite_dish.jpg,8,10,3,2,4,2,7,8,0,73,,,,,,,,,,,,,,,,,,,,
,,,,,73,2020-07-04_18h27.41.656,retriever_ti,2020.1.3,Win32,60,Chrome,1920,1080,,,,,,,,,,,,,,,,,1,,,,,,,,,,,,,,,,,,,,,,,,,,,420.671825,41,right,0.520235,satellite_dish,5,10,2,1,3,420.685585,420.685585,423.178255,0,40,40,40,1,41,3,5,camel         ,satellite_dish,html/resources/sequences_IDs/A/03_camel.jpg,html/resources/sequences_IDs/A/10_satellite_dish.jpg,3,10,1,1,4,2,2,8,0,73,,,,,,,,,,,,,,,,,,,,
,,,,,73,2020-07-04_18h27.41.656,retriever_ti,2020.1.3,Win32,60,Chrome,1920,1080,,,,,,,,,,,,,,,,,1,,,,,,,,,,,,,,,,,,,,,,,,,,,423.78261,42,right,0.69332,gloves      ,6,6,3,1,3,423.796635,423.796635,426.28929,0,41,41,41,1,42,3,6,camel         ,gloves      ,html/resources/sequences_IDs/A/03_camel.jpg,html/resources/sequences_IDs/B/06_gloves.jpg,3,6,1,1,3,2,2,5,0,73,,,,,,,,,,,,,,,,,,,,
,,,,,73,2020-07-04_18h27.41.656,retriever_ti,2020.1.3,Win32,60,Chrome,1920,1080,,,,,,,,,,,,,,,,,1,,,,,,,,,,,,,,,,,,,,,,,,,,,426.89386,43,left,0.86237,sport_tshirt,2,7,-1,0,1,426.907705,426.907705,429.40028,0,42,42,42,1,43,2,3,sport_tshirt,camel         ,html/resources/sequences_IDs/B/07_sport_tshirt.jpg,html/resources/sequences_IDs/A/03_camel.jpg,7,3,3,2,1,1,6,2,1,73,,,,,,,,,,,,,,,,,,,,
,,,,,73,2020-07-04_18h27.41.656,retriever_ti,2020.1.3,Win32,60,Chrome,1920,1080,,,,,,,,,,,,,,,,,1,,,,,,,,,,,,,,,,,,,,,,,,,,,430.49113,44,right,0.67631,dolphin     ,4,2,-4,0,3,430.498155,430.498155,432.990505,0,43,43,43,1,44,8,4,holdfast    ,dolphin     ,html/resources/sequences_IDs/B/04_holdfast.jpg,html/resources/sequences_IDs/B/02_dolphin.jpg,4,2,2,1,1,1,3,1,0,73,,,,,,,,,,,,,,,,,,,,
,,,,,73,2020-07-04_18h27.41.656,retriever_ti,2020.1.3,Win32,60,Chrome,1920,1080,,,,,,,,,,,,,,,,,1,,,,,,,,,,,,,,,,,,,,,,,,,,,433.59511,45,right,0.697465,camel         ,3,3,-4,0,3,433.60198,433.60198,436.094575,0,44,44,44,1,45,7,3,peacock       ,camel         ,html/resources/sequences_IDs/A/05_peacock.jpg,html/resources/sequences_IDs/A/03_camel.jpg,5,3,2,1,1,1,4,2,0,73,,,,,,,,,,,,,,,,,,,,
,,,,,73,2020-07-04_18h27.41.656,retriever_ti,2020.1.3,Win32,60,Chrome,1920,1080,,,,,,,,,,,,,,,,,1,,,,,,,,,,,,,,,,,,,,,,,,,,,436.69917,46,right,0.848225,gloves      ,6,6,1,1,1,436.713055,436.713055,439.20566,0,45,45,45,1,46,5,6,satellite_dish,gloves      ,html/resources/sequences_IDs/A/10_satellite_dish.jpg,html/resources/sequences_IDs/B/06_gloves.jpg,10,6,4,2,3,2,8,5,0,73,,,,,,,,,,,,,,,,,,,,
,,,,,73,2020-07-04_18h27.41.656,retriever_ti,2020.1.3,Win32,60,Chrome,1920,1080,,,,,,,,,,,,,,,,,1,,,,,,,,,,,,,,,,,,,,,,,,,,,440.296095,47,right,0.597665,sport_tshirt,2,7,-6,0,3,440.30316,440.30316,442.79578,0,46,46,46,1,47,8,2,holdfast    ,sport_tshirt,html/resources/sequences_IDs/B/04_holdfast.jpg,html/resources/sequences_IDs/B/07_sport_tshirt.jpg,4,7,2,1,3,2,3,6,0,73,,,,,,,,,,,,,,,,,,,,
,,,,,73,2020-07-04_18h27.41.656,retriever_ti,2020.1.3,Win32,60,Chrome,1920,1080,,,,,,,,,,,,,,,,,1,,,,,,,,,,,,,,,,,,,,,,,,,,,443.400375,48,right,0.594895,dolphin     ,4,2,-2,0,3,443.407285,443.407285,445.89987,0,47,47,47,1,48,6,4,gloves      ,dolphin     ,html/resources/sequences_IDs/B/06_gloves.jpg,html/resources/sequences_IDs/B/02_dolphin.jpg,6,2,3,2,1,1,5,1,0,73,,,,,,,,,,,,,,,,,,,,
,,,,,73,2020-07-04_18h27.41.656,retriever_ti,2020.1.3,Win32,60,Chrome,1920,1080,,,,,,,,,,,,,,,,,1,,,,,,,,,,,,,,,,,,,,,,,,,,,446.504285,49,left,1.1164,holdfast    ,8,4,7,1,3,446.511375,446.511375,449.00398,0,48,48,48,1,49,8,1,holdfast    ,hat           ,html/resources/sequences_IDs/B/04_holdfast.jpg,html/resources/sequences_IDs/A/08_hat.jpg,4,8,2,1,3,2,3,7,0,73,,,,,,,,,,,,,,,,,,,,
,,,,,73,2020-07-04_18h27.41.656,retriever_ti,2020.1.3,Win32,60,Chrome,1920,1080,,,,,,,,,,,,,,,,,1,,,,,,,,,,,,,,,,,,,,,,,,,,,449.60857,50,left,0.6163,dolphin     ,4,2,-4,0,3,449.61544,449.61544,452.10805,0,49,49,49,1,50,4,8,dolphin     ,holdfast    ,html/resources/sequences_IDs/B/02_dolphin.jpg,html/resources/sequences_IDs/B/04_holdfast.jpg,2,4,1,1,2,1,1,3,0,73,,,,,,,,,,,,,,,,,,,,
,,,,,73,2020-07-04_18h27.41.656,retriever_ti,2020.1.3,Win32,60,Chrome,1920,1080,,,,,,,,,,,,,,,,,1,,,,,,,,,,,,,,,,,,,,,,,,,,,452.71262,51,right,0.57839,dolphin     ,4,2,2,1,3,452.719525,452.719525,455.212115,0,50,50,50,1,51,2,4,sport_tshirt,dolphin     ,html/resources/sequences_IDs/B/07_sport_tshirt.jpg,html/resources/sequences_IDs/B/02_dolphin.jpg,7,2,3,2,1,1,6,1,0,73,,,,,,,,,,,,,,,,,,,,
,,,,,73,2020-07-04_18h27.41.656,retriever_ti,2020.1.3,Win32,60,Chrome,1920,1080,,,,,,,,,,,,,,,,,1,,,,,,,,,,,,,,,,,,,,,,,,,,,455.816525,52,left,0.81634,gloves      ,6,6,-1,0,0,455.823725,455.823725,458.31629,0,51,51,51,1,52,6,7,gloves      ,peacock       ,html/resources/sequences_IDs/B/06_gloves.jpg,html/resources/sequences_IDs/A/05_peacock.jpg,6,5,3,2,2,1,5,4,0,73,,,,,,,,,,,,,,,,,,,,
,,,,,73,2020-07-04_18h27.41.656,retriever_ti,2020.1.3,Win32,60,Chrome,1920,1080,,,,,,,,,,,,,,,,,1,,,,,,,,,,,,,,,,,,,,,,,,,,,459.4072,53,right,0.93205,camel         ,3,3,1,1,1,459.420885,459.420885,461.91338,0,52,52,52,1,53,2,3,sport_tshirt,camel         ,html/resources/sequences_IDs/B/07_sport_tshirt.jpg,html/resources/sequences_IDs/A/03_camel.jpg,7,3,3,2,1,1,6,2,0,73,,,,,,,,,,,,,,,,,,,,
,,,,,73,2020-07-04_18h27.41.656,retriever_ti,2020.1.3,Win32,60,Chrome,1920,1080,,,,,,,,,,,,,,,,,1,,,,,,,,,,,,,,,,,,,,,,,,,,,463.00407,54,left,0.85951,satellite_dish,5,10,4,1,3,463.0179,463.0179,465.510495,0,53,53,53,1,54,5,1,satellite_dish,hat           ,html/resources/sequences_IDs/A/10_satellite_dish.jpg,html/resources/sequences_IDs/A/08_hat.jpg,10,8,4,2,3,2,8,7,0,73,,,,,,,,,,,,,,,,,,,,
,,,,,73,2020-07-04_18h27.41.656,retriever_ti,2020.1.3,Win32,60,Chrome,1920,1080,,,,,,,,,,,,,,,,,1,,,,,,,,,,,,,,,,,,,,,,,,,,,466.11488,55,left,0.853265,peacock       ,7,5,-1,0,1,466.128915,466.128915,468.621575,0,54,54,54,1,55,7,8,peacock       ,holdfast    ,html/resources/sequences_IDs/A/05_peacock.jpg,html/resources/sequences_IDs/B/04_holdfast.jpg,5,4,2,1,2,1,4,3,1,73,,,,,,,,,,,,,,,,,,,,
,,,,,73,2020-07-04_18h27.41.656,retriever_ti,2020.1.3,Win32,60,Chrome,1920,1080,,,,,,,,,,,,,,,,,1,,,,,,,,,,,,,,,,,,,,,,,,,,,469.71223,56,left,1.019315,dolphin     ,4,2,2,1,3,469.72605,469.72605,472.218645,0,55,55,55,1,56,4,2,dolphin     ,sport_tshirt,html/resources/sequences_IDs/B/02_dolphin.jpg,html/resources/sequences_IDs/B/07_sport_tshirt.jpg,2,7,1,1,3,2,1,6,0,73,,,,,,,,,,,,,,,,,,,,
,,,,,73,2020-07-04_18h27.41.656,retriever_ti,2020.1.3,Win32,60,Chrome,1920,1080,,,,,,,,,,,,,,,,,1,,,,,,,,,,,,,,,,,,,,,,,,,,,472.82323,57,left,0.9645,camel         ,3,3,1,1,1,472.837125,472.837125,475.32986,0,56,56,56,1,57,3,2,camel         ,sport_tshirt,html/resources/sequences_IDs/A/03_camel.jpg,html/resources/sequences_IDs/B/07_sport_tshirt.jpg,3,7,1,1,3,2,2,6,0,73,,,,,,,,,,,,,,,,,,,,
,,,,,73,2020-07-04_18h27.41.656,retriever_ti,2020.1.3,Win32,60,Chrome,1920,1080,,,,,,,,,,,,,,,,,1,,,,,,,,,,,,,,,,,,,,,,,,,,,476.4202,58,left,1.03721,satellite_dish,5,10,-1,0,0,476.42735,476.42735,478.91992,0,57,57,57,1,58,5,6,satellite_dish,gloves      ,html/resources/sequences_IDs/A/10_satellite_dish.jpg,html/resources/sequences_IDs/B/06_gloves.jpg,10,6,4,2,3,2,8,5,0,73,,,,,,,,,,,,,,,,,,,,
,,,,,73,2020-07-04_18h27.41.656,retriever_ti,2020.1.3,Win32,60,Chrome,1920,1080,,,,,,,,,,,,,,,,,1,,,,,,,,,,,,,,,,,,,,,,,,,,,480.01058,59,right,0.603755,dolphin     ,4,2,-3,0,3,480.024435,480.024435,482.517565,0,58,58,58,1,59,7,4,peacock       ,dolphin     ,html/resources/sequences_IDs/A/05_peacock.jpg,html/resources/sequences_IDs/B/02_dolphin.jpg,5,2,2,1,1,1,4,1,0,73,,,,,,,,,,,,,,,,,,,,
,,,,,73,2020-07-04_18h27.41.656,retriever_ti,2020.1.3,Win32,60,Chrome,1920,1080,,,,,,,,,,,,,,,,,1,,,,,,,,,,,,,,,,,,,,,,,,,,,483.121615,60,left,0.765245,sport_tshirt,2,7,-6,0,3,483.128465,483.128465,485.621095,0,59,59,59,1,60,2,8,sport_tshirt,holdfast    ,html/resources/sequences_IDs/B/07_sport_tshirt.jpg,html/resources/sequences_IDs/B/04_holdfast.jpg,7,4,3,2,2,1,6,3,0,73,,,,,,,,,,,,,,,,,,,,
,,,,,73,2020-07-04_18h27.41.656,retriever_ti,2020.1.3,Win32,60,Chrome,1920,1080,,,,,,,,,,,,,,,,,1,,,,,,,,,,,,,,,,,,,,,,,,,,,486.22544,61,left,0.65478,sport_tshirt,2,7,1,1,1,486.239475,486.239475,488.732145,0,60,60,60,1,61,2,1,sport_tshirt,hat           ,html/resources/sequences_IDs/B/07_sport_tshirt.jpg,html/resources/sequences_IDs/A/08_hat.jpg,7,8,3,2,3,2,6,7,0,73,,,,,,,,,,,,,,,,,,,,
,,,,,73,2020-07-04_18h27.41.656,retriever_ti,2020.1.3,Win32,60,Chrome,1920,1080,,,,,,,,,,,,,,,,,1,,,,,,,,,,,,,,,,,,,,,,,,,,,489.822845,62,right,1.49904,satellite_dish,5,10,3,1,3,489.836745,489.836745,492.32939,0,61,61,61,1,62,2,5,sport_tshirt,satellite_dish,html/resources/sequences_IDs/B/07_sport_tshirt.jpg,html/resources/sequences_IDs/A/10_satellite_dish.jpg,7,10,3,2,4,2,6,8,0,73,,,,,,,,,,,,,,,,,,,,
,,,,,73,2020-07-04_18h27.41.656,retriever_ti,2020.1.3,Win32,60,Chrome,1920,1080,,,,,,,,,,,,,,,,,1,,,,,,,,,,,,,,,,,,,,,,,,,,,492.933895,63,right,1.255475,dolphin     ,4,2,-1,0,0,492.940775,492.940775,495.433315,0,62,62,62,1,63,5,4,satellite_dish,dolphin     ,html/resources/sequences_IDs/A/10_satellite_dish.jpg,html/resources/sequences_IDs/B/02_dolphin.jpg,10,2,4,2,1,1,8,1,0,73,,,,,,,,,,,,,,,,,,,,
,,,,,73,2020-07-04_18h27.41.656,retriever_ti,2020.1.3,Win32,60,Chrome,1920,1080,,,,,,,,,,,,,,,,,1,,,,,,,,,,,,,,,,,,,,,,,,,,,496.52379,64,right,0.71355,sport_tshirt,2,7,1,1,1,496.53103,496.53103,499.02356,0,63,63,63,1,64,1,2,hat           ,sport_tshirt,html/resources/sequences_IDs/A/08_hat.jpg,html/resources/sequences_IDs/B/07_sport_tshirt.jpg,8,7,3,2,3,2,7,6,0,73,,,,,,,,,,,,,,,,,,,,
,,,,,73,2020-07-04_18h27.41.656,retriever_ti,2020.1.3,Win32,60,Chrome,1920,1080,,,,,,,,,,,,,,,,,1,,,,,,,,,,,,,,,,,,,,,,,,,,,500.114295,65,right,0.64373,sport_tshirt,2,7,1,1,0,500.128125,500.128125,502.62065,0,64,64,64,1,65,1,2,hat           ,sport_tshirt,html/resources/sequences_IDs/A/08_hat.jpg,html/resources/sequences_IDs/B/07_sport_tshirt.jpg,8,7,3,2,3,2,7,6,1,73,,,,,,,,,,,,,,,,,,,,
,,,,,73,2020-07-04_18h27.41.656,retriever_ti,2020.1.3,Win32,60,Chrome,1920,1080,,,,,,,,,,,,,,,,,1,,,,,,,,,,,,,,,,,,,,,,,,,,,503.71143,66,right,0.57929,sport_tshirt,2,7,-3,0,3,503.725415,503.725415,506.21779,0,65,65,65,1,66,5,2,satellite_dish,sport_tshirt,html/resources/sequences_IDs/A/10_satellite_dish.jpg,html/resources/sequences_IDs/B/07_sport_tshirt.jpg,10,7,4,2,3,2,8,6,0,73,,,,,,,,,,,,,,,,,,,,
,,,,,73,2020-07-04_18h27.41.656,retriever_ti,2020.1.3,Win32,60,Chrome,1920,1080,,,,,,,,,,,,,,,,,1,,,,,,,,,,,,,,,,,,,,,,,,,,,506.822475,67,left,0.582995,dolphin     ,4,2,-1,0,0,506.82924,506.82924,509.321875,0,66,66,66,1,67,4,5,dolphin     ,satellite_dish,html/resources/sequences_IDs/B/02_dolphin.jpg,html/resources/sequences_IDs/A/10_satellite_dish.jpg,2,10,1,1,4,2,1,8,0,73,,,,,,,,,,,,,,,,,,,,
,,,,,73,2020-07-04_18h27.41.656,retriever_ti,2020.1.3,Win32,60,Chrome,1920,1080,,,,,,,,,,,,,,,,,1,,,,,,,,,,,,,,,,,,,,,,,,,,,510.412325,68,right,0.604035,dolphin     ,4,2,-1,0,0,510.42645,510.42645,512.91902,0,67,67,67,1,68,5,4,satellite_dish,dolphin     ,html/resources/sequences_IDs/A/10_satellite_dish.jpg,html/resources/sequences_IDs/B/02_dolphin.jpg,10,2,4,2,1,1,8,1,0,73,,,,,,,,,,,,,,,,,,,,
,,,,,73,2020-07-04_18h27.41.656,retriever_ti,2020.1.3,Win32,60,Chrome,1920,1080,,,,,,,,,,,,,,,,,1,,,,,,,,,,,,,,,,,,,,,,,,,,,514.009665,69,right,0.51241,dolphin     ,4,2,1,1,1,514.02353,514.02353,516.516145,0,68,68,68,1,69,3,4,camel         ,dolphin     ,html/resources/sequences_IDs/A/03_camel.jpg,html/resources/sequences_IDs/B/02_dolphin.jpg,3,2,1,1,1,1,2,1,0,73,,,,,,,,,,,,,,,,,,,,
,,,,,73,2020-07-04_18h27.41.656,retriever_ti,2020.1.3,Win32,60,Chrome,1920,1080,,,,,,,,,,,,,,,,,1,,,,,,,,,,,,,,,,,,,,,,,,,,,517.607,70,right,1.08971,holdfast    ,8,4,7,1,3,517.61415,517.61415,520.106325,0,69,69,69,1,70,1,8,hat           ,holdfast    ,html/resources/sequences_IDs/A/08_hat.jpg,html/resources/sequences_IDs/B/04_holdfast.jpg,8,4,3,2,2,1,7,3,0,73,,,,,,,,,,,,,,,,,,,,
,,,,,73,2020-07-04_18h27.41.656,retriever_ti,2020.1.3,Win32,60,Chrome,1920,1080,,,,,,,,,,,,,,,,,1,,,,,,,,,,,,,,,,,,,,,,,,,,,520.710995,71,right,2.336845,satellite_dish,5,10,-2,0,3,520.71783,520.71783,523.210485,0,70,70,70,1,71,7,5,peacock       ,satellite_dish,html/resources/sequences_IDs/A/05_peacock.jpg,html/resources/sequences_IDs/A/10_satellite_dish.jpg,5,10,2,1,4,2,4,8,0,73,,,,,,,,,,,,,,,,,,,,
,,,,,73,2020-07-04_18h27.41.656,retriever_ti,2020.1.3,Win32,60,Chrome,1920,1080,,,,,,,,,,,,,,,,,1,,,,,,,,,,,,,,,,,,,,,,,,,,,523.814775,72,right,1.817165,peacock       ,7,5,2,1,3,523.828865,523.828865,526.32142,0,71,71,71,1,72,5,7,satellite_dish,peacock       ,html/resources/sequences_IDs/A/10_satellite_dish.jpg,html/resources/sequences_IDs/A/05_peacock.jpg,10,5,4,2,2,1,8,4,0,73,,,,,,,,,,,,,,,,,,,,
,,,,,73,2020-07-04_18h27.41.656,retriever_ti,2020.1.3,Win32,60,Chrome,1920,1080,,,,,,,,,,,,,,,,,1,,,,,,,,,,,,,,,,,,,,,,,,,,,526.92606,73,left,1.172315,peacock       ,7,5,1,1,1,526.94056,526.94056,529.43247,0,72,72,72,1,73,7,6,peacock       ,gloves      ,html/resources/sequences_IDs/A/05_peacock.jpg,html/resources/sequences_IDs/B/06_gloves.jpg,5,6,2,1,3,2,4,5,0,73,,,,,,,,,,,,,,,,,,,,
,,,,,73,2020-07-04_18h27.41.656,retriever_ti,2020.1.3,Win32,60,Chrome,1920,1080,,,,,,,,,,,,,,,,,1,,,,,,,,,,,,,,,,,,,,,,,,,,,530.52295,74,right,1.04024,sport_tshirt,2,7,-4,0,3,530.537025,530.537025,533.0296,0,73,73,73,1,74,6,2,gloves      ,sport_tshirt,html/resources/sequences_IDs/B/06_gloves.jpg,html/resources/sequences_IDs/B/07_sport_tshirt.jpg,6,7,3,2,3,2,5,6,0,73,,,,,,,,,,,,,,,,,,,,
,,,,,73,2020-07-04_18h27.41.656,retriever_ti,2020.1.3,Win32,60,Chrome,1920,1080,,,,,,,,,,,,,,,,,1,,,,,,,,,,,,,,,,,,,,,,,,,,,533.63423,75,right,1.74163,camel         ,3,3,-3,0,3,533.641055,533.641055,536.133725,0,74,74,74,1,75,6,3,gloves      ,camel         ,html/resources/sequences_IDs/B/06_gloves.jpg,html/resources/sequences_IDs/A/03_camel.jpg,6,3,3,2,1,1,5,2,0,73,,,,,,,,,,,,,,,,,,,,
,,,,,73,2020-07-04_18h27.41.656,retriever_ti,2020.1.3,Win32,60,Chrome,1920,1080,,,,,,,,,,,,,,,,,1,,,,,,,,,,,,,,,,,,,,,,,,,,,536.73827,76,left,1.653065,camel         ,3,3,2,1,3,536.745165,536.745165,539.23777,0,75,75,75,1,76,3,1,camel         ,hat           ,html/resources/sequences_IDs/A/03_camel.jpg,html/resources/sequences_IDs/A/08_hat.jpg,3,8,1,1,3,2,2,7,0,73,,,,,,,,,,,,,,,,,,,,
,,,,,73,2020-07-04_18h27.41.656,retriever_ti,2020.1.3,Win32,60,Chrome,1920,1080,,,,,,,,,,,,,,,,,1,,,,,,,,,,,,,,,,,,,,,,,,,,,539.84216,77,right,0.91559,gloves      ,6,6,5,1,3,539.849245,539.849245,542.34187,0,76,76,76,1,77,1,6,hat           ,gloves      ,html/resources/sequences_IDs/A/08_hat.jpg,html/resources/sequences_IDs/B/06_gloves.jpg,8,6,3,2,3,2,7,5,0,73,,,,,,,,,,,,,,,,,,,,
,,,,,73,2020-07-04_18h27.41.656,retriever_ti,2020.1.3,Win32,60,Chrome,1920,1080,,,,,,,,,,,,,,,,,,,,,,,,,,,,,,,,,,,,,0,4.024105,,,,,,,,,,,,,,,,,,,,,,,,,,,,,,,,,,,,,,,,,0,0,0,0,1,,,,,,,,,,,,,,,
,,,,,73,2020-07-04_18h27.41.656,retriever_ti,2020.1.3,Win32,60,Chrome,1920,1080,,,,,,,,,,,,,,,,,2,,,,,,,,,,,,,,,,,,,,,,,,,,,562.82765,78,left,1.212665,camel         ,3,3,-2,0,3,562.835135,562.835135,565.327635,0,0,0,0,1,78,3,5,camel         ,satellite_dish,html/resources/sequences_IDs/A/03_camel.jpg,html/resources/sequences_IDs/A/10_satellite_dish.jpg,3,10,1,1,4,2,2,8,0,73,,,,,,,,,,,,,,,,,,,,
,,,,,73,2020-07-04_18h27.41.656,retriever_ti,2020.1.3,Win32,60,Chrome,1920,1080,,,,,,,,,,,,,,,,,2,,,,,,,,,,,,,,,,,,,,,,,,,,,565.93207,79,left,0.686315,dolphin     ,4,2,1,1,1,565.93896,565.93896,568.431545,0,1,1,1,1,79,4,3,dolphin     ,camel         ,html/resources/sequences_IDs/B/02_dolphin.jpg,html/resources/sequences_IDs/A/03_camel.jpg,2,3,1,1,1,1,1,2,0,73,,,,,,,,,,,,,,,,,,,,
,,,,,73,2020-07-04_18h27.41.656,retriever_ti,2020.1.3,Win32,60,Chrome,1920,1080,,,,,,,,,,,,,,,,,2,,,,,,,,,,,,,,,,,,,,,,,,,,,569.52195,80,right,0.82936,sport_tshirt,2,7,-6,0,3,569.52907,569.52907,572.021735,0,2,2,2,1,80,8,2,holdfast    ,sport_tshirt,html/resources/sequences_IDs/B/04_holdfast.jpg,html/resources/sequences_IDs/B/07_sport_tshirt.jpg,4,7,2,1,3,2,3,6,0,73,,,,,,,,,,,,,,,,,,,,
,,,,,73,2020-07-04_18h27.41.656,retriever_ti,2020.1.3,Win32,60,Chrome,1920,1080,,,,,,,,,,,,,,,,,2,,,,,,,,,,,,,,,,,,,,,,,,,,,572.62627,81,left,1.52828,satellite_dish,5,10,3,1,3,572.640235,572.640235,575.13279,0,3,3,3,1,81,5,2,satellite_dish,sport_tshirt,html/resources/sequences_IDs/A/10_satellite_dish.jpg,html/resources/sequences_IDs/B/07_sport_tshirt.jpg,10,7,4,2,3,2,8,6,0,73,,,,,,,,,,,,,,,,,,,,
,,,,,73,2020-07-04_18h27.41.656,retriever_ti,2020.1.3,Win32,60,Chrome,1920,1080,,,,,,,,,,,,,,,,,2,,,,,,,,,,,,,,,,,,,,,,,,,,,575.7373,82,right,0.716475,sport_tshirt,2,7,-4,0,3,575.74457,575.74457,578.23682,0,4,4,4,1,82,6,2,gloves      ,sport_tshirt,html/resources/sequences_IDs/B/06_gloves.jpg,html/resources/sequences_IDs/B/07_sport_tshirt.jpg,6,7,3,2,3,2,5,6,0,73,,,,,,,,,,,,,,,,,,,,
,,,,,73,2020-07-04_18h27.41.656,retriever_ti,2020.1.3,Win32,60,Chrome,1920,1080,,,,,,,,,,,,,,,,,2,,,,,,,,,,,,,,,,,,,,,,,,,,,578.841175,83,right,0.625775,satellite_dish,5,10,-1,0,0,578.855365,578.855365,581.347865,0,5,5,5,1,83,6,5,gloves      ,satellite_dish,html/resources/sequences_IDs/B/06_gloves.jpg,html/resources/sequences_IDs/A/10_satellite_dish.jpg,6,10,3,2,4,2,5,8,0,73,,,,,,,,,,,,,,,,,,,,
,,,,,73,2020-07-04_18h27.41.656,retriever_ti,2020.1.3,Win32,60,Chrome,1920,1080,,,,,,,,,,,,,,,,,2,,,,,,,,,,,,,,,,,,,,,,,,,,,582.43861,84,left,0.75983,satellite_dish,5,10,-3,0,3,582.45294,582.45294,584.944975,0,6,6,6,1,84,5,8,satellite_dish,holdfast    ,html/resources/sequences_IDs/A/10_satellite_dish.jpg,html/resources/sequences_IDs/B/04_holdfast.jpg,10,4,4,2,2,1,8,3,0,73,,,,,,,,,,,,,,,,,,,,
,,,,,73,2020-07-04_18h27.41.656,retriever_ti,2020.1.3,Win32,60,Chrome,1920,1080,,,,,,,,,,,,,,,,,2,,,,,,,,,,,,,,,,,,,,,,,,,,,585.54938,85,right,0.60653,sport_tshirt,2,7,-2,0,3,585.563445,585.563445,588.05605,0,7,7,7,1,85,4,2,dolphin     ,sport_tshirt,html/resources/sequences_IDs/B/02_dolphin.jpg,html/resources/sequences_IDs/B/07_sport_tshirt.jpg,2,7,1,1,3,2,1,6,0,73,,,,,,,,,,,,,,,,,,,,
,,,,,73,2020-07-04_18h27.41.656,retriever_ti,2020.1.3,Win32,60,Chrome,1920,1080,,,,,,,,,,,,,,,,,2,,,,,,,,,,,,,,,,,,,,,,,,,,,588.66058,86,left,0.91964,sport_tshirt,2,7,-4,0,3,588.668095,588.668095,591.16012,0,8,8,8,1,86,2,6,sport_tshirt,gloves      ,html/resources/sequences_IDs/B/07_sport_tshirt.jpg,html/resources/sequences_IDs/B/06_gloves.jpg,7,6,3,2,3,2,6,5,0,73,,,,,,,,,,,,,,,,,,,,
,,,,,73,2020-07-04_18h27.41.656,retriever_ti,2020.1.3,Win32,60,Chrome,1920,1080,,,,,,,,,,,,,,,,,2,,,,,,,,,,,,,,,,,,,,,,,,,,,591.764745,87,left,1.22095,dolphin     ,4,2,1,1,1,591.771585,591.771585,594.26424,0,9,9,9,1,87,4,3,dolphin     ,camel         ,html/resources/sequences_IDs/B/02_dolphin.jpg,html/resources/sequences_IDs/A/03_camel.jpg,2,3,1,1,1,1,1,2,0,73,,,,,,,,,,,,,,,,,,,,
,,,,,73,2020-07-04_18h27.41.656,retriever_ti,2020.1.3,Win32,60,Chrome,1920,1080,,,,,,,,,,,,,,,,,2,,,,,,,,,,,,,,,,,,,,,,,,,,,595.35509,88,left,1.214625,camel         ,3,3,1,1,1,595.368705,595.368705,597.861335,0,10,10,10,1,88,3,2,camel         ,sport_tshirt,html/resources/sequences_IDs/A/03_camel.jpg,html/resources/sequences_IDs/B/07_sport_tshirt.jpg,3,7,1,1,3,2,2,6,0,73,,,,,,,,,,,,,,,,,,,,
,,,,,73,2020-07-04_18h27.41.656,retriever_ti,2020.1.3,Win32,60,Chrome,1920,1080,,,,,,,,,,,,,,,,,2,,,,,,,,,,,,,,,,,,,,,,,,,,,598.95203,89,left,1.295325,sport_tshirt,2,7,1,1,1,598.958905,598.958905,601.451475,0,11,11,11,1,89,2,1,sport_tshirt,hat           ,html/resources/sequences_IDs/B/07_sport_tshirt.jpg,html/resources/sequences_IDs/A/08_hat.jpg,7,8,3,2,3,2,6,7,0,73,,,,,,,,,,,,,,,,,,,,
,,,,,73,2020-07-04_18h27.41.656,retriever_ti,2020.1.3,Win32,60,Chrome,1920,1080,,,,,,,,,,,,,,,,,2,,,,,,,,,,,,,,,,,,,,,,,,,,,602.5422,90,left,0.532645,camel         ,3,3,-3,0,3,602.556055,602.556055,605.04867,0,12,12,12,1,90,3,6,camel         ,gloves      ,html/resources/sequences_IDs/A/03_camel.jpg,html/resources/sequences_IDs/B/06_gloves.jpg,3,6,1,1,3,2,2,5,0,73,,,,,,,,,,,,,,,,,,,,
,,,,,73,2020-07-04_18h27.41.656,retriever_ti,2020.1.3,Win32,60,Chrome,1920,1080,,,,,,,,,,,,,,,,,2,,,,,,,,,,,,,,,,,,,,,,,,,,,605.653035,91,right,1.19836,holdfast    ,8,4,6,1,3,605.667235,605.667235,608.159655,0,13,13,13,1,91,2,8,sport_tshirt,holdfast    ,html/resources/sequences_IDs/B/07_sport_tshirt.jpg,html/resources/sequences_IDs/B/04_holdfast.jpg,7,4,3,2,2,1,6,3,0,73,,,,,,,,,,,,,,,,,,,,
,,,,,73,2020-07-04_18h27.41.656,retriever_ti,2020.1.3,Win32,60,Chrome,1920,1080,,,,,,,,,,,,,,,,,2,,,,,,,,,,,,,,,,,,,,,,,,,,,608.764305,92,right,0.966935,dolphin     ,4,2,-3,0,3,608.771085,608.771085,611.263855,0,14,14,14,1,92,7,4,peacock       ,dolphin     ,html/resources/sequences_IDs/A/05_peacock.jpg,html/resources/sequences_IDs/B/02_dolphin.jpg,5,2,2,1,1,1,4,1,0,73,,,,,,,,,,,,,,,,,,,,
,,,,,73,2020-07-04_18h27.41.656,retriever_ti,2020.1.3,Win32,60,Chrome,1920,1080,,,,,,,,,,,,,,,,,2,,,,,,,,,,,,,,,,,,,,,,,,,,,611.86838,93,right,0.71038,dolphin     ,4,2,1,1,1,611.875245,611.875245,614.367835,0,15,15,15,1,93,3,4,camel         ,dolphin     ,html/resources/sequences_IDs/A/03_camel.jpg,html/resources/sequences_IDs/B/02_dolphin.jpg,3,2,1,1,1,1,2,1,0,73,,,,,,,,,,,,,,,,,,,,
,,,,,73,2020-07-04_18h27.41.656,retriever_ti,2020.1.3,Win32,60,Chrome,1920,1080,,,,,,,,,,,,,,,,,2,,,,,,,,,,,,,,,,,,,,,,,,,,,615.4583,94,left,1.008735,camel         ,3,3,-5,0,3,615.47269,615.47269,617.96493,0,16,16,16,1,94,3,8,camel         ,holdfast    ,html/resources/sequences_IDs/A/03_camel.jpg,html/resources/sequences_IDs/B/04_holdfast.jpg,3,4,1,1,2,1,2,3,0,73,,,,,,,,,,,,,,,,,,,,
,,,,,73,2020-07-04_18h27.41.656,retriever_ti,2020.1.3,Win32,60,Chrome,1920,1080,,,,,,,,,,,,,,,,,2,,,,,,,,,,,,,,,,,,,,,,,,,,,618.569575,95,left,1.20427,peacock       ,7,5,5,1,3,618.57646,618.57646,621.069065,0,17,17,17,1,95,7,2,peacock       ,sport_tshirt,html/resources/sequences_IDs/A/05_peacock.jpg,html/resources/sequences_IDs/B/07_sport_tshirt.jpg,5,7,2,1,3,2,4,6,0,73,,,,,,,,,,,,,,,,,,,,
,,,,,73,2020-07-04_18h27.41.656,retriever_ti,2020.1.3,Win32,60,Chrome,1920,1080,,,,,,,,,,,,,,,,,2,,,,,,,,,,,,,,,,,,,,,,,,,,,621.673465,96,left,1.00897,dolphin     ,4,2,-2,0,3,621.68052,621.68052,624.173155,0,18,18,18,1,96,4,6,dolphin     ,gloves      ,html/resources/sequences_IDs/B/02_dolphin.jpg,html/resources/sequences_IDs/B/06_gloves.jpg,2,6,1,1,3,2,1,5,0,73,,,,,,,,,,,,,,,,,,,,
,,,,,73,2020-07-04_18h27.41.656,retriever_ti,2020.1.3,Win32,60,Chrome,1920,1080,,,,,,,,,,,,,,,,,2,,,,,,,,,,,,,,,,,,,,,,,,,,,624.777725,97,left,1.152615,holdfast    ,8,4,2,1,3,624.784695,624.784695,627.277215,0,19,19,19,1,97,8,6,holdfast    ,gloves      ,html/resources/sequences_IDs/B/04_holdfast.jpg,html/resources/sequences_IDs/B/06_gloves.jpg,4,6,2,1,3,2,3,5,0,73,,,,,,,,,,,,,,,,,,,,
,,,,,73,2020-07-04_18h27.41.656,retriever_ti,2020.1.3,Win32,60,Chrome,1920,1080,,,,,,,,,,,,,,,,,2,,,,,,,,,,,,,,,,,,,,,,,,,,,627.88187,98,right,1.148665,camel         ,3,3,1,1,1,627.888685,627.888685,630.38142,0,20,20,20,1,98,2,3,sport_tshirt,camel         ,html/resources/sequences_IDs/B/07_sport_tshirt.jpg,html/resources/sequences_IDs/A/03_camel.jpg,7,3,3,2,1,1,6,2,0,73,,,,,,,,,,,,,,,,,,,,
,,,,,73,2020-07-04_18h27.41.656,retriever_ti,2020.1.3,Win32,60,Chrome,1920,1080,,,,,,,,,,,,,,,,,2,,,,,,,,,,,,,,,,,,,,,,,,,,,631.471805,99,right,0.87998,peacock       ,7,5,5,1,3,631.478905,631.478905,633.971495,0,21,21,21,1,99,2,7,sport_tshirt,peacock       ,html/resources/sequences_IDs/B/07_sport_tshirt.jpg,html/resources/sequences_IDs/A/05_peacock.jpg,7,5,3,2,2,1,6,4,0,73,,,,,,,,,,,,,,,,,,,,
,,,,,73,2020-07-04_18h27.41.656,retriever_ti,2020.1.3,Win32,60,Chrome,1920,1080,,,,,,,,,,,,,,,,,2,,,,,,,,,,,,,,,,,,,,,,,,,,,634.57611,100,right,0.83287,holdfast    ,8,4,7,1,3,634.582935,634.582935,637.075625,0,22,22,22,1,100,1,8,hat           ,holdfast    ,html/resources/sequences_IDs/A/08_hat.jpg,html/resources/sequences_IDs/B/04_holdfast.jpg,8,4,3,2,2,1,7,3,0,73,,,,,,,,,,,,,,,,,,,,
,,,,,73,2020-07-04_18h27.41.656,retriever_ti,2020.1.3,Win32,60,Chrome,1920,1080,,,,,,,,,,,,,,,,,2,,,,,,,,,,,,,,,,,,,,,,,,,,,637.67995,101,right,0.952495,sport_tshirt,2,7,-1,0,1,637.68714,637.68714,640.179685,0,23,23,23,1,101,3,2,camel         ,sport_tshirt,html/resources/sequences_IDs/A/03_camel.jpg,html/resources/sequences_IDs/B/07_sport_tshirt.jpg,3,7,1,1,3,2,2,6,1,73,,,,,,,,,,,,,,,,,,,,
,,,,,73,2020-07-04_18h27.41.656,retriever_ti,2020.1.3,Win32,60,Chrome,1920,1080,,,,,,,,,,,,,,,,,2,,,,,,,,,,,,,,,,,,,,,,,,,,,641.270405,102,left,0.54642,dolphin     ,4,2,3,1,3,641.28427,641.28427,643.776825,0,24,24,24,1,102,4,1,dolphin     ,hat           ,html/resources/sequences_IDs/B/02_dolphin.jpg,html/resources/sequences_IDs/A/08_hat.jpg,2,8,1,1,3,2,1,7,0,73,,,,,,,,,,,,,,,,,,,,
,,,,,73,2020-07-04_18h27.41.656,retriever_ti,2020.1.3,Win32,60,Chrome,1920,1080,,,,,,,,,,,,,,,,,2,,,,,,,,,,,,,,,,,,,,,,,,,,,644.38164,103,right,0.56037,peacock       ,7,5,1,1,1,644.38855,644.38855,646.880985,0,25,25,25,1,103,6,7,gloves      ,peacock       ,html/resources/sequences_IDs/B/06_gloves.jpg,html/resources/sequences_IDs/A/05_peacock.jpg,6,5,3,2,2,1,5,4,0,73,,,,,,,,,,,,,,,,,,,,
,,,,,73,2020-07-04_18h27.41.656,retriever_ti,2020.1.3,Win32,60,Chrome,1920,1080,,,,,,,,,,,,,,,,,2,,,,,,,,,,,,,,,,,,,,,,,,,,,647.97164,104,left,0.640495,sport_tshirt,2,7,1,1,1,647.985515,647.985515,650.478055,0,26,26,26,1,104,2,1,sport_tshirt,hat           ,html/resources/sequences_IDs/B/07_sport_tshirt.jpg,html/resources/sequences_IDs/A/08_hat.jpg,7,8,3,2,3,2,6,7,0,73,,,,,,,,,,,,,,,,,,,,
,,,,,73,2020-07-04_18h27.41.656,retriever_ti,2020.1.3,Win32,60,Chrome,1920,1080,,,,,,,,,,,,,,,,,2,,,,,,,,,,,,,,,,,,,,,,,,,,,651.568545,105,right,0.51472,dolphin     ,4,2,-1,0,0,651.57565,651.57565,654.06821,0,27,27,27,1,105,5,4,satellite_dish,dolphin     ,html/resources/sequences_IDs/A/10_satellite_dish.jpg,html/resources/sequences_IDs/B/02_dolphin.jpg,10,2,4,2,1,1,8,1,0,73,,,,,,,,,,,,,,,,,,,,
,,,,,73,2020-07-04_18h27.41.656,retriever_ti,2020.1.3,Win32,60,Chrome,1920,1080,,,,,,,,,,,,,,,,,2,,,,,,,,,,,,,,,,,,,,,,,,,,,655.15888,106,right,0.522605,dolphin     ,4,2,3,1,3,655.172735,655.172735,657.665355,0,28,28,28,1,106,1,4,hat           ,dolphin     ,html/resources/sequences_IDs/A/08_hat.jpg,html/resources/sequences_IDs/B/02_dolphin.jpg,8,2,3,2,1,1,7,1,0,73,,,,,,,,,,,,,,,,,,,,
,,,,,73,2020-07-04_18h27.41.656,retriever_ti,2020.1.3,Win32,60,Chrome,1920,1080,,,,,,,,,,,,,,,,,2,,,,,,,,,,,,,,,,,,,,,,,,,,,658.26994,107,right,0.49793,peacock       ,7,5,-1,0,0,658.283795,658.283795,660.77637,0,29,29,29,1,107,8,7,holdfast    ,peacock       ,html/resources/sequences_IDs/B/04_holdfast.jpg,html/resources/sequences_IDs/A/05_peacock.jpg,4,5,2,1,2,1,3,4,0,73,,,,,,,,,,,,,,,,,,,,
,,,,,73,2020-07-04_18h27.41.656,retriever_ti,2020.1.3,Win32,60,Chrome,1920,1080,,,,,,,,,,,,,,,,,2,,,,,,,,,,,,,,,,,,,,,,,,,,,661.86708,108,right,0.95021,satellite_dish,5,10,4,1,3,661.88095,661.88095,664.37358,0,30,30,30,1,108,1,5,hat           ,satellite_dish,html/resources/sequences_IDs/A/08_hat.jpg,html/resources/sequences_IDs/A/10_satellite_dish.jpg,8,10,3,2,4,2,7,8,0,73,,,,,,,,,,,,,,,,,,,,
,,,,,73,2020-07-04_18h27.41.656,retriever_ti,2020.1.3,Win32,60,Chrome,1920,1080,,,,,,,,,,,,,,,,,2,,,,,,,,,,,,,,,,,,,,,,,,,,,664.977895,109,right,0.845605,dolphin     ,4,2,-1,0,0,664.992095,664.992095,667.48454,0,31,31,31,1,109,5,4,satellite_dish,dolphin     ,html/resources/sequences_IDs/A/10_satellite_dish.jpg,html/resources/sequences_IDs/B/02_dolphin.jpg,10,2,4,2,1,1,8,1,0,73,,,,,,,,,,,,,,,,,,,,
,,,,,73,2020-07-04_18h27.41.656,retriever_ti,2020.1.3,Win32,60,Chrome,1920,1080,,,,,,,,,,,,,,,,,2,,,,,,,,,,,,,,,,,,,,,,,,,,,668.57524,110,left,1.179605,holdfast    ,8,4,7,1,3,668.582085,668.582085,671.074785,0,32,32,32,1,110,8,1,holdfast    ,hat           ,html/resources/sequences_IDs/B/04_holdfast.jpg,html/resources/sequences_IDs/A/08_hat.jpg,4,8,2,1,3,2,3,7,0,73,,,,,,,,,,,,,,,,,,,,
,,,,,73,2020-07-04_18h27.41.656,retriever_ti,2020.1.3,Win32,60,Chrome,1920,1080,,,,,,,,,,,,,,,,,2,,,,,,,,,,,,,,,,,,,,,,,,,,,671.679085,111,right,1.118315,sport_tshirt,2,7,1,1,1,671.686215,671.686215,674.17881,0,33,33,33,1,111,1,2,hat           ,sport_tshirt,html/resources/sequences_IDs/A/08_hat.jpg,html/resources/sequences_IDs/B/07_sport_tshirt.jpg,8,7,3,2,3,2,7,6,0,73,,,,,,,,,,,,,,,,,,,,
,,,,,73,2020-07-04_18h27.41.656,retriever_ti,2020.1.3,Win32,60,Chrome,1920,1080,,,,,,,,,,,,,,,,,2,,,,,,,,,,,,,,,,,,,,,,,,,,,675.269505,112,right,1.113575,peacock       ,7,5,-1,0,1,675.276705,675.276705,677.769035,0,34,34,34,1,112,8,7,holdfast    ,peacock       ,html/resources/sequences_IDs/B/04_holdfast.jpg,html/resources/sequences_IDs/A/05_peacock.jpg,4,5,2,1,2,1,3,4,1,73,,,,,,,,,,,,,,,,,,,,
,,,,,73,2020-07-04_18h27.41.656,retriever_ti,2020.1.3,Win32,60,Chrome,1920,1080,,,,,,,,,,,,,,,,,2,,,,,,,,,,,,,,,,,,,,,,,,,,,678.85982,113,right,0.87043,dolphin     ,4,2,1,1,1,678.87353,678.87353,681.36614,0,35,35,35,1,113,3,4,camel         ,dolphin     ,html/resources/sequences_IDs/A/03_camel.jpg,html/resources/sequences_IDs/B/02_dolphin.jpg,3,2,1,1,1,1,2,1,0,73,,,,,,,,,,,,,,,,,,,,
,,,,,73,2020-07-04_18h27.41.656,retriever_ti,2020.1.3,Win32,60,Chrome,1920,1080,,,,,,,,,,,,,,,,,2,,,,,,,,,,,,,,,,,,,,,,,,,,,682.456845,114,left,0.874135,satellite_dish,5,10,-1,0,0,682.470875,682.470875,684.96325,0,36,36,36,1,114,5,6,satellite_dish,gloves      ,html/resources/sequences_IDs/A/10_satellite_dish.jpg,html/resources/sequences_IDs/B/06_gloves.jpg,10,6,4,2,3,2,8,5,0,73,,,,,,,,,,,,,,,,,,,,
,,,,,73,2020-07-04_18h27.41.656,retriever_ti,2020.1.3,Win32,60,Chrome,1920,1080,,,,,,,,,,,,,,,,,2,,,,,,,,,,,,,,,,,,,,,,,,,,,686.054105,115,left,0.914945,camel         ,3,3,2,1,3,686.068025,686.068025,688.560405,0,37,37,37,1,115,3,1,camel         ,hat           ,html/resources/sequences_IDs/A/03_camel.jpg,html/resources/sequences_IDs/A/08_hat.jpg,3,8,1,1,3,2,2,7,0,73,,,,,,,,,,,,,,,,,,,,
,,,,,73,2020-07-04_18h27.41.656,retriever_ti,2020.1.3,Win32,60,Chrome,1920,1080,,,,,,,,,,,,,,,,,2,,,,,,,,,,,,,,,,,,,,,,,,,,,689.16478,116,right,1.57479,hat           ,1,8,-5,0,3,689.178835,689.178835,691.67212,0,38,38,38,1,116,6,1,gloves      ,hat           ,html/resources/sequences_IDs/B/06_gloves.jpg,html/resources/sequences_IDs/A/08_hat.jpg,6,8,3,2,3,2,5,7,0,73,,,,,,,,,,,,,,,,,,,,
,,,,,73,2020-07-04_18h27.41.656,retriever_ti,2020.1.3,Win32,60,Chrome,1920,1080,,,,,,,,,,,,,,,,,2,,,,,,,,,,,,,,,,,,,,,,,,,,,692.276055,117,right,1.545075,camel         ,3,3,1,1,1,692.28986,692.28986,694.782465,0,39,39,39,1,117,2,3,sport_tshirt,camel         ,html/resources/sequences_IDs/B/07_sport_tshirt.jpg,html/resources/sequences_IDs/A/03_camel.jpg,7,3,3,2,1,1,6,2,0,73,,,,,,,,,,,,,,,,,,,,
,,,,,73,2020-07-04_18h27.41.656,retriever_ti,2020.1.3,Win32,60,Chrome,1920,1080,,,,,,,,,,,,,,,,,2,,,,,,,,,,,,,,,,,,,,,,,,,,,695.87324,118,right,1.464245,holdfast    ,8,4,2,1,3,695.880005,695.880005,698.37264,0,40,40,40,1,118,6,8,gloves      ,holdfast    ,html/resources/sequences_IDs/B/06_gloves.jpg,html/resources/sequences_IDs/B/04_holdfast.jpg,6,4,3,2,2,1,5,3,0,73,,,,,,,,,,,,,,,,,,,,
,,,,,73,2020-07-04_18h27.41.656,retriever_ti,2020.1.3,Win32,60,Chrome,1920,1080,,,,,,,,,,,,,,,,,2,,,,,,,,,,,,,,,,,,,,,,,,,,,698.97705,119,right,1.68581,satellite_dish,5,10,1,1,1,698.991085,698.991085,701.483665,0,41,41,41,1,119,4,5,dolphin     ,satellite_dish,html/resources/sequences_IDs/B/02_dolphin.jpg,html/resources/sequences_IDs/A/10_satellite_dish.jpg,2,10,1,1,4,2,1,8,0,73,,,,,,,,,,,,,,,,,,,,
,,,,,73,2020-07-04_18h27.41.656,retriever_ti,2020.1.3,Win32,60,Chrome,1920,1080,,,,,,,,,,,,,,,,,2,,,,,,,,,,,,,,,,,,,,,,,,,,,702.574335,120,right,1.574005,sport_tshirt,2,7,-1,0,0,702.581305,702.581305,705.07385,0,42,42,42,1,120,3,2,camel         ,sport_tshirt,html/resources/sequences_IDs/A/03_camel.jpg,html/resources/sequences_IDs/B/07_sport_tshirt.jpg,3,7,1,1,3,2,2,6,0,73,,,,,,,,,,,,,,,,,,,,
,,,,,73,2020-07-04_18h27.41.656,retriever_ti,2020.1.3,Win32,60,Chrome,1920,1080,,,,,,,,,,,,,,,,,2,,,,,,,,,,,,,,,,,,,,,,,,,,,706.164595,121,right,0.796375,satellite_dish,5,10,-2,0,3,706.17843,706.17843,708.67099,0,43,43,43,1,121,7,5,peacock       ,satellite_dish,html/resources/sequences_IDs/A/05_peacock.jpg,html/resources/sequences_IDs/A/10_satellite_dish.jpg,5,10,2,1,4,2,4,8,0,73,,,,,,,,,,,,,,,,,,,,
,,,,,73,2020-07-04_18h27.41.656,retriever_ti,2020.1.3,Win32,60,Chrome,1920,1080,,,,,,,,,,,,,,,,,2,,,,,,,,,,,,,,,,,,,,,,,,,,,709.27545,122,right,0.788065,sport_tshirt,2,7,1,1,1,709.289545,709.289545,711.78203,0,44,44,44,1,122,1,2,hat           ,sport_tshirt,html/resources/sequences_IDs/A/08_hat.jpg,html/resources/sequences_IDs/B/07_sport_tshirt.jpg,8,7,3,2,3,2,7,6,0,73,,,,,,,,,,,,,,,,,,,,
,,,,,73,2020-07-04_18h27.41.656,retriever_ti,2020.1.3,Win32,60,Chrome,1920,1080,,,,,,,,,,,,,,,,,2,,,,,,,,,,,,,,,,,,,,,,,,,,,712.872755,123,right,0.88525,dolphin     ,4,2,2,1,3,712.88677,712.88677,715.37918,0,45,45,45,1,123,2,4,sport_tshirt,dolphin     ,html/resources/sequences_IDs/B/07_sport_tshirt.jpg,html/resources/sequences_IDs/B/02_dolphin.jpg,7,2,3,2,1,1,6,1,0,73,,,,,,,,,,,,,,,,,,,,
,,,,,73,2020-07-04_18h27.41.656,retriever_ti,2020.1.3,Win32,60,Chrome,1920,1080,,,,,,,,,,,,,,,,,2,,,,,,,,,,,,,,,,,,,,,,,,,,,715.983815,124,right,1.43005,satellite_dish,5,10,-3,0,3,715.99763,715.99763,718.490285,0,46,46,46,1,124,8,5,holdfast    ,satellite_dish,html/resources/sequences_IDs/B/04_holdfast.jpg,html/resources/sequences_IDs/A/10_satellite_dish.jpg,4,10,2,1,4,2,3,8,0,73,,,,,,,,,,,,,,,,,,,,
,,,,,73,2020-07-04_18h27.41.656,retriever_ti,2020.1.3,Win32,60,Chrome,1920,1080,,,,,,,,,,,,,,,,,2,,,,,,,,,,,,,,,,,,,,,,,,,,,719.094625,125,NaN,NaN,No_response,NaN,NaN,NaN,2,2,719.101925,719.101925,721.594345,0,47,47,47,1,125,7,3,peacock       ,camel         ,html/resources/sequences_IDs/A/05_peacock.jpg,html/resources/sequences_IDs/A/03_camel.jpg,5,3,2,1,1,1,4,2,0,73,,,,,,,,,,,,,,,,,,,,
,,,,,73,2020-07-04_18h27.41.656,retriever_ti,2020.1.3,Win32,60,Chrome,1920,1080,,,,,,,,,,,,,,,,,2,,,,,,,,,,,,,,,,,,,,,,,,,,,722.684985,126,right,0.61177,camel         ,3,3,-2,0,3,722.692515,722.692515,725.184565,0,48,48,48,1,126,5,3,satellite_dish,camel         ,html/resources/sequences_IDs/A/10_satellite_dish.jpg,html/resources/sequences_IDs/A/03_camel.jpg,10,3,4,2,1,1,8,2,0,73,,,,,,,,,,,,,,,,,,,,
,,,,,73,2020-07-04_18h27.41.656,retriever_ti,2020.1.3,Win32,60,Chrome,1920,1080,,,,,,,,,,,,,,,,,2,,,,,,,,,,,,,,,,,,,,,,,,,,,725.789125,127,right,1.253685,satellite_dish,5,10,3,1,3,725.80289,725.80289,728.29553,0,49,49,49,1,127,2,5,sport_tshirt,satellite_dish,html/resources/sequences_IDs/B/07_sport_tshirt.jpg,html/resources/sequences_IDs/A/10_satellite_dish.jpg,7,10,3,2,4,2,6,8,0,73,,,,,,,,,,,,,,,,,,,,
,,,,,73,2020-07-04_18h27.41.656,retriever_ti,2020.1.3,Win32,60,Chrome,1920,1080,,,,,,,,,,,,,,,,,2,,,,,,,,,,,,,,,,,,,,,,,,,,,728.899875,128,left,1.131695,peacock       ,7,5,1,1,0,728.91395,728.91395,731.407095,0,50,50,50,1,128,7,6,peacock       ,gloves      ,html/resources/sequences_IDs/A/05_peacock.jpg,html/resources/sequences_IDs/B/06_gloves.jpg,5,6,2,1,3,2,4,5,1,73,,,,,,,,,,,,,,,,,,,,
,,,,,73,2020-07-04_18h27.41.656,retriever_ti,2020.1.3,Win32,60,Chrome,1920,1080,,,,,,,,,,,,,,,,,2,,,,,,,,,,,,,,,,,,,,,,,,,,,732.497335,129,right,0.48049,dolphin     ,4,2,-2,0,3,732.504175,732.504175,734.99675,0,51,51,51,1,129,6,4,gloves      ,dolphin     ,html/resources/sequences_IDs/B/06_gloves.jpg,html/resources/sequences_IDs/B/02_dolphin.jpg,6,2,3,2,1,1,5,1,0,73,,,,,,,,,,,,,,,,,,,,
,,,,,73,2020-07-04_18h27.41.656,retriever_ti,2020.1.3,Win32,60,Chrome,1920,1080,,,,,,,,,,,,,,,,,2,,,,,,,,,,,,,,,,,,,,,,,,,,,735.601115,130,right,0.54703,satellite_dish,5,10,1,1,1,735.61533,735.61533,738.10784,0,52,52,52,1,130,4,5,dolphin     ,satellite_dish,html/resources/sequences_IDs/B/02_dolphin.jpg,html/resources/sequences_IDs/A/10_satellite_dish.jpg,2,10,1,1,4,2,1,8,0,73,,,,,,,,,,,,,,,,,,,,
,,,,,73,2020-07-04_18h27.41.656,retriever_ti,2020.1.3,Win32,60,Chrome,1920,1080,,,,,,,,,,,,,,,,,2,,,,,,,,,,,,,,,,,,,,,,,,,,,739.19847,131,right,0.534265,dolphin     ,4,2,-4,0,3,739.20548,739.20548,741.698005,0,53,53,53,1,131,8,4,holdfast    ,dolphin     ,html/resources/sequences_IDs/B/04_holdfast.jpg,html/resources/sequences_IDs/B/02_dolphin.jpg,4,2,2,1,1,1,3,1,0,73,,,,,,,,,,,,,,,,,,,,
,,,,,73,2020-07-04_18h27.41.656,retriever_ti,2020.1.3,Win32,60,Chrome,1920,1080,,,,,,,,,,,,,,,,,2,,,,,,,,,,,,,,,,,,,,,,,,,,,742.30255,132,right,0.56708,camel         ,3,3,-3,0,3,742.30972,742.30972,744.80204,0,54,54,54,1,132,6,3,gloves      ,camel         ,html/resources/sequences_IDs/B/06_gloves.jpg,html/resources/sequences_IDs/A/03_camel.jpg,6,3,3,2,1,1,5,2,0,73,,,,,,,,,,,,,,,,,,,,
,,,,,73,2020-07-04_18h27.41.656,retriever_ti,2020.1.3,Win32,60,Chrome,1920,1080,,,,,,,,,,,,,,,,,2,,,,,,,,,,,,,,,,,,,,,,,,,,,745.40655,133,left,1.148955,peacock       ,7,5,1,1,1,745.42051,745.42051,747.91308,0,55,55,55,1,133,7,6,peacock       ,gloves      ,html/resources/sequences_IDs/A/05_peacock.jpg,html/resources/sequences_IDs/B/06_gloves.jpg,5,6,2,1,3,2,4,5,0,73,,,,,,,,,,,,,,,,,,,,
,,,,,73,2020-07-04_18h27.41.656,retriever_ti,2020.1.3,Win32,60,Chrome,1920,1080,,,,,,,,,,,,,,,,,2,,,,,,,,,,,,,,,,,,,,,,,,,,,749.003815,134,right,0.777735,camel         ,3,3,-5,0,3,749.010635,749.010635,751.503285,0,56,56,56,1,134,8,3,holdfast    ,camel         ,html/resources/sequences_IDs/B/04_holdfast.jpg,html/resources/sequences_IDs/A/03_camel.jpg,4,3,2,1,1,1,3,2,0,73,,,,,,,,,,,,,,,,,,,,
,,,,,73,2020-07-04_18h27.41.656,retriever_ti,2020.1.3,Win32,60,Chrome,1920,1080,,,,,,,,,,,,,,,,,2,,,,,,,,,,,,,,,,,,,,,,,,,,,752.107875,135,right,0.446405,peacock       ,7,5,6,1,3,752.12177,752.12177,754.61439,0,57,57,57,1,135,1,7,hat           ,peacock       ,html/resources/sequences_IDs/A/08_hat.jpg,html/resources/sequences_IDs/A/05_peacock.jpg,8,5,3,2,2,1,7,4,0,73,,,,,,,,,,,,,,,,,,,,
,,,,,73,2020-07-04_18h27.41.656,retriever_ti,2020.1.3,Win32,60,Chrome,1920,1080,,,,,,,,,,,,,,,,,2,,,,,,,,,,,,,,,,,,,,,,,,,,,755.21873,136,right,0.33565,peacock       ,7,5,3,1,3,755.23286,755.23286,757.72531,0,58,58,58,1,136,4,7,dolphin     ,peacock       ,html/resources/sequences_IDs/B/02_dolphin.jpg,html/resources/sequences_IDs/A/05_peacock.jpg,2,5,1,1,2,1,1,4,0,73,,,,,,,,,,,,,,,,,,,,
,,,,,73,2020-07-04_18h27.41.656,retriever_ti,2020.1.3,Win32,60,Chrome,1920,1080,,,,,,,,,,,,,,,,,2,,,,,,,,,,,,,,,,,,,,,,,,,,,758.33026,137,right,0.568455,satellite_dish,5,10,-1,0,0,758.337025,758.337025,760.829785,0,59,59,59,1,137,6,5,gloves      ,satellite_dish,html/resources/sequences_IDs/B/06_gloves.jpg,html/resources/sequences_IDs/A/10_satellite_dish.jpg,6,10,3,2,4,2,5,8,0,73,,,,,,,,,,,,,,,,,,,,
,,,,,73,2020-07-04_18h27.41.656,retriever_ti,2020.1.3,Win32,60,Chrome,1920,1080,,,,,,,,,,,,,,,,,2,,,,,,,,,,,,,,,,,,,,,,,,,,,761.920275,138,right,0.891045,peacock       ,7,5,2,1,3,761.934195,761.934195,764.426575,0,60,60,60,1,138,5,7,satellite_dish,peacock       ,html/resources/sequences_IDs/A/10_satellite_dish.jpg,html/resources/sequences_IDs/A/05_peacock.jpg,10,5,4,2,2,1,8,4,0,73,,,,,,,,,,,,,,,,,,,,
,,,,,73,2020-07-04_18h27.41.656,retriever_ti,2020.1.3,Win32,60,Chrome,1920,1080,,,,,,,,,,,,,,,,,2,,,,,,,,,,,,,,,,,,,,,,,,,,,765.0309,139,right,0.42113,camel         ,3,3,-1,0,1,765.03805,765.03805,767.53065,0,61,61,61,1,139,4,3,dolphin     ,camel         ,html/resources/sequences_IDs/B/02_dolphin.jpg,html/resources/sequences_IDs/A/03_camel.jpg,2,3,1,1,1,1,1,2,1,73,,,,,,,,,,,,,,,,,,,,
,,,,,73,2020-07-04_18h27.41.656,retriever_ti,2020.1.3,Win32,60,Chrome,1920,1080,,,,,,,,,,,,,,,,,2,,,,,,,,,,,,,,,,,,,,,,,,,,,768.62133,140,right,0.61084,peacock       ,7,5,1,1,1,768.635195,768.635195,771.127755,0,62,62,62,1,140,6,7,gloves      ,peacock       ,html/resources/sequences_IDs/B/06_gloves.jpg,html/resources/sequences_IDs/A/05_peacock.jpg,6,5,3,2,2,1,5,4,0,73,,,,,,,,,,,,,,,,,,,,
,,,,,73,2020-07-04_18h27.41.656,retriever_ti,2020.1.3,Win32,60,Chrome,1920,1080,,,,,,,,,,,,,,,,,2,,,,,,,,,,,,,,,,,,,,,,,,,,,772.21846,141,left,0.61466,dolphin     ,4,2,-4,0,3,772.225455,772.225455,774.71798,0,63,63,63,1,141,4,8,dolphin     ,holdfast    ,html/resources/sequences_IDs/B/02_dolphin.jpg,html/resources/sequences_IDs/B/04_holdfast.jpg,2,4,1,1,2,1,1,3,0,73,,,,,,,,,,,,,,,,,,,,
,,,,,73,2020-07-04_18h27.41.656,retriever_ti,2020.1.3,Win32,60,Chrome,1920,1080,,,,,,,,,,,,,,,,,2,,,,,,,,,,,,,,,,,,,,,,,,,,,775.322335,142,left,1.179395,dolphin     ,4,2,-1,0,1,775.336505,775.336505,777.8292,0,64,64,64,1,142,4,5,dolphin     ,satellite_dish,html/resources/sequences_IDs/B/02_dolphin.jpg,html/resources/sequences_IDs/A/10_satellite_dish.jpg,2,10,1,1,4,2,1,8,1,73,,,,,,,,,,,,,,,,,,,,
,,,,,73,2020-07-04_18h27.41.656,retriever_ti,2020.1.3,Win32,60,Chrome,1920,1080,,,,,,,,,,,,,,,,,2,,,,,,,,,,,,,,,,,,,,,,,,,,,778.919775,143,left,0.9861,satellite_dish,5,10,4,1,3,778.926605,778.926605,781.419225,0,65,65,65,1,143,5,1,satellite_dish,hat           ,html/resources/sequences_IDs/A/10_satellite_dish.jpg,html/resources/sequences_IDs/A/08_hat.jpg,10,8,4,2,3,2,8,7,0,73,,,,,,,,,,,,,,,,,,,,
,,,,,73,2020-07-04_18h27.41.656,retriever_ti,2020.1.3,Win32,60,Chrome,1920,1080,,,,,,,,,,,,,,,,,2,,,,,,,,,,,,,,,,,,,,,,,,,,,782.024075,144,left,1.263855,peacock       ,7,5,6,1,3,782.037875,782.037875,784.53023,0,66,66,66,1,144,7,1,peacock       ,hat           ,html/resources/sequences_IDs/A/05_peacock.jpg,html/resources/sequences_IDs/A/08_hat.jpg,5,8,2,1,3,2,4,7,0,73,,,,,,,,,,,,,,,,,,,,
,,,,,73,2020-07-04_18h27.41.656,retriever_ti,2020.1.3,Win32,60,Chrome,1920,1080,,,,,,,,,,,,,,,,,2,,,,,,,,,,,,,,,,,,,,,,,,,,,785.134625,145,left,1.1125,peacock       ,7,5,-1,0,0,785.14872,785.14872,787.64132,0,67,67,67,1,145,7,8,peacock       ,holdfast    ,html/resources/sequences_IDs/A/05_peacock.jpg,html/resources/sequences_IDs/B/04_holdfast.jpg,5,4,2,1,2,1,4,3,0,73,,,,,,,,,,,,,,,,,,,,
,,,,,73,2020-07-04_18h27.41.656,retriever_ti,2020.1.3,Win32,60,Chrome,1920,1080,,,,,,,,,,,,,,,,,2,,,,,,,,,,,,,,,,,,,,,,,,,,,788.73196,146,right,0.84692,camel         ,3,3,2,1,3,788.738835,788.738835,791.231465,0,68,68,68,1,146,1,3,hat           ,camel         ,html/resources/sequences_IDs/A/08_hat.jpg,html/resources/sequences_IDs/A/03_camel.jpg,8,3,3,2,1,1,7,2,0,73,,,,,,,,,,,,,,,,,,,,
,,,,,73,2020-07-04_18h27.41.656,retriever_ti,2020.1.3,Win32,60,Chrome,1920,1080,,,,,,,,,,,,,,,,,2,,,,,,,,,,,,,,,,,,,,,,,,,,,791.83603,147,left,0.55723,satellite_dish,5,10,-1,0,0,791.842915,791.842915,794.335685,0,69,69,69,1,147,5,6,satellite_dish,gloves      ,html/resources/sequences_IDs/A/10_satellite_dish.jpg,html/resources/sequences_IDs/B/06_gloves.jpg,10,6,4,2,3,2,8,5,0,73,,,,,,,,,,,,,,,,,,,,
,,,,,73,2020-07-04_18h27.41.656,retriever_ti,2020.1.3,Win32,60,Chrome,1920,1080,,,,,,,,,,,,,,,,,2,,,,,,,,,,,,,,,,,,,,,,,,,,,795.426075,148,right,0.791815,peacock       ,7,5,-1,0,0,795.440325,795.440325,797.932725,0,70,70,70,1,148,8,7,holdfast    ,peacock       ,html/resources/sequences_IDs/B/04_holdfast.jpg,html/resources/sequences_IDs/A/05_peacock.jpg,4,5,2,1,2,1,3,4,0,73,,,,,,,,,,,,,,,,,,,,
,,,,,73,2020-07-04_18h27.41.656,retriever_ti,2020.1.3,Win32,60,Chrome,1920,1080,,,,,,,,,,,,,,,,,2,,,,,,,,,,,,,,,,,,,,,,,,,,,799.023385,149,right,1.11518,satellite_dish,5,10,-1,0,1,799.03719,799.03719,801.530365,0,71,71,71,1,149,6,5,gloves      ,satellite_dish,html/resources/sequences_IDs/B/06_gloves.jpg,html/resources/sequences_IDs/A/10_satellite_dish.jpg,6,10,3,2,4,2,5,8,1,73,,,,,,,,,,,,,,,,,,,,
,,,,,73,2020-07-04_18h27.41.656,retriever_ti,2020.1.3,Win32,60,Chrome,1920,1080,,,,,,,,,,,,,,,,,2,,,,,,,,,,,,,,,,,,,,,,,,,,,802.620485,150,left,1.104695,hat           ,1,8,-5,0,3,802.634335,802.634335,805.126915,0,72,72,72,1,150,1,6,hat           ,gloves      ,html/resources/sequences_IDs/A/08_hat.jpg,html/resources/sequences_IDs/B/06_gloves.jpg,8,6,3,2,3,2,7,5,0,73,,,,,,,,,,,,,,,,,,,,
,,,,,73,2020-07-04_18h27.41.656,retriever_ti,2020.1.3,Win32,60,Chrome,1920,1080,,,,,,,,,,,,,,,,,2,,,,,,,,,,,,,,,,,,,,,,,,,,,805.73134,151,left,1.910015,sport_tshirt,2,7,1,1,0,805.745375,805.745375,808.237955,0,73,73,73,1,151,2,1,sport_tshirt,hat           ,html/resources/sequences_IDs/B/07_sport_tshirt.jpg,html/resources/sequences_IDs/A/08_hat.jpg,7,8,3,2,3,2,6,7,1,73,,,,,,,,,,,,,,,,,,,,
,,,,,73,2020-07-04_18h27.41.656,retriever_ti,2020.1.3,Win32,60,Chrome,1920,1080,,,,,,,,,,,,,,,,,2,,,,,,,,,,,,,,,,,,,,,,,,,,,809.32882,152,left,1.496945,camel         ,3,3,-4,0,3,809.335695,809.335695,811.828275,0,74,74,74,1,152,3,7,camel         ,peacock       ,html/resources/sequences_IDs/A/03_camel.jpg,html/resources/sequences_IDs/A/05_peacock.jpg,3,5,1,1,2,1,2,4,0,73,,,,,,,,,,,,,,,,,,,,
,,,,,73,2020-07-04_18h27.41.656,retriever_ti,2020.1.3,Win32,60,Chrome,1920,1080,,,,,,,,,,,,,,,,,2,,,,,,,,,,,,,,,,,,,,,,,,,,,812.432795,153,left,0.819665,peacock       ,7,5,-1,0,0,812.446705,812.446705,814.939285,0,75,75,75,1,153,7,8,peacock       ,holdfast    ,html/resources/sequences_IDs/A/05_peacock.jpg,html/resources/sequences_IDs/B/04_holdfast.jpg,5,4,2,1,2,1,4,3,0,73,,,,,,,,,,,,,,,,,,,,
,,,,,73,2020-07-04_18h27.41.656,retriever_ti,2020.1.3,Win32,60,Chrome,1920,1080,,,,,,,,,,,,,,,,,2,,,,,,,,,,,,,,,,,,,,,,,,,,,816.02992,154,left,0.54902,peacock       ,7,5,1,1,1,816.04373,816.04373,818.536325,0,76,76,76,1,154,7,6,peacock       ,gloves      ,html/resources/sequences_IDs/A/05_peacock.jpg,html/resources/sequences_IDs/B/06_gloves.jpg,5,6,2,1,3,2,4,5,0,73,,,,,,,,,,,,,,,,,,,,
,,,,,73,2020-07-04_18h27.41.656,retriever_ti,2020.1.3,Win32,60,Chrome,1920,1080,,,,,,,,,,,,,,,,,,,,,,,,,,,,,,,,,,,,,0,2.545785,,,,,,,,,,,,,,,,,,,,,,,,,,,,,,,,,,,,,,,,,1,0,1,0,1,,,,,,,,,,,,,,,
,,,,,73,2020-07-04_18h27.41.656,retriever_ti,2020.1.3,Win32,60,Chrome,1920,1080,,,,,,,,,,,,,,,,,3,,,,,,,,,,,,,,,,,,,,,,,,,,,827.335495,155,right,0.756395,sport_tshirt,2,7,-4,0,3,827.34231,827.34231,829.83466,0,0,0,0,1,155,6,2,gloves      ,sport_tshirt,html/resources/sequences_IDs/B/06_gloves.jpg,html/resources/sequences_IDs/B/07_sport_tshirt.jpg,6,7,3,2,3,2,5,6,0,73,,,,,,,,,,,,,,,,,,,,
,,,,,73,2020-07-04_18h27.41.656,retriever_ti,2020.1.3,Win32,60,Chrome,1920,1080,,,,,,,,,,,,,,,,,3,,,,,,,,,,,,,,,,,,,,,,,,,,,830.4393,156,right,1.32889,peacock       ,7,5,-1,0,0,830.453255,830.453255,832.94567,0,1,1,1,1,156,8,7,holdfast    ,peacock       ,html/resources/sequences_IDs/B/04_holdfast.jpg,html/resources/sequences_IDs/A/05_peacock.jpg,4,5,2,1,2,1,3,4,0,73,,,,,,,,,,,,,,,,,,,,
,,,,,73,2020-07-04_18h27.41.656,retriever_ti,2020.1.3,Win32,60,Chrome,1920,1080,,,,,,,,,,,,,,,,,3,,,,,,,,,,,,,,,,,,,,,,,,,,,834.036145,157,right,1.905655,camel         ,3,3,-4,0,3,834.050255,834.050255,836.542825,0,2,2,2,1,157,7,3,peacock       ,camel         ,html/resources/sequences_IDs/A/05_peacock.jpg,html/resources/sequences_IDs/A/03_camel.jpg,5,3,2,1,1,1,4,2,0,73,,,,,,,,,,,,,,,,,,,,
,,,,,73,2020-07-04_18h27.41.656,retriever_ti,2020.1.3,Win32,60,Chrome,1920,1080,,,,,,,,,,,,,,,,,3,,,,,,,,,,,,,,,,,,,,,,,,,,,837.147425,158,right,0.96482,satellite_dish,5,10,-1,0,0,837.154335,837.154335,839.64699,0,3,3,3,1,158,6,5,gloves      ,satellite_dish,html/resources/sequences_IDs/B/06_gloves.jpg,html/resources/sequences_IDs/A/10_satellite_dish.jpg,6,10,3,2,4,2,5,8,0,73,,,,,,,,,,,,,,,,,,,,
,,,,,73,2020-07-04_18h27.41.656,retriever_ti,2020.1.3,Win32,60,Chrome,1920,1080,,,,,,,,,,,,,,,,,3,,,,,,,,,,,,,,,,,,,,,,,,,,,840.737705,159,right,1.361575,sport_tshirt,2,7,1,1,1,840.751435,840.751435,843.24402,0,4,4,4,1,159,1,2,hat           ,sport_tshirt,html/resources/sequences_IDs/A/08_hat.jpg,html/resources/sequences_IDs/B/07_sport_tshirt.jpg,8,7,3,2,3,2,7,6,0,73,,,,,,,,,,,,,,,,,,,,
,,,,,73,2020-07-04_18h27.41.656,retriever_ti,2020.1.3,Win32,60,Chrome,1920,1080,,,,,,,,,,,,,,,,,3,,,,,,,,,,,,,,,,,,,,,,,,,,,844.33489,160,right,0.90831,sport_tshirt,2,7,1,1,1,844.348835,844.348835,846.84115,0,5,5,5,1,160,1,2,hat           ,sport_tshirt,html/resources/sequences_IDs/A/08_hat.jpg,html/resources/sequences_IDs/B/07_sport_tshirt.jpg,8,7,3,2,3,2,7,6,0,73,,,,,,,,,,,,,,,,,,,,
,,,,,73,2020-07-04_18h27.41.656,retriever_ti,2020.1.3,Win32,60,Chrome,1920,1080,,,,,,,,,,,,,,,,,3,,,,,,,,,,,,,,,,,,,,,,,,,,,847.931625,161,right,0.531665,hat           ,1,8,-5,0,3,847.945755,847.945755,850.43829,0,6,6,6,1,161,6,1,gloves      ,hat           ,html/resources/sequences_IDs/B/06_gloves.jpg,html/resources/sequences_IDs/A/08_hat.jpg,6,8,3,2,3,2,5,7,0,73,,,,,,,,,,,,,,,,,,,,
,,,,,73,2020-07-04_18h27.41.656,retriever_ti,2020.1.3,Win32,60,Chrome,1920,1080,,,,,,,,,,,,,,,,,3,,,,,,,,,,,,,,,,,,,,,,,,,,,851.04292,162,right,1.33275,dolphin     ,4,2,-3,0,3,851.04979,851.04979,853.542435,0,7,7,7,1,162,7,4,peacock       ,dolphin     ,html/resources/sequences_IDs/A/05_peacock.jpg,html/resources/sequences_IDs/B/02_dolphin.jpg,5,2,2,1,1,1,4,1,0,73,,,,,,,,,,,,,,,,,,,,
,,,,,73,2020-07-04_18h27.41.656,retriever_ti,2020.1.3,Win32,60,Chrome,1920,1080,,,,,,,,,,,,,,,,,3,,,,,,,,,,,,,,,,,,,,,,,,,,,854.146995,163,right,2.22916,camel         ,3,3,1,1,1,854.16082,854.16082,856.653925,0,8,8,8,1,163,2,3,sport_tshirt,camel         ,html/resources/sequences_IDs/B/07_sport_tshirt.jpg,html/resources/sequences_IDs/A/03_camel.jpg,7,3,3,2,1,1,6,2,0,73,,,,,,,,,,,,,,,,,,,,
,,,,,73,2020-07-04_18h27.41.656,retriever_ti,2020.1.3,Win32,60,Chrome,1920,1080,,,,,,,,,,,,,,,,,3,,,,,,,,,,,,,,,,,,,,,,,,,,,857.7439,164,left,2.00443,peacock       ,7,5,-1,0,1,857.75149,857.75149,860.243625,0,9,9,9,1,164,7,8,peacock       ,holdfast    ,html/resources/sequences_IDs/A/05_peacock.jpg,html/resources/sequences_IDs/B/04_holdfast.jpg,5,4,2,1,2,1,4,3,1,73,,,,,,,,,,,,,,,,,,,,
,,,,,73,2020-07-04_18h27.41.656,retriever_ti,2020.1.3,Win32,60,Chrome,1920,1080,,,,,,,,,,,,,,,,,3,,,,,,,,,,,,,,,,,,,,,,,,,,,861.334325,165,left,1.13921,dolphin     ,4,2,2,1,3,861.341195,861.341195,863.833785,0,10,10,10,1,165,4,2,dolphin     ,sport_tshirt,html/resources/sequences_IDs/B/02_dolphin.jpg,html/resources/sequences_IDs/B/07_sport_tshirt.jpg,2,7,1,1,3,2,1,6,0,73,,,,,,,,,,,,,,,,,,,,
,,,,,73,2020-07-04_18h27.41.656,retriever_ti,2020.1.3,Win32,60,Chrome,1920,1080,,,,,,,,,,,,,,,,,3,,,,,,,,,,,,,,,,,,,,,,,,,,,864.438415,166,left,0.77028,dolphin     ,4,2,-4,0,3,864.45224,864.45224,866.94487,0,11,11,11,1,166,4,8,dolphin     ,holdfast    ,html/resources/sequences_IDs/B/02_dolphin.jpg,html/resources/sequences_IDs/B/04_holdfast.jpg,2,4,1,1,2,1,1,3,0,73,,,,,,,,,,,,,,,,,,,,
,,,,,73,2020-07-04_18h27.41.656,retriever_ti,2020.1.3,Win32,60,Chrome,1920,1080,,,,,,,,,,,,,,,,,3,,,,,,,,,,,,,,,,,,,,,,,,,,,867.549265,167,left,0.7864,sport_tshirt,2,7,1,1,1,867.556375,867.556375,870.048915,0,12,12,12,1,167,2,1,sport_tshirt,hat           ,html/resources/sequences_IDs/B/07_sport_tshirt.jpg,html/resources/sequences_IDs/A/08_hat.jpg,7,8,3,2,3,2,6,7,0,73,,,,,,,,,,,,,,,,,,,,
,,,,,73,2020-07-04_18h27.41.656,retriever_ti,2020.1.3,Win32,60,Chrome,1920,1080,,,,,,,,,,,,,,,,,3,,,,,,,,,,,,,,,,,,,,,,,,,,,871.1397,168,right,1.09764,camel         ,3,3,2,1,3,871.1465,871.1465,873.63912,0,13,13,13,1,168,1,3,hat           ,camel         ,html/resources/sequences_IDs/A/08_hat.jpg,html/resources/sequences_IDs/A/03_camel.jpg,8,3,3,2,1,1,7,2,0,73,,,,,,,,,,,,,,,,,,,,
,,,,,73,2020-07-04_18h27.41.656,retriever_ti,2020.1.3,Win32,60,Chrome,1920,1080,,,,,,,,,,,,,,,,,3,,,,,,,,,,,,,,,,,,,,,,,,,,,874.24376,169,right,1.798395,camel         ,3,3,1,1,1,874.251245,874.251245,876.743305,0,14,14,14,1,169,2,3,sport_tshirt,camel         ,html/resources/sequences_IDs/B/07_sport_tshirt.jpg,html/resources/sequences_IDs/A/03_camel.jpg,7,3,3,2,1,1,6,2,0,73,,,,,,,,,,,,,,,,,,,,
,,,,,73,2020-07-04_18h27.41.656,retriever_ti,2020.1.3,Win32,60,Chrome,1920,1080,,,,,,,,,,,,,,,,,3,,,,,,,,,,,,,,,,,,,,,,,,,,,877.833815,170,right,1.206855,satellite_dish,5,10,3,1,3,877.84091,877.84091,880.33354,0,15,15,15,1,170,2,5,sport_tshirt,satellite_dish,html/resources/sequences_IDs/B/07_sport_tshirt.jpg,html/resources/sequences_IDs/A/10_satellite_dish.jpg,7,10,3,2,4,2,6,8,0,73,,,,,,,,,,,,,,,,,,,,
,,,,,73,2020-07-04_18h27.41.656,retriever_ti,2020.1.3,Win32,60,Chrome,1920,1080,,,,,,,,,,,,,,,,,3,,,,,,,,,,,,,,,,,,,,,,,,,,,880.93801,171,left,0.875655,dolphin     ,4,2,1,1,1,880.94491,880.94491,883.437465,0,16,16,16,1,171,4,3,dolphin     ,camel         ,html/resources/sequences_IDs/B/02_dolphin.jpg,html/resources/sequences_IDs/A/03_camel.jpg,2,3,1,1,1,1,1,2,0,73,,,,,,,,,,,,,,,,,,,,
,,,,,73,2020-07-04_18h27.41.656,retriever_ti,2020.1.3,Win32,60,Chrome,1920,1080,,,,,,,,,,,,,,,,,3,,,,,,,,,,,,,,,,,,,,,,,,,,,884.52817,172,right,1.39046,peacock       ,7,5,3,1,3,884.53526,884.53526,887.027675,0,17,17,17,1,172,4,7,dolphin     ,peacock       ,html/resources/sequences_IDs/B/02_dolphin.jpg,html/resources/sequences_IDs/A/05_peacock.jpg,2,5,1,1,2,1,1,4,0,73,,,,,,,,,,,,,,,,,,,,
,,,,,73,2020-07-04_18h27.41.656,retriever_ti,2020.1.3,Win32,60,Chrome,1920,1080,,,,,,,,,,,,,,,,,3,,,,,,,,,,,,,,,,,,,,,,,,,,,887.632115,173,left,1.247655,peacock       ,7,5,6,1,3,887.64621,887.64621,890.13881,0,18,18,18,1,173,7,1,peacock       ,hat           ,html/resources/sequences_IDs/A/05_peacock.jpg,html/resources/sequences_IDs/A/08_hat.jpg,5,8,2,1,3,2,4,7,0,73,,,,,,,,,,,,,,,,,,,,
,,,,,73,2020-07-04_18h27.41.656,retriever_ti,2020.1.3,Win32,60,Chrome,1920,1080,,,,,,,,,,,,,,,,,3,,,,,,,,,,,,,,,,,,,,,,,,,,,890.743305,174,left,0.5959,satellite_dish,5,10,-2,0,3,890.75028,890.75028,893.24277,0,19,19,19,1,174,5,7,satellite_dish,peacock       ,html/resources/sequences_IDs/A/10_satellite_dish.jpg,html/resources/sequences_IDs/A/05_peacock.jpg,10,5,4,2,2,1,8,4,0,73,,,,,,,,,,,,,,,,,,,,
,,,,,73,2020-07-04_18h27.41.656,retriever_ti,2020.1.3,Win32,60,Chrome,1920,1080,,,,,,,,,,,,,,,,,3,,,,,,,,,,,,,,,,,,,,,,,,,,,893.847175,175,right,0.46639,dolphin     ,4,2,-1,0,0,893.86122,893.86122,896.353835,0,20,20,20,1,175,5,4,satellite_dish,dolphin     ,html/resources/sequences_IDs/A/10_satellite_dish.jpg,html/resources/sequences_IDs/B/02_dolphin.jpg,10,2,4,2,1,1,8,1,0,73,,,,,,,,,,,,,,,,,,,,
,,,,,73,2020-07-04_18h27.41.656,retriever_ti,2020.1.3,Win32,60,Chrome,1920,1080,,,,,,,,,,,,,,,,,3,,,,,,,,,,,,,,,,,,,,,,,,,,,897.44457,176,left,1.22376,camel         ,3,3,1,1,1,897.45138,897.45138,899.944035,0,21,21,21,1,176,3,2,camel         ,sport_tshirt,html/resources/sequences_IDs/A/03_camel.jpg,html/resources/sequences_IDs/B/07_sport_tshirt.jpg,3,7,1,1,3,2,2,6,0,73,,,,,,,,,,,,,,,,,,,,
,,,,,73,2020-07-04_18h27.41.656,retriever_ti,2020.1.3,Win32,60,Chrome,1920,1080,,,,,,,,,,,,,,,,,3,,,,,,,,,,,,,,,,,,,,,,,,,,,901.03481,177,right,1.31484,peacock       ,7,5,1,1,1,901.04855,901.04855,903.541225,0,22,22,22,1,177,6,7,gloves      ,peacock       ,html/resources/sequences_IDs/B/06_gloves.jpg,html/resources/sequences_IDs/A/05_peacock.jpg,6,5,3,2,2,1,5,4,0,73,,,,,,,,,,,,,,,,,,,,
,,,,,73,2020-07-04_18h27.41.656,retriever_ti,2020.1.3,Win32,60,Chrome,1920,1080,,,,,,,,,,,,,,,,,3,,,,,,,,,,,,,,,,,,,,,,,,,,,904.631865,178,left,0.825955,camel         ,3,3,2,1,3,904.645675,904.645675,907.13834,0,23,23,23,1,178,3,1,camel         ,hat           ,html/resources/sequences_IDs/A/03_camel.jpg,html/resources/sequences_IDs/A/08_hat.jpg,3,8,1,1,3,2,2,7,0,73,,,,,,,,,,,,,,,,,,,,
,,,,,73,2020-07-04_18h27.41.656,retriever_ti,2020.1.3,Win32,60,Chrome,1920,1080,,,,,,,,,,,,,,,,,3,,,,,,,,,,,,,,,,,,,,,,,,,,,907.74269,179,left,0.91731,camel         ,3,3,-4,0,3,907.749995,907.749995,910.2424,0,24,24,24,1,179,3,7,camel         ,peacock       ,html/resources/sequences_IDs/A/03_camel.jpg,html/resources/sequences_IDs/A/05_peacock.jpg,3,5,1,1,2,1,2,4,0,73,,,,,,,,,,,,,,,,,,,,
,,,,,73,2020-07-04_18h27.41.656,retriever_ti,2020.1.3,Win32,60,Chrome,1920,1080,,,,,,,,,,,,,,,,,3,,,,,,,,,,,,,,,,,,,,,,,,,,,910.84713,180,left,0.9565,satellite_dish,5,10,-1,0,1,910.853955,910.853955,913.34651,0,25,25,25,1,180,5,6,satellite_dish,gloves      ,html/resources/sequences_IDs/A/10_satellite_dish.jpg,html/resources/sequences_IDs/B/06_gloves.jpg,10,6,4,2,3,2,8,5,1,73,,,,,,,,,,,,,,,,,,,,
,,,,,73,2020-07-04_18h27.41.656,retriever_ti,2020.1.3,Win32,60,Chrome,1920,1080,,,,,,,,,,,,,,,,,3,,,,,,,,,,,,,,,,,,,,,,,,,,,914.43719,181,left,0.765585,sport_tshirt,2,7,-6,0,3,914.44403,914.44403,916.93664,0,26,26,26,1,181,2,8,sport_tshirt,holdfast    ,html/resources/sequences_IDs/B/07_sport_tshirt.jpg,html/resources/sequences_IDs/B/04_holdfast.jpg,7,4,3,2,2,1,6,3,0,73,,,,,,,,,,,,,,,,,,,,
,,,,,73,2020-07-04_18h27.41.656,retriever_ti,2020.1.3,Win32,60,Chrome,1920,1080,,,,,,,,,,,,,,,,,3,,,,,,,,,,,,,,,,,,,,,,,,,,,917.541025,182,left,1.04579,holdfast    ,8,4,7,1,3,917.555075,917.555075,920.04773,0,27,27,27,1,182,8,1,holdfast    ,hat           ,html/resources/sequences_IDs/B/04_holdfast.jpg,html/resources/sequences_IDs/A/08_hat.jpg,4,8,2,1,3,2,3,7,0,73,,,,,,,,,,,,,,,,,,,,
,,,,,73,2020-07-04_18h27.41.656,retriever_ti,2020.1.3,Win32,60,Chrome,1920,1080,,,,,,,,,,,,,,,,,3,,,,,,,,,,,,,,,,,,,,,,,,,,,920.652285,183,right,0.648145,peacock       ,7,5,-1,0,0,920.659185,920.659185,923.15175,0,28,28,28,1,183,8,7,holdfast    ,peacock       ,html/resources/sequences_IDs/B/04_holdfast.jpg,html/resources/sequences_IDs/A/05_peacock.jpg,4,5,2,1,2,1,3,4,0,73,,,,,,,,,,,,,,,,,,,,
,,,,,73,2020-07-04_18h27.41.656,retriever_ti,2020.1.3,Win32,60,Chrome,1920,1080,,,,,,,,,,,,,,,,,3,,,,,,,,,,,,,,,,,,,,,,,,,,,924.242495,184,right,0.738365,peacock       ,7,5,1,1,1,924.25637,924.25637,926.748915,0,29,29,29,1,184,6,7,gloves      ,peacock       ,html/resources/sequences_IDs/B/06_gloves.jpg,html/resources/sequences_IDs/A/05_peacock.jpg,6,5,3,2,2,1,5,4,0,73,,,,,,,,,,,,,,,,,,,,
,,,,,73,2020-07-04_18h27.41.656,retriever_ti,2020.1.3,Win32,60,Chrome,1920,1080,,,,,,,,,,,,,,,,,3,,,,,,,,,,,,,,,,,,,,,,,,,,,927.83937,185,left,1.214815,sport_tshirt,2,7,-5,0,3,927.853685,927.853685,930.34614,0,30,30,30,1,185,2,7,sport_tshirt,peacock       ,html/resources/sequences_IDs/B/07_sport_tshirt.jpg,html/resources/sequences_IDs/A/05_peacock.jpg,7,5,3,2,2,1,6,4,0,73,,,,,,,,,,,,,,,,,,,,
,,,,,73,2020-07-04_18h27.41.656,retriever_ti,2020.1.3,Win32,60,Chrome,1920,1080,,,,,,,,,,,,,,,,,3,,,,,,,,,,,,,,,,,,,,,,,,,,,930.950715,186,left,1.76464,dolphin     ,4,2,1,1,1,930.964585,930.964585,933.45725,0,31,31,31,1,186,4,3,dolphin     ,camel         ,html/resources/sequences_IDs/B/02_dolphin.jpg,html/resources/sequences_IDs/A/03_camel.jpg,2,3,1,1,1,1,1,2,0,73,,,,,,,,,,,,,,,,,,,,
,,,,,73,2020-07-04_18h27.41.656,retriever_ti,2020.1.3,Win32,60,Chrome,1920,1080,,,,,,,,,,,,,,,,,3,,,,,,,,,,,,,,,,,,,,,,,,,,,934.54779,187,right,0.803435,satellite_dish,5,10,-1,0,0,934.56175,934.56175,937.05431,0,32,32,32,1,187,6,5,gloves      ,satellite_dish,html/resources/sequences_IDs/B/06_gloves.jpg,html/resources/sequences_IDs/A/10_satellite_dish.jpg,6,10,3,2,4,2,5,8,0,73,,,,,,,,,,,,,,,,,,,,
,,,,,73,2020-07-04_18h27.41.656,retriever_ti,2020.1.3,Win32,60,Chrome,1920,1080,,,,,,,,,,,,,,,,,3,,,,,,,,,,,,,,,,,,,,,,,,,,,938.14468,188,right,0.665105,dolphin     ,4,2,3,1,3,938.15873,938.15873,940.651345,0,33,33,33,1,188,1,4,hat           ,dolphin     ,html/resources/sequences_IDs/A/08_hat.jpg,html/resources/sequences_IDs/B/02_dolphin.jpg,8,2,3,2,1,1,7,1,0,73,,,,,,,,,,,,,,,,,,,,
,,,,,73,2020-07-04_18h27.41.656,retriever_ti,2020.1.3,Win32,60,Chrome,1920,1080,,,,,,,,,,,,,,,,,3,,,,,,,,,,,,,,,,,,,,,,,,,,,941.255955,189,left,0.85229,satellite_dish,5,10,4,1,3,941.26286,941.26286,943.755505,0,34,34,34,1,189,5,1,satellite_dish,hat           ,html/resources/sequences_IDs/A/10_satellite_dish.jpg,html/resources/sequences_IDs/A/08_hat.jpg,10,8,4,2,3,2,8,7,0,73,,,,,,,,,,,,,,,,,,,,
,,,,,73,2020-07-04_18h27.41.656,retriever_ti,2020.1.3,Win32,60,Chrome,1920,1080,,,,,,,,,,,,,,,,,3,,,,,,,,,,,,,,,,,,,,,,,,,,,944.36019,190,left,0.57118,dolphin     ,4,2,-1,0,0,944.37444,944.37444,946.866475,0,35,35,35,1,190,4,5,dolphin     ,satellite_dish,html/resources/sequences_IDs/B/02_dolphin.jpg,html/resources/sequences_IDs/A/10_satellite_dish.jpg,2,10,1,1,4,2,1,8,0,73,,,,,,,,,,,,,,,,,,,,
,,,,,73,2020-07-04_18h27.41.656,retriever_ti,2020.1.3,Win32,60,Chrome,1920,1080,,,,,,,,,,,,,,,,,3,,,,,,,,,,,,,,,,,,,,,,,,,,,947.95693,191,left,0.64768,peacock       ,7,5,1,1,1,947.971385,947.971385,950.463565,0,36,36,36,1,191,7,6,peacock       ,gloves      ,html/resources/sequences_IDs/A/05_peacock.jpg,html/resources/sequences_IDs/B/06_gloves.jpg,5,6,2,1,3,2,4,5,0,73,,,,,,,,,,,,,,,,,,,,
,,,,,73,2020-07-04_18h27.41.656,retriever_ti,2020.1.3,Win32,60,Chrome,1920,1080,,,,,,,,,,,,,,,,,3,,,,,,,,,,,,,,,,,,,,,,,,,,,951.554285,192,left,1.44398,peacock       ,7,5,-1,0,0,951.56113,951.56113,954.0538,0,37,37,37,1,192,7,8,peacock       ,holdfast    ,html/resources/sequences_IDs/A/05_peacock.jpg,html/resources/sequences_IDs/B/04_holdfast.jpg,5,4,2,1,2,1,4,3,0,73,,,,,,,,,,,,,,,,,,,,
,,,,,73,2020-07-04_18h27.41.656,retriever_ti,2020.1.3,Win32,60,Chrome,1920,1080,,,,,,,,,,,,,,,,,3,,,,,,,,,,,,,,,,,,,,,,,,,,,955.144485,193,right,0.670445,peacock       ,7,5,6,1,3,955.15133,955.15133,957.64396,0,38,38,38,1,193,1,7,hat           ,peacock       ,html/resources/sequences_IDs/A/08_hat.jpg,html/resources/sequences_IDs/A/05_peacock.jpg,8,5,3,2,2,1,7,4,0,73,,,,,,,,,,,,,,,,,,,,
,,,,,73,2020-07-04_18h27.41.656,retriever_ti,2020.1.3,Win32,60,Chrome,1920,1080,,,,,,,,,,,,,,,,,3,,,,,,,,,,,,,,,,,,,,,,,,,,,958.24855,194,right,0.548555,dolphin     ,4,2,-1,0,0,958.2624,958.2624,960.75499,0,39,39,39,1,194,5,4,satellite_dish,dolphin     ,html/resources/sequences_IDs/A/10_satellite_dish.jpg,html/resources/sequences_IDs/B/02_dolphin.jpg,10,2,4,2,1,1,8,1,0,73,,,,,,,,,,,,,,,,,,,,
,,,,,73,2020-07-04_18h27.41.656,retriever_ti,2020.1.3,Win32,60,Chrome,1920,1080,,,,,,,,,,,,,,,,,3,,,,,,,,,,,,,,,,,,,,,,,,,,,961.845455,195,left,0.610795,dolphin     ,4,2,-2,0,3,961.853215,961.853215,964.345215,0,40,40,40,1,195,4,6,dolphin     ,gloves      ,html/resources/sequences_IDs/B/02_dolphin.jpg,html/resources/sequences_IDs/B/06_gloves.jpg,2,6,1,1,3,2,1,5,0,73,,,,,,,,,,,,,,,,,,,,
,,,,,73,2020-07-04_18h27.41.656,retriever_ti,2020.1.3,Win32,60,Chrome,1920,1080,,,,,,,,,,,,,,,,,3,,,,,,,,,,,,,,,,,,,,,,,,,,,964.94992,196,right,1.48272,camel         ,3,3,1,1,0,964.96367,964.96367,967.45628,0,41,41,41,1,196,2,3,sport_tshirt,camel         ,html/resources/sequences_IDs/B/07_sport_tshirt.jpg,html/resources/sequences_IDs/A/03_camel.jpg,7,3,3,2,1,1,6,2,1,73,,,,,,,,,,,,,,,,,,,,
,,,,,73,2020-07-04_18h27.41.656,retriever_ti,2020.1.3,Win32,60,Chrome,1920,1080,,,,,,,,,,,,,,,,,3,,,,,,,,,,,,,,,,,,,,,,,,,,,968.546925,197,right,0.804155,dolphin     ,4,2,-4,0,3,968.55387,968.55387,971.04649,0,42,42,42,1,197,8,4,holdfast    ,dolphin     ,html/resources/sequences_IDs/B/04_holdfast.jpg,html/resources/sequences_IDs/B/02_dolphin.jpg,4,2,2,1,1,1,3,1,0,73,,,,,,,,,,,,,,,,,,,,
,,,,,73,2020-07-04_18h27.41.656,retriever_ti,2020.1.3,Win32,60,Chrome,1920,1080,,,,,,,,,,,,,,,,,3,,,,,,,,,,,,,,,,,,,,,,,,,,,971.650775,198,left,1.297315,satellite_dish,5,10,3,1,3,971.66485,971.66485,974.157465,0,43,43,43,1,198,5,2,satellite_dish,sport_tshirt,html/resources/sequences_IDs/A/10_satellite_dish.jpg,html/resources/sequences_IDs/B/07_sport_tshirt.jpg,10,7,4,2,3,2,8,6,0,73,,,,,,,,,,,,,,,,,,,,
,,,,,73,2020-07-04_18h27.41.656,retriever_ti,2020.1.3,Win32,60,Chrome,1920,1080,,,,,,,,,,,,,,,,,3,,,,,,,,,,,,,,,,,,,,,,,,,,,974.762145,199,right,2.100695,sport_tshirt,2,7,-5,0,3,974.77595,974.77595,977.26846,0,44,44,44,1,199,7,2,peacock       ,sport_tshirt,html/resources/sequences_IDs/A/05_peacock.jpg,html/resources/sequences_IDs/B/07_sport_tshirt.jpg,5,7,2,1,3,2,4,6,0,73,,,,,,,,,,,,,,,,,,,,
,,,,,73,2020-07-04_18h27.41.656,retriever_ti,2020.1.3,Win32,60,Chrome,1920,1080,,,,,,,,,,,,,,,,,3,,,,,,,,,,,,,,,,,,,,,,,,,,,977.8729,200,right,1.237985,satellite_dish,5,10,2,1,3,977.87996,977.87996,980.37267,0,45,45,45,1,200,3,5,camel         ,satellite_dish,html/resources/sequences_IDs/A/03_camel.jpg,html/resources/sequences_IDs/A/10_satellite_dish.jpg,3,10,1,1,4,2,2,8,0,73,,,,,,,,,,,,,,,,,,,,
,,,,,73,2020-07-04_18h27.41.656,retriever_ti,2020.1.3,Win32,60,Chrome,1920,1080,,,,,,,,,,,,,,,,,3,,,,,,,,,,,,,,,,,,,,,,,,,,,980.977295,201,right,0.499805,sport_tshirt,2,7,-6,0,3,980.98419,980.98419,983.47666,0,46,46,46,1,201,8,2,holdfast    ,sport_tshirt,html/resources/sequences_IDs/B/04_holdfast.jpg,html/resources/sequences_IDs/B/07_sport_tshirt.jpg,4,7,2,1,3,2,3,6,0,73,,,,,,,,,,,,,,,,,,,,
,,,,,73,2020-07-04_18h27.41.656,retriever_ti,2020.1.3,Win32,60,Chrome,1920,1080,,,,,,,,,,,,,,,,,3,,,,,,,,,,,,,,,,,,,,,,,,,,,984.081,202,right,0.81605,holdfast    ,8,4,7,1,3,984.08836,984.08836,986.580715,0,47,47,47,1,202,1,8,hat           ,holdfast    ,html/resources/sequences_IDs/A/08_hat.jpg,html/resources/sequences_IDs/B/04_holdfast.jpg,8,4,3,2,2,1,7,3,0,73,,,,,,,,,,,,,,,,,,,,
,,,,,73,2020-07-04_18h27.41.656,retriever_ti,2020.1.3,Win32,60,Chrome,1920,1080,,,,,,,,,,,,,,,,,3,,,,,,,,,,,,,,,,,,,,,,,,,,,987.185425,203,left,0.62641,camel         ,3,3,-3,0,3,987.19922,987.19922,989.691765,0,48,48,48,1,203,3,6,camel         ,gloves      ,html/resources/sequences_IDs/A/03_camel.jpg,html/resources/sequences_IDs/B/06_gloves.jpg,3,6,1,1,3,2,2,5,0,73,,,,,,,,,,,,,,,,,,,,
,,,,,73,2020-07-04_18h27.41.656,retriever_ti,2020.1.3,Win32,60,Chrome,1920,1080,,,,,,,,,,,,,,,,,3,,,,,,,,,,,,,,,,,,,,,,,,,,,990.296395,204,left,1.31838,holdfast    ,8,4,2,1,3,990.30327,990.30327,992.79584,0,49,49,49,1,204,8,6,holdfast    ,gloves      ,html/resources/sequences_IDs/B/04_holdfast.jpg,html/resources/sequences_IDs/B/06_gloves.jpg,4,6,2,1,3,2,3,5,0,73,,,,,,,,,,,,,,,,,,,,
,,,,,73,2020-07-04_18h27.41.656,retriever_ti,2020.1.3,Win32,60,Chrome,1920,1080,,,,,,,,,,,,,,,,,3,,,,,,,,,,,,,,,,,,,,,,,,,,,993.40024,205,right,0.72143,camel         ,3,3,-3,0,3,993.415055,993.415055,995.90687,0,50,50,50,1,205,6,3,gloves      ,camel         ,html/resources/sequences_IDs/B/06_gloves.jpg,html/resources/sequences_IDs/A/03_camel.jpg,6,3,3,2,1,1,5,2,0,73,,,,,,,,,,,,,,,,,,,,
,,,,,73,2020-07-04_18h27.41.656,retriever_ti,2020.1.3,Win32,60,Chrome,1920,1080,,,,,,,,,,,,,,,,,3,,,,,,,,,,,,,,,,,,,,,,,,,,,996.51149,206,right,0.478765,peacock       ,7,5,1,1,0,996.525355,996.525355,999.01795,0,51,51,51,1,206,6,7,gloves      ,peacock       ,html/resources/sequences_IDs/B/06_gloves.jpg,html/resources/sequences_IDs/A/05_peacock.jpg,6,5,3,2,2,1,5,4,1,73,,,,,,,,,,,,,,,,,,,,
,,,,,73,2020-07-04_18h27.41.656,retriever_ti,2020.1.3,Win32,60,Chrome,1920,1080,,,,,,,,,,,,,,,,,3,,,,,,,,,,,,,,,,,,,,,,,,,,,1000.10844,207,right,0.66189,dolphin     ,4,2,2,1,3,1000.115465,1000.115465,1002.60813,0,52,52,52,1,207,2,4,sport_tshirt,dolphin     ,html/resources/sequences_IDs/B/07_sport_tshirt.jpg,html/resources/sequences_IDs/B/02_dolphin.jpg,7,2,3,2,1,1,6,1,0,73,,,,,,,,,,,,,,,,,,,,
,,,,,73,2020-07-04_18h27.41.656,retriever_ti,2020.1.3,Win32,60,Chrome,1920,1080,,,,,,,,,,,,,,,,,3,,,,,,,,,,,,,,,,,,,,,,,,,,,1003.212725,208,right,0.822045,dolphin     ,4,2,1,1,1,1003.226595,1003.226595,1005.71915,0,53,53,53,1,208,3,4,camel         ,dolphin     ,html/resources/sequences_IDs/A/03_camel.jpg,html/resources/sequences_IDs/B/02_dolphin.jpg,3,2,1,1,1,1,2,1,0,73,,,,,,,,,,,,,,,,,,,,
,,,,,73,2020-07-04_18h27.41.656,retriever_ti,2020.1.3,Win32,60,Chrome,1920,1080,,,,,,,,,,,,,,,,,3,,,,,,,,,,,,,,,,,,,,,,,,,,,1006.809805,209,right,1.37243,gloves      ,6,6,5,1,3,1006.823785,1006.823785,1009.31637,0,54,54,54,1,209,1,6,hat           ,gloves      ,html/resources/sequences_IDs/A/08_hat.jpg,html/resources/sequences_IDs/B/06_gloves.jpg,8,6,3,2,3,2,7,5,0,73,,,,,,,,,,,,,,,,,,,,
,,,,,73,2020-07-04_18h27.41.656,retriever_ti,2020.1.3,Win32,60,Chrome,1920,1080,,,,,,,,,,,,,,,,,3,,,,,,,,,,,,,,,,,,,,,,,,,,,1009.920645,210,left,0.922365,peacock       ,7,5,1,1,1,1009.934895,1009.934895,1012.427295,0,55,55,55,1,210,7,6,peacock       ,gloves      ,html/resources/sequences_IDs/A/05_peacock.jpg,html/resources/sequences_IDs/B/06_gloves.jpg,5,6,2,1,3,2,4,5,0,73,,,,,,,,,,,,,,,,,,,,
,,,,,73,2020-07-04_18h27.41.656,retriever_ti,2020.1.3,Win32,60,Chrome,1920,1080,,,,,,,,,,,,,,,,,3,,,,,,,,,,,,,,,,,,,,,,,,,,,1013.51801,211,left,0.68757,dolphin     ,4,2,3,1,3,1013.531845,1013.531845,1016.02445,0,56,56,56,1,211,4,1,dolphin     ,hat           ,html/resources/sequences_IDs/B/02_dolphin.jpg,html/resources/sequences_IDs/A/08_hat.jpg,2,8,1,1,3,2,1,7,0,73,,,,,,,,,,,,,,,,,,,,
,,,,,73,2020-07-04_18h27.41.656,retriever_ti,2020.1.3,Win32,60,Chrome,1920,1080,,,,,,,,,,,,,,,,,3,,,,,,,,,,,,,,,,,,,,,,,,,,,1016.62903,212,right,0.76666,camel         ,3,3,-5,0,3,1016.642895,1016.642895,1019.135635,0,57,57,57,1,212,8,3,holdfast    ,camel         ,html/resources/sequences_IDs/B/04_holdfast.jpg,html/resources/sequences_IDs/A/03_camel.jpg,4,3,2,1,1,1,3,2,0,73,,,,,,,,,,,,,,,,,,,,
,,,,,73,2020-07-04_18h27.41.656,retriever_ti,2020.1.3,Win32,60,Chrome,1920,1080,,,,,,,,,,,,,,,,,3,,,,,,,,,,,,,,,,,,,,,,,,,,,1019.73996,213,right,1.088455,satellite_dish,5,10,4,1,3,1019.746975,1019.746975,1022.239675,0,58,58,58,1,213,1,5,hat           ,satellite_dish,html/resources/sequences_IDs/A/08_hat.jpg,html/resources/sequences_IDs/A/10_satellite_dish.jpg,8,10,3,2,4,2,7,8,0,73,,,,,,,,,,,,,,,,,,,,
,,,,,73,2020-07-04_18h27.41.656,retriever_ti,2020.1.3,Win32,60,Chrome,1920,1080,,,,,,,,,,,,,,,,,3,,,,,,,,,,,,,,,,,,,,,,,,,,,1022.844195,214,left,1.35442,camel         ,3,3,1,1,1,1022.85801,1022.85801,1025.35063,0,59,59,59,1,214,3,2,camel         ,sport_tshirt,html/resources/sequences_IDs/A/03_camel.jpg,html/resources/sequences_IDs/B/07_sport_tshirt.jpg,3,7,1,1,3,2,2,6,0,73,,,,,,,,,,,,,,,,,,,,
,,,,,73,2020-07-04_18h27.41.656,retriever_ti,2020.1.3,Win32,60,Chrome,1920,1080,,,,,,,,,,,,,,,,,3,,,,,,,,,,,,,,,,,,,,,,,,,,,1026.441275,215,right,1.08439,satellite_dish,5,10,-3,0,3,1026.45516,1026.45516,1028.94775,0,60,60,60,1,215,8,5,holdfast    ,satellite_dish,html/resources/sequences_IDs/B/04_holdfast.jpg,html/resources/sequences_IDs/A/10_satellite_dish.jpg,4,10,2,1,4,2,3,8,0,73,,,,,,,,,,,,,,,,,,,,
,,,,,73,2020-07-04_18h27.41.656,retriever_ti,2020.1.3,Win32,60,Chrome,1920,1080,,,,,,,,,,,,,,,,,3,,,,,,,,,,,,,,,,,,,,,,,,,,,1029.552105,216,right,1.894195,dolphin     ,4,2,-2,0,3,1029.5662,1029.5662,1032.05875,0,61,61,61,1,216,6,4,gloves      ,dolphin     ,html/resources/sequences_IDs/B/06_gloves.jpg,html/resources/sequences_IDs/B/02_dolphin.jpg,6,2,3,2,1,1,5,1,0,73,,,,,,,,,,,,,,,,,,,,
,,,,,73,2020-07-04_18h27.41.656,retriever_ti,2020.1.3,Win32,60,Chrome,1920,1080,,,,,,,,,,,,,,,,,3,,,,,,,,,,,,,,,,,,,,,,,,,,,1032.66339,217,right,1.220705,sport_tshirt,2,7,1,1,0,1032.67721,1032.67721,1035.169775,0,62,62,62,1,217,1,2,hat           ,sport_tshirt,html/resources/sequences_IDs/A/08_hat.jpg,html/resources/sequences_IDs/B/07_sport_tshirt.jpg,8,7,3,2,3,2,7,6,1,73,,,,,,,,,,,,,,,,,,,,
,,,,,73,2020-07-04_18h27.41.656,retriever_ti,2020.1.3,Win32,60,Chrome,1920,1080,,,,,,,,,,,,,,,,,3,,,,,,,,,,,,,,,,,,,,,,,,,,,1036.260555,218,left,0.733285,dolphin     ,4,2,-1,0,0,1036.26734,1036.26734,1038.76,0,63,63,63,1,218,4,5,dolphin     ,satellite_dish,html/resources/sequences_IDs/B/02_dolphin.jpg,html/resources/sequences_IDs/A/10_satellite_dish.jpg,2,10,1,1,4,2,1,8,0,73,,,,,,,,,,,,,,,,,,,,
,,,,,73,2020-07-04_18h27.41.656,retriever_ti,2020.1.3,Win32,60,Chrome,1920,1080,,,,,,,,,,,,,,,,,3,,,,,,,,,,,,,,,,,,,,,,,,,,,1039.850475,219,right,0.711635,dolphin     ,4,2,1,1,0,1039.864555,1039.864555,1042.35712,0,64,64,64,1,219,3,4,camel         ,dolphin     ,html/resources/sequences_IDs/A/03_camel.jpg,html/resources/sequences_IDs/B/02_dolphin.jpg,3,2,1,1,1,1,2,1,1,73,,,,,,,,,,,,,,,,,,,,
,,,,,73,2020-07-04_18h27.41.656,retriever_ti,2020.1.3,Win32,60,Chrome,1920,1080,,,,,,,,,,,,,,,,,3,,,,,,,,,,,,,,,,,,,,,,,,,,,1043.44796,220,left,0.90542,satellite_dish,5,10,-1,0,0,1043.45487,1043.45487,1045.947345,0,65,65,65,1,220,5,6,satellite_dish,gloves      ,html/resources/sequences_IDs/A/10_satellite_dish.jpg,html/resources/sequences_IDs/B/06_gloves.jpg,10,6,4,2,3,2,8,5,0,73,,,,,,,,,,,,,,,,,,,,
,,,,,73,2020-07-04_18h27.41.656,retriever_ti,2020.1.3,Win32,60,Chrome,1920,1080,,,,,,,,,,,,,,,,,3,,,,,,,,,,,,,,,,,,,,,,,,,,,1047.03856,221,left,1.31827,camel         ,3,3,-5,0,3,1047.0449,1047.0449,1049.53749,0,66,66,66,1,221,3,8,camel         ,holdfast    ,html/resources/sequences_IDs/A/03_camel.jpg,html/resources/sequences_IDs/B/04_holdfast.jpg,3,4,1,1,2,1,2,3,0,73,,,,,,,,,,,,,,,,,,,,
