instructionsLoop.thisRepN,instructionsLoop.thisTrialN,instructionsLoop.thisN,instructionsLoop.thisIndex,instructionsLoop.ran,participant,date,expName,psychopyVersion,OS,frameRate,browser,xResolution,yResolution,fix_onset,tprac,practiceKey.keys,practiceKey.rt,pracitem_chosen_name,acc_practice,P1_onsetPrac,P2_onsetPrac,onsetFeedbPrac,practiceTrials.thisRepN,practiceTrials.thisTrialN,practiceTrials.thisN,practiceTrials.thisIndex,practiceTrials.ran,P1,P2,Block,LocItem1,LocItem2,NameItem1,NameItem2,key_respAC_prac.keys,key_respAC_prac.corr,key_respAC_prac.rt,AC_acc,Attentions.thisRepN,Attentions.thisTrialN,Attentions.thisN,Attentions.thisIndex,Attentions.ran,Stim,Loc1,Loc2,Loc3,Loc4,CorrAns,keyDisturbed.keys,keyDisturbed.rt,repPractice.thisRepN,repPractice.thisTrialN,repPractice.thisN,repPractice.thisIndex,repPractice.ran,fixcross_onsetMain,trialNumber,key_resp.keys,key_resp.rt,item_chosen_name,item_chosen_value,item_chosen_ID,diff_chosen_minus_reject,acc_real,acc_feedback,P1_onset,P2_onset,feedb_onset,trials.thisRepN,trials.thisTrialN,trials.thisN,trials.thisIndex,trials.ran,Trial,ValueP1,ValueP2,P1name,P2name,P1Loc,P2Loc,P1id,P2id,Micro_categoryP1,Macro_categoryP1,Micro_categoryP2,Macro_categoryP2,ID_sequenceP1,ID_sequenceP2,InverseFb,pNumber,repBlocks.thisRepN,repBlocks.thisTrialN,repBlocks.thisN,repBlocks.thisIndex,repBlocks.ran,key_respAC.keys,key_respAC.corr,key_respAC.rt,trials_AC.thisRepN,trials_AC.thisTrialN,trials_AC.thisN,trials_AC.thisIndex,trials_AC.ran,Bonus,BonusLoop.thisRepN,BonusLoop.thisTrialN,BonusLoop.thisN,BonusLoop.thisIndex,BonusLoop.ran,comments
0,0,0,0,1,74,2020-07-04_18h30.33.343,retriever_ti,2020.1.3,Win32,60,Chrome,1366,768,,,,,,,,,,,,,,,,,,,,,,,,,,,,,,,,,,,,,,,,,,,,,,,,,,,,,,,,,,,,,,,,,,,,,,,,,,,,,,,,,,,,,,,,,,,,,,,,,,
1,0,1,0,1,74,2020-07-04_18h30.33.343,retriever_ti,2020.1.3,Win32,60,Chrome,1366,768,,,,,,,,,,,,,,,,,,,,,,,,,,,,,,,,,,,,,,,,,,,,,,,,,,,,,,,,,,,,,,,,,,,,,,,,,,,,,,,,,,,,,,,,,,,,,,,,,,
2,0,2,0,1,74,2020-07-04_18h30.33.343,retriever_ti,2020.1.3,Win32,60,Chrome,1366,768,,,,,,,,,,,,,,,,,,,,,,,,,,,,,,,,,,,,,,,,,,,,,,,,,,,,,,,,,,,,,,,,,,,,,,,,,,,,,,,,,,,,,,,,,,,,,,,,,,
3,0,3,0,1,74,2020-07-04_18h30.33.343,retriever_ti,2020.1.3,Win32,60,Chrome,1366,768,,,,,,,,,,,,,,,,,,,,,,,,,,,,,,,,,,,,,,,,,,,,,,,,,,,,,,,,,,,,,,,,,,,,,,,,,,,,,,,,,,,,,,,,,,,,,,,,,,
4,0,4,0,1,74,2020-07-04_18h30.33.343,retriever_ti,2020.1.3,Win32,60,Chrome,1366,768,,,,,,,,,,,,,,,,,,,,,,,,,,,,,,,,,,,,,,,,,,,,,,,,,,,,,,,,,,,,,,,,,,,,,,,,,,,,,,,,,,,,,,,,,,,,,,,,,,
5,0,5,0,1,74,2020-07-04_18h30.33.343,retriever_ti,2020.1.3,Win32,60,Chrome,1366,768,,,,,,,,,,,,,,,,,,,,,,,,,,,,,,,,,,,,,,,,,,,,,,,,,,,,,,,,,,,,,,,,,,,,,,,,,,,,,,,,,,,,,,,,,,,,,,,,,,
6,0,6,0,1,74,2020-07-04_18h30.33.343,retriever_ti,2020.1.3,Win32,60,Chrome,1366,768,,,,,,,,,,,,,,,,,,,,,,,,,,,,,,,,,,,,,,,,,,,,,,,,,,,,,,,,,,,,,,,,,,,,,,,,,,,,,,,,,,,,,,,,,,,,,,,,,,
7,0,7,0,1,74,2020-07-04_18h30.33.343,retriever_ti,2020.1.3,Win32,60,Chrome,1366,768,,,,,,,,,,,,,,,,,,,,,,,,,,,,,,,,,,,,,,,,,,,,,,,,,,,,,,,,,,,,,,,,,,,,,,,,,,,,,,,,,,,,,,,,,,,,,,,,,,
8,0,8,0,1,74,2020-07-04_18h30.33.343,retriever_ti,2020.1.3,Win32,60,Chrome,1366,768,,,,,,,,,,,,,,,,,,,,,,,,,,,,,,,,,,,,,,,,,,,,,,,,,,,,,,,,,,,,,,,,,,,,,,,,,,,,,,,,,,,,,,,,,,,,,,,,,,
9,0,9,0,1,74,2020-07-04_18h30.33.343,retriever_ti,2020.1.3,Win32,60,Chrome,1366,768,,,,,,,,,,,,,,,,,,,,,,,,,,,,,,,,,,,,,,,,,,,,,,,,,,,,,,,,,,,,,,,,,,,,,,,,,,,,,,,,,,,,,,,,,,,,,,,,,,
10,0,10,0,1,74,2020-07-04_18h30.33.343,retriever_ti,2020.1.3,Win32,60,Chrome,1366,768,,,,,,,,,,,,,,,,,,,,,,,,,,,,,,,,,,,,,,,,,,,,,,,,,,,,,,,,,,,,,,,,,,,,,,,,,,,,,,,,,,,,,,,,,,,,,,,,,,
11,0,11,0,1,74,2020-07-04_18h30.33.343,retriever_ti,2020.1.3,Win32,60,Chrome,1366,768,,,,,,,,,,,,,,,,,,,,,,,,,,,,,,,,,,,,,,,,,,,,,,,,,,,,,,,,,,,,,,,,,,,,,,,,,,,,,,,,,,,,,,,,,,,,,,,,,,
12,0,12,0,1,74,2020-07-04_18h30.33.343,retriever_ti,2020.1.3,Win32,60,Chrome,1366,768,,,,,,,,,,,,,,,,,,,,,,,,,,,,,,,,,,,,,,,,,,,,,,,,,,,,,,,,,,,,,,,,,,,,,,,,,,,,,,,,,,,,,,,,,,,,,,,,,,
13,0,13,0,1,74,2020-07-04_18h30.33.343,retriever_ti,2020.1.3,Win32,60,Chrome,1366,768,,,,,,,,,,,,,,,,,,,,,,,,,,,,,,,,,,,,,,,,,,,,,,,,,,,,,,,,,,,,,,,,,,,,,,,,,,,,,,,,,,,,,,,,,,,,,,,,,,
14,0,14,0,1,74,2020-07-04_18h30.33.343,retriever_ti,2020.1.3,Win32,60,Chrome,1366,768,,,,,,,,,,,,,,,,,,,,,,,,,,,,,,,,,,,,,,,,,,,,,,,,,,,,,,,,,,,,,,,,,,,,,,,,,,,,,,,,,,,,,,,,,,,,,,,,,,
15,0,15,0,1,74,2020-07-04_18h30.33.343,retriever_ti,2020.1.3,Win32,60,Chrome,1366,768,,,,,,,,,,,,,,,,,,,,,,,,,,,,,,,,,,,,,,,,,,,,,,,,,,,,,,,,,,,,,,,,,,,,,,,,,,,,,,,,,,,,,,,,,,,,,,,,,,
16,0,16,0,1,74,2020-07-04_18h30.33.343,retriever_ti,2020.1.3,Win32,60,Chrome,1366,768,,,,,,,,,,,,,,,,,,,,,,,,,,,,,,,,,,,,,,,,,,,,,,,,,,,,,,,,,,,,,,,,,,,,,,,,,,,,,,,,,,,,,,,,,,,,,,,,,,
,,,,,74,2020-07-04_18h30.33.343,retriever_ti,2020.1.3,Win32,60,Chrome,1366,768,90.007435,1,left,1.20063,beetle,0,90.02391,90.02391,92.52415,0,0,0,0,1,2,5,1,html/resources/stimuli_practice_decision/04_beetle.jpg,html/resources/stimuli_practice_decision/02_canary.jpg,beetle,canary,,,,,,,,,,,,,,,,,,,,,,,,,,,,,,,,,,,,,,,,,,,,,,,,,,,,,,,,,,,,,,,,,,,,,,,,,,,,,
,,,,,74,2020-07-04_18h30.33.343,retriever_ti,2020.1.3,Win32,60,Chrome,1366,768,93.259105,2,left,1.241185,rabbit,1,93.29148,93.29148,95.78941,0,1,1,1,1,4,3,1,html/resources/stimuli_practice_decision/01_rabbit.jpg,html/resources/stimuli_practice_decision/07_sock.jpg,rabbit,sock,,,,,,,,,,,,,,,,,,,,,,,,,,,,,,,,,,,,,,,,,,,,,,,,,,,,,,,,,,,,,,,,,,,,,,,,,,,,,
,,,,,74,2020-07-04_18h30.33.343,retriever_ti,2020.1.3,Win32,60,Chrome,1366,768,96.79037,3,right,0.69623,beetle,0,96.809235,96.809235,99.30579,0,2,2,2,1,6,2,1,html/resources/stimuli_practice_decision/06_pullover.jpg,html/resources/stimuli_practice_decision/04_beetle.jpg,pullover,beetle,,,,,,,,,,,,,,,,,,,,,,,,,,,,,,,,,,,,,,,,,,,,,,,,,,,,,,,,,,,,,,,,,,,,,,,,,,,,,
,,,,,74,2020-07-04_18h30.33.343,retriever_ti,2020.1.3,Win32,60,Chrome,1366,768,99.82408,4,left,0.87062,glasses,1,99.840845,99.840845,102.338985,0,3,3,3,1,7,1,1,html/resources/stimuli_practice_decision/05_glasses.jpg,html/resources/stimuli_practice_decision/08_handmixer.jpg,glasses,handmixer,,,,,,,,,,,,,,,,,,,,,,,,,,,,,,,,,,,,,,,,,,,,,,,,,,,,,,,,,,,,,,,,,,,,,,,,,,,,,
,,,,,74,2020-07-04_18h30.33.343,retriever_ti,2020.1.3,Win32,60,Chrome,1366,768,102.856605,5,right,1.067135,pullover,0,102.87428,102.87428,105.372545,0,4,4,4,1,7,6,1,html/resources/stimuli_practice_decision/05_glasses.jpg,html/resources/stimuli_practice_decision/06_pullover.jpg,glasses,pullover,,,,,,,,,,,,,,,,,,,,,,,,,,,,,,,,,,,,,,,,,,,,,,,,,,,,,,,,,,,,,,,,,,,,,,,,,,,,,
,,,,,74,2020-07-04_18h30.33.343,retriever_ti,2020.1.3,Win32,60,Chrome,1366,768,106.375015,6,right,0.48774,glasses,1,106.40864,106.40864,108.90484,0,5,5,5,1,4,7,1,html/resources/stimuli_practice_decision/01_rabbit.jpg,html/resources/stimuli_practice_decision/05_glasses.jpg,rabbit,glasses,,,,,,,,,,,,,,,,,,,,,,,,,,,,,,,,,,,,,,,,,,,,,,,,,,,,,,,,,,,,,,,,,,,,,,,,,,,,,
,,,,,74,2020-07-04_18h30.33.343,retriever_ti,2020.1.3,Win32,60,Chrome,1366,768,109.422235,7,right,0.890665,beetle,1,109.456805,109.456805,111.954735,0,6,6,6,1,1,2,1,html/resources/stimuli_practice_decision/08_handmixer.jpg,html/resources/stimuli_practice_decision/04_beetle.jpg,handmixer,beetle,,,,,,,,,,,,,,,,,,,,,,,,,,,,,,,,,,,,,,,,,,,,,,,,,,,,,,,,,,,,,,,,,,,,,,,,,,,,,
,,,,,74,2020-07-04_18h30.33.343,retriever_ti,2020.1.3,Win32,60,Chrome,1366,768,112.956285,8,left,1.02683,rabbit,1,112.973195,112.973195,115.47113,0,7,7,7,1,4,3,1,html/resources/stimuli_practice_decision/01_rabbit.jpg,html/resources/stimuli_practice_decision/07_sock.jpg,rabbit,sock,,,,,,,,,,,,,,,,,,,,,,,,,,,,,,,,,,,,,,,,,,,,,,,,,,,,,,,,,,,,,,,,,,,,,,,,,,,,,
,,,,,74,2020-07-04_18h30.33.343,retriever_ti,2020.1.3,Win32,60,Chrome,1366,768,,,,,,,,,,,,,,,,,,,,,,up,1,2.556475,1,0,0,0,0,1,html/resources/sequences_IDs/circle.png,circle ↑,square →,triangle ↓,← star ,up,,,,,,,,,,,,,,,,,,,,,,,,,,,,,,,,,,,,,,,,,,,,,,,,,,,,,,,,,,,,,,
,,,,,74,2020-07-04_18h30.33.343,retriever_ti,2020.1.3,Win32,60,Chrome,1366,768,,,,,,,,,,,,,,,,,,,,,,down,1,1.739325,1,0,1,1,1,1,html/resources/sequences_IDs/star.png,square ↑,circle →,star ↓,← triangle,down,,,,,,,,,,,,,,,,,,,,,,,,,,,,,,,,,,,,,,,,,,,,,,,,,,,,,,,,,,,,,,
,,,,,74,2020-07-04_18h30.33.343,retriever_ti,2020.1.3,Win32,60,Chrome,1366,768,,,,,,,,,,,,,,,,,,,,,,down,1,1.79375,1,0,2,2,3,1,html/resources/sequences_IDs/triangle.png,star ↑,square →,triangle ↓,← circle,down,,,,,,,,,,,,,,,,,,,,,,,,,,,,,,,,,,,,,,,,,,,,,,,,,,,,,,,,,,,,,,
,,,,,74,2020-07-04_18h30.33.343,retriever_ti,2020.1.3,Win32,60,Chrome,1366,768,,,,,,,,,,,,,,,,,,,,,,left,1,1.467895,1,0,3,3,2,1,html/resources/sequences_IDs/square1.png,star ↑,triangle →,circle ↓,← square,left,,,,,,,,,,,,,,,,,,,,,,,,,,,,,,,,,,,,,,,,,,,,,,,,,,,,,,,,,,,,,,
,,,,,74,2020-07-04_18h30.33.343,retriever_ti,2020.1.3,Win32,60,Chrome,1366,768,,,,,,,,,,,,,,,,,,,,,,,,,,,,,,,,,,,,,0,5.12144,0,0,0,0,1,,,,,,,,,,,,,,,,,,,,,,,,,,,,,,,,,,,,,,,,,,,,,,,,,,,,,,,
,,,,,74,2020-07-04_18h30.33.343,retriever_ti,2020.1.3,Win32,60,Chrome,1366,768,131.94551,9,right,0.9694,glasses,1,131.95593,131.95593,134.453095,0,0,0,0,1,6,7,1,html/resources/stimuli_practice_decision/06_pullover.jpg,html/resources/stimuli_practice_decision/05_glasses.jpg,pullover,glasses,,,,,,,,,,,,,,,,,,,,,,,,,,,,,,,,,,,,,,,,,,,,,,,,,,,,,,,,,,,,,,,,,,,,,,,,,,,,,
,,,,,74,2020-07-04_18h30.33.343,retriever_ti,2020.1.3,Win32,60,Chrome,1366,768,135.453915,10,right,0.59814,beetle,0,135.47192,135.47192,137.96939,0,1,1,1,1,6,2,1,html/resources/stimuli_practice_decision/06_pullover.jpg,html/resources/stimuli_practice_decision/04_beetle.jpg,pullover,beetle,,,,,,,,,,,,,,,,,,,,,,,,,,,,,,,,,,,,,,,,,,,,,,,,,,,,,,,,,,,,,,,,,,,,,,,,,,,,,
,,,,,74,2020-07-04_18h30.33.343,retriever_ti,2020.1.3,Win32,60,Chrome,1366,768,138.48783,11,left,0.800155,canary,0,138.504595,138.504595,141.002525,0,2,2,2,1,5,6,1,html/resources/stimuli_practice_decision/02_canary.jpg,html/resources/stimuli_practice_decision/06_pullover.jpg,canary,pullover,,,,,,,,,,,,,,,,,,,,,,,,,,,,,,,,,,,,,,,,,,,,,,,,,,,,,,,,,,,,,,,,,,,,,,,,,,,,,
,,,,,74,2020-07-04_18h30.33.343,retriever_ti,2020.1.3,Win32,60,Chrome,1366,768,142.003255,12,right,0.71034,glasses,0,142.021345,142.021345,144.519675,0,3,3,3,1,8,7,1,html/resources/stimuli_practice_decision/03_squirrel.jpg,html/resources/stimuli_practice_decision/05_glasses.jpg,squirrel,glasses,,,,,,,,,,,,,,,,,,,,,,,,,,,,,,,,,,,,,,,,,,,,,,,,,,,,,,,,,,,,,,,,,,,,,,,,,,,,,
,,,,,74,2020-07-04_18h30.33.343,retriever_ti,2020.1.3,Win32,60,Chrome,1366,768,145.521805,13,left,0.384765,canary,1,145.555405,145.555405,148.05196,0,4,4,4,1,5,3,1,html/resources/stimuli_practice_decision/02_canary.jpg,html/resources/stimuli_practice_decision/07_sock.jpg,canary,sock,,,,,,,,,,,,,,,,,,,,,,,,,,,,,,,,,,,,,,,,,,,,,,,,,,,,,,,,,,,,,,,,,,,,,,,,,,,,,
,,,,,74,2020-07-04_18h30.33.343,retriever_ti,2020.1.3,Win32,60,Chrome,1366,768,148.569295,14,right,1.110195,squirrel,1,148.60409,148.60409,151.101535,0,5,5,5,1,7,8,1,html/resources/stimuli_practice_decision/05_glasses.jpg,html/resources/stimuli_practice_decision/03_squirrel.jpg,glasses,squirrel,,,,,,,,,,,,,,,,,,,,,,,,,,,,,,,,,,,,,,,,,,,,,,,,,,,,,,,,,,,,,,,,,,,,,,,,,,,,,
,,,,,74,2020-07-04_18h30.33.343,retriever_ti,2020.1.3,Win32,60,Chrome,1366,768,152.103765,15,right,0.84442,rabbit,0,152.137265,152.137265,154.63471,0,6,6,6,1,5,4,1,html/resources/stimuli_practice_decision/02_canary.jpg,html/resources/stimuli_practice_decision/01_rabbit.jpg,canary,rabbit,,,,,,,,,,,,,,,,,,,,,,,,,,,,,,,,,,,,,,,,,,,,,,,,,,,,,,,,,,,,,,,,,,,,,,,,,,,,,
,,,,,74,2020-07-04_18h30.33.343,retriever_ti,2020.1.3,Win32,60,Chrome,1366,768,155.635625,16,left,0.69991,canary,1,155.653325,155.653325,158.15201,0,7,7,7,1,5,3,1,html/resources/stimuli_practice_decision/02_canary.jpg,html/resources/stimuli_practice_decision/07_sock.jpg,canary,sock,,,,,,,,,,,,,,,,,,,,,,,,,,,,,,,,,,,,,,,,,,,,,,,,,,,,,,,,,,,,,,,,,,,,,,,,,,,,,
,,,,,74,2020-07-04_18h30.33.343,retriever_ti,2020.1.3,Win32,60,Chrome,1366,768,,,,,,,,,,,,,,,,,,,,,,up,1,1.461495,1,0,0,0,0,1,html/resources/sequences_IDs/circle.png,circle ↑,square →,triangle ↓,← star ,up,,,,,,,,,,,,,,,,,,,,,,,,,,,,,,,,,,,,,,,,,,,,,,,,,,,,,,,,,,,,,,
,,,,,74,2020-07-04_18h30.33.343,retriever_ti,2020.1.3,Win32,60,Chrome,1366,768,,,,,,,,,,,,,,,,,,,,,,down,1,0.99156,1,0,1,1,3,1,html/resources/sequences_IDs/triangle.png,star ↑,square →,triangle ↓,← circle,down,,,,,,,,,,,,,,,,,,,,,,,,,,,,,,,,,,,,,,,,,,,,,,,,,,,,,,,,,,,,,,
,,,,,74,2020-07-04_18h30.33.343,retriever_ti,2020.1.3,Win32,60,Chrome,1366,768,,,,,,,,,,,,,,,,,,,,,,down,1,1.492615,1,0,2,2,1,1,html/resources/sequences_IDs/star.png,square ↑,circle →,star ↓,← triangle,down,,,,,,,,,,,,,,,,,,,,,,,,,,,,,,,,,,,,,,,,,,,,,,,,,,,,,,,,,,,,,,
,,,,,74,2020-07-04_18h30.33.343,retriever_ti,2020.1.3,Win32,60,Chrome,1366,768,,,,,,,,,,,,,,,,,,,,,,left,1,1.035175,1,0,3,3,2,1,html/resources/sequences_IDs/square1.png,star ↑,triangle →,circle ↓,← square,left,,,,,,,,,,,,,,,,,,,,,,,,,,,,,,,,,,,,,,,,,,,,,,,,,,,,,,,,,,,,,,
,,,,,74,2020-07-04_18h30.33.343,retriever_ti,2020.1.3,Win32,60,Chrome,1366,768,,,,,,,,,,,,,,,,,,,,,,,,,,,,,,,,,,,,,0,2.03278,1,0,1,0,1,,,,,,,,,,,,,,,,,,,,,,,,,,,,,,,,,,,,,,,,,,,,,,,,,,,,,,,
,,,,,74,2020-07-04_18h30.33.343,retriever_ti,2020.1.3,Win32,60,Chrome,1366,768,,,,,,,,,,,,,,,,,1,,,,,,,,,,,,,,,,,,,,,,,,,,,176.57721,1,right,0.88605,dress         ,1,7,-6,0,3,176.5843,176.5843,179.08449,0,0,0,0,1,1,7,1,wolf          ,dress         ,html/resources/sequences_IDs/A/01_wolf.jpg,html/resources/sequences_IDs/A/07_dress.jpg,1,7,1,1,3,2,1,6,0,74,,,,,,,,,,,,,,,,,,,,
,,,,,74,2020-07-04_18h30.33.343,retriever_ti,2020.1.3,Win32,60,Chrome,1366,768,,,,,,,,,,,,,,,,,1,,,,,,,,,,,,,,,,,,,,,,,,,,,179.70094,2,right,0.757965,giraffe     ,4,3,-1,0,0,179.717255,179.717255,182.216335,0,1,1,1,1,2,5,4,calculator    ,giraffe     ,html/resources/sequences_IDs/A/09_calculator.jpg,html/resources/sequences_IDs/B/03_giraffe.jpg,9,3,4,2,1,1,8,3,0,74,,,,,,,,,,,,,,,,,,,,
,,,,,74,2020-07-04_18h30.33.343,retriever_ti,2020.1.3,Win32,60,Chrome,1366,768,,,,,,,,,,,,,,,,,1,,,,,,,,,,,,,,,,,,,,,,,,,,,183.31811,3,left,1.07753,seaturtle     ,3,2,-1,0,0,183.351765,183.351765,185.849185,0,2,2,2,1,3,3,4,seaturtle     ,giraffe     ,html/resources/sequences_IDs/A/02_seaturtle.jpg,html/resources/sequences_IDs/B/03_giraffe.jpg,2,3,2,1,1,1,2,3,0,74,,,,,,,,,,,,,,,,,,,,
,,,,,74,2020-07-04_18h30.33.343,retriever_ti,2020.1.3,Win32,60,Chrome,1366,768,,,,,,,,,,,,,,,,,1,,,,,,,,,,,,,,,,,,,,,,,,,,,186.94987,4,right,0.928585,calculator    ,5,9,1,1,1,186.984685,186.984685,189.48248,0,3,3,3,1,4,4,5,giraffe     ,calculator    ,html/resources/sequences_IDs/B/03_giraffe.jpg,html/resources/sequences_IDs/A/09_calculator.jpg,3,9,1,1,4,2,3,8,0,74,,,,,,,,,,,,,,,,,,,,
,,,,,74,2020-07-04_18h30.33.343,retriever_ti,2020.1.3,Win32,60,Chrome,1366,768,,,,,,,,,,,,,,,,,1,,,,,,,,,,,,,,,,,,,,,,,,,,,190.58391,5,right,1.79857,calculator    ,5,9,1,1,1,190.600965,190.600965,193.099585,0,4,4,4,1,5,4,5,giraffe     ,calculator    ,html/resources/sequences_IDs/B/03_giraffe.jpg,html/resources/sequences_IDs/A/09_calculator.jpg,3,9,1,1,4,2,3,8,0,74,,,,,,,,,,,,,,,,,,,,
,,,,,74,2020-07-04_18h30.33.343,retriever_ti,2020.1.3,Win32,60,Chrome,1366,768,,,,,,,,,,,,,,,,,1,,,,,,,,,,,,,,,,,,,,,,,,,,,194.200435,6,right,1.270955,giraffe     ,4,3,1,1,1,194.218685,194.218685,196.7158,0,5,5,5,1,6,3,4,seaturtle     ,giraffe     ,html/resources/sequences_IDs/A/02_seaturtle.jpg,html/resources/sequences_IDs/B/03_giraffe.jpg,2,3,2,1,1,1,2,3,0,74,,,,,,,,,,,,,,,,,,,,
,,,,,74,2020-07-04_18h30.33.343,retriever_ti,2020.1.3,Win32,60,Chrome,1366,768,,,,,,,,,,,,,,,,,1,,,,,,,,,,,,,,,,,,,,,,,,,,,197.81687,7,left,1.130405,slipper     ,2,8,-5,0,3,197.850315,197.850315,200.34818,0,6,6,6,1,7,2,7,slipper     ,wolf          ,html/resources/sequences_IDs/B/08_slipper.jpg,html/resources/sequences_IDs/A/01_wolf.jpg,8,1,3,2,1,1,7,1,0,74,,,,,,,,,,,,,,,,,,,,
,,,,,74,2020-07-04_18h30.33.343,retriever_ti,2020.1.3,Win32,60,Chrome,1366,768,,,,,,,,,,,,,,,,,1,,,,,,,,,,,,,,,,,,,,,,,,,,,200.966085,8,left,0.873985,giraffe     ,4,3,-3,0,3,200.983355,200.983355,203.481155,0,7,7,7,1,8,4,7,giraffe     ,wolf          ,html/resources/sequences_IDs/B/03_giraffe.jpg,html/resources/sequences_IDs/A/01_wolf.jpg,3,1,1,1,1,1,3,1,0,74,,,,,,,,,,,,,,,,,,,,
,,,,,74,2020-07-04_18h30.33.343,retriever_ti,2020.1.3,Win32,60,Chrome,1366,768,,,,,,,,,,,,,,,,,1,,,,,,,,,,,,,,,,,,,,,,,,,,,204.099895,9,right,1.31408,seaturtle     ,3,2,1,1,1,204.116415,204.116415,206.614985,0,8,8,8,1,9,2,3,slipper     ,seaturtle     ,html/resources/sequences_IDs/B/08_slipper.jpg,html/resources/sequences_IDs/A/02_seaturtle.jpg,8,2,3,2,2,1,7,2,0,74,,,,,,,,,,,,,,,,,,,,
,,,,,74,2020-07-04_18h30.33.343,retriever_ti,2020.1.3,Win32,60,Chrome,1366,768,,,,,,,,,,,,,,,,,1,,,,,,,,,,,,,,,,,,,,,,,,,,,207.716205,10,left,1.168265,dress         ,1,7,-1,0,0,207.75116,207.75116,210.24735,0,9,9,9,1,10,1,2,dress         ,slipper     ,html/resources/sequences_IDs/A/07_dress.jpg,html/resources/sequences_IDs/B/08_slipper.jpg,7,8,3,2,3,2,6,7,0,74,,,,,,,,,,,,,,,,,,,,
,,,,,74,2020-07-04_18h30.33.343,retriever_ti,2020.1.3,Win32,60,Chrome,1366,768,,,,,,,,,,,,,,,,,1,,,,,,,,,,,,,,,,,,,,,,,,,,,211.349705,11,right,0.94664,parrot      ,6,5,-1,0,1,211.366305,211.366305,213.863735,0,10,10,10,1,11,7,6,wolf          ,parrot      ,html/resources/sequences_IDs/A/01_wolf.jpg,html/resources/sequences_IDs/B/05_parrot.jpg,1,5,1,1,2,1,1,4,1,74,,,,,,,,,,,,,,,,,,,,
,,,,,74,2020-07-04_18h30.33.343,retriever_ti,2020.1.3,Win32,60,Chrome,1366,768,,,,,,,,,,,,,,,,,1,,,,,,,,,,,,,,,,,,,,,,,,,,,214.96444,12,right,0.58691,slipper     ,2,8,-5,0,3,214.98249,214.98249,217.480905,0,11,11,11,1,12,7,2,wolf          ,slipper     ,html/resources/sequences_IDs/A/01_wolf.jpg,html/resources/sequences_IDs/B/08_slipper.jpg,1,8,1,1,3,2,1,7,0,74,,,,,,,,,,,,,,,,,,,,
,,,,,74,2020-07-04_18h30.33.343,retriever_ti,2020.1.3,Win32,60,Chrome,1366,768,,,,,,,,,,,,,,,,,1,,,,,,,,,,,,,,,,,,,,,,,,,,,218.099785,13,right,1.90337,gloves      ,8,6,5,1,3,218.13336,218.13336,220.62982,0,12,12,12,1,13,3,8,seaturtle     ,gloves      ,html/resources/sequences_IDs/A/02_seaturtle.jpg,html/resources/sequences_IDs/B/06_gloves.jpg,2,6,2,1,3,2,2,5,0,74,,,,,,,,,,,,,,,,,,,,
,,,,,74,2020-07-04_18h30.33.343,retriever_ti,2020.1.3,Win32,60,Chrome,1366,768,,,,,,,,,,,,,,,,,1,,,,,,,,,,,,,,,,,,,,,,,,,,,221.247345,14,left,1.295265,dress         ,1,7,-6,0,3,221.28177,221.28177,223.78039,0,13,13,13,1,14,1,7,dress         ,wolf          ,html/resources/sequences_IDs/A/07_dress.jpg,html/resources/sequences_IDs/A/01_wolf.jpg,7,1,3,2,1,1,6,1,0,74,,,,,,,,,,,,,,,,,,,,
,,,,,74,2020-07-04_18h30.33.343,retriever_ti,2020.1.3,Win32,60,Chrome,1366,768,,,,,,,,,,,,,,,,,1,,,,,,,,,,,,,,,,,,,,,,,,,,,224.39803,15,left,0.62284,parrot      ,6,5,-1,0,0,224.43161,224.43161,226.928975,0,14,14,14,1,15,6,7,parrot      ,wolf          ,html/resources/sequences_IDs/B/05_parrot.jpg,html/resources/sequences_IDs/A/01_wolf.jpg,5,1,2,1,1,1,4,1,0,74,,,,,,,,,,,,,,,,,,,,
,,,,,74,2020-07-04_18h30.33.343,retriever_ti,2020.1.3,Win32,60,Chrome,1366,768,,,,,,,,,,,,,,,,,1,,,,,,,,,,,,,,,,,,,,,,,,,,,228.02961,16,left,0.492745,wolf          ,7,1,1,1,1,228.063865,228.063865,230.562365,0,15,15,15,1,16,7,6,wolf          ,parrot      ,html/resources/sequences_IDs/A/01_wolf.jpg,html/resources/sequences_IDs/B/05_parrot.jpg,1,5,1,1,2,1,1,4,0,74,,,,,,,,,,,,,,,,,,,,
,,,,,74,2020-07-04_18h30.33.343,retriever_ti,2020.1.3,Win32,60,Chrome,1366,768,,,,,,,,,,,,,,,,,1,,,,,,,,,,,,,,,,,,,,,,,,,,,231.664345,17,right,1.108585,seaturtle     ,3,2,1,1,1,231.69755,231.69755,234.196145,0,16,16,16,1,17,2,3,slipper     ,seaturtle     ,html/resources/sequences_IDs/B/08_slipper.jpg,html/resources/sequences_IDs/A/02_seaturtle.jpg,8,2,3,2,2,1,7,2,0,74,,,,,,,,,,,,,,,,,,,,
,,,,,74,2020-07-04_18h30.33.343,retriever_ti,2020.1.3,Win32,60,Chrome,1366,768,,,,,,,,,,,,,,,,,1,,,,,,,,,,,,,,,,,,,,,,,,,,,235.29694,18,right,0.795835,calculator    ,5,9,3,1,3,235.31517,235.31517,237.811975,0,17,17,17,1,18,2,5,slipper     ,calculator    ,html/resources/sequences_IDs/B/08_slipper.jpg,html/resources/sequences_IDs/A/09_calculator.jpg,8,9,3,2,4,2,7,8,0,74,,,,,,,,,,,,,,,,,,,,
,,,,,74,2020-07-04_18h30.33.343,retriever_ti,2020.1.3,Win32,60,Chrome,1366,768,,,,,,,,,,,,,,,,,1,,,,,,,,,,,,,,,,,,,,,,,,,,,238.43094,19,left,1.547125,giraffe     ,4,3,-2,0,3,238.447885,238.447885,240.945255,0,18,18,18,1,19,4,6,giraffe     ,parrot      ,html/resources/sequences_IDs/B/03_giraffe.jpg,html/resources/sequences_IDs/B/05_parrot.jpg,3,5,1,1,2,1,3,4,0,74,,,,,,,,,,,,,,,,,,,,
,,,,,74,2020-07-04_18h30.33.343,retriever_ti,2020.1.3,Win32,60,Chrome,1366,768,,,,,,,,,,,,,,,,,1,,,,,,,,,,,,,,,,,,,,,,,,,,,241.562385,20,right,0.94725,gloves      ,8,6,6,1,3,241.597185,241.597185,244.094805,0,19,19,19,1,20,2,8,slipper     ,gloves      ,html/resources/sequences_IDs/B/08_slipper.jpg,html/resources/sequences_IDs/B/06_gloves.jpg,8,6,3,2,3,2,7,5,0,74,,,,,,,,,,,,,,,,,,,,
,,,,,74,2020-07-04_18h30.33.343,retriever_ti,2020.1.3,Win32,60,Chrome,1366,768,,,,,,,,,,,,,,,,,1,,,,,,,,,,,,,,,,,,,,,,,,,,,244.7134,21,right,1.018525,dress         ,1,7,-1,0,0,244.73083,244.73083,247.22793,0,20,20,20,1,21,2,1,slipper     ,dress         ,html/resources/sequences_IDs/B/08_slipper.jpg,html/resources/sequences_IDs/A/07_dress.jpg,8,7,3,2,3,2,7,6,0,74,,,,,,,,,,,,,,,,,,,,
,,,,,74,2020-07-04_18h30.33.343,retriever_ti,2020.1.3,Win32,60,Chrome,1366,768,,,,,,,,,,,,,,,,,1,,,,,,,,,,,,,,,,,,,,,,,,,,,248.328965,22,left,0.907165,calculator    ,5,9,-1,0,0,248.34706,248.34706,250.84382,0,21,21,21,1,22,5,6,calculator    ,parrot      ,html/resources/sequences_IDs/A/09_calculator.jpg,html/resources/sequences_IDs/B/05_parrot.jpg,9,5,4,2,2,1,8,4,0,74,,,,,,,,,,,,,,,,,,,,
,,,,,74,2020-07-04_18h30.33.343,retriever_ti,2020.1.3,Win32,60,Chrome,1366,768,,,,,,,,,,,,,,,,,1,,,,,,,,,,,,,,,,,,,,,,,,,,,251.946485,23,left,0.53647,parrot      ,6,5,1,1,0,251.980165,251.980165,254.477255,0,22,22,22,1,23,6,5,parrot      ,calculator    ,html/resources/sequences_IDs/B/05_parrot.jpg,html/resources/sequences_IDs/A/09_calculator.jpg,5,9,2,1,4,2,4,8,1,74,,,,,,,,,,,,,,,,,,,,
,,,,,74,2020-07-04_18h30.33.343,retriever_ti,2020.1.3,Win32,60,Chrome,1366,768,,,,,,,,,,,,,,,,,1,,,,,,,,,,,,,,,,,,,,,,,,,,,255.57816,24,right,0.492405,parrot      ,6,5,5,1,3,255.596095,255.596095,258.09362,0,23,23,23,1,24,1,6,dress         ,parrot      ,html/resources/sequences_IDs/A/07_dress.jpg,html/resources/sequences_IDs/B/05_parrot.jpg,7,5,3,2,2,1,6,4,0,74,,,,,,,,,,,,,,,,,,,,
,,,,,74,2020-07-04_18h30.33.343,retriever_ti,2020.1.3,Win32,60,Chrome,1366,768,,,,,,,,,,,,,,,,,1,,,,,,,,,,,,,,,,,,,,,,,,,,,258.712285,25,left,0.6541,giraffe     ,4,3,-4,0,3,258.74553,258.74553,261.243425,0,24,24,24,1,25,4,8,giraffe     ,gloves      ,html/resources/sequences_IDs/B/03_giraffe.jpg,html/resources/sequences_IDs/B/06_gloves.jpg,3,6,1,1,3,2,3,5,0,74,,,,,,,,,,,,,,,,,,,,
,,,,,74,2020-07-04_18h30.33.343,retriever_ti,2020.1.3,Win32,60,Chrome,1366,768,,,,,,,,,,,,,,,,,1,,,,,,,,,,,,,,,,,,,,,,,,,,,261.860975,26,left,1.228345,parrot      ,6,5,1,1,1,261.895425,261.895425,264.39328,0,25,25,25,1,26,6,5,parrot      ,calculator    ,html/resources/sequences_IDs/B/05_parrot.jpg,html/resources/sequences_IDs/A/09_calculator.jpg,5,9,2,1,4,2,4,8,0,74,,,,,,,,,,,,,,,,,,,,
,,,,,74,2020-07-04_18h30.33.343,retriever_ti,2020.1.3,Win32,60,Chrome,1366,768,,,,,,,,,,,,,,,,,1,,,,,,,,,,,,,,,,,,,,,,,,,,,265.49533,27,right,1.54967,slipper     ,2,8,-6,0,3,265.51237,265.51237,268.009685,0,26,26,26,1,27,8,2,gloves      ,slipper     ,html/resources/sequences_IDs/B/06_gloves.jpg,html/resources/sequences_IDs/B/08_slipper.jpg,6,8,3,2,3,2,5,7,0,74,,,,,,,,,,,,,,,,,,,,
,,,,,74,2020-07-04_18h30.33.343,retriever_ti,2020.1.3,Win32,60,Chrome,1366,768,,,,,,,,,,,,,,,,,1,,,,,,,,,,,,,,,,,,,,,,,,,,,268.627005,28,right,0.89226,gloves      ,8,6,7,1,3,268.644795,268.644795,271.14253,0,27,27,27,1,28,1,8,dress         ,gloves      ,html/resources/sequences_IDs/A/07_dress.jpg,html/resources/sequences_IDs/B/06_gloves.jpg,7,6,3,2,3,2,6,5,0,74,,,,,,,,,,,,,,,,,,,,
,,,,,74,2020-07-04_18h30.33.343,retriever_ti,2020.1.3,Win32,60,Chrome,1366,768,,,,,,,,,,,,,,,,,1,,,,,,,,,,,,,,,,,,,,,,,,,,,271.76131,29,right,0.473255,parrot      ,6,5,3,1,3,271.77792,271.77792,274.27583,0,28,28,28,1,29,3,6,seaturtle     ,parrot      ,html/resources/sequences_IDs/A/02_seaturtle.jpg,html/resources/sequences_IDs/B/05_parrot.jpg,2,5,2,1,2,1,2,4,0,74,,,,,,,,,,,,,,,,,,,,
,,,,,74,2020-07-04_18h30.33.343,retriever_ti,2020.1.3,Win32,60,Chrome,1366,768,,,,,,,,,,,,,,,,,1,,,,,,,,,,,,,,,,,,,,,,,,,,,274.893085,30,left,0.812615,calculator    ,5,9,-3,0,3,274.927745,274.927745,277.42559,0,29,29,29,1,30,5,8,calculator    ,gloves      ,html/resources/sequences_IDs/A/09_calculator.jpg,html/resources/sequences_IDs/B/06_gloves.jpg,9,6,4,2,3,2,8,5,0,74,,,,,,,,,,,,,,,,,,,,
,,,,,74,2020-07-04_18h30.33.343,retriever_ti,2020.1.3,Win32,60,Chrome,1366,768,,,,,,,,,,,,,,,,,1,,,,,,,,,,,,,,,,,,,,,,,,,,,278.044155,31,left,0.89014,calculator    ,5,9,3,1,3,278.07776,278.07776,280.57529,0,30,30,30,1,31,5,2,calculator    ,slipper     ,html/resources/sequences_IDs/A/09_calculator.jpg,html/resources/sequences_IDs/B/08_slipper.jpg,9,8,4,2,3,2,8,7,0,74,,,,,,,,,,,,,,,,,,,,
,,,,,74,2020-07-04_18h30.33.343,retriever_ti,2020.1.3,Win32,60,Chrome,1366,768,,,,,,,,,,,,,,,,,1,,,,,,,,,,,,,,,,,,,,,,,,,,,281.19268,32,right,0.658175,calculator    ,5,9,4,1,3,281.227225,281.227225,283.72501,0,31,31,31,1,32,1,5,dress         ,calculator    ,html/resources/sequences_IDs/A/07_dress.jpg,html/resources/sequences_IDs/A/09_calculator.jpg,7,9,3,2,4,2,6,8,0,74,,,,,,,,,,,,,,,,,,,,
,,,,,74,2020-07-04_18h30.33.343,retriever_ti,2020.1.3,Win32,60,Chrome,1366,768,,,,,,,,,,,,,,,,,1,,,,,,,,,,,,,,,,,,,,,,,,,,,284.34369,33,right,0.553455,parrot      ,6,5,-1,0,0,284.376965,284.376965,286.874845,0,32,32,32,1,33,7,6,wolf          ,parrot      ,html/resources/sequences_IDs/A/01_wolf.jpg,html/resources/sequences_IDs/B/05_parrot.jpg,1,5,1,1,2,1,1,4,0,74,,,,,,,,,,,,,,,,,,,,
,,,,,74,2020-07-04_18h30.33.343,retriever_ti,2020.1.3,Win32,60,Chrome,1366,768,,,,,,,,,,,,,,,,,1,,,,,,,,,,,,,,,,,,,,,,,,,,,287.975925,34,right,0.623275,giraffe     ,4,3,-1,0,0,288.01084,288.01084,290.507805,0,33,33,33,1,34,5,4,calculator    ,giraffe     ,html/resources/sequences_IDs/A/09_calculator.jpg,html/resources/sequences_IDs/B/03_giraffe.jpg,9,3,4,2,1,1,8,3,0,74,,,,,,,,,,,,,,,,,,,,
,,,,,74,2020-07-04_18h30.33.343,retriever_ti,2020.1.3,Win32,60,Chrome,1366,768,,,,,,,,,,,,,,,,,1,,,,,,,,,,,,,,,,,,,,,,,,,,,291.609705,35,left,0.8325,parrot      ,6,5,5,1,3,291.62634,291.62634,294.124325,0,34,34,34,1,35,6,1,parrot      ,dress         ,html/resources/sequences_IDs/B/05_parrot.jpg,html/resources/sequences_IDs/A/07_dress.jpg,5,7,2,1,3,2,4,6,0,74,,,,,,,,,,,,,,,,,,,,
,,,,,74,2020-07-04_18h30.33.343,retriever_ti,2020.1.3,Win32,60,Chrome,1366,768,,,,,,,,,,,,,,,,,1,,,,,,,,,,,,,,,,,,,,,,,,,,,294.74175,36,left,0.746715,wolf          ,7,1,-1,0,0,294.7598,294.7598,297.25741,0,35,35,35,1,36,7,8,wolf          ,gloves      ,html/resources/sequences_IDs/A/01_wolf.jpg,html/resources/sequences_IDs/B/06_gloves.jpg,1,6,1,1,3,2,1,5,0,74,,,,,,,,,,,,,,,,,,,,
,,,,,74,2020-07-04_18h30.33.343,retriever_ti,2020.1.3,Win32,60,Chrome,1366,768,,,,,,,,,,,,,,,,,1,,,,,,,,,,,,,,,,,,,,,,,,,,,298.35957,37,left,0.504415,gloves      ,8,6,1,1,1,298.376365,298.376365,300.873675,0,36,36,36,1,37,8,7,gloves      ,wolf          ,html/resources/sequences_IDs/B/06_gloves.jpg,html/resources/sequences_IDs/A/01_wolf.jpg,6,1,3,2,1,1,5,1,0,74,,,,,,,,,,,,,,,,,,,,
,,,,,74,2020-07-04_18h30.33.343,retriever_ti,2020.1.3,Win32,60,Chrome,1366,768,,,,,,,,,,,,,,,,,1,,,,,,,,,,,,,,,,,,,,,,,,,,,301.975295,38,left,0.5156,gloves      ,8,6,5,1,3,302.009955,302.009955,304.506695,0,37,37,37,1,38,8,3,gloves      ,seaturtle     ,html/resources/sequences_IDs/B/06_gloves.jpg,html/resources/sequences_IDs/A/02_seaturtle.jpg,6,2,3,2,2,1,5,2,0,74,,,,,,,,,,,,,,,,,,,,
,,,,,74,2020-07-04_18h30.33.343,retriever_ti,2020.1.3,Win32,60,Chrome,1366,768,,,,,,,,,,,,,,,,,1,,,,,,,,,,,,,,,,,,,,,,,,,,,305.125275,39,right,0.62495,seaturtle     ,3,2,-3,0,3,305.14204,305.14204,307.639915,0,38,38,38,1,39,6,3,parrot      ,seaturtle     ,html/resources/sequences_IDs/B/05_parrot.jpg,html/resources/sequences_IDs/A/02_seaturtle.jpg,5,2,2,1,2,1,4,2,0,74,,,,,,,,,,,,,,,,,,,,
,,,,,74,2020-07-04_18h30.33.343,retriever_ti,2020.1.3,Win32,60,Chrome,1366,768,,,,,,,,,,,,,,,,,1,,,,,,,,,,,,,,,,,,,,,,,,,,,308.25756,40,left,1.114655,giraffe     ,4,3,1,1,1,308.291975,308.291975,310.79032,0,39,39,39,1,40,4,3,giraffe     ,seaturtle     ,html/resources/sequences_IDs/B/03_giraffe.jpg,html/resources/sequences_IDs/A/02_seaturtle.jpg,3,2,1,1,2,1,3,2,0,74,,,,,,,,,,,,,,,,,,,,
,,,,,74,2020-07-04_18h30.33.343,retriever_ti,2020.1.3,Win32,60,Chrome,1366,768,,,,,,,,,,,,,,,,,1,,,,,,,,,,,,,,,,,,,,,,,,,,,311.892645,41,right,0.756735,seaturtle     ,3,2,2,1,3,311.909495,311.909495,314.406045,0,40,40,40,1,41,1,3,dress         ,seaturtle     ,html/resources/sequences_IDs/A/07_dress.jpg,html/resources/sequences_IDs/A/02_seaturtle.jpg,7,2,3,2,2,1,6,2,0,74,,,,,,,,,,,,,,,,,,,,
,,,,,74,2020-07-04_18h30.33.343,retriever_ti,2020.1.3,Win32,60,Chrome,1366,768,,,,,,,,,,,,,,,,,1,,,,,,,,,,,,,,,,,,,,,,,,,,,315.02337,42,right,1.60869,gloves      ,8,6,2,1,3,315.05831,315.05831,317.555885,0,41,41,41,1,42,6,8,parrot      ,gloves      ,html/resources/sequences_IDs/B/05_parrot.jpg,html/resources/sequences_IDs/B/06_gloves.jpg,5,6,2,1,3,2,4,5,0,74,,,,,,,,,,,,,,,,,,,,
,,,,,74,2020-07-04_18h30.33.343,retriever_ti,2020.1.3,Win32,60,Chrome,1366,768,,,,,,,,,,,,,,,,,1,,,,,,,,,,,,,,,,,,,,,,,,,,,318.174945,43,left,0.655135,gloves      ,8,6,1,1,1,318.20823,318.20823,320.70583,0,42,42,42,1,43,8,7,gloves      ,wolf          ,html/resources/sequences_IDs/B/06_gloves.jpg,html/resources/sequences_IDs/A/01_wolf.jpg,6,1,3,2,1,1,5,1,0,74,,,,,,,,,,,,,,,,,,,,
,,,,,74,2020-07-04_18h30.33.343,retriever_ti,2020.1.3,Win32,60,Chrome,1366,768,,,,,,,,,,,,,,,,,1,,,,,,,,,,,,,,,,,,,,,,,,,,,321.806525,44,right,0.58431,giraffe     ,4,3,2,1,3,321.84092,321.84092,324.33866,0,43,43,43,1,44,2,4,slipper     ,giraffe     ,html/resources/sequences_IDs/B/08_slipper.jpg,html/resources/sequences_IDs/B/03_giraffe.jpg,8,3,3,2,1,1,7,3,0,74,,,,,,,,,,,,,,,,,,,,
,,,,,74,2020-07-04_18h30.33.343,retriever_ti,2020.1.3,Win32,60,Chrome,1366,768,,,,,,,,,,,,,,,,,1,,,,,,,,,,,,,,,,,,,,,,,,,,,324.95712,45,right,0.713645,giraffe     ,4,3,3,1,3,324.99058,324.99058,327.488525,0,44,44,44,1,45,1,4,dress         ,giraffe     ,html/resources/sequences_IDs/A/07_dress.jpg,html/resources/sequences_IDs/B/03_giraffe.jpg,7,3,3,2,1,1,6,3,0,74,,,,,,,,,,,,,,,,,,,,
,,,,,74,2020-07-04_18h30.33.343,retriever_ti,2020.1.3,Win32,60,Chrome,1366,768,,,,,,,,,,,,,,,,,1,,,,,,,,,,,,,,,,,,,,,,,,,,,328.105895,46,left,0.89116,seaturtle     ,3,2,1,1,1,328.140595,328.140595,330.638105,0,45,45,45,1,46,3,2,seaturtle     ,slipper     ,html/resources/sequences_IDs/A/02_seaturtle.jpg,html/resources/sequences_IDs/B/08_slipper.jpg,2,8,2,1,3,2,2,7,0,74,,,,,,,,,,,,,,,,,,,,
,,,,,74,2020-07-04_18h30.33.343,retriever_ti,2020.1.3,Win32,60,Chrome,1366,768,,,,,,,,,,,,,,,,,1,,,,,,,,,,,,,,,,,,,,,,,,,,,331.73895,47,left,0.557495,giraffe     ,4,3,3,1,3,331.7732,331.7732,334.271135,0,46,46,46,1,47,4,1,giraffe     ,dress         ,html/resources/sequences_IDs/B/03_giraffe.jpg,html/resources/sequences_IDs/A/07_dress.jpg,3,7,1,1,3,2,3,6,0,74,,,,,,,,,,,,,,,,,,,,
,,,,,74,2020-07-04_18h30.33.343,retriever_ti,2020.1.3,Win32,60,Chrome,1366,768,,,,,,,,,,,,,,,,,1,,,,,,,,,,,,,,,,,,,,,,,,,,,334.88855,48,right,0.820355,wolf          ,7,1,1,1,1,334.923095,334.923095,337.42098,0,47,47,47,1,48,6,7,parrot      ,wolf          ,html/resources/sequences_IDs/B/05_parrot.jpg,html/resources/sequences_IDs/A/01_wolf.jpg,5,1,2,1,1,1,4,1,0,74,,,,,,,,,,,,,,,,,,,,
,,,,,74,2020-07-04_18h30.33.343,retriever_ti,2020.1.3,Win32,60,Chrome,1366,768,,,,,,,,,,,,,,,,,1,,,,,,,,,,,,,,,,,,,,,,,,,,,338.522705,49,right,0.499075,giraffe     ,4,3,-4,0,3,338.556165,338.556165,341.054165,0,48,48,48,1,49,8,4,gloves      ,giraffe     ,html/resources/sequences_IDs/B/06_gloves.jpg,html/resources/sequences_IDs/B/03_giraffe.jpg,6,3,3,2,1,1,5,3,0,74,,,,,,,,,,,,,,,,,,,,
,,,,,74,2020-07-04_18h30.33.343,retriever_ti,2020.1.3,Win32,60,Chrome,1366,768,,,,,,,,,,,,,,,,,1,,,,,,,,,,,,,,,,,,,,,,,,,,,341.704325,50,left,0.63422,gloves      ,8,6,7,1,3,341.72193,341.72193,344.220585,0,49,49,49,1,50,8,1,gloves      ,dress         ,html/resources/sequences_IDs/B/06_gloves.jpg,html/resources/sequences_IDs/A/07_dress.jpg,6,7,3,2,3,2,5,6,0,74,,,,,,,,,,,,,,,,,,,,
,,,,,74,2020-07-04_18h30.33.343,retriever_ti,2020.1.3,Win32,60,Chrome,1366,768,,,,,,,,,,,,,,,,,1,,,,,,,,,,,,,,,,,,,,,,,,,,,344.83932,51,left,0.679215,seaturtle     ,3,2,1,1,1,344.872565,344.872565,347.370345,0,50,50,50,1,51,3,2,seaturtle     ,slipper     ,html/resources/sequences_IDs/A/02_seaturtle.jpg,html/resources/sequences_IDs/B/08_slipper.jpg,2,8,2,1,3,2,2,7,0,74,,,,,,,,,,,,,,,,,,,,
,,,,,74,2020-07-04_18h30.33.343,retriever_ti,2020.1.3,Win32,60,Chrome,1366,768,,,,,,,,,,,,,,,,,1,,,,,,,,,,,,,,,,,,,,,,,,,,,348.47113,52,left,0.39386,seaturtle     ,3,2,-1,0,1,348.505775,348.505775,351.0041,0,51,51,51,1,52,3,4,seaturtle     ,giraffe     ,html/resources/sequences_IDs/A/02_seaturtle.jpg,html/resources/sequences_IDs/B/03_giraffe.jpg,2,3,2,1,1,1,2,3,1,74,,,,,,,,,,,,,,,,,,,,
,,,,,74,2020-07-04_18h30.33.343,retriever_ti,2020.1.3,Win32,60,Chrome,1366,768,,,,,,,,,,,,,,,,,1,,,,,,,,,,,,,,,,,,,,,,,,,,,352.106505,53,right,0.47667,parrot      ,6,5,-2,0,3,352.123775,352.123775,354.6204,0,52,52,52,1,53,8,6,gloves      ,parrot      ,html/resources/sequences_IDs/B/06_gloves.jpg,html/resources/sequences_IDs/B/05_parrot.jpg,6,5,3,2,2,1,5,4,0,74,,,,,,,,,,,,,,,,,,,,
,,,,,74,2020-07-04_18h30.33.343,retriever_ti,2020.1.3,Win32,60,Chrome,1366,768,,,,,,,,,,,,,,,,,1,,,,,,,,,,,,,,,,,,,,,,,,,,,355.238205,54,left,0.691125,calculator    ,5,9,4,1,3,355.273065,355.273065,357.769545,0,53,53,53,1,54,5,1,calculator    ,dress         ,html/resources/sequences_IDs/A/09_calculator.jpg,html/resources/sequences_IDs/A/07_dress.jpg,9,7,4,2,3,2,8,6,0,74,,,,,,,,,,,,,,,,,,,,
,,,,,74,2020-07-04_18h30.33.343,retriever_ti,2020.1.3,Win32,60,Chrome,1366,768,,,,,,,,,,,,,,,,,1,,,,,,,,,,,,,,,,,,,,,,,,,,,358.38785,55,left,0.515465,parrot      ,6,5,4,1,3,358.40466,358.40466,360.90265,0,54,54,54,1,55,6,2,parrot      ,slipper     ,html/resources/sequences_IDs/B/05_parrot.jpg,html/resources/sequences_IDs/B/08_slipper.jpg,5,8,2,1,3,2,4,7,0,74,,,,,,,,,,,,,,,,,,,,
,,,,,74,2020-07-04_18h30.33.343,retriever_ti,2020.1.3,Win32,60,Chrome,1366,768,,,,,,,,,,,,,,,,,1,,,,,,,,,,,,,,,,,,,,,,,,,,,361.520305,56,right,0.61216,seaturtle     ,3,2,-4,0,3,361.538125,361.538125,364.036415,0,55,55,55,1,56,7,3,wolf          ,seaturtle     ,html/resources/sequences_IDs/A/01_wolf.jpg,html/resources/sequences_IDs/A/02_seaturtle.jpg,1,2,1,1,2,1,1,2,0,74,,,,,,,,,,,,,,,,,,,,
,,,,,74,2020-07-04_18h30.33.343,retriever_ti,2020.1.3,Win32,60,Chrome,1366,768,,,,,,,,,,,,,,,,,1,,,,,,,,,,,,,,,,,,,,,,,,,,,364.655275,57,left,1.177875,seaturtle     ,3,2,-4,0,3,364.688925,364.688925,367.18638,0,56,56,56,1,57,3,7,seaturtle     ,wolf          ,html/resources/sequences_IDs/A/02_seaturtle.jpg,html/resources/sequences_IDs/A/01_wolf.jpg,2,1,2,1,1,1,2,1,0,74,,,,,,,,,,,,,,,,,,,,
,,,,,74,2020-07-04_18h30.33.343,retriever_ti,2020.1.3,Win32,60,Chrome,1366,768,,,,,,,,,,,,,,,,,1,,,,,,,,,,,,,,,,,,,,,,,,,,,367.80375,58,left,0.416845,wolf          ,7,1,2,1,3,367.83858,367.83858,370.33526,0,57,57,57,1,58,7,5,wolf          ,calculator    ,html/resources/sequences_IDs/A/01_wolf.jpg,html/resources/sequences_IDs/A/09_calculator.jpg,1,9,1,1,4,2,1,8,0,74,,,,,,,,,,,,,,,,,,,,
,,,,,74,2020-07-04_18h30.33.343,retriever_ti,2020.1.3,Win32,60,Chrome,1366,768,,,,,,,,,,,,,,,,,1,,,,,,,,,,,,,,,,,,,,,,,,,,,370.95403,59,right,0.829435,calculator    ,5,9,-3,0,3,370.987445,370.987445,373.485665,0,58,58,58,1,59,8,5,gloves      ,calculator    ,html/resources/sequences_IDs/B/06_gloves.jpg,html/resources/sequences_IDs/A/09_calculator.jpg,6,9,3,2,4,2,5,8,0,74,,,,,,,,,,,,,,,,,,,,
,,,,,74,2020-07-04_18h30.33.343,retriever_ti,2020.1.3,Win32,60,Chrome,1366,768,,,,,,,,,,,,,,,,,1,,,,,,,,,,,,,,,,,,,,,,,,,,,374.103475,60,right,0.60249,giraffe     ,4,3,-2,0,3,374.13778,374.13778,376.634715,0,59,59,59,1,60,6,4,parrot      ,giraffe     ,html/resources/sequences_IDs/B/05_parrot.jpg,html/resources/sequences_IDs/B/03_giraffe.jpg,5,3,2,1,1,1,4,3,0,74,,,,,,,,,,,,,,,,,,,,
,,,,,74,2020-07-04_18h30.33.343,retriever_ti,2020.1.3,Win32,60,Chrome,1366,768,,,,,,,,,,,,,,,,,1,,,,,,,,,,,,,,,,,,,,,,,,,,,377.253655,61,left,0.64871,seaturtle     ,3,2,-2,0,3,377.28706,377.28706,379.78479,0,60,60,60,1,61,3,5,seaturtle     ,calculator    ,html/resources/sequences_IDs/A/02_seaturtle.jpg,html/resources/sequences_IDs/A/09_calculator.jpg,2,9,2,1,4,2,2,8,0,74,,,,,,,,,,,,,,,,,,,,
,,,,,74,2020-07-04_18h30.33.343,retriever_ti,2020.1.3,Win32,60,Chrome,1366,768,,,,,,,,,,,,,,,,,1,,,,,,,,,,,,,,,,,,,,,,,,,,,380.402105,62,right,0.532445,wolf          ,7,1,2,1,3,380.419785,380.419785,382.91753,0,61,61,61,1,62,5,7,calculator    ,wolf          ,html/resources/sequences_IDs/A/09_calculator.jpg,html/resources/sequences_IDs/A/01_wolf.jpg,9,1,4,2,1,1,8,1,0,74,,,,,,,,,,,,,,,,,,,,
,,,,,74,2020-07-04_18h30.33.343,retriever_ti,2020.1.3,Win32,60,Chrome,1366,768,,,,,,,,,,,,,,,,,1,,,,,,,,,,,,,,,,,,,,,,,,,,,383.535995,63,right,0.8038,parrot      ,6,5,1,1,1,383.56944,383.56944,386.067455,0,62,62,62,1,63,5,6,calculator    ,parrot      ,html/resources/sequences_IDs/A/09_calculator.jpg,html/resources/sequences_IDs/B/05_parrot.jpg,9,5,4,2,2,1,8,4,0,74,,,,,,,,,,,,,,,,,,,,
,,,,,74,2020-07-04_18h30.33.343,retriever_ti,2020.1.3,Win32,60,Chrome,1366,768,,,,,,,,,,,,,,,,,1,,,,,,,,,,,,,,,,,,,,,,,,,,,387.16811,64,left,0.75865,giraffe     ,4,3,-1,0,1,387.18617,387.18617,389.68389,0,63,63,63,1,64,4,5,giraffe     ,calculator    ,html/resources/sequences_IDs/B/03_giraffe.jpg,html/resources/sequences_IDs/A/09_calculator.jpg,3,9,1,1,4,2,3,8,1,74,,,,,,,,,,,,,,,,,,,,
,,,,,74,2020-07-04_18h30.33.343,retriever_ti,2020.1.3,Win32,60,Chrome,1366,768,,,,,,,,,,,,,,,,,1,,,,,,,,,,,,,,,,,,,,,,,,,,,390.785965,65,left,0.699995,wolf          ,7,1,-1,0,1,390.80261,390.80261,393.3001,0,64,64,64,1,65,7,8,wolf          ,gloves      ,html/resources/sequences_IDs/A/01_wolf.jpg,html/resources/sequences_IDs/B/06_gloves.jpg,1,6,1,1,3,2,1,5,1,74,,,,,,,,,,,,,,,,,,,,
,,,,,74,2020-07-04_18h30.33.343,retriever_ti,2020.1.3,Win32,60,Chrome,1366,768,,,,,,,,,,,,,,,,,1,,,,,,,,,,,,,,,,,,,,,,,,,,,394.40105,66,right,0.74482,seaturtle     ,3,2,-2,0,3,394.418865,394.418865,396.91631,0,65,65,65,1,66,5,3,calculator    ,seaturtle     ,html/resources/sequences_IDs/A/09_calculator.jpg,html/resources/sequences_IDs/A/02_seaturtle.jpg,9,2,4,2,2,1,8,2,0,74,,,,,,,,,,,,,,,,,,,,
,,,,,74,2020-07-04_18h30.33.343,retriever_ti,2020.1.3,Win32,60,Chrome,1366,768,,,,,,,,,,,,,,,,,1,,,,,,,,,,,,,,,,,,,,,,,,,,,397.534445,67,right,0.72531,parrot      ,6,5,4,1,3,397.551435,397.551435,400.049515,0,66,66,66,1,67,2,6,slipper     ,parrot      ,html/resources/sequences_IDs/B/08_slipper.jpg,html/resources/sequences_IDs/B/05_parrot.jpg,8,5,3,2,2,1,7,4,0,74,,,,,,,,,,,,,,,,,,,,
,,,,,74,2020-07-04_18h30.33.343,retriever_ti,2020.1.3,Win32,60,Chrome,1366,768,,,,,,,,,,,,,,,,,1,,,,,,,,,,,,,,,,,,,,,,,,,,,400.66697,68,left,0.45283,wolf          ,7,1,-1,0,0,400.68479,400.68479,403.182685,0,67,67,67,1,68,7,8,wolf          ,gloves      ,html/resources/sequences_IDs/A/01_wolf.jpg,html/resources/sequences_IDs/B/06_gloves.jpg,1,6,1,1,3,2,1,5,0,74,,,,,,,,,,,,,,,,,,,,
,,,,,74,2020-07-04_18h30.33.343,retriever_ti,2020.1.3,Win32,60,Chrome,1366,768,,,,,,,,,,,,,,,,,1,,,,,,,,,,,,,,,,,,,,,,,,,,,404.28473,69,left,0.64972,dress         ,1,7,-1,0,0,404.301585,404.301585,406.79918,0,68,68,68,1,69,1,2,dress         ,slipper     ,html/resources/sequences_IDs/A/07_dress.jpg,html/resources/sequences_IDs/B/08_slipper.jpg,7,8,3,2,3,2,6,7,0,74,,,,,,,,,,,,,,,,,,,,
,,,,,74,2020-07-04_18h30.33.343,retriever_ti,2020.1.3,Win32,60,Chrome,1366,768,,,,,,,,,,,,,,,,,1,,,,,,,,,,,,,,,,,,,,,,,,,,,407.89997,70,right,0.400445,slipper     ,2,8,-2,0,3,407.917935,407.917935,410.41545,0,69,69,69,1,70,4,2,giraffe     ,slipper     ,html/resources/sequences_IDs/B/03_giraffe.jpg,html/resources/sequences_IDs/B/08_slipper.jpg,3,8,1,1,3,2,3,7,0,74,,,,,,,,,,,,,,,,,,,,
,,,,,74,2020-07-04_18h30.33.343,retriever_ti,2020.1.3,Win32,60,Chrome,1366,768,,,,,,,,,,,,,,,,,1,,,,,,,,,,,,,,,,,,,,,,,,,,,411.0343,71,left,0.514495,seaturtle     ,3,2,2,1,3,411.067695,411.067695,413.566185,0,70,70,70,1,71,3,1,seaturtle     ,dress         ,html/resources/sequences_IDs/A/02_seaturtle.jpg,html/resources/sequences_IDs/A/07_dress.jpg,2,7,2,1,3,2,2,6,0,74,,,,,,,,,,,,,,,,,,,,
,,,,,74,2020-07-04_18h30.33.343,retriever_ti,2020.1.3,Win32,60,Chrome,1366,768,,,,,,,,,,,,,,,,,1,,,,,,,,,,,,,,,,,,,,,,,,,,,414.183625,72,left,0.70987,wolf          ,7,1,3,1,3,414.21816,414.21816,416.715135,0,71,71,71,1,72,7,4,wolf          ,giraffe     ,html/resources/sequences_IDs/A/01_wolf.jpg,html/resources/sequences_IDs/B/03_giraffe.jpg,1,3,1,1,1,1,1,3,0,74,,,,,,,,,,,,,,,,,,,,
,,,,,74,2020-07-04_18h30.33.343,retriever_ti,2020.1.3,Win32,60,Chrome,1366,768,,,,,,,,,,,,,,,,,1,,,,,,,,,,,,,,,,,,,,,,,,,,,417.333815,73,right,0.74868,seaturtle     ,3,2,-1,0,0,417.350555,417.350555,419.8489,0,72,72,72,1,73,4,3,giraffe     ,seaturtle     ,html/resources/sequences_IDs/B/03_giraffe.jpg,html/resources/sequences_IDs/A/02_seaturtle.jpg,3,2,1,1,2,1,3,2,0,74,,,,,,,,,,,,,,,,,,,,
,,,,,74,2020-07-04_18h30.33.343,retriever_ti,2020.1.3,Win32,60,Chrome,1366,768,,,,,,,,,,,,,,,,,1,,,,,,,,,,,,,,,,,,,,,,,,,,,420.949855,74,right,0.521685,calculator    ,5,9,-1,0,0,420.967945,420.967945,423.46449,0,73,73,73,1,74,6,5,parrot      ,calculator    ,html/resources/sequences_IDs/B/05_parrot.jpg,html/resources/sequences_IDs/A/09_calculator.jpg,5,9,2,1,4,2,4,8,0,74,,,,,,,,,,,,,,,,,,,,
,,,,,74,2020-07-04_18h30.33.343,retriever_ti,2020.1.3,Win32,60,Chrome,1366,768,,,,,,,,,,,,,,,,,1,,,,,,,,,,,,,,,,,,,,,,,,,,,424.566735,75,left,0.486045,seaturtle     ,3,2,1,1,0,424.583075,424.583075,427.08102,0,74,74,74,1,75,3,2,seaturtle     ,slipper     ,html/resources/sequences_IDs/A/02_seaturtle.jpg,html/resources/sequences_IDs/B/08_slipper.jpg,2,8,2,1,3,2,2,7,1,74,,,,,,,,,,,,,,,,,,,,
,,,,,74,2020-07-04_18h30.33.343,retriever_ti,2020.1.3,Win32,60,Chrome,1366,768,,,,,,,,,,,,,,,,,1,,,,,,,,,,,,,,,,,,,,,,,,,,,428.181775,76,left,0.377755,slipper     ,2,8,1,1,1,428.21624,428.21624,430.71467,0,75,75,75,1,76,2,1,slipper     ,dress         ,html/resources/sequences_IDs/B/08_slipper.jpg,html/resources/sequences_IDs/A/07_dress.jpg,8,7,3,2,3,2,7,6,0,74,,,,,,,,,,,,,,,,,,,,
,,,,,74,2020-07-04_18h30.33.343,retriever_ti,2020.1.3,Win32,60,Chrome,1366,768,,,,,,,,,,,,,,,,,1,,,,,,,,,,,,,,,,,,,,,,,,,,,431.817015,77,right,0.43859,slipper     ,2,8,1,1,0,431.850135,431.850135,434.34707,0,76,76,76,1,77,1,2,dress         ,slipper     ,html/resources/sequences_IDs/A/07_dress.jpg,html/resources/sequences_IDs/B/08_slipper.jpg,7,8,3,2,3,2,6,7,1,74,,,,,,,,,,,,,,,,,,,,
,,,,,74,2020-07-04_18h30.33.343,retriever_ti,2020.1.3,Win32,60,Chrome,1366,768,,,,,,,,,,,,,,,,,,,,,,,,,,,,,,,,,,,,,0,2.644815,,,,,,,,,,,,,,,,,,,,,,,,,,,,,,,,,,,,,,,,,0,0,0,0,1,,,,,,,,,,,,,,,
,,,,,74,2020-07-04_18h30.33.343,retriever_ti,2020.1.3,Win32,60,Chrome,1366,768,,,,,,,,,,,,,,,,,2,,,,,,,,,,,,,,,,,,,,,,,,,,,445.78701,78,left,1.21038,calculator    ,5,9,4,1,3,445.79715,445.79715,448.29686,0,0,0,0,1,78,5,1,calculator    ,dress         ,html/resources/sequences_IDs/A/09_calculator.jpg,html/resources/sequences_IDs/A/07_dress.jpg,9,7,4,2,3,2,8,6,0,74,,,,,,,,,,,,,,,,,,,,
,,,,,74,2020-07-04_18h30.33.343,retriever_ti,2020.1.3,Win32,60,Chrome,1366,768,,,,,,,,,,,,,,,,,2,,,,,,,,,,,,,,,,,,,,,,,,,,,448.915755,79,left,0.666835,wolf          ,7,1,1,1,1,448.948995,448.948995,451.44681,0,1,1,1,1,79,7,6,wolf          ,parrot      ,html/resources/sequences_IDs/A/01_wolf.jpg,html/resources/sequences_IDs/B/05_parrot.jpg,1,5,1,1,2,1,1,4,0,74,,,,,,,,,,,,,,,,,,,,
,,,,,74,2020-07-04_18h30.33.343,retriever_ti,2020.1.3,Win32,60,Chrome,1366,768,,,,,,,,,,,,,,,,,2,,,,,,,,,,,,,,,,,,,,,,,,,,,452.546495,80,right,0.634715,wolf          ,7,1,1,1,1,452.564565,452.564565,455.06202,0,2,2,2,1,80,6,7,parrot      ,wolf          ,html/resources/sequences_IDs/B/05_parrot.jpg,html/resources/sequences_IDs/A/01_wolf.jpg,5,1,2,1,1,1,4,1,0,74,,,,,,,,,,,,,,,,,,,,
,,,,,74,2020-07-04_18h30.33.343,retriever_ti,2020.1.3,Win32,60,Chrome,1366,768,,,,,,,,,,,,,,,,,2,,,,,,,,,,,,,,,,,,,,,,,,,,,456.163795,81,right,0.383755,calculator    ,5,9,-1,0,1,456.18057,456.18057,458.679475,0,3,3,3,1,81,6,5,parrot      ,calculator    ,html/resources/sequences_IDs/B/05_parrot.jpg,html/resources/sequences_IDs/A/09_calculator.jpg,5,9,2,1,4,2,4,8,1,74,,,,,,,,,,,,,,,,,,,,
,,,,,74,2020-07-04_18h30.33.343,retriever_ti,2020.1.3,Win32,60,Chrome,1366,768,,,,,,,,,,,,,,,,,2,,,,,,,,,,,,,,,,,,,,,,,,,,,459.78015,82,right,0.672895,giraffe     ,4,3,3,1,3,459.814795,459.814795,462.31243,0,4,4,4,1,82,1,4,dress         ,giraffe     ,html/resources/sequences_IDs/A/07_dress.jpg,html/resources/sequences_IDs/B/03_giraffe.jpg,7,3,3,2,1,1,6,3,0,74,,,,,,,,,,,,,,,,,,,,
,,,,,74,2020-07-04_18h30.33.343,retriever_ti,2020.1.3,Win32,60,Chrome,1366,768,,,,,,,,,,,,,,,,,2,,,,,,,,,,,,,,,,,,,,,,,,,,,462.93128,83,right,0.72137,seaturtle     ,3,2,-2,0,3,462.96474,462.96474,465.461365,0,5,5,5,1,83,5,3,calculator    ,seaturtle     ,html/resources/sequences_IDs/A/09_calculator.jpg,html/resources/sequences_IDs/A/02_seaturtle.jpg,9,2,4,2,2,1,8,2,0,74,,,,,,,,,,,,,,,,,,,,
,,,,,74,2020-07-04_18h30.33.343,retriever_ti,2020.1.3,Win32,60,Chrome,1366,768,,,,,,,,,,,,,,,,,2,,,,,,,,,,,,,,,,,,,,,,,,,,,466.07886,84,left,0.560955,calculator    ,5,9,-1,0,0,466.113375,466.113375,468.610985,0,6,6,6,1,84,5,6,calculator    ,parrot      ,html/resources/sequences_IDs/A/09_calculator.jpg,html/resources/sequences_IDs/B/05_parrot.jpg,9,5,4,2,2,1,8,4,0,74,,,,,,,,,,,,,,,,,,,,
,,,,,74,2020-07-04_18h30.33.343,retriever_ti,2020.1.3,Win32,60,Chrome,1366,768,,,,,,,,,,,,,,,,,2,,,,,,,,,,,,,,,,,,,,,,,,,,,469.712905,85,NaN,NaN,No_response,NaN,NaN,NaN,2,2,469.74635,469.74635,472.244265,0,7,7,7,1,85,4,5,giraffe     ,calculator    ,html/resources/sequences_IDs/B/03_giraffe.jpg,html/resources/sequences_IDs/A/09_calculator.jpg,3,9,1,1,4,2,3,8,0,74,,,,,,,,,,,,,,,,,,,,
,,,,,74,2020-07-04_18h30.33.343,retriever_ti,2020.1.3,Win32,60,Chrome,1366,768,,,,,,,,,,,,,,,,,2,,,,,,,,,,,,,,,,,,,,,,,,,,,473.34482,86,right,1.006105,giraffe     ,4,3,1,1,1,473.362615,473.362615,475.860515,0,8,8,8,1,86,3,4,seaturtle     ,giraffe     ,html/resources/sequences_IDs/A/02_seaturtle.jpg,html/resources/sequences_IDs/B/03_giraffe.jpg,2,3,2,1,1,1,2,3,0,74,,,,,,,,,,,,,,,,,,,,
,,,,,74,2020-07-04_18h30.33.343,retriever_ti,2020.1.3,Win32,60,Chrome,1366,768,,,,,,,,,,,,,,,,,2,,,,,,,,,,,,,,,,,,,,,,,,,,,476.962545,87,right,0.770585,giraffe     ,4,3,1,1,1,476.996175,476.996175,479.49361,0,9,9,9,1,87,3,4,seaturtle     ,giraffe     ,html/resources/sequences_IDs/A/02_seaturtle.jpg,html/resources/sequences_IDs/B/03_giraffe.jpg,2,3,2,1,1,1,2,3,0,74,,,,,,,,,,,,,,,,,,,,
,,,,,74,2020-07-04_18h30.33.343,retriever_ti,2020.1.3,Win32,60,Chrome,1366,768,,,,,,,,,,,,,,,,,2,,,,,,,,,,,,,,,,,,,,,,,,,,,480.59441,88,right,0.97149,parrot      ,6,5,5,1,3,480.628755,480.628755,483.12681,0,10,10,10,1,88,1,6,dress         ,parrot      ,html/resources/sequences_IDs/A/07_dress.jpg,html/resources/sequences_IDs/B/05_parrot.jpg,7,5,3,2,2,1,6,4,0,74,,,,,,,,,,,,,,,,,,,,
,,,,,74,2020-07-04_18h30.33.343,retriever_ti,2020.1.3,Win32,60,Chrome,1366,768,,,,,,,,,,,,,,,,,2,,,,,,,,,,,,,,,,,,,,,,,,,,,483.745715,89,left,0.5916,giraffe     ,4,3,1,1,1,483.762295,483.762295,486.259835,0,11,11,11,1,89,4,3,giraffe     ,seaturtle     ,html/resources/sequences_IDs/B/03_giraffe.jpg,html/resources/sequences_IDs/A/02_seaturtle.jpg,3,2,1,1,2,1,3,2,0,74,,,,,,,,,,,,,,,,,,,,
,,,,,74,2020-07-04_18h30.33.343,retriever_ti,2020.1.3,Win32,60,Chrome,1366,768,,,,,,,,,,,,,,,,,2,,,,,,,,,,,,,,,,,,,,,,,,,,,487.3606,90,left,0.856895,seaturtle     ,3,2,1,1,0,487.37868,487.37868,489.876055,0,12,12,12,1,90,3,2,seaturtle     ,slipper     ,html/resources/sequences_IDs/A/02_seaturtle.jpg,html/resources/sequences_IDs/B/08_slipper.jpg,2,8,2,1,3,2,2,7,1,74,,,,,,,,,,,,,,,,,,,,
,,,,,74,2020-07-04_18h30.33.343,retriever_ti,2020.1.3,Win32,60,Chrome,1366,768,,,,,,,,,,,,,,,,,2,,,,,,,,,,,,,,,,,,,,,,,,,,,490.97814,91,left,0.91957,parrot      ,6,5,5,1,3,490.995025,490.995025,493.49328,0,13,13,13,1,91,6,1,parrot      ,dress         ,html/resources/sequences_IDs/B/05_parrot.jpg,html/resources/sequences_IDs/A/07_dress.jpg,5,7,2,1,3,2,4,6,0,74,,,,,,,,,,,,,,,,,,,,
,,,,,74,2020-07-04_18h30.33.343,retriever_ti,2020.1.3,Win32,60,Chrome,1366,768,,,,,,,,,,,,,,,,,2,,,,,,,,,,,,,,,,,,,,,,,,,,,494.110655,92,left,0.716895,wolf          ,7,1,-1,0,1,494.14545,494.14545,496.6431,0,14,14,14,1,92,7,8,wolf          ,gloves      ,html/resources/sequences_IDs/A/01_wolf.jpg,html/resources/sequences_IDs/B/06_gloves.jpg,1,6,1,1,3,2,1,5,1,74,,,,,,,,,,,,,,,,,,,,
,,,,,74,2020-07-04_18h30.33.343,retriever_ti,2020.1.3,Win32,60,Chrome,1366,768,,,,,,,,,,,,,,,,,2,,,,,,,,,,,,,,,,,,,,,,,,,,,497.747525,93,right,0.854985,wolf          ,7,1,2,1,3,497.762205,497.762205,500.258805,0,15,15,15,1,93,5,7,calculator    ,wolf          ,html/resources/sequences_IDs/A/09_calculator.jpg,html/resources/sequences_IDs/A/01_wolf.jpg,9,1,4,2,1,1,8,1,0,74,,,,,,,,,,,,,,,,,,,,
,,,,,74,2020-07-04_18h30.33.343,retriever_ti,2020.1.3,Win32,60,Chrome,1366,768,,,,,,,,,,,,,,,,,2,,,,,,,,,,,,,,,,,,,,,,,,,,,500.87603,94,left,0.51976,calculator    ,5,9,3,1,3,500.89391,500.89391,503.391815,0,16,16,16,1,94,5,2,calculator    ,slipper     ,html/resources/sequences_IDs/A/09_calculator.jpg,html/resources/sequences_IDs/B/08_slipper.jpg,9,8,4,2,3,2,8,7,0,74,,,,,,,,,,,,,,,,,,,,
,,,,,74,2020-07-04_18h30.33.343,retriever_ti,2020.1.3,Win32,60,Chrome,1366,768,,,,,,,,,,,,,,,,,2,,,,,,,,,,,,,,,,,,,,,,,,,,,504.010445,95,right,0.578035,seaturtle     ,3,2,-5,0,3,504.04367,504.04367,506.541585,0,17,17,17,1,95,8,3,gloves      ,seaturtle     ,html/resources/sequences_IDs/B/06_gloves.jpg,html/resources/sequences_IDs/A/02_seaturtle.jpg,6,2,3,2,2,1,5,2,0,74,,,,,,,,,,,,,,,,,,,,
,,,,,74,2020-07-04_18h30.33.343,retriever_ti,2020.1.3,Win32,60,Chrome,1366,768,,,,,,,,,,,,,,,,,2,,,,,,,,,,,,,,,,,,,,,,,,,,,507.15924,96,left,0.83519,seaturtle     ,3,2,-5,0,3,507.193835,507.193835,509.69136,0,18,18,18,1,96,3,8,seaturtle     ,gloves      ,html/resources/sequences_IDs/A/02_seaturtle.jpg,html/resources/sequences_IDs/B/06_gloves.jpg,2,6,2,1,3,2,2,5,0,74,,,,,,,,,,,,,,,,,,,,
,,,,,74,2020-07-04_18h30.33.343,retriever_ti,2020.1.3,Win32,60,Chrome,1366,768,,,,,,,,,,,,,,,,,2,,,,,,,,,,,,,,,,,,,,,,,,,,,510.31017,97,left,0.650825,wolf          ,7,1,-1,0,0,510.32695,510.32695,512.825275,0,19,19,19,1,97,7,8,wolf          ,gloves      ,html/resources/sequences_IDs/A/01_wolf.jpg,html/resources/sequences_IDs/B/06_gloves.jpg,1,6,1,1,3,2,1,5,0,74,,,,,,,,,,,,,,,,,,,,
,,,,,74,2020-07-04_18h30.33.343,retriever_ti,2020.1.3,Win32,60,Chrome,1366,768,,,,,,,,,,,,,,,,,2,,,,,,,,,,,,,,,,,,,,,,,,,,,513.926085,98,right,1.546045,wolf          ,7,1,4,1,3,513.944155,513.944155,516.44177,0,20,20,20,1,98,3,7,seaturtle     ,wolf          ,html/resources/sequences_IDs/A/02_seaturtle.jpg,html/resources/sequences_IDs/A/01_wolf.jpg,2,1,2,1,1,1,2,1,0,74,,,,,,,,,,,,,,,,,,,,
,,,,,74,2020-07-04_18h30.33.343,retriever_ti,2020.1.3,Win32,60,Chrome,1366,768,,,,,,,,,,,,,,,,,2,,,,,,,,,,,,,,,,,,,,,,,,,,,517.060635,99,left,0.834835,wolf          ,7,1,4,1,3,517.077135,517.077135,519.574075,0,21,21,21,1,99,7,3,wolf          ,seaturtle     ,html/resources/sequences_IDs/A/01_wolf.jpg,html/resources/sequences_IDs/A/02_seaturtle.jpg,1,2,1,1,2,1,1,2,0,74,,,,,,,,,,,,,,,,,,,,
,,,,,74,2020-07-04_18h30.33.343,retriever_ti,2020.1.3,Win32,60,Chrome,1366,768,,,,,,,,,,,,,,,,,2,,,,,,,,,,,,,,,,,,,,,,,,,,,520.192285,100,right,1.06979,slipper     ,2,8,-5,0,3,520.22625,520.22625,522.723725,0,22,22,22,1,100,7,2,wolf          ,slipper     ,html/resources/sequences_IDs/A/01_wolf.jpg,html/resources/sequences_IDs/B/08_slipper.jpg,1,8,1,1,3,2,1,7,0,74,,,,,,,,,,,,,,,,,,,,
,,,,,74,2020-07-04_18h30.33.343,retriever_ti,2020.1.3,Win32,60,Chrome,1366,768,,,,,,,,,,,,,,,,,2,,,,,,,,,,,,,,,,,,,,,,,,,,,523.342555,101,left,1.42066,wolf          ,7,1,2,1,3,523.375925,523.375925,525.87332,0,23,23,23,1,101,7,5,wolf          ,calculator    ,html/resources/sequences_IDs/A/01_wolf.jpg,html/resources/sequences_IDs/A/09_calculator.jpg,1,9,1,1,4,2,1,8,0,74,,,,,,,,,,,,,,,,,,,,
,,,,,74,2020-07-04_18h30.33.343,retriever_ti,2020.1.3,Win32,60,Chrome,1366,768,,,,,,,,,,,,,,,,,2,,,,,,,,,,,,,,,,,,,,,,,,,,,526.49106,102,right,1.29583,seaturtle     ,3,2,2,1,3,526.525655,526.525655,529.023255,0,24,24,24,1,102,1,3,dress         ,seaturtle     ,html/resources/sequences_IDs/A/07_dress.jpg,html/resources/sequences_IDs/A/02_seaturtle.jpg,7,2,3,2,2,1,6,2,0,74,,,,,,,,,,,,,,,,,,,,
,,,,,74,2020-07-04_18h30.33.343,retriever_ti,2020.1.3,Win32,60,Chrome,1366,768,,,,,,,,,,,,,,,,,2,,,,,,,,,,,,,,,,,,,,,,,,,,,529.640785,103,right,1.030875,slipper     ,2,8,-6,0,3,529.65918,529.65918,532.15632,0,25,25,25,1,103,8,2,gloves      ,slipper     ,html/resources/sequences_IDs/B/06_gloves.jpg,html/resources/sequences_IDs/B/08_slipper.jpg,6,8,3,2,3,2,5,7,0,74,,,,,,,,,,,,,,,,,,,,
,,,,,74,2020-07-04_18h30.33.343,retriever_ti,2020.1.3,Win32,60,Chrome,1366,768,,,,,,,,,,,,,,,,,2,,,,,,,,,,,,,,,,,,,,,,,,,,,532.77398,104,right,0.83642,calculator    ,5,9,2,1,3,532.8088,532.8088,535.306175,0,26,26,26,1,104,3,5,seaturtle     ,calculator    ,html/resources/sequences_IDs/A/02_seaturtle.jpg,html/resources/sequences_IDs/A/09_calculator.jpg,2,9,2,1,4,2,2,8,0,74,,,,,,,,,,,,,,,,,,,,
,,,,,74,2020-07-04_18h30.33.343,retriever_ti,2020.1.3,Win32,60,Chrome,1366,768,,,,,,,,,,,,,,,,,2,,,,,,,,,,,,,,,,,,,,,,,,,,,535.924615,105,right,0.865465,calculator    ,5,9,-1,0,0,535.95869,535.95869,538.455855,0,27,27,27,1,105,6,5,parrot      ,calculator    ,html/resources/sequences_IDs/B/05_parrot.jpg,html/resources/sequences_IDs/A/09_calculator.jpg,5,9,2,1,4,2,4,8,0,74,,,,,,,,,,,,,,,,,,,,
,,,,,74,2020-07-04_18h30.33.343,retriever_ti,2020.1.3,Win32,60,Chrome,1366,768,,,,,,,,,,,,,,,,,2,,,,,,,,,,,,,,,,,,,,,,,,,,,539.5566,106,right,0.93571,gloves      ,8,6,7,1,3,539.57464,539.57464,542.07233,0,28,28,28,1,106,1,8,dress         ,gloves      ,html/resources/sequences_IDs/A/07_dress.jpg,html/resources/sequences_IDs/B/06_gloves.jpg,7,6,3,2,3,2,6,5,0,74,,,,,,,,,,,,,,,,,,,,
,,,,,74,2020-07-04_18h30.33.343,retriever_ti,2020.1.3,Win32,60,Chrome,1366,768,,,,,,,,,,,,,,,,,2,,,,,,,,,,,,,,,,,,,,,,,,,,,542.6909,107,right,1.5436,parrot      ,6,5,-1,0,1,542.724435,542.724435,545.221955,0,29,29,29,1,107,7,6,wolf          ,parrot      ,html/resources/sequences_IDs/A/01_wolf.jpg,html/resources/sequences_IDs/B/05_parrot.jpg,1,5,1,1,2,1,1,4,1,74,,,,,,,,,,,,,,,,,,,,
,,,,,74,2020-07-04_18h30.33.343,retriever_ti,2020.1.3,Win32,60,Chrome,1366,768,,,,,,,,,,,,,,,,,2,,,,,,,,,,,,,,,,,,,,,,,,,,,546.322795,108,right,0.937625,calculator    ,5,9,3,1,3,546.357465,546.357465,548.854755,0,30,30,30,1,108,2,5,slipper     ,calculator    ,html/resources/sequences_IDs/B/08_slipper.jpg,html/resources/sequences_IDs/A/09_calculator.jpg,8,9,3,2,4,2,7,8,0,74,,,,,,,,,,,,,,,,,,,,
,,,,,74,2020-07-04_18h30.33.343,retriever_ti,2020.1.3,Win32,60,Chrome,1366,768,,,,,,,,,,,,,,,,,2,,,,,,,,,,,,,,,,,,,,,,,,,,,549.45737,109,right,1.11811,giraffe     ,4,3,2,1,3,549.474225,549.474225,551.97145,0,31,31,31,1,109,2,4,slipper     ,giraffe     ,html/resources/sequences_IDs/B/08_slipper.jpg,html/resources/sequences_IDs/B/03_giraffe.jpg,8,3,3,2,1,1,7,3,0,74,,,,,,,,,,,,,,,,,,,,
,,,,,74,2020-07-04_18h30.33.343,retriever_ti,2020.1.3,Win32,60,Chrome,1366,768,,,,,,,,,,,,,,,,,2,,,,,,,,,,,,,,,,,,,,,,,,,,,552.58883,110,right,0.912555,calculator    ,5,9,-3,0,3,552.62363,552.62363,555.121395,0,32,32,32,1,110,8,5,gloves      ,calculator    ,html/resources/sequences_IDs/B/06_gloves.jpg,html/resources/sequences_IDs/A/09_calculator.jpg,6,9,3,2,4,2,5,8,0,74,,,,,,,,,,,,,,,,,,,,
,,,,,74,2020-07-04_18h30.33.343,retriever_ti,2020.1.3,Win32,60,Chrome,1366,768,,,,,,,,,,,,,,,,,2,,,,,,,,,,,,,,,,,,,,,,,,,,,555.739635,111,right,0.594575,giraffe     ,4,3,1,1,0,555.7732,555.7732,558.270985,0,33,33,33,1,111,3,4,seaturtle     ,giraffe     ,html/resources/sequences_IDs/A/02_seaturtle.jpg,html/resources/sequences_IDs/B/03_giraffe.jpg,2,3,2,1,1,1,2,3,1,74,,,,,,,,,,,,,,,,,,,,
,,,,,74,2020-07-04_18h30.33.343,retriever_ti,2020.1.3,Win32,60,Chrome,1366,768,,,,,,,,,,,,,,,,,2,,,,,,,,,,,,,,,,,,,,,,,,,,,559.37188,112,left,0.978895,wolf          ,7,1,-1,0,0,559.389905,559.389905,561.886935,0,34,34,34,1,112,7,8,wolf          ,gloves      ,html/resources/sequences_IDs/A/01_wolf.jpg,html/resources/sequences_IDs/B/06_gloves.jpg,1,6,1,1,3,2,1,5,0,74,,,,,,,,,,,,,,,,,,,,
,,,,,74,2020-07-04_18h30.33.343,retriever_ti,2020.1.3,Win32,60,Chrome,1366,768,,,,,,,,,,,,,,,,,2,,,,,,,,,,,,,,,,,,,,,,,,,,,562.989965,113,right,0.777545,calculator    ,5,9,4,1,3,563.006675,563.006675,565.50376,0,35,35,35,1,113,1,5,dress         ,calculator    ,html/resources/sequences_IDs/A/07_dress.jpg,html/resources/sequences_IDs/A/09_calculator.jpg,7,9,3,2,4,2,6,8,0,74,,,,,,,,,,,,,,,,,,,,
,,,,,74,2020-07-04_18h30.33.343,retriever_ti,2020.1.3,Win32,60,Chrome,1366,768,,,,,,,,,,,,,,,,,2,,,,,,,,,,,,,,,,,,,,,,,,,,,566.121125,114,left,0.94579,giraffe     ,4,3,-2,0,3,566.15571,566.15571,568.65358,0,36,36,36,1,114,4,6,giraffe     ,parrot      ,html/resources/sequences_IDs/B/03_giraffe.jpg,html/resources/sequences_IDs/B/05_parrot.jpg,3,5,1,1,2,1,3,4,0,74,,,,,,,,,,,,,,,,,,,,
,,,,,74,2020-07-04_18h30.33.343,retriever_ti,2020.1.3,Win32,60,Chrome,1366,768,,,,,,,,,,,,,,,,,2,,,,,,,,,,,,,,,,,,,,,,,,,,,569.272205,115,right,1.706885,calculator    ,5,9,1,1,0,569.305395,569.305395,571.80308,0,37,37,37,1,115,4,5,giraffe     ,calculator    ,html/resources/sequences_IDs/B/03_giraffe.jpg,html/resources/sequences_IDs/A/09_calculator.jpg,3,9,1,1,4,2,3,8,1,74,,,,,,,,,,,,,,,,,,,,
,,,,,74,2020-07-04_18h30.33.343,retriever_ti,2020.1.3,Win32,60,Chrome,1366,768,,,,,,,,,,,,,,,,,2,,,,,,,,,,,,,,,,,,,,,,,,,,,572.90433,116,right,0.948985,parrot      ,6,5,3,1,3,572.92214,572.92214,575.41976,0,38,38,38,1,116,3,6,seaturtle     ,parrot      ,html/resources/sequences_IDs/A/02_seaturtle.jpg,html/resources/sequences_IDs/B/05_parrot.jpg,2,5,2,1,2,1,2,4,0,74,,,,,,,,,,,,,,,,,,,,
,,,,,74,2020-07-04_18h30.33.343,retriever_ti,2020.1.3,Win32,60,Chrome,1366,768,,,,,,,,,,,,,,,,,2,,,,,,,,,,,,,,,,,,,,,,,,,,,576.038035,117,left,0.67282,parrot      ,6,5,-2,0,3,576.059435,576.059435,578.553705,0,39,39,39,1,117,6,8,parrot      ,gloves      ,html/resources/sequences_IDs/B/05_parrot.jpg,html/resources/sequences_IDs/B/06_gloves.jpg,5,6,2,1,3,2,4,5,0,74,,,,,,,,,,,,,,,,,,,,
,,,,,74,2020-07-04_18h30.33.343,retriever_ti,2020.1.3,Win32,60,Chrome,1366,768,,,,,,,,,,,,,,,,,2,,,,,,,,,,,,,,,,,,,,,,,,,,,579.171215,118,right,1.19666,calculator    ,5,9,1,1,1,579.18942,579.18942,581.68581,0,40,40,40,1,118,4,5,giraffe     ,calculator    ,html/resources/sequences_IDs/B/03_giraffe.jpg,html/resources/sequences_IDs/A/09_calculator.jpg,3,9,1,1,4,2,3,8,0,74,,,,,,,,,,,,,,,,,,,,
,,,,,74,2020-07-04_18h30.33.343,retriever_ti,2020.1.3,Win32,60,Chrome,1366,768,,,,,,,,,,,,,,,,,2,,,,,,,,,,,,,,,,,,,,,,,,,,,582.788255,119,right,0.572945,giraffe     ,4,3,-2,0,3,582.82141,582.82141,585.31901,0,41,41,41,1,119,6,4,parrot      ,giraffe     ,html/resources/sequences_IDs/B/05_parrot.jpg,html/resources/sequences_IDs/B/03_giraffe.jpg,5,3,2,1,1,1,4,3,0,74,,,,,,,,,,,,,,,,,,,,
,,,,,74,2020-07-04_18h30.33.343,retriever_ti,2020.1.3,Win32,60,Chrome,1366,768,,,,,,,,,,,,,,,,,2,,,,,,,,,,,,,,,,,,,,,,,,,,,585.93646,120,right,0.790785,gloves      ,8,6,6,1,3,585.95449,585.95449,588.452055,0,42,42,42,1,120,2,8,slipper     ,gloves      ,html/resources/sequences_IDs/B/08_slipper.jpg,html/resources/sequences_IDs/B/06_gloves.jpg,8,6,3,2,3,2,7,5,0,74,,,,,,,,,,,,,,,,,,,,
,,,,,74,2020-07-04_18h30.33.343,retriever_ti,2020.1.3,Win32,60,Chrome,1366,768,,,,,,,,,,,,,,,,,2,,,,,,,,,,,,,,,,,,,,,,,,,,,589.070905,121,right,0.59908,gloves      ,8,6,3,1,3,589.10552,589.10552,591.601855,0,43,43,43,1,121,5,8,calculator    ,gloves      ,html/resources/sequences_IDs/A/09_calculator.jpg,html/resources/sequences_IDs/B/06_gloves.jpg,9,6,4,2,3,2,8,5,0,74,,,,,,,,,,,,,,,,,,,,
,,,,,74,2020-07-04_18h30.33.343,retriever_ti,2020.1.3,Win32,60,Chrome,1366,768,,,,,,,,,,,,,,,,,2,,,,,,,,,,,,,,,,,,,,,,,,,,,592.219735,122,right,0.75426,slipper     ,2,8,1,1,0,592.254215,592.254215,594.75228,0,44,44,44,1,122,1,2,dress         ,slipper     ,html/resources/sequences_IDs/A/07_dress.jpg,html/resources/sequences_IDs/B/08_slipper.jpg,7,8,3,2,3,2,6,7,1,74,,,,,,,,,,,,,,,,,,,,
,,,,,74,2020-07-04_18h30.33.343,retriever_ti,2020.1.3,Win32,60,Chrome,1366,768,,,,,,,,,,,,,,,,,2,,,,,,,,,,,,,,,,,,,,,,,,,,,595.854545,123,right,0.584145,dress         ,1,7,-7,0,3,595.872235,595.872235,598.36793,0,45,45,45,1,123,8,1,gloves      ,dress         ,html/resources/sequences_IDs/B/06_gloves.jpg,html/resources/sequences_IDs/A/07_dress.jpg,6,7,3,2,3,2,5,6,0,74,,,,,,,,,,,,,,,,,,,,
,,,,,74,2020-07-04_18h30.33.343,retriever_ti,2020.1.3,Win32,60,Chrome,1366,768,,,,,,,,,,,,,,,,,2,,,,,,,,,,,,,,,,,,,,,,,,,,,598.985465,124,left,0.75961,giraffe     ,4,3,-4,0,3,599.0037,599.0037,602.000495,0,46,46,46,1,124,4,8,giraffe     ,gloves      ,html/resources/sequences_IDs/B/03_giraffe.jpg,html/resources/sequences_IDs/B/06_gloves.jpg,3,6,1,1,3,2,3,5,0,74,,,,,,,,,,,,,,,,,,,,
,,,,,74,2020-07-04_18h30.33.343,retriever_ti,2020.1.3,Win32,60,Chrome,1366,768,,,,,,,,,,,,,,,,,2,,,,,,,,,,,,,,,,,,,,,,,,,,,602.60313,125,right,0.677225,dress         ,1,7,-1,0,0,602.61966,602.61966,605.1175,0,47,47,47,1,125,2,1,slipper     ,dress         ,html/resources/sequences_IDs/B/08_slipper.jpg,html/resources/sequences_IDs/A/07_dress.jpg,8,7,3,2,3,2,7,6,0,74,,,,,,,,,,,,,,,,,,,,
,,,,,74,2020-07-04_18h30.33.343,retriever_ti,2020.1.3,Win32,60,Chrome,1366,768,,,,,,,,,,,,,,,,,2,,,,,,,,,,,,,,,,,,,,,,,,,,,606.218395,126,left,0.420005,slipper     ,2,8,-1,0,0,606.2526,606.2526,608.75048,0,48,48,48,1,126,2,3,slipper     ,seaturtle     ,html/resources/sequences_IDs/B/08_slipper.jpg,html/resources/sequences_IDs/A/02_seaturtle.jpg,8,2,3,2,2,1,7,2,0,74,,,,,,,,,,,,,,,,,,,,
,,,,,74,2020-07-04_18h30.33.343,retriever_ti,2020.1.3,Win32,60,Chrome,1366,768,,,,,,,,,,,,,,,,,2,,,,,,,,,,,,,,,,,,,,,,,,,,,609.85305,127,left,1.07908,parrot      ,6,5,-1,0,0,609.886415,609.886415,612.384355,0,49,49,49,1,127,6,7,parrot      ,wolf          ,html/resources/sequences_IDs/B/05_parrot.jpg,html/resources/sequences_IDs/A/01_wolf.jpg,5,1,2,1,1,1,4,1,0,74,,,,,,,,,,,,,,,,,,,,
,,,,,74,2020-07-04_18h30.33.343,retriever_ti,2020.1.3,Win32,60,Chrome,1366,768,,,,,,,,,,,,,,,,,2,,,,,,,,,,,,,,,,,,,,,,,,,,,613.48511,128,right,0.75166,parrot      ,6,5,1,1,1,613.503105,613.503105,615.99994,0,50,50,50,1,128,5,6,calculator    ,parrot      ,html/resources/sequences_IDs/A/09_calculator.jpg,html/resources/sequences_IDs/B/05_parrot.jpg,9,5,4,2,2,1,8,4,0,74,,,,,,,,,,,,,,,,,,,,
,,,,,74,2020-07-04_18h30.33.343,retriever_ti,2020.1.3,Win32,60,Chrome,1366,768,,,,,,,,,,,,,,,,,2,,,,,,,,,,,,,,,,,,,,,,,,,,,617.102055,129,right,1.057325,parrot      ,6,5,-1,0,0,617.1189,617.1189,619.616395,0,51,51,51,1,129,7,6,wolf          ,parrot      ,html/resources/sequences_IDs/A/01_wolf.jpg,html/resources/sequences_IDs/B/05_parrot.jpg,1,5,1,1,2,1,1,4,0,74,,,,,,,,,,,,,,,,,,,,
,,,,,74,2020-07-04_18h30.33.343,retriever_ti,2020.1.3,Win32,60,Chrome,1366,768,,,,,,,,,,,,,,,,,2,,,,,,,,,,,,,,,,,,,,,,,,,,,620.71723,130,right,0.855255,dress         ,1,7,-6,0,3,620.73515,620.73515,623.23273,0,52,52,52,1,130,7,1,wolf          ,dress         ,html/resources/sequences_IDs/A/01_wolf.jpg,html/resources/sequences_IDs/A/07_dress.jpg,1,7,1,1,3,2,1,6,0,74,,,,,,,,,,,,,,,,,,,,
,,,,,74,2020-07-04_18h30.33.343,retriever_ti,2020.1.3,Win32,60,Chrome,1366,768,,,,,,,,,,,,,,,,,2,,,,,,,,,,,,,,,,,,,,,,,,,,,623.85132,131,right,0.753525,slipper     ,2,8,-1,0,0,623.86797,623.86797,626.365825,0,53,53,53,1,131,3,2,seaturtle     ,slipper     ,html/resources/sequences_IDs/A/02_seaturtle.jpg,html/resources/sequences_IDs/B/08_slipper.jpg,2,8,2,1,3,2,2,7,0,74,,,,,,,,,,,,,,,,,,,,
,,,,,74,2020-07-04_18h30.33.343,retriever_ti,2020.1.3,Win32,60,Chrome,1366,768,,,,,,,,,,,,,,,,,2,,,,,,,,,,,,,,,,,,,,,,,,,,,627.46677,132,left,1.20259,giraffe     ,4,3,-3,0,3,627.48476,627.48476,629.982235,0,54,54,54,1,132,4,7,giraffe     ,wolf          ,html/resources/sequences_IDs/B/03_giraffe.jpg,html/resources/sequences_IDs/A/01_wolf.jpg,3,1,1,1,1,1,3,1,0,74,,,,,,,,,,,,,,,,,,,,
,,,,,74,2020-07-04_18h30.33.343,retriever_ti,2020.1.3,Win32,60,Chrome,1366,768,,,,,,,,,,,,,,,,,2,,,,,,,,,,,,,,,,,,,,,,,,,,,630.60092,133,left,0.496895,slipper     ,2,8,-5,0,3,630.63408,630.63408,633.132615,0,55,55,55,1,133,2,7,slipper     ,wolf          ,html/resources/sequences_IDs/B/08_slipper.jpg,html/resources/sequences_IDs/A/01_wolf.jpg,8,1,3,2,1,1,7,1,0,74,,,,,,,,,,,,,,,,,,,,
,,,,,74,2020-07-04_18h30.33.343,retriever_ti,2020.1.3,Win32,60,Chrome,1366,768,,,,,,,,,,,,,,,,,2,,,,,,,,,,,,,,,,,,,,,,,,,,,633.750655,134,left,0.8506,slipper     ,2,8,-1,0,0,633.76913,633.76913,636.26507,0,56,56,56,1,134,2,3,slipper     ,seaturtle     ,html/resources/sequences_IDs/B/08_slipper.jpg,html/resources/sequences_IDs/A/02_seaturtle.jpg,8,2,3,2,2,1,7,2,0,74,,,,,,,,,,,,,,,,,,,,
,,,,,74,2020-07-04_18h30.33.343,retriever_ti,2020.1.3,Win32,60,Chrome,1366,768,,,,,,,,,,,,,,,,,2,,,,,,,,,,,,,,,,,,,,,,,,,,,637.366825,135,right,0.56935,slipper     ,2,8,-4,0,3,637.38361,637.38361,639.881465,0,57,57,57,1,135,6,2,parrot      ,slipper     ,html/resources/sequences_IDs/B/05_parrot.jpg,html/resources/sequences_IDs/B/08_slipper.jpg,5,8,2,1,3,2,4,7,0,74,,,,,,,,,,,,,,,,,,,,
,,,,,74,2020-07-04_18h30.33.343,retriever_ti,2020.1.3,Win32,60,Chrome,1366,768,,,,,,,,,,,,,,,,,2,,,,,,,,,,,,,,,,,,,,,,,,,,,640.49881,136,right,0.361215,seaturtle     ,3,2,-3,0,3,640.516705,640.516705,643.014545,0,58,58,58,1,136,6,3,parrot      ,seaturtle     ,html/resources/sequences_IDs/B/05_parrot.jpg,html/resources/sequences_IDs/A/02_seaturtle.jpg,5,2,2,1,2,1,4,2,0,74,,,,,,,,,,,,,,,,,,,,
,,,,,74,2020-07-04_18h30.33.343,retriever_ti,2020.1.3,Win32,60,Chrome,1366,768,,,,,,,,,,,,,,,,,2,,,,,,,,,,,,,,,,,,,,,,,,,,,643.63324,137,right,0.379515,seaturtle     ,3,2,-1,0,0,643.65,643.65,646.148645,0,59,59,59,1,137,4,3,giraffe     ,seaturtle     ,html/resources/sequences_IDs/B/03_giraffe.jpg,html/resources/sequences_IDs/A/02_seaturtle.jpg,3,2,1,1,2,1,3,2,0,74,,,,,,,,,,,,,,,,,,,,
,,,,,74,2020-07-04_18h30.33.343,retriever_ti,2020.1.3,Win32,60,Chrome,1366,768,,,,,,,,,,,,,,,,,2,,,,,,,,,,,,,,,,,,,,,,,,,,,647.249625,138,right,0.38234,giraffe     ,4,3,-1,0,0,647.28456,647.28456,649.78075,0,60,60,60,1,138,5,4,calculator    ,giraffe     ,html/resources/sequences_IDs/A/09_calculator.jpg,html/resources/sequences_IDs/B/03_giraffe.jpg,9,3,4,2,1,1,8,3,0,74,,,,,,,,,,,,,,,,,,,,
,,,,,74,2020-07-04_18h30.33.343,retriever_ti,2020.1.3,Win32,60,Chrome,1366,768,,,,,,,,,,,,,,,,,2,,,,,,,,,,,,,,,,,,,,,,,,,,,650.882675,139,left,0.669915,seaturtle     ,3,2,2,1,3,650.89994,650.89994,653.39778,0,61,61,61,1,139,3,1,seaturtle     ,dress         ,html/resources/sequences_IDs/A/02_seaturtle.jpg,html/resources/sequences_IDs/A/07_dress.jpg,2,7,2,1,3,2,2,6,0,74,,,,,,,,,,,,,,,,,,,,
,,,,,74,2020-07-04_18h30.33.343,retriever_ti,2020.1.3,Win32,60,Chrome,1366,768,,,,,,,,,,,,,,,,,2,,,,,,,,,,,,,,,,,,,,,,,,,,,654.01555,140,right,0.76995,parrot      ,6,5,-2,0,3,654.03382,654.03382,656.530405,0,62,62,62,1,140,8,6,gloves      ,parrot      ,html/resources/sequences_IDs/B/06_gloves.jpg,html/resources/sequences_IDs/B/05_parrot.jpg,6,5,3,2,2,1,5,4,0,74,,,,,,,,,,,,,,,,,,,,
,,,,,74,2020-07-04_18h30.33.343,retriever_ti,2020.1.3,Win32,60,Chrome,1366,768,,,,,,,,,,,,,,,,,2,,,,,,,,,,,,,,,,,,,,,,,,,,,657.14924,141,right,0.933625,wolf          ,7,1,-1,0,0,657.1826,657.1826,659.68001,0,63,63,63,1,141,8,7,gloves      ,wolf          ,html/resources/sequences_IDs/B/06_gloves.jpg,html/resources/sequences_IDs/A/01_wolf.jpg,6,1,3,2,1,1,5,1,0,74,,,,,,,,,,,,,,,,,,,,
,,,,,74,2020-07-04_18h30.33.343,retriever_ti,2020.1.3,Win32,60,Chrome,1366,768,,,,,,,,,,,,,,,,,2,,,,,,,,,,,,,,,,,,,,,,,,,,,660.78104,142,left,0.85715,giraffe     ,4,3,2,1,3,660.798875,660.798875,663.29638,0,64,64,64,1,142,4,2,giraffe     ,slipper     ,html/resources/sequences_IDs/B/03_giraffe.jpg,html/resources/sequences_IDs/B/08_slipper.jpg,3,8,1,1,3,2,3,7,0,74,,,,,,,,,,,,,,,,,,,,
,,,,,74,2020-07-04_18h30.33.343,retriever_ti,2020.1.3,Win32,60,Chrome,1366,768,,,,,,,,,,,,,,,,,2,,,,,,,,,,,,,,,,,,,,,,,,,,,663.91498,143,right,1.05222,slipper     ,2,8,1,1,1,663.9316,663.9316,666.429665,0,65,65,65,1,143,1,2,dress         ,slipper     ,html/resources/sequences_IDs/A/07_dress.jpg,html/resources/sequences_IDs/B/08_slipper.jpg,7,8,3,2,3,2,6,7,0,74,,,,,,,,,,,,,,,,,,,,
,,,,,74,2020-07-04_18h30.33.343,retriever_ti,2020.1.3,Win32,60,Chrome,1366,768,,,,,,,,,,,,,,,,,2,,,,,,,,,,,,,,,,,,,,,,,,,,,667.53087,144,left,0.423235,slipper     ,2,8,1,1,1,667.549415,667.549415,670.04668,0,66,66,66,1,144,2,1,slipper     ,dress         ,html/resources/sequences_IDs/B/08_slipper.jpg,html/resources/sequences_IDs/A/07_dress.jpg,8,7,3,2,3,2,7,6,0,74,,,,,,,,,,,,,,,,,,,,
,,,,,74,2020-07-04_18h30.33.343,retriever_ti,2020.1.3,Win32,60,Chrome,1366,768,,,,,,,,,,,,,,,,,2,,,,,,,,,,,,,,,,,,,,,,,,,,,671.149205,145,left,0.955455,parrot      ,6,5,1,1,1,671.165905,671.165905,673.66223,0,67,67,67,1,145,6,5,parrot      ,calculator    ,html/resources/sequences_IDs/B/05_parrot.jpg,html/resources/sequences_IDs/A/09_calculator.jpg,5,9,2,1,4,2,4,8,0,74,,,,,,,,,,,,,,,,,,,,
,,,,,74,2020-07-04_18h30.33.343,retriever_ti,2020.1.3,Win32,60,Chrome,1366,768,,,,,,,,,,,,,,,,,2,,,,,,,,,,,,,,,,,,,,,,,,,,,674.76329,146,right,0.61679,parrot      ,6,5,4,1,3,674.7812,674.7812,677.278785,0,68,68,68,1,146,2,6,slipper     ,parrot      ,html/resources/sequences_IDs/B/08_slipper.jpg,html/resources/sequences_IDs/B/05_parrot.jpg,8,5,3,2,2,1,7,4,0,74,,,,,,,,,,,,,,,,,,,,
,,,,,74,2020-07-04_18h30.33.343,retriever_ti,2020.1.3,Win32,60,Chrome,1366,768,,,,,,,,,,,,,,,,,2,,,,,,,,,,,,,,,,,,,,,,,,,,,677.89734,147,right,1.045205,wolf          ,7,1,-1,0,0,677.930875,677.930875,680.628075,0,69,69,69,1,147,8,7,gloves      ,wolf          ,html/resources/sequences_IDs/B/06_gloves.jpg,html/resources/sequences_IDs/A/01_wolf.jpg,6,1,3,2,1,1,5,1,0,74,,,,,,,,,,,,,,,,,,,,
,,,,,74,2020-07-04_18h30.33.343,retriever_ti,2020.1.3,Win32,60,Chrome,1366,768,,,,,,,,,,,,,,,,,2,,,,,,,,,,,,,,,,,,,,,,,,,,,681.730515,148,right,0.7586,wolf          ,7,1,6,1,3,681.74828,681.74828,684.24479,0,70,70,70,1,148,1,7,dress         ,wolf          ,html/resources/sequences_IDs/A/07_dress.jpg,html/resources/sequences_IDs/A/01_wolf.jpg,7,1,3,2,1,1,6,1,0,74,,,,,,,,,,,,,,,,,,,,
,,,,,74,2020-07-04_18h30.33.343,retriever_ti,2020.1.3,Win32,60,Chrome,1366,768,,,,,,,,,,,,,,,,,2,,,,,,,,,,,,,,,,,,,,,,,,,,,684.86325,149,right,0.516635,giraffe     ,4,3,-4,0,3,684.880225,684.880225,687.37804,0,71,71,71,1,149,8,4,gloves      ,giraffe     ,html/resources/sequences_IDs/B/06_gloves.jpg,html/resources/sequences_IDs/B/03_giraffe.jpg,6,3,3,2,1,1,5,3,0,74,,,,,,,,,,,,,,,,,,,,
,,,,,74,2020-07-04_18h30.33.343,retriever_ti,2020.1.3,Win32,60,Chrome,1366,768,,,,,,,,,,,,,,,,,2,,,,,,,,,,,,,,,,,,,,,,,,,,,687.995635,150,right,0.56599,giraffe     ,4,3,-3,0,3,688.01348,688.01348,690.511,0,72,72,72,1,150,7,4,wolf          ,giraffe     ,html/resources/sequences_IDs/A/01_wolf.jpg,html/resources/sequences_IDs/B/03_giraffe.jpg,1,3,1,1,1,1,1,3,0,74,,,,,,,,,,,,,,,,,,,,
,,,,,74,2020-07-04_18h30.33.343,retriever_ti,2020.1.3,Win32,60,Chrome,1366,768,,,,,,,,,,,,,,,,,2,,,,,,,,,,,,,,,,,,,,,,,,,,,691.12917,151,left,0.42813,giraffe     ,4,3,3,1,3,691.163025,691.163025,693.660765,0,73,73,73,1,151,4,1,giraffe     ,dress         ,html/resources/sequences_IDs/B/03_giraffe.jpg,html/resources/sequences_IDs/A/07_dress.jpg,3,7,1,1,3,2,3,6,0,74,,,,,,,,,,,,,,,,,,,,
,,,,,74,2020-07-04_18h30.33.343,retriever_ti,2020.1.3,Win32,60,Chrome,1366,768,,,,,,,,,,,,,,,,,2,,,,,,,,,,,,,,,,,,,,,,,,,,,694.27833,152,right,0.384765,giraffe     ,4,3,-1,0,0,694.296325,694.296325,696.79347,0,74,74,74,1,152,5,4,calculator    ,giraffe     ,html/resources/sequences_IDs/A/09_calculator.jpg,html/resources/sequences_IDs/B/03_giraffe.jpg,9,3,4,2,1,1,8,3,0,74,,,,,,,,,,,,,,,,,,,,
,,,,,74,2020-07-04_18h30.33.343,retriever_ti,2020.1.3,Win32,60,Chrome,1366,768,,,,,,,,,,,,,,,,,2,,,,,,,,,,,,,,,,,,,,,,,,,,,697.894265,153,right,0.82242,slipper     ,2,8,1,1,1,697.93029,697.93029,700.426855,0,75,75,75,1,153,1,2,dress         ,slipper     ,html/resources/sequences_IDs/A/07_dress.jpg,html/resources/sequences_IDs/B/08_slipper.jpg,7,8,3,2,3,2,6,7,0,74,,,,,,,,,,,,,,,,,,,,
,,,,,74,2020-07-04_18h30.33.343,retriever_ti,2020.1.3,Win32,60,Chrome,1366,768,,,,,,,,,,,,,,,,,2,,,,,,,,,,,,,,,,,,,,,,,,,,,701.52809,154,right,0.421015,slipper     ,2,8,-1,0,0,701.546415,701.546415,704.043965,0,76,76,76,1,154,3,2,seaturtle     ,slipper     ,html/resources/sequences_IDs/A/02_seaturtle.jpg,html/resources/sequences_IDs/B/08_slipper.jpg,2,8,2,1,3,2,2,7,0,74,,,,,,,,,,,,,,,,,,,,
,,,,,74,2020-07-04_18h30.33.343,retriever_ti,2020.1.3,Win32,60,Chrome,1366,768,,,,,,,,,,,,,,,,,,,,,,,,,,,,,,,,,,,,,0,2.37923,,,,,,,,,,,,,,,,,,,,,,,,,,,,,,,,,,,,,,,,,1,0,1,0,1,,,,,,,,,,,,,,,
,,,,,74,2020-07-04_18h30.33.343,retriever_ti,2020.1.3,Win32,60,Chrome,1366,768,,,,,,,,,,,,,,,,,3,,,,,,,,,,,,,,,,,,,,,,,,,,,712.587565,155,right,1.08909,wolf          ,7,1,1,1,1,712.594435,712.594435,715.09265,0,0,0,0,1,155,6,7,parrot      ,wolf          ,html/resources/sequences_IDs/B/05_parrot.jpg,html/resources/sequences_IDs/A/01_wolf.jpg,5,1,2,1,1,1,4,1,0,74,,,,,,,,,,,,,,,,,,,,
,,,,,74,2020-07-04_18h30.33.343,retriever_ti,2020.1.3,Win32,60,Chrome,1366,768,,,,,,,,,,,,,,,,,3,,,,,,,,,,,,,,,,,,,,,,,,,,,716.19462,156,left,0.7157,seaturtle     ,3,2,-1,0,0,716.22799,716.22799,718.72545,0,1,1,1,1,156,3,4,seaturtle     ,giraffe     ,html/resources/sequences_IDs/A/02_seaturtle.jpg,html/resources/sequences_IDs/B/03_giraffe.jpg,2,3,2,1,1,1,2,3,0,74,,,,,,,,,,,,,,,,,,,,
,,,,,74,2020-07-04_18h30.33.343,retriever_ti,2020.1.3,Win32,60,Chrome,1366,768,,,,,,,,,,,,,,,,,3,,,,,,,,,,,,,,,,,,,,,,,,,,,719.82649,157,left,0.879585,parrot      ,6,5,1,1,1,719.84443,719.84443,722.34151,0,2,2,2,1,157,6,5,parrot      ,calculator    ,html/resources/sequences_IDs/B/05_parrot.jpg,html/resources/sequences_IDs/A/09_calculator.jpg,5,9,2,1,4,2,4,8,0,74,,,,,,,,,,,,,,,,,,,,
,,,,,74,2020-07-04_18h30.33.343,retriever_ti,2020.1.3,Win32,60,Chrome,1366,768,,,,,,,,,,,,,,,,,3,,,,,,,,,,,,,,,,,,,,,,,,,,,723.444095,158,right,1.11757,gloves      ,8,6,7,1,3,723.460445,723.460445,725.95838,0,3,3,3,1,158,1,8,dress         ,gloves      ,html/resources/sequences_IDs/A/07_dress.jpg,html/resources/sequences_IDs/B/06_gloves.jpg,7,6,3,2,3,2,6,5,0,74,,,,,,,,,,,,,,,,,,,,
,,,,,74,2020-07-04_18h30.33.343,retriever_ti,2020.1.3,Win32,60,Chrome,1366,768,,,,,,,,,,,,,,,,,3,,,,,,,,,,,,,,,,,,,,,,,,,,,726.57573,159,left,0.906475,calculator    ,5,9,4,1,3,726.610225,726.610225,729.10807,0,4,4,4,1,159,5,1,calculator    ,dress         ,html/resources/sequences_IDs/A/09_calculator.jpg,html/resources/sequences_IDs/A/07_dress.jpg,9,7,4,2,3,2,8,6,0,74,,,,,,,,,,,,,,,,,,,,
,,,,,74,2020-07-04_18h30.33.343,retriever_ti,2020.1.3,Win32,60,Chrome,1366,768,,,,,,,,,,,,,,,,,3,,,,,,,,,,,,,,,,,,,,,,,,,,,729.72664,160,right,0.63966,parrot      ,6,5,5,1,3,729.743805,729.743805,732.241215,0,5,5,5,1,160,1,6,dress         ,parrot      ,html/resources/sequences_IDs/A/07_dress.jpg,html/resources/sequences_IDs/B/05_parrot.jpg,7,5,3,2,2,1,6,4,0,74,,,,,,,,,,,,,,,,,,,,
,,,,,74,2020-07-04_18h30.33.343,retriever_ti,2020.1.3,Win32,60,Chrome,1366,768,,,,,,,,,,,,,,,,,3,,,,,,,,,,,,,,,,,,,,,,,,,,,732.858935,161,right,0.65464,giraffe     ,4,3,2,1,3,732.876565,732.876565,735.37438,0,6,6,6,1,161,2,4,slipper     ,giraffe     ,html/resources/sequences_IDs/B/08_slipper.jpg,html/resources/sequences_IDs/B/03_giraffe.jpg,8,3,3,2,1,1,7,3,0,74,,,,,,,,,,,,,,,,,,,,
,,,,,74,2020-07-04_18h30.33.343,retriever_ti,2020.1.3,Win32,60,Chrome,1366,768,,,,,,,,,,,,,,,,,3,,,,,,,,,,,,,,,,,,,,,,,,,,,735.993035,162,right,0.553065,seaturtle     ,3,2,1,1,1,736.02649,736.02649,738.52392,0,7,7,7,1,162,2,3,slipper     ,seaturtle     ,html/resources/sequences_IDs/B/08_slipper.jpg,html/resources/sequences_IDs/A/02_seaturtle.jpg,8,2,3,2,2,1,7,2,0,74,,,,,,,,,,,,,,,,,,,,
,,,,,74,2020-07-04_18h30.33.343,retriever_ti,2020.1.3,Win32,60,Chrome,1366,768,,,,,,,,,,,,,,,,,3,,,,,,,,,,,,,,,,,,,,,,,,,,,739.62469,163,left,0.529965,seaturtle     ,3,2,-5,0,3,739.659855,739.659855,742.156905,0,8,8,8,1,163,3,8,seaturtle     ,gloves      ,html/resources/sequences_IDs/A/02_seaturtle.jpg,html/resources/sequences_IDs/B/06_gloves.jpg,2,6,2,1,3,2,2,5,0,74,,,,,,,,,,,,,,,,,,,,
,,,,,74,2020-07-04_18h30.33.343,retriever_ti,2020.1.3,Win32,60,Chrome,1366,768,,,,,,,,,,,,,,,,,3,,,,,,,,,,,,,,,,,,,,,,,,,,,742.77558,164,left,0.441385,wolf          ,7,1,6,1,3,742.7928,742.7928,745.29017,0,9,9,9,1,164,7,1,wolf          ,dress         ,html/resources/sequences_IDs/A/01_wolf.jpg,html/resources/sequences_IDs/A/07_dress.jpg,1,7,1,1,3,2,1,6,0,74,,,,,,,,,,,,,,,,,,,,
,,,,,74,2020-07-04_18h30.33.343,retriever_ti,2020.1.3,Win32,60,Chrome,1366,768,,,,,,,,,,,,,,,,,3,,,,,,,,,,,,,,,,,,,,,,,,,,,745.90768,165,left,0.42431,wolf          ,7,1,-1,0,1,745.942415,745.942415,748.440025,0,10,10,10,1,165,7,8,wolf          ,gloves      ,html/resources/sequences_IDs/A/01_wolf.jpg,html/resources/sequences_IDs/B/06_gloves.jpg,1,6,1,1,3,2,1,5,1,74,,,,,,,,,,,,,,,,,,,,
,,,,,74,2020-07-04_18h30.33.343,retriever_ti,2020.1.3,Win32,60,Chrome,1366,768,,,,,,,,,,,,,,,,,3,,,,,,,,,,,,,,,,,,,,,,,,,,,749.542415,166,right,0.42095,giraffe     ,4,3,-1,0,0,749.5593,749.5593,752.07288,0,11,11,11,1,166,5,4,calculator    ,giraffe     ,html/resources/sequences_IDs/A/09_calculator.jpg,html/resources/sequences_IDs/B/03_giraffe.jpg,9,3,4,2,1,1,8,3,0,74,,,,,,,,,,,,,,,,,,,,
,,,,,74,2020-07-04_18h30.33.343,retriever_ti,2020.1.3,Win32,60,Chrome,1366,768,,,,,,,,,,,,,,,,,3,,,,,,,,,,,,,,,,,,,,,,,,,,,753.173655,167,right,0.950165,calculator    ,5,9,4,1,3,753.2083,753.2083,755.706185,0,12,12,12,1,167,1,5,dress         ,calculator    ,html/resources/sequences_IDs/A/07_dress.jpg,html/resources/sequences_IDs/A/09_calculator.jpg,7,9,3,2,4,2,6,8,0,74,,,,,,,,,,,,,,,,,,,,
,,,,,74,2020-07-04_18h30.33.343,retriever_ti,2020.1.3,Win32,60,Chrome,1366,768,,,,,,,,,,,,,,,,,3,,,,,,,,,,,,,,,,,,,,,,,,,,,756.32457,168,left,0.70415,wolf          ,7,1,1,1,1,756.34189,756.34189,758.839685,0,13,13,13,1,168,7,6,wolf          ,parrot      ,html/resources/sequences_IDs/A/01_wolf.jpg,html/resources/sequences_IDs/B/05_parrot.jpg,1,5,1,1,2,1,1,4,0,74,,,,,,,,,,,,,,,,,,,,
,,,,,74,2020-07-04_18h30.33.343,retriever_ti,2020.1.3,Win32,60,Chrome,1366,768,,,,,,,,,,,,,,,,,3,,,,,,,,,,,,,,,,,,,,,,,,,,,759.941205,169,right,0.61534,seaturtle     ,3,2,-3,0,3,759.976015,759.976015,762.472265,0,14,14,14,1,169,6,3,parrot      ,seaturtle     ,html/resources/sequences_IDs/B/05_parrot.jpg,html/resources/sequences_IDs/A/02_seaturtle.jpg,5,2,2,1,2,1,4,2,0,74,,,,,,,,,,,,,,,,,,,,
,,,,,74,2020-07-04_18h30.33.343,retriever_ti,2020.1.3,Win32,60,Chrome,1366,768,,,,,,,,,,,,,,,,,3,,,,,,,,,,,,,,,,,,,,,,,,,,,763.090645,170,right,0.47052,giraffe     ,4,3,-1,0,0,763.107475,763.107475,765.606085,0,15,15,15,1,170,5,4,calculator    ,giraffe     ,html/resources/sequences_IDs/A/09_calculator.jpg,html/resources/sequences_IDs/B/03_giraffe.jpg,9,3,4,2,1,1,8,3,0,74,,,,,,,,,,,,,,,,,,,,
,,,,,74,2020-07-04_18h30.33.343,retriever_ti,2020.1.3,Win32,60,Chrome,1366,768,,,,,,,,,,,,,,,,,3,,,,,,,,,,,,,,,,,,,,,,,,,,,766.70691,171,right,0.686395,wolf          ,7,1,5,1,3,766.725135,766.725135,769.222045,0,16,16,16,1,171,2,7,slipper     ,wolf          ,html/resources/sequences_IDs/B/08_slipper.jpg,html/resources/sequences_IDs/A/01_wolf.jpg,8,1,3,2,1,1,7,1,0,74,,,,,,,,,,,,,,,,,,,,
,,,,,74,2020-07-04_18h30.33.343,retriever_ti,2020.1.3,Win32,60,Chrome,1366,768,,,,,,,,,,,,,,,,,3,,,,,,,,,,,,,,,,,,,,,,,,,,,769.840245,172,left,1.299735,seaturtle     ,3,2,-1,0,0,769.87405,769.87405,772.371475,0,17,17,17,1,172,3,4,seaturtle     ,giraffe     ,html/resources/sequences_IDs/A/02_seaturtle.jpg,html/resources/sequences_IDs/B/03_giraffe.jpg,2,3,2,1,1,1,2,3,0,74,,,,,,,,,,,,,,,,,,,,
,,,,,74,2020-07-04_18h30.33.343,retriever_ti,2020.1.3,Win32,60,Chrome,1366,768,,,,,,,,,,,,,,,,,3,,,,,,,,,,,,,,,,,,,,,,,,,,,773.47235,173,left,0.56965,wolf          ,7,1,-1,0,0,773.490275,773.490275,775.987855,0,18,18,18,1,173,7,8,wolf          ,gloves      ,html/resources/sequences_IDs/A/01_wolf.jpg,html/resources/sequences_IDs/B/06_gloves.jpg,1,6,1,1,3,2,1,5,0,74,,,,,,,,,,,,,,,,,,,,
,,,,,74,2020-07-04_18h30.33.343,retriever_ti,2020.1.3,Win32,60,Chrome,1366,768,,,,,,,,,,,,,,,,,3,,,,,,,,,,,,,,,,,,,,,,,,,,,777.08949,174,right,0.882985,wolf          ,7,1,3,1,3,777.10642,777.10642,779.60433,0,19,19,19,1,174,4,7,giraffe     ,wolf          ,html/resources/sequences_IDs/B/03_giraffe.jpg,html/resources/sequences_IDs/A/01_wolf.jpg,3,1,1,1,1,1,3,1,0,74,,,,,,,,,,,,,,,,,,,,
,,,,,74,2020-07-04_18h30.33.343,retriever_ti,2020.1.3,Win32,60,Chrome,1366,768,,,,,,,,,,,,,,,,,3,,,,,,,,,,,,,,,,,,,,,,,,,,,780.222055,175,left,0.79224,calculator    ,5,9,3,1,3,780.25672,780.25672,782.753575,0,20,20,20,1,175,5,2,calculator    ,slipper     ,html/resources/sequences_IDs/A/09_calculator.jpg,html/resources/sequences_IDs/B/08_slipper.jpg,9,8,4,2,3,2,8,7,0,74,,,,,,,,,,,,,,,,,,,,
,,,,,74,2020-07-04_18h30.33.343,retriever_ti,2020.1.3,Win32,60,Chrome,1366,768,,,,,,,,,,,,,,,,,3,,,,,,,,,,,,,,,,,,,,,,,,,,,783.371465,176,left,0.901995,wolf          ,7,1,5,1,3,783.40542,783.40542,785.903895,0,21,21,21,1,176,7,2,wolf          ,slipper     ,html/resources/sequences_IDs/A/01_wolf.jpg,html/resources/sequences_IDs/B/08_slipper.jpg,1,8,1,1,3,2,1,7,0,74,,,,,,,,,,,,,,,,,,,,
,,,,,74,2020-07-04_18h30.33.343,retriever_ti,2020.1.3,Win32,60,Chrome,1366,768,,,,,,,,,,,,,,,,,3,,,,,,,,,,,,,,,,,,,,,,,,,,,786.521495,177,left,0.74671,parrot      ,6,5,1,1,1,786.53912,786.53912,789.036975,0,22,22,22,1,177,6,5,parrot      ,calculator    ,html/resources/sequences_IDs/B/05_parrot.jpg,html/resources/sequences_IDs/A/09_calculator.jpg,5,9,2,1,4,2,4,8,0,74,,,,,,,,,,,,,,,,,,,,
,,,,,74,2020-07-04_18h30.33.343,retriever_ti,2020.1.3,Win32,60,Chrome,1366,768,,,,,,,,,,,,,,,,,3,,,,,,,,,,,,,,,,,,,,,,,,,,,790.139365,178,left,1.001265,wolf          ,7,1,4,1,3,790.17226,790.17226,792.671265,0,23,23,23,1,178,7,3,wolf          ,seaturtle     ,html/resources/sequences_IDs/A/01_wolf.jpg,html/resources/sequences_IDs/A/02_seaturtle.jpg,1,2,1,1,2,1,1,2,0,74,,,,,,,,,,,,,,,,,,,,
,,,,,74,2020-07-04_18h30.33.343,retriever_ti,2020.1.3,Win32,60,Chrome,1366,768,,,,,,,,,,,,,,,,,3,,,,,,,,,,,,,,,,,,,,,,,,,,,793.28886,179,left,0.693225,seaturtle     ,3,2,1,1,1,793.30646,793.30646,795.80304,0,24,24,24,1,179,3,2,seaturtle     ,slipper     ,html/resources/sequences_IDs/A/02_seaturtle.jpg,html/resources/sequences_IDs/B/08_slipper.jpg,2,8,2,1,3,2,2,7,0,74,,,,,,,,,,,,,,,,,,,,
,,,,,74,2020-07-04_18h30.33.343,retriever_ti,2020.1.3,Win32,60,Chrome,1366,768,,,,,,,,,,,,,,,,,3,,,,,,,,,,,,,,,,,,,,,,,,,,,796.905105,180,right,0.43024,seaturtle     ,3,2,-5,0,3,796.923205,796.923205,799.41937,0,25,25,25,1,180,8,3,gloves      ,seaturtle     ,html/resources/sequences_IDs/B/06_gloves.jpg,html/resources/sequences_IDs/A/02_seaturtle.jpg,6,2,3,2,2,1,5,2,0,74,,,,,,,,,,,,,,,,,,,,
,,,,,74,2020-07-04_18h30.33.343,retriever_ti,2020.1.3,Win32,60,Chrome,1366,768,,,,,,,,,,,,,,,,,3,,,,,,,,,,,,,,,,,,,,,,,,,,,800.036835,181,left,0.64225,giraffe     ,4,3,2,1,3,800.05469,800.05469,802.553185,0,26,26,26,1,181,4,2,giraffe     ,slipper     ,html/resources/sequences_IDs/B/03_giraffe.jpg,html/resources/sequences_IDs/B/08_slipper.jpg,3,8,1,1,3,2,3,7,0,74,,,,,,,,,,,,,,,,,,,,
,,,,,74,2020-07-04_18h30.33.343,retriever_ti,2020.1.3,Win32,60,Chrome,1366,768,,,,,,,,,,,,,,,,,3,,,,,,,,,,,,,,,,,,,,,,,,,,,803.172305,182,left,0.523755,seaturtle     ,3,2,-2,0,3,803.188575,803.188575,805.68561,0,27,27,27,1,182,3,5,seaturtle     ,calculator    ,html/resources/sequences_IDs/A/02_seaturtle.jpg,html/resources/sequences_IDs/A/09_calculator.jpg,2,9,2,1,4,2,2,8,0,74,,,,,,,,,,,,,,,,,,,,
,,,,,74,2020-07-04_18h30.33.343,retriever_ti,2020.1.3,Win32,60,Chrome,1366,768,,,,,,,,,,,,,,,,,3,,,,,,,,,,,,,,,,,,,,,,,,,,,806.30296,183,left,0.64371,wolf          ,7,1,2,1,3,806.33751,806.33751,808.836265,0,28,28,28,1,183,7,5,wolf          ,calculator    ,html/resources/sequences_IDs/A/01_wolf.jpg,html/resources/sequences_IDs/A/09_calculator.jpg,1,9,1,1,4,2,1,8,0,74,,,,,,,,,,,,,,,,,,,,
,,,,,74,2020-07-04_18h30.33.343,retriever_ti,2020.1.3,Win32,60,Chrome,1366,768,,,,,,,,,,,,,,,,,3,,,,,,,,,,,,,,,,,,,,,,,,,,,809.45519,184,left,0.52241,wolf          ,7,1,-1,0,0,809.47217,809.47217,811.96873,0,29,29,29,1,184,7,8,wolf          ,gloves      ,html/resources/sequences_IDs/A/01_wolf.jpg,html/resources/sequences_IDs/B/06_gloves.jpg,1,6,1,1,3,2,1,5,0,74,,,,,,,,,,,,,,,,,,,,
,,,,,74,2020-07-04_18h30.33.343,retriever_ti,2020.1.3,Win32,60,Chrome,1366,768,,,,,,,,,,,,,,,,,3,,,,,,,,,,,,,,,,,,,,,,,,,,,813.069595,185,left,0.713875,gloves      ,8,6,1,1,1,813.10472,813.10472,815.602245,0,30,30,30,1,185,8,7,gloves      ,wolf          ,html/resources/sequences_IDs/B/06_gloves.jpg,html/resources/sequences_IDs/A/01_wolf.jpg,6,1,3,2,1,1,5,1,0,74,,,,,,,,,,,,,,,,,,,,
,,,,,74,2020-07-04_18h30.33.343,retriever_ti,2020.1.3,Win32,60,Chrome,1366,768,,,,,,,,,,,,,,,,,3,,,,,,,,,,,,,,,,,,,,,,,,,,,816.70475,186,right,0.546875,gloves      ,8,6,3,1,3,816.73827,816.73827,819.2346,0,31,31,31,1,186,5,8,calculator    ,gloves      ,html/resources/sequences_IDs/A/09_calculator.jpg,html/resources/sequences_IDs/B/06_gloves.jpg,9,6,4,2,3,2,8,5,0,74,,,,,,,,,,,,,,,,,,,,
,,,,,74,2020-07-04_18h30.33.343,retriever_ti,2020.1.3,Win32,60,Chrome,1366,768,,,,,,,,,,,,,,,,,3,,,,,,,,,,,,,,,,,,,,,,,,,,,819.852065,187,left,0.531065,seaturtle     ,3,2,1,1,0,819.87005,819.87005,822.36771,0,32,32,32,1,187,3,2,seaturtle     ,slipper     ,html/resources/sequences_IDs/A/02_seaturtle.jpg,html/resources/sequences_IDs/B/08_slipper.jpg,2,8,2,1,3,2,2,7,1,74,,,,,,,,,,,,,,,,,,,,
,,,,,74,2020-07-04_18h30.33.343,retriever_ti,2020.1.3,Win32,60,Chrome,1366,768,,,,,,,,,,,,,,,,,3,,,,,,,,,,,,,,,,,,,,,,,,,,,823.469905,188,left,0.586315,giraffe     ,4,3,3,1,3,823.50324,823.50324,826.00042,0,33,33,33,1,188,4,1,giraffe     ,dress         ,html/resources/sequences_IDs/B/03_giraffe.jpg,html/resources/sequences_IDs/A/07_dress.jpg,3,7,1,1,3,2,3,6,0,74,,,,,,,,,,,,,,,,,,,,
,,,,,74,2020-07-04_18h30.33.343,retriever_ti,2020.1.3,Win32,60,Chrome,1366,768,,,,,,,,,,,,,,,,,3,,,,,,,,,,,,,,,,,,,,,,,,,,,826.617675,189,left,0.432115,seaturtle     ,3,2,-3,0,3,826.65189,826.65189,829.150705,0,34,34,34,1,189,3,6,seaturtle     ,parrot      ,html/resources/sequences_IDs/A/02_seaturtle.jpg,html/resources/sequences_IDs/B/05_parrot.jpg,2,5,2,1,2,1,2,4,0,74,,,,,,,,,,,,,,,,,,,,
,,,,,74,2020-07-04_18h30.33.343,retriever_ti,2020.1.3,Win32,60,Chrome,1366,768,,,,,,,,,,,,,,,,,3,,,,,,,,,,,,,,,,,,,,,,,,,,,829.76963,190,right,0.40651,wolf          ,7,1,2,1,3,829.786205,829.786205,832.284515,0,35,35,35,1,190,5,7,calculator    ,wolf          ,html/resources/sequences_IDs/A/09_calculator.jpg,html/resources/sequences_IDs/A/01_wolf.jpg,9,1,4,2,1,1,8,1,0,74,,,,,,,,,,,,,,,,,,,,
,,,,,74,2020-07-04_18h30.33.343,retriever_ti,2020.1.3,Win32,60,Chrome,1366,768,,,,,,,,,,,,,,,,,3,,,,,,,,,,,,,,,,,,,,,,,,,,,832.901935,191,left,0.6667,giraffe     ,4,3,-1,0,1,832.93647,832.93647,835.43355,0,36,36,36,1,191,4,5,giraffe     ,calculator    ,html/resources/sequences_IDs/B/03_giraffe.jpg,html/resources/sequences_IDs/A/09_calculator.jpg,3,9,1,1,4,2,3,8,1,74,,,,,,,,,,,,,,,,,,,,
,,,,,74,2020-07-04_18h30.33.343,retriever_ti,2020.1.3,Win32,60,Chrome,1366,768,,,,,,,,,,,,,,,,,3,,,,,,,,,,,,,,,,,,,,,,,,,,,836.535455,192,left,0.69049,parrot      ,6,5,5,1,3,836.55255,836.55255,839.049915,0,37,37,37,1,192,6,1,parrot      ,dress         ,html/resources/sequences_IDs/B/05_parrot.jpg,html/resources/sequences_IDs/A/07_dress.jpg,5,7,2,1,3,2,4,6,0,74,,,,,,,,,,,,,,,,,,,,
,,,,,74,2020-07-04_18h30.33.343,retriever_ti,2020.1.3,Win32,60,Chrome,1366,768,,,,,,,,,,,,,,,,,3,,,,,,,,,,,,,,,,,,,,,,,,,,,839.667455,193,right,0.465535,wolf          ,7,1,1,1,1,839.685515,839.685515,842.18368,0,38,38,38,1,193,6,7,parrot      ,wolf          ,html/resources/sequences_IDs/B/05_parrot.jpg,html/resources/sequences_IDs/A/01_wolf.jpg,5,1,2,1,1,1,4,1,0,74,,,,,,,,,,,,,,,,,,,,
,,,,,74,2020-07-04_18h30.33.343,retriever_ti,2020.1.3,Win32,60,Chrome,1366,768,,,,,,,,,,,,,,,,,3,,,,,,,,,,,,,,,,,,,,,,,,,,,843.285785,194,right,0.411615,parrot      ,6,5,1,1,1,843.30302,843.30302,845.799295,0,39,39,39,1,194,5,6,calculator    ,parrot      ,html/resources/sequences_IDs/A/09_calculator.jpg,html/resources/sequences_IDs/B/05_parrot.jpg,9,5,4,2,2,1,8,4,0,74,,,,,,,,,,,,,,,,,,,,
,,,,,74,2020-07-04_18h30.33.343,retriever_ti,2020.1.3,Win32,60,Chrome,1366,768,,,,,,,,,,,,,,,,,3,,,,,,,,,,,,,,,,,,,,,,,,,,,846.899595,195,left,0.383505,parrot      ,6,5,-2,0,3,846.917625,846.917625,849.41565,0,40,40,40,1,195,6,8,parrot      ,gloves      ,html/resources/sequences_IDs/B/05_parrot.jpg,html/resources/sequences_IDs/B/06_gloves.jpg,5,6,2,1,3,2,4,5,0,74,,,,,,,,,,,,,,,,,,,,
,,,,,74,2020-07-04_18h30.33.343,retriever_ti,2020.1.3,Win32,60,Chrome,1366,768,,,,,,,,,,,,,,,,,3,,,,,,,,,,,,,,,,,,,,,,,,,,,850.03442,196,left,0.595035,wolf          ,7,1,1,1,1,850.051525,850.051525,852.54876,0,41,41,41,1,196,7,6,wolf          ,parrot      ,html/resources/sequences_IDs/A/01_wolf.jpg,html/resources/sequences_IDs/B/05_parrot.jpg,1,5,1,1,2,1,1,4,0,74,,,,,,,,,,,,,,,,,,,,
,,,,,74,2020-07-04_18h30.33.343,retriever_ti,2020.1.3,Win32,60,Chrome,1366,768,,,,,,,,,,,,,,,,,3,,,,,,,,,,,,,,,,,,,,,,,,,,,853.649775,197,right,0.450125,wolf          ,7,1,4,1,3,853.684515,853.684515,856.181895,0,42,42,42,1,197,3,7,seaturtle     ,wolf          ,html/resources/sequences_IDs/A/02_seaturtle.jpg,html/resources/sequences_IDs/A/01_wolf.jpg,2,1,2,1,1,1,2,1,0,74,,,,,,,,,,,,,,,,,,,,
,,,,,74,2020-07-04_18h30.33.343,retriever_ti,2020.1.3,Win32,60,Chrome,1366,768,,,,,,,,,,,,,,,,,3,,,,,,,,,,,,,,,,,,,,,,,,,,,856.785445,198,left,0.409135,parrot      ,6,5,4,1,3,856.802195,856.802195,859.298275,0,43,43,43,1,198,6,2,parrot      ,slipper     ,html/resources/sequences_IDs/B/05_parrot.jpg,html/resources/sequences_IDs/B/08_slipper.jpg,5,8,2,1,3,2,4,7,0,74,,,,,,,,,,,,,,,,,,,,
,,,,,74,2020-07-04_18h30.33.343,retriever_ti,2020.1.3,Win32,60,Chrome,1366,768,,,,,,,,,,,,,,,,,3,,,,,,,,,,,,,,,,,,,,,,,,,,,859.915965,199,right,0.61109,parrot      ,6,5,2,1,3,859.93356,859.93356,862.431545,0,44,44,44,1,199,4,6,giraffe     ,parrot      ,html/resources/sequences_IDs/B/03_giraffe.jpg,html/resources/sequences_IDs/B/05_parrot.jpg,3,5,1,1,2,1,3,4,0,74,,,,,,,,,,,,,,,,,,,,
,,,,,74,2020-07-04_18h30.33.343,retriever_ti,2020.1.3,Win32,60,Chrome,1366,768,,,,,,,,,,,,,,,,,3,,,,,,,,,,,,,,,,,,,,,,,,,,,863.05007,200,right,0.61645,seaturtle     ,3,2,-1,0,0,863.083825,863.083825,865.582105,0,45,45,45,1,200,4,3,giraffe     ,seaturtle     ,html/resources/sequences_IDs/B/03_giraffe.jpg,html/resources/sequences_IDs/A/02_seaturtle.jpg,3,2,1,1,2,1,3,2,0,74,,,,,,,,,,,,,,,,,,,,
,,,,,74,2020-07-04_18h30.33.343,retriever_ti,2020.1.3,Win32,60,Chrome,1366,768,,,,,,,,,,,,,,,,,3,,,,,,,,,,,,,,,,,,,,,,,,,,,866.68301,201,left,0.45416,giraffe     ,4,3,-1,0,0,866.718055,866.718055,869.21444,0,46,46,46,1,201,4,5,giraffe     ,calculator    ,html/resources/sequences_IDs/B/03_giraffe.jpg,html/resources/sequences_IDs/A/09_calculator.jpg,3,9,1,1,4,2,3,8,0,74,,,,,,,,,,,,,,,,,,,,
,,,,,74,2020-07-04_18h30.33.343,retriever_ti,2020.1.3,Win32,60,Chrome,1366,768,,,,,,,,,,,,,,,,,3,,,,,,,,,,,,,,,,,,,,,,,,,,,870.31666,202,left,0.484745,parrot      ,6,5,1,1,0,870.333125,870.333125,872.83061,0,47,47,47,1,202,6,5,parrot      ,calculator    ,html/resources/sequences_IDs/B/05_parrot.jpg,html/resources/sequences_IDs/A/09_calculator.jpg,5,9,2,1,4,2,4,8,1,74,,,,,,,,,,,,,,,,,,,,
,,,,,74,2020-07-04_18h30.33.343,retriever_ti,2020.1.3,Win32,60,Chrome,1366,768,,,,,,,,,,,,,,,,,3,,,,,,,,,,,,,,,,,,,,,,,,,,,873.931185,203,right,0.43882,wolf          ,7,1,-1,0,0,873.966065,873.966065,876.46354,0,48,48,48,1,203,8,7,gloves      ,wolf          ,html/resources/sequences_IDs/B/06_gloves.jpg,html/resources/sequences_IDs/A/01_wolf.jpg,6,1,3,2,1,1,5,1,0,74,,,,,,,,,,,,,,,,,,,,
,,,,,74,2020-07-04_18h30.33.343,retriever_ti,2020.1.3,Win32,60,Chrome,1366,768,,,,,,,,,,,,,,,,,3,,,,,,,,,,,,,,,,,,,,,,,,,,,877.56563,204,left,0.515275,giraffe     ,4,3,-1,0,0,877.599965,877.599965,880.09667,0,49,49,49,1,204,4,5,giraffe     ,calculator    ,html/resources/sequences_IDs/B/03_giraffe.jpg,html/resources/sequences_IDs/A/09_calculator.jpg,3,9,1,1,4,2,3,8,0,74,,,,,,,,,,,,,,,,,,,,
,,,,,74,2020-07-04_18h30.33.343,retriever_ti,2020.1.3,Win32,60,Chrome,1366,768,,,,,,,,,,,,,,,,,3,,,,,,,,,,,,,,,,,,,,,,,,,,,881.197715,205,left,0.53939,seaturtle     ,3,2,-1,0,1,881.232505,881.232505,883.730555,0,50,50,50,1,205,3,4,seaturtle     ,giraffe     ,html/resources/sequences_IDs/A/02_seaturtle.jpg,html/resources/sequences_IDs/B/03_giraffe.jpg,2,3,2,1,1,1,2,3,1,74,,,,,,,,,,,,,,,,,,,,
,,,,,74,2020-07-04_18h30.33.343,retriever_ti,2020.1.3,Win32,60,Chrome,1366,768,,,,,,,,,,,,,,,,,3,,,,,,,,,,,,,,,,,,,,,,,,,,,884.832775,206,left,0.839825,gloves      ,8,6,6,1,3,884.8666,884.8666,887.362905,0,51,51,51,1,206,8,2,gloves      ,slipper     ,html/resources/sequences_IDs/B/06_gloves.jpg,html/resources/sequences_IDs/B/08_slipper.jpg,6,8,3,2,3,2,5,7,0,74,,,,,,,,,,,,,,,,,,,,
,,,,,74,2020-07-04_18h30.33.343,retriever_ti,2020.1.3,Win32,60,Chrome,1366,768,,,,,,,,,,,,,,,,,3,,,,,,,,,,,,,,,,,,,,,,,,,,,887.980345,207,right,0.679665,slipper     ,2,8,1,1,0,887.9984,887.9984,890.495995,0,52,52,52,1,207,1,2,dress         ,slipper     ,html/resources/sequences_IDs/A/07_dress.jpg,html/resources/sequences_IDs/B/08_slipper.jpg,7,8,3,2,3,2,6,7,1,74,,,,,,,,,,,,,,,,,,,,
,,,,,74,2020-07-04_18h30.33.343,retriever_ti,2020.1.3,Win32,60,Chrome,1366,768,,,,,,,,,,,,,,,,,3,,,,,,,,,,,,,,,,,,,,,,,,,,,891.597915,208,left,0.54727,slipper     ,2,8,-6,0,3,891.614805,891.614805,894.112205,0,53,53,53,1,208,2,8,slipper     ,gloves      ,html/resources/sequences_IDs/B/08_slipper.jpg,html/resources/sequences_IDs/B/06_gloves.jpg,8,6,3,2,3,2,7,5,0,74,,,,,,,,,,,,,,,,,,,,
,,,,,74,2020-07-04_18h30.33.343,retriever_ti,2020.1.3,Win32,60,Chrome,1366,768,,,,,,,,,,,,,,,,,3,,,,,,,,,,,,,,,,,,,,,,,,,,,894.72968,209,left,0.78621,dress         ,1,7,-1,0,0,894.764575,894.764575,897.262055,0,54,54,54,1,209,1,2,dress         ,slipper     ,html/resources/sequences_IDs/A/07_dress.jpg,html/resources/sequences_IDs/B/08_slipper.jpg,7,8,3,2,3,2,6,7,0,74,,,,,,,,,,,,,,,,,,,,
,,,,,74,2020-07-04_18h30.33.343,retriever_ti,2020.1.3,Win32,60,Chrome,1366,768,,,,,,,,,,,,,,,,,3,,,,,,,,,,,,,,,,,,,,,,,,,,,898.36411,210,left,0.59053,gloves      ,8,6,3,1,3,898.380835,898.380835,900.87865,0,55,55,55,1,210,8,5,gloves      ,calculator    ,html/resources/sequences_IDs/B/06_gloves.jpg,html/resources/sequences_IDs/A/09_calculator.jpg,6,9,3,2,4,2,5,8,0,74,,,,,,,,,,,,,,,,,,,,
,,,,,74,2020-07-04_18h30.33.343,retriever_ti,2020.1.3,Win32,60,Chrome,1366,768,,,,,,,,,,,,,,,,,3,,,,,,,,,,,,,,,,,,,,,,,,,,,901.49597,211,left,0.76448,wolf          ,7,1,1,1,0,901.53154,901.53154,904.0282,0,56,56,56,1,211,7,6,wolf          ,parrot      ,html/resources/sequences_IDs/A/01_wolf.jpg,html/resources/sequences_IDs/B/05_parrot.jpg,1,5,1,1,2,1,1,4,1,74,,,,,,,,,,,,,,,,,,,,
,,,,,74,2020-07-04_18h30.33.343,retriever_ti,2020.1.3,Win32,60,Chrome,1366,768,,,,,,,,,,,,,,,,,3,,,,,,,,,,,,,,,,,,,,,,,,,,,905.130265,212,left,0.67774,slipper     ,2,8,1,1,1,905.16417,905.16417,907.661275,0,57,57,57,1,212,2,1,slipper     ,dress         ,html/resources/sequences_IDs/B/08_slipper.jpg,html/resources/sequences_IDs/A/07_dress.jpg,8,7,3,2,3,2,7,6,0,74,,,,,,,,,,,,,,,,,,,,
,,,,,74,2020-07-04_18h30.33.343,retriever_ti,2020.1.3,Win32,60,Chrome,1366,768,,,,,,,,,,,,,,,,,3,,,,,,,,,,,,,,,,,,,,,,,,,,,908.762435,213,left,1.16886,seaturtle     ,3,2,2,1,3,908.79685,908.79685,911.2953,0,58,58,58,1,213,3,1,seaturtle     ,dress         ,html/resources/sequences_IDs/A/02_seaturtle.jpg,html/resources/sequences_IDs/A/07_dress.jpg,2,7,2,1,3,2,2,6,0,74,,,,,,,,,,,,,,,,,,,,
,,,,,74,2020-07-04_18h30.33.343,retriever_ti,2020.1.3,Win32,60,Chrome,1366,768,,,,,,,,,,,,,,,,,3,,,,,,,,,,,,,,,,,,,,,,,,,,,911.91415,214,right,1.366865,calculator    ,5,9,3,1,3,911.931005,911.931005,914.427435,0,59,59,59,1,214,2,5,slipper     ,calculator    ,html/resources/sequences_IDs/B/08_slipper.jpg,html/resources/sequences_IDs/A/09_calculator.jpg,8,9,3,2,4,2,7,8,0,74,,,,,,,,,,,,,,,,,,,,
,,,,,74,2020-07-04_18h30.33.343,retriever_ti,2020.1.3,Win32,60,Chrome,1366,768,,,,,,,,,,,,,,,,,3,,,,,,,,,,,,,,,,,,,,,,,,,,,915.04479,215,left,0.47469,seaturtle     ,3,2,1,1,1,915.06264,915.06264,917.56082,0,60,60,60,1,215,3,2,seaturtle     ,slipper     ,html/resources/sequences_IDs/A/02_seaturtle.jpg,html/resources/sequences_IDs/B/08_slipper.jpg,2,8,2,1,3,2,2,7,0,74,,,,,,,,,,,,,,,,,,,,
,,,,,74,2020-07-04_18h30.33.343,retriever_ti,2020.1.3,Win32,60,Chrome,1366,768,,,,,,,,,,,,,,,,,3,,,,,,,,,,,,,,,,,,,,,,,,,,,918.6629,216,right,0.93101,giraffe     ,4,3,-2,0,3,918.68003,918.68003,921.17693,0,61,61,61,1,216,6,4,parrot      ,giraffe     ,html/resources/sequences_IDs/B/05_parrot.jpg,html/resources/sequences_IDs/B/03_giraffe.jpg,5,3,2,1,1,1,4,3,0,74,,,,,,,,,,,,,,,,,,,,
,,,,,74,2020-07-04_18h30.33.343,retriever_ti,2020.1.3,Win32,60,Chrome,1366,768,,,,,,,,,,,,,,,,,3,,,,,,,,,,,,,,,,,,,,,,,,,,,921.793755,217,right,1.424705,slipper     ,2,8,1,1,1,921.829305,921.829305,924.326665,0,62,62,62,1,217,1,2,dress         ,slipper     ,html/resources/sequences_IDs/A/07_dress.jpg,html/resources/sequences_IDs/B/08_slipper.jpg,7,8,3,2,3,2,6,7,0,74,,,,,,,,,,,,,,,,,,,,
,,,,,74,2020-07-04_18h30.33.343,retriever_ti,2020.1.3,Win32,60,Chrome,1366,768,,,,,,,,,,,,,,,,,3,,,,,,,,,,,,,,,,,,,,,,,,,,,925.428675,218,right,1.29352,parrot      ,6,5,4,1,3,925.44554,925.44554,927.94382,0,63,63,63,1,218,2,6,slipper     ,parrot      ,html/resources/sequences_IDs/B/08_slipper.jpg,html/resources/sequences_IDs/B/05_parrot.jpg,8,5,3,2,2,1,7,4,0,74,,,,,,,,,,,,,,,,,,,,
,,,,,74,2020-07-04_18h30.33.343,retriever_ti,2020.1.3,Win32,60,Chrome,1366,768,,,,,,,,,,,,,,,,,3,,,,,,,,,,,,,,,,,,,,,,,,,,,928.56168,219,right,0.878855,parrot      ,6,5,-2,0,3,928.59625,928.59625,931.09257,0,64,64,64,1,219,8,6,gloves      ,parrot      ,html/resources/sequences_IDs/B/06_gloves.jpg,html/resources/sequences_IDs/B/05_parrot.jpg,6,5,3,2,2,1,5,4,0,74,,,,,,,,,,,,,,,,,,,,
,,,,,74,2020-07-04_18h30.33.343,retriever_ti,2020.1.3,Win32,60,Chrome,1366,768,,,,,,,,,,,,,,,,,3,,,,,,,,,,,,,,,,,,,,,,,,,,,931.694905,220,right,0.554315,dress         ,1,7,-1,0,0,931.71179,931.71179,934.20946,0,65,65,65,1,220,2,1,slipper     ,dress         ,html/resources/sequences_IDs/B/08_slipper.jpg,html/resources/sequences_IDs/A/07_dress.jpg,8,7,3,2,3,2,7,6,0,74,,,,,,,,,,,,,,,,,,,,
,,,,,74,2020-07-04_18h30.33.343,retriever_ti,2020.1.3,Win32,60,Chrome,1366,768,,,,,,,,,,,,,,,,,3,,,,,,,,,,,,,,,,,,,,,,,,,,,935.310285,221,left,0.767095,dress         ,1,7,-3,0,3,935.328235,935.328235,937.82538,0,66,66,66,1,221,1,4,dress         ,giraffe     ,html/resources/sequences_IDs/A/07_dress.jpg,html/resources/sequences_IDs/B/03_giraffe.jpg,7,3,3,2,1,1,6,3,0,74,,,,,,,,,,,,,,,,,,,,
,,,,,74,2020-07-04_18h30.33.343,retriever_ti,2020.1.3,Win32,60,Chrome,1366,768,,,,,,,,,,,,,,,,,3,,,,,,,,,,,,,,,,,,,,,,,,,,,938.47603,222,right,0.52127,seaturtle     ,3,2,-2,0,3,938.49312,938.49312,940.99222,0,67,67,67,1,222,5,3,calculator    ,seaturtle     ,html/resources/sequences_IDs/A/09_calculator.jpg,html/resources/sequences_IDs/A/02_seaturtle.jpg,9,2,4,2,2,1,8,2,0,74,,,,,,,,,,,,,,,,,,,,
,,,,,74,2020-07-04_18h30.33.343,retriever_ti,2020.1.3,Win32,60,Chrome,1366,768,,,,,,,,,,,,,,,,,3,,,,,,,,,,,,,,,,,,,,,,,,,,,941.609835,223,right,0.43762,seaturtle     ,3,2,2,1,3,941.64472,941.64472,944.142705,0,68,68,68,1,223,1,3,dress         ,seaturtle     ,html/resources/sequences_IDs/A/07_dress.jpg,html/resources/sequences_IDs/A/02_seaturtle.jpg,7,2,3,2,2,1,6,2,0,74,,,,,,,,,,,,,,,,,,,,
