instructionsLoop.thisRepN,instructionsLoop.thisTrialN,instructionsLoop.thisN,instructionsLoop.thisIndex,instructionsLoop.ran,participant,date,expName,psychopyVersion,OS,frameRate,browser,xResolution,yResolution,fix_onset,tprac,practiceKey.keys,practiceKey.rt,pracitem_chosen_name,acc_practice,P1_onsetPrac,P2_onsetPrac,onsetFeedbPrac,practiceTrials.thisRepN,practiceTrials.thisTrialN,practiceTrials.thisN,practiceTrials.thisIndex,practiceTrials.ran,P1,P2,Block,LocItem1,LocItem2,NameItem1,NameItem2,key_respAC_prac.keys,key_respAC_prac.corr,key_respAC_prac.rt,AC_acc,Attentions.thisRepN,Attentions.thisTrialN,Attentions.thisN,Attentions.thisIndex,Attentions.ran,Stim,Loc1,Loc2,Loc3,Loc4,CorrAns,keyDisturbed.keys,keyDisturbed.rt,repPractice.thisRepN,repPractice.thisTrialN,repPractice.thisN,repPractice.thisIndex,repPractice.ran,fixcross_onsetMain,trialNumber,key_resp.keys,key_resp.rt,item_chosen_name,item_chosen_value,item_chosen_ID,diff_chosen_minus_reject,acc_real,acc_feedback,P1_onset,P2_onset,feedb_onset,trials.thisRepN,trials.thisTrialN,trials.thisN,trials.thisIndex,trials.ran,Trial,ValueP1,ValueP2,P1name,P2name,P1Loc,P2Loc,P1id,P2id,Micro_categoryP1,Macro_categoryP1,Micro_categoryP2,Macro_categoryP2,ID_sequenceP1,ID_sequenceP2,InverseFb,pNumber,repBlocks.thisRepN,repBlocks.thisTrialN,repBlocks.thisN,repBlocks.thisIndex,repBlocks.ran,key_respAC.keys,key_respAC.corr,key_respAC.rt,trials_AC.thisRepN,trials_AC.thisTrialN,trials_AC.thisN,trials_AC.thisIndex,trials_AC.ran,Bonus,BonusLoop.thisRepN,BonusLoop.thisTrialN,BonusLoop.thisN,BonusLoop.thisIndex,BonusLoop.ran,comments
0,0,0,0,1,75,2020-07-04_19h30.31.560,retriever_ti,2020.1.3,Win32,60,Chrome,1920,1080,,,,,,,,,,,,,,,,,,,,,,,,,,,,,,,,,,,,,,,,,,,,,,,,,,,,,,,,,,,,,,,,,,,,,,,,,,,,,,,,,,,,,,,,,,,,,,,,,,
1,0,1,0,1,75,2020-07-04_19h30.31.560,retriever_ti,2020.1.3,Win32,60,Chrome,1920,1080,,,,,,,,,,,,,,,,,,,,,,,,,,,,,,,,,,,,,,,,,,,,,,,,,,,,,,,,,,,,,,,,,,,,,,,,,,,,,,,,,,,,,,,,,,,,,,,,,,
2,0,2,0,1,75,2020-07-04_19h30.31.560,retriever_ti,2020.1.3,Win32,60,Chrome,1920,1080,,,,,,,,,,,,,,,,,,,,,,,,,,,,,,,,,,,,,,,,,,,,,,,,,,,,,,,,,,,,,,,,,,,,,,,,,,,,,,,,,,,,,,,,,,,,,,,,,,
3,0,3,0,1,75,2020-07-04_19h30.31.560,retriever_ti,2020.1.3,Win32,60,Chrome,1920,1080,,,,,,,,,,,,,,,,,,,,,,,,,,,,,,,,,,,,,,,,,,,,,,,,,,,,,,,,,,,,,,,,,,,,,,,,,,,,,,,,,,,,,,,,,,,,,,,,,,
4,0,4,0,1,75,2020-07-04_19h30.31.560,retriever_ti,2020.1.3,Win32,60,Chrome,1920,1080,,,,,,,,,,,,,,,,,,,,,,,,,,,,,,,,,,,,,,,,,,,,,,,,,,,,,,,,,,,,,,,,,,,,,,,,,,,,,,,,,,,,,,,,,,,,,,,,,,
5,0,5,0,1,75,2020-07-04_19h30.31.560,retriever_ti,2020.1.3,Win32,60,Chrome,1920,1080,,,,,,,,,,,,,,,,,,,,,,,,,,,,,,,,,,,,,,,,,,,,,,,,,,,,,,,,,,,,,,,,,,,,,,,,,,,,,,,,,,,,,,,,,,,,,,,,,,
6,0,6,0,1,75,2020-07-04_19h30.31.560,retriever_ti,2020.1.3,Win32,60,Chrome,1920,1080,,,,,,,,,,,,,,,,,,,,,,,,,,,,,,,,,,,,,,,,,,,,,,,,,,,,,,,,,,,,,,,,,,,,,,,,,,,,,,,,,,,,,,,,,,,,,,,,,,
7,0,7,0,1,75,2020-07-04_19h30.31.560,retriever_ti,2020.1.3,Win32,60,Chrome,1920,1080,,,,,,,,,,,,,,,,,,,,,,,,,,,,,,,,,,,,,,,,,,,,,,,,,,,,,,,,,,,,,,,,,,,,,,,,,,,,,,,,,,,,,,,,,,,,,,,,,,
8,0,8,0,1,75,2020-07-04_19h30.31.560,retriever_ti,2020.1.3,Win32,60,Chrome,1920,1080,,,,,,,,,,,,,,,,,,,,,,,,,,,,,,,,,,,,,,,,,,,,,,,,,,,,,,,,,,,,,,,,,,,,,,,,,,,,,,,,,,,,,,,,,,,,,,,,,,
9,0,9,0,1,75,2020-07-04_19h30.31.560,retriever_ti,2020.1.3,Win32,60,Chrome,1920,1080,,,,,,,,,,,,,,,,,,,,,,,,,,,,,,,,,,,,,,,,,,,,,,,,,,,,,,,,,,,,,,,,,,,,,,,,,,,,,,,,,,,,,,,,,,,,,,,,,,
10,0,10,0,1,75,2020-07-04_19h30.31.560,retriever_ti,2020.1.3,Win32,60,Chrome,1920,1080,,,,,,,,,,,,,,,,,,,,,,,,,,,,,,,,,,,,,,,,,,,,,,,,,,,,,,,,,,,,,,,,,,,,,,,,,,,,,,,,,,,,,,,,,,,,,,,,,,
11,0,11,0,1,75,2020-07-04_19h30.31.560,retriever_ti,2020.1.3,Win32,60,Chrome,1920,1080,,,,,,,,,,,,,,,,,,,,,,,,,,,,,,,,,,,,,,,,,,,,,,,,,,,,,,,,,,,,,,,,,,,,,,,,,,,,,,,,,,,,,,,,,,,,,,,,,,
12,0,12,0,1,75,2020-07-04_19h30.31.560,retriever_ti,2020.1.3,Win32,60,Chrome,1920,1080,,,,,,,,,,,,,,,,,,,,,,,,,,,,,,,,,,,,,,,,,,,,,,,,,,,,,,,,,,,,,,,,,,,,,,,,,,,,,,,,,,,,,,,,,,,,,,,,,,
13,0,13,0,1,75,2020-07-04_19h30.31.560,retriever_ti,2020.1.3,Win32,60,Chrome,1920,1080,,,,,,,,,,,,,,,,,,,,,,,,,,,,,,,,,,,,,,,,,,,,,,,,,,,,,,,,,,,,,,,,,,,,,,,,,,,,,,,,,,,,,,,,,,,,,,,,,,
14,0,14,0,1,75,2020-07-04_19h30.31.560,retriever_ti,2020.1.3,Win32,60,Chrome,1920,1080,,,,,,,,,,,,,,,,,,,,,,,,,,,,,,,,,,,,,,,,,,,,,,,,,,,,,,,,,,,,,,,,,,,,,,,,,,,,,,,,,,,,,,,,,,,,,,,,,,
,,,,,75,2020-07-04_19h30.31.560,retriever_ti,2020.1.3,Win32,60,Chrome,1920,1080,173.308615,1,NaN,NaN,No_response,2,173.335245,173.335245,175.835615,0,0,0,0,1,2,5,1,html/resources/stimuli_practice_decision/04_beetle.jpg,html/resources/stimuli_practice_decision/02_canary.jpg,beetle,canary,,,,,,,,,,,,,,,,,,,,,,,,,,,,,,,,,,,,,,,,,,,,,,,,,,,,,,,,,,,,,,,,,,,,,,,,,,,,,
,,,,,75,2020-07-04_19h30.31.560,retriever_ti,2020.1.3,Win32,60,Chrome,1920,1080,176.3648,2,left,1.00786,rabbit,1,176.401645,176.401645,178.902515,0,1,1,1,1,4,3,1,html/resources/stimuli_practice_decision/01_rabbit.jpg,html/resources/stimuli_practice_decision/07_sock.jpg,rabbit,sock,,,,,,,,,,,,,,,,,,,,,,,,,,,,,,,,,,,,,,,,,,,,,,,,,,,,,,,,,,,,,,,,,,,,,,,,,,,,,
,,,,,75,2020-07-04_19h30.31.560,retriever_ti,2020.1.3,Win32,60,Chrome,1920,1080,179.90128,3,left,1.00778,pullover,1,179.93645,179.93645,182.435265,0,2,2,2,1,6,2,1,html/resources/stimuli_practice_decision/06_pullover.jpg,html/resources/stimuli_practice_decision/04_beetle.jpg,pullover,beetle,,,,,,,,,,,,,,,,,,,,,,,,,,,,,,,,,,,,,,,,,,,,,,,,,,,,,,,,,,,,,,,,,,,,,,,,,,,,,
,,,,,75,2020-07-04_19h30.31.560,retriever_ti,2020.1.3,Win32,60,Chrome,1920,1080,182.936285,4,right,0.77188,handmixer,0,182.95344,182.95344,185.45279,0,3,3,3,1,7,1,1,html/resources/stimuli_practice_decision/05_glasses.jpg,html/resources/stimuli_practice_decision/08_handmixer.jpg,glasses,handmixer,,,,,,,,,,,,,,,,,,,,,,,,,,,,,,,,,,,,,,,,,,,,,,,,,,,,,,,,,,,,,,,,,,,,,,,,,,,,,
,,,,,75,2020-07-04_19h30.31.560,retriever_ti,2020.1.3,Win32,60,Chrome,1920,1080,185.95366,5,right,0.922245,pullover,0,185.96918,185.96918,188.469535,0,4,4,4,1,7,6,1,html/resources/stimuli_practice_decision/05_glasses.jpg,html/resources/stimuli_practice_decision/06_pullover.jpg,glasses,pullover,,,,,,,,,,,,,,,,,,,,,,,,,,,,,,,,,,,,,,,,,,,,,,,,,,,,,,,,,,,,,,,,,,,,,,,,,,,,,
,,,,,75,2020-07-04_19h30.31.560,retriever_ti,2020.1.3,Win32,60,Chrome,1920,1080,189.47037,6,right,1.433115,glasses,1,189.486805,189.486805,191.985965,0,5,5,5,1,4,7,1,html/resources/stimuli_practice_decision/01_rabbit.jpg,html/resources/stimuli_practice_decision/05_glasses.jpg,rabbit,glasses,,,,,,,,,,,,,,,,,,,,,,,,,,,,,,,,,,,,,,,,,,,,,,,,,,,,,,,,,,,,,,,,,,,,,,,,,,,,,
,,,,,75,2020-07-04_19h30.31.560,retriever_ti,2020.1.3,Win32,60,Chrome,1920,1080,192.48737,7,left,0.93799,handmixer,0,192.50331,192.50331,195.00371,0,6,6,6,1,1,2,1,html/resources/stimuli_practice_decision/08_handmixer.jpg,html/resources/stimuli_practice_decision/04_beetle.jpg,handmixer,beetle,,,,,,,,,,,,,,,,,,,,,,,,,,,,,,,,,,,,,,,,,,,,,,,,,,,,,,,,,,,,,,,,,,,,,,,,,,,,,
,,,,,75,2020-07-04_19h30.31.560,retriever_ti,2020.1.3,Win32,60,Chrome,1920,1080,196.004245,8,left,1.114635,rabbit,1,196.02033,196.02033,198.51988,0,7,7,7,1,4,3,1,html/resources/stimuli_practice_decision/01_rabbit.jpg,html/resources/stimuli_practice_decision/07_sock.jpg,rabbit,sock,,,,,,,,,,,,,,,,,,,,,,,,,,,,,,,,,,,,,,,,,,,,,,,,,,,,,,,,,,,,,,,,,,,,,,,,,,,,,
,,,,,75,2020-07-04_19h30.31.560,retriever_ti,2020.1.3,Win32,60,Chrome,1920,1080,,,,,,,,,,,,,,,,,,,,,,down,1,1.954475,1,0,0,0,1,1,html/resources/sequences_IDs/star.png,square ↑,circle →,star ↓,← triangle,down,,,,,,,,,,,,,,,,,,,,,,,,,,,,,,,,,,,,,,,,,,,,,,,,,,,,,,,,,,,,,,
,,,,,75,2020-07-04_19h30.31.560,retriever_ti,2020.1.3,Win32,60,Chrome,1920,1080,,,,,,,,,,,,,,,,,,,,,,up,1,2.493055,1,0,1,1,0,1,html/resources/sequences_IDs/circle.png,circle ↑,square →,triangle ↓,← star ,up,,,,,,,,,,,,,,,,,,,,,,,,,,,,,,,,,,,,,,,,,,,,,,,,,,,,,,,,,,,,,,
,,,,,75,2020-07-04_19h30.31.560,retriever_ti,2020.1.3,Win32,60,Chrome,1920,1080,,,,,,,,,,,,,,,,,,,,,,left,1,1.637005,1,0,2,2,2,1,html/resources/sequences_IDs/square1.png,star ↑,triangle →,circle ↓,← square,left,,,,,,,,,,,,,,,,,,,,,,,,,,,,,,,,,,,,,,,,,,,,,,,,,,,,,,,,,,,,,,
,,,,,75,2020-07-04_19h30.31.560,retriever_ti,2020.1.3,Win32,60,Chrome,1920,1080,,,,,,,,,,,,,,,,,,,,,,down,1,1.34297,1,0,3,3,3,1,html/resources/sequences_IDs/triangle.png,star ↑,square →,triangle ↓,← circle,down,,,,,,,,,,,,,,,,,,,,,,,,,,,,,,,,,,,,,,,,,,,,,,,,,,,,,,,,,,,,,,
,,,,,75,2020-07-04_19h30.31.560,retriever_ti,2020.1.3,Win32,60,Chrome,1920,1080,,,,,,,,,,,,,,,,,,,,,,,,,,,,,,,,,,,,,0,9.67238,0,0,0,0,1,,,,,,,,,,,,,,,,,,,,,,,,,,,,,,,,,,,,,,,,,,,,,,,,,,,,,,,
,,,,,75,2020-07-04_19h30.31.560,retriever_ti,2020.1.3,Win32,60,Chrome,1920,1080,220.98143,9,right,0.91287,glasses,1,221.021925,221.021925,223.521605,0,0,0,0,1,6,7,1,html/resources/stimuli_practice_decision/06_pullover.jpg,html/resources/stimuli_practice_decision/05_glasses.jpg,pullover,glasses,,,,,,,,,,,,,,,,,,,,,,,,,,,,,,,,,,,,,,,,,,,,,,,,,,,,,,,,,,,,,,,,,,,,,,,,,,,,,
,,,,,75,2020-07-04_19h30.31.560,retriever_ti,2020.1.3,Win32,60,Chrome,1920,1080,224.522765,10,left,1.263215,pullover,1,224.539735,224.539735,227.038495,0,1,1,1,1,6,2,1,html/resources/stimuli_practice_decision/06_pullover.jpg,html/resources/stimuli_practice_decision/04_beetle.jpg,pullover,beetle,,,,,,,,,,,,,,,,,,,,,,,,,,,,,,,,,,,,,,,,,,,,,,,,,,,,,,,,,,,,,,,,,,,,,,,,,,,,,
,,,,,75,2020-07-04_19h30.31.560,retriever_ti,2020.1.3,Win32,60,Chrome,1920,1080,227.53914,11,right,0.788175,pullover,1,227.5564,227.5564,230.055765,0,2,2,2,1,5,6,1,html/resources/stimuli_practice_decision/02_canary.jpg,html/resources/stimuli_practice_decision/06_pullover.jpg,canary,pullover,,,,,,,,,,,,,,,,,,,,,,,,,,,,,,,,,,,,,,,,,,,,,,,,,,,,,,,,,,,,,,,,,,,,,,,,,,,,,
,,,,,75,2020-07-04_19h30.31.560,retriever_ti,2020.1.3,Win32,60,Chrome,1920,1080,231.05688,12,right,1.056725,glasses,0,231.0899,231.0899,233.589405,0,3,3,3,1,8,7,1,html/resources/stimuli_practice_decision/03_squirrel.jpg,html/resources/stimuli_practice_decision/05_glasses.jpg,squirrel,glasses,,,,,,,,,,,,,,,,,,,,,,,,,,,,,,,,,,,,,,,,,,,,,,,,,,,,,,,,,,,,,,,,,,,,,,,,,,,,,
,,,,,75,2020-07-04_19h30.31.560,retriever_ti,2020.1.3,Win32,60,Chrome,1920,1080,234.5904,13,left,1.029715,canary,1,234.624,234.624,237.12271,0,4,4,4,1,5,3,1,html/resources/stimuli_practice_decision/02_canary.jpg,html/resources/stimuli_practice_decision/07_sock.jpg,canary,sock,,,,,,,,,,,,,,,,,,,,,,,,,,,,,,,,,,,,,,,,,,,,,,,,,,,,,,,,,,,,,,,,,,,,,,,,,,,,,
,,,,,75,2020-07-04_19h30.31.560,retriever_ti,2020.1.3,Win32,60,Chrome,1920,1080,237.6238,14,left,0.993725,glasses,0,237.656965,237.656965,240.156945,0,5,5,5,1,7,8,1,html/resources/stimuli_practice_decision/05_glasses.jpg,html/resources/stimuli_practice_decision/03_squirrel.jpg,glasses,squirrel,,,,,,,,,,,,,,,,,,,,,,,,,,,,,,,,,,,,,,,,,,,,,,,,,,,,,,,,,,,,,,,,,,,,,,,,,,,,,
,,,,,75,2020-07-04_19h30.31.560,retriever_ti,2020.1.3,Win32,60,Chrome,1920,1080,241.158135,15,right,0.97604,rabbit,0,241.174165,241.174165,243.673205,0,6,6,6,1,5,4,1,html/resources/stimuli_practice_decision/02_canary.jpg,html/resources/stimuli_practice_decision/01_rabbit.jpg,canary,rabbit,,,,,,,,,,,,,,,,,,,,,,,,,,,,,,,,,,,,,,,,,,,,,,,,,,,,,,,,,,,,,,,,,,,,,,,,,,,,,
,,,,,75,2020-07-04_19h30.31.560,retriever_ti,2020.1.3,Win32,60,Chrome,1920,1080,244.67449,16,left,0.93917,canary,1,244.69092,244.69092,247.190725,0,7,7,7,1,5,3,1,html/resources/stimuli_practice_decision/02_canary.jpg,html/resources/stimuli_practice_decision/07_sock.jpg,canary,sock,,,,,,,,,,,,,,,,,,,,,,,,,,,,,,,,,,,,,,,,,,,,,,,,,,,,,,,,,,,,,,,,,,,,,,,,,,,,,
,,,,,75,2020-07-04_19h30.31.560,retriever_ti,2020.1.3,Win32,60,Chrome,1920,1080,,,,,,,,,,,,,,,,,,,,,,left,1,1.0497,1,0,0,0,2,1,html/resources/sequences_IDs/square1.png,star ↑,triangle →,circle ↓,← square,left,,,,,,,,,,,,,,,,,,,,,,,,,,,,,,,,,,,,,,,,,,,,,,,,,,,,,,,,,,,,,,
,,,,,75,2020-07-04_19h30.31.560,retriever_ti,2020.1.3,Win32,60,Chrome,1920,1080,,,,,,,,,,,,,,,,,,,,,,down,1,1.430075,1,0,1,1,3,1,html/resources/sequences_IDs/triangle.png,star ↑,square →,triangle ↓,← circle,down,,,,,,,,,,,,,,,,,,,,,,,,,,,,,,,,,,,,,,,,,,,,,,,,,,,,,,,,,,,,,,
,,,,,75,2020-07-04_19h30.31.560,retriever_ti,2020.1.3,Win32,60,Chrome,1920,1080,,,,,,,,,,,,,,,,,,,,,,down,1,1.287735,1,0,2,2,1,1,html/resources/sequences_IDs/star.png,square ↑,circle →,star ↓,← triangle,down,,,,,,,,,,,,,,,,,,,,,,,,,,,,,,,,,,,,,,,,,,,,,,,,,,,,,,,,,,,,,,
,,,,,75,2020-07-04_19h30.31.560,retriever_ti,2020.1.3,Win32,60,Chrome,1920,1080,,,,,,,,,,,,,,,,,,,,,,up,1,1.409605,1,0,3,3,0,1,html/resources/sequences_IDs/circle.png,circle ↑,square →,triangle ↓,← star ,up,,,,,,,,,,,,,,,,,,,,,,,,,,,,,,,,,,,,,,,,,,,,,,,,,,,,,,,,,,,,,,
,,,,,75,2020-07-04_19h30.31.560,retriever_ti,2020.1.3,Win32,60,Chrome,1920,1080,,,,,,,,,,,,,,,,,,,,,,,,,,,,,,,,,,,,,0,3.75508,1,0,1,0,1,,,,,,,,,,,,,,,,,,,,,,,,,,,,,,,,,,,,,,,,,,,,,,,,,,,,,,,
,,,,,75,2020-07-04_19h30.31.560,retriever_ti,2020.1.3,Win32,60,Chrome,1920,1080,,,,,,,,,,,,,,,,,1,,,,,,,,,,,,,,,,,,,,,,,,,,,265.00515,1,right,1.20438,clownfish     ,5,4,-3,0,3,265.02637,265.02637,267.52601,0,0,0,0,1,1,8,5,giraffe     ,clownfish     ,html/resources/sequences_IDs/B/03_giraffe.jpg,html/resources/sequences_IDs/A/04_clownfish.jpg,3,4,1,1,2,1,2,3,0,75,,,,,,,,,,,,,,,,,,,,
,,,,,75,2020-07-04_19h30.31.560,retriever_ti,2020.1.3,Win32,60,Chrome,1920,1080,,,,,,,,,,,,,,,,,1,,,,,,,,,,,,,,,,,,,,,,,,,,,268.143415,2,right,1.24183,parrot      ,2,5,-4,0,3,268.175465,268.175465,270.67536,0,1,1,1,1,2,6,2,phone       ,parrot      ,html/resources/sequences_IDs/B/09_phone.jpg,html/resources/sequences_IDs/B/05_parrot.jpg,9,5,4,2,2,1,7,4,0,75,,,,,,,,,,,,,,,,,,,,
,,,,,75,2020-07-04_19h30.31.560,retriever_ti,2020.1.3,Win32,60,Chrome,1920,1080,,,,,,,,,,,,,,,,,1,,,,,,,,,,,,,,,,,,,,,,,,,,,271.27644,3,left,1.42913,parrot      ,2,5,-4,0,3,271.292085,271.292085,273.79164,0,2,2,2,1,3,2,6,parrot      ,phone       ,html/resources/sequences_IDs/B/05_parrot.jpg,html/resources/sequences_IDs/B/09_phone.jpg,5,9,2,1,4,2,4,7,0,75,,,,,,,,,,,,,,,,,,,,
,,,,,75,2020-07-04_19h30.31.560,retriever_ti,2020.1.3,Win32,60,Chrome,1920,1080,,,,,,,,,,,,,,,,,1,,,,,,,,,,,,,,,,,,,,,,,,,,,274.393255,4,right,0.963225,redfox      ,4,1,-1,0,0,274.425695,274.425695,276.926855,0,3,3,3,1,4,5,4,clownfish     ,redfox      ,html/resources/sequences_IDs/A/04_clownfish.jpg,html/resources/sequences_IDs/B/01_redfox.jpg,4,1,2,1,1,1,3,1,0,75,,,,,,,,,,,,,,,,,,,,
,,,,,75,2020-07-04_19h30.31.560,retriever_ti,2020.1.3,Win32,60,Chrome,1920,1080,,,,,,,,,,,,,,,,,1,,,,,,,,,,,,,,,,,,,,,,,,,,,278.02695,5,right,1.40913,redfox      ,4,1,3,1,3,278.04397,278.04397,280.542435,0,4,4,4,1,5,1,4,scarf         ,redfox      ,html/resources/sequences_IDs/A/06_scarf.jpg,html/resources/sequences_IDs/B/01_redfox.jpg,6,1,3,2,1,1,5,1,0,75,,,,,,,,,,,,,,,,,,,,
,,,,,75,2020-07-04_19h30.31.560,retriever_ti,2020.1.3,Win32,60,Chrome,1920,1080,,,,,,,,,,,,,,,,,1,,,,,,,,,,,,,,,,,,,,,,,,,,,281.142845,6,left,1.2441,satellite_dish,3,10,-3,0,3,281.17743,281.17743,283.676825,0,5,5,5,1,6,3,6,satellite_dish,phone       ,html/resources/sequences_IDs/A/10_satellite_dish.jpg,html/resources/sequences_IDs/B/09_phone.jpg,10,9,4,2,4,2,8,7,0,75,,,,,,,,,,,,,,,,,,,,
,,,,,75,2020-07-04_19h30.31.560,retriever_ti,2020.1.3,Win32,60,Chrome,1920,1080,,,,,,,,,,,,,,,,,1,,,,,,,,,,,,,,,,,,,,,,,,,,,284.27756,7,right,0.61433,satellite_dish,3,10,-2,0,3,284.310635,284.310635,286.809745,0,6,6,6,1,7,5,3,clownfish     ,satellite_dish,html/resources/sequences_IDs/A/04_clownfish.jpg,html/resources/sequences_IDs/A/10_satellite_dish.jpg,4,10,2,1,4,2,3,8,0,75,,,,,,,,,,,,,,,,,,,,
,,,,,75,2020-07-04_19h30.31.560,retriever_ti,2020.1.3,Win32,60,Chrome,1920,1080,,,,,,,,,,,,,,,,,1,,,,,,,,,,,,,,,,,,,,,,,,,,,287.42682,8,right,1.816105,phone       ,6,9,2,1,3,287.461015,287.461015,289.96034,0,7,7,7,1,8,4,6,redfox      ,phone       ,html/resources/sequences_IDs/B/01_redfox.jpg,html/resources/sequences_IDs/B/09_phone.jpg,1,9,1,1,4,2,1,7,0,75,,,,,,,,,,,,,,,,,,,,
,,,,,75,2020-07-04_19h30.31.560,retriever_ti,2020.1.3,Win32,60,Chrome,1920,1080,,,,,,,,,,,,,,,,,1,,,,,,,,,,,,,,,,,,,,,,,,,,,290.57678,9,right,1.608695,phone       ,6,9,-1,0,0,290.61138,290.61138,293.110835,0,8,8,8,1,9,7,6,dress         ,phone       ,html/resources/sequences_IDs/A/07_dress.jpg,html/resources/sequences_IDs/B/09_phone.jpg,7,9,3,2,4,2,6,7,0,75,,,,,,,,,,,,,,,,,,,,
,,,,,75,2020-07-04_19h30.31.560,retriever_ti,2020.1.3,Win32,60,Chrome,1920,1080,,,,,,,,,,,,,,,,,1,,,,,,,,,,,,,,,,,,,,,,,,,,,294.21092,10,left,1.093105,scarf         ,1,6,-4,0,3,294.227425,294.227425,296.72811,0,9,9,9,1,10,1,5,scarf         ,clownfish     ,html/resources/sequences_IDs/A/06_scarf.jpg,html/resources/sequences_IDs/A/04_clownfish.jpg,6,4,3,2,2,1,5,3,0,75,,,,,,,,,,,,,,,,,,,,
,,,,,75,2020-07-04_19h30.31.560,retriever_ti,2020.1.3,Win32,60,Chrome,1920,1080,,,,,,,,,,,,,,,,,1,,,,,,,,,,,,,,,,,,,,,,,,,,,297.34476,11,right,1.454985,scarf         ,1,6,-4,0,3,297.36191,297.36191,299.86062,0,10,10,10,1,11,5,1,clownfish     ,scarf         ,html/resources/sequences_IDs/A/04_clownfish.jpg,html/resources/sequences_IDs/A/06_scarf.jpg,4,6,2,1,3,2,3,5,0,75,,,,,,,,,,,,,,,,,,,,
,,,,,75,2020-07-04_19h30.31.560,retriever_ti,2020.1.3,Win32,60,Chrome,1920,1080,,,,,,,,,,,,,,,,,1,,,,,,,,,,,,,,,,,,,,,,,,,,,300.478935,12,right,0.947915,parrot      ,2,5,-3,0,3,300.511965,300.511965,303.010955,0,11,11,11,1,12,5,2,clownfish     ,parrot      ,html/resources/sequences_IDs/A/04_clownfish.jpg,html/resources/sequences_IDs/B/05_parrot.jpg,4,5,2,1,2,1,3,4,0,75,,,,,,,,,,,,,,,,,,,,
,,,,,75,2020-07-04_19h30.31.560,retriever_ti,2020.1.3,Win32,60,Chrome,1920,1080,,,,,,,,,,,,,,,,,1,,,,,,,,,,,,,,,,,,,,,,,,,,,303.61141,13,left,0.85627,satellite_dish,3,10,2,1,3,303.644625,303.644625,306.14466,0,12,12,12,1,13,3,1,satellite_dish,scarf         ,html/resources/sequences_IDs/A/10_satellite_dish.jpg,html/resources/sequences_IDs/A/06_scarf.jpg,10,6,4,2,3,2,8,5,0,75,,,,,,,,,,,,,,,,,,,,
,,,,,75,2020-07-04_19h30.31.560,retriever_ti,2020.1.3,Win32,60,Chrome,1920,1080,,,,,,,,,,,,,,,,,1,,,,,,,,,,,,,,,,,,,,,,,,,,,306.761585,14,left,1.45774,parrot      ,2,5,1,1,1,306.798685,306.798685,309.29517,0,13,13,13,1,14,2,1,parrot      ,scarf         ,html/resources/sequences_IDs/B/05_parrot.jpg,html/resources/sequences_IDs/A/06_scarf.jpg,5,6,2,1,3,2,4,5,0,75,,,,,,,,,,,,,,,,,,,,
,,,,,75,2020-07-04_19h30.31.560,retriever_ti,2020.1.3,Win32,60,Chrome,1920,1080,,,,,,,,,,,,,,,,,1,,,,,,,,,,,,,,,,,,,,,,,,,,,310.39848,15,left,0.78814,satellite_dish,3,10,-1,0,1,310.42862,310.42862,312.9292,0,14,14,14,1,15,3,4,satellite_dish,redfox      ,html/resources/sequences_IDs/A/10_satellite_dish.jpg,html/resources/sequences_IDs/B/01_redfox.jpg,10,1,4,2,1,1,8,1,1,75,,,,,,,,,,,,,,,,,,,,
,,,,,75,2020-07-04_19h30.31.560,retriever_ti,2020.1.3,Win32,60,Chrome,1920,1080,,,,,,,,,,,,,,,,,1,,,,,,,,,,,,,,,,,,,,,,,,,,,314.028525,16,left,1.74149,parrot      ,2,5,1,1,1,314.063395,314.063395,316.562875,0,15,15,15,1,16,2,1,parrot      ,scarf         ,html/resources/sequences_IDs/B/05_parrot.jpg,html/resources/sequences_IDs/A/06_scarf.jpg,5,6,2,1,3,2,4,5,0,75,,,,,,,,,,,,,,,,,,,,
,,,,,75,2020-07-04_19h30.31.560,retriever_ti,2020.1.3,Win32,60,Chrome,1920,1080,,,,,,,,,,,,,,,,,1,,,,,,,,,,,,,,,,,,,,,,,,,,,317.662095,17,right,0.772185,parrot      ,2,5,-1,0,0,317.679325,317.679325,320.179515,0,16,16,16,1,17,3,2,satellite_dish,parrot      ,html/resources/sequences_IDs/A/10_satellite_dish.jpg,html/resources/sequences_IDs/B/05_parrot.jpg,10,5,4,2,2,1,8,4,0,75,,,,,,,,,,,,,,,,,,,,
,,,,,75,2020-07-04_19h30.31.560,retriever_ti,2020.1.3,Win32,60,Chrome,1920,1080,,,,,,,,,,,,,,,,,1,,,,,,,,,,,,,,,,,,,,,,,,,,,321.279855,18,left,0.791795,parrot      ,2,5,-3,0,3,321.312775,321.312775,323.81248,0,17,17,17,1,18,2,5,parrot      ,clownfish     ,html/resources/sequences_IDs/B/05_parrot.jpg,html/resources/sequences_IDs/A/04_clownfish.jpg,5,4,2,1,2,1,4,3,0,75,,,,,,,,,,,,,,,,,,,,
,,,,,75,2020-07-04_19h30.31.560,retriever_ti,2020.1.3,Win32,60,Chrome,1920,1080,,,,,,,,,,,,,,,,,1,,,,,,,,,,,,,,,,,,,,,,,,,,,324.414105,19,left,0.832915,giraffe     ,8,3,7,1,3,324.430075,324.430075,326.92931,0,18,18,18,1,19,8,1,giraffe     ,scarf         ,html/resources/sequences_IDs/B/03_giraffe.jpg,html/resources/sequences_IDs/A/06_scarf.jpg,3,6,1,1,3,2,2,5,0,75,,,,,,,,,,,,,,,,,,,,
,,,,,75,2020-07-04_19h30.31.560,retriever_ti,2020.1.3,Win32,60,Chrome,1920,1080,,,,,,,,,,,,,,,,,1,,,,,,,,,,,,,,,,,,,,,,,,,,,327.529895,20,left,0.79515,giraffe     ,8,3,1,1,1,327.56409,327.56409,330.063995,0,19,19,19,1,20,8,7,giraffe     ,dress         ,html/resources/sequences_IDs/B/03_giraffe.jpg,html/resources/sequences_IDs/A/07_dress.jpg,3,7,1,1,3,2,2,6,0,75,,,,,,,,,,,,,,,,,,,,
,,,,,75,2020-07-04_19h30.31.560,retriever_ti,2020.1.3,Win32,60,Chrome,1920,1080,,,,,,,,,,,,,,,,,1,,,,,,,,,,,,,,,,,,,,,,,,,,,331.163745,21,right,1.204295,satellite_dish,3,10,1,1,1,331.19778,331.19778,333.696915,0,20,20,20,1,21,2,3,parrot      ,satellite_dish,html/resources/sequences_IDs/B/05_parrot.jpg,html/resources/sequences_IDs/A/10_satellite_dish.jpg,5,10,2,1,4,2,4,8,0,75,,,,,,,,,,,,,,,,,,,,
,,,,,75,2020-07-04_19h30.31.560,retriever_ti,2020.1.3,Win32,60,Chrome,1920,1080,,,,,,,,,,,,,,,,,1,,,,,,,,,,,,,,,,,,,,,,,,,,,334.79778,22,right,1.34779,phone       ,6,9,5,1,3,334.831095,334.831095,337.330305,0,21,21,21,1,22,1,6,scarf         ,phone       ,html/resources/sequences_IDs/A/06_scarf.jpg,html/resources/sequences_IDs/B/09_phone.jpg,6,9,3,2,4,2,5,7,0,75,,,,,,,,,,,,,,,,,,,,
,,,,,75,2020-07-04_19h30.31.560,retriever_ti,2020.1.3,Win32,60,Chrome,1920,1080,,,,,,,,,,,,,,,,,1,,,,,,,,,,,,,,,,,,,,,,,,,,,337.931025,23,left,0.90425,redfox      ,4,1,2,1,3,337.948235,337.948235,340.44653,0,22,22,22,1,23,4,2,redfox      ,parrot      ,html/resources/sequences_IDs/B/01_redfox.jpg,html/resources/sequences_IDs/B/05_parrot.jpg,1,5,1,1,2,1,1,4,0,75,,,,,,,,,,,,,,,,,,,,
,,,,,75,2020-07-04_19h30.31.560,retriever_ti,2020.1.3,Win32,60,Chrome,1920,1080,,,,,,,,,,,,,,,,,1,,,,,,,,,,,,,,,,,,,,,,,,,,,341.04815,24,right,0.61375,parrot      ,2,5,1,1,0,341.08143,341.08143,343.58036,0,23,23,23,1,24,1,2,scarf         ,parrot      ,html/resources/sequences_IDs/A/06_scarf.jpg,html/resources/sequences_IDs/B/05_parrot.jpg,6,5,3,2,2,1,5,4,1,75,,,,,,,,,,,,,,,,,,,,
,,,,,75,2020-07-04_19h30.31.560,retriever_ti,2020.1.3,Win32,60,Chrome,1920,1080,,,,,,,,,,,,,,,,,1,,,,,,,,,,,,,,,,,,,,,,,,,,,344.682395,25,right,1.347585,giraffe     ,8,3,5,1,3,344.71546,344.71546,347.214975,0,24,24,24,1,25,3,8,satellite_dish,giraffe     ,html/resources/sequences_IDs/A/10_satellite_dish.jpg,html/resources/sequences_IDs/B/03_giraffe.jpg,10,3,4,2,1,1,8,2,0,75,,,,,,,,,,,,,,,,,,,,
,,,,,75,2020-07-04_19h30.31.560,retriever_ti,2020.1.3,Win32,60,Chrome,1920,1080,,,,,,,,,,,,,,,,,1,,,,,,,,,,,,,,,,,,,,,,,,,,,347.831365,26,left,1.298315,parrot      ,2,5,-1,0,0,347.864595,347.864595,350.365105,0,25,25,25,1,26,2,3,parrot      ,satellite_dish,html/resources/sequences_IDs/B/05_parrot.jpg,html/resources/sequences_IDs/A/10_satellite_dish.jpg,5,10,2,1,4,2,4,8,0,75,,,,,,,,,,,,,,,,,,,,
,,,,,75,2020-07-04_19h30.31.560,retriever_ti,2020.1.3,Win32,60,Chrome,1920,1080,,,,,,,,,,,,,,,,,1,,,,,,,,,,,,,,,,,,,,,,,,,,,351.46526,27,left,0.94407,satellite_dish,3,10,-2,0,3,351.4992,351.4992,353.99927,0,26,26,26,1,27,3,5,satellite_dish,clownfish     ,html/resources/sequences_IDs/A/10_satellite_dish.jpg,html/resources/sequences_IDs/A/04_clownfish.jpg,10,4,4,2,2,1,8,3,0,75,,,,,,,,,,,,,,,,,,,,
,,,,,75,2020-07-04_19h30.31.560,retriever_ti,2020.1.3,Win32,60,Chrome,1920,1080,,,,,,,,,,,,,,,,,1,,,,,,,,,,,,,,,,,,,,,,,,,,,354.61533,28,right,0.79066,redfox      ,4,1,2,1,3,354.649515,354.649515,357.148865,0,27,27,27,1,28,2,4,parrot      ,redfox      ,html/resources/sequences_IDs/B/05_parrot.jpg,html/resources/sequences_IDs/B/01_redfox.jpg,5,1,2,1,1,1,4,1,0,75,,,,,,,,,,,,,,,,,,,,
,,,,,75,2020-07-04_19h30.31.560,retriever_ti,2020.1.3,Win32,60,Chrome,1920,1080,,,,,,,,,,,,,,,,,1,,,,,,,,,,,,,,,,,,,,,,,,,,,357.766135,29,left,0.62188,giraffe     ,8,3,5,1,3,357.7988,357.7988,360.298915,0,28,28,28,1,29,8,3,giraffe     ,satellite_dish,html/resources/sequences_IDs/B/03_giraffe.jpg,html/resources/sequences_IDs/A/10_satellite_dish.jpg,3,10,1,1,4,2,2,8,0,75,,,,,,,,,,,,,,,,,,,,
,,,,,75,2020-07-04_19h30.31.560,retriever_ti,2020.1.3,Win32,60,Chrome,1920,1080,,,,,,,,,,,,,,,,,1,,,,,,,,,,,,,,,,,,,,,,,,,,,360.899655,30,left,1.08134,phone       ,6,9,1,1,1,360.91674,360.91674,363.415585,0,29,29,29,1,30,6,5,phone       ,clownfish     ,html/resources/sequences_IDs/B/09_phone.jpg,html/resources/sequences_IDs/A/04_clownfish.jpg,9,4,4,2,2,1,7,3,0,75,,,,,,,,,,,,,,,,,,,,
,,,,,75,2020-07-04_19h30.31.560,retriever_ti,2020.1.3,Win32,60,Chrome,1920,1080,,,,,,,,,,,,,,,,,1,,,,,,,,,,,,,,,,,,,,,,,,,,,364.516265,31,left,0.760805,giraffe     ,8,3,4,1,3,364.549315,364.549315,367.04943,0,30,30,30,1,31,8,4,giraffe     ,redfox      ,html/resources/sequences_IDs/B/03_giraffe.jpg,html/resources/sequences_IDs/B/01_redfox.jpg,3,1,1,1,1,1,2,1,0,75,,,,,,,,,,,,,,,,,,,,
,,,,,75,2020-07-04_19h30.31.560,retriever_ti,2020.1.3,Win32,60,Chrome,1920,1080,,,,,,,,,,,,,,,,,1,,,,,,,,,,,,,,,,,,,,,,,,,,,367.66719,32,right,1.0079,scarf         ,1,6,-5,0,3,367.683445,367.683445,370.18374,0,31,31,31,1,32,6,1,phone       ,scarf         ,html/resources/sequences_IDs/B/09_phone.jpg,html/resources/sequences_IDs/A/06_scarf.jpg,9,6,4,2,3,2,7,5,0,75,,,,,,,,,,,,,,,,,,,,
,,,,,75,2020-07-04_19h30.31.560,retriever_ti,2020.1.3,Win32,60,Chrome,1920,1080,,,,,,,,,,,,,,,,,1,,,,,,,,,,,,,,,,,,,,,,,,,,,370.799805,33,left,1.70562,satellite_dish,3,10,-1,0,0,370.816485,370.816485,373.31731,0,32,32,32,1,33,3,4,satellite_dish,redfox      ,html/resources/sequences_IDs/A/10_satellite_dish.jpg,html/resources/sequences_IDs/B/01_redfox.jpg,10,1,4,2,1,1,8,1,0,75,,,,,,,,,,,,,,,,,,,,
,,,,,75,2020-07-04_19h30.31.560,retriever_ti,2020.1.3,Win32,60,Chrome,1920,1080,,,,,,,,,,,,,,,,,1,,,,,,,,,,,,,,,,,,,,,,,,,,,374.41783,34,right,1.47278,parrot      ,2,5,-5,0,3,374.43389,374.43389,376.934515,0,33,33,33,1,34,7,2,dress         ,parrot      ,html/resources/sequences_IDs/A/07_dress.jpg,html/resources/sequences_IDs/B/05_parrot.jpg,7,5,3,2,2,1,6,4,0,75,,,,,,,,,,,,,,,,,,,,
,,,,,75,2020-07-04_19h30.31.560,retriever_ti,2020.1.3,Win32,60,Chrome,1920,1080,,,,,,,,,,,,,,,,,1,,,,,,,,,,,,,,,,,,,,,,,,,,,377.55144,35,right,1.30611,satellite_dish,3,10,-1,0,0,377.5848,377.5848,380.084295,0,34,34,34,1,35,4,3,redfox      ,satellite_dish,html/resources/sequences_IDs/B/01_redfox.jpg,html/resources/sequences_IDs/A/10_satellite_dish.jpg,1,10,1,1,4,2,1,8,0,75,,,,,,,,,,,,,,,,,,,,
,,,,,75,2020-07-04_19h30.31.560,retriever_ti,2020.1.3,Win32,60,Chrome,1920,1080,,,,,,,,,,,,,,,,,1,,,,,,,,,,,,,,,,,,,,,,,,,,,381.18516,36,left,0.80464,redfox      ,4,1,-1,0,0,381.21808,381.21808,383.71709,0,35,35,35,1,36,4,5,redfox      ,clownfish     ,html/resources/sequences_IDs/B/01_redfox.jpg,html/resources/sequences_IDs/A/04_clownfish.jpg,1,4,1,1,2,1,1,3,0,75,,,,,,,,,,,,,,,,,,,,
,,,,,75,2020-07-04_19h30.31.560,retriever_ti,2020.1.3,Win32,60,Chrome,1920,1080,,,,,,,,,,,,,,,,,1,,,,,,,,,,,,,,,,,,,,,,,,,,,384.817445,37,left,0.959505,dress         ,7,7,1,1,1,384.850895,384.850895,387.351435,0,36,36,36,1,37,7,6,dress         ,phone       ,html/resources/sequences_IDs/A/07_dress.jpg,html/resources/sequences_IDs/B/09_phone.jpg,7,9,3,2,4,2,6,7,0,75,,,,,,,,,,,,,,,,,,,,
,,,,,75,2020-07-04_19h30.31.560,retriever_ti,2020.1.3,Win32,60,Chrome,1920,1080,,,,,,,,,,,,,,,,,1,,,,,,,,,,,,,,,,,,,,,,,,,,,388.45089,38,right,0.506125,dress         ,7,7,3,1,3,388.468815,388.468815,390.968625,0,37,37,37,1,38,4,7,redfox      ,dress         ,html/resources/sequences_IDs/B/01_redfox.jpg,html/resources/sequences_IDs/A/07_dress.jpg,1,7,1,1,3,2,1,6,0,75,,,,,,,,,,,,,,,,,,,,
,,,,,75,2020-07-04_19h30.31.560,retriever_ti,2020.1.3,Win32,60,Chrome,1920,1080,,,,,,,,,,,,,,,,,1,,,,,,,,,,,,,,,,,,,,,,,,,,,391.585515,39,right,0.81401,giraffe     ,8,3,3,1,3,391.618855,391.618855,394.119095,0,38,38,38,1,39,5,8,clownfish     ,giraffe     ,html/resources/sequences_IDs/A/04_clownfish.jpg,html/resources/sequences_IDs/B/03_giraffe.jpg,4,3,2,1,1,1,3,2,0,75,,,,,,,,,,,,,,,,,,,,
,,,,,75,2020-07-04_19h30.31.560,retriever_ti,2020.1.3,Win32,60,Chrome,1920,1080,,,,,,,,,,,,,,,,,1,,,,,,,,,,,,,,,,,,,,,,,,,,,394.73448,40,right,1.56387,redfox      ,4,1,-3,0,3,394.76915,394.76915,397.268515,0,39,39,39,1,40,7,4,dress         ,redfox      ,html/resources/sequences_IDs/A/07_dress.jpg,html/resources/sequences_IDs/B/01_redfox.jpg,7,1,3,2,1,1,6,1,0,75,,,,,,,,,,,,,,,,,,,,
,,,,,75,2020-07-04_19h30.31.560,retriever_ti,2020.1.3,Win32,60,Chrome,1920,1080,,,,,,,,,,,,,,,,,1,,,,,,,,,,,,,,,,,,,,,,,,,,,397.884845,41,left,1.6881,phone       ,6,9,-1,0,0,397.902985,397.902985,400.40232,0,40,40,40,1,41,6,7,phone       ,dress         ,html/resources/sequences_IDs/B/09_phone.jpg,html/resources/sequences_IDs/A/07_dress.jpg,9,7,4,2,3,2,7,6,0,75,,,,,,,,,,,,,,,,,,,,
,,,,,75,2020-07-04_19h30.31.560,retriever_ti,2020.1.3,Win32,60,Chrome,1920,1080,,,,,,,,,,,,,,,,,1,,,,,,,,,,,,,,,,,,,,,,,,,,,401.50184,42,left,0.55521,giraffe     ,8,3,6,1,3,401.519555,401.519555,404.018585,0,41,41,41,1,42,8,2,giraffe     ,parrot      ,html/resources/sequences_IDs/B/03_giraffe.jpg,html/resources/sequences_IDs/B/05_parrot.jpg,3,5,1,1,2,1,2,4,0,75,,,,,,,,,,,,,,,,,,,,
,,,,,75,2020-07-04_19h30.31.560,retriever_ti,2020.1.3,Win32,60,Chrome,1920,1080,,,,,,,,,,,,,,,,,1,,,,,,,,,,,,,,,,,,,,,,,,,,,404.635705,43,right,1.264205,clownfish     ,5,4,-2,0,3,404.652735,404.652735,407.152505,0,42,42,42,1,43,7,5,dress         ,clownfish     ,html/resources/sequences_IDs/A/07_dress.jpg,html/resources/sequences_IDs/A/04_clownfish.jpg,7,4,3,2,2,1,6,3,0,75,,,,,,,,,,,,,,,,,,,,
,,,,,75,2020-07-04_19h30.31.560,retriever_ti,2020.1.3,Win32,60,Chrome,1920,1080,,,,,,,,,,,,,,,,,1,,,,,,,,,,,,,,,,,,,,,,,,,,,407.753125,44,left,0.93898,clownfish     ,5,4,-1,0,0,407.78559,407.78559,410.285525,0,43,43,43,1,44,5,6,clownfish     ,phone       ,html/resources/sequences_IDs/A/04_clownfish.jpg,html/resources/sequences_IDs/B/09_phone.jpg,4,9,2,1,4,2,3,7,0,75,,,,,,,,,,,,,,,,,,,,
,,,,,75,2020-07-04_19h30.31.560,retriever_ti,2020.1.3,Win32,60,Chrome,1920,1080,,,,,,,,,,,,,,,,,1,,,,,,,,,,,,,,,,,,,,,,,,,,,411.386615,45,right,0.63282,giraffe     ,8,3,4,1,3,411.42065,411.42065,413.919645,0,44,44,44,1,45,4,8,redfox      ,giraffe     ,html/resources/sequences_IDs/B/01_redfox.jpg,html/resources/sequences_IDs/B/03_giraffe.jpg,1,3,1,1,1,1,1,2,0,75,,,,,,,,,,,,,,,,,,,,
,,,,,75,2020-07-04_19h30.31.560,retriever_ti,2020.1.3,Win32,60,Chrome,1920,1080,,,,,,,,,,,,,,,,,1,,,,,,,,,,,,,,,,,,,,,,,,,,,414.520665,46,right,0.87302,dress         ,7,7,6,1,3,414.53675,414.53675,417.036925,0,45,45,45,1,46,1,7,scarf         ,dress         ,html/resources/sequences_IDs/A/06_scarf.jpg,html/resources/sequences_IDs/A/07_dress.jpg,6,7,3,2,3,2,5,6,0,75,,,,,,,,,,,,,,,,,,,,
,,,,,75,2020-07-04_19h30.31.560,retriever_ti,2020.1.3,Win32,60,Chrome,1920,1080,,,,,,,,,,,,,,,,,1,,,,,,,,,,,,,,,,,,,,,,,,,,,417.6542,47,right,1.338685,redfox      ,4,1,1,1,1,417.670555,417.670555,420.16968,0,46,46,46,1,47,3,4,satellite_dish,redfox      ,html/resources/sequences_IDs/A/10_satellite_dish.jpg,html/resources/sequences_IDs/B/01_redfox.jpg,10,1,4,2,1,1,8,1,0,75,,,,,,,,,,,,,,,,,,,,
,,,,,75,2020-07-04_19h30.31.560,retriever_ti,2020.1.3,Win32,60,Chrome,1920,1080,,,,,,,,,,,,,,,,,1,,,,,,,,,,,,,,,,,,,,,,,,,,,421.27065,48,right,0.74364,redfox      ,4,1,-2,0,3,421.30476,421.30476,423.80449,0,47,47,47,1,48,6,4,phone       ,redfox      ,html/resources/sequences_IDs/B/09_phone.jpg,html/resources/sequences_IDs/B/01_redfox.jpg,9,1,4,2,1,1,7,1,0,75,,,,,,,,,,,,,,,,,,,,
,,,,,75,2020-07-04_19h30.31.560,retriever_ti,2020.1.3,Win32,60,Chrome,1920,1080,,,,,,,,,,,,,,,,,1,,,,,,,,,,,,,,,,,,,,,,,,,,,424.420635,49,right,1.44544,parrot      ,2,5,1,1,1,424.454545,424.454545,426.953515,0,48,48,48,1,49,1,2,scarf         ,parrot      ,html/resources/sequences_IDs/A/06_scarf.jpg,html/resources/sequences_IDs/B/05_parrot.jpg,6,5,3,2,2,1,5,4,0,75,,,,,,,,,,,,,,,,,,,,
,,,,,75,2020-07-04_19h30.31.560,retriever_ti,2020.1.3,Win32,60,Chrome,1920,1080,,,,,,,,,,,,,,,,,1,,,,,,,,,,,,,,,,,,,,,,,,,,,428.054585,50,right,0.509025,parrot      ,2,5,1,1,1,428.08726,428.08726,430.58755,0,49,49,49,1,50,1,2,scarf         ,parrot      ,html/resources/sequences_IDs/A/06_scarf.jpg,html/resources/sequences_IDs/B/05_parrot.jpg,6,5,3,2,2,1,5,4,0,75,,,,,,,,,,,,,,,,,,,,
,,,,,75,2020-07-04_19h30.31.560,retriever_ti,2020.1.3,Win32,60,Chrome,1920,1080,,,,,,,,,,,,,,,,,1,,,,,,,,,,,,,,,,,,,,,,,,,,,431.68767,51,left,1.61549,phone       ,6,9,1,1,1,431.70494,431.70494,434.2042,0,50,50,50,1,51,6,5,phone       ,clownfish     ,html/resources/sequences_IDs/B/09_phone.jpg,html/resources/sequences_IDs/A/04_clownfish.jpg,9,4,4,2,2,1,7,3,0,75,,,,,,,,,,,,,,,,,,,,
,,,,,75,2020-07-04_19h30.31.560,retriever_ti,2020.1.3,Win32,60,Chrome,1920,1080,,,,,,,,,,,,,,,,,1,,,,,,,,,,,,,,,,,,,,,,,,,,,435.305435,52,right,1.447275,dress         ,7,7,1,1,0,435.321405,435.321405,437.822115,0,51,51,51,1,52,6,7,phone       ,dress         ,html/resources/sequences_IDs/B/09_phone.jpg,html/resources/sequences_IDs/A/07_dress.jpg,9,7,4,2,3,2,7,6,1,75,,,,,,,,,,,,,,,,,,,,
,,,,,75,2020-07-04_19h30.31.560,retriever_ti,2020.1.3,Win32,60,Chrome,1920,1080,,,,,,,,,,,,,,,,,1,,,,,,,,,,,,,,,,,,,,,,,,,,,438.92162,53,right,0.59304,giraffe     ,8,3,1,1,1,438.939385,438.939385,441.438005,0,52,52,52,1,53,7,8,dress         ,giraffe     ,html/resources/sequences_IDs/A/07_dress.jpg,html/resources/sequences_IDs/B/03_giraffe.jpg,7,3,3,2,1,1,6,2,0,75,,,,,,,,,,,,,,,,,,,,
,,,,,75,2020-07-04_19h30.31.560,retriever_ti,2020.1.3,Win32,60,Chrome,1920,1080,,,,,,,,,,,,,,,,,1,,,,,,,,,,,,,,,,,,,,,,,,,,,442.539155,54,right,1.040115,satellite_dish,3,10,-4,0,3,442.55603,442.55603,445.054845,0,53,53,53,1,54,7,3,dress         ,satellite_dish,html/resources/sequences_IDs/A/07_dress.jpg,html/resources/sequences_IDs/A/10_satellite_dish.jpg,7,10,3,2,4,2,6,8,0,75,,,,,,,,,,,,,,,,,,,,
,,,,,75,2020-07-04_19h30.31.560,retriever_ti,2020.1.3,Win32,60,Chrome,1920,1080,,,,,,,,,,,,,,,,,1,,,,,,,,,,,,,,,,,,,,,,,,,,,445.65628,55,right,0.73212,giraffe     ,8,3,7,1,3,445.671895,445.671895,448.172735,0,54,54,54,1,55,1,8,scarf         ,giraffe     ,html/resources/sequences_IDs/A/06_scarf.jpg,html/resources/sequences_IDs/B/03_giraffe.jpg,6,3,3,2,1,1,5,2,0,75,,,,,,,,,,,,,,,,,,,,
,,,,,75,2020-07-04_19h30.31.560,retriever_ti,2020.1.3,Win32,60,Chrome,1920,1080,,,,,,,,,,,,,,,,,1,,,,,,,,,,,,,,,,,,,,,,,,,,,448.773575,56,right,2.323375,dress         ,7,7,5,1,3,448.78976,448.78976,451.28961,0,55,55,55,1,56,2,7,parrot      ,dress         ,html/resources/sequences_IDs/B/05_parrot.jpg,html/resources/sequences_IDs/A/07_dress.jpg,5,7,2,1,3,2,4,6,0,75,,,,,,,,,,,,,,,,,,,,
,,,,,75,2020-07-04_19h30.31.560,retriever_ti,2020.1.3,Win32,60,Chrome,1920,1080,,,,,,,,,,,,,,,,,1,,,,,,,,,,,,,,,,,,,,,,,,,,,451.906605,57,right,0.721795,giraffe     ,8,3,2,1,3,451.93988,451.93988,454.438665,0,56,56,56,1,57,6,8,phone       ,giraffe     ,html/resources/sequences_IDs/B/09_phone.jpg,html/resources/sequences_IDs/B/03_giraffe.jpg,9,3,4,2,1,1,7,2,0,75,,,,,,,,,,,,,,,,,,,,
,,,,,75,2020-07-04_19h30.31.560,retriever_ti,2020.1.3,Win32,60,Chrome,1920,1080,,,,,,,,,,,,,,,,,1,,,,,,,,,,,,,,,,,,,,,,,,,,,455.040635,58,right,0.97599,phone       ,6,9,1,1,1,455.05607,455.05607,457.55617,0,57,57,57,1,58,5,6,clownfish     ,phone       ,html/resources/sequences_IDs/A/04_clownfish.jpg,html/resources/sequences_IDs/B/09_phone.jpg,4,9,2,1,4,2,3,7,0,75,,,,,,,,,,,,,,,,,,,,
,,,,,75,2020-07-04_19h30.31.560,retriever_ti,2020.1.3,Win32,60,Chrome,1920,1080,,,,,,,,,,,,,,,,,1,,,,,,,,,,,,,,,,,,,,,,,,,,,458.65625,59,right,1.593265,dress         ,7,7,2,1,3,458.67404,458.67404,461.17355,0,58,58,58,1,59,5,7,clownfish     ,dress         ,html/resources/sequences_IDs/A/04_clownfish.jpg,html/resources/sequences_IDs/A/07_dress.jpg,4,7,2,1,3,2,3,6,0,75,,,,,,,,,,,,,,,,,,,,
,,,,,75,2020-07-04_19h30.31.560,retriever_ti,2020.1.3,Win32,60,Chrome,1920,1080,,,,,,,,,,,,,,,,,1,,,,,,,,,,,,,,,,,,,,,,,,,,,461.789795,60,left,0.904645,satellite_dish,3,10,1,1,0,461.807955,461.807955,464.30749,0,59,59,59,1,60,3,2,satellite_dish,parrot      ,html/resources/sequences_IDs/A/10_satellite_dish.jpg,html/resources/sequences_IDs/B/05_parrot.jpg,10,5,4,2,2,1,8,4,1,75,,,,,,,,,,,,,,,,,,,,
,,,,,75,2020-07-04_19h30.31.560,retriever_ti,2020.1.3,Win32,60,Chrome,1920,1080,,,,,,,,,,,,,,,,,1,,,,,,,,,,,,,,,,,,,,,,,,,,,465.406945,61,left,0.790485,giraffe     ,8,3,1,1,1,465.42483,465.42483,467.92455,0,60,60,60,1,61,8,7,giraffe     ,dress         ,html/resources/sequences_IDs/B/03_giraffe.jpg,html/resources/sequences_IDs/A/07_dress.jpg,3,7,1,1,3,2,2,6,0,75,,,,,,,,,,,,,,,,,,,,
,,,,,75,2020-07-04_19h30.31.560,retriever_ti,2020.1.3,Win32,60,Chrome,1920,1080,,,,,,,,,,,,,,,,,1,,,,,,,,,,,,,,,,,,,,,,,,,,,469.02441,62,right,0.571445,giraffe     ,8,3,6,1,3,469.05729,469.05729,471.558015,0,61,61,61,1,62,2,8,parrot      ,giraffe     ,html/resources/sequences_IDs/B/05_parrot.jpg,html/resources/sequences_IDs/B/03_giraffe.jpg,5,3,2,1,1,1,4,2,0,75,,,,,,,,,,,,,,,,,,,,
,,,,,75,2020-07-04_19h30.31.560,retriever_ti,2020.1.3,Win32,60,Chrome,1920,1080,,,,,,,,,,,,,,,,,1,,,,,,,,,,,,,,,,,,,,,,,,,,,472.173665,63,right,0.896935,redfox      ,4,1,-1,0,1,472.190595,472.190595,474.69041,0,62,62,62,1,63,5,4,clownfish     ,redfox      ,html/resources/sequences_IDs/A/04_clownfish.jpg,html/resources/sequences_IDs/B/01_redfox.jpg,4,1,2,1,1,1,3,1,1,75,,,,,,,,,,,,,,,,,,,,
,,,,,75,2020-07-04_19h30.31.560,retriever_ti,2020.1.3,Win32,60,Chrome,1920,1080,,,,,,,,,,,,,,,,,1,,,,,,,,,,,,,,,,,,,,,,,,,,,475.791485,64,left,1.039065,dress         ,7,7,6,1,3,475.824685,475.824685,478.32473,0,63,63,63,1,64,7,1,dress         ,scarf         ,html/resources/sequences_IDs/A/07_dress.jpg,html/resources/sequences_IDs/A/06_scarf.jpg,7,6,3,2,3,2,6,5,0,75,,,,,,,,,,,,,,,,,,,,
,,,,,75,2020-07-04_19h30.31.560,retriever_ti,2020.1.3,Win32,60,Chrome,1920,1080,,,,,,,,,,,,,,,,,1,,,,,,,,,,,,,,,,,,,,,,,,,,,478.94117,65,right,0.973555,satellite_dish,3,10,-3,0,3,478.95869,478.95869,481.458475,0,64,64,64,1,65,6,3,phone       ,satellite_dish,html/resources/sequences_IDs/B/09_phone.jpg,html/resources/sequences_IDs/A/10_satellite_dish.jpg,9,10,4,2,4,2,7,8,0,75,,,,,,,,,,,,,,,,,,,,
,,,,,75,2020-07-04_19h30.31.560,retriever_ti,2020.1.3,Win32,60,Chrome,1920,1080,,,,,,,,,,,,,,,,,1,,,,,,,,,,,,,,,,,,,,,,,,,,,482.05942,66,right,0.71192,satellite_dish,3,10,2,1,3,482.07552,482.07552,484.575695,0,65,65,65,1,66,1,3,scarf         ,satellite_dish,html/resources/sequences_IDs/A/06_scarf.jpg,html/resources/sequences_IDs/A/10_satellite_dish.jpg,6,10,3,2,4,2,5,8,0,75,,,,,,,,,,,,,,,,,,,,
,,,,,75,2020-07-04_19h30.31.560,retriever_ti,2020.1.3,Win32,60,Chrome,1920,1080,,,,,,,,,,,,,,,,,1,,,,,,,,,,,,,,,,,,,,,,,,,,,485.19213,67,right,0.837495,giraffe     ,8,3,1,1,0,485.209345,485.209345,487.708325,0,66,66,66,1,67,7,8,dress         ,giraffe     ,html/resources/sequences_IDs/A/07_dress.jpg,html/resources/sequences_IDs/B/03_giraffe.jpg,7,3,3,2,1,1,6,2,1,75,,,,,,,,,,,,,,,,,,,,
,,,,,75,2020-07-04_19h30.31.560,retriever_ti,2020.1.3,Win32,60,Chrome,1920,1080,,,,,,,,,,,,,,,,,1,,,,,,,,,,,,,,,,,,,,,,,,,,,488.809355,68,left,1.528615,redfox      ,4,1,3,1,3,488.8254,488.8254,491.325785,0,67,67,67,1,68,4,1,redfox      ,scarf         ,html/resources/sequences_IDs/B/01_redfox.jpg,html/resources/sequences_IDs/A/06_scarf.jpg,1,6,1,1,3,2,1,5,0,75,,,,,,,,,,,,,,,,,,,,
,,,,,75,2020-07-04_19h30.31.560,retriever_ti,2020.1.3,Win32,60,Chrome,1920,1080,,,,,,,,,,,,,,,,,1,,,,,,,,,,,,,,,,,,,,,,,,,,,491.94271,69,right,0.7874,giraffe     ,8,3,1,1,1,491.976285,491.976285,494.47488,0,68,68,68,1,69,7,8,dress         ,giraffe     ,html/resources/sequences_IDs/A/07_dress.jpg,html/resources/sequences_IDs/B/03_giraffe.jpg,7,3,3,2,1,1,6,2,0,75,,,,,,,,,,,,,,,,,,,,
,,,,,75,2020-07-04_19h30.31.560,retriever_ti,2020.1.3,Win32,60,Chrome,1920,1080,,,,,,,,,,,,,,,,,1,,,,,,,,,,,,,,,,,,,,,,,,,,,495.577035,70,right,0.923175,redfox      ,4,1,-1,0,0,495.59227,495.59227,498.093285,0,69,69,69,1,70,5,4,clownfish     ,redfox      ,html/resources/sequences_IDs/A/04_clownfish.jpg,html/resources/sequences_IDs/B/01_redfox.jpg,4,1,2,1,1,1,3,1,0,75,,,,,,,,,,,,,,,,,,,,
,,,,,75,2020-07-04_19h30.31.560,retriever_ti,2020.1.3,Win32,60,Chrome,1920,1080,,,,,,,,,,,,,,,,,1,,,,,,,,,,,,,,,,,,,,,,,,,,,499.193045,71,left,1.468535,giraffe     ,8,3,2,1,3,499.210055,499.210055,501.710075,0,70,70,70,1,71,8,6,giraffe     ,phone       ,html/resources/sequences_IDs/B/03_giraffe.jpg,html/resources/sequences_IDs/B/09_phone.jpg,3,9,1,1,4,2,2,7,0,75,,,,,,,,,,,,,,,,,,,,
,,,,,75,2020-07-04_19h30.31.560,retriever_ti,2020.1.3,Win32,60,Chrome,1920,1080,,,,,,,,,,,,,,,,,1,,,,,,,,,,,,,,,,,,,,,,,,,,,502.32766,72,left,1.466365,satellite_dish,3,10,1,1,1,502.343625,502.343625,504.843805,0,71,71,71,1,72,3,2,satellite_dish,parrot      ,html/resources/sequences_IDs/A/10_satellite_dish.jpg,html/resources/sequences_IDs/B/05_parrot.jpg,10,5,4,2,2,1,8,4,0,75,,,,,,,,,,,,,,,,,,,,
,,,,,75,2020-07-04_19h30.31.560,retriever_ti,2020.1.3,Win32,60,Chrome,1920,1080,,,,,,,,,,,,,,,,,1,,,,,,,,,,,,,,,,,,,,,,,,,,,505.94282,73,left,1.33861,phone       ,6,9,-1,0,0,505.9608,505.9608,508.46065,0,72,72,72,1,73,6,7,phone       ,dress         ,html/resources/sequences_IDs/B/09_phone.jpg,html/resources/sequences_IDs/A/07_dress.jpg,9,7,4,2,3,2,7,6,0,75,,,,,,,,,,,,,,,,,,,,
,,,,,75,2020-07-04_19h30.31.560,retriever_ti,2020.1.3,Win32,60,Chrome,1920,1080,,,,,,,,,,,,,,,,,1,,,,,,,,,,,,,,,,,,,,,,,,,,,509.560685,74,right,0.992695,satellite_dish,3,10,-1,0,0,509.57774,509.57774,512.077065,0,73,73,73,1,74,4,3,redfox      ,satellite_dish,html/resources/sequences_IDs/B/01_redfox.jpg,html/resources/sequences_IDs/A/10_satellite_dish.jpg,1,10,1,1,4,2,1,8,0,75,,,,,,,,,,,,,,,,,,,,
,,,,,75,2020-07-04_19h30.31.560,retriever_ti,2020.1.3,Win32,60,Chrome,1920,1080,,,,,,,,,,,,,,,,,1,,,,,,,,,,,,,,,,,,,,,,,,,,,513.178225,75,left,1.61078,phone       ,6,9,1,1,0,513.211575,513.211575,515.71121,0,74,74,74,1,75,6,5,phone       ,clownfish     ,html/resources/sequences_IDs/B/09_phone.jpg,html/resources/sequences_IDs/A/04_clownfish.jpg,9,4,4,2,2,1,7,3,1,75,,,,,,,,,,,,,,,,,,,,
,,,,,75,2020-07-04_19h30.31.560,retriever_ti,2020.1.3,Win32,60,Chrome,1920,1080,,,,,,,,,,,,,,,,,1,,,,,,,,,,,,,,,,,,,,,,,,,,,516.81103,76,right,2.15509,dress         ,7,7,4,1,3,516.84495,516.84495,519.34357,0,75,75,75,1,76,3,7,satellite_dish,dress         ,html/resources/sequences_IDs/A/10_satellite_dish.jpg,html/resources/sequences_IDs/A/07_dress.jpg,10,7,4,2,3,2,8,6,0,75,,,,,,,,,,,,,,,,,,,,
,,,,,75,2020-07-04_19h30.31.560,retriever_ti,2020.1.3,Win32,60,Chrome,1920,1080,,,,,,,,,,,,,,,,,1,,,,,,,,,,,,,,,,,,,,,,,,,,,519.9452,77,left,0.721475,redfox      ,4,1,-1,0,0,519.978645,519.978645,522.47739,0,76,76,76,1,77,4,5,redfox      ,clownfish     ,html/resources/sequences_IDs/B/01_redfox.jpg,html/resources/sequences_IDs/A/04_clownfish.jpg,1,4,1,1,2,1,1,3,0,75,,,,,,,,,,,,,,,,,,,,
,,,,,75,2020-07-04_19h30.31.560,retriever_ti,2020.1.3,Win32,60,Chrome,1920,1080,,,,,,,,,,,,,,,,,,,,,,,,,,,,,,,,,,,,,0,3.1158,,,,,,,,,,,,,,,,,,,,,,,,,,,,,,,,,,,,,,,,,0,0,0,0,1,,,,,,,,,,,,,,,
,,,,,75,2020-07-04_19h30.31.560,retriever_ti,2020.1.3,Win32,60,Chrome,1920,1080,,,,,,,,,,,,,,,,,2,,,,,,,,,,,,,,,,,,,,,,,,,,,538.485155,78,right,1.339525,parrot      ,2,5,-1,0,0,538.498015,538.498015,540.995325,0,0,0,0,1,78,3,2,satellite_dish,parrot      ,html/resources/sequences_IDs/A/10_satellite_dish.jpg,html/resources/sequences_IDs/B/05_parrot.jpg,10,5,4,2,2,1,8,4,0,75,,,,,,,,,,,,,,,,,,,,
,,,,,75,2020-07-04_19h30.31.560,retriever_ti,2020.1.3,Win32,60,Chrome,1920,1080,,,,,,,,,,,,,,,,,2,,,,,,,,,,,,,,,,,,,,,,,,,,,542.09692,79,left,1.67149,giraffe     ,8,3,1,1,1,542.129975,542.129975,544.629765,0,1,1,1,1,79,8,7,giraffe     ,dress         ,html/resources/sequences_IDs/B/03_giraffe.jpg,html/resources/sequences_IDs/A/07_dress.jpg,3,7,1,1,3,2,2,6,0,75,,,,,,,,,,,,,,,,,,,,
,,,,,75,2020-07-04_19h30.31.560,retriever_ti,2020.1.3,Win32,60,Chrome,1920,1080,,,,,,,,,,,,,,,,,2,,,,,,,,,,,,,,,,,,,,,,,,,,,545.729985,80,right,1.255015,redfox      ,4,1,3,1,3,545.747295,545.747295,548.246045,0,2,2,2,1,80,1,4,scarf         ,redfox      ,html/resources/sequences_IDs/A/06_scarf.jpg,html/resources/sequences_IDs/B/01_redfox.jpg,6,1,3,2,1,1,5,1,0,75,,,,,,,,,,,,,,,,,,,,
,,,,,75,2020-07-04_19h30.31.560,retriever_ti,2020.1.3,Win32,60,Chrome,1920,1080,,,,,,,,,,,,,,,,,2,,,,,,,,,,,,,,,,,,,,,,,,,,,548.847895,81,right,0.95551,clownfish     ,5,4,1,1,0,548.88113,548.88113,551.37927,0,3,3,3,1,81,4,5,redfox      ,clownfish     ,html/resources/sequences_IDs/B/01_redfox.jpg,html/resources/sequences_IDs/A/04_clownfish.jpg,1,4,1,1,2,1,1,3,1,75,,,,,,,,,,,,,,,,,,,,
,,,,,75,2020-07-04_19h30.31.560,retriever_ti,2020.1.3,Win32,60,Chrome,1920,1080,,,,,,,,,,,,,,,,,2,,,,,,,,,,,,,,,,,,,,,,,,,,,552.480115,82,left,0.711445,redfox      ,4,1,-1,0,0,552.497025,552.497025,554.99658,0,4,4,4,1,82,4,5,redfox      ,clownfish     ,html/resources/sequences_IDs/B/01_redfox.jpg,html/resources/sequences_IDs/A/04_clownfish.jpg,1,4,1,1,2,1,1,3,0,75,,,,,,,,,,,,,,,,,,,,
,,,,,75,2020-07-04_19h30.31.560,retriever_ti,2020.1.3,Win32,60,Chrome,1920,1080,,,,,,,,,,,,,,,,,2,,,,,,,,,,,,,,,,,,,,,,,,,,,556.096865,83,left,1.481155,satellite_dish,3,10,-4,0,3,556.1148,556.1148,558.61321,0,5,5,5,1,83,3,7,satellite_dish,dress         ,html/resources/sequences_IDs/A/10_satellite_dish.jpg,html/resources/sequences_IDs/A/07_dress.jpg,10,7,4,2,3,2,8,6,0,75,,,,,,,,,,,,,,,,,,,,
,,,,,75,2020-07-04_19h30.31.560,retriever_ti,2020.1.3,Win32,60,Chrome,1920,1080,,,,,,,,,,,,,,,,,2,,,,,,,,,,,,,,,,,,,,,,,,,,,559.214385,84,right,0.7042,giraffe     ,8,3,1,1,1,559.231635,559.231635,561.73056,0,6,6,6,1,84,7,8,dress         ,giraffe     ,html/resources/sequences_IDs/A/07_dress.jpg,html/resources/sequences_IDs/B/03_giraffe.jpg,7,3,3,2,1,1,6,2,0,75,,,,,,,,,,,,,,,,,,,,
,,,,,75,2020-07-04_19h30.31.560,retriever_ti,2020.1.3,Win32,60,Chrome,1920,1080,,,,,,,,,,,,,,,,,2,,,,,,,,,,,,,,,,,,,,,,,,,,,562.831565,85,left,1.3066,scarf         ,1,6,-4,0,3,562.864585,562.864585,565.36475,0,7,7,7,1,85,1,5,scarf         ,clownfish     ,html/resources/sequences_IDs/A/06_scarf.jpg,html/resources/sequences_IDs/A/04_clownfish.jpg,6,4,3,2,2,1,5,3,0,75,,,,,,,,,,,,,,,,,,,,
,,,,,75,2020-07-04_19h30.31.560,retriever_ti,2020.1.3,Win32,60,Chrome,1920,1080,,,,,,,,,,,,,,,,,2,,,,,,,,,,,,,,,,,,,,,,,,,,,565.981815,86,right,0.68783,giraffe     ,8,3,7,1,3,565.99911,565.99911,568.498545,0,8,8,8,1,86,1,8,scarf         ,giraffe     ,html/resources/sequences_IDs/A/06_scarf.jpg,html/resources/sequences_IDs/B/03_giraffe.jpg,6,3,3,2,1,1,5,2,0,75,,,,,,,,,,,,,,,,,,,,
,,,,,75,2020-07-04_19h30.31.560,retriever_ti,2020.1.3,Win32,60,Chrome,1920,1080,,,,,,,,,,,,,,,,,2,,,,,,,,,,,,,,,,,,,,,,,,,,,569.11564,87,left,1.10502,parrot      ,2,5,-3,0,3,569.148045,569.148045,571.64751,0,9,9,9,1,87,2,5,parrot      ,clownfish     ,html/resources/sequences_IDs/B/05_parrot.jpg,html/resources/sequences_IDs/A/04_clownfish.jpg,5,4,2,1,2,1,4,3,0,75,,,,,,,,,,,,,,,,,,,,
,,,,,75,2020-07-04_19h30.31.560,retriever_ti,2020.1.3,Win32,60,Chrome,1920,1080,,,,,,,,,,,,,,,,,2,,,,,,,,,,,,,,,,,,,,,,,,,,,572.24946,88,left,0.92419,parrot      ,2,5,1,1,1,572.26471,572.26471,574.76531,0,10,10,10,1,88,2,1,parrot      ,scarf         ,html/resources/sequences_IDs/B/05_parrot.jpg,html/resources/sequences_IDs/A/06_scarf.jpg,5,6,2,1,3,2,4,5,0,75,,,,,,,,,,,,,,,,,,,,
,,,,,75,2020-07-04_19h30.31.560,retriever_ti,2020.1.3,Win32,60,Chrome,1920,1080,,,,,,,,,,,,,,,,,2,,,,,,,,,,,,,,,,,,,,,,,,,,,575.86494,89,right,1.609665,satellite_dish,3,10,-4,0,3,575.883075,575.883075,578.38291,0,11,11,11,1,89,7,3,dress         ,satellite_dish,html/resources/sequences_IDs/A/07_dress.jpg,html/resources/sequences_IDs/A/10_satellite_dish.jpg,7,10,3,2,4,2,6,8,0,75,,,,,,,,,,,,,,,,,,,,
,,,,,75,2020-07-04_19h30.31.560,retriever_ti,2020.1.3,Win32,60,Chrome,1920,1080,,,,,,,,,,,,,,,,,2,,,,,,,,,,,,,,,,,,,,,,,,,,,578.99952,90,right,0.940155,parrot      ,2,5,1,1,1,579.015425,579.015425,581.515835,0,12,12,12,1,90,1,2,scarf         ,parrot      ,html/resources/sequences_IDs/A/06_scarf.jpg,html/resources/sequences_IDs/B/05_parrot.jpg,6,5,3,2,2,1,5,4,0,75,,,,,,,,,,,,,,,,,,,,
,,,,,75,2020-07-04_19h30.31.560,retriever_ti,2020.1.3,Win32,60,Chrome,1920,1080,,,,,,,,,,,,,,,,,2,,,,,,,,,,,,,,,,,,,,,,,,,,,582.61594,91,right,1.62983,dress         ,7,7,6,1,3,582.63291,582.63291,585.13236,0,13,13,13,1,91,1,7,scarf         ,dress         ,html/resources/sequences_IDs/A/06_scarf.jpg,html/resources/sequences_IDs/A/07_dress.jpg,6,7,3,2,3,2,5,6,0,75,,,,,,,,,,,,,,,,,,,,
,,,,,75,2020-07-04_19h30.31.560,retriever_ti,2020.1.3,Win32,60,Chrome,1920,1080,,,,,,,,,,,,,,,,,2,,,,,,,,,,,,,,,,,,,,,,,,,,,585.74953,92,right,0.943545,redfox      ,4,1,2,1,3,585.783615,585.783615,588.282665,0,14,14,14,1,92,2,4,parrot      ,redfox      ,html/resources/sequences_IDs/B/05_parrot.jpg,html/resources/sequences_IDs/B/01_redfox.jpg,5,1,2,1,1,1,4,1,0,75,,,,,,,,,,,,,,,,,,,,
,,,,,75,2020-07-04_19h30.31.560,retriever_ti,2020.1.3,Win32,60,Chrome,1920,1080,,,,,,,,,,,,,,,,,2,,,,,,,,,,,,,,,,,,,,,,,,,,,588.88423,93,left,1.378495,redfox      ,4,1,1,1,0,588.916855,588.916855,591.41633,0,15,15,15,1,93,4,3,redfox      ,satellite_dish,html/resources/sequences_IDs/B/01_redfox.jpg,html/resources/sequences_IDs/A/10_satellite_dish.jpg,1,10,1,1,4,2,1,8,1,75,,,,,,,,,,,,,,,,,,,,
,,,,,75,2020-07-04_19h30.31.560,retriever_ti,2020.1.3,Win32,60,Chrome,1920,1080,,,,,,,,,,,,,,,,,2,,,,,,,,,,,,,,,,,,,,,,,,,,,592.516555,94,left,0.98924,dress         ,7,7,1,1,1,592.532845,592.532845,595.03252,0,16,16,16,1,94,7,6,dress         ,phone       ,html/resources/sequences_IDs/A/07_dress.jpg,html/resources/sequences_IDs/B/09_phone.jpg,7,9,3,2,4,2,6,7,0,75,,,,,,,,,,,,,,,,,,,,
,,,,,75,2020-07-04_19h30.31.560,retriever_ti,2020.1.3,Win32,60,Chrome,1920,1080,,,,,,,,,,,,,,,,,2,,,,,,,,,,,,,,,,,,,,,,,,,,,596.13445,95,right,0.848285,satellite_dish,3,10,-1,0,0,596.15074,596.15074,598.649665,0,17,17,17,1,95,4,3,redfox      ,satellite_dish,html/resources/sequences_IDs/B/01_redfox.jpg,html/resources/sequences_IDs/A/10_satellite_dish.jpg,1,10,1,1,4,2,1,8,0,75,,,,,,,,,,,,,,,,,,,,
,,,,,75,2020-07-04_19h30.31.560,retriever_ti,2020.1.3,Win32,60,Chrome,1920,1080,,,,,,,,,,,,,,,,,2,,,,,,,,,,,,,,,,,,,,,,,,,,,599.75122,96,left,1.75767,redfox      ,4,1,3,1,3,599.766895,599.766895,602.26643,0,18,18,18,1,96,4,1,redfox      ,scarf         ,html/resources/sequences_IDs/B/01_redfox.jpg,html/resources/sequences_IDs/A/06_scarf.jpg,1,6,1,1,3,2,1,5,0,75,,,,,,,,,,,,,,,,,,,,
,,,,,75,2020-07-04_19h30.31.560,retriever_ti,2020.1.3,Win32,60,Chrome,1920,1080,,,,,,,,,,,,,,,,,2,,,,,,,,,,,,,,,,,,,,,,,,,,,602.883675,97,right,0.956715,dress         ,7,7,3,1,3,602.918585,602.918585,605.41773,0,19,19,19,1,97,4,7,redfox      ,dress         ,html/resources/sequences_IDs/B/01_redfox.jpg,html/resources/sequences_IDs/A/07_dress.jpg,1,7,1,1,3,2,1,6,0,75,,,,,,,,,,,,,,,,,,,,
,,,,,75,2020-07-04_19h30.31.560,retriever_ti,2020.1.3,Win32,60,Chrome,1920,1080,,,,,,,,,,,,,,,,,2,,,,,,,,,,,,,,,,,,,,,,,,,,,606.018515,98,right,0.94832,clownfish     ,5,4,1,1,1,606.034795,606.034795,608.53452,0,20,20,20,1,98,4,5,redfox      ,clownfish     ,html/resources/sequences_IDs/B/01_redfox.jpg,html/resources/sequences_IDs/A/04_clownfish.jpg,1,4,1,1,2,1,1,3,0,75,,,,,,,,,,,,,,,,,,,,
,,,,,75,2020-07-04_19h30.31.560,retriever_ti,2020.1.3,Win32,60,Chrome,1920,1080,,,,,,,,,,,,,,,,,2,,,,,,,,,,,,,,,,,,,,,,,,,,,609.63424,99,right,1.104935,satellite_dish,3,10,-3,0,3,609.6682,609.6682,612.167885,0,21,21,21,1,99,6,3,phone       ,satellite_dish,html/resources/sequences_IDs/B/09_phone.jpg,html/resources/sequences_IDs/A/10_satellite_dish.jpg,9,10,4,2,4,2,7,8,0,75,,,,,,,,,,,,,,,,,,,,
,,,,,75,2020-07-04_19h30.31.560,retriever_ti,2020.1.3,Win32,60,Chrome,1920,1080,,,,,,,,,,,,,,,,,2,,,,,,,,,,,,,,,,,,,,,,,,,,,612.768535,100,left,0.73269,giraffe     ,8,3,1,1,0,612.80217,612.80217,615.300915,0,22,22,22,1,100,8,7,giraffe     ,dress         ,html/resources/sequences_IDs/B/03_giraffe.jpg,html/resources/sequences_IDs/A/07_dress.jpg,3,7,1,1,3,2,2,6,1,75,,,,,,,,,,,,,,,,,,,,
,,,,,75,2020-07-04_19h30.31.560,retriever_ti,2020.1.3,Win32,60,Chrome,1920,1080,,,,,,,,,,,,,,,,,2,,,,,,,,,,,,,,,,,,,,,,,,,,,616.401305,101,left,0.99513,giraffe     ,8,3,6,1,3,616.41913,616.41913,618.918525,0,23,23,23,1,101,8,2,giraffe     ,parrot      ,html/resources/sequences_IDs/B/03_giraffe.jpg,html/resources/sequences_IDs/B/05_parrot.jpg,3,5,1,1,2,1,2,4,0,75,,,,,,,,,,,,,,,,,,,,
,,,,,75,2020-07-04_19h30.31.560,retriever_ti,2020.1.3,Win32,60,Chrome,1920,1080,,,,,,,,,,,,,,,,,2,,,,,,,,,,,,,,,,,,,,,,,,,,,619.536195,102,left,1.07331,redfox      ,4,1,1,1,1,619.568485,619.568485,622.067745,0,24,24,24,1,102,4,3,redfox      ,satellite_dish,html/resources/sequences_IDs/B/01_redfox.jpg,html/resources/sequences_IDs/A/10_satellite_dish.jpg,1,10,1,1,4,2,1,8,0,75,,,,,,,,,,,,,,,,,,,,
,,,,,75,2020-07-04_19h30.31.560,retriever_ti,2020.1.3,Win32,60,Chrome,1920,1080,,,,,,,,,,,,,,,,,2,,,,,,,,,,,,,,,,,,,,,,,,,,,623.16955,103,right,1.17232,redfox      ,4,1,1,1,1,623.185745,623.185745,625.685885,0,25,25,25,1,103,3,4,satellite_dish,redfox      ,html/resources/sequences_IDs/A/10_satellite_dish.jpg,html/resources/sequences_IDs/B/01_redfox.jpg,10,1,4,2,1,1,8,1,0,75,,,,,,,,,,,,,,,,,,,,
,,,,,75,2020-07-04_19h30.31.560,retriever_ti,2020.1.3,Win32,60,Chrome,1920,1080,,,,,,,,,,,,,,,,,2,,,,,,,,,,,,,,,,,,,,,,,,,,,626.78587,104,right,1.022055,phone       ,6,9,-1,0,0,626.819765,626.819765,629.318745,0,26,26,26,1,104,7,6,dress         ,phone       ,html/resources/sequences_IDs/A/07_dress.jpg,html/resources/sequences_IDs/B/09_phone.jpg,7,9,3,2,4,2,6,7,0,75,,,,,,,,,,,,,,,,,,,,
,,,,,75,2020-07-04_19h30.31.560,retriever_ti,2020.1.3,Win32,60,Chrome,1920,1080,,,,,,,,,,,,,,,,,2,,,,,,,,,,,,,,,,,,,,,,,,,,,630.42054,105,right,1.23263,clownfish     ,5,4,-2,0,3,630.453645,630.453645,632.95339,0,27,27,27,1,105,7,5,dress         ,clownfish     ,html/resources/sequences_IDs/A/07_dress.jpg,html/resources/sequences_IDs/A/04_clownfish.jpg,7,4,3,2,2,1,6,3,0,75,,,,,,,,,,,,,,,,,,,,
,,,,,75,2020-07-04_19h30.31.560,retriever_ti,2020.1.3,Win32,60,Chrome,1920,1080,,,,,,,,,,,,,,,,,2,,,,,,,,,,,,,,,,,,,,,,,,,,,633.553675,106,left,1.105415,clownfish     ,5,4,1,1,1,633.570495,633.570495,636.069085,0,28,28,28,1,106,5,4,clownfish     ,redfox      ,html/resources/sequences_IDs/A/04_clownfish.jpg,html/resources/sequences_IDs/B/01_redfox.jpg,4,1,2,1,1,1,3,1,0,75,,,,,,,,,,,,,,,,,,,,
,,,,,75,2020-07-04_19h30.31.560,retriever_ti,2020.1.3,Win32,60,Chrome,1920,1080,,,,,,,,,,,,,,,,,2,,,,,,,,,,,,,,,,,,,,,,,,,,,637.172865,107,left,2.30547,satellite_dish,3,10,2,1,3,637.18902,637.18902,639.68603,0,29,29,29,1,107,3,1,satellite_dish,scarf         ,html/resources/sequences_IDs/A/10_satellite_dish.jpg,html/resources/sequences_IDs/A/06_scarf.jpg,10,6,4,2,3,2,8,5,0,75,,,,,,,,,,,,,,,,,,,,
,,,,,75,2020-07-04_19h30.31.560,retriever_ti,2020.1.3,Win32,60,Chrome,1920,1080,,,,,,,,,,,,,,,,,2,,,,,,,,,,,,,,,,,,,,,,,,,,,640.28678,108,left,1.12545,satellite_dish,3,10,-3,0,3,640.32086,640.32086,642.82026,0,30,30,30,1,108,3,6,satellite_dish,phone       ,html/resources/sequences_IDs/A/10_satellite_dish.jpg,html/resources/sequences_IDs/B/09_phone.jpg,10,9,4,2,4,2,8,7,0,75,,,,,,,,,,,,,,,,,,,,
,,,,,75,2020-07-04_19h30.31.560,retriever_ti,2020.1.3,Win32,60,Chrome,1920,1080,,,,,,,,,,,,,,,,,2,,,,,,,,,,,,,,,,,,,,,,,,,,,643.437935,109,right,0.81442,satellite_dish,3,10,2,1,3,643.471445,643.471445,645.970515,0,31,31,31,1,109,1,3,scarf         ,satellite_dish,html/resources/sequences_IDs/A/06_scarf.jpg,html/resources/sequences_IDs/A/10_satellite_dish.jpg,6,10,3,2,4,2,5,8,0,75,,,,,,,,,,,,,,,,,,,,
,,,,,75,2020-07-04_19h30.31.560,retriever_ti,2020.1.3,Win32,60,Chrome,1920,1080,,,,,,,,,,,,,,,,,2,,,,,,,,,,,,,,,,,,,,,,,,,,,646.58791,110,right,0.849005,dress         ,7,7,-1,0,0,646.604205,646.604205,649.104895,0,32,32,32,1,110,8,7,giraffe     ,dress         ,html/resources/sequences_IDs/B/03_giraffe.jpg,html/resources/sequences_IDs/A/07_dress.jpg,3,7,1,1,3,2,2,6,0,75,,,,,,,,,,,,,,,,,,,,
,,,,,75,2020-07-04_19h30.31.560,retriever_ti,2020.1.3,Win32,60,Chrome,1920,1080,,,,,,,,,,,,,,,,,2,,,,,,,,,,,,,,,,,,,,,,,,,,,650.20484,111,right,1.307665,satellite_dish,3,10,1,1,0,650.237865,650.237865,652.73742,0,33,33,33,1,111,2,3,parrot      ,satellite_dish,html/resources/sequences_IDs/B/05_parrot.jpg,html/resources/sequences_IDs/A/10_satellite_dish.jpg,5,10,2,1,4,2,4,8,1,75,,,,,,,,,,,,,,,,,,,,
,,,,,75,2020-07-04_19h30.31.560,retriever_ti,2020.1.3,Win32,60,Chrome,1920,1080,,,,,,,,,,,,,,,,,2,,,,,,,,,,,,,,,,,,,,,,,,,,,653.838435,112,left,1.082075,phone       ,6,9,-1,0,0,653.871,653.871,656.372095,0,34,34,34,1,112,6,7,phone       ,dress         ,html/resources/sequences_IDs/B/09_phone.jpg,html/resources/sequences_IDs/A/07_dress.jpg,9,7,4,2,3,2,7,6,0,75,,,,,,,,,,,,,,,,,,,,
,,,,,75,2020-07-04_19h30.31.560,retriever_ti,2020.1.3,Win32,60,Chrome,1920,1080,,,,,,,,,,,,,,,,,2,,,,,,,,,,,,,,,,,,,,,,,,,,,657.472055,113,right,1.27933,redfox      ,4,1,-2,0,3,657.50595,657.50595,660.004805,0,35,35,35,1,113,6,4,phone       ,redfox      ,html/resources/sequences_IDs/B/09_phone.jpg,html/resources/sequences_IDs/B/01_redfox.jpg,9,1,4,2,1,1,7,1,0,75,,,,,,,,,,,,,,,,,,,,
,,,,,75,2020-07-04_19h30.31.560,retriever_ti,2020.1.3,Win32,60,Chrome,1920,1080,,,,,,,,,,,,,,,,,2,,,,,,,,,,,,,,,,,,,,,,,,,,,660.62223,114,left,0.89058,clownfish     ,5,4,-2,0,3,660.65508,660.65508,663.15539,0,36,36,36,1,114,5,7,clownfish     ,dress         ,html/resources/sequences_IDs/A/04_clownfish.jpg,html/resources/sequences_IDs/A/07_dress.jpg,4,7,2,1,3,2,3,6,0,75,,,,,,,,,,,,,,,,,,,,
,,,,,75,2020-07-04_19h30.31.560,retriever_ti,2020.1.3,Win32,60,Chrome,1920,1080,,,,,,,,,,,,,,,,,2,,,,,,,,,,,,,,,,,,,,,,,,,,,663.77275,115,left,1.092255,parrot      ,2,5,1,1,0,663.805245,663.805245,666.30564,0,37,37,37,1,115,2,1,parrot      ,scarf         ,html/resources/sequences_IDs/B/05_parrot.jpg,html/resources/sequences_IDs/A/06_scarf.jpg,5,6,2,1,3,2,4,5,1,75,,,,,,,,,,,,,,,,,,,,
,,,,,75,2020-07-04_19h30.31.560,retriever_ti,2020.1.3,Win32,60,Chrome,1920,1080,,,,,,,,,,,,,,,,,2,,,,,,,,,,,,,,,,,,,,,,,,,,,667.40586,116,left,1.04615,giraffe     ,8,3,5,1,3,667.422805,667.422805,669.92235,0,38,38,38,1,116,8,3,giraffe     ,satellite_dish,html/resources/sequences_IDs/B/03_giraffe.jpg,html/resources/sequences_IDs/A/10_satellite_dish.jpg,3,10,1,1,4,2,2,8,0,75,,,,,,,,,,,,,,,,,,,,
,,,,,75,2020-07-04_19h30.31.560,retriever_ti,2020.1.3,Win32,60,Chrome,1920,1080,,,,,,,,,,,,,,,,,2,,,,,,,,,,,,,,,,,,,,,,,,,,,670.53877,117,right,0.68001,satellite_dish,3,10,1,1,1,670.57354,670.57354,673.07387,0,39,39,39,1,117,2,3,parrot      ,satellite_dish,html/resources/sequences_IDs/B/05_parrot.jpg,html/resources/sequences_IDs/A/10_satellite_dish.jpg,5,10,2,1,4,2,4,8,0,75,,,,,,,,,,,,,,,,,,,,
,,,,,75,2020-07-04_19h30.31.560,retriever_ti,2020.1.3,Win32,60,Chrome,1920,1080,,,,,,,,,,,,,,,,,2,,,,,,,,,,,,,,,,,,,,,,,,,,,674.173745,118,left,1.214775,clownfish     ,5,4,1,1,1,674.18921,674.18921,676.688875,0,40,40,40,1,118,5,4,clownfish     ,redfox      ,html/resources/sequences_IDs/A/04_clownfish.jpg,html/resources/sequences_IDs/B/01_redfox.jpg,4,1,2,1,1,1,3,1,0,75,,,,,,,,,,,,,,,,,,,,
,,,,,75,2020-07-04_19h30.31.560,retriever_ti,2020.1.3,Win32,60,Chrome,1920,1080,,,,,,,,,,,,,,,,,2,,,,,,,,,,,,,,,,,,,,,,,,,,,677.789415,119,left,1.204885,clownfish     ,5,4,3,1,3,677.822895,677.822895,680.323385,0,41,41,41,1,119,5,2,clownfish     ,parrot      ,html/resources/sequences_IDs/A/04_clownfish.jpg,html/resources/sequences_IDs/B/05_parrot.jpg,4,5,2,1,2,1,3,4,0,75,,,,,,,,,,,,,,,,,,,,
,,,,,75,2020-07-04_19h30.31.560,retriever_ti,2020.1.3,Win32,60,Chrome,1920,1080,,,,,,,,,,,,,,,,,2,,,,,,,,,,,,,,,,,,,,,,,,,,,680.9242,120,right,0.54332,clownfish     ,5,4,2,1,3,680.95716,680.95716,683.45703,0,42,42,42,1,120,3,5,satellite_dish,clownfish     ,html/resources/sequences_IDs/A/10_satellite_dish.jpg,html/resources/sequences_IDs/A/04_clownfish.jpg,10,4,4,2,2,1,8,3,0,75,,,,,,,,,,,,,,,,,,,,
,,,,,75,2020-07-04_19h30.31.560,retriever_ti,2020.1.3,Win32,60,Chrome,1920,1080,,,,,,,,,,,,,,,,,2,,,,,,,,,,,,,,,,,,,,,,,,,,,684.07293,121,left,1.209365,satellite_dish,3,10,-1,0,0,684.091075,684.091075,686.59051,0,43,43,43,1,121,3,4,satellite_dish,redfox      ,html/resources/sequences_IDs/A/10_satellite_dish.jpg,html/resources/sequences_IDs/B/01_redfox.jpg,10,1,4,2,1,1,8,1,0,75,,,,,,,,,,,,,,,,,,,,
,,,,,75,2020-07-04_19h30.31.560,retriever_ti,2020.1.3,Win32,60,Chrome,1920,1080,,,,,,,,,,,,,,,,,2,,,,,,,,,,,,,,,,,,,,,,,,,,,687.69092,122,left,1.103425,parrot      ,2,5,-5,0,3,687.724965,687.724965,690.223455,0,44,44,44,1,122,2,7,parrot      ,dress         ,html/resources/sequences_IDs/B/05_parrot.jpg,html/resources/sequences_IDs/A/07_dress.jpg,5,7,2,1,3,2,4,6,0,75,,,,,,,,,,,,,,,,,,,,
,,,,,75,2020-07-04_19h30.31.560,retriever_ti,2020.1.3,Win32,60,Chrome,1920,1080,,,,,,,,,,,,,,,,,2,,,,,,,,,,,,,,,,,,,,,,,,,,,690.840185,123,right,0.59686,parrot      ,2,5,-4,0,3,690.874935,690.874935,693.3732,0,45,45,45,1,123,6,2,phone       ,parrot      ,html/resources/sequences_IDs/B/09_phone.jpg,html/resources/sequences_IDs/B/05_parrot.jpg,9,5,4,2,2,1,7,4,0,75,,,,,,,,,,,,,,,,,,,,
,,,,,75,2020-07-04_19h30.31.560,retriever_ti,2020.1.3,Win32,60,Chrome,1920,1080,,,,,,,,,,,,,,,,,2,,,,,,,,,,,,,,,,,,,,,,,,,,,693.974535,124,right,1.332755,phone       ,6,9,1,1,0,694.0077,694.0077,696.50739,0,46,46,46,1,124,5,6,clownfish     ,phone       ,html/resources/sequences_IDs/A/04_clownfish.jpg,html/resources/sequences_IDs/B/09_phone.jpg,4,9,2,1,4,2,3,7,1,75,,,,,,,,,,,,,,,,,,,,
,,,,,75,2020-07-04_19h30.31.560,retriever_ti,2020.1.3,Win32,60,Chrome,1920,1080,,,,,,,,,,,,,,,,,2,,,,,,,,,,,,,,,,,,,,,,,,,,,697.60895,125,right,1.398905,parrot      ,2,5,-2,0,3,697.640995,697.640995,700.14149,0,47,47,47,1,125,4,2,redfox      ,parrot      ,html/resources/sequences_IDs/B/01_redfox.jpg,html/resources/sequences_IDs/B/05_parrot.jpg,1,5,1,1,2,1,1,4,0,75,,,,,,,,,,,,,,,,,,,,
,,,,,75,2020-07-04_19h30.31.560,retriever_ti,2020.1.3,Win32,60,Chrome,1920,1080,,,,,,,,,,,,,,,,,2,,,,,,,,,,,,,,,,,,,,,,,,,,,700.742405,126,left,1.01338,giraffe     ,8,3,4,1,3,700.758645,700.758645,703.258425,0,48,48,48,1,126,8,4,giraffe     ,redfox      ,html/resources/sequences_IDs/B/03_giraffe.jpg,html/resources/sequences_IDs/B/01_redfox.jpg,3,1,1,1,1,1,2,1,0,75,,,,,,,,,,,,,,,,,,,,
,,,,,75,2020-07-04_19h30.31.560,retriever_ti,2020.1.3,Win32,60,Chrome,1920,1080,,,,,,,,,,,,,,,,,2,,,,,,,,,,,,,,,,,,,,,,,,,,,703.8745,127,right,1.05573,giraffe     ,8,3,1,1,1,703.908015,703.908015,706.40866,0,49,49,49,1,127,7,8,dress         ,giraffe     ,html/resources/sequences_IDs/A/07_dress.jpg,html/resources/sequences_IDs/B/03_giraffe.jpg,7,3,3,2,1,1,6,2,0,75,,,,,,,,,,,,,,,,,,,,
,,,,,75,2020-07-04_19h30.31.560,retriever_ti,2020.1.3,Win32,60,Chrome,1920,1080,,,,,,,,,,,,,,,,,2,,,,,,,,,,,,,,,,,,,,,,,,,,,707.508265,128,left,1.145995,giraffe     ,8,3,2,1,3,707.54154,707.54154,710.042665,0,50,50,50,1,128,8,6,giraffe     ,phone       ,html/resources/sequences_IDs/B/03_giraffe.jpg,html/resources/sequences_IDs/B/09_phone.jpg,3,9,1,1,4,2,2,7,0,75,,,,,,,,,,,,,,,,,,,,
,,,,,75,2020-07-04_19h30.31.560,retriever_ti,2020.1.3,Win32,60,Chrome,1920,1080,,,,,,,,,,,,,,,,,2,,,,,,,,,,,,,,,,,,,,,,,,,,,710.659375,129,right,1.59087,giraffe     ,8,3,3,1,3,710.676405,710.676405,713.175935,0,51,51,51,1,129,5,8,clownfish     ,giraffe     ,html/resources/sequences_IDs/A/04_clownfish.jpg,html/resources/sequences_IDs/B/03_giraffe.jpg,4,3,2,1,1,1,3,2,0,75,,,,,,,,,,,,,,,,,,,,
,,,,,75,2020-07-04_19h30.31.560,retriever_ti,2020.1.3,Win32,60,Chrome,1920,1080,,,,,,,,,,,,,,,,,2,,,,,,,,,,,,,,,,,,,,,,,,,,,713.776535,130,left,0.72197,giraffe     ,8,3,7,1,3,713.809825,713.809825,716.308615,0,52,52,52,1,130,8,1,giraffe     ,scarf         ,html/resources/sequences_IDs/B/03_giraffe.jpg,html/resources/sequences_IDs/A/06_scarf.jpg,3,6,1,1,3,2,2,5,0,75,,,,,,,,,,,,,,,,,,,,
,,,,,75,2020-07-04_19h30.31.560,retriever_ti,2020.1.3,Win32,60,Chrome,1920,1080,,,,,,,,,,,,,,,,,2,,,,,,,,,,,,,,,,,,,,,,,,,,,716.909955,131,left,1.60586,dress         ,7,7,3,1,3,716.926115,716.926115,719.425685,0,53,53,53,1,131,7,4,dress         ,redfox      ,html/resources/sequences_IDs/A/07_dress.jpg,html/resources/sequences_IDs/B/01_redfox.jpg,7,1,3,2,1,1,6,1,0,75,,,,,,,,,,,,,,,,,,,,
,,,,,75,2020-07-04_19h30.31.560,retriever_ti,2020.1.3,Win32,60,Chrome,1920,1080,,,,,,,,,,,,,,,,,2,,,,,,,,,,,,,,,,,,,,,,,,,,,720.043515,132,right,1.403665,parrot      ,2,5,-1,0,0,720.060755,720.060755,722.559495,0,54,54,54,1,132,3,2,satellite_dish,parrot      ,html/resources/sequences_IDs/A/10_satellite_dish.jpg,html/resources/sequences_IDs/B/05_parrot.jpg,10,5,4,2,2,1,8,4,0,75,,,,,,,,,,,,,,,,,,,,
,,,,,75,2020-07-04_19h30.31.560,retriever_ti,2020.1.3,Win32,60,Chrome,1920,1080,,,,,,,,,,,,,,,,,2,,,,,,,,,,,,,,,,,,,,,,,,,,,723.659365,133,right,1.020945,parrot      ,2,5,-5,0,3,723.69417,723.69417,726.193545,0,55,55,55,1,133,7,2,dress         ,parrot      ,html/resources/sequences_IDs/A/07_dress.jpg,html/resources/sequences_IDs/B/05_parrot.jpg,7,5,3,2,2,1,6,4,0,75,,,,,,,,,,,,,,,,,,,,
,,,,,75,2020-07-04_19h30.31.560,retriever_ti,2020.1.3,Win32,60,Chrome,1920,1080,,,,,,,,,,,,,,,,,2,,,,,,,,,,,,,,,,,,,,,,,,,,,726.81064,134,left,0.856145,parrot      ,2,5,-1,0,0,726.84361,726.84361,729.34308,0,56,56,56,1,134,2,3,parrot      ,satellite_dish,html/resources/sequences_IDs/B/05_parrot.jpg,html/resources/sequences_IDs/A/10_satellite_dish.jpg,5,10,2,1,4,2,4,8,0,75,,,,,,,,,,,,,,,,,,,,
,,,,,75,2020-07-04_19h30.31.560,retriever_ti,2020.1.3,Win32,60,Chrome,1920,1080,,,,,,,,,,,,,,,,,2,,,,,,,,,,,,,,,,,,,,,,,,,,,730.443375,135,left,1.17505,clownfish     ,5,4,-1,0,0,730.46042,730.46042,732.961005,0,57,57,57,1,135,5,6,clownfish     ,phone       ,html/resources/sequences_IDs/A/04_clownfish.jpg,html/resources/sequences_IDs/B/09_phone.jpg,4,9,2,1,4,2,3,7,0,75,,,,,,,,,,,,,,,,,,,,
,,,,,75,2020-07-04_19h30.31.560,retriever_ti,2020.1.3,Win32,60,Chrome,1920,1080,,,,,,,,,,,,,,,,,2,,,,,,,,,,,,,,,,,,,,,,,,,,,734.060635,136,left,1.904845,phone       ,6,9,1,1,1,734.0948,734.0948,736.593285,0,58,58,58,1,136,6,5,phone       ,clownfish     ,html/resources/sequences_IDs/B/09_phone.jpg,html/resources/sequences_IDs/A/04_clownfish.jpg,9,4,4,2,2,1,7,3,0,75,,,,,,,,,,,,,,,,,,,,
,,,,,75,2020-07-04_19h30.31.560,retriever_ti,2020.1.3,Win32,60,Chrome,1920,1080,,,,,,,,,,,,,,,,,2,,,,,,,,,,,,,,,,,,,,,,,,,,,737.69381,137,left,1.14022,satellite_dish,3,10,-5,0,3,737.727275,737.727275,740.22777,0,59,59,59,1,137,3,8,satellite_dish,giraffe     ,html/resources/sequences_IDs/A/10_satellite_dish.jpg,html/resources/sequences_IDs/B/03_giraffe.jpg,10,3,4,2,1,1,8,2,0,75,,,,,,,,,,,,,,,,,,,,
,,,,,75,2020-07-04_19h30.31.560,retriever_ti,2020.1.3,Win32,60,Chrome,1920,1080,,,,,,,,,,,,,,,,,2,,,,,,,,,,,,,,,,,,,,,,,,,,,740.82865,138,left,1.412315,parrot      ,2,5,1,1,1,740.861665,740.861665,743.361425,0,60,60,60,1,138,2,1,parrot      ,scarf         ,html/resources/sequences_IDs/B/05_parrot.jpg,html/resources/sequences_IDs/A/06_scarf.jpg,5,6,2,1,3,2,4,5,0,75,,,,,,,,,,,,,,,,,,,,
,,,,,75,2020-07-04_19h30.31.560,retriever_ti,2020.1.3,Win32,60,Chrome,1920,1080,,,,,,,,,,,,,,,,,2,,,,,,,,,,,,,,,,,,,,,,,,,,,744.462205,139,left,1.220605,dress         ,7,7,6,1,3,744.495555,744.495555,746.995385,0,61,61,61,1,139,7,1,dress         ,scarf         ,html/resources/sequences_IDs/A/07_dress.jpg,html/resources/sequences_IDs/A/06_scarf.jpg,7,6,3,2,3,2,6,5,0,75,,,,,,,,,,,,,,,,,,,,
,,,,,75,2020-07-04_19h30.31.560,retriever_ti,2020.1.3,Win32,60,Chrome,1920,1080,,,,,,,,,,,,,,,,,2,,,,,,,,,,,,,,,,,,,,,,,,,,,747.599565,140,left,1.0953,parrot      ,2,5,-6,0,3,747.61453,747.61453,750.112545,0,62,62,62,1,140,2,8,parrot      ,giraffe     ,html/resources/sequences_IDs/B/05_parrot.jpg,html/resources/sequences_IDs/B/03_giraffe.jpg,5,3,2,1,1,1,4,2,0,75,,,,,,,,,,,,,,,,,,,,
,,,,,75,2020-07-04_19h30.31.560,retriever_ti,2020.1.3,Win32,60,Chrome,1920,1080,,,,,,,,,,,,,,,,,2,,,,,,,,,,,,,,,,,,,,,,,,,,,750.72956,141,right,1.37312,phone       ,6,9,4,1,3,750.74551,750.74551,753.24434,0,63,63,63,1,141,2,6,parrot      ,phone       ,html/resources/sequences_IDs/B/05_parrot.jpg,html/resources/sequences_IDs/B/09_phone.jpg,5,9,2,1,4,2,4,7,0,75,,,,,,,,,,,,,,,,,,,,
,,,,,75,2020-07-04_19h30.31.560,retriever_ti,2020.1.3,Win32,60,Chrome,1920,1080,,,,,,,,,,,,,,,,,2,,,,,,,,,,,,,,,,,,,,,,,,,,,753.84499,142,right,1.01056,phone       ,6,9,-1,0,1,753.88004,753.88004,756.37969,0,64,64,64,1,142,7,6,dress         ,phone       ,html/resources/sequences_IDs/A/07_dress.jpg,html/resources/sequences_IDs/B/09_phone.jpg,7,9,3,2,4,2,6,7,1,75,,,,,,,,,,,,,,,,,,,,
,,,,,75,2020-07-04_19h30.31.560,retriever_ti,2020.1.3,Win32,60,Chrome,1920,1080,,,,,,,,,,,,,,,,,2,,,,,,,,,,,,,,,,,,,,,,,,,,,757.47982,143,left,0.989945,clownfish     ,5,4,-1,0,0,757.496615,757.496615,759.99544,0,65,65,65,1,143,5,6,clownfish     ,phone       ,html/resources/sequences_IDs/A/04_clownfish.jpg,html/resources/sequences_IDs/B/09_phone.jpg,4,9,2,1,4,2,3,7,0,75,,,,,,,,,,,,,,,,,,,,
,,,,,75,2020-07-04_19h30.31.560,retriever_ti,2020.1.3,Win32,60,Chrome,1920,1080,,,,,,,,,,,,,,,,,2,,,,,,,,,,,,,,,,,,,,,,,,,,,761.09586,144,right,0.825305,parrot      ,2,5,1,1,1,761.12904,761.12904,763.62909,0,66,66,66,1,144,1,2,scarf         ,parrot      ,html/resources/sequences_IDs/A/06_scarf.jpg,html/resources/sequences_IDs/B/05_parrot.jpg,6,5,3,2,2,1,5,4,0,75,,,,,,,,,,,,,,,,,,,,
,,,,,75,2020-07-04_19h30.31.560,retriever_ti,2020.1.3,Win32,60,Chrome,1920,1080,,,,,,,,,,,,,,,,,2,,,,,,,,,,,,,,,,,,,,,,,,,,,764.729975,145,left,1.641485,phone       ,6,9,1,1,1,764.746205,764.746205,767.246675,0,67,67,67,1,145,6,5,phone       ,clownfish     ,html/resources/sequences_IDs/B/09_phone.jpg,html/resources/sequences_IDs/A/04_clownfish.jpg,9,4,4,2,2,1,7,3,0,75,,,,,,,,,,,,,,,,,,,,
,,,,,75,2020-07-04_19h30.31.560,retriever_ti,2020.1.3,Win32,60,Chrome,1920,1080,,,,,,,,,,,,,,,,,2,,,,,,,,,,,,,,,,,,,,,,,,,,,768.347575,146,left,0.94944,giraffe     ,8,3,3,1,3,768.38057,768.38057,770.879815,0,68,68,68,1,146,8,5,giraffe     ,clownfish     ,html/resources/sequences_IDs/B/03_giraffe.jpg,html/resources/sequences_IDs/A/04_clownfish.jpg,3,4,1,1,2,1,2,3,0,75,,,,,,,,,,,,,,,,,,,,
,,,,,75,2020-07-04_19h30.31.560,retriever_ti,2020.1.3,Win32,60,Chrome,1920,1080,,,,,,,,,,,,,,,,,2,,,,,,,,,,,,,,,,,,,,,,,,,,,771.496125,147,left,0.821775,phone       ,6,9,-1,0,0,771.513325,771.513325,774.01336,0,69,69,69,1,147,6,7,phone       ,dress         ,html/resources/sequences_IDs/B/09_phone.jpg,html/resources/sequences_IDs/A/07_dress.jpg,9,7,4,2,3,2,7,6,0,75,,,,,,,,,,,,,,,,,,,,
,,,,,75,2020-07-04_19h30.31.560,retriever_ti,2020.1.3,Win32,60,Chrome,1920,1080,,,,,,,,,,,,,,,,,2,,,,,,,,,,,,,,,,,,,,,,,,,,,775.11406,148,right,1.221745,phone       ,6,9,2,1,3,775.130325,775.130325,777.63102,0,70,70,70,1,148,4,6,redfox      ,phone       ,html/resources/sequences_IDs/B/01_redfox.jpg,html/resources/sequences_IDs/B/09_phone.jpg,1,9,1,1,4,2,1,7,0,75,,,,,,,,,,,,,,,,,,,,
,,,,,75,2020-07-04_19h30.31.560,retriever_ti,2020.1.3,Win32,60,Chrome,1920,1080,,,,,,,,,,,,,,,,,2,,,,,,,,,,,,,,,,,,,,,,,,,,,778.24767,149,left,0.82207,clownfish     ,5,4,4,1,3,778.2642,778.2642,780.763155,0,71,71,71,1,149,5,1,clownfish     ,scarf         ,html/resources/sequences_IDs/A/04_clownfish.jpg,html/resources/sequences_IDs/A/06_scarf.jpg,4,6,2,1,3,2,3,5,0,75,,,,,,,,,,,,,,,,,,,,
,,,,,75,2020-07-04_19h30.31.560,retriever_ti,2020.1.3,Win32,60,Chrome,1920,1080,,,,,,,,,,,,,,,,,2,,,,,,,,,,,,,,,,,,,,,,,,,,,781.38023,150,right,0.93827,giraffe     ,8,3,4,1,3,781.398445,781.398445,783.897125,0,72,72,72,1,150,4,8,redfox      ,giraffe     ,html/resources/sequences_IDs/B/01_redfox.jpg,html/resources/sequences_IDs/B/03_giraffe.jpg,1,3,1,1,1,1,1,2,0,75,,,,,,,,,,,,,,,,,,,,
,,,,,75,2020-07-04_19h30.31.560,retriever_ti,2020.1.3,Win32,60,Chrome,1920,1080,,,,,,,,,,,,,,,,,2,,,,,,,,,,,,,,,,,,,,,,,,,,,784.514705,151,right,0.839485,phone       ,6,9,5,1,3,784.531395,784.531395,787.031725,0,73,73,73,1,151,1,6,scarf         ,phone       ,html/resources/sequences_IDs/A/06_scarf.jpg,html/resources/sequences_IDs/B/09_phone.jpg,6,9,3,2,4,2,5,7,0,75,,,,,,,,,,,,,,,,,,,,
,,,,,75,2020-07-04_19h30.31.560,retriever_ti,2020.1.3,Win32,60,Chrome,1920,1080,,,,,,,,,,,,,,,,,2,,,,,,,,,,,,,,,,,,,,,,,,,,,787.632445,152,right,1.080245,satellite_dish,3,10,-2,0,3,787.64863,787.64863,790.148585,0,74,74,74,1,152,5,3,clownfish     ,satellite_dish,html/resources/sequences_IDs/A/04_clownfish.jpg,html/resources/sequences_IDs/A/10_satellite_dish.jpg,4,10,2,1,4,2,3,8,0,75,,,,,,,,,,,,,,,,,,,,
,,,,,75,2020-07-04_19h30.31.560,retriever_ti,2020.1.3,Win32,60,Chrome,1920,1080,,,,,,,,,,,,,,,,,2,,,,,,,,,,,,,,,,,,,,,,,,,,,790.764655,153,left,0.655425,phone       ,6,9,5,1,3,790.798725,790.798725,793.29751,0,75,75,75,1,153,6,1,phone       ,scarf         ,html/resources/sequences_IDs/B/09_phone.jpg,html/resources/sequences_IDs/A/06_scarf.jpg,9,6,4,2,3,2,7,5,0,75,,,,,,,,,,,,,,,,,,,,
,,,,,75,2020-07-04_19h30.31.560,retriever_ti,2020.1.3,Win32,60,Chrome,1920,1080,,,,,,,,,,,,,,,,,2,,,,,,,,,,,,,,,,,,,,,,,,,,,793.898495,154,right,1.1228,giraffe     ,8,3,2,1,3,793.91484,793.91484,796.415875,0,76,76,76,1,154,6,8,phone       ,giraffe     ,html/resources/sequences_IDs/B/09_phone.jpg,html/resources/sequences_IDs/B/03_giraffe.jpg,9,3,4,2,1,1,7,2,0,75,,,,,,,,,,,,,,,,,,,,
,,,,,75,2020-07-04_19h30.31.560,retriever_ti,2020.1.3,Win32,60,Chrome,1920,1080,,,,,,,,,,,,,,,,,,,,,,,,,,,,,,,,,,,,,0,2.798215,,,,,,,,,,,,,,,,,,,,,,,,,,,,,,,,,,,,,,,,,1,0,1,0,1,,,,,,,,,,,,,,,
,,,,,75,2020-07-04_19h30.31.560,retriever_ti,2020.1.3,Win32,60,Chrome,1920,1080,,,,,,,,,,,,,,,,,3,,,,,,,,,,,,,,,,,,,,,,,,,,,805.977995,155,left,0.97239,satellite_dish,3,10,-4,0,3,806.016105,806.016105,808.515295,0,0,0,0,1,155,3,7,satellite_dish,dress         ,html/resources/sequences_IDs/A/10_satellite_dish.jpg,html/resources/sequences_IDs/A/07_dress.jpg,10,7,4,2,3,2,8,6,0,75,,,,,,,,,,,,,,,,,,,,
,,,,,75,2020-07-04_19h30.31.560,retriever_ti,2020.1.3,Win32,60,Chrome,1920,1080,,,,,,,,,,,,,,,,,3,,,,,,,,,,,,,,,,,,,,,,,,,,,809.13266,156,left,0.82124,dress         ,7,7,6,1,3,809.167215,809.167215,811.666665,0,1,1,1,1,156,7,1,dress         ,scarf         ,html/resources/sequences_IDs/A/07_dress.jpg,html/resources/sequences_IDs/A/06_scarf.jpg,7,6,3,2,3,2,6,5,0,75,,,,,,,,,,,,,,,,,,,,
,,,,,75,2020-07-04_19h30.31.560,retriever_ti,2020.1.3,Win32,60,Chrome,1920,1080,,,,,,,,,,,,,,,,,3,,,,,,,,,,,,,,,,,,,,,,,,,,,812.283315,157,left,1.63702,parrot      ,2,5,-3,0,3,812.317465,812.317465,814.81698,0,2,2,2,1,157,2,5,parrot      ,clownfish     ,html/resources/sequences_IDs/B/05_parrot.jpg,html/resources/sequences_IDs/A/04_clownfish.jpg,5,4,2,1,2,1,4,3,0,75,,,,,,,,,,,,,,,,,,,,
,,,,,75,2020-07-04_19h30.31.560,retriever_ti,2020.1.3,Win32,60,Chrome,1920,1080,,,,,,,,,,,,,,,,,3,,,,,,,,,,,,,,,,,,,,,,,,,,,815.43301,158,right,0.78885,redfox      ,4,1,-1,0,0,815.450285,815.450285,817.949325,0,3,3,3,1,158,5,4,clownfish     ,redfox      ,html/resources/sequences_IDs/A/04_clownfish.jpg,html/resources/sequences_IDs/B/01_redfox.jpg,4,1,2,1,1,1,3,1,0,75,,,,,,,,,,,,,,,,,,,,
,,,,,75,2020-07-04_19h30.31.560,retriever_ti,2020.1.3,Win32,60,Chrome,1920,1080,,,,,,,,,,,,,,,,,3,,,,,,,,,,,,,,,,,,,,,,,,,,,819.050265,159,left,0.893305,redfox      ,4,1,3,1,3,819.067215,819.067215,821.567225,0,4,4,4,1,159,4,1,redfox      ,scarf         ,html/resources/sequences_IDs/B/01_redfox.jpg,html/resources/sequences_IDs/A/06_scarf.jpg,1,6,1,1,3,2,1,5,0,75,,,,,,,,,,,,,,,,,,,,
,,,,,75,2020-07-04_19h30.31.560,retriever_ti,2020.1.3,Win32,60,Chrome,1920,1080,,,,,,,,,,,,,,,,,3,,,,,,,,,,,,,,,,,,,,,,,,,,,822.184195,160,right,0.77132,satellite_dish,3,10,-4,0,3,822.201215,822.201215,824.705015,0,5,5,5,1,160,7,3,dress         ,satellite_dish,html/resources/sequences_IDs/A/07_dress.jpg,html/resources/sequences_IDs/A/10_satellite_dish.jpg,7,10,3,2,4,2,6,8,0,75,,,,,,,,,,,,,,,,,,,,
,,,,,75,2020-07-04_19h30.31.560,retriever_ti,2020.1.3,Win32,60,Chrome,1920,1080,,,,,,,,,,,,,,,,,3,,,,,,,,,,,,,,,,,,,,,,,,,,,825.317705,161,left,0.829535,phone       ,6,9,-1,0,0,825.35093,825.35093,827.85024,0,6,6,6,1,161,6,7,phone       ,dress         ,html/resources/sequences_IDs/B/09_phone.jpg,html/resources/sequences_IDs/A/07_dress.jpg,9,7,4,2,3,2,7,6,0,75,,,,,,,,,,,,,,,,,,,,
,,,,,75,2020-07-04_19h30.31.560,retriever_ti,2020.1.3,Win32,60,Chrome,1920,1080,,,,,,,,,,,,,,,,,3,,,,,,,,,,,,,,,,,,,,,,,,,,,828.951155,162,left,2.00005,parrot      ,2,5,-1,0,0,828.96822,828.96822,831.46737,0,7,7,7,1,162,2,3,parrot      ,satellite_dish,html/resources/sequences_IDs/B/05_parrot.jpg,html/resources/sequences_IDs/A/10_satellite_dish.jpg,5,10,2,1,4,2,4,8,0,75,,,,,,,,,,,,,,,,,,,,
,,,,,75,2020-07-04_19h30.31.560,retriever_ti,2020.1.3,Win32,60,Chrome,1920,1080,,,,,,,,,,,,,,,,,3,,,,,,,,,,,,,,,,,,,,,,,,,,,832.567815,163,right,1.887935,clownfish     ,5,4,-2,0,3,832.585705,832.585705,835.084245,0,8,8,8,1,163,7,5,dress         ,clownfish     ,html/resources/sequences_IDs/A/07_dress.jpg,html/resources/sequences_IDs/A/04_clownfish.jpg,7,4,3,2,2,1,6,3,0,75,,,,,,,,,,,,,,,,,,,,
,,,,,75,2020-07-04_19h30.31.560,retriever_ti,2020.1.3,Win32,60,Chrome,1920,1080,,,,,,,,,,,,,,,,,3,,,,,,,,,,,,,,,,,,,,,,,,,,,835.68525,164,left,0.74197,phone       ,6,9,-1,0,0,835.701485,835.701485,838.201545,0,9,9,9,1,164,6,7,phone       ,dress         ,html/resources/sequences_IDs/B/09_phone.jpg,html/resources/sequences_IDs/A/07_dress.jpg,9,7,4,2,3,2,7,6,0,75,,,,,,,,,,,,,,,,,,,,
,,,,,75,2020-07-04_19h30.31.560,retriever_ti,2020.1.3,Win32,60,Chrome,1920,1080,,,,,,,,,,,,,,,,,3,,,,,,,,,,,,,,,,,,,,,,,,,,,839.3014,165,left,1.380235,satellite_dish,3,10,1,1,1,839.334835,839.334835,841.83452,0,10,10,10,1,165,3,2,satellite_dish,parrot      ,html/resources/sequences_IDs/A/10_satellite_dish.jpg,html/resources/sequences_IDs/B/05_parrot.jpg,10,5,4,2,2,1,8,4,0,75,,,,,,,,,,,,,,,,,,,,
,,,,,75,2020-07-04_19h30.31.560,retriever_ti,2020.1.3,Win32,60,Chrome,1920,1080,,,,,,,,,,,,,,,,,3,,,,,,,,,,,,,,,,,,,,,,,,,,,842.93611,166,left,1.278385,satellite_dish,3,10,-3,0,3,842.953035,842.953035,845.451935,0,11,11,11,1,166,3,6,satellite_dish,phone       ,html/resources/sequences_IDs/A/10_satellite_dish.jpg,html/resources/sequences_IDs/B/09_phone.jpg,10,9,4,2,4,2,8,7,0,75,,,,,,,,,,,,,,,,,,,,
,,,,,75,2020-07-04_19h30.31.560,retriever_ti,2020.1.3,Win32,60,Chrome,1920,1080,,,,,,,,,,,,,,,,,3,,,,,,,,,,,,,,,,,,,,,,,,,,,846.05304,167,right,1.325885,parrot      ,2,5,-5,0,3,846.069425,846.069425,848.568825,0,12,12,12,1,167,7,2,dress         ,parrot      ,html/resources/sequences_IDs/A/07_dress.jpg,html/resources/sequences_IDs/B/05_parrot.jpg,7,5,3,2,2,1,6,4,0,75,,,,,,,,,,,,,,,,,,,,
,,,,,75,2020-07-04_19h30.31.560,retriever_ti,2020.1.3,Win32,60,Chrome,1920,1080,,,,,,,,,,,,,,,,,3,,,,,,,,,,,,,,,,,,,,,,,,,,,849.169445,168,right,0.80919,satellite_dish,3,10,-3,0,3,849.18633,849.18633,851.685235,0,13,13,13,1,168,6,3,phone       ,satellite_dish,html/resources/sequences_IDs/B/09_phone.jpg,html/resources/sequences_IDs/A/10_satellite_dish.jpg,9,10,4,2,4,2,7,8,0,75,,,,,,,,,,,,,,,,,,,,
,,,,,75,2020-07-04_19h30.31.560,retriever_ti,2020.1.3,Win32,60,Chrome,1920,1080,,,,,,,,,,,,,,,,,3,,,,,,,,,,,,,,,,,,,,,,,,,,,852.28646,169,right,0.675545,giraffe     ,8,3,1,1,1,852.32002,852.32002,854.81894,0,14,14,14,1,169,7,8,dress         ,giraffe     ,html/resources/sequences_IDs/A/07_dress.jpg,html/resources/sequences_IDs/B/03_giraffe.jpg,7,3,3,2,1,1,6,2,0,75,,,,,,,,,,,,,,,,,,,,
,,,,,75,2020-07-04_19h30.31.560,retriever_ti,2020.1.3,Win32,60,Chrome,1920,1080,,,,,,,,,,,,,,,,,3,,,,,,,,,,,,,,,,,,,,,,,,,,,855.92066,170,right,0.971165,giraffe     ,8,3,5,1,3,855.954015,855.954015,858.45375,0,15,15,15,1,170,3,8,satellite_dish,giraffe     ,html/resources/sequences_IDs/A/10_satellite_dish.jpg,html/resources/sequences_IDs/B/03_giraffe.jpg,10,3,4,2,1,1,8,2,0,75,,,,,,,,,,,,,,,,,,,,
,,,,,75,2020-07-04_19h30.31.560,retriever_ti,2020.1.3,Win32,60,Chrome,1920,1080,,,,,,,,,,,,,,,,,3,,,,,,,,,,,,,,,,,,,,,,,,,,,859.07103,171,left,0.72688,satellite_dish,3,10,2,1,3,859.104345,859.104345,861.603205,0,16,16,16,1,171,3,1,satellite_dish,scarf         ,html/resources/sequences_IDs/A/10_satellite_dish.jpg,html/resources/sequences_IDs/A/06_scarf.jpg,10,6,4,2,3,2,8,5,0,75,,,,,,,,,,,,,,,,,,,,
,,,,,75,2020-07-04_19h30.31.560,retriever_ti,2020.1.3,Win32,60,Chrome,1920,1080,,,,,,,,,,,,,,,,,3,,,,,,,,,,,,,,,,,,,,,,,,,,,862.220835,172,right,0.587925,giraffe     ,8,3,4,1,3,862.253985,862.253985,864.75417,0,17,17,17,1,172,4,8,redfox      ,giraffe     ,html/resources/sequences_IDs/B/01_redfox.jpg,html/resources/sequences_IDs/B/03_giraffe.jpg,1,3,1,1,1,1,1,2,0,75,,,,,,,,,,,,,,,,,,,,
,,,,,75,2020-07-04_19h30.31.560,retriever_ti,2020.1.3,Win32,60,Chrome,1920,1080,,,,,,,,,,,,,,,,,3,,,,,,,,,,,,,,,,,,,,,,,,,,,865.37119,173,NaN,NaN,No_response,NaN,NaN,NaN,2,2,865.38693,865.38693,867.88645,0,18,18,18,1,173,5,1,clownfish     ,scarf         ,html/resources/sequences_IDs/A/04_clownfish.jpg,html/resources/sequences_IDs/A/06_scarf.jpg,4,6,2,1,3,2,3,5,0,75,,,,,,,,,,,,,,,,,,,,
,,,,,75,2020-07-04_19h30.31.560,retriever_ti,2020.1.3,Win32,60,Chrome,1920,1080,,,,,,,,,,,,,,,,,3,,,,,,,,,,,,,,,,,,,,,,,,,,,868.98829,174,left,0.858165,satellite_dish,3,10,-2,0,3,869.00433,869.00433,871.504365,0,19,19,19,1,174,3,5,satellite_dish,clownfish     ,html/resources/sequences_IDs/A/10_satellite_dish.jpg,html/resources/sequences_IDs/A/04_clownfish.jpg,10,4,4,2,2,1,8,3,0,75,,,,,,,,,,,,,,,,,,,,
,,,,,75,2020-07-04_19h30.31.560,retriever_ti,2020.1.3,Win32,60,Chrome,1920,1080,,,,,,,,,,,,,,,,,3,,,,,,,,,,,,,,,,,,,,,,,,,,,872.121225,175,left,1.20426,clownfish     ,5,4,2,1,3,872.138405,872.138405,874.63685,0,20,20,20,1,175,5,3,clownfish     ,satellite_dish,html/resources/sequences_IDs/A/04_clownfish.jpg,html/resources/sequences_IDs/A/10_satellite_dish.jpg,4,10,2,1,4,2,3,8,0,75,,,,,,,,,,,,,,,,,,,,
,,,,,75,2020-07-04_19h30.31.560,retriever_ti,2020.1.3,Win32,60,Chrome,1920,1080,,,,,,,,,,,,,,,,,3,,,,,,,,,,,,,,,,,,,,,,,,,,,875.254215,176,right,0.622435,redfox      ,4,1,1,1,1,875.288095,875.288095,877.78816,0,21,21,21,1,176,3,4,satellite_dish,redfox      ,html/resources/sequences_IDs/A/10_satellite_dish.jpg,html/resources/sequences_IDs/B/01_redfox.jpg,10,1,4,2,1,1,8,1,0,75,,,,,,,,,,,,,,,,,,,,
,,,,,75,2020-07-04_19h30.31.560,retriever_ti,2020.1.3,Win32,60,Chrome,1920,1080,,,,,,,,,,,,,,,,,3,,,,,,,,,,,,,,,,,,,,,,,,,,,878.88808,177,right,0.756875,giraffe     ,8,3,3,1,3,878.922165,878.922165,881.421045,0,22,22,22,1,177,5,8,clownfish     ,giraffe     ,html/resources/sequences_IDs/A/04_clownfish.jpg,html/resources/sequences_IDs/B/03_giraffe.jpg,4,3,2,1,1,1,3,2,0,75,,,,,,,,,,,,,,,,,,,,
,,,,,75,2020-07-04_19h30.31.560,retriever_ti,2020.1.3,Win32,60,Chrome,1920,1080,,,,,,,,,,,,,,,,,3,,,,,,,,,,,,,,,,,,,,,,,,,,,882.022005,178,right,1.07257,giraffe     ,8,3,2,1,3,882.038255,882.038255,884.538755,0,23,23,23,1,178,6,8,phone       ,giraffe     ,html/resources/sequences_IDs/B/09_phone.jpg,html/resources/sequences_IDs/B/03_giraffe.jpg,9,3,4,2,1,1,7,2,0,75,,,,,,,,,,,,,,,,,,,,
,,,,,75,2020-07-04_19h30.31.560,retriever_ti,2020.1.3,Win32,60,Chrome,1920,1080,,,,,,,,,,,,,,,,,3,,,,,,,,,,,,,,,,,,,,,,,,,,,885.155955,179,right,0.953925,clownfish     ,5,4,4,1,3,885.189835,885.189835,887.68929,0,24,24,24,1,179,1,5,scarf         ,clownfish     ,html/resources/sequences_IDs/A/06_scarf.jpg,html/resources/sequences_IDs/A/04_clownfish.jpg,6,4,3,2,2,1,5,3,0,75,,,,,,,,,,,,,,,,,,,,
,,,,,75,2020-07-04_19h30.31.560,retriever_ti,2020.1.3,Win32,60,Chrome,1920,1080,,,,,,,,,,,,,,,,,3,,,,,,,,,,,,,,,,,,,,,,,,,,,888.305165,180,right,0.604885,redfox      ,4,1,-2,0,3,888.322965,888.322965,890.823085,0,25,25,25,1,180,6,4,phone       ,redfox      ,html/resources/sequences_IDs/B/09_phone.jpg,html/resources/sequences_IDs/B/01_redfox.jpg,9,1,4,2,1,1,7,1,0,75,,,,,,,,,,,,,,,,,,,,
,,,,,75,2020-07-04_19h30.31.560,retriever_ti,2020.1.3,Win32,60,Chrome,1920,1080,,,,,,,,,,,,,,,,,3,,,,,,,,,,,,,,,,,,,,,,,,,,,891.439935,181,left,0.75852,giraffe     ,8,3,6,1,3,891.47225,891.47225,893.972945,0,26,26,26,1,181,8,2,giraffe     ,parrot      ,html/resources/sequences_IDs/B/03_giraffe.jpg,html/resources/sequences_IDs/B/05_parrot.jpg,3,5,1,1,2,1,2,4,0,75,,,,,,,,,,,,,,,,,,,,
,,,,,75,2020-07-04_19h30.31.560,retriever_ti,2020.1.3,Win32,60,Chrome,1920,1080,,,,,,,,,,,,,,,,,3,,,,,,,,,,,,,,,,,,,,,,,,,,,894.589705,182,left,0.891535,phone       ,6,9,5,1,3,894.62268,894.62268,897.12316,0,27,27,27,1,182,6,1,phone       ,scarf         ,html/resources/sequences_IDs/B/09_phone.jpg,html/resources/sequences_IDs/A/06_scarf.jpg,9,6,4,2,3,2,7,5,0,75,,,,,,,,,,,,,,,,,,,,
,,,,,75,2020-07-04_19h30.31.560,retriever_ti,2020.1.3,Win32,60,Chrome,1920,1080,,,,,,,,,,,,,,,,,3,,,,,,,,,,,,,,,,,,,,,,,,,,,897.72371,183,right,1.04661,clownfish     ,5,4,-1,0,1,897.739335,897.739335,900.240285,0,28,28,28,1,183,6,5,phone       ,clownfish     ,html/resources/sequences_IDs/B/09_phone.jpg,html/resources/sequences_IDs/A/04_clownfish.jpg,9,4,4,2,2,1,7,3,1,75,,,,,,,,,,,,,,,,,,,,
,,,,,75,2020-07-04_19h30.31.560,retriever_ti,2020.1.3,Win32,60,Chrome,1920,1080,,,,,,,,,,,,,,,,,3,,,,,,,,,,,,,,,,,,,,,,,,,,,901.339905,184,right,0.687855,redfox      ,4,1,2,1,3,901.373005,901.373005,903.87379,0,29,29,29,1,184,2,4,parrot      ,redfox      ,html/resources/sequences_IDs/B/05_parrot.jpg,html/resources/sequences_IDs/B/01_redfox.jpg,5,1,2,1,1,1,4,1,0,75,,,,,,,,,,,,,,,,,,,,
,,,,,75,2020-07-04_19h30.31.560,retriever_ti,2020.1.3,Win32,60,Chrome,1920,1080,,,,,,,,,,,,,,,,,3,,,,,,,,,,,,,,,,,,,,,,,,,,,904.490655,185,left,0.913465,redfox      ,4,1,-2,0,3,904.50759,904.50759,907.006515,0,30,30,30,1,185,4,6,redfox      ,phone       ,html/resources/sequences_IDs/B/01_redfox.jpg,html/resources/sequences_IDs/B/09_phone.jpg,1,9,1,1,4,2,1,7,0,75,,,,,,,,,,,,,,,,,,,,
,,,,,75,2020-07-04_19h30.31.560,retriever_ti,2020.1.3,Win32,60,Chrome,1920,1080,,,,,,,,,,,,,,,,,3,,,,,,,,,,,,,,,,,,,,,,,,,,,907.60721,186,right,0.757385,redfox      ,4,1,-1,0,0,907.64054,907.64054,910.139915,0,31,31,31,1,186,5,4,clownfish     ,redfox      ,html/resources/sequences_IDs/A/04_clownfish.jpg,html/resources/sequences_IDs/B/01_redfox.jpg,4,1,2,1,1,1,3,1,0,75,,,,,,,,,,,,,,,,,,,,
,,,,,75,2020-07-04_19h30.31.560,retriever_ti,2020.1.3,Win32,60,Chrome,1920,1080,,,,,,,,,,,,,,,,,3,,,,,,,,,,,,,,,,,,,,,,,,,,,911.241305,187,right,0.79536,giraffe     ,8,3,1,1,1,911.25789,911.25789,913.757995,0,32,32,32,1,187,7,8,dress         ,giraffe     ,html/resources/sequences_IDs/A/07_dress.jpg,html/resources/sequences_IDs/B/03_giraffe.jpg,7,3,3,2,1,1,6,2,0,75,,,,,,,,,,,,,,,,,,,,
,,,,,75,2020-07-04_19h30.31.560,retriever_ti,2020.1.3,Win32,60,Chrome,1920,1080,,,,,,,,,,,,,,,,,3,,,,,,,,,,,,,,,,,,,,,,,,,,,914.857115,188,right,1.088055,parrot      ,2,5,1,1,1,914.89211,914.89211,917.3917,0,33,33,33,1,188,1,2,scarf         ,parrot      ,html/resources/sequences_IDs/A/06_scarf.jpg,html/resources/sequences_IDs/B/05_parrot.jpg,6,5,3,2,2,1,5,4,0,75,,,,,,,,,,,,,,,,,,,,
,,,,,75,2020-07-04_19h30.31.560,retriever_ti,2020.1.3,Win32,60,Chrome,1920,1080,,,,,,,,,,,,,,,,,3,,,,,,,,,,,,,,,,,,,,,,,,,,,918.49077,189,right,1.15515,redfox      ,4,1,-3,0,3,918.52559,918.52559,921.02526,0,34,34,34,1,189,7,4,dress         ,redfox      ,html/resources/sequences_IDs/A/07_dress.jpg,html/resources/sequences_IDs/B/01_redfox.jpg,7,1,3,2,1,1,6,1,0,75,,,,,,,,,,,,,,,,,,,,
,,,,,75,2020-07-04_19h30.31.560,retriever_ti,2020.1.3,Win32,60,Chrome,1920,1080,,,,,,,,,,,,,,,,,3,,,,,,,,,,,,,,,,,,,,,,,,,,,921.640845,190,left,0.762255,satellite_dish,3,10,-1,0,1,921.658985,921.658985,924.15733,0,35,35,35,1,190,3,4,satellite_dish,redfox      ,html/resources/sequences_IDs/A/10_satellite_dish.jpg,html/resources/sequences_IDs/B/01_redfox.jpg,10,1,4,2,1,1,8,1,1,75,,,,,,,,,,,,,,,,,,,,
,,,,,75,2020-07-04_19h30.31.560,retriever_ti,2020.1.3,Win32,60,Chrome,1920,1080,,,,,,,,,,,,,,,,,3,,,,,,,,,,,,,,,,,,,,,,,,,,,925.25833,191,left,1.4771,clownfish     ,5,4,-1,0,0,925.292695,925.292695,927.7922,0,36,36,36,1,191,5,6,clownfish     ,phone       ,html/resources/sequences_IDs/A/04_clownfish.jpg,html/resources/sequences_IDs/B/09_phone.jpg,4,9,2,1,4,2,3,7,0,75,,,,,,,,,,,,,,,,,,,,
,,,,,75,2020-07-04_19h30.31.560,retriever_ti,2020.1.3,Win32,60,Chrome,1920,1080,,,,,,,,,,,,,,,,,3,,,,,,,,,,,,,,,,,,,,,,,,,,,928.891835,192,left,0.96312,redfox      ,4,1,2,1,3,928.92586,928.92586,931.42592,0,37,37,37,1,192,4,2,redfox      ,parrot      ,html/resources/sequences_IDs/B/01_redfox.jpg,html/resources/sequences_IDs/B/05_parrot.jpg,1,5,1,1,2,1,1,4,0,75,,,,,,,,,,,,,,,,,,,,
,,,,,75,2020-07-04_19h30.31.560,retriever_ti,2020.1.3,Win32,60,Chrome,1920,1080,,,,,,,,,,,,,,,,,3,,,,,,,,,,,,,,,,,,,,,,,,,,,932.042995,193,right,0.879525,redfox      ,4,1,-1,0,1,932.076435,932.076435,934.576215,0,38,38,38,1,193,5,4,clownfish     ,redfox      ,html/resources/sequences_IDs/A/04_clownfish.jpg,html/resources/sequences_IDs/B/01_redfox.jpg,4,1,2,1,1,1,3,1,1,75,,,,,,,,,,,,,,,,,,,,
,,,,,75,2020-07-04_19h30.31.560,retriever_ti,2020.1.3,Win32,60,Chrome,1920,1080,,,,,,,,,,,,,,,,,3,,,,,,,,,,,,,,,,,,,,,,,,,,,935.676595,194,left,0.710505,redfox      ,4,1,1,1,1,935.70989,935.70989,938.20973,0,39,39,39,1,194,4,3,redfox      ,satellite_dish,html/resources/sequences_IDs/B/01_redfox.jpg,html/resources/sequences_IDs/A/10_satellite_dish.jpg,1,10,1,1,4,2,1,8,0,75,,,,,,,,,,,,,,,,,,,,
,,,,,75,2020-07-04_19h30.31.560,retriever_ti,2020.1.3,Win32,60,Chrome,1920,1080,,,,,,,,,,,,,,,,,3,,,,,,,,,,,,,,,,,,,,,,,,,,,939.31057,195,left,0.9621,dress         ,7,7,1,1,1,939.342515,939.342515,941.842405,0,40,40,40,1,195,7,6,dress         ,phone       ,html/resources/sequences_IDs/A/07_dress.jpg,html/resources/sequences_IDs/B/09_phone.jpg,7,9,3,2,4,2,6,7,0,75,,,,,,,,,,,,,,,,,,,,
,,,,,75,2020-07-04_19h30.31.560,retriever_ti,2020.1.3,Win32,60,Chrome,1920,1080,,,,,,,,,,,,,,,,,3,,,,,,,,,,,,,,,,,,,,,,,,,,,942.94296,196,right,1.09007,satellite_dish,3,10,-5,0,3,942.95929,942.95929,945.46001,0,41,41,41,1,196,8,3,giraffe     ,satellite_dish,html/resources/sequences_IDs/B/03_giraffe.jpg,html/resources/sequences_IDs/A/10_satellite_dish.jpg,3,10,1,1,4,2,2,8,0,75,,,,,,,,,,,,,,,,,,,,
,,,,,75,2020-07-04_19h30.31.560,retriever_ti,2020.1.3,Win32,60,Chrome,1920,1080,,,,,,,,,,,,,,,,,3,,,,,,,,,,,,,,,,,,,,,,,,,,,946.06064,197,right,1.40718,dress         ,7,7,3,1,3,946.093895,946.093895,948.592365,0,42,42,42,1,197,4,7,redfox      ,dress         ,html/resources/sequences_IDs/B/01_redfox.jpg,html/resources/sequences_IDs/A/07_dress.jpg,1,7,1,1,3,2,1,6,0,75,,,,,,,,,,,,,,,,,,,,
,,,,,75,2020-07-04_19h30.31.560,retriever_ti,2020.1.3,Win32,60,Chrome,1920,1080,,,,,,,,,,,,,,,,,3,,,,,,,,,,,,,,,,,,,,,,,,,,,949.19345,198,right,0.676435,dress         ,7,7,6,1,3,949.22769,949.22769,951.72676,0,43,43,43,1,198,1,7,scarf         ,dress         ,html/resources/sequences_IDs/A/06_scarf.jpg,html/resources/sequences_IDs/A/07_dress.jpg,6,7,3,2,3,2,5,6,0,75,,,,,,,,,,,,,,,,,,,,
,,,,,75,2020-07-04_19h30.31.560,retriever_ti,2020.1.3,Win32,60,Chrome,1920,1080,,,,,,,,,,,,,,,,,3,,,,,,,,,,,,,,,,,,,,,,,,,,,952.327655,199,left,2.064165,phone       ,6,9,1,1,1,952.34466,952.34466,954.84281,0,44,44,44,1,199,6,5,phone       ,clownfish     ,html/resources/sequences_IDs/B/09_phone.jpg,html/resources/sequences_IDs/A/04_clownfish.jpg,9,4,4,2,2,1,7,3,0,75,,,,,,,,,,,,,,,,,,,,
,,,,,75,2020-07-04_19h30.31.560,retriever_ti,2020.1.3,Win32,60,Chrome,1920,1080,,,,,,,,,,,,,,,,,3,,,,,,,,,,,,,,,,,,,,,,,,,,,955.94433,200,left,0.771865,giraffe     ,8,3,2,1,3,955.960755,955.960755,958.46126,0,45,45,45,1,200,8,6,giraffe     ,phone       ,html/resources/sequences_IDs/B/03_giraffe.jpg,html/resources/sequences_IDs/B/09_phone.jpg,3,9,1,1,4,2,2,7,0,75,,,,,,,,,,,,,,,,,,,,
,,,,,75,2020-07-04_19h30.31.560,retriever_ti,2020.1.3,Win32,60,Chrome,1920,1080,,,,,,,,,,,,,,,,,3,,,,,,,,,,,,,,,,,,,,,,,,,,,959.078425,201,right,0.725715,giraffe     ,8,3,6,1,3,959.0945,959.0945,961.59502,0,46,46,46,1,201,2,8,parrot      ,giraffe     ,html/resources/sequences_IDs/B/05_parrot.jpg,html/resources/sequences_IDs/B/03_giraffe.jpg,5,3,2,1,1,1,4,2,0,75,,,,,,,,,,,,,,,,,,,,
,,,,,75,2020-07-04_19h30.31.560,retriever_ti,2020.1.3,Win32,60,Chrome,1920,1080,,,,,,,,,,,,,,,,,3,,,,,,,,,,,,,,,,,,,,,,,,,,,962.211975,202,left,0.9712,satellite_dish,3,10,-1,0,0,962.24547,962.24547,964.745205,0,47,47,47,1,202,3,4,satellite_dish,redfox      ,html/resources/sequences_IDs/A/10_satellite_dish.jpg,html/resources/sequences_IDs/B/01_redfox.jpg,10,1,4,2,1,1,8,1,0,75,,,,,,,,,,,,,,,,,,,,
,,,,,75,2020-07-04_19h30.31.560,retriever_ti,2020.1.3,Win32,60,Chrome,1920,1080,,,,,,,,,,,,,,,,,3,,,,,,,,,,,,,,,,,,,,,,,,,,,965.84535,203,left,0.76189,parrot      ,2,5,1,1,1,965.877685,965.877685,968.378365,0,48,48,48,1,203,2,1,parrot      ,scarf         ,html/resources/sequences_IDs/B/05_parrot.jpg,html/resources/sequences_IDs/A/06_scarf.jpg,5,6,2,1,3,2,4,5,0,75,,,,,,,,,,,,,,,,,,,,
,,,,,75,2020-07-04_19h30.31.560,retriever_ti,2020.1.3,Win32,60,Chrome,1920,1080,,,,,,,,,,,,,,,,,3,,,,,,,,,,,,,,,,,,,,,,,,,,,969.479445,204,right,0.7542,satellite_dish,3,10,1,1,1,969.51287,969.51287,972.010975,0,49,49,49,1,204,2,3,parrot      ,satellite_dish,html/resources/sequences_IDs/B/05_parrot.jpg,html/resources/sequences_IDs/A/10_satellite_dish.jpg,5,10,2,1,4,2,4,8,0,75,,,,,,,,,,,,,,,,,,,,
,,,,,75,2020-07-04_19h30.31.560,retriever_ti,2020.1.3,Win32,60,Chrome,1920,1080,,,,,,,,,,,,,,,,,3,,,,,,,,,,,,,,,,,,,,,,,,,,,973.11183,205,right,0.972055,redfox      ,4,1,3,1,3,973.12886,973.12886,975.62859,0,50,50,50,1,205,1,4,scarf         ,redfox      ,html/resources/sequences_IDs/A/06_scarf.jpg,html/resources/sequences_IDs/B/01_redfox.jpg,6,1,3,2,1,1,5,1,0,75,,,,,,,,,,,,,,,,,,,,
,,,,,75,2020-07-04_19h30.31.560,retriever_ti,2020.1.3,Win32,60,Chrome,1920,1080,,,,,,,,,,,,,,,,,3,,,,,,,,,,,,,,,,,,,,,,,,,,,976.245455,206,left,0.60535,giraffe     ,8,3,7,1,3,976.278785,976.278785,978.779295,0,51,51,51,1,206,8,1,giraffe     ,scarf         ,html/resources/sequences_IDs/B/03_giraffe.jpg,html/resources/sequences_IDs/A/06_scarf.jpg,3,6,1,1,3,2,2,5,0,75,,,,,,,,,,,,,,,,,,,,
,,,,,75,2020-07-04_19h30.31.560,retriever_ti,2020.1.3,Win32,60,Chrome,1920,1080,,,,,,,,,,,,,,,,,3,,,,,,,,,,,,,,,,,,,,,,,,,,,979.39644,207,left,1.610215,redfox      ,4,1,-1,0,0,979.413585,979.413585,981.911715,0,52,52,52,1,207,4,5,redfox      ,clownfish     ,html/resources/sequences_IDs/B/01_redfox.jpg,html/resources/sequences_IDs/A/04_clownfish.jpg,1,4,1,1,2,1,1,3,0,75,,,,,,,,,,,,,,,,,,,,
,,,,,75,2020-07-04_19h30.31.560,retriever_ti,2020.1.3,Win32,60,Chrome,1920,1080,,,,,,,,,,,,,,,,,3,,,,,,,,,,,,,,,,,,,,,,,,,,,983.01241,208,left,0.70954,giraffe     ,8,3,1,1,1,983.046035,983.046035,985.545445,0,53,53,53,1,208,8,7,giraffe     ,dress         ,html/resources/sequences_IDs/B/03_giraffe.jpg,html/resources/sequences_IDs/A/07_dress.jpg,3,7,1,1,3,2,2,6,0,75,,,,,,,,,,,,,,,,,,,,
,,,,,75,2020-07-04_19h30.31.560,retriever_ti,2020.1.3,Win32,60,Chrome,1920,1080,,,,,,,,,,,,,,,,,3,,,,,,,,,,,,,,,,,,,,,,,,,,,986.6467,209,left,0.587035,giraffe     ,8,3,1,1,1,986.663755,986.663755,989.1638,0,54,54,54,1,209,8,7,giraffe     ,dress         ,html/resources/sequences_IDs/B/03_giraffe.jpg,html/resources/sequences_IDs/A/07_dress.jpg,3,7,1,1,3,2,2,6,0,75,,,,,,,,,,,,,,,,,,,,
,,,,,75,2020-07-04_19h30.31.560,retriever_ti,2020.1.3,Win32,60,Chrome,1920,1080,,,,,,,,,,,,,,,,,3,,,,,,,,,,,,,,,,,,,,,,,,,,,990.263935,210,right,0.82301,phone       ,6,9,5,1,3,990.296705,990.296705,992.79573,0,55,55,55,1,210,1,6,scarf         ,phone       ,html/resources/sequences_IDs/A/06_scarf.jpg,html/resources/sequences_IDs/B/09_phone.jpg,6,9,3,2,4,2,5,7,0,75,,,,,,,,,,,,,,,,,,,,
,,,,,75,2020-07-04_19h30.31.560,retriever_ti,2020.1.3,Win32,60,Chrome,1920,1080,,,,,,,,,,,,,,,,,3,,,,,,,,,,,,,,,,,,,,,,,,,,,993.396115,211,left,1.056555,satellite_dish,3,10,1,1,1,993.4313,993.4313,995.930255,0,56,56,56,1,211,3,2,satellite_dish,parrot      ,html/resources/sequences_IDs/A/10_satellite_dish.jpg,html/resources/sequences_IDs/B/05_parrot.jpg,10,5,4,2,2,1,8,4,0,75,,,,,,,,,,,,,,,,,,,,
,,,,,75,2020-07-04_19h30.31.560,retriever_ti,2020.1.3,Win32,60,Chrome,1920,1080,,,,,,,,,,,,,,,,,3,,,,,,,,,,,,,,,,,,,,,,,,,,,997.031525,212,left,1.43814,clownfish     ,5,4,-2,0,3,997.06459,997.06459,999.564625,0,57,57,57,1,212,5,7,clownfish     ,dress         ,html/resources/sequences_IDs/A/04_clownfish.jpg,html/resources/sequences_IDs/A/07_dress.jpg,4,7,2,1,3,2,3,6,0,75,,,,,,,,,,,,,,,,,,,,
,,,,,75,2020-07-04_19h30.31.560,retriever_ti,2020.1.3,Win32,60,Chrome,1920,1080,,,,,,,,,,,,,,,,,3,,,,,,,,,,,,,,,,,,,,,,,,,,,1000.18055,213,left,0.8645,parrot      ,2,5,1,1,1,1000.19767,1000.19767,1002.696815,0,58,58,58,1,213,2,1,parrot      ,scarf         ,html/resources/sequences_IDs/B/05_parrot.jpg,html/resources/sequences_IDs/A/06_scarf.jpg,5,6,2,1,3,2,4,5,0,75,,,,,,,,,,,,,,,,,,,,
,,,,,75,2020-07-04_19h30.31.560,retriever_ti,2020.1.3,Win32,60,Chrome,1920,1080,,,,,,,,,,,,,,,,,3,,,,,,,,,,,,,,,,,,,,,,,,,,,1003.79867,214,left,0.5916,parrot      ,2,5,-5,0,3,1003.83079,1003.83079,1006.33038,0,59,59,59,1,214,2,7,parrot      ,dress         ,html/resources/sequences_IDs/B/05_parrot.jpg,html/resources/sequences_IDs/A/07_dress.jpg,5,7,2,1,3,2,4,6,0,75,,,,,,,,,,,,,,,,,,,,
,,,,,75,2020-07-04_19h30.31.560,retriever_ti,2020.1.3,Win32,60,Chrome,1920,1080,,,,,,,,,,,,,,,,,3,,,,,,,,,,,,,,,,,,,,,,,,,,,1006.931685,215,left,0.780985,giraffe     ,8,3,4,1,3,1006.965045,1006.965045,1009.464525,0,60,60,60,1,215,8,4,giraffe     ,redfox      ,html/resources/sequences_IDs/B/03_giraffe.jpg,html/resources/sequences_IDs/B/01_redfox.jpg,3,1,1,1,1,1,2,1,0,75,,,,,,,,,,,,,,,,,,,,
,,,,,75,2020-07-04_19h30.31.560,retriever_ti,2020.1.3,Win32,60,Chrome,1920,1080,,,,,,,,,,,,,,,,,3,,,,,,,,,,,,,,,,,,,,,,,,,,,1010.081755,216,right,0.572545,parrot      ,2,5,1,1,1,1010.09798,1010.09798,1012.597645,0,61,61,61,1,216,1,2,scarf         ,parrot      ,html/resources/sequences_IDs/A/06_scarf.jpg,html/resources/sequences_IDs/B/05_parrot.jpg,6,5,3,2,2,1,5,4,0,75,,,,,,,,,,,,,,,,,,,,
,,,,,75,2020-07-04_19h30.31.560,retriever_ti,2020.1.3,Win32,60,Chrome,1920,1080,,,,,,,,,,,,,,,,,3,,,,,,,,,,,,,,,,,,,,,,,,,,,1013.69849,217,left,1.321605,dress         ,7,7,-1,0,1,1013.71556,1013.71556,1016.214735,0,62,62,62,1,217,7,8,dress         ,giraffe     ,html/resources/sequences_IDs/A/07_dress.jpg,html/resources/sequences_IDs/B/03_giraffe.jpg,7,3,3,2,1,1,6,2,1,75,,,,,,,,,,,,,,,,,,,,
,,,,,75,2020-07-04_19h30.31.560,retriever_ti,2020.1.3,Win32,60,Chrome,1920,1080,,,,,,,,,,,,,,,,,3,,,,,,,,,,,,,,,,,,,,,,,,,,,1017.31515,218,right,0.806165,satellite_dish,3,10,2,1,3,1017.348755,1017.348755,1019.848055,0,63,63,63,1,218,1,3,scarf         ,satellite_dish,html/resources/sequences_IDs/A/06_scarf.jpg,html/resources/sequences_IDs/A/10_satellite_dish.jpg,6,10,3,2,4,2,5,8,0,75,,,,,,,,,,,,,,,,,,,,
,,,,,75,2020-07-04_19h30.31.560,retriever_ti,2020.1.3,Win32,60,Chrome,1920,1080,,,,,,,,,,,,,,,,,3,,,,,,,,,,,,,,,,,,,,,,,,,,,1020.46553,219,left,1.9153,satellite_dish,3,10,1,1,0,1020.49893,1020.49893,1022.998255,0,64,64,64,1,219,3,2,satellite_dish,parrot      ,html/resources/sequences_IDs/A/10_satellite_dish.jpg,html/resources/sequences_IDs/B/05_parrot.jpg,10,5,4,2,2,1,8,4,1,75,,,,,,,,,,,,,,,,,,,,
,,,,,75,2020-07-04_19h30.31.560,retriever_ti,2020.1.3,Win32,60,Chrome,1920,1080,,,,,,,,,,,,,,,,,3,,,,,,,,,,,,,,,,,,,,,,,,,,,1024.098915,220,right,1.50741,phone       ,6,9,1,1,1,1024.11544,1024.11544,1026.61598,0,65,65,65,1,220,5,6,clownfish     ,phone       ,html/resources/sequences_IDs/A/04_clownfish.jpg,html/resources/sequences_IDs/B/09_phone.jpg,4,9,2,1,4,2,3,7,0,75,,,,,,,,,,,,,,,,,,,,
,,,,,75,2020-07-04_19h30.31.560,retriever_ti,2020.1.3,Win32,60,Chrome,1920,1080,,,,,,,,,,,,,,,,,3,,,,,,,,,,,,,,,,,,,,,,,,,,,1027.715915,221,right,0.75504,parrot      ,2,5,-3,0,3,1027.73257,1027.73257,1030.23263,0,66,66,66,1,221,5,2,clownfish     ,parrot      ,html/resources/sequences_IDs/A/04_clownfish.jpg,html/resources/sequences_IDs/B/05_parrot.jpg,4,5,2,1,2,1,3,4,0,75,,,,,,,,,,,,,,,,,,,,
,,,,,75,2020-07-04_19h30.31.560,retriever_ti,2020.1.3,Win32,60,Chrome,1920,1080,,,,,,,,,,,,,,,,,3,,,,,,,,,,,,,,,,,,,,,,,,,,,1030.83397,222,right,0.663045,parrot      ,2,5,1,1,0,1030.866115,1030.866115,1033.365715,0,67,67,67,1,222,1,2,scarf         ,parrot      ,html/resources/sequences_IDs/A/06_scarf.jpg,html/resources/sequences_IDs/B/05_parrot.jpg,6,5,3,2,2,1,5,4,1,75,,,,,,,,,,,,,,,,,,,,
