instructionsLoop.thisRepN,instructionsLoop.thisTrialN,instructionsLoop.thisN,instructionsLoop.thisIndex,instructionsLoop.ran,participant,date,expName,psychopyVersion,OS,frameRate,browser,xResolution,yResolution,fix_onset,tprac,practiceKey.keys,practiceKey.rt,pracitem_chosen_name,acc_practice,P1_onsetPrac,P2_onsetPrac,onsetFeedbPrac,practiceTrials.thisRepN,practiceTrials.thisTrialN,practiceTrials.thisN,practiceTrials.thisIndex,practiceTrials.ran,P1,P2,Block,LocItem1,LocItem2,NameItem1,NameItem2,key_respAC_prac.keys,key_respAC_prac.corr,key_respAC_prac.rt,AC_acc,Attentions.thisRepN,Attentions.thisTrialN,Attentions.thisN,Attentions.thisIndex,Attentions.ran,Stim,Loc1,Loc2,Loc3,Loc4,CorrAns,keyDisturbed.keys,keyDisturbed.rt,repPractice.thisRepN,repPractice.thisTrialN,repPractice.thisN,repPractice.thisIndex,repPractice.ran,fixcross_onsetMain,trialNumber,key_resp.keys,key_resp.rt,item_chosen_name,item_chosen_value,item_chosen_ID,diff_chosen_minus_reject,acc_real,acc_feedback,P1_onset,P2_onset,feedb_onset,trials.thisRepN,trials.thisTrialN,trials.thisN,trials.thisIndex,trials.ran,Trial,ValueP1,ValueP2,P1name,P2name,P1Loc,P2Loc,P1id,P2id,Micro_categoryP1,Macro_categoryP1,Micro_categoryP2,Macro_categoryP2,ID_sequenceP1,ID_sequenceP2,InverseFb,pNumber,repBlocks.thisRepN,repBlocks.thisTrialN,repBlocks.thisN,repBlocks.thisIndex,repBlocks.ran,key_respAC.keys,key_respAC.corr,key_respAC.rt,trials_AC.thisRepN,trials_AC.thisTrialN,trials_AC.thisN,trials_AC.thisIndex,trials_AC.ran,Bonus,BonusLoop.thisRepN,BonusLoop.thisTrialN,BonusLoop.thisN,BonusLoop.thisIndex,BonusLoop.ran,comments
0,0,0,0,1,76,2020-07-04_18h31.01.738,retriever_ti,2020.1.3,Win32,60,Chrome,1366,768,,,,,,,,,,,,,,,,,,,,,,,,,,,,,,,,,,,,,,,,,,,,,,,,,,,,,,,,,,,,,,,,,,,,,,,,,,,,,,,,,,,,,,,,,,,,,,,,,,
1,0,1,0,1,76,2020-07-04_18h31.01.738,retriever_ti,2020.1.3,Win32,60,Chrome,1366,768,,,,,,,,,,,,,,,,,,,,,,,,,,,,,,,,,,,,,,,,,,,,,,,,,,,,,,,,,,,,,,,,,,,,,,,,,,,,,,,,,,,,,,,,,,,,,,,,,,
2,0,2,0,1,76,2020-07-04_18h31.01.738,retriever_ti,2020.1.3,Win32,60,Chrome,1366,768,,,,,,,,,,,,,,,,,,,,,,,,,,,,,,,,,,,,,,,,,,,,,,,,,,,,,,,,,,,,,,,,,,,,,,,,,,,,,,,,,,,,,,,,,,,,,,,,,,
3,0,3,0,1,76,2020-07-04_18h31.01.738,retriever_ti,2020.1.3,Win32,60,Chrome,1366,768,,,,,,,,,,,,,,,,,,,,,,,,,,,,,,,,,,,,,,,,,,,,,,,,,,,,,,,,,,,,,,,,,,,,,,,,,,,,,,,,,,,,,,,,,,,,,,,,,,
4,0,4,0,1,76,2020-07-04_18h31.01.738,retriever_ti,2020.1.3,Win32,60,Chrome,1366,768,,,,,,,,,,,,,,,,,,,,,,,,,,,,,,,,,,,,,,,,,,,,,,,,,,,,,,,,,,,,,,,,,,,,,,,,,,,,,,,,,,,,,,,,,,,,,,,,,,
5,0,5,0,1,76,2020-07-04_18h31.01.738,retriever_ti,2020.1.3,Win32,60,Chrome,1366,768,,,,,,,,,,,,,,,,,,,,,,,,,,,,,,,,,,,,,,,,,,,,,,,,,,,,,,,,,,,,,,,,,,,,,,,,,,,,,,,,,,,,,,,,,,,,,,,,,,
6,0,6,0,1,76,2020-07-04_18h31.01.738,retriever_ti,2020.1.3,Win32,60,Chrome,1366,768,,,,,,,,,,,,,,,,,,,,,,,,,,,,,,,,,,,,,,,,,,,,,,,,,,,,,,,,,,,,,,,,,,,,,,,,,,,,,,,,,,,,,,,,,,,,,,,,,,
7,0,7,0,1,76,2020-07-04_18h31.01.738,retriever_ti,2020.1.3,Win32,60,Chrome,1366,768,,,,,,,,,,,,,,,,,,,,,,,,,,,,,,,,,,,,,,,,,,,,,,,,,,,,,,,,,,,,,,,,,,,,,,,,,,,,,,,,,,,,,,,,,,,,,,,,,,
8,0,8,0,1,76,2020-07-04_18h31.01.738,retriever_ti,2020.1.3,Win32,60,Chrome,1366,768,,,,,,,,,,,,,,,,,,,,,,,,,,,,,,,,,,,,,,,,,,,,,,,,,,,,,,,,,,,,,,,,,,,,,,,,,,,,,,,,,,,,,,,,,,,,,,,,,,
9,0,9,0,1,76,2020-07-04_18h31.01.738,retriever_ti,2020.1.3,Win32,60,Chrome,1366,768,,,,,,,,,,,,,,,,,,,,,,,,,,,,,,,,,,,,,,,,,,,,,,,,,,,,,,,,,,,,,,,,,,,,,,,,,,,,,,,,,,,,,,,,,,,,,,,,,,
10,0,10,0,1,76,2020-07-04_18h31.01.738,retriever_ti,2020.1.3,Win32,60,Chrome,1366,768,,,,,,,,,,,,,,,,,,,,,,,,,,,,,,,,,,,,,,,,,,,,,,,,,,,,,,,,,,,,,,,,,,,,,,,,,,,,,,,,,,,,,,,,,,,,,,,,,,
11,0,11,0,1,76,2020-07-04_18h31.01.738,retriever_ti,2020.1.3,Win32,60,Chrome,1366,768,,,,,,,,,,,,,,,,,,,,,,,,,,,,,,,,,,,,,,,,,,,,,,,,,,,,,,,,,,,,,,,,,,,,,,,,,,,,,,,,,,,,,,,,,,,,,,,,,,
12,0,12,0,1,76,2020-07-04_18h31.01.738,retriever_ti,2020.1.3,Win32,60,Chrome,1366,768,,,,,,,,,,,,,,,,,,,,,,,,,,,,,,,,,,,,,,,,,,,,,,,,,,,,,,,,,,,,,,,,,,,,,,,,,,,,,,,,,,,,,,,,,,,,,,,,,,
13,0,13,0,1,76,2020-07-04_18h31.01.738,retriever_ti,2020.1.3,Win32,60,Chrome,1366,768,,,,,,,,,,,,,,,,,,,,,,,,,,,,,,,,,,,,,,,,,,,,,,,,,,,,,,,,,,,,,,,,,,,,,,,,,,,,,,,,,,,,,,,,,,,,,,,,,,
14,0,14,0,1,76,2020-07-04_18h31.01.738,retriever_ti,2020.1.3,Win32,60,Chrome,1366,768,,,,,,,,,,,,,,,,,,,,,,,,,,,,,,,,,,,,,,,,,,,,,,,,,,,,,,,,,,,,,,,,,,,,,,,,,,,,,,,,,,,,,,,,,,,,,,,,,,
,,,,,76,2020-07-04_18h31.01.738,retriever_ti,2020.1.3,Win32,60,Chrome,1366,768,136.977045,1,NaN,NaN,No_response,2,137.01319,137.01319,139.517935,0,0,0,0,1,2,5,1,html/resources/stimuli_practice_decision/04_beetle.jpg,html/resources/stimuli_practice_decision/02_canary.jpg,beetle,canary,,,,,,,,,,,,,,,,,,,,,,,,,,,,,,,,,,,,,,,,,,,,,,,,,,,,,,,,,,,,,,,,,,,,,,,,,,,,,
,,,,,76,2020-07-04_18h31.01.738,retriever_ti,2020.1.3,Win32,60,Chrome,1366,768,140.073795,2,left,2.414575,rabbit,1,140.09407,140.09407,142.598415,0,1,1,1,1,4,3,1,html/resources/stimuli_practice_decision/01_rabbit.jpg,html/resources/stimuli_practice_decision/07_sock.jpg,rabbit,sock,,,,,,,,,,,,,,,,,,,,,,,,,,,,,,,,,,,,,,,,,,,,,,,,,,,,,,,,,,,,,,,,,,,,,,,,,,,,,
,,,,,76,2020-07-04_18h31.01.738,retriever_ti,2020.1.3,Win32,60,Chrome,1366,768,143.60121,3,right,1.04723,beetle,0,143.628305,143.628305,146.13081,0,2,2,2,1,6,2,1,html/resources/stimuli_practice_decision/06_pullover.jpg,html/resources/stimuli_practice_decision/04_beetle.jpg,pullover,beetle,,,,,,,,,,,,,,,,,,,,,,,,,,,,,,,,,,,,,,,,,,,,,,,,,,,,,,,,,,,,,,,,,,,,,,,,,,,,,
,,,,,76,2020-07-04_18h31.01.738,retriever_ti,2020.1.3,Win32,60,Chrome,1366,768,146.632805,4,left,1.06877,glasses,1,146.684945,146.684945,149.18663,0,3,3,3,1,7,1,1,html/resources/stimuli_practice_decision/05_glasses.jpg,html/resources/stimuli_practice_decision/08_handmixer.jpg,glasses,handmixer,,,,,,,,,,,,,,,,,,,,,,,,,,,,,,,,,,,,,,,,,,,,,,,,,,,,,,,,,,,,,,,,,,,,,,,,,,,,,
,,,,,76,2020-07-04_18h31.01.738,retriever_ti,2020.1.3,Win32,60,Chrome,1366,768,149.69046,5,right,0.6435,pullover,0,149.71624,149.71624,152.21776,0,4,4,4,1,7,6,1,html/resources/stimuli_practice_decision/05_glasses.jpg,html/resources/stimuli_practice_decision/06_pullover.jpg,glasses,pullover,,,,,,,,,,,,,,,,,,,,,,,,,,,,,,,,,,,,,,,,,,,,,,,,,,,,,,,,,,,,,,,,,,,,,,,,,,,,,
,,,,,76,2020-07-04_18h31.01.738,retriever_ti,2020.1.3,Win32,60,Chrome,1366,768,153.220985,6,left,0.78258,rabbit,0,153.246175,153.246175,155.74996,0,5,5,5,1,4,7,1,html/resources/stimuli_practice_decision/01_rabbit.jpg,html/resources/stimuli_practice_decision/05_glasses.jpg,rabbit,glasses,,,,,,,,,,,,,,,,,,,,,,,,,,,,,,,,,,,,,,,,,,,,,,,,,,,,,,,,,,,,,,,,,,,,,,,,,,,,,
,,,,,76,2020-07-04_18h31.01.738,retriever_ti,2020.1.3,Win32,60,Chrome,1366,768,156.25212,7,right,1.446745,beetle,1,156.27745,156.27745,158.779965,0,6,6,6,1,1,2,1,html/resources/stimuli_practice_decision/08_handmixer.jpg,html/resources/stimuli_practice_decision/04_beetle.jpg,handmixer,beetle,,,,,,,,,,,,,,,,,,,,,,,,,,,,,,,,,,,,,,,,,,,,,,,,,,,,,,,,,,,,,,,,,,,,,,,,,,,,,
,,,,,76,2020-07-04_18h31.01.738,retriever_ti,2020.1.3,Win32,60,Chrome,1366,768,159.785195,8,left,1.498195,rabbit,1,159.81133,159.81133,162.31346,0,7,7,7,1,4,3,1,html/resources/stimuli_practice_decision/01_rabbit.jpg,html/resources/stimuli_practice_decision/07_sock.jpg,rabbit,sock,,,,,,,,,,,,,,,,,,,,,,,,,,,,,,,,,,,,,,,,,,,,,,,,,,,,,,,,,,,,,,,,,,,,,,,,,,,,,
,,,,,76,2020-07-04_18h31.01.738,retriever_ti,2020.1.3,Win32,60,Chrome,1366,768,,,,,,,,,,,,,,,,,,,,,,up,1,2.944405,1,0,0,0,0,1,html/resources/sequences_IDs/circle.png,circle ↑,square →,triangle ↓,← star ,up,,,,,,,,,,,,,,,,,,,,,,,,,,,,,,,,,,,,,,,,,,,,,,,,,,,,,,,,,,,,,,
,,,,,76,2020-07-04_18h31.01.738,retriever_ti,2020.1.3,Win32,60,Chrome,1366,768,,,,,,,,,,,,,,,,,,,,,,,0,,0,0,1,1,3,1,html/resources/sequences_IDs/triangle.png,star ↑,square →,triangle ↓,← circle,down,,,,,,,,,,,,,,,,,,,,,,,,,,,,,,,,,,,,,,,,,,,,,,,,,,,,,,,,,,,,,,
,,,,,76,2020-07-04_18h31.01.738,retriever_ti,2020.1.3,Win32,60,Chrome,1366,768,,,,,,,,,,,,,,,,,,,,,,left,1,3.48829,1,0,2,2,2,1,html/resources/sequences_IDs/square1.png,star ↑,triangle →,circle ↓,← square,left,,,,,,,,,,,,,,,,,,,,,,,,,,,,,,,,,,,,,,,,,,,,,,,,,,,,,,,,,,,,,,
,,,,,76,2020-07-04_18h31.01.738,retriever_ti,2020.1.3,Win32,60,Chrome,1366,768,,,,,,,,,,,,,,,,,,,,,,,0,,0,0,3,3,1,1,html/resources/sequences_IDs/star.png,square ↑,circle →,star ↓,← triangle,down,,,,,,,,,,,,,,,,,,,,,,,,,,,,,,,,,,,,,,,,,,,,,,,,,,,,,,,,,,,,,,
,,,,,76,2020-07-04_18h31.01.738,retriever_ti,2020.1.3,Win32,60,Chrome,1366,768,,,,,,,,,,,,,,,,,,,,,,,,,,,,,,,,,,,,,0,8.577865,0,0,0,0,1,,,,,,,,,,,,,,,,,,,,,,,,,,,,,,,,,,,,,,,,,,,,,,,,,,,,,,,
,,,,,76,2020-07-04_18h31.01.738,retriever_ti,2020.1.3,Win32,60,Chrome,1366,768,203.223695,9,NaN,NaN,No_response,2,203.24773,203.24773,205.751805,0,0,0,0,1,6,7,1,html/resources/stimuli_practice_decision/06_pullover.jpg,html/resources/stimuli_practice_decision/05_glasses.jpg,pullover,glasses,,,,,,,,,,,,,,,,,,,,,,,,,,,,,,,,,,,,,,,,,,,,,,,,,,,,,,,,,,,,,,,,,,,,,,,,,,,,,
,,,,,76,2020-07-04_18h31.01.738,retriever_ti,2020.1.3,Win32,60,Chrome,1366,768,206.75466,10,left,0.81129,pullover,1,206.806275,206.806275,209.309135,0,1,1,1,1,6,2,1,html/resources/stimuli_practice_decision/06_pullover.jpg,html/resources/stimuli_practice_decision/04_beetle.jpg,pullover,beetle,,,,,,,,,,,,,,,,,,,,,,,,,,,,,,,,,,,,,,,,,,,,,,,,,,,,,,,,,,,,,,,,,,,,,,,,,,,,,
,,,,,76,2020-07-04_18h31.01.738,retriever_ti,2020.1.3,Win32,60,Chrome,1366,768,209.810245,11,right,1.433795,pullover,1,209.86215,209.86215,212.365505,0,2,2,2,1,5,6,1,html/resources/stimuli_practice_decision/02_canary.jpg,html/resources/stimuli_practice_decision/06_pullover.jpg,canary,pullover,,,,,,,,,,,,,,,,,,,,,,,,,,,,,,,,,,,,,,,,,,,,,,,,,,,,,,,,,,,,,,,,,,,,,,,,,,,,,
,,,,,76,2020-07-04_18h31.01.738,retriever_ti,2020.1.3,Win32,60,Chrome,1366,768,213.368635,12,right,0.995895,glasses,0,213.393955,213.393955,215.89727,0,3,3,3,1,8,7,1,html/resources/stimuli_practice_decision/03_squirrel.jpg,html/resources/stimuli_practice_decision/05_glasses.jpg,squirrel,glasses,,,,,,,,,,,,,,,,,,,,,,,,,,,,,,,,,,,,,,,,,,,,,,,,,,,,,,,,,,,,,,,,,,,,,,,,,,,,,
,,,,,76,2020-07-04_18h31.01.738,retriever_ti,2020.1.3,Win32,60,Chrome,1366,768,216.90202,13,left,1.22004,canary,1,216.95117,216.95117,219.454755,0,4,4,4,1,5,3,1,html/resources/stimuli_practice_decision/02_canary.jpg,html/resources/stimuli_practice_decision/07_sock.jpg,canary,sock,,,,,,,,,,,,,,,,,,,,,,,,,,,,,,,,,,,,,,,,,,,,,,,,,,,,,,,,,,,,,,,,,,,,,,,,,,,,,
,,,,,76,2020-07-04_18h31.01.738,retriever_ti,2020.1.3,Win32,60,Chrome,1366,768,219.956715,14,left,1.26446,glasses,0,220.00859,220.00859,222.51076,0,5,5,5,1,7,8,1,html/resources/stimuli_practice_decision/05_glasses.jpg,html/resources/stimuli_practice_decision/03_squirrel.jpg,glasses,squirrel,,,,,,,,,,,,,,,,,,,,,,,,,,,,,,,,,,,,,,,,,,,,,,,,,,,,,,,,,,,,,,,,,,,,,,,,,,,,,
,,,,,76,2020-07-04_18h31.01.738,retriever_ti,2020.1.3,Win32,60,Chrome,1366,768,223.514655,15,right,1.23663,rabbit,0,223.563845,223.563845,226.06803,0,6,6,6,1,5,4,1,html/resources/stimuli_practice_decision/02_canary.jpg,html/resources/stimuli_practice_decision/01_rabbit.jpg,canary,rabbit,,,,,,,,,,,,,,,,,,,,,,,,,,,,,,,,,,,,,,,,,,,,,,,,,,,,,,,,,,,,,,,,,,,,,,,,,,,,,
,,,,,76,2020-07-04_18h31.01.738,retriever_ti,2020.1.3,Win32,60,Chrome,1366,768,227.07184,16,left,1.013425,canary,1,227.12325,227.12325,229.625375,0,7,7,7,1,5,3,1,html/resources/stimuli_practice_decision/02_canary.jpg,html/resources/stimuli_practice_decision/07_sock.jpg,canary,sock,,,,,,,,,,,,,,,,,,,,,,,,,,,,,,,,,,,,,,,,,,,,,,,,,,,,,,,,,,,,,,,,,,,,,,,,,,,,,
,,,,,76,2020-07-04_18h31.01.738,retriever_ti,2020.1.3,Win32,60,Chrome,1366,768,,,,,,,,,,,,,,,,,,,,,,,0,,0,0,0,0,1,1,html/resources/sequences_IDs/star.png,square ↑,circle →,star ↓,← triangle,down,,,,,,,,,,,,,,,,,,,,,,,,,,,,,,,,,,,,,,,,,,,,,,,,,,,,,,,,,,,,,,
,,,,,76,2020-07-04_18h31.01.738,retriever_ti,2020.1.3,Win32,60,Chrome,1366,768,,,,,,,,,,,,,,,,,,,,,,,0,,0,0,1,1,3,1,html/resources/sequences_IDs/triangle.png,star ↑,square →,triangle ↓,← circle,down,,,,,,,,,,,,,,,,,,,,,,,,,,,,,,,,,,,,,,,,,,,,,,,,,,,,,,,,,,,,,,
,,,,,76,2020-07-04_18h31.01.738,retriever_ti,2020.1.3,Win32,60,Chrome,1366,768,,,,,,,,,,,,,,,,,,,,,,left,1,1.4931,1,0,2,2,2,1,html/resources/sequences_IDs/square1.png,star ↑,triangle →,circle ↓,← square,left,,,,,,,,,,,,,,,,,,,,,,,,,,,,,,,,,,,,,,,,,,,,,,,,,,,,,,,,,,,,,,
,,,,,76,2020-07-04_18h31.01.738,retriever_ti,2020.1.3,Win32,60,Chrome,1366,768,,,,,,,,,,,,,,,,,,,,,,up,1,1.87256,1,0,3,3,0,1,html/resources/sequences_IDs/circle.png,circle ↑,square →,triangle ↓,← star ,up,,,,,,,,,,,,,,,,,,,,,,,,,,,,,,,,,,,,,,,,,,,,,,,,,,,,,,,,,,,,,,
,,,,,76,2020-07-04_18h31.01.738,retriever_ti,2020.1.3,Win32,60,Chrome,1366,768,,,,,,,,,,,,,,,,,,,,,,,,,,,,,,,,,,,,,0,3.6272,1,0,1,0,1,,,,,,,,,,,,,,,,,,,,,,,,,,,,,,,,,,,,,,,,,,,,,,,,,,,,,,,
,,,,,76,2020-07-04_18h31.01.738,retriever_ti,2020.1.3,Win32,60,Chrome,1366,768,,,,,,,,,,,,,,,,,1,,,,,,,,,,,,,,,,,,,,,,,,,,,275.715385,1,right,1.056625,radio       ,4,10,-2,0,3,275.77132,275.77132,278.27625,0,0,0,0,1,1,6,4,slipper     ,radio       ,html/resources/sequences_IDs/B/08_slipper.jpg,html/resources/sequences_IDs/B/10_radio.jpg,8,10,3,2,4,2,6,8,0,76,,,,,,,,,,,,,,,,,,,,
,,,,,76,2020-07-04_18h31.01.738,retriever_ti,2020.1.3,Win32,60,Chrome,1366,768,,,,,,,,,,,,,,,,,1,,,,,,,,,,,,,,,,,,,,,,,,,,,278.903335,2,left,1.21916,phone       ,8,9,5,1,3,278.9269,278.9269,281.431005,0,1,1,1,1,2,8,3,phone       ,wolf          ,html/resources/sequences_IDs/B/09_phone.jpg,html/resources/sequences_IDs/A/01_wolf.jpg,9,1,4,2,1,1,7,1,0,76,,,,,,,,,,,,,,,,,,,,
,,,,,76,2020-07-04_18h31.01.738,retriever_ti,2020.1.3,Win32,60,Chrome,1366,768,,,,,,,,,,,,,,,,,1,,,,,,,,,,,,,,,,,,,,,,,,,,,282.05711,3,left,1.48383,seaturtle     ,7,2,1,1,1,282.08388,282.08388,284.587605,0,2,2,2,1,3,7,6,seaturtle     ,slipper     ,html/resources/sequences_IDs/A/02_seaturtle.jpg,html/resources/sequences_IDs/B/08_slipper.jpg,2,8,2,1,3,2,2,6,0,76,,,,,,,,,,,,,,,,,,,,
,,,,,76,2020-07-04_18h31.01.738,retriever_ti,2020.1.3,Win32,60,Chrome,1366,768,,,,,,,,,,,,,,,,,1,,,,,,,,,,,,,,,,,,,,,,,,,,,285.691295,4,right,1.16604,wolf          ,3,1,1,1,1,285.71582,285.71582,288.219995,0,3,3,3,1,4,2,3,gloves      ,wolf          ,html/resources/sequences_IDs/B/06_gloves.jpg,html/resources/sequences_IDs/A/01_wolf.jpg,6,1,3,2,1,1,5,1,0,76,,,,,,,,,,,,,,,,,,,,
,,,,,76,2020-07-04_18h31.01.738,retriever_ti,2020.1.3,Win32,60,Chrome,1366,768,,,,,,,,,,,,,,,,,1,,,,,,,,,,,,,,,,,,,,,,,,,,,289.32352,5,right,1.030925,wolf          ,3,1,1,1,0,289.34859,289.34859,291.85135,0,4,4,4,1,5,2,3,gloves      ,wolf          ,html/resources/sequences_IDs/B/06_gloves.jpg,html/resources/sequences_IDs/A/01_wolf.jpg,6,1,3,2,1,1,5,1,1,76,,,,,,,,,,,,,,,,,,,,
,,,,,76,2020-07-04_18h31.01.738,retriever_ti,2020.1.3,Win32,60,Chrome,1366,768,,,,,,,,,,,,,,,,,1,,,,,,,,,,,,,,,,,,,,,,,,,,,292.95595,6,left,1.05837,radio       ,4,10,2,1,3,292.98044,292.98044,295.48445,0,5,5,5,1,6,4,2,radio       ,gloves      ,html/resources/sequences_IDs/B/10_radio.jpg,html/resources/sequences_IDs/B/06_gloves.jpg,10,6,4,2,3,2,8,5,0,76,,,,,,,,,,,,,,,,,,,,
,,,,,76,2020-07-04_18h31.01.738,retriever_ti,2020.1.3,Win32,60,Chrome,1366,768,,,,,,,,,,,,,,,,,1,,,,,,,,,,,,,,,,,,,,,,,,,,,296.087155,7,left,2.04269,camel         ,5,3,3,1,3,296.13864,296.13864,298.640965,0,6,6,6,1,7,5,2,camel         ,gloves      ,html/resources/sequences_IDs/A/03_camel.jpg,html/resources/sequences_IDs/B/06_gloves.jpg,3,6,1,1,3,2,3,5,0,76,,,,,,,,,,,,,,,,,,,,
,,,,,76,2020-07-04_18h31.01.738,retriever_ti,2020.1.3,Win32,60,Chrome,1366,768,,,,,,,,,,,,,,,,,1,,,,,,,,,,,,,,,,,,,,,,,,,,,299.24343,8,left,1.11545,wolf          ,3,1,1,1,1,299.2936,299.2936,301.797425,0,7,7,7,1,8,3,2,wolf          ,gloves      ,html/resources/sequences_IDs/A/01_wolf.jpg,html/resources/sequences_IDs/B/06_gloves.jpg,1,6,1,1,3,2,1,5,0,76,,,,,,,,,,,,,,,,,,,,
,,,,,76,2020-07-04_18h31.01.738,retriever_ti,2020.1.3,Win32,60,Chrome,1366,768,,,,,,,,,,,,,,,,,1,,,,,,,,,,,,,,,,,,,,,,,,,,,302.901025,9,right,1.117515,gloves      ,2,6,-4,0,3,302.92653,302.92653,305.430055,0,8,8,8,1,9,6,2,slipper     ,gloves      ,html/resources/sequences_IDs/B/08_slipper.jpg,html/resources/sequences_IDs/B/06_gloves.jpg,8,6,3,2,3,2,6,5,0,76,,,,,,,,,,,,,,,,,,,,
,,,,,76,2020-07-04_18h31.01.738,retriever_ti,2020.1.3,Win32,60,Chrome,1366,768,,,,,,,,,,,,,,,,,1,,,,,,,,,,,,,,,,,,,,,,,,,,,306.031545,10,left,1.372085,slipper     ,6,8,-1,0,0,306.082345,306.082345,308.586095,0,9,9,9,1,10,6,7,slipper     ,seaturtle     ,html/resources/sequences_IDs/B/08_slipper.jpg,html/resources/sequences_IDs/A/02_seaturtle.jpg,8,2,3,2,2,1,6,2,0,76,,,,,,,,,,,,,,,,,,,,
,,,,,76,2020-07-04_18h31.01.738,retriever_ti,2020.1.3,Win32,60,Chrome,1366,768,,,,,,,,,,,,,,,,,1,,,,,,,,,,,,,,,,,,,,,,,,,,,309.68967,11,right,1.218915,phone       ,8,9,2,1,3,309.71459,309.71459,312.218695,0,10,10,10,1,11,6,8,slipper     ,phone       ,html/resources/sequences_IDs/B/08_slipper.jpg,html/resources/sequences_IDs/B/09_phone.jpg,8,9,3,2,4,2,6,7,0,76,,,,,,,,,,,,,,,,,,,,
,,,,,76,2020-07-04_18h31.01.738,retriever_ti,2020.1.3,Win32,60,Chrome,1366,768,,,,,,,,,,,,,,,,,1,,,,,,,,,,,,,,,,,,,,,,,,,,,312.82123,12,left,1.23091,gloves      ,2,6,-2,0,3,312.84689,312.84689,315.349525,0,11,11,11,1,12,2,4,gloves      ,radio       ,html/resources/sequences_IDs/B/06_gloves.jpg,html/resources/sequences_IDs/B/10_radio.jpg,6,10,3,2,4,2,5,8,0,76,,,,,,,,,,,,,,,,,,,,
,,,,,76,2020-07-04_18h31.01.738,retriever_ti,2020.1.3,Win32,60,Chrome,1366,768,,,,,,,,,,,,,,,,,1,,,,,,,,,,,,,,,,,,,,,,,,,,,315.95109,13,left,0.710225,wolf          ,3,1,-5,0,3,315.977435,315.977435,318.48147,0,12,12,12,1,13,3,8,wolf          ,phone       ,html/resources/sequences_IDs/A/01_wolf.jpg,html/resources/sequences_IDs/B/09_phone.jpg,1,9,1,1,4,2,1,7,0,76,,,,,,,,,,,,,,,,,,,,
,,,,,76,2020-07-04_18h31.01.738,retriever_ti,2020.1.3,Win32,60,Chrome,1366,768,,,,,,,,,,,,,,,,,1,,,,,,,,,,,,,,,,,,,,,,,,,,,319.08382,14,right,0.839475,seaturtle     ,7,2,1,1,1,319.10938,319.10938,321.61306,0,13,13,13,1,14,6,7,slipper     ,seaturtle     ,html/resources/sequences_IDs/B/08_slipper.jpg,html/resources/sequences_IDs/A/02_seaturtle.jpg,8,2,3,2,2,1,6,2,0,76,,,,,,,,,,,,,,,,,,,,
,,,,,76,2020-07-04_18h31.01.738,retriever_ti,2020.1.3,Win32,60,Chrome,1366,768,,,,,,,,,,,,,,,,,1,,,,,,,,,,,,,,,,,,,,,,,,,,,322.71633,15,left,0.669075,camel         ,5,3,-1,0,0,322.742735,322.742735,325.24707,0,14,14,14,1,15,5,6,camel         ,slipper     ,html/resources/sequences_IDs/A/03_camel.jpg,html/resources/sequences_IDs/B/08_slipper.jpg,3,8,1,1,3,2,3,6,0,76,,,,,,,,,,,,,,,,,,,,
,,,,,76,2020-07-04_18h31.01.738,retriever_ti,2020.1.3,Win32,60,Chrome,1366,768,,,,,,,,,,,,,,,,,1,,,,,,,,,,,,,,,,,,,,,,,,,,,326.348505,16,right,0.906895,wolf          ,3,1,-2,0,3,326.375125,326.375125,328.877505,0,15,15,15,1,16,5,3,camel         ,wolf          ,html/resources/sequences_IDs/A/03_camel.jpg,html/resources/sequences_IDs/A/01_wolf.jpg,3,1,1,1,1,1,3,1,0,76,,,,,,,,,,,,,,,,,,,,
,,,,,76,2020-07-04_18h31.01.738,retriever_ti,2020.1.3,Win32,60,Chrome,1366,768,,,,,,,,,,,,,,,,,1,,,,,,,,,,,,,,,,,,,,,,,,,,,329.504805,17,right,1.689,peacock       ,1,5,-4,0,3,329.53065,329.53065,332.033775,0,16,16,16,1,17,5,1,camel         ,peacock       ,html/resources/sequences_IDs/A/03_camel.jpg,html/resources/sequences_IDs/A/05_peacock.jpg,3,5,1,1,2,1,3,4,0,76,,,,,,,,,,,,,,,,,,,,
,,,,,76,2020-07-04_18h31.01.738,retriever_ti,2020.1.3,Win32,60,Chrome,1366,768,,,,,,,,,,,,,,,,,1,,,,,,,,,,,,,,,,,,,,,,,,,,,332.6378,18,left,0.867625,peacock       ,1,5,-1,0,0,332.68735,332.68735,335.190375,0,17,17,17,1,18,1,2,peacock       ,gloves      ,html/resources/sequences_IDs/A/05_peacock.jpg,html/resources/sequences_IDs/B/06_gloves.jpg,5,6,2,1,3,2,4,5,0,76,,,,,,,,,,,,,,,,,,,,
,,,,,76,2020-07-04_18h31.01.738,retriever_ti,2020.1.3,Win32,60,Chrome,1366,768,,,,,,,,,,,,,,,,,1,,,,,,,,,,,,,,,,,,,,,,,,,,,336.292845,19,left,0.565345,peacock       ,1,5,-4,0,3,336.34505,336.34505,338.84778,0,18,18,18,1,19,1,5,peacock       ,camel         ,html/resources/sequences_IDs/A/05_peacock.jpg,html/resources/sequences_IDs/A/03_camel.jpg,5,3,2,1,1,1,4,3,0,76,,,,,,,,,,,,,,,,,,,,
,,,,,76,2020-07-04_18h31.01.738,retriever_ti,2020.1.3,Win32,60,Chrome,1366,768,,,,,,,,,,,,,,,,,1,,,,,,,,,,,,,,,,,,,,,,,,,,,339.450325,20,left,0.88506,peacock       ,1,5,-5,0,3,339.475875,339.475875,341.978065,0,19,19,19,1,20,1,6,peacock       ,slipper     ,html/resources/sequences_IDs/A/05_peacock.jpg,html/resources/sequences_IDs/B/08_slipper.jpg,5,8,2,1,3,2,4,6,0,76,,,,,,,,,,,,,,,,,,,,
,,,,,76,2020-07-04_18h31.01.738,retriever_ti,2020.1.3,Win32,60,Chrome,1366,768,,,,,,,,,,,,,,,,,1,,,,,,,,,,,,,,,,,,,,,,,,,,,342.58224,21,right,0.63089,wolf          ,3,1,-1,0,1,342.63282,342.63282,345.1359,0,20,20,20,1,21,4,3,radio       ,wolf          ,html/resources/sequences_IDs/B/10_radio.jpg,html/resources/sequences_IDs/A/01_wolf.jpg,10,1,4,2,1,1,8,1,1,76,,,,,,,,,,,,,,,,,,,,
,,,,,76,2020-07-04_18h31.01.738,retriever_ti,2020.1.3,Win32,60,Chrome,1366,768,,,,,,,,,,,,,,,,,1,,,,,,,,,,,,,,,,,,,,,,,,,,,346.237965,22,left,0.707425,gloves      ,2,6,-4,0,3,346.288935,346.288935,348.793385,0,21,21,21,1,22,2,6,gloves      ,slipper     ,html/resources/sequences_IDs/B/06_gloves.jpg,html/resources/sequences_IDs/B/08_slipper.jpg,6,8,3,2,3,2,5,6,0,76,,,,,,,,,,,,,,,,,,,,
,,,,,76,2020-07-04_18h31.01.738,retriever_ti,2020.1.3,Win32,60,Chrome,1366,768,,,,,,,,,,,,,,,,,1,,,,,,,,,,,,,,,,,,,,,,,,,,,349.39549,23,left,0.631775,wolf          ,3,1,-1,0,0,349.420525,349.420525,351.924675,0,22,22,22,1,23,3,4,wolf          ,radio       ,html/resources/sequences_IDs/A/01_wolf.jpg,html/resources/sequences_IDs/B/10_radio.jpg,1,10,1,1,4,2,1,8,0,76,,,,,,,,,,,,,,,,,,,,
,,,,,76,2020-07-04_18h31.01.738,retriever_ti,2020.1.3,Win32,60,Chrome,1366,768,,,,,,,,,,,,,,,,,1,,,,,,,,,,,,,,,,,,,,,,,,,,,353.028535,24,right,0.63451,seaturtle     ,7,2,3,1,3,353.05381,353.05381,355.556905,0,23,23,23,1,24,4,7,radio       ,seaturtle     ,html/resources/sequences_IDs/B/10_radio.jpg,html/resources/sequences_IDs/A/02_seaturtle.jpg,10,2,4,2,2,1,8,2,0,76,,,,,,,,,,,,,,,,,,,,
,,,,,76,2020-07-04_18h31.01.738,retriever_ti,2020.1.3,Win32,60,Chrome,1366,768,,,,,,,,,,,,,,,,,1,,,,,,,,,,,,,,,,,,,,,,,,,,,356.15933,25,right,0.71661,phone       ,8,9,7,1,3,356.1851,356.1851,358.68824,0,24,24,24,1,25,1,8,peacock       ,phone       ,html/resources/sequences_IDs/A/05_peacock.jpg,html/resources/sequences_IDs/B/09_phone.jpg,5,9,2,1,4,2,4,7,0,76,,,,,,,,,,,,,,,,,,,,
,,,,,76,2020-07-04_18h31.01.738,retriever_ti,2020.1.3,Win32,60,Chrome,1366,768,,,,,,,,,,,,,,,,,1,,,,,,,,,,,,,,,,,,,,,,,,,,,359.29081,26,right,0.834255,radio       ,4,10,3,1,3,359.316375,359.316375,361.81981,0,25,25,25,1,26,1,4,peacock       ,radio       ,html/resources/sequences_IDs/A/05_peacock.jpg,html/resources/sequences_IDs/B/10_radio.jpg,5,10,2,1,4,2,4,8,0,76,,,,,,,,,,,,,,,,,,,,
,,,,,76,2020-07-04_18h31.01.738,retriever_ti,2020.1.3,Win32,60,Chrome,1366,768,,,,,,,,,,,,,,,,,1,,,,,,,,,,,,,,,,,,,,,,,,,,,362.44654,27,right,0.620035,peacock       ,1,5,-1,0,0,362.47273,362.47273,364.976125,0,26,26,26,1,27,2,1,gloves      ,peacock       ,html/resources/sequences_IDs/B/06_gloves.jpg,html/resources/sequences_IDs/A/05_peacock.jpg,6,5,3,2,2,1,5,4,0,76,,,,,,,,,,,,,,,,,,,,
,,,,,76,2020-07-04_18h31.01.738,retriever_ti,2020.1.3,Win32,60,Chrome,1366,768,,,,,,,,,,,,,,,,,1,,,,,,,,,,,,,,,,,,,,,,,,,,,366.079525,28,left,0.581255,peacock       ,1,5,-1,0,0,366.1307,366.1307,368.63377,0,27,27,27,1,28,1,2,peacock       ,gloves      ,html/resources/sequences_IDs/A/05_peacock.jpg,html/resources/sequences_IDs/B/06_gloves.jpg,5,6,2,1,3,2,4,5,0,76,,,,,,,,,,,,,,,,,,,,
,,,,,76,2020-07-04_18h31.01.738,retriever_ti,2020.1.3,Win32,60,Chrome,1366,768,,,,,,,,,,,,,,,,,1,,,,,,,,,,,,,,,,,,,,,,,,,,,369.73719,29,right,0.41875,wolf          ,3,1,-1,0,0,369.76319,369.76319,372.265955,0,28,28,28,1,29,4,3,radio       ,wolf          ,html/resources/sequences_IDs/B/10_radio.jpg,html/resources/sequences_IDs/A/01_wolf.jpg,10,1,4,2,1,1,8,1,0,76,,,,,,,,,,,,,,,,,,,,
,,,,,76,2020-07-04_18h31.01.738,retriever_ti,2020.1.3,Win32,60,Chrome,1366,768,,,,,,,,,,,,,,,,,1,,,,,,,,,,,,,,,,,,,,,,,,,,,373.37093,30,left,0.41692,gloves      ,2,6,-6,0,3,373.41936,373.41936,375.923125,0,29,29,29,1,30,2,8,gloves      ,phone       ,html/resources/sequences_IDs/B/06_gloves.jpg,html/resources/sequences_IDs/B/09_phone.jpg,6,9,3,2,4,2,5,7,0,76,,,,,,,,,,,,,,,,,,,,
,,,,,76,2020-07-04_18h31.01.738,retriever_ti,2020.1.3,Win32,60,Chrome,1366,768,,,,,,,,,,,,,,,,,1,,,,,,,,,,,,,,,,,,,,,,,,,,,376.525635,31,left,0.835125,seaturtle     ,7,2,3,1,3,376.57606,376.57606,379.08028,0,30,30,30,1,31,7,4,seaturtle     ,radio       ,html/resources/sequences_IDs/A/02_seaturtle.jpg,html/resources/sequences_IDs/B/10_radio.jpg,2,10,2,1,4,2,2,8,0,76,,,,,,,,,,,,,,,,,,,,
,,,,,76,2020-07-04_18h31.01.738,retriever_ti,2020.1.3,Win32,60,Chrome,1366,768,,,,,,,,,,,,,,,,,1,,,,,,,,,,,,,,,,,,,,,,,,,,,379.68233,32,right,0.56405,wolf          ,3,1,2,1,3,379.70866,379.70866,382.21133,0,31,31,31,1,32,1,3,peacock       ,wolf          ,html/resources/sequences_IDs/A/05_peacock.jpg,html/resources/sequences_IDs/A/01_wolf.jpg,5,1,2,1,1,1,4,1,0,76,,,,,,,,,,,,,,,,,,,,
,,,,,76,2020-07-04_18h31.01.738,retriever_ti,2020.1.3,Win32,60,Chrome,1366,768,,,,,,,,,,,,,,,,,1,,,,,,,,,,,,,,,,,,,,,,,,,,,382.814155,33,right,0.58071,peacock       ,1,5,-6,0,3,382.86433,382.86433,385.36796,0,32,32,32,1,33,7,1,seaturtle     ,peacock       ,html/resources/sequences_IDs/A/02_seaturtle.jpg,html/resources/sequences_IDs/A/05_peacock.jpg,2,5,2,1,2,1,2,4,0,76,,,,,,,,,,,,,,,,,,,,
,,,,,76,2020-07-04_18h31.01.738,retriever_ti,2020.1.3,Win32,60,Chrome,1366,768,,,,,,,,,,,,,,,,,1,,,,,,,,,,,,,,,,,,,,,,,,,,,385.970395,34,left,0.436305,wolf          ,3,1,-3,0,3,386.0207,386.0207,388.52371,0,33,33,33,1,34,3,6,wolf          ,slipper     ,html/resources/sequences_IDs/A/01_wolf.jpg,html/resources/sequences_IDs/B/08_slipper.jpg,1,8,1,1,3,2,1,6,0,76,,,,,,,,,,,,,,,,,,,,
,,,,,76,2020-07-04_18h31.01.738,retriever_ti,2020.1.3,Win32,60,Chrome,1366,768,,,,,,,,,,,,,,,,,1,,,,,,,,,,,,,,,,,,,,,,,,,,,389.126145,35,right,0.53881,gloves      ,2,6,-5,0,3,389.151045,389.151045,391.655455,0,34,34,34,1,35,7,2,seaturtle     ,gloves      ,html/resources/sequences_IDs/A/02_seaturtle.jpg,html/resources/sequences_IDs/B/06_gloves.jpg,2,6,2,1,3,2,2,5,0,76,,,,,,,,,,,,,,,,,,,,
,,,,,76,2020-07-04_18h31.01.738,retriever_ti,2020.1.3,Win32,60,Chrome,1366,768,,,,,,,,,,,,,,,,,1,,,,,,,,,,,,,,,,,,,,,,,,,,,392.281975,36,right,0.80056,peacock       ,1,5,-2,0,3,392.30988,392.30988,394.812095,0,35,35,35,1,36,3,1,wolf          ,peacock       ,html/resources/sequences_IDs/A/01_wolf.jpg,html/resources/sequences_IDs/A/05_peacock.jpg,1,5,1,1,2,1,1,4,0,76,,,,,,,,,,,,,,,,,,,,
,,,,,76,2020-07-04_18h31.01.738,retriever_ti,2020.1.3,Win32,60,Chrome,1366,768,,,,,,,,,,,,,,,,,1,,,,,,,,,,,,,,,,,,,,,,,,,,,395.4142,37,left,0.506675,gloves      ,2,6,-5,0,3,395.43938,395.43938,397.943185,0,36,36,36,1,37,2,7,gloves      ,seaturtle     ,html/resources/sequences_IDs/B/06_gloves.jpg,html/resources/sequences_IDs/A/02_seaturtle.jpg,6,2,3,2,2,1,5,2,0,76,,,,,,,,,,,,,,,,,,,,
,,,,,76,2020-07-04_18h31.01.738,retriever_ti,2020.1.3,Win32,60,Chrome,1366,768,,,,,,,,,,,,,,,,,1,,,,,,,,,,,,,,,,,,,,,,,,,,,398.546345,38,right,0.862555,seaturtle     ,7,2,-1,0,1,398.5975,398.5975,401.099515,0,37,37,37,1,38,8,7,phone       ,seaturtle     ,html/resources/sequences_IDs/B/09_phone.jpg,html/resources/sequences_IDs/A/02_seaturtle.jpg,9,2,4,2,2,1,7,2,1,76,,,,,,,,,,,,,,,,,,,,
,,,,,76,2020-07-04_18h31.01.738,retriever_ti,2020.1.3,Win32,60,Chrome,1366,768,,,,,,,,,,,,,,,,,1,,,,,,,,,,,,,,,,,,,,,,,,,,,402.20331,39,right,0.631555,phone       ,8,9,1,1,1,402.22912,402.22912,404.73179,0,38,38,38,1,39,7,8,seaturtle     ,phone       ,html/resources/sequences_IDs/A/02_seaturtle.jpg,html/resources/sequences_IDs/B/09_phone.jpg,2,9,2,1,4,2,2,7,0,76,,,,,,,,,,,,,,,,,,,,
,,,,,76,2020-07-04_18h31.01.738,retriever_ti,2020.1.3,Win32,60,Chrome,1366,768,,,,,,,,,,,,,,,,,1,,,,,,,,,,,,,,,,,,,,,,,,,,,405.834415,40,right,0.761645,wolf          ,3,1,-4,0,3,405.88559,405.88559,408.38923,0,39,39,39,1,40,7,3,seaturtle     ,wolf          ,html/resources/sequences_IDs/A/02_seaturtle.jpg,html/resources/sequences_IDs/A/01_wolf.jpg,2,1,2,1,1,1,2,1,0,76,,,,,,,,,,,,,,,,,,,,
,,,,,76,2020-07-04_18h31.01.738,retriever_ti,2020.1.3,Win32,60,Chrome,1366,768,,,,,,,,,,,,,,,,,1,,,,,,,,,,,,,,,,,,,,,,,,,,,408.992515,41,left,0.884795,slipper     ,6,8,-1,0,1,409.042315,409.042315,411.54591,0,40,40,40,1,41,6,7,slipper     ,seaturtle     ,html/resources/sequences_IDs/B/08_slipper.jpg,html/resources/sequences_IDs/A/02_seaturtle.jpg,8,2,3,2,2,1,6,2,1,76,,,,,,,,,,,,,,,,,,,,
,,,,,76,2020-07-04_18h31.01.738,retriever_ti,2020.1.3,Win32,60,Chrome,1366,768,,,,,,,,,,,,,,,,,1,,,,,,,,,,,,,,,,,,,,,,,,,,,412.649325,42,left,0.571265,radio       ,4,10,-2,0,3,412.70097,412.70097,415.203645,0,41,41,41,1,42,4,6,radio       ,slipper     ,html/resources/sequences_IDs/B/10_radio.jpg,html/resources/sequences_IDs/B/08_slipper.jpg,10,8,4,2,3,2,8,6,0,76,,,,,,,,,,,,,,,,,,,,
,,,,,76,2020-07-04_18h31.01.738,retriever_ti,2020.1.3,Win32,60,Chrome,1366,768,,,,,,,,,,,,,,,,,1,,,,,,,,,,,,,,,,,,,,,,,,,,,415.806155,43,right,0.58694,seaturtle     ,7,2,-1,0,0,415.83084,415.83084,418.334615,0,42,42,42,1,43,8,7,phone       ,seaturtle     ,html/resources/sequences_IDs/B/09_phone.jpg,html/resources/sequences_IDs/A/02_seaturtle.jpg,9,2,4,2,2,1,7,2,0,76,,,,,,,,,,,,,,,,,,,,
,,,,,76,2020-07-04_18h31.01.738,retriever_ti,2020.1.3,Win32,60,Chrome,1366,768,,,,,,,,,,,,,,,,,1,,,,,,,,,,,,,,,,,,,,,,,,,,,419.43818,44,left,0.52036,phone       ,8,9,1,1,1,419.48955,419.48955,421.99225,0,43,43,43,1,44,8,7,phone       ,seaturtle     ,html/resources/sequences_IDs/B/09_phone.jpg,html/resources/sequences_IDs/A/02_seaturtle.jpg,9,2,4,2,2,1,7,2,0,76,,,,,,,,,,,,,,,,,,,,
,,,,,76,2020-07-04_18h31.01.738,retriever_ti,2020.1.3,Win32,60,Chrome,1366,768,,,,,,,,,,,,,,,,,1,,,,,,,,,,,,,,,,,,,,,,,,,,,423.09572,45,right,0.83235,camel         ,5,3,-1,0,0,423.146425,423.146425,425.648505,0,44,44,44,1,45,6,5,slipper     ,camel         ,html/resources/sequences_IDs/B/08_slipper.jpg,html/resources/sequences_IDs/A/03_camel.jpg,8,3,3,2,1,1,6,3,0,76,,,,,,,,,,,,,,,,,,,,
,,,,,76,2020-07-04_18h31.01.738,retriever_ti,2020.1.3,Win32,60,Chrome,1366,768,,,,,,,,,,,,,,,,,1,,,,,,,,,,,,,,,,,,,,,,,,,,,426.75293,46,left,0.90794,camel         ,5,3,1,1,1,426.778375,426.778375,429.28333,0,45,45,45,1,46,5,4,camel         ,radio       ,html/resources/sequences_IDs/A/03_camel.jpg,html/resources/sequences_IDs/B/10_radio.jpg,3,10,1,1,4,2,3,8,0,76,,,,,,,,,,,,,,,,,,,,
,,,,,76,2020-07-04_18h31.01.738,retriever_ti,2020.1.3,Win32,60,Chrome,1366,768,,,,,,,,,,,,,,,,,1,,,,,,,,,,,,,,,,,,,,,,,,,,,430.38444,47,left,1.057945,phone       ,8,9,4,1,3,430.436965,430.436965,432.9383,0,46,46,46,1,47,8,4,phone       ,radio       ,html/resources/sequences_IDs/B/09_phone.jpg,html/resources/sequences_IDs/B/10_radio.jpg,9,10,4,2,4,2,7,8,0,76,,,,,,,,,,,,,,,,,,,,
,,,,,76,2020-07-04_18h31.01.738,retriever_ti,2020.1.3,Win32,60,Chrome,1366,768,,,,,,,,,,,,,,,,,1,,,,,,,,,,,,,,,,,,,,,,,,,,,433.54183,48,right,0.59441,slipper     ,6,8,1,1,1,433.591755,433.591755,436.095685,0,47,47,47,1,48,5,6,camel         ,slipper     ,html/resources/sequences_IDs/A/03_camel.jpg,html/resources/sequences_IDs/B/08_slipper.jpg,3,8,1,1,3,2,3,6,0,76,,,,,,,,,,,,,,,,,,,,
,,,,,76,2020-07-04_18h31.01.738,retriever_ti,2020.1.3,Win32,60,Chrome,1366,768,,,,,,,,,,,,,,,,,1,,,,,,,,,,,,,,,,,,,,,,,,,,,437.20013,49,left,0.857125,gloves      ,2,6,-3,0,3,437.224865,437.224865,439.72839,0,48,48,48,1,49,2,5,gloves      ,camel         ,html/resources/sequences_IDs/B/06_gloves.jpg,html/resources/sequences_IDs/A/03_camel.jpg,6,3,3,2,1,1,5,3,0,76,,,,,,,,,,,,,,,,,,,,
,,,,,76,2020-07-04_18h31.01.738,retriever_ti,2020.1.3,Win32,60,Chrome,1366,768,,,,,,,,,,,,,,,,,1,,,,,,,,,,,,,,,,,,,,,,,,,,,440.33078,50,right,0.788395,phone       ,8,9,4,1,3,440.35567,440.35567,442.85937,0,49,49,49,1,50,4,8,radio       ,phone       ,html/resources/sequences_IDs/B/10_radio.jpg,html/resources/sequences_IDs/B/09_phone.jpg,10,9,4,2,4,2,8,7,0,76,,,,,,,,,,,,,,,,,,,,
,,,,,76,2020-07-04_18h31.01.738,retriever_ti,2020.1.3,Win32,60,Chrome,1366,768,,,,,,,,,,,,,,,,,1,,,,,,,,,,,,,,,,,,,,,,,,,,,443.460895,51,right,0.663145,camel         ,5,3,-2,0,3,443.48682,443.48682,445.99036,0,50,50,50,1,51,7,5,seaturtle     ,camel         ,html/resources/sequences_IDs/A/02_seaturtle.jpg,html/resources/sequences_IDs/A/03_camel.jpg,2,3,2,1,1,1,2,3,0,76,,,,,,,,,,,,,,,,,,,,
,,,,,76,2020-07-04_18h31.01.738,retriever_ti,2020.1.3,Win32,60,Chrome,1366,768,,,,,,,,,,,,,,,,,1,,,,,,,,,,,,,,,,,,,,,,,,,,,446.59293,52,left,0.631985,camel         ,5,3,-2,0,3,446.643755,446.643755,449.148335,0,51,51,51,1,52,5,7,camel         ,seaturtle     ,html/resources/sequences_IDs/A/03_camel.jpg,html/resources/sequences_IDs/A/02_seaturtle.jpg,3,2,1,1,2,1,3,2,0,76,,,,,,,,,,,,,,,,,,,,
,,,,,76,2020-07-04_18h31.01.738,retriever_ti,2020.1.3,Win32,60,Chrome,1366,768,,,,,,,,,,,,,,,,,1,,,,,,,,,,,,,,,,,,,,,,,,,,,449.750055,53,right,0.491175,seaturtle     ,7,2,4,1,3,449.801525,449.801525,452.30368,0,52,52,52,1,53,3,7,wolf          ,seaturtle     ,html/resources/sequences_IDs/A/01_wolf.jpg,html/resources/sequences_IDs/A/02_seaturtle.jpg,1,2,1,1,2,1,1,2,0,76,,,,,,,,,,,,,,,,,,,,
,,,,,76,2020-07-04_18h31.01.738,retriever_ti,2020.1.3,Win32,60,Chrome,1366,768,,,,,,,,,,,,,,,,,1,,,,,,,,,,,,,,,,,,,,,,,,,,,452.90626,54,right,0.6736,peacock       ,1,5,-7,0,3,452.956435,452.956435,455.46071,0,53,53,53,1,54,8,1,phone       ,peacock       ,html/resources/sequences_IDs/B/09_phone.jpg,html/resources/sequences_IDs/A/05_peacock.jpg,9,5,4,2,2,1,7,4,0,76,,,,,,,,,,,,,,,,,,,,
,,,,,76,2020-07-04_18h31.01.738,retriever_ti,2020.1.3,Win32,60,Chrome,1366,768,,,,,,,,,,,,,,,,,1,,,,,,,,,,,,,,,,,,,,,,,,,,,456.086555,55,left,0.4709,slipper     ,6,8,1,1,1,456.138105,456.138105,458.64199,0,54,54,54,1,55,6,5,slipper     ,camel         ,html/resources/sequences_IDs/B/08_slipper.jpg,html/resources/sequences_IDs/A/03_camel.jpg,8,3,3,2,1,1,6,3,0,76,,,,,,,,,,,,,,,,,,,,
,,,,,76,2020-07-04_18h31.01.738,retriever_ti,2020.1.3,Win32,60,Chrome,1366,768,,,,,,,,,,,,,,,,,1,,,,,,,,,,,,,,,,,,,,,,,,,,,459.7441,56,left,0.5951,wolf          ,3,1,1,1,1,459.79524,459.79524,462.29797,0,55,55,55,1,56,3,2,wolf          ,gloves      ,html/resources/sequences_IDs/A/01_wolf.jpg,html/resources/sequences_IDs/B/06_gloves.jpg,1,6,1,1,3,2,1,5,0,76,,,,,,,,,,,,,,,,,,,,
,,,,,76,2020-07-04_18h31.01.738,retriever_ti,2020.1.3,Win32,60,Chrome,1366,768,,,,,,,,,,,,,,,,,1,,,,,,,,,,,,,,,,,,,,,,,,,,,463.402855,57,left,0.85599,gloves      ,2,6,1,1,1,463.429765,463.429765,465.93189,0,56,56,56,1,57,2,1,gloves      ,peacock       ,html/resources/sequences_IDs/B/06_gloves.jpg,html/resources/sequences_IDs/A/05_peacock.jpg,6,5,3,2,2,1,5,4,0,76,,,,,,,,,,,,,,,,,,,,
,,,,,76,2020-07-04_18h31.01.738,retriever_ti,2020.1.3,Win32,60,Chrome,1366,768,,,,,,,,,,,,,,,,,1,,,,,,,,,,,,,,,,,,,,,,,,,,,467.036135,58,left,0.694005,radio       ,4,10,1,1,1,467.086885,467.086885,469.589425,0,57,57,57,1,58,4,3,radio       ,wolf          ,html/resources/sequences_IDs/B/10_radio.jpg,html/resources/sequences_IDs/A/01_wolf.jpg,10,1,4,2,1,1,8,1,0,76,,,,,,,,,,,,,,,,,,,,
,,,,,76,2020-07-04_18h31.01.738,retriever_ti,2020.1.3,Win32,60,Chrome,1366,768,,,,,,,,,,,,,,,,,1,,,,,,,,,,,,,,,,,,,,,,,,,,,470.691695,59,right,0.6871,peacock       ,1,5,-5,0,3,470.717555,470.717555,473.2216,0,58,58,58,1,59,6,1,slipper     ,peacock       ,html/resources/sequences_IDs/B/08_slipper.jpg,html/resources/sequences_IDs/A/05_peacock.jpg,8,5,3,2,2,1,6,4,0,76,,,,,,,,,,,,,,,,,,,,
,,,,,76,2020-07-04_18h31.01.738,retriever_ti,2020.1.3,Win32,60,Chrome,1366,768,,,,,,,,,,,,,,,,,1,,,,,,,,,,,,,,,,,,,,,,,,,,,473.824145,60,left,0.52116,slipper     ,6,8,1,1,0,473.87509,473.87509,476.378285,0,59,59,59,1,60,6,5,slipper     ,camel         ,html/resources/sequences_IDs/B/08_slipper.jpg,html/resources/sequences_IDs/A/03_camel.jpg,8,3,3,2,1,1,6,3,1,76,,,,,,,,,,,,,,,,,,,,
,,,,,76,2020-07-04_18h31.01.738,retriever_ti,2020.1.3,Win32,60,Chrome,1366,768,,,,,,,,,,,,,,,,,1,,,,,,,,,,,,,,,,,,,,,,,,,,,477.48119,61,right,0.488695,peacock       ,1,5,-1,0,1,477.50677,477.50677,480.010385,0,60,60,60,1,61,2,1,gloves      ,peacock       ,html/resources/sequences_IDs/B/06_gloves.jpg,html/resources/sequences_IDs/A/05_peacock.jpg,6,5,3,2,2,1,5,4,1,76,,,,,,,,,,,,,,,,,,,,
,,,,,76,2020-07-04_18h31.01.738,retriever_ti,2020.1.3,Win32,60,Chrome,1366,768,,,,,,,,,,,,,,,,,1,,,,,,,,,,,,,,,,,,,,,,,,,,,481.11427,62,left,0.50684,radio       ,4,10,-1,0,0,481.140295,481.140295,483.642995,0,61,61,61,1,62,4,5,radio       ,camel         ,html/resources/sequences_IDs/B/10_radio.jpg,html/resources/sequences_IDs/A/03_camel.jpg,10,3,4,2,1,1,8,3,0,76,,,,,,,,,,,,,,,,,,,,
,,,,,76,2020-07-04_18h31.01.738,retriever_ti,2020.1.3,Win32,60,Chrome,1366,768,,,,,,,,,,,,,,,,,1,,,,,,,,,,,,,,,,,,,,,,,,,,,484.74538,63,right,0.54336,camel         ,5,3,-3,0,3,484.797785,484.797785,487.29892,0,62,62,62,1,63,8,5,phone       ,camel         ,html/resources/sequences_IDs/B/09_phone.jpg,html/resources/sequences_IDs/A/03_camel.jpg,9,3,4,2,1,1,7,3,0,76,,,,,,,,,,,,,,,,,,,,
,,,,,76,2020-07-04_18h31.01.738,retriever_ti,2020.1.3,Win32,60,Chrome,1366,768,,,,,,,,,,,,,,,,,1,,,,,,,,,,,,,,,,,,,,,,,,,,,487.902535,64,left,0.444595,peacock       ,1,5,-6,0,3,487.9528,487.9528,490.456375,0,63,63,63,1,64,1,7,peacock       ,seaturtle     ,html/resources/sequences_IDs/A/05_peacock.jpg,html/resources/sequences_IDs/A/02_seaturtle.jpg,5,2,2,1,2,1,4,2,0,76,,,,,,,,,,,,,,,,,,,,
,,,,,76,2020-07-04_18h31.01.738,retriever_ti,2020.1.3,Win32,60,Chrome,1366,768,,,,,,,,,,,,,,,,,1,,,,,,,,,,,,,,,,,,,,,,,,,,,491.0587,65,left,1.059135,radio       ,4,10,-1,0,1,491.108975,491.108975,493.61293,0,64,64,64,1,65,4,5,radio       ,camel         ,html/resources/sequences_IDs/B/10_radio.jpg,html/resources/sequences_IDs/A/03_camel.jpg,10,3,4,2,1,1,8,3,1,76,,,,,,,,,,,,,,,,,,,,
,,,,,76,2020-07-04_18h31.01.738,retriever_ti,2020.1.3,Win32,60,Chrome,1366,768,,,,,,,,,,,,,,,,,1,,,,,,,,,,,,,,,,,,,,,,,,,,,494.71615,66,left,0.810255,seaturtle     ,7,2,-1,0,0,494.76763,494.76763,497.27107,0,65,65,65,1,66,7,8,seaturtle     ,phone       ,html/resources/sequences_IDs/A/02_seaturtle.jpg,html/resources/sequences_IDs/B/09_phone.jpg,2,9,2,1,4,2,2,7,0,76,,,,,,,,,,,,,,,,,,,,
,,,,,76,2020-07-04_18h31.01.738,retriever_ti,2020.1.3,Win32,60,Chrome,1366,768,,,,,,,,,,,,,,,,,1,,,,,,,,,,,,,,,,,,,,,,,,,,,498.37393,67,left,0.94261,radio       ,4,10,3,1,3,498.398975,498.398975,500.90283,0,66,66,66,1,67,4,1,radio       ,peacock       ,html/resources/sequences_IDs/B/10_radio.jpg,html/resources/sequences_IDs/A/05_peacock.jpg,10,5,4,2,2,1,8,4,0,76,,,,,,,,,,,,,,,,,,,,
,,,,,76,2020-07-04_18h31.01.738,retriever_ti,2020.1.3,Win32,60,Chrome,1366,768,,,,,,,,,,,,,,,,,1,,,,,,,,,,,,,,,,,,,,,,,,,,,501.50595,68,right,0.757945,wolf          ,3,1,-3,0,3,501.531915,501.531915,504.03412,0,67,67,67,1,68,6,3,slipper     ,wolf          ,html/resources/sequences_IDs/B/08_slipper.jpg,html/resources/sequences_IDs/A/01_wolf.jpg,8,1,3,2,1,1,6,1,0,76,,,,,,,,,,,,,,,,,,,,
,,,,,76,2020-07-04_18h31.01.738,retriever_ti,2020.1.3,Win32,60,Chrome,1366,768,,,,,,,,,,,,,,,,,1,,,,,,,,,,,,,,,,,,,,,,,,,,,504.63673,69,left,0.522165,camel         ,5,3,1,1,1,504.661895,504.661895,507.165455,0,68,68,68,1,69,5,4,camel         ,radio       ,html/resources/sequences_IDs/A/03_camel.jpg,html/resources/sequences_IDs/B/10_radio.jpg,3,10,1,1,4,2,3,8,0,76,,,,,,,,,,,,,,,,,,,,
,,,,,76,2020-07-04_18h31.01.738,retriever_ti,2020.1.3,Win32,60,Chrome,1366,768,,,,,,,,,,,,,,,,,1,,,,,,,,,,,,,,,,,,,,,,,,,,,508.269435,70,left,0.58192,camel         ,5,3,-3,0,3,508.31921,508.31921,510.823165,0,69,69,69,1,70,5,8,camel         ,phone       ,html/resources/sequences_IDs/A/03_camel.jpg,html/resources/sequences_IDs/B/09_phone.jpg,3,9,1,1,4,2,3,7,0,76,,,,,,,,,,,,,,,,,,,,
,,,,,76,2020-07-04_18h31.01.738,retriever_ti,2020.1.3,Win32,60,Chrome,1366,768,,,,,,,,,,,,,,,,,1,,,,,,,,,,,,,,,,,,,,,,,,,,,511.425905,71,left,0.561665,wolf          ,3,1,-2,0,3,511.476765,511.476765,513.979815,0,70,70,70,1,71,3,5,wolf          ,camel         ,html/resources/sequences_IDs/A/01_wolf.jpg,html/resources/sequences_IDs/A/03_camel.jpg,1,3,1,1,1,1,1,3,0,76,,,,,,,,,,,,,,,,,,,,
,,,,,76,2020-07-04_18h31.01.738,retriever_ti,2020.1.3,Win32,60,Chrome,1366,768,,,,,,,,,,,,,,,,,1,,,,,,,,,,,,,,,,,,,,,,,,,,,514.582195,72,left,0.464505,wolf          ,3,1,-1,0,0,514.607285,514.607285,517.110825,0,71,71,71,1,72,3,4,wolf          ,radio       ,html/resources/sequences_IDs/A/01_wolf.jpg,html/resources/sequences_IDs/B/10_radio.jpg,1,10,1,1,4,2,1,8,0,76,,,,,,,,,,,,,,,,,,,,
,,,,,76,2020-07-04_18h31.01.738,retriever_ti,2020.1.3,Win32,60,Chrome,1366,768,,,,,,,,,,,,,,,,,1,,,,,,,,,,,,,,,,,,,,,,,,,,,518.214365,73,left,0.781395,seaturtle     ,7,2,1,1,1,518.24074,518.24074,520.743195,0,72,72,72,1,73,7,6,seaturtle     ,slipper     ,html/resources/sequences_IDs/A/02_seaturtle.jpg,html/resources/sequences_IDs/B/08_slipper.jpg,2,8,2,1,3,2,2,6,0,76,,,,,,,,,,,,,,,,,,,,
,,,,,76,2020-07-04_18h31.01.738,retriever_ti,2020.1.3,Win32,60,Chrome,1366,768,,,,,,,,,,,,,,,,,1,,,,,,,,,,,,,,,,,,,,,,,,,,,521.847345,74,right,0.682705,wolf          ,3,1,1,1,1,521.899605,521.899605,524.40049,0,73,73,73,1,74,2,3,gloves      ,wolf          ,html/resources/sequences_IDs/B/06_gloves.jpg,html/resources/sequences_IDs/A/01_wolf.jpg,6,1,3,2,1,1,5,1,0,76,,,,,,,,,,,,,,,,,,,,
,,,,,76,2020-07-04_18h31.01.738,retriever_ti,2020.1.3,Win32,60,Chrome,1366,768,,,,,,,,,,,,,,,,,1,,,,,,,,,,,,,,,,,,,,,,,,,,,525.504055,75,right,0.61372,slipper     ,6,8,-2,0,3,525.530295,525.530295,528.033435,0,74,74,74,1,75,8,6,phone       ,slipper     ,html/resources/sequences_IDs/B/09_phone.jpg,html/resources/sequences_IDs/B/08_slipper.jpg,9,8,4,2,3,2,7,6,0,76,,,,,,,,,,,,,,,,,,,,
,,,,,76,2020-07-04_18h31.01.738,retriever_ti,2020.1.3,Win32,60,Chrome,1366,768,,,,,,,,,,,,,,,,,1,,,,,,,,,,,,,,,,,,,,,,,,,,,528.634855,76,right,0.693405,camel         ,5,3,1,1,1,528.660715,528.660715,531.164465,0,75,75,75,1,76,4,5,radio       ,camel         ,html/resources/sequences_IDs/B/10_radio.jpg,html/resources/sequences_IDs/A/03_camel.jpg,10,3,4,2,1,1,8,3,0,76,,,,,,,,,,,,,,,,,,,,
,,,,,76,2020-07-04_18h31.01.738,retriever_ti,2020.1.3,Win32,60,Chrome,1366,768,,,,,,,,,,,,,,,,,1,,,,,,,,,,,,,,,,,,,,,,,,,,,532.26688,77,left,0.69579,phone       ,8,9,6,1,3,532.292805,532.292805,534.796355,0,76,76,76,1,77,8,2,phone       ,gloves      ,html/resources/sequences_IDs/B/09_phone.jpg,html/resources/sequences_IDs/B/06_gloves.jpg,9,6,4,2,3,2,7,5,0,76,,,,,,,,,,,,,,,,,,,,
,,,,,76,2020-07-04_18h31.01.738,retriever_ti,2020.1.3,Win32,60,Chrome,1366,768,,,,,,,,,,,,,,,,,,,,,,,,,,,,,,,,,,,,,0,3.963295,,,,,,,,,,,,,,,,,,,,,,,,,,,,,,,,,,,,,,,,,0,0,0,0,1,,,,,,,,,,,,,,,
,,,,,76,2020-07-04_18h31.01.738,retriever_ti,2020.1.3,Win32,60,Chrome,1366,768,,,,,,,,,,,,,,,,,2,,,,,,,,,,,,,,,,,,,,,,,,,,,562.42673,78,left,1.245725,camel         ,5,3,3,1,3,562.45369,562.45369,564.958425,0,0,0,0,1,78,5,2,camel         ,gloves      ,html/resources/sequences_IDs/A/03_camel.jpg,html/resources/sequences_IDs/B/06_gloves.jpg,3,6,1,1,3,2,3,5,0,76,,,,,,,,,,,,,,,,,,,,
,,,,,76,2020-07-04_18h31.01.738,retriever_ti,2020.1.3,Win32,60,Chrome,1366,768,,,,,,,,,,,,,,,,,2,,,,,,,,,,,,,,,,,,,,,,,,,,,565.559445,79,right,0.60826,slipper     ,6,8,2,1,3,565.61119,565.61119,568.114645,0,1,1,1,1,79,4,6,radio       ,slipper     ,html/resources/sequences_IDs/B/10_radio.jpg,html/resources/sequences_IDs/B/08_slipper.jpg,10,8,4,2,3,2,8,6,0,76,,,,,,,,,,,,,,,,,,,,
,,,,,76,2020-07-04_18h31.01.738,retriever_ti,2020.1.3,Win32,60,Chrome,1366,768,,,,,,,,,,,,,,,,,2,,,,,,,,,,,,,,,,,,,,,,,,,,,568.716895,80,right,0.783975,seaturtle     ,7,2,6,1,3,568.743015,568.743015,571.24591,0,2,2,2,1,80,1,7,peacock       ,seaturtle     ,html/resources/sequences_IDs/A/05_peacock.jpg,html/resources/sequences_IDs/A/02_seaturtle.jpg,5,2,2,1,2,1,4,2,0,76,,,,,,,,,,,,,,,,,,,,
,,,,,76,2020-07-04_18h31.01.738,retriever_ti,2020.1.3,Win32,60,Chrome,1366,768,,,,,,,,,,,,,,,,,2,,,,,,,,,,,,,,,,,,,,,,,,,,,571.849125,81,left,0.56218,seaturtle     ,7,2,-1,0,1,571.898595,571.898595,574.40119,0,3,3,3,1,81,7,8,seaturtle     ,phone       ,html/resources/sequences_IDs/A/02_seaturtle.jpg,html/resources/sequences_IDs/B/09_phone.jpg,2,9,2,1,4,2,2,7,1,76,,,,,,,,,,,,,,,,,,,,
,,,,,76,2020-07-04_18h31.01.738,retriever_ti,2020.1.3,Win32,60,Chrome,1366,768,,,,,,,,,,,,,,,,,2,,,,,,,,,,,,,,,,,,,,,,,,,,,575.506005,82,left,1.18651,phone       ,8,9,4,1,3,575.53071,575.53071,578.03544,0,4,4,4,1,82,8,4,phone       ,radio       ,html/resources/sequences_IDs/B/09_phone.jpg,html/resources/sequences_IDs/B/10_radio.jpg,9,10,4,2,4,2,7,8,0,76,,,,,,,,,,,,,,,,,,,,
,,,,,76,2020-07-04_18h31.01.738,retriever_ti,2020.1.3,Win32,60,Chrome,1366,768,,,,,,,,,,,,,,,,,2,,,,,,,,,,,,,,,,,,,,,,,,,,,578.63837,83,right,0.841235,seaturtle     ,7,2,5,1,3,578.688905,578.688905,581.19132,0,5,5,5,1,83,2,7,gloves      ,seaturtle     ,html/resources/sequences_IDs/B/06_gloves.jpg,html/resources/sequences_IDs/A/02_seaturtle.jpg,6,2,3,2,2,1,5,2,0,76,,,,,,,,,,,,,,,,,,,,
,,,,,76,2020-07-04_18h31.01.738,retriever_ti,2020.1.3,Win32,60,Chrome,1366,768,,,,,,,,,,,,,,,,,2,,,,,,,,,,,,,,,,,,,,,,,,,,,581.79354,84,left,1.16388,camel         ,5,3,-1,0,0,581.819115,581.819115,584.322855,0,6,6,6,1,84,5,6,camel         ,slipper     ,html/resources/sequences_IDs/A/03_camel.jpg,html/resources/sequences_IDs/B/08_slipper.jpg,3,8,1,1,3,2,3,6,0,76,,,,,,,,,,,,,,,,,,,,
,,,,,76,2020-07-04_18h31.01.738,retriever_ti,2020.1.3,Win32,60,Chrome,1366,768,,,,,,,,,,,,,,,,,2,,,,,,,,,,,,,,,,,,,,,,,,,,,585.426515,85,right,1.23488,radio       ,4,10,3,1,3,585.47772,585.47772,587.980045,0,7,7,7,1,85,1,4,peacock       ,radio       ,html/resources/sequences_IDs/A/05_peacock.jpg,html/resources/sequences_IDs/B/10_radio.jpg,5,10,2,1,4,2,4,8,0,76,,,,,,,,,,,,,,,,,,,,
,,,,,76,2020-07-04_18h31.01.738,retriever_ti,2020.1.3,Win32,60,Chrome,1366,768,,,,,,,,,,,,,,,,,2,,,,,,,,,,,,,,,,,,,,,,,,,,,588.583645,86,left,0.786685,radio       ,4,10,3,1,3,588.607915,588.607915,591.11133,0,8,8,8,1,86,4,1,radio       ,peacock       ,html/resources/sequences_IDs/B/10_radio.jpg,html/resources/sequences_IDs/A/05_peacock.jpg,10,5,4,2,2,1,8,4,0,76,,,,,,,,,,,,,,,,,,,,
,,,,,76,2020-07-04_18h31.01.738,retriever_ti,2020.1.3,Win32,60,Chrome,1366,768,,,,,,,,,,,,,,,,,2,,,,,,,,,,,,,,,,,,,,,,,,,,,591.714095,87,left,0.9069,seaturtle     ,7,2,-1,0,0,591.739895,591.739895,594.24312,0,9,9,9,1,87,7,8,seaturtle     ,phone       ,html/resources/sequences_IDs/A/02_seaturtle.jpg,html/resources/sequences_IDs/B/09_phone.jpg,2,9,2,1,4,2,2,7,0,76,,,,,,,,,,,,,,,,,,,,
,,,,,76,2020-07-04_18h31.01.738,retriever_ti,2020.1.3,Win32,60,Chrome,1366,768,,,,,,,,,,,,,,,,,2,,,,,,,,,,,,,,,,,,,,,,,,,,,595.346455,88,left,1.493515,camel         ,5,3,1,1,1,595.3969,595.3969,597.900115,0,10,10,10,1,88,5,4,camel         ,radio       ,html/resources/sequences_IDs/A/03_camel.jpg,html/resources/sequences_IDs/B/10_radio.jpg,3,10,1,1,4,2,3,8,0,76,,,,,,,,,,,,,,,,,,,,
,,,,,76,2020-07-04_18h31.01.738,retriever_ti,2020.1.3,Win32,60,Chrome,1366,768,,,,,,,,,,,,,,,,,2,,,,,,,,,,,,,,,,,,,,,,,,,,,599.00432,89,right,1.20742,wolf          ,3,1,1,1,1,599.030105,599.030105,601.5326,0,11,11,11,1,89,2,3,gloves      ,wolf          ,html/resources/sequences_IDs/B/06_gloves.jpg,html/resources/sequences_IDs/A/01_wolf.jpg,6,1,3,2,1,1,5,1,0,76,,,,,,,,,,,,,,,,,,,,
,,,,,76,2020-07-04_18h31.01.738,retriever_ti,2020.1.3,Win32,60,Chrome,1366,768,,,,,,,,,,,,,,,,,2,,,,,,,,,,,,,,,,,,,,,,,,,,,602.637445,90,left,1.784,camel         ,5,3,1,1,1,602.66226,602.66226,605.16461,0,12,12,12,1,90,5,4,camel         ,radio       ,html/resources/sequences_IDs/A/03_camel.jpg,html/resources/sequences_IDs/B/10_radio.jpg,3,10,1,1,4,2,3,8,0,76,,,,,,,,,,,,,,,,,,,,
,,,,,76,2020-07-04_18h31.01.738,retriever_ti,2020.1.3,Win32,60,Chrome,1366,768,,,,,,,,,,,,,,,,,2,,,,,,,,,,,,,,,,,,,,,,,,,,,606.26859,91,right,1.71567,phone       ,8,9,2,1,3,606.31882,606.31882,608.821905,0,13,13,13,1,91,6,8,slipper     ,phone       ,html/resources/sequences_IDs/B/08_slipper.jpg,html/resources/sequences_IDs/B/09_phone.jpg,8,9,3,2,4,2,6,7,0,76,,,,,,,,,,,,,,,,,,,,
,,,,,76,2020-07-04_18h31.01.738,retriever_ti,2020.1.3,Win32,60,Chrome,1366,768,,,,,,,,,,,,,,,,,2,,,,,,,,,,,,,,,,,,,,,,,,,,,609.42396,92,right,0.70641,slipper     ,6,8,5,1,3,609.45134,609.45134,611.95404,0,14,14,14,1,92,1,6,peacock       ,slipper     ,html/resources/sequences_IDs/A/05_peacock.jpg,html/resources/sequences_IDs/B/08_slipper.jpg,5,8,2,1,3,2,4,6,0,76,,,,,,,,,,,,,,,,,,,,
,,,,,76,2020-07-04_18h31.01.738,retriever_ti,2020.1.3,Win32,60,Chrome,1366,768,,,,,,,,,,,,,,,,,2,,,,,,,,,,,,,,,,,,,,,,,,,,,612.55823,93,left,1.093985,wolf          ,3,1,-5,0,3,612.60715,612.60715,615.111505,0,15,15,15,1,93,3,8,wolf          ,phone       ,html/resources/sequences_IDs/A/01_wolf.jpg,html/resources/sequences_IDs/B/09_phone.jpg,1,9,1,1,4,2,1,7,0,76,,,,,,,,,,,,,,,,,,,,
,,,,,76,2020-07-04_18h31.01.738,retriever_ti,2020.1.3,Win32,60,Chrome,1366,768,,,,,,,,,,,,,,,,,2,,,,,,,,,,,,,,,,,,,,,,,,,,,615.736365,94,right,0.535315,wolf          ,3,1,-3,0,3,615.762825,615.762825,618.26693,0,16,16,16,1,94,6,3,slipper     ,wolf          ,html/resources/sequences_IDs/B/08_slipper.jpg,html/resources/sequences_IDs/A/01_wolf.jpg,8,1,3,2,1,1,6,1,0,76,,,,,,,,,,,,,,,,,,,,
,,,,,76,2020-07-04_18h31.01.738,retriever_ti,2020.1.3,Win32,60,Chrome,1366,768,,,,,,,,,,,,,,,,,2,,,,,,,,,,,,,,,,,,,,,,,,,,,618.86957,95,left,0.667515,seaturtle     ,7,2,3,1,3,618.895255,618.895255,621.398355,0,17,17,17,1,95,7,4,seaturtle     ,radio       ,html/resources/sequences_IDs/A/02_seaturtle.jpg,html/resources/sequences_IDs/B/10_radio.jpg,2,10,2,1,4,2,2,8,0,76,,,,,,,,,,,,,,,,,,,,
,,,,,76,2020-07-04_18h31.01.738,retriever_ti,2020.1.3,Win32,60,Chrome,1366,768,,,,,,,,,,,,,,,,,2,,,,,,,,,,,,,,,,,,,,,,,,,,,622.001945,96,right,0.88809,camel         ,5,3,4,1,3,622.02702,622.02702,624.529595,0,18,18,18,1,96,1,5,peacock       ,camel         ,html/resources/sequences_IDs/A/05_peacock.jpg,html/resources/sequences_IDs/A/03_camel.jpg,5,3,2,1,1,1,4,3,0,76,,,,,,,,,,,,,,,,,,,,
,,,,,76,2020-07-04_18h31.01.738,retriever_ti,2020.1.3,Win32,60,Chrome,1366,768,,,,,,,,,,,,,,,,,2,,,,,,,,,,,,,,,,,,,,,,,,,,,625.13109,97,left,0.64995,wolf          ,3,1,-2,0,3,625.15714,625.15714,627.660545,0,19,19,19,1,97,3,5,wolf          ,camel         ,html/resources/sequences_IDs/A/01_wolf.jpg,html/resources/sequences_IDs/A/03_camel.jpg,1,3,1,1,1,1,1,3,0,76,,,,,,,,,,,,,,,,,,,,
,,,,,76,2020-07-04_18h31.01.738,retriever_ti,2020.1.3,Win32,60,Chrome,1366,768,,,,,,,,,,,,,,,,,2,,,,,,,,,,,,,,,,,,,,,,,,,,,628.263635,98,right,0.81256,gloves      ,2,6,1,1,0,628.288585,628.288585,630.79241,0,20,20,20,1,98,1,2,peacock       ,gloves      ,html/resources/sequences_IDs/A/05_peacock.jpg,html/resources/sequences_IDs/B/06_gloves.jpg,5,6,2,1,3,2,4,5,1,76,,,,,,,,,,,,,,,,,,,,
,,,,,76,2020-07-04_18h31.01.738,retriever_ti,2020.1.3,Win32,60,Chrome,1366,768,,,,,,,,,,,,,,,,,2,,,,,,,,,,,,,,,,,,,,,,,,,,,631.894555,99,left,0.631325,seaturtle     ,7,2,5,1,3,631.920645,631.920645,634.42468,0,21,21,21,1,99,7,2,seaturtle     ,gloves      ,html/resources/sequences_IDs/A/02_seaturtle.jpg,html/resources/sequences_IDs/B/06_gloves.jpg,2,6,2,1,3,2,2,5,0,76,,,,,,,,,,,,,,,,,,,,
,,,,,76,2020-07-04_18h31.01.738,retriever_ti,2020.1.3,Win32,60,Chrome,1366,768,,,,,,,,,,,,,,,,,2,,,,,,,,,,,,,,,,,,,,,,,,,,,635.027805,100,left,0.787645,camel         ,5,3,-1,0,0,635.078755,635.078755,637.580915,0,22,22,22,1,100,5,6,camel         ,slipper     ,html/resources/sequences_IDs/A/03_camel.jpg,html/resources/sequences_IDs/B/08_slipper.jpg,3,8,1,1,3,2,3,6,0,76,,,,,,,,,,,,,,,,,,,,
,,,,,76,2020-07-04_18h31.01.738,retriever_ti,2020.1.3,Win32,60,Chrome,1366,768,,,,,,,,,,,,,,,,,2,,,,,,,,,,,,,,,,,,,,,,,,,,,638.6852,101,left,0.707165,seaturtle     ,7,2,4,1,3,638.71003,638.71003,641.212735,0,23,23,23,1,101,7,3,seaturtle     ,wolf          ,html/resources/sequences_IDs/A/02_seaturtle.jpg,html/resources/sequences_IDs/A/01_wolf.jpg,2,1,2,1,1,1,2,1,0,76,,,,,,,,,,,,,,,,,,,,
,,,,,76,2020-07-04_18h31.01.738,retriever_ti,2020.1.3,Win32,60,Chrome,1366,768,,,,,,,,,,,,,,,,,2,,,,,,,,,,,,,,,,,,,,,,,,,,,641.815955,102,right,1.17054,phone       ,8,9,4,1,3,641.867305,641.867305,644.37,0,24,24,24,1,102,4,8,radio       ,phone       ,html/resources/sequences_IDs/B/10_radio.jpg,html/resources/sequences_IDs/B/09_phone.jpg,10,9,4,2,4,2,8,7,0,76,,,,,,,,,,,,,,,,,,,,
,,,,,76,2020-07-04_18h31.01.738,retriever_ti,2020.1.3,Win32,60,Chrome,1366,768,,,,,,,,,,,,,,,,,2,,,,,,,,,,,,,,,,,,,,,,,,,,,644.972375,103,left,0.54609,camel         ,5,3,-2,0,3,644.998585,644.998585,647.50193,0,25,25,25,1,103,5,7,camel         ,seaturtle     ,html/resources/sequences_IDs/A/03_camel.jpg,html/resources/sequences_IDs/A/02_seaturtle.jpg,3,2,1,1,2,1,3,2,0,76,,,,,,,,,,,,,,,,,,,,
,,,,,76,2020-07-04_18h31.01.738,retriever_ti,2020.1.3,Win32,60,Chrome,1366,768,,,,,,,,,,,,,,,,,2,,,,,,,,,,,,,,,,,,,,,,,,,,,648.12869,104,right,0.707435,peacock       ,1,5,-1,0,0,648.15569,648.15569,650.658,0,26,26,26,1,104,2,1,gloves      ,peacock       ,html/resources/sequences_IDs/B/06_gloves.jpg,html/resources/sequences_IDs/A/05_peacock.jpg,6,5,3,2,2,1,5,4,0,76,,,,,,,,,,,,,,,,,,,,
,,,,,76,2020-07-04_18h31.01.738,retriever_ti,2020.1.3,Win32,60,Chrome,1366,768,,,,,,,,,,,,,,,,,2,,,,,,,,,,,,,,,,,,,,,,,,,,,651.759895,105,left,0.550735,wolf          ,3,1,-1,0,0,651.78749,651.78749,654.290195,0,27,27,27,1,105,3,4,wolf          ,radio       ,html/resources/sequences_IDs/A/01_wolf.jpg,html/resources/sequences_IDs/B/10_radio.jpg,1,10,1,1,4,2,1,8,0,76,,,,,,,,,,,,,,,,,,,,
,,,,,76,2020-07-04_18h31.01.738,retriever_ti,2020.1.3,Win32,60,Chrome,1366,768,,,,,,,,,,,,,,,,,2,,,,,,,,,,,,,,,,,,,,,,,,,,,655.393265,106,left,1.01882,seaturtle     ,7,2,6,1,3,655.4199,655.4199,657.92259,0,28,28,28,1,106,7,1,seaturtle     ,peacock       ,html/resources/sequences_IDs/A/02_seaturtle.jpg,html/resources/sequences_IDs/A/05_peacock.jpg,2,5,2,1,2,1,2,4,0,76,,,,,,,,,,,,,,,,,,,,
,,,,,76,2020-07-04_18h31.01.738,retriever_ti,2020.1.3,Win32,60,Chrome,1366,768,,,,,,,,,,,,,,,,,2,,,,,,,,,,,,,,,,,,,,,,,,,,,658.526025,107,left,0.757445,seaturtle     ,7,2,2,1,3,658.576505,658.576505,661.07913,0,29,29,29,1,107,7,5,seaturtle     ,camel         ,html/resources/sequences_IDs/A/02_seaturtle.jpg,html/resources/sequences_IDs/A/03_camel.jpg,2,3,2,1,1,1,2,3,0,76,,,,,,,,,,,,,,,,,,,,
,,,,,76,2020-07-04_18h31.01.738,retriever_ti,2020.1.3,Win32,60,Chrome,1366,768,,,,,,,,,,,,,,,,,2,,,,,,,,,,,,,,,,,,,,,,,,,,,661.68068,108,left,0.71021,seaturtle     ,7,2,1,1,1,661.73184,661.73184,664.234705,0,30,30,30,1,108,7,6,seaturtle     ,slipper     ,html/resources/sequences_IDs/A/02_seaturtle.jpg,html/resources/sequences_IDs/B/08_slipper.jpg,2,8,2,1,3,2,2,6,0,76,,,,,,,,,,,,,,,,,,,,
,,,,,76,2020-07-04_18h31.01.738,retriever_ti,2020.1.3,Win32,60,Chrome,1366,768,,,,,,,,,,,,,,,,,2,,,,,,,,,,,,,,,,,,,,,,,,,,,665.338595,109,right,0.94396,seaturtle     ,7,2,1,1,1,665.389665,665.389665,667.892845,0,31,31,31,1,109,6,7,slipper     ,seaturtle     ,html/resources/sequences_IDs/B/08_slipper.jpg,html/resources/sequences_IDs/A/02_seaturtle.jpg,8,2,3,2,2,1,6,2,0,76,,,,,,,,,,,,,,,,,,,,
,,,,,76,2020-07-04_18h31.01.738,retriever_ti,2020.1.3,Win32,60,Chrome,1366,768,,,,,,,,,,,,,,,,,2,,,,,,,,,,,,,,,,,,,,,,,,,,,668.996965,110,left,0.61008,wolf          ,3,1,-1,0,0,669.0234,669.0234,671.5248,0,32,32,32,1,110,3,4,wolf          ,radio       ,html/resources/sequences_IDs/A/01_wolf.jpg,html/resources/sequences_IDs/B/10_radio.jpg,1,10,1,1,4,2,1,8,0,76,,,,,,,,,,,,,,,,,,,,
,,,,,76,2020-07-04_18h31.01.738,retriever_ti,2020.1.3,Win32,60,Chrome,1366,768,,,,,,,,,,,,,,,,,2,,,,,,,,,,,,,,,,,,,,,,,,,,,672.62889,111,right,0.516715,camel         ,5,3,-3,0,3,672.65513,672.65513,675.15744,0,33,33,33,1,111,8,5,phone       ,camel         ,html/resources/sequences_IDs/B/09_phone.jpg,html/resources/sequences_IDs/A/03_camel.jpg,9,3,4,2,1,1,7,3,0,76,,,,,,,,,,,,,,,,,,,,
,,,,,76,2020-07-04_18h31.01.738,retriever_ti,2020.1.3,Win32,60,Chrome,1366,768,,,,,,,,,,,,,,,,,2,,,,,,,,,,,,,,,,,,,,,,,,,,,675.759605,112,left,0.455105,seaturtle     ,7,2,1,1,0,675.785995,675.785995,678.28834,0,34,34,34,1,112,7,6,seaturtle     ,slipper     ,html/resources/sequences_IDs/A/02_seaturtle.jpg,html/resources/sequences_IDs/B/08_slipper.jpg,2,8,2,1,3,2,2,6,1,76,,,,,,,,,,,,,,,,,,,,
,,,,,76,2020-07-04_18h31.01.738,retriever_ti,2020.1.3,Win32,60,Chrome,1366,768,,,,,,,,,,,,,,,,,2,,,,,,,,,,,,,,,,,,,,,,,,,,,679.39174,113,right,0.486665,seaturtle     ,7,2,1,1,1,679.41791,679.41791,681.921175,0,35,35,35,1,113,6,7,slipper     ,seaturtle     ,html/resources/sequences_IDs/B/08_slipper.jpg,html/resources/sequences_IDs/A/02_seaturtle.jpg,8,2,3,2,2,1,6,2,0,76,,,,,,,,,,,,,,,,,,,,
,,,,,76,2020-07-04_18h31.01.738,retriever_ti,2020.1.3,Win32,60,Chrome,1366,768,,,,,,,,,,,,,,,,,2,,,,,,,,,,,,,,,,,,,,,,,,,,,683.025215,114,right,0.546745,seaturtle     ,7,2,4,1,3,683.07583,683.07583,685.579005,0,36,36,36,1,114,3,7,wolf          ,seaturtle     ,html/resources/sequences_IDs/A/01_wolf.jpg,html/resources/sequences_IDs/A/02_seaturtle.jpg,1,2,1,1,2,1,1,2,0,76,,,,,,,,,,,,,,,,,,,,
,,,,,76,2020-07-04_18h31.01.738,retriever_ti,2020.1.3,Win32,60,Chrome,1366,768,,,,,,,,,,,,,,,,,2,,,,,,,,,,,,,,,,,,,,,,,,,,,686.18143,115,right,0.682025,seaturtle     ,7,2,-1,0,0,686.232715,686.232715,688.735485,0,37,37,37,1,115,8,7,phone       ,seaturtle     ,html/resources/sequences_IDs/B/09_phone.jpg,html/resources/sequences_IDs/A/02_seaturtle.jpg,9,2,4,2,2,1,7,2,0,76,,,,,,,,,,,,,,,,,,,,
,,,,,76,2020-07-04_18h31.01.738,retriever_ti,2020.1.3,Win32,60,Chrome,1366,768,,,,,,,,,,,,,,,,,2,,,,,,,,,,,,,,,,,,,,,,,,,,,689.83836,116,left,0.970935,camel         ,5,3,1,1,0,689.88935,689.88935,692.395305,0,38,38,38,1,116,5,4,camel         ,radio       ,html/resources/sequences_IDs/A/03_camel.jpg,html/resources/sequences_IDs/B/10_radio.jpg,3,10,1,1,4,2,3,8,1,76,,,,,,,,,,,,,,,,,,,,
,,,,,76,2020-07-04_18h31.01.738,retriever_ti,2020.1.3,Win32,60,Chrome,1366,768,,,,,,,,,,,,,,,,,2,,,,,,,,,,,,,,,,,,,,,,,,,,,693.495345,117,right,0.542765,wolf          ,3,1,1,1,1,693.54655,693.54655,696.050155,0,39,39,39,1,117,2,3,gloves      ,wolf          ,html/resources/sequences_IDs/B/06_gloves.jpg,html/resources/sequences_IDs/A/01_wolf.jpg,6,1,3,2,1,1,5,1,0,76,,,,,,,,,,,,,,,,,,,,
,,,,,76,2020-07-04_18h31.01.738,retriever_ti,2020.1.3,Win32,60,Chrome,1366,768,,,,,,,,,,,,,,,,,2,,,,,,,,,,,,,,,,,,,,,,,,,,,697.1546,118,left,1.315415,slipper     ,6,8,1,1,1,697.203885,697.203885,699.70774,0,40,40,40,1,118,6,5,slipper     ,camel         ,html/resources/sequences_IDs/B/08_slipper.jpg,html/resources/sequences_IDs/A/03_camel.jpg,8,3,3,2,1,1,6,3,0,76,,,,,,,,,,,,,,,,,,,,
,,,,,76,2020-07-04_18h31.01.738,retriever_ti,2020.1.3,Win32,60,Chrome,1366,768,,,,,,,,,,,,,,,,,2,,,,,,,,,,,,,,,,,,,,,,,,,,,700.81173,119,right,1.10714,slipper     ,6,8,1,1,0,700.861205,700.861205,703.36547,0,41,41,41,1,119,5,6,camel         ,slipper     ,html/resources/sequences_IDs/A/03_camel.jpg,html/resources/sequences_IDs/B/08_slipper.jpg,3,8,1,1,3,2,3,6,1,76,,,,,,,,,,,,,,,,,,,,
,,,,,76,2020-07-04_18h31.01.738,retriever_ti,2020.1.3,Win32,60,Chrome,1366,768,,,,,,,,,,,,,,,,,2,,,,,,,,,,,,,,,,,,,,,,,,,,,704.468755,120,right,0.96823,wolf          ,3,1,-5,0,3,704.49496,704.49496,706.99782,0,42,42,42,1,120,8,3,phone       ,wolf          ,html/resources/sequences_IDs/B/09_phone.jpg,html/resources/sequences_IDs/A/01_wolf.jpg,9,1,4,2,1,1,7,1,0,76,,,,,,,,,,,,,,,,,,,,
,,,,,76,2020-07-04_18h31.01.738,retriever_ti,2020.1.3,Win32,60,Chrome,1366,768,,,,,,,,,,,,,,,,,2,,,,,,,,,,,,,,,,,,,,,,,,,,,707.600585,121,left,1.636485,gloves      ,2,6,-6,0,3,707.627315,707.627315,710.128465,0,43,43,43,1,121,2,8,gloves      ,phone       ,html/resources/sequences_IDs/B/06_gloves.jpg,html/resources/sequences_IDs/B/09_phone.jpg,6,9,3,2,4,2,5,7,0,76,,,,,,,,,,,,,,,,,,,,
,,,,,76,2020-07-04_18h31.01.738,retriever_ti,2020.1.3,Win32,60,Chrome,1366,768,,,,,,,,,,,,,,,,,2,,,,,,,,,,,,,,,,,,,,,,,,,,,710.73036,122,right,0.73077,wolf          ,3,1,-1,0,0,710.756635,710.756635,713.26034,0,44,44,44,1,122,4,3,radio       ,wolf          ,html/resources/sequences_IDs/B/10_radio.jpg,html/resources/sequences_IDs/A/01_wolf.jpg,10,1,4,2,1,1,8,1,0,76,,,,,,,,,,,,,,,,,,,,
,,,,,76,2020-07-04_18h31.01.738,retriever_ti,2020.1.3,Win32,60,Chrome,1366,768,,,,,,,,,,,,,,,,,2,,,,,,,,,,,,,,,,,,,,,,,,,,,714.362465,123,right,0.83249,wolf          ,3,1,-2,0,3,714.38903,714.38903,716.892875,0,45,45,45,1,123,5,3,camel         ,wolf          ,html/resources/sequences_IDs/A/03_camel.jpg,html/resources/sequences_IDs/A/01_wolf.jpg,3,1,1,1,1,1,3,1,0,76,,,,,,,,,,,,,,,,,,,,
,,,,,76,2020-07-04_18h31.01.738,retriever_ti,2020.1.3,Win32,60,Chrome,1366,768,,,,,,,,,,,,,,,,,2,,,,,,,,,,,,,,,,,,,,,,,,,,,717.494015,124,left,1.111785,slipper     ,6,8,4,1,3,717.544875,717.544875,720.049405,0,46,46,46,1,124,6,2,slipper     ,gloves      ,html/resources/sequences_IDs/B/08_slipper.jpg,html/resources/sequences_IDs/B/06_gloves.jpg,8,6,3,2,3,2,6,5,0,76,,,,,,,,,,,,,,,,,,,,
,,,,,76,2020-07-04_18h31.01.738,retriever_ti,2020.1.3,Win32,60,Chrome,1366,768,,,,,,,,,,,,,,,,,2,,,,,,,,,,,,,,,,,,,,,,,,,,,720.651905,125,right,0.68731,wolf          ,3,1,-1,0,0,720.702005,720.702005,723.204665,0,47,47,47,1,125,4,3,radio       ,wolf          ,html/resources/sequences_IDs/B/10_radio.jpg,html/resources/sequences_IDs/A/01_wolf.jpg,10,1,4,2,1,1,8,1,0,76,,,,,,,,,,,,,,,,,,,,
,,,,,76,2020-07-04_18h31.01.738,retriever_ti,2020.1.3,Win32,60,Chrome,1366,768,,,,,,,,,,,,,,,,,2,,,,,,,,,,,,,,,,,,,,,,,,,,,724.3095,126,left,1.03353,camel         ,5,3,4,1,3,724.360455,724.360455,726.862945,0,48,48,48,1,126,5,1,camel         ,peacock       ,html/resources/sequences_IDs/A/03_camel.jpg,html/resources/sequences_IDs/A/05_peacock.jpg,3,5,1,1,2,1,3,4,0,76,,,,,,,,,,,,,,,,,,,,
,,,,,76,2020-07-04_18h31.01.738,retriever_ti,2020.1.3,Win32,60,Chrome,1366,768,,,,,,,,,,,,,,,,,2,,,,,,,,,,,,,,,,,,,,,,,,,,,727.464955,127,left,0.58028,wolf          ,3,1,1,1,1,727.5169,727.5169,730.0194,0,49,49,49,1,127,3,2,wolf          ,gloves      ,html/resources/sequences_IDs/A/01_wolf.jpg,html/resources/sequences_IDs/B/06_gloves.jpg,1,6,1,1,3,2,1,5,0,76,,,,,,,,,,,,,,,,,,,,
,,,,,76,2020-07-04_18h31.01.738,retriever_ti,2020.1.3,Win32,60,Chrome,1366,768,,,,,,,,,,,,,,,,,2,,,,,,,,,,,,,,,,,,,,,,,,,,,731.122695,128,left,1.4473,radio       ,4,10,-1,0,0,731.173575,731.173575,733.678375,0,50,50,50,1,128,4,5,radio       ,camel         ,html/resources/sequences_IDs/B/10_radio.jpg,html/resources/sequences_IDs/A/03_camel.jpg,10,3,4,2,1,1,8,3,0,76,,,,,,,,,,,,,,,,,,,,
,,,,,76,2020-07-04_18h31.01.738,retriever_ti,2020.1.3,Win32,60,Chrome,1366,768,,,,,,,,,,,,,,,,,2,,,,,,,,,,,,,,,,,,,,,,,,,,,734.780345,129,left,0.74325,phone       ,8,9,7,1,3,734.830655,734.830655,737.334235,0,51,51,51,1,129,8,1,phone       ,peacock       ,html/resources/sequences_IDs/B/09_phone.jpg,html/resources/sequences_IDs/A/05_peacock.jpg,9,5,4,2,2,1,7,4,0,76,,,,,,,,,,,,,,,,,,,,
,,,,,76,2020-07-04_18h31.01.738,retriever_ti,2020.1.3,Win32,60,Chrome,1366,768,,,,,,,,,,,,,,,,,2,,,,,,,,,,,,,,,,,,,,,,,,,,,737.9357,130,right,0.6113,peacock       ,1,5,-5,0,3,737.98679,737.98679,740.49051,0,52,52,52,1,130,6,1,slipper     ,peacock       ,html/resources/sequences_IDs/B/08_slipper.jpg,html/resources/sequences_IDs/A/05_peacock.jpg,8,5,3,2,2,1,6,4,0,76,,,,,,,,,,,,,,,,,,,,
,,,,,76,2020-07-04_18h31.01.738,retriever_ti,2020.1.3,Win32,60,Chrome,1366,768,,,,,,,,,,,,,,,,,2,,,,,,,,,,,,,,,,,,,,,,,,,,,741.09419,131,left,1.00544,radio       ,4,10,2,1,3,741.1194,741.1194,743.621895,0,53,53,53,1,131,4,2,radio       ,gloves      ,html/resources/sequences_IDs/B/10_radio.jpg,html/resources/sequences_IDs/B/06_gloves.jpg,10,6,4,2,3,2,8,5,0,76,,,,,,,,,,,,,,,,,,,,
,,,,,76,2020-07-04_18h31.01.738,retriever_ti,2020.1.3,Win32,60,Chrome,1366,768,,,,,,,,,,,,,,,,,2,,,,,,,,,,,,,,,,,,,,,,,,,,,744.224555,132,right,0.78913,gloves      ,2,6,1,1,1,744.251025,744.251025,746.753415,0,54,54,54,1,132,1,2,peacock       ,gloves      ,html/resources/sequences_IDs/A/05_peacock.jpg,html/resources/sequences_IDs/B/06_gloves.jpg,5,6,2,1,3,2,4,5,0,76,,,,,,,,,,,,,,,,,,,,
,,,,,76,2020-07-04_18h31.01.738,retriever_ti,2020.1.3,Win32,60,Chrome,1366,768,,,,,,,,,,,,,,,,,2,,,,,,,,,,,,,,,,,,,,,,,,,,,747.856435,133,right,0.531775,gloves      ,2,6,-1,0,1,747.88319,747.88319,750.385985,0,55,55,55,1,133,3,2,wolf          ,gloves      ,html/resources/sequences_IDs/A/01_wolf.jpg,html/resources/sequences_IDs/B/06_gloves.jpg,1,6,1,1,3,2,1,5,1,76,,,,,,,,,,,,,,,,,,,,
,,,,,76,2020-07-04_18h31.01.738,retriever_ti,2020.1.3,Win32,60,Chrome,1366,768,,,,,,,,,,,,,,,,,2,,,,,,,,,,,,,,,,,,,,,,,,,,,751.489975,134,left,1.09332,wolf          ,3,1,-1,0,1,751.51431,751.51431,754.01807,0,56,56,56,1,134,3,4,wolf          ,radio       ,html/resources/sequences_IDs/A/01_wolf.jpg,html/resources/sequences_IDs/B/10_radio.jpg,1,10,1,1,4,2,1,8,1,76,,,,,,,,,,,,,,,,,,,,
,,,,,76,2020-07-04_18h31.01.738,retriever_ti,2020.1.3,Win32,60,Chrome,1366,768,,,,,,,,,,,,,,,,,2,,,,,,,,,,,,,,,,,,,,,,,,,,,755.120625,135,right,0.867355,seaturtle     ,7,2,3,1,3,755.14625,755.14625,757.65061,0,57,57,57,1,135,4,7,radio       ,seaturtle     ,html/resources/sequences_IDs/B/10_radio.jpg,html/resources/sequences_IDs/A/02_seaturtle.jpg,10,2,4,2,2,1,8,2,0,76,,,,,,,,,,,,,,,,,,,,
,,,,,76,2020-07-04_18h31.01.738,retriever_ti,2020.1.3,Win32,60,Chrome,1366,768,,,,,,,,,,,,,,,,,2,,,,,,,,,,,,,,,,,,,,,,,,,,,758.253275,136,left,1.14919,slipper     ,6,8,1,1,1,758.30419,758.30419,760.806965,0,58,58,58,1,136,6,5,slipper     ,camel         ,html/resources/sequences_IDs/B/08_slipper.jpg,html/resources/sequences_IDs/A/03_camel.jpg,8,3,3,2,1,1,6,3,0,76,,,,,,,,,,,,,,,,,,,,
,,,,,76,2020-07-04_18h31.01.738,retriever_ti,2020.1.3,Win32,60,Chrome,1366,768,,,,,,,,,,,,,,,,,2,,,,,,,,,,,,,,,,,,,,,,,,,,,761.910665,137,left,0.99822,radio       ,4,10,-1,0,0,761.93759,761.93759,764.438115,0,59,59,59,1,137,4,5,radio       ,camel         ,html/resources/sequences_IDs/B/10_radio.jpg,html/resources/sequences_IDs/A/03_camel.jpg,10,3,4,2,1,1,8,3,0,76,,,,,,,,,,,,,,,,,,,,
,,,,,76,2020-07-04_18h31.01.738,retriever_ti,2020.1.3,Win32,60,Chrome,1366,768,,,,,,,,,,,,,,,,,2,,,,,,,,,,,,,,,,,,,,,,,,,,,765.54373,138,left,0.78488,phone       ,8,9,6,1,3,765.570035,765.570035,768.071655,0,60,60,60,1,138,8,2,phone       ,gloves      ,html/resources/sequences_IDs/B/09_phone.jpg,html/resources/sequences_IDs/B/06_gloves.jpg,9,6,4,2,3,2,7,5,0,76,,,,,,,,,,,,,,,,,,,,
,,,,,76,2020-07-04_18h31.01.738,retriever_ti,2020.1.3,Win32,60,Chrome,1366,768,,,,,,,,,,,,,,,,,2,,,,,,,,,,,,,,,,,,,,,,,,,,,768.67451,139,left,0.58291,gloves      ,2,6,-3,0,3,768.69915,768.69915,771.20323,0,61,61,61,1,139,2,5,gloves      ,camel         ,html/resources/sequences_IDs/B/06_gloves.jpg,html/resources/sequences_IDs/A/03_camel.jpg,6,3,3,2,1,1,5,3,0,76,,,,,,,,,,,,,,,,,,,,
,,,,,76,2020-07-04_18h31.01.738,retriever_ti,2020.1.3,Win32,60,Chrome,1366,768,,,,,,,,,,,,,,,,,2,,,,,,,,,,,,,,,,,,,,,,,,,,,771.804565,140,left,0.582375,gloves      ,2,6,-4,0,3,771.85573,771.85573,774.359955,0,62,62,62,1,140,2,6,gloves      ,slipper     ,html/resources/sequences_IDs/B/06_gloves.jpg,html/resources/sequences_IDs/B/08_slipper.jpg,6,8,3,2,3,2,5,6,0,76,,,,,,,,,,,,,,,,,,,,
,,,,,76,2020-07-04_18h31.01.738,retriever_ti,2020.1.3,Win32,60,Chrome,1366,768,,,,,,,,,,,,,,,,,2,,,,,,,,,,,,,,,,,,,,,,,,,,,774.962195,141,left,0.642145,phone       ,8,9,2,1,3,775.01261,775.01261,777.51513,0,63,63,63,1,141,8,6,phone       ,slipper     ,html/resources/sequences_IDs/B/09_phone.jpg,html/resources/sequences_IDs/B/08_slipper.jpg,9,8,4,2,3,2,7,6,0,76,,,,,,,,,,,,,,,,,,,,
,,,,,76,2020-07-04_18h31.01.738,retriever_ti,2020.1.3,Win32,60,Chrome,1366,768,,,,,,,,,,,,,,,,,2,,,,,,,,,,,,,,,,,,,,,,,,,,,778.11712,142,right,0.556845,peacock       ,1,5,-1,0,0,778.16955,778.16955,780.67231,0,64,64,64,1,142,2,1,gloves      ,peacock       ,html/resources/sequences_IDs/B/06_gloves.jpg,html/resources/sequences_IDs/A/05_peacock.jpg,6,5,3,2,2,1,5,4,0,76,,,,,,,,,,,,,,,,,,,,
,,,,,76,2020-07-04_18h31.01.738,retriever_ti,2020.1.3,Win32,60,Chrome,1366,768,,,,,,,,,,,,,,,,,2,,,,,,,,,,,,,,,,,,,,,,,,,,,781.77606,143,right,1.03196,gloves      ,2,6,1,1,1,781.80213,781.80213,784.30462,0,65,65,65,1,143,1,2,peacock       ,gloves      ,html/resources/sequences_IDs/A/05_peacock.jpg,html/resources/sequences_IDs/B/06_gloves.jpg,5,6,2,1,3,2,4,5,0,76,,,,,,,,,,,,,,,,,,,,
,,,,,76,2020-07-04_18h31.01.738,retriever_ti,2020.1.3,Win32,60,Chrome,1366,768,,,,,,,,,,,,,,,,,2,,,,,,,,,,,,,,,,,,,,,,,,,,,785.40856,144,right,1.76833,radio       ,4,10,-2,0,3,785.4603,785.4603,787.962155,0,66,66,66,1,144,6,4,slipper     ,radio       ,html/resources/sequences_IDs/B/08_slipper.jpg,html/resources/sequences_IDs/B/10_radio.jpg,8,10,3,2,4,2,6,8,0,76,,,,,,,,,,,,,,,,,,,,
,,,,,76,2020-07-04_18h31.01.738,retriever_ti,2020.1.3,Win32,60,Chrome,1366,768,,,,,,,,,,,,,,,,,2,,,,,,,,,,,,,,,,,,,,,,,,,,,788.5645,145,left,0.791345,wolf          ,3,1,2,1,3,788.615335,788.615335,791.11878,0,67,67,67,1,145,3,1,wolf          ,peacock       ,html/resources/sequences_IDs/A/01_wolf.jpg,html/resources/sequences_IDs/A/05_peacock.jpg,1,5,1,1,2,1,1,4,0,76,,,,,,,,,,,,,,,,,,,,
,,,,,76,2020-07-04_18h31.01.738,retriever_ti,2020.1.3,Win32,60,Chrome,1366,768,,,,,,,,,,,,,,,,,2,,,,,,,,,,,,,,,,,,,,,,,,,,,791.72163,146,right,1.407465,phone       ,8,9,7,1,3,791.7719,791.7719,794.275055,0,68,68,68,1,146,1,8,peacock       ,phone       ,html/resources/sequences_IDs/A/05_peacock.jpg,html/resources/sequences_IDs/B/09_phone.jpg,5,9,2,1,4,2,4,7,0,76,,,,,,,,,,,,,,,,,,,,
,,,,,76,2020-07-04_18h31.01.738,retriever_ti,2020.1.3,Win32,60,Chrome,1366,768,,,,,,,,,,,,,,,,,2,,,,,,,,,,,,,,,,,,,,,,,,,,,794.87832,147,right,0.91624,wolf          ,3,1,2,1,3,794.928785,794.928785,797.4316,0,69,69,69,1,147,1,3,peacock       ,wolf          ,html/resources/sequences_IDs/A/05_peacock.jpg,html/resources/sequences_IDs/A/01_wolf.jpg,5,1,2,1,1,1,4,1,0,76,,,,,,,,,,,,,,,,,,,,
,,,,,76,2020-07-04_18h31.01.738,retriever_ti,2020.1.3,Win32,60,Chrome,1366,768,,,,,,,,,,,,,,,,,2,,,,,,,,,,,,,,,,,,,,,,,,,,,798.032935,148,right,1.20966,phone       ,8,9,3,1,3,798.08501,798.08501,800.588335,0,70,70,70,1,148,5,8,camel         ,phone       ,html/resources/sequences_IDs/A/03_camel.jpg,html/resources/sequences_IDs/B/09_phone.jpg,3,9,1,1,4,2,3,7,0,76,,,,,,,,,,,,,,,,,,,,
,,,,,76,2020-07-04_18h31.01.738,retriever_ti,2020.1.3,Win32,60,Chrome,1366,768,,,,,,,,,,,,,,,,,2,,,,,,,,,,,,,,,,,,,,,,,,,,,801.19155,149,right,0.719875,radio       ,4,10,2,1,3,801.240945,801.240945,803.74451,0,71,71,71,1,149,2,4,gloves      ,radio       ,html/resources/sequences_IDs/B/06_gloves.jpg,html/resources/sequences_IDs/B/10_radio.jpg,6,10,3,2,4,2,5,8,0,76,,,,,,,,,,,,,,,,,,,,
,,,,,76,2020-07-04_18h31.01.738,retriever_ti,2020.1.3,Win32,60,Chrome,1366,768,,,,,,,,,,,,,,,,,2,,,,,,,,,,,,,,,,,,,,,,,,,,,804.34699,150,left,0.68438,seaturtle     ,7,2,1,1,1,804.373295,804.373295,806.875785,0,72,72,72,1,150,7,6,seaturtle     ,slipper     ,html/resources/sequences_IDs/A/02_seaturtle.jpg,html/resources/sequences_IDs/B/08_slipper.jpg,2,8,2,1,3,2,2,6,0,76,,,,,,,,,,,,,,,,,,,,
,,,,,76,2020-07-04_18h31.01.738,retriever_ti,2020.1.3,Win32,60,Chrome,1366,768,,,,,,,,,,,,,,,,,2,,,,,,,,,,,,,,,,,,,,,,,,,,,807.978925,151,left,0.80578,phone       ,8,9,1,1,1,808.030325,808.030325,810.533715,0,73,73,73,1,151,8,7,phone       ,seaturtle     ,html/resources/sequences_IDs/B/09_phone.jpg,html/resources/sequences_IDs/A/02_seaturtle.jpg,9,2,4,2,2,1,7,2,0,76,,,,,,,,,,,,,,,,,,,,
,,,,,76,2020-07-04_18h31.01.738,retriever_ti,2020.1.3,Win32,60,Chrome,1366,768,,,,,,,,,,,,,,,,,2,,,,,,,,,,,,,,,,,,,,,,,,,,,811.63572,152,left,0.66904,wolf          ,3,1,1,1,1,811.662105,811.662105,814.165745,0,74,74,74,1,152,3,2,wolf          ,gloves      ,html/resources/sequences_IDs/A/01_wolf.jpg,html/resources/sequences_IDs/B/06_gloves.jpg,1,6,1,1,3,2,1,5,0,76,,,,,,,,,,,,,,,,,,,,
,,,,,76,2020-07-04_18h31.01.738,retriever_ti,2020.1.3,Win32,60,Chrome,1366,768,,,,,,,,,,,,,,,,,2,,,,,,,,,,,,,,,,,,,,,,,,,,,815.269225,153,left,0.61518,wolf          ,3,1,-3,0,3,815.295125,815.295125,817.798535,0,75,75,75,1,153,3,6,wolf          ,slipper     ,html/resources/sequences_IDs/A/01_wolf.jpg,html/resources/sequences_IDs/B/08_slipper.jpg,1,8,1,1,3,2,1,6,0,76,,,,,,,,,,,,,,,,,,,,
,,,,,76,2020-07-04_18h31.01.738,retriever_ti,2020.1.3,Win32,60,Chrome,1366,768,,,,,,,,,,,,,,,,,2,,,,,,,,,,,,,,,,,,,,,,,,,,,818.40087,154,right,0.66231,phone       ,8,9,1,1,1,818.45164,818.45164,820.954375,0,76,76,76,1,154,7,8,seaturtle     ,phone       ,html/resources/sequences_IDs/A/02_seaturtle.jpg,html/resources/sequences_IDs/B/09_phone.jpg,2,9,2,1,4,2,2,7,0,76,,,,,,,,,,,,,,,,,,,,
,,,,,76,2020-07-04_18h31.01.738,retriever_ti,2020.1.3,Win32,60,Chrome,1366,768,,,,,,,,,,,,,,,,,,,,,,,,,,,,,,,,,,,,,0,3.137005,,,,,,,,,,,,,,,,,,,,,,,,,,,,,,,,,,,,,,,,,1,0,1,0,1,,,,,,,,,,,,,,,
,,,,,76,2020-07-04_18h31.01.738,retriever_ti,2020.1.3,Win32,60,Chrome,1366,768,,,,,,,,,,,,,,,,,3,,,,,,,,,,,,,,,,,,,,,,,,,,,836.92891,155,left,0.621675,wolf          ,3,1,1,1,1,836.98782,836.98782,839.493335,0,0,0,0,1,155,3,2,wolf          ,gloves      ,html/resources/sequences_IDs/A/01_wolf.jpg,html/resources/sequences_IDs/B/06_gloves.jpg,1,6,1,1,3,2,1,5,0,76,,,,,,,,,,,,,,,,,,,,
,,,,,76,2020-07-04_18h31.01.738,retriever_ti,2020.1.3,Win32,60,Chrome,1366,768,,,,,,,,,,,,,,,,,3,,,,,,,,,,,,,,,,,,,,,,,,,,,840.59631,156,right,0.69816,wolf          ,3,1,-2,0,3,840.647345,840.647345,843.1501,0,1,1,1,1,156,5,3,camel         ,wolf          ,html/resources/sequences_IDs/A/03_camel.jpg,html/resources/sequences_IDs/A/01_wolf.jpg,3,1,1,1,1,1,3,1,0,76,,,,,,,,,,,,,,,,,,,,
,,,,,76,2020-07-04_18h31.01.738,retriever_ti,2020.1.3,Win32,60,Chrome,1366,768,,,,,,,,,,,,,,,,,3,,,,,,,,,,,,,,,,,,,,,,,,,,,843.75122,157,left,0.808425,gloves      ,2,6,-2,0,3,843.77883,843.77883,846.28133,0,2,2,2,1,157,2,4,gloves      ,radio       ,html/resources/sequences_IDs/B/06_gloves.jpg,html/resources/sequences_IDs/B/10_radio.jpg,6,10,3,2,4,2,5,8,0,76,,,,,,,,,,,,,,,,,,,,
,,,,,76,2020-07-04_18h31.01.738,retriever_ti,2020.1.3,Win32,60,Chrome,1366,768,,,,,,,,,,,,,,,,,3,,,,,,,,,,,,,,,,,,,,,,,,,,,846.883615,158,right,1.18186,gloves      ,2,6,-3,0,3,846.93521,846.93521,849.437345,0,3,3,3,1,158,5,2,camel         ,gloves      ,html/resources/sequences_IDs/A/03_camel.jpg,html/resources/sequences_IDs/B/06_gloves.jpg,3,6,1,1,3,2,3,5,0,76,,,,,,,,,,,,,,,,,,,,
,,,,,76,2020-07-04_18h31.01.738,retriever_ti,2020.1.3,Win32,60,Chrome,1366,768,,,,,,,,,,,,,,,,,3,,,,,,,,,,,,,,,,,,,,,,,,,,,850.063775,159,left,1.2506,phone       ,8,9,4,1,3,850.114915,850.114915,852.61889,0,4,4,4,1,159,8,4,phone       ,radio       ,html/resources/sequences_IDs/B/09_phone.jpg,html/resources/sequences_IDs/B/10_radio.jpg,9,10,4,2,4,2,7,8,0,76,,,,,,,,,,,,,,,,,,,,
,,,,,76,2020-07-04_18h31.01.738,retriever_ti,2020.1.3,Win32,60,Chrome,1366,768,,,,,,,,,,,,,,,,,3,,,,,,,,,,,,,,,,,,,,,,,,,,,853.221655,160,right,0.85792,phone       ,8,9,7,1,3,853.271285,853.271285,855.776015,0,5,5,5,1,160,1,8,peacock       ,phone       ,html/resources/sequences_IDs/A/05_peacock.jpg,html/resources/sequences_IDs/B/09_phone.jpg,5,9,2,1,4,2,4,7,0,76,,,,,,,,,,,,,,,,,,,,
,,,,,76,2020-07-04_18h31.01.738,retriever_ti,2020.1.3,Win32,60,Chrome,1366,768,,,,,,,,,,,,,,,,,3,,,,,,,,,,,,,,,,,,,,,,,,,,,856.402955,161,left,0.79791,seaturtle     ,7,2,1,1,0,856.454115,856.454115,858.956875,0,6,6,6,1,161,7,6,seaturtle     ,slipper     ,html/resources/sequences_IDs/A/02_seaturtle.jpg,html/resources/sequences_IDs/B/08_slipper.jpg,2,8,2,1,3,2,2,6,1,76,,,,,,,,,,,,,,,,,,,,
,,,,,76,2020-07-04_18h31.01.738,retriever_ti,2020.1.3,Win32,60,Chrome,1366,768,,,,,,,,,,,,,,,,,3,,,,,,,,,,,,,,,,,,,,,,,,,,,860.05998,162,left,1.168335,radio       ,4,10,-1,0,0,860.11222,860.11222,862.613515,0,7,7,7,1,162,4,5,radio       ,camel         ,html/resources/sequences_IDs/B/10_radio.jpg,html/resources/sequences_IDs/A/03_camel.jpg,10,3,4,2,1,1,8,3,0,76,,,,,,,,,,,,,,,,,,,,
,,,,,76,2020-07-04_18h31.01.738,retriever_ti,2020.1.3,Win32,60,Chrome,1366,768,,,,,,,,,,,,,,,,,3,,,,,,,,,,,,,,,,,,,,,,,,,,,863.71817,163,left,1.06077,seaturtle     ,7,2,1,1,1,863.767955,863.767955,866.271285,0,8,8,8,1,163,7,6,seaturtle     ,slipper     ,html/resources/sequences_IDs/A/02_seaturtle.jpg,html/resources/sequences_IDs/B/08_slipper.jpg,2,8,2,1,3,2,2,6,0,76,,,,,,,,,,,,,,,,,,,,
,,,,,76,2020-07-04_18h31.01.738,retriever_ti,2020.1.3,Win32,60,Chrome,1366,768,,,,,,,,,,,,,,,,,3,,,,,,,,,,,,,,,,,,,,,,,,,,,867.375505,164,left,1.039195,gloves      ,2,6,-4,0,3,867.425915,867.425915,869.92817,0,9,9,9,1,164,2,6,gloves      ,slipper     ,html/resources/sequences_IDs/B/06_gloves.jpg,html/resources/sequences_IDs/B/08_slipper.jpg,6,8,3,2,3,2,5,6,0,76,,,,,,,,,,,,,,,,,,,,
,,,,,76,2020-07-04_18h31.01.738,retriever_ti,2020.1.3,Win32,60,Chrome,1366,768,,,,,,,,,,,,,,,,,3,,,,,,,,,,,,,,,,,,,,,,,,,,,870.5319,165,left,0.610665,gloves      ,2,6,-1,0,0,870.5572,870.5572,873.05956,0,10,10,10,1,165,2,3,gloves      ,wolf          ,html/resources/sequences_IDs/B/06_gloves.jpg,html/resources/sequences_IDs/A/01_wolf.jpg,6,1,3,2,1,1,5,1,0,76,,,,,,,,,,,,,,,,,,,,
,,,,,76,2020-07-04_18h31.01.738,retriever_ti,2020.1.3,Win32,60,Chrome,1366,768,,,,,,,,,,,,,,,,,3,,,,,,,,,,,,,,,,,,,,,,,,,,,874.16292,166,right,1.07459,peacock       ,1,5,-1,0,0,874.214135,874.214135,876.71831,0,11,11,11,1,166,2,1,gloves      ,peacock       ,html/resources/sequences_IDs/B/06_gloves.jpg,html/resources/sequences_IDs/A/05_peacock.jpg,6,5,3,2,2,1,5,4,0,76,,,,,,,,,,,,,,,,,,,,
,,,,,76,2020-07-04_18h31.01.738,retriever_ti,2020.1.3,Win32,60,Chrome,1366,768,,,,,,,,,,,,,,,,,3,,,,,,,,,,,,,,,,,,,,,,,,,,,877.82165,167,left,0.68804,gloves      ,2,6,-5,0,3,877.87192,877.87192,880.37532,0,12,12,12,1,167,2,7,gloves      ,seaturtle     ,html/resources/sequences_IDs/B/06_gloves.jpg,html/resources/sequences_IDs/A/02_seaturtle.jpg,6,2,3,2,2,1,5,2,0,76,,,,,,,,,,,,,,,,,,,,
,,,,,76,2020-07-04_18h31.01.738,retriever_ti,2020.1.3,Win32,60,Chrome,1366,768,,,,,,,,,,,,,,,,,3,,,,,,,,,,,,,,,,,,,,,,,,,,,880.977675,168,left,0.64154,gloves      ,2,6,-6,0,3,881.002845,881.002845,883.50755,0,13,13,13,1,168,2,8,gloves      ,phone       ,html/resources/sequences_IDs/B/06_gloves.jpg,html/resources/sequences_IDs/B/09_phone.jpg,6,9,3,2,4,2,5,7,0,76,,,,,,,,,,,,,,,,,,,,
,,,,,76,2020-07-04_18h31.01.738,retriever_ti,2020.1.3,Win32,60,Chrome,1366,768,,,,,,,,,,,,,,,,,3,,,,,,,,,,,,,,,,,,,,,,,,,,,884.134855,169,left,1.15553,radio       ,4,10,-1,0,0,884.1609,884.1609,886.66384,0,14,14,14,1,169,4,5,radio       ,camel         ,html/resources/sequences_IDs/B/10_radio.jpg,html/resources/sequences_IDs/A/03_camel.jpg,10,3,4,2,1,1,8,3,0,76,,,,,,,,,,,,,,,,,,,,
,,,,,76,2020-07-04_18h31.01.738,retriever_ti,2020.1.3,Win32,60,Chrome,1366,768,,,,,,,,,,,,,,,,,3,,,,,,,,,,,,,,,,,,,,,,,,,,,887.766595,170,right,0.817485,camel         ,5,3,4,1,3,887.8166,887.8166,890.32082,0,15,15,15,1,170,1,5,peacock       ,camel         ,html/resources/sequences_IDs/A/05_peacock.jpg,html/resources/sequences_IDs/A/03_camel.jpg,5,3,2,1,1,1,4,3,0,76,,,,,,,,,,,,,,,,,,,,
,,,,,76,2020-07-04_18h31.01.738,retriever_ti,2020.1.3,Win32,60,Chrome,1366,768,,,,,,,,,,,,,,,,,3,,,,,,,,,,,,,,,,,,,,,,,,,,,890.923805,171,left,0.722275,camel         ,5,3,1,1,1,890.948475,890.948475,893.4522,0,16,16,16,1,171,5,4,camel         ,radio       ,html/resources/sequences_IDs/A/03_camel.jpg,html/resources/sequences_IDs/B/10_radio.jpg,3,10,1,1,4,2,3,8,0,76,,,,,,,,,,,,,,,,,,,,
,,,,,76,2020-07-04_18h31.01.738,retriever_ti,2020.1.3,Win32,60,Chrome,1366,768,,,,,,,,,,,,,,,,,3,,,,,,,,,,,,,,,,,,,,,,,,,,,894.55634,172,right,0.99498,radio       ,4,10,3,1,3,894.5808,894.5808,897.084075,0,17,17,17,1,172,1,4,peacock       ,radio       ,html/resources/sequences_IDs/A/05_peacock.jpg,html/resources/sequences_IDs/B/10_radio.jpg,5,10,2,1,4,2,4,8,0,76,,,,,,,,,,,,,,,,,,,,
,,,,,76,2020-07-04_18h31.01.738,retriever_ti,2020.1.3,Win32,60,Chrome,1366,768,,,,,,,,,,,,,,,,,3,,,,,,,,,,,,,,,,,,,,,,,,,,,897.68709,173,right,0.92262,camel         ,5,3,-1,0,0,897.73831,897.73831,900.24074,0,18,18,18,1,173,6,5,slipper     ,camel         ,html/resources/sequences_IDs/B/08_slipper.jpg,html/resources/sequences_IDs/A/03_camel.jpg,8,3,3,2,1,1,6,3,0,76,,,,,,,,,,,,,,,,,,,,
,,,,,76,2020-07-04_18h31.01.738,retriever_ti,2020.1.3,Win32,60,Chrome,1366,768,,,,,,,,,,,,,,,,,3,,,,,,,,,,,,,,,,,,,,,,,,,,,901.34388,174,left,0.53496,slipper     ,6,8,5,1,3,901.39532,901.39532,903.899395,0,19,19,19,1,174,6,1,slipper     ,peacock       ,html/resources/sequences_IDs/B/08_slipper.jpg,html/resources/sequences_IDs/A/05_peacock.jpg,8,5,3,2,2,1,6,4,0,76,,,,,,,,,,,,,,,,,,,,
,,,,,76,2020-07-04_18h31.01.738,retriever_ti,2020.1.3,Win32,60,Chrome,1366,768,,,,,,,,,,,,,,,,,3,,,,,,,,,,,,,,,,,,,,,,,,,,,904.501675,175,right,1.29532,seaturtle     ,7,2,6,1,3,904.528275,904.528275,907.0297,0,20,20,20,1,175,1,7,peacock       ,seaturtle     ,html/resources/sequences_IDs/A/05_peacock.jpg,html/resources/sequences_IDs/A/02_seaturtle.jpg,5,2,2,1,2,1,4,2,0,76,,,,,,,,,,,,,,,,,,,,
,,,,,76,2020-07-04_18h31.01.738,retriever_ti,2020.1.3,Win32,60,Chrome,1366,768,,,,,,,,,,,,,,,,,3,,,,,,,,,,,,,,,,,,,,,,,,,,,907.6323,176,right,1.23584,slipper     ,6,8,2,1,3,907.6824,907.6824,910.18612,0,21,21,21,1,176,4,6,radio       ,slipper     ,html/resources/sequences_IDs/B/10_radio.jpg,html/resources/sequences_IDs/B/08_slipper.jpg,10,8,4,2,3,2,8,6,0,76,,,,,,,,,,,,,,,,,,,,
,,,,,76,2020-07-04_18h31.01.738,retriever_ti,2020.1.3,Win32,60,Chrome,1366,768,,,,,,,,,,,,,,,,,3,,,,,,,,,,,,,,,,,,,,,,,,,,,910.788715,177,left,0.87054,wolf          ,3,1,1,1,1,910.813785,910.813785,913.317495,0,22,22,22,1,177,3,2,wolf          ,gloves      ,html/resources/sequences_IDs/A/01_wolf.jpg,html/resources/sequences_IDs/B/06_gloves.jpg,1,6,1,1,3,2,1,5,0,76,,,,,,,,,,,,,,,,,,,,
,,,,,76,2020-07-04_18h31.01.738,retriever_ti,2020.1.3,Win32,60,Chrome,1366,768,,,,,,,,,,,,,,,,,3,,,,,,,,,,,,,,,,,,,,,,,,,,,914.420855,178,right,0.7581,gloves      ,2,6,1,1,0,914.47104,914.47104,916.97505,0,23,23,23,1,178,1,2,peacock       ,gloves      ,html/resources/sequences_IDs/A/05_peacock.jpg,html/resources/sequences_IDs/B/06_gloves.jpg,5,6,2,1,3,2,4,5,1,76,,,,,,,,,,,,,,,,,,,,
,,,,,76,2020-07-04_18h31.01.738,retriever_ti,2020.1.3,Win32,60,Chrome,1366,768,,,,,,,,,,,,,,,,,3,,,,,,,,,,,,,,,,,,,,,,,,,,,918.0773,179,left,1.00734,gloves      ,2,6,-3,0,3,918.128635,918.128635,920.63206,0,24,24,24,1,179,2,5,gloves      ,camel         ,html/resources/sequences_IDs/B/06_gloves.jpg,html/resources/sequences_IDs/A/03_camel.jpg,6,3,3,2,1,1,5,3,0,76,,,,,,,,,,,,,,,,,,,,
,,,,,76,2020-07-04_18h31.01.738,retriever_ti,2020.1.3,Win32,60,Chrome,1366,768,,,,,,,,,,,,,,,,,3,,,,,,,,,,,,,,,,,,,,,,,,,,,921.234955,180,left,1.17215,phone       ,8,9,1,1,1,921.26134,921.26134,923.76401,0,25,25,25,1,180,8,7,phone       ,seaturtle     ,html/resources/sequences_IDs/B/09_phone.jpg,html/resources/sequences_IDs/A/02_seaturtle.jpg,9,2,4,2,2,1,7,2,0,76,,,,,,,,,,,,,,,,,,,,
,,,,,76,2020-07-04_18h31.01.738,retriever_ti,2020.1.3,Win32,60,Chrome,1366,768,,,,,,,,,,,,,,,,,3,,,,,,,,,,,,,,,,,,,,,,,,,,,924.86753,181,right,0.8848,gloves      ,2,6,1,1,1,924.918925,924.918925,927.421395,0,26,26,26,1,181,1,2,peacock       ,gloves      ,html/resources/sequences_IDs/A/05_peacock.jpg,html/resources/sequences_IDs/B/06_gloves.jpg,5,6,2,1,3,2,4,5,0,76,,,,,,,,,,,,,,,,,,,,
,,,,,76,2020-07-04_18h31.01.738,retriever_ti,2020.1.3,Win32,60,Chrome,1366,768,,,,,,,,,,,,,,,,,3,,,,,,,,,,,,,,,,,,,,,,,,,,,928.524685,182,right,0.949655,seaturtle     ,7,2,2,1,3,928.57497,928.57497,931.078565,0,27,27,27,1,182,5,7,camel         ,seaturtle     ,html/resources/sequences_IDs/A/03_camel.jpg,html/resources/sequences_IDs/A/02_seaturtle.jpg,3,2,1,1,2,1,3,2,0,76,,,,,,,,,,,,,,,,,,,,
,,,,,76,2020-07-04_18h31.01.738,retriever_ti,2020.1.3,Win32,60,Chrome,1366,768,,,,,,,,,,,,,,,,,3,,,,,,,,,,,,,,,,,,,,,,,,,,,931.68086,183,right,1.03487,wolf          ,3,1,1,1,1,931.70836,931.70836,934.20881,0,28,28,28,1,183,2,3,gloves      ,wolf          ,html/resources/sequences_IDs/B/06_gloves.jpg,html/resources/sequences_IDs/A/01_wolf.jpg,6,1,3,2,1,1,5,1,0,76,,,,,,,,,,,,,,,,,,,,
,,,,,76,2020-07-04_18h31.01.738,retriever_ti,2020.1.3,Win32,60,Chrome,1366,768,,,,,,,,,,,,,,,,,3,,,,,,,,,,,,,,,,,,,,,,,,,,,935.31335,184,left,1.06144,slipper     ,6,8,-2,0,3,935.364345,935.364345,937.86785,0,29,29,29,1,184,6,8,slipper     ,phone       ,html/resources/sequences_IDs/B/08_slipper.jpg,html/resources/sequences_IDs/B/09_phone.jpg,8,9,3,2,4,2,6,7,0,76,,,,,,,,,,,,,,,,,,,,
,,,,,76,2020-07-04_18h31.01.738,retriever_ti,2020.1.3,Win32,60,Chrome,1366,768,,,,,,,,,,,,,,,,,3,,,,,,,,,,,,,,,,,,,,,,,,,,,938.469705,185,left,0.54322,slipper     ,6,8,-1,0,0,938.521505,938.521505,941.023865,0,30,30,30,1,185,6,7,slipper     ,seaturtle     ,html/resources/sequences_IDs/B/08_slipper.jpg,html/resources/sequences_IDs/A/02_seaturtle.jpg,8,2,3,2,2,1,6,2,0,76,,,,,,,,,,,,,,,,,,,,
,,,,,76,2020-07-04_18h31.01.738,retriever_ti,2020.1.3,Win32,60,Chrome,1366,768,,,,,,,,,,,,,,,,,3,,,,,,,,,,,,,,,,,,,,,,,,,,,942.126745,186,right,1.021705,slipper     ,6,8,1,1,0,942.17936,942.17936,944.68202,0,31,31,31,1,186,5,6,camel         ,slipper     ,html/resources/sequences_IDs/A/03_camel.jpg,html/resources/sequences_IDs/B/08_slipper.jpg,3,8,1,1,3,2,3,6,1,76,,,,,,,,,,,,,,,,,,,,
,,,,,76,2020-07-04_18h31.01.738,retriever_ti,2020.1.3,Win32,60,Chrome,1366,768,,,,,,,,,,,,,,,,,3,,,,,,,,,,,,,,,,,,,,,,,,,,,945.785935,187,left,0.67125,seaturtle     ,7,2,5,1,3,945.83526,945.83526,948.33883,0,32,32,32,1,187,7,2,seaturtle     ,gloves      ,html/resources/sequences_IDs/A/02_seaturtle.jpg,html/resources/sequences_IDs/B/06_gloves.jpg,2,6,2,1,3,2,2,5,0,76,,,,,,,,,,,,,,,,,,,,
,,,,,76,2020-07-04_18h31.01.738,retriever_ti,2020.1.3,Win32,60,Chrome,1366,768,,,,,,,,,,,,,,,,,3,,,,,,,,,,,,,,,,,,,,,,,,,,,948.941935,188,left,0.522285,seaturtle     ,7,2,-1,0,1,948.991815,948.991815,951.495765,0,33,33,33,1,188,7,8,seaturtle     ,phone       ,html/resources/sequences_IDs/A/02_seaturtle.jpg,html/resources/sequences_IDs/B/09_phone.jpg,2,9,2,1,4,2,2,7,1,76,,,,,,,,,,,,,,,,,,,,
,,,,,76,2020-07-04_18h31.01.738,retriever_ti,2020.1.3,Win32,60,Chrome,1366,768,,,,,,,,,,,,,,,,,3,,,,,,,,,,,,,,,,,,,,,,,,,,,952.598875,189,left,1.119965,wolf          ,3,1,-3,0,3,952.625175,952.625175,955.12801,0,34,34,34,1,189,3,6,wolf          ,slipper     ,html/resources/sequences_IDs/A/01_wolf.jpg,html/resources/sequences_IDs/B/08_slipper.jpg,1,8,1,1,3,2,1,6,0,76,,,,,,,,,,,,,,,,,,,,
,,,,,76,2020-07-04_18h31.01.738,retriever_ti,2020.1.3,Win32,60,Chrome,1366,768,,,,,,,,,,,,,,,,,3,,,,,,,,,,,,,,,,,,,,,,,,,,,955.72982,190,left,0.50916,wolf          ,3,1,-5,0,3,955.781185,955.781185,958.28273,0,35,35,35,1,190,3,8,wolf          ,phone       ,html/resources/sequences_IDs/A/01_wolf.jpg,html/resources/sequences_IDs/B/09_phone.jpg,1,9,1,1,4,2,1,7,0,76,,,,,,,,,,,,,,,,,,,,
,,,,,76,2020-07-04_18h31.01.738,retriever_ti,2020.1.3,Win32,60,Chrome,1366,768,,,,,,,,,,,,,,,,,3,,,,,,,,,,,,,,,,,,,,,,,,,,,958.886865,191,right,0.605415,wolf          ,3,1,2,1,3,958.91267,958.91267,961.41551,0,36,36,36,1,191,1,3,peacock       ,wolf          ,html/resources/sequences_IDs/A/05_peacock.jpg,html/resources/sequences_IDs/A/01_wolf.jpg,5,1,2,1,1,1,4,1,0,76,,,,,,,,,,,,,,,,,,,,
,,,,,76,2020-07-04_18h31.01.738,retriever_ti,2020.1.3,Win32,60,Chrome,1366,768,,,,,,,,,,,,,,,,,3,,,,,,,,,,,,,,,,,,,,,,,,,,,962.01753,192,left,1.00988,camel         ,5,3,-1,0,0,962.070175,962.070175,964.57218,0,37,37,37,1,192,5,6,camel         ,slipper     ,html/resources/sequences_IDs/A/03_camel.jpg,html/resources/sequences_IDs/B/08_slipper.jpg,3,8,1,1,3,2,3,6,0,76,,,,,,,,,,,,,,,,,,,,
,,,,,76,2020-07-04_18h31.01.738,retriever_ti,2020.1.3,Win32,60,Chrome,1366,768,,,,,,,,,,,,,,,,,3,,,,,,,,,,,,,,,,,,,,,,,,,,,965.67651,193,right,0.59909,slipper     ,6,8,-2,0,3,965.72727,965.72727,968.229385,0,38,38,38,1,193,8,6,phone       ,slipper     ,html/resources/sequences_IDs/B/09_phone.jpg,html/resources/sequences_IDs/B/08_slipper.jpg,9,8,4,2,3,2,7,6,0,76,,,,,,,,,,,,,,,,,,,,
,,,,,76,2020-07-04_18h31.01.738,retriever_ti,2020.1.3,Win32,60,Chrome,1366,768,,,,,,,,,,,,,,,,,3,,,,,,,,,,,,,,,,,,,,,,,,,,,968.832365,194,right,1.312895,phone       ,8,9,1,1,1,968.8568,968.8568,971.361455,0,39,39,39,1,194,7,8,seaturtle     ,phone       ,html/resources/sequences_IDs/A/02_seaturtle.jpg,html/resources/sequences_IDs/B/09_phone.jpg,2,9,2,1,4,2,2,7,0,76,,,,,,,,,,,,,,,,,,,,
,,,,,76,2020-07-04_18h31.01.738,retriever_ti,2020.1.3,Win32,60,Chrome,1366,768,,,,,,,,,,,,,,,,,3,,,,,,,,,,,,,,,,,,,,,,,,,,,972.463895,195,left,1.11212,slipper     ,6,8,1,1,1,972.48985,972.48985,974.993505,0,40,40,40,1,195,6,5,slipper     ,camel         ,html/resources/sequences_IDs/B/08_slipper.jpg,html/resources/sequences_IDs/A/03_camel.jpg,8,3,3,2,1,1,6,3,0,76,,,,,,,,,,,,,,,,,,,,
,,,,,76,2020-07-04_18h31.01.738,retriever_ti,2020.1.3,Win32,60,Chrome,1366,768,,,,,,,,,,,,,,,,,3,,,,,,,,,,,,,,,,,,,,,,,,,,,976.095555,196,left,0.88603,phone       ,8,9,7,1,3,976.14755,976.14755,978.65177,0,41,41,41,1,196,8,1,phone       ,peacock       ,html/resources/sequences_IDs/B/09_phone.jpg,html/resources/sequences_IDs/A/05_peacock.jpg,9,5,4,2,2,1,7,4,0,76,,,,,,,,,,,,,,,,,,,,
,,,,,76,2020-07-04_18h31.01.738,retriever_ti,2020.1.3,Win32,60,Chrome,1366,768,,,,,,,,,,,,,,,,,3,,,,,,,,,,,,,,,,,,,,,,,,,,,979.253785,197,right,0.64477,phone       ,8,9,4,1,3,979.303155,979.303155,981.807655,0,42,42,42,1,197,4,8,radio       ,phone       ,html/resources/sequences_IDs/B/10_radio.jpg,html/resources/sequences_IDs/B/09_phone.jpg,10,9,4,2,4,2,8,7,0,76,,,,,,,,,,,,,,,,,,,,
,,,,,76,2020-07-04_18h31.01.738,retriever_ti,2020.1.3,Win32,60,Chrome,1366,768,,,,,,,,,,,,,,,,,3,,,,,,,,,,,,,,,,,,,,,,,,,,,982.4348,198,right,1.042795,gloves      ,2,6,1,1,1,982.48495,982.48495,984.98832,0,43,43,43,1,198,1,2,peacock       ,gloves      ,html/resources/sequences_IDs/A/05_peacock.jpg,html/resources/sequences_IDs/B/06_gloves.jpg,5,6,2,1,3,2,4,5,0,76,,,,,,,,,,,,,,,,,,,,
,,,,,76,2020-07-04_18h31.01.738,retriever_ti,2020.1.3,Win32,60,Chrome,1366,768,,,,,,,,,,,,,,,,,3,,,,,,,,,,,,,,,,,,,,,,,,,,,986.090985,199,left,0.642315,wolf          ,3,1,-1,0,0,986.117615,986.117615,988.62099,0,44,44,44,1,199,3,4,wolf          ,radio       ,html/resources/sequences_IDs/A/01_wolf.jpg,html/resources/sequences_IDs/B/10_radio.jpg,1,10,1,1,4,2,1,8,0,76,,,,,,,,,,,,,,,,,,,,
,,,,,76,2020-07-04_18h31.01.738,retriever_ti,2020.1.3,Win32,60,Chrome,1366,768,,,,,,,,,,,,,,,,,3,,,,,,,,,,,,,,,,,,,,,,,,,,,989.72478,200,left,0.88208,wolf          ,3,1,-1,0,0,989.74952,989.74952,992.25333,0,45,45,45,1,200,3,4,wolf          ,radio       ,html/resources/sequences_IDs/A/01_wolf.jpg,html/resources/sequences_IDs/B/10_radio.jpg,1,10,1,1,4,2,1,8,0,76,,,,,,,,,,,,,,,,,,,,
,,,,,76,2020-07-04_18h31.01.738,retriever_ti,2020.1.3,Win32,60,Chrome,1366,768,,,,,,,,,,,,,,,,,3,,,,,,,,,,,,,,,,,,,,,,,,,,,993.35688,201,right,0.80755,wolf          ,3,1,-1,0,0,993.3819,993.3819,995.885485,0,46,46,46,1,201,4,3,radio       ,wolf          ,html/resources/sequences_IDs/B/10_radio.jpg,html/resources/sequences_IDs/A/01_wolf.jpg,10,1,4,2,1,1,8,1,0,76,,,,,,,,,,,,,,,,,,,,
,,,,,76,2020-07-04_18h31.01.738,retriever_ti,2020.1.3,Win32,60,Chrome,1366,768,,,,,,,,,,,,,,,,,3,,,,,,,,,,,,,,,,,,,,,,,,,,,996.98969,202,right,0.74733,radio       ,4,10,1,1,0,997.04064,997.04064,999.542655,0,47,47,47,1,202,3,4,wolf          ,radio       ,html/resources/sequences_IDs/A/01_wolf.jpg,html/resources/sequences_IDs/B/10_radio.jpg,1,10,1,1,4,2,1,8,1,76,,,,,,,,,,,,,,,,,,,,
,,,,,76,2020-07-04_18h31.01.738,retriever_ti,2020.1.3,Win32,60,Chrome,1366,768,,,,,,,,,,,,,,,,,3,,,,,,,,,,,,,,,,,,,,,,,,,,,1000.64693,203,left,0.956435,slipper     ,6,8,3,1,3,1000.673075,1000.673075,1003.175515,0,48,48,48,1,203,6,3,slipper     ,wolf          ,html/resources/sequences_IDs/B/08_slipper.jpg,html/resources/sequences_IDs/A/01_wolf.jpg,8,1,3,2,1,1,6,1,0,76,,,,,,,,,,,,,,,,,,,,
,,,,,76,2020-07-04_18h31.01.738,retriever_ti,2020.1.3,Win32,60,Chrome,1366,768,,,,,,,,,,,,,,,,,3,,,,,,,,,,,,,,,,,,,,,,,,,,,1003.777105,204,left,0.638,wolf          ,3,1,2,1,3,1003.80328,1003.80328,1006.306755,0,49,49,49,1,204,3,1,wolf          ,peacock       ,html/resources/sequences_IDs/A/01_wolf.jpg,html/resources/sequences_IDs/A/05_peacock.jpg,1,5,1,1,2,1,1,4,0,76,,,,,,,,,,,,,,,,,,,,
,,,,,76,2020-07-04_18h31.01.738,retriever_ti,2020.1.3,Win32,60,Chrome,1366,768,,,,,,,,,,,,,,,,,3,,,,,,,,,,,,,,,,,,,,,,,,,,,1006.909735,205,left,1.22338,seaturtle     ,7,2,2,1,3,1006.935695,1006.935695,1009.43722,0,50,50,50,1,205,7,5,seaturtle     ,camel         ,html/resources/sequences_IDs/A/02_seaturtle.jpg,html/resources/sequences_IDs/A/03_camel.jpg,2,3,2,1,1,1,2,3,0,76,,,,,,,,,,,,,,,,,,,,
,,,,,76,2020-07-04_18h31.01.738,retriever_ti,2020.1.3,Win32,60,Chrome,1366,768,,,,,,,,,,,,,,,,,3,,,,,,,,,,,,,,,,,,,,,,,,,,,1010.041035,206,left,0.563345,wolf          ,3,1,-4,0,3,1010.091035,1010.091035,1012.59473,0,51,51,51,1,206,3,7,wolf          ,seaturtle     ,html/resources/sequences_IDs/A/01_wolf.jpg,html/resources/sequences_IDs/A/02_seaturtle.jpg,1,2,1,1,2,1,1,2,0,76,,,,,,,,,,,,,,,,,,,,
,,,,,76,2020-07-04_18h31.01.738,retriever_ti,2020.1.3,Win32,60,Chrome,1366,768,,,,,,,,,,,,,,,,,3,,,,,,,,,,,,,,,,,,,,,,,,,,,1013.197405,207,left,0.74661,slipper     ,6,8,-1,0,0,1013.22395,1013.22395,1015.72628,0,52,52,52,1,207,6,7,slipper     ,seaturtle     ,html/resources/sequences_IDs/B/08_slipper.jpg,html/resources/sequences_IDs/A/02_seaturtle.jpg,8,2,3,2,2,1,6,2,0,76,,,,,,,,,,,,,,,,,,,,
,,,,,76,2020-07-04_18h31.01.738,retriever_ti,2020.1.3,Win32,60,Chrome,1366,768,,,,,,,,,,,,,,,,,3,,,,,,,,,,,,,,,,,,,,,,,,,,,1016.829955,208,left,0.705595,seaturtle     ,7,2,3,1,3,1016.87988,1016.87988,1019.383665,0,53,53,53,1,208,7,4,seaturtle     ,radio       ,html/resources/sequences_IDs/A/02_seaturtle.jpg,html/resources/sequences_IDs/B/10_radio.jpg,2,10,2,1,4,2,2,8,0,76,,,,,,,,,,,,,,,,,,,,
,,,,,76,2020-07-04_18h31.01.738,retriever_ti,2020.1.3,Win32,60,Chrome,1366,768,,,,,,,,,,,,,,,,,3,,,,,,,,,,,,,,,,,,,,,,,,,,,1020.00999,209,left,0.671295,radio       ,4,10,-3,0,3,1020.06058,1020.06058,1022.565,0,54,54,54,1,209,4,7,radio       ,seaturtle     ,html/resources/sequences_IDs/B/10_radio.jpg,html/resources/sequences_IDs/A/02_seaturtle.jpg,10,2,4,2,2,1,8,2,0,76,,,,,,,,,,,,,,,,,,,,
,,,,,76,2020-07-04_18h31.01.738,retriever_ti,2020.1.3,Win32,60,Chrome,1366,768,,,,,,,,,,,,,,,,,3,,,,,,,,,,,,,,,,,,,,,,,,,,,1023.167885,210,left,0.590625,seaturtle     ,7,2,-1,0,0,1023.21854,1023.21854,1025.721265,0,55,55,55,1,210,7,8,seaturtle     ,phone       ,html/resources/sequences_IDs/A/02_seaturtle.jpg,html/resources/sequences_IDs/B/09_phone.jpg,2,9,2,1,4,2,2,7,0,76,,,,,,,,,,,,,,,,,,,,
,,,,,76,2020-07-04_18h31.01.738,retriever_ti,2020.1.3,Win32,60,Chrome,1366,768,,,,,,,,,,,,,,,,,3,,,,,,,,,,,,,,,,,,,,,,,,,,,1026.82588,211,left,0.489945,wolf          ,3,1,1,1,0,1026.876595,1026.876595,1029.379405,0,56,56,56,1,211,3,2,wolf          ,gloves      ,html/resources/sequences_IDs/A/01_wolf.jpg,html/resources/sequences_IDs/B/06_gloves.jpg,1,6,1,1,3,2,1,5,1,76,,,,,,,,,,,,,,,,,,,,
,,,,,76,2020-07-04_18h31.01.738,retriever_ti,2020.1.3,Win32,60,Chrome,1366,768,,,,,,,,,,,,,,,,,3,,,,,,,,,,,,,,,,,,,,,,,,,,,1030.481105,212,left,0.673645,phone       ,8,9,1,1,1,1030.50703,1030.50703,1033.01199,0,57,57,57,1,212,8,7,phone       ,seaturtle     ,html/resources/sequences_IDs/B/09_phone.jpg,html/resources/sequences_IDs/A/02_seaturtle.jpg,9,2,4,2,2,1,7,2,0,76,,,,,,,,,,,,,,,,,,,,
,,,,,76,2020-07-04_18h31.01.738,retriever_ti,2020.1.3,Win32,60,Chrome,1366,768,,,,,,,,,,,,,,,,,3,,,,,,,,,,,,,,,,,,,,,,,,,,,1034.11342,213,left,0.75858,camel         ,5,3,4,1,3,1034.16439,1034.16439,1036.668465,0,58,58,58,1,213,5,1,camel         ,peacock       ,html/resources/sequences_IDs/A/03_camel.jpg,html/resources/sequences_IDs/A/05_peacock.jpg,3,5,1,1,2,1,3,4,0,76,,,,,,,,,,,,,,,,,,,,
,,,,,76,2020-07-04_18h31.01.738,retriever_ti,2020.1.3,Win32,60,Chrome,1366,768,,,,,,,,,,,,,,,,,3,,,,,,,,,,,,,,,,,,,,,,,,,,,1037.271175,214,left,0.757525,camel         ,5,3,-3,0,3,1037.321085,1037.321085,1039.825055,0,59,59,59,1,214,5,8,camel         ,phone       ,html/resources/sequences_IDs/A/03_camel.jpg,html/resources/sequences_IDs/B/09_phone.jpg,3,9,1,1,4,2,3,7,0,76,,,,,,,,,,,,,,,,,,,,
,,,,,76,2020-07-04_18h31.01.738,retriever_ti,2020.1.3,Win32,60,Chrome,1366,768,,,,,,,,,,,,,,,,,3,,,,,,,,,,,,,,,,,,,,,,,,,,,1040.45269,215,left,0.65742,radio       ,4,10,2,1,3,1040.503455,1040.503455,1043.006705,0,60,60,60,1,215,4,2,radio       ,gloves      ,html/resources/sequences_IDs/B/10_radio.jpg,html/resources/sequences_IDs/B/06_gloves.jpg,10,6,4,2,3,2,8,5,0,76,,,,,,,,,,,,,,,,,,,,
,,,,,76,2020-07-04_18h31.01.738,retriever_ti,2020.1.3,Win32,60,Chrome,1366,768,,,,,,,,,,,,,,,,,3,,,,,,,,,,,,,,,,,,,,,,,,,,,1043.610275,216,left,0.580945,slipper     ,6,8,4,1,3,1043.66087,1043.66087,1046.162145,0,61,61,61,1,216,6,2,slipper     ,gloves      ,html/resources/sequences_IDs/B/08_slipper.jpg,html/resources/sequences_IDs/B/06_gloves.jpg,8,6,3,2,3,2,6,5,0,76,,,,,,,,,,,,,,,,,,,,
,,,,,76,2020-07-04_18h31.01.738,retriever_ti,2020.1.3,Win32,60,Chrome,1366,768,,,,,,,,,,,,,,,,,3,,,,,,,,,,,,,,,,,,,,,,,,,,,1046.765375,217,left,0.63196,phone       ,8,9,5,1,3,1046.79006,1046.79006,1049.294505,0,62,62,62,1,217,8,3,phone       ,wolf          ,html/resources/sequences_IDs/B/09_phone.jpg,html/resources/sequences_IDs/A/01_wolf.jpg,9,1,4,2,1,1,7,1,0,76,,,,,,,,,,,,,,,,,,,,
,,,,,76,2020-07-04_18h31.01.738,retriever_ti,2020.1.3,Win32,60,Chrome,1366,768,,,,,,,,,,,,,,,,,3,,,,,,,,,,,,,,,,,,,,,,,,,,,1049.8969,218,left,0.59341,seaturtle     ,7,2,1,1,1,1049.923355,1049.923355,1052.425885,0,63,63,63,1,218,7,6,seaturtle     ,slipper     ,html/resources/sequences_IDs/A/02_seaturtle.jpg,html/resources/sequences_IDs/B/08_slipper.jpg,2,8,2,1,3,2,2,6,0,76,,,,,,,,,,,,,,,,,,,,
,,,,,76,2020-07-04_18h31.01.738,retriever_ti,2020.1.3,Win32,60,Chrome,1366,768,,,,,,,,,,,,,,,,,3,,,,,,,,,,,,,,,,,,,,,,,,,,,1053.530465,219,left,0.792375,radio       ,4,10,3,1,3,1053.55633,1053.55633,1056.058215,0,64,64,64,1,219,4,1,radio       ,peacock       ,html/resources/sequences_IDs/B/10_radio.jpg,html/resources/sequences_IDs/A/05_peacock.jpg,10,5,4,2,2,1,8,4,0,76,,,,,,,,,,,,,,,,,,,,
,,,,,76,2020-07-04_18h31.01.738,retriever_ti,2020.1.3,Win32,60,Chrome,1366,768,,,,,,,,,,,,,,,,,3,,,,,,,,,,,,,,,,,,,,,,,,,,,1056.66034,220,left,0.707155,gloves      ,2,6,1,1,1,1056.686145,1056.686145,1059.18968,0,65,65,65,1,220,2,1,gloves      ,peacock       ,html/resources/sequences_IDs/B/06_gloves.jpg,html/resources/sequences_IDs/A/05_peacock.jpg,6,5,3,2,2,1,5,4,0,76,,,,,,,,,,,,,,,,,,,,
,,,,,76,2020-07-04_18h31.01.738,retriever_ti,2020.1.3,Win32,60,Chrome,1366,768,,,,,,,,,,,,,,,,,3,,,,,,,,,,,,,,,,,,,,,,,,,,,1060.29207,221,left,0.706755,phone       ,8,9,3,1,3,1060.344595,1060.344595,1062.847355,0,66,66,66,1,221,8,5,phone       ,camel         ,html/resources/sequences_IDs/B/09_phone.jpg,html/resources/sequences_IDs/A/03_camel.jpg,9,3,4,2,1,1,7,3,0,76,,,,,,,,,,,,,,,,,,,,
,,,,,76,2020-07-04_18h31.01.738,retriever_ti,2020.1.3,Win32,60,Chrome,1366,768,,,,,,,,,,,,,,,,,3,,,,,,,,,,,,,,,,,,,,,,,,,,,1063.449615,222,left,0.644075,seaturtle     ,7,2,4,1,3,1063.474995,1063.474995,1065.978175,0,67,67,67,1,222,7,3,seaturtle     ,wolf          ,html/resources/sequences_IDs/A/02_seaturtle.jpg,html/resources/sequences_IDs/A/01_wolf.jpg,2,1,2,1,1,1,2,1,0,76,,,,,,,,,,,,,,,,,,,,
,,,,,76,2020-07-04_18h31.01.738,retriever_ti,2020.1.3,Win32,60,Chrome,1366,768,,,,,,,,,,,,,,,,,3,,,,,,,,,,,,,,,,,,,,,,,,,,,1066.5809,223,left,0.643405,camel         ,5,3,1,1,0,1066.606745,1066.606745,1069.10975,0,68,68,68,1,223,5,4,camel         ,radio       ,html/resources/sequences_IDs/A/03_camel.jpg,html/resources/sequences_IDs/B/10_radio.jpg,3,10,1,1,4,2,3,8,1,76,,,,,,,,,,,,,,,,,,,,
,,,,,76,2020-07-04_18h31.01.738,retriever_ti,2020.1.3,Win32,60,Chrome,1366,768,,,,,,,,,,,,,,,,,3,,,,,,,,,,,,,,,,,,,,,,,,,,,1070.21358,224,left,0.783255,camel         ,5,3,-1,0,0,1070.26551,1070.26551,1072.76685,0,69,69,69,1,224,5,6,camel         ,slipper     ,html/resources/sequences_IDs/A/03_camel.jpg,html/resources/sequences_IDs/B/08_slipper.jpg,3,8,1,1,3,2,3,6,0,76,,,,,,,,,,,,,,,,,,,,
