instructionsLoop.thisRepN,instructionsLoop.thisTrialN,instructionsLoop.thisN,instructionsLoop.thisIndex,instructionsLoop.ran,participant,date,expName,psychopyVersion,OS,frameRate,browser,xResolution,yResolution,fix_onset,tprac,practiceKey.keys,practiceKey.rt,pracitem_chosen_name,acc_practice,P1_onsetPrac,P2_onsetPrac,onsetFeedbPrac,practiceTrials.thisRepN,practiceTrials.thisTrialN,practiceTrials.thisN,practiceTrials.thisIndex,practiceTrials.ran,P1,P2,Block,LocItem1,LocItem2,NameItem1,NameItem2,key_respAC_prac.keys,key_respAC_prac.corr,key_respAC_prac.rt,AC_acc,Attentions.thisRepN,Attentions.thisTrialN,Attentions.thisN,Attentions.thisIndex,Attentions.ran,Stim,Loc1,Loc2,Loc3,Loc4,CorrAns,keyDisturbed.keys,keyDisturbed.rt,repPractice.thisRepN,repPractice.thisTrialN,repPractice.thisN,repPractice.thisIndex,repPractice.ran,fixcross_onsetMain,trialNumber,key_resp.keys,key_resp.rt,item_chosen_name,item_chosen_value,item_chosen_ID,diff_chosen_minus_reject,acc_real,acc_feedback,P1_onset,P2_onset,feedb_onset,trials.thisRepN,trials.thisTrialN,trials.thisN,trials.thisIndex,trials.ran,Trial,ValueP1,ValueP2,P1name,P2name,P1Loc,P2Loc,P1id,P2id,Micro_categoryP1,Macro_categoryP1,Micro_categoryP2,Macro_categoryP2,ID_sequenceP1,ID_sequenceP2,InverseFb,pNumber,repBlocks.thisRepN,repBlocks.thisTrialN,repBlocks.thisN,repBlocks.thisIndex,repBlocks.ran,key_respAC.keys,key_respAC.corr,key_respAC.rt,trials_AC.thisRepN,trials_AC.thisTrialN,trials_AC.thisN,trials_AC.thisIndex,trials_AC.ran,Bonus,BonusLoop.thisRepN,BonusLoop.thisTrialN,BonusLoop.thisN,BonusLoop.thisIndex,BonusLoop.ran,comments
0,0,0,0,1,78,2020-07-04_18h32.25.578,retriever_ti,2020.1.3,Win32,60,Chrome,1920,1080,,,,,,,,,,,,,,,,,,,,,,,,,,,,,,,,,,,,,,,,,,,,,,,,,,,,,,,,,,,,,,,,,,,,,,,,,,,,,,,,,,,,,,,,,,,,,,,,,,
1,0,1,0,1,78,2020-07-04_18h32.25.578,retriever_ti,2020.1.3,Win32,60,Chrome,1920,1080,,,,,,,,,,,,,,,,,,,,,,,,,,,,,,,,,,,,,,,,,,,,,,,,,,,,,,,,,,,,,,,,,,,,,,,,,,,,,,,,,,,,,,,,,,,,,,,,,,
2,0,2,0,1,78,2020-07-04_18h32.25.578,retriever_ti,2020.1.3,Win32,60,Chrome,1920,1080,,,,,,,,,,,,,,,,,,,,,,,,,,,,,,,,,,,,,,,,,,,,,,,,,,,,,,,,,,,,,,,,,,,,,,,,,,,,,,,,,,,,,,,,,,,,,,,,,,
3,0,3,0,1,78,2020-07-04_18h32.25.578,retriever_ti,2020.1.3,Win32,60,Chrome,1920,1080,,,,,,,,,,,,,,,,,,,,,,,,,,,,,,,,,,,,,,,,,,,,,,,,,,,,,,,,,,,,,,,,,,,,,,,,,,,,,,,,,,,,,,,,,,,,,,,,,,
4,0,4,0,1,78,2020-07-04_18h32.25.578,retriever_ti,2020.1.3,Win32,60,Chrome,1920,1080,,,,,,,,,,,,,,,,,,,,,,,,,,,,,,,,,,,,,,,,,,,,,,,,,,,,,,,,,,,,,,,,,,,,,,,,,,,,,,,,,,,,,,,,,,,,,,,,,,
5,0,5,0,1,78,2020-07-04_18h32.25.578,retriever_ti,2020.1.3,Win32,60,Chrome,1920,1080,,,,,,,,,,,,,,,,,,,,,,,,,,,,,,,,,,,,,,,,,,,,,,,,,,,,,,,,,,,,,,,,,,,,,,,,,,,,,,,,,,,,,,,,,,,,,,,,,,
6,0,6,0,1,78,2020-07-04_18h32.25.578,retriever_ti,2020.1.3,Win32,60,Chrome,1920,1080,,,,,,,,,,,,,,,,,,,,,,,,,,,,,,,,,,,,,,,,,,,,,,,,,,,,,,,,,,,,,,,,,,,,,,,,,,,,,,,,,,,,,,,,,,,,,,,,,,
7,0,7,0,1,78,2020-07-04_18h32.25.578,retriever_ti,2020.1.3,Win32,60,Chrome,1920,1080,,,,,,,,,,,,,,,,,,,,,,,,,,,,,,,,,,,,,,,,,,,,,,,,,,,,,,,,,,,,,,,,,,,,,,,,,,,,,,,,,,,,,,,,,,,,,,,,,,
8,0,8,0,1,78,2020-07-04_18h32.25.578,retriever_ti,2020.1.3,Win32,60,Chrome,1920,1080,,,,,,,,,,,,,,,,,,,,,,,,,,,,,,,,,,,,,,,,,,,,,,,,,,,,,,,,,,,,,,,,,,,,,,,,,,,,,,,,,,,,,,,,,,,,,,,,,,
9,0,9,0,1,78,2020-07-04_18h32.25.578,retriever_ti,2020.1.3,Win32,60,Chrome,1920,1080,,,,,,,,,,,,,,,,,,,,,,,,,,,,,,,,,,,,,,,,,,,,,,,,,,,,,,,,,,,,,,,,,,,,,,,,,,,,,,,,,,,,,,,,,,,,,,,,,,
10,0,10,0,1,78,2020-07-04_18h32.25.578,retriever_ti,2020.1.3,Win32,60,Chrome,1920,1080,,,,,,,,,,,,,,,,,,,,,,,,,,,,,,,,,,,,,,,,,,,,,,,,,,,,,,,,,,,,,,,,,,,,,,,,,,,,,,,,,,,,,,,,,,,,,,,,,,
11,0,11,0,1,78,2020-07-04_18h32.25.578,retriever_ti,2020.1.3,Win32,60,Chrome,1920,1080,,,,,,,,,,,,,,,,,,,,,,,,,,,,,,,,,,,,,,,,,,,,,,,,,,,,,,,,,,,,,,,,,,,,,,,,,,,,,,,,,,,,,,,,,,,,,,,,,,
12,0,12,0,1,78,2020-07-04_18h32.25.578,retriever_ti,2020.1.3,Win32,60,Chrome,1920,1080,,,,,,,,,,,,,,,,,,,,,,,,,,,,,,,,,,,,,,,,,,,,,,,,,,,,,,,,,,,,,,,,,,,,,,,,,,,,,,,,,,,,,,,,,,,,,,,,,,
13,0,13,0,1,78,2020-07-04_18h32.25.578,retriever_ti,2020.1.3,Win32,60,Chrome,1920,1080,,,,,,,,,,,,,,,,,,,,,,,,,,,,,,,,,,,,,,,,,,,,,,,,,,,,,,,,,,,,,,,,,,,,,,,,,,,,,,,,,,,,,,,,,,,,,,,,,,
14,0,14,0,1,78,2020-07-04_18h32.25.578,retriever_ti,2020.1.3,Win32,60,Chrome,1920,1080,,,,,,,,,,,,,,,,,,,,,,,,,,,,,,,,,,,,,,,,,,,,,,,,,,,,,,,,,,,,,,,,,,,,,,,,,,,,,,,,,,,,,,,,,,,,,,,,,,
15,0,15,0,1,78,2020-07-04_18h32.25.578,retriever_ti,2020.1.3,Win32,60,Chrome,1920,1080,,,,,,,,,,,,,,,,,,,,,,,,,,,,,,,,,,,,,,,,,,,,,,,,,,,,,,,,,,,,,,,,,,,,,,,,,,,,,,,,,,,,,,,,,,,,,,,,,,
16,0,16,0,1,78,2020-07-04_18h32.25.578,retriever_ti,2020.1.3,Win32,60,Chrome,1920,1080,,,,,,,,,,,,,,,,,,,,,,,,,,,,,,,,,,,,,,,,,,,,,,,,,,,,,,,,,,,,,,,,,,,,,,,,,,,,,,,,,,,,,,,,,,,,,,,,,,
,,,,,78,2020-07-04_18h32.25.578,retriever_ti,2020.1.3,Win32,60,Chrome,1920,1080,165.937355,1,right,2.074505,canary,1,165.979955,165.979955,168.474595,0,0,0,0,1,2,5,1,html/resources/stimuli_practice_decision/04_beetle.jpg,html/resources/stimuli_practice_decision/02_canary.jpg,beetle,canary,,,,,,,,,,,,,,,,,,,,,,,,,,,,,,,,,,,,,,,,,,,,,,,,,,,,,,,,,,,,,,,,,,,,,,,,,,,,,
,,,,,78,2020-07-04_18h32.25.578,retriever_ti,2020.1.3,Win32,60,Chrome,1920,1080,169.012785,2,right,0.82,sock,0,169.05676,169.05676,171.554635,0,1,1,1,1,4,3,1,html/resources/stimuli_practice_decision/01_rabbit.jpg,html/resources/stimuli_practice_decision/07_sock.jpg,rabbit,sock,,,,,,,,,,,,,,,,,,,,,,,,,,,,,,,,,,,,,,,,,,,,,,,,,,,,,,,,,,,,,,,,,,,,,,,,,,,,,
,,,,,78,2020-07-04_18h32.25.578,retriever_ti,2020.1.3,Win32,60,Chrome,1920,1080,172.555195,3,left,1.886675,pullover,1,172.56901,172.56901,175.062405,0,2,2,2,1,6,2,1,html/resources/stimuli_practice_decision/06_pullover.jpg,html/resources/stimuli_practice_decision/04_beetle.jpg,pullover,beetle,,,,,,,,,,,,,,,,,,,,,,,,,,,,,,,,,,,,,,,,,,,,,,,,,,,,,,,,,,,,,,,,,,,,,,,,,,,,,
,,,,,78,2020-07-04_18h32.25.578,retriever_ti,2020.1.3,Win32,60,Chrome,1920,1080,175.569265,4,left,2.136685,glasses,1,175.587145,175.587145,178.089915,0,3,3,3,1,7,1,1,html/resources/stimuli_practice_decision/05_glasses.jpg,html/resources/stimuli_practice_decision/08_handmixer.jpg,glasses,handmixer,,,,,,,,,,,,,,,,,,,,,,,,,,,,,,,,,,,,,,,,,,,,,,,,,,,,,,,,,,,,,,,,,,,,,,,,,,,,,
,,,,,78,2020-07-04_18h32.25.578,retriever_ti,2020.1.3,Win32,60,Chrome,1920,1080,178.598855,5,left,1.605365,glasses,1,178.61085,178.61085,181.10407,0,4,4,4,1,7,6,1,html/resources/stimuli_practice_decision/05_glasses.jpg,html/resources/stimuli_practice_decision/06_pullover.jpg,glasses,pullover,,,,,,,,,,,,,,,,,,,,,,,,,,,,,,,,,,,,,,,,,,,,,,,,,,,,,,,,,,,,,,,,,,,,,,,,,,,,,
,,,,,78,2020-07-04_18h32.25.578,retriever_ti,2020.1.3,Win32,60,Chrome,1920,1080,182.10456,6,right,1.479345,glasses,1,182.118295,182.118295,184.61122,0,5,5,5,1,4,7,1,html/resources/stimuli_practice_decision/01_rabbit.jpg,html/resources/stimuli_practice_decision/05_glasses.jpg,rabbit,glasses,,,,,,,,,,,,,,,,,,,,,,,,,,,,,,,,,,,,,,,,,,,,,,,,,,,,,,,,,,,,,,,,,,,,,,,,,,,,,
,,,,,78,2020-07-04_18h32.25.578,retriever_ti,2020.1.3,Win32,60,Chrome,1920,1080,185.118345,7,left,2.04421,handmixer,0,185.1585,185.1585,187.652175,0,6,6,6,1,1,2,1,html/resources/stimuli_practice_decision/08_handmixer.jpg,html/resources/stimuli_practice_decision/04_beetle.jpg,handmixer,beetle,,,,,,,,,,,,,,,,,,,,,,,,,,,,,,,,,,,,,,,,,,,,,,,,,,,,,,,,,,,,,,,,,,,,,,,,,,,,,
,,,,,78,2020-07-04_18h32.25.578,retriever_ti,2020.1.3,Win32,60,Chrome,1920,1080,188.65256,8,NaN,NaN,No_response,2,188.66618,188.66618,191.159545,0,7,7,7,1,4,3,1,html/resources/stimuli_practice_decision/01_rabbit.jpg,html/resources/stimuli_practice_decision/07_sock.jpg,rabbit,sock,,,,,,,,,,,,,,,,,,,,,,,,,,,,,,,,,,,,,,,,,,,,,,,,,,,,,,,,,,,,,,,,,,,,,,,,,,,,,
,,,,,78,2020-07-04_18h32.25.578,retriever_ti,2020.1.3,Win32,60,Chrome,1920,1080,,,,,,,,,,,,,,,,,,,,,,left,1,3.69588,1,0,0,0,2,1,html/resources/sequences_IDs/square1.png,star ↑,triangle →,circle ↓,← square,left,,,,,,,,,,,,,,,,,,,,,,,,,,,,,,,,,,,,,,,,,,,,,,,,,,,,,,,,,,,,,,
,,,,,78,2020-07-04_18h32.25.578,retriever_ti,2020.1.3,Win32,60,Chrome,1920,1080,,,,,,,,,,,,,,,,,,,,,,up,1,1.470255,1,0,1,1,0,1,html/resources/sequences_IDs/circle.png,circle ↑,square →,triangle ↓,← star ,up,,,,,,,,,,,,,,,,,,,,,,,,,,,,,,,,,,,,,,,,,,,,,,,,,,,,,,,,,,,,,,
,,,,,78,2020-07-04_18h32.25.578,retriever_ti,2020.1.3,Win32,60,Chrome,1920,1080,,,,,,,,,,,,,,,,,,,,,,down,1,2.265675,1,0,2,2,1,1,html/resources/sequences_IDs/star.png,square ↑,circle →,star ↓,← triangle,down,,,,,,,,,,,,,,,,,,,,,,,,,,,,,,,,,,,,,,,,,,,,,,,,,,,,,,,,,,,,,,
,,,,,78,2020-07-04_18h32.25.578,retriever_ti,2020.1.3,Win32,60,Chrome,1920,1080,,,,,,,,,,,,,,,,,,,,,,down,1,3.670955,1,0,3,3,3,1,html/resources/sequences_IDs/triangle.png,star ↑,square →,triangle ↓,← circle,down,,,,,,,,,,,,,,,,,,,,,,,,,,,,,,,,,,,,,,,,,,,,,,,,,,,,,,,,,,,,,,
,,,,,78,2020-07-04_18h32.25.578,retriever_ti,2020.1.3,Win32,60,Chrome,1920,1080,,,,,,,,,,,,,,,,,,,,,,,,,,,,,,,,,,,,,0,13.548435,0,0,0,0,1,,,,,,,,,,,,,,,,,,,,,,,,,,,,,,,,,,,,,,,,,,,,,,,,,,,,,,,
,,,,,78,2020-07-04_18h32.25.578,retriever_ti,2020.1.3,Win32,60,Chrome,1920,1080,229.216595,9,NaN,NaN,No_response,2,229.236245,229.236245,231.729605,0,0,0,0,1,6,7,1,html/resources/stimuli_practice_decision/06_pullover.jpg,html/resources/stimuli_practice_decision/05_glasses.jpg,pullover,glasses,,,,,,,,,,,,,,,,,,,,,,,,,,,,,,,,,,,,,,,,,,,,,,,,,,,,,,,,,,,,,,,,,,,,,,,,,,,,,
,,,,,78,2020-07-04_18h32.25.578,retriever_ti,2020.1.3,Win32,60,Chrome,1920,1080,232.730625,10,left,0.934115,pullover,1,232.75761,232.75761,235.24994,0,1,1,1,1,6,2,1,html/resources/stimuli_practice_decision/06_pullover.jpg,html/resources/stimuli_practice_decision/04_beetle.jpg,pullover,beetle,,,,,,,,,,,,,,,,,,,,,,,,,,,,,,,,,,,,,,,,,,,,,,,,,,,,,,,,,,,,,,,,,,,,,,,,,,,,,
,,,,,78,2020-07-04_18h32.25.578,retriever_ti,2020.1.3,Win32,60,Chrome,1920,1080,235.766395,11,left,1.39538,canary,0,235.797575,235.797575,238.291265,0,2,2,2,1,5,6,1,html/resources/stimuli_practice_decision/02_canary.jpg,html/resources/stimuli_practice_decision/06_pullover.jpg,canary,pullover,,,,,,,,,,,,,,,,,,,,,,,,,,,,,,,,,,,,,,,,,,,,,,,,,,,,,,,,,,,,,,,,,,,,,,,,,,,,,
,,,,,78,2020-07-04_18h32.25.578,retriever_ti,2020.1.3,Win32,60,Chrome,1920,1080,239.30061,12,right,1.824715,glasses,0,239.331365,239.331365,241.825145,0,3,3,3,1,8,7,1,html/resources/stimuli_practice_decision/03_squirrel.jpg,html/resources/stimuli_practice_decision/05_glasses.jpg,squirrel,glasses,,,,,,,,,,,,,,,,,,,,,,,,,,,,,,,,,,,,,,,,,,,,,,,,,,,,,,,,,,,,,,,,,,,,,,,,,,,,,
,,,,,78,2020-07-04_18h32.25.578,retriever_ti,2020.1.3,Win32,60,Chrome,1920,1080,242.83519,13,left,1.482685,canary,1,242.840445,242.840445,245.33234,0,4,4,4,1,5,3,1,html/resources/stimuli_practice_decision/02_canary.jpg,html/resources/stimuli_practice_decision/07_sock.jpg,canary,sock,,,,,,,,,,,,,,,,,,,,,,,,,,,,,,,,,,,,,,,,,,,,,,,,,,,,,,,,,,,,,,,,,,,,,,,,,,,,,
,,,,,78,2020-07-04_18h32.25.578,retriever_ti,2020.1.3,Win32,60,Chrome,1920,1080,245.83993,14,right,1.479745,squirrel,1,245.85472,245.85472,248.346975,0,5,5,5,1,7,8,1,html/resources/stimuli_practice_decision/05_glasses.jpg,html/resources/stimuli_practice_decision/03_squirrel.jpg,glasses,squirrel,,,,,,,,,,,,,,,,,,,,,,,,,,,,,,,,,,,,,,,,,,,,,,,,,,,,,,,,,,,,,,,,,,,,,,,,,,,,,
,,,,,78,2020-07-04_18h32.25.578,retriever_ti,2020.1.3,Win32,60,Chrome,1920,1080,249.34731,15,left,1.49753,canary,1,249.387125,249.387125,251.88075,0,6,6,6,1,5,4,1,html/resources/stimuli_practice_decision/02_canary.jpg,html/resources/stimuli_practice_decision/01_rabbit.jpg,canary,rabbit,,,,,,,,,,,,,,,,,,,,,,,,,,,,,,,,,,,,,,,,,,,,,,,,,,,,,,,,,,,,,,,,,,,,,,,,,,,,,
,,,,,78,2020-07-04_18h32.25.578,retriever_ti,2020.1.3,Win32,60,Chrome,1920,1080,252.88157,16,left,1.19564,canary,1,252.92167,252.92167,255.41498,0,7,7,7,1,5,3,1,html/resources/stimuli_practice_decision/02_canary.jpg,html/resources/stimuli_practice_decision/07_sock.jpg,canary,sock,,,,,,,,,,,,,,,,,,,,,,,,,,,,,,,,,,,,,,,,,,,,,,,,,,,,,,,,,,,,,,,,,,,,,,,,,,,,,
,,,,,78,2020-07-04_18h32.25.578,retriever_ti,2020.1.3,Win32,60,Chrome,1920,1080,,,,,,,,,,,,,,,,,,,,,,up,1,1.259345,1,0,0,0,0,1,html/resources/sequences_IDs/circle.png,circle ↑,square →,triangle ↓,← star ,up,,,,,,,,,,,,,,,,,,,,,,,,,,,,,,,,,,,,,,,,,,,,,,,,,,,,,,,,,,,,,,
,,,,,78,2020-07-04_18h32.25.578,retriever_ti,2020.1.3,Win32,60,Chrome,1920,1080,,,,,,,,,,,,,,,,,,,,,,down,1,2.54929,1,0,1,1,3,1,html/resources/sequences_IDs/triangle.png,star ↑,square →,triangle ↓,← circle,down,,,,,,,,,,,,,,,,,,,,,,,,,,,,,,,,,,,,,,,,,,,,,,,,,,,,,,,,,,,,,,
,,,,,78,2020-07-04_18h32.25.578,retriever_ti,2020.1.3,Win32,60,Chrome,1920,1080,,,,,,,,,,,,,,,,,,,,,,down,1,1.99318,1,0,2,2,1,1,html/resources/sequences_IDs/star.png,square ↑,circle →,star ↓,← triangle,down,,,,,,,,,,,,,,,,,,,,,,,,,,,,,,,,,,,,,,,,,,,,,,,,,,,,,,,,,,,,,,
,,,,,78,2020-07-04_18h32.25.578,retriever_ti,2020.1.3,Win32,60,Chrome,1920,1080,,,,,,,,,,,,,,,,,,,,,,left,1,2.413955,1,0,3,3,2,1,html/resources/sequences_IDs/square1.png,star ↑,triangle →,circle ↓,← square,left,,,,,,,,,,,,,,,,,,,,,,,,,,,,,,,,,,,,,,,,,,,,,,,,,,,,,,,,,,,,,,
,,,,,78,2020-07-04_18h32.25.578,retriever_ti,2020.1.3,Win32,60,Chrome,1920,1080,,,,,,,,,,,,,,,,,,,,,,,,,,,,,,,,,,,,,0,5.60481,1,0,1,0,1,,,,,,,,,,,,,,,,,,,,,,,,,,,,,,,,,,,,,,,,,,,,,,,,,,,,,,,
,,,,,78,2020-07-04_18h32.25.578,retriever_ti,2020.1.3,Win32,60,Chrome,1920,1080,,,,,,,,,,,,,,,,,1,,,,,,,,,,,,,,,,,,,,,,,,,,,280.691685,1,left,1.33304,calculator    ,7,9,1,1,1,280.696675,280.696675,283.19566,0,0,0,0,1,1,7,6,calculator    ,dolphin     ,html/resources/sequences_IDs/A/09_calculator.jpg,html/resources/sequences_IDs/B/02_dolphin.jpg,9,2,4,2,1,1,8,2,0,78,,,,,,,,,,,,,,,,,,,,
,,,,,78,2020-07-04_18h32.25.578,retriever_ti,2020.1.3,Win32,60,Chrome,1920,1080,,,,,,,,,,,,,,,,,1,,,,,,,,,,,,,,,,,,,,,,,,,,,284.302245,2,right,1.080375,sport_tshirt,8,7,6,1,3,284.315765,284.315765,286.80915,0,1,1,1,1,2,2,8,holdfast    ,sport_tshirt,html/resources/sequences_IDs/B/04_holdfast.jpg,html/resources/sequences_IDs/B/07_sport_tshirt.jpg,4,7,2,1,3,2,4,6,0,78,,,,,,,,,,,,,,,,,,,,
,,,,,78,2020-07-04_18h32.25.578,retriever_ti,2020.1.3,Win32,60,Chrome,1920,1080,,,,,,,,,,,,,,,,,1,,,,,,,,,,,,,,,,,,,,,,,,,,,287.42332,3,left,1.096215,dolphin     ,6,2,1,1,0,287.43976,287.43976,289.92987,0,2,2,2,1,3,6,5,dolphin     ,wolf          ,html/resources/sequences_IDs/B/02_dolphin.jpg,html/resources/sequences_IDs/A/01_wolf.jpg,2,1,1,1,1,1,2,1,1,78,,,,,,,,,,,,,,,,,,,,
,,,,,78,2020-07-04_18h32.25.578,retriever_ti,2020.1.3,Win32,60,Chrome,1920,1080,,,,,,,,,,,,,,,,,1,,,,,,,,,,,,,,,,,,,,,,,,,,,291.03721,4,right,1.21869,camel         ,1,3,-6,0,3,291.064675,291.064675,293.55787,0,3,3,3,1,4,7,1,calculator    ,camel         ,html/resources/sequences_IDs/A/09_calculator.jpg,html/resources/sequences_IDs/A/03_camel.jpg,9,3,4,2,1,1,8,3,0,78,,,,,,,,,,,,,,,,,,,,
,,,,,78,2020-07-04_18h32.25.578,retriever_ti,2020.1.3,Win32,60,Chrome,1920,1080,,,,,,,,,,,,,,,,,1,,,,,,,,,,,,,,,,,,,,,,,,,,,294.17075,5,left,1.448255,wolf          ,5,1,-1,0,0,294.184655,294.184655,296.678375,0,4,4,4,1,5,5,6,wolf          ,dolphin     ,html/resources/sequences_IDs/A/01_wolf.jpg,html/resources/sequences_IDs/B/02_dolphin.jpg,1,2,1,1,1,1,1,2,0,78,,,,,,,,,,,,,,,,,,,,
,,,,,78,2020-07-04_18h32.25.578,retriever_ti,2020.1.3,Win32,60,Chrome,1920,1080,,,,,,,,,,,,,,,,,1,,,,,,,,,,,,,,,,,,,,,,,,,,,297.768325,6,left,1.502795,gloves      ,4,6,-1,0,0,297.78535,297.78535,300.27897,0,5,5,5,1,6,4,5,gloves      ,wolf          ,html/resources/sequences_IDs/B/06_gloves.jpg,html/resources/sequences_IDs/A/01_wolf.jpg,6,1,3,2,1,1,5,1,0,78,,,,,,,,,,,,,,,,,,,,
,,,,,78,2020-07-04_18h32.25.578,retriever_ti,2020.1.3,Win32,60,Chrome,1920,1080,,,,,,,,,,,,,,,,,1,,,,,,,,,,,,,,,,,,,,,,,,,,,301.369815,7,left,1.016715,sport_tshirt,8,7,1,1,1,301.39595,301.39595,303.893085,0,6,6,6,1,7,8,7,sport_tshirt,calculator    ,html/resources/sequences_IDs/B/07_sport_tshirt.jpg,html/resources/sequences_IDs/A/09_calculator.jpg,7,9,3,2,4,2,6,8,0,78,,,,,,,,,,,,,,,,,,,,
,,,,,78,2020-07-04_18h32.25.578,retriever_ti,2020.1.3,Win32,60,Chrome,1920,1080,,,,,,,,,,,,,,,,,1,,,,,,,,,,,,,,,,,,,,,,,,,,,305.000685,8,right,1.055515,wolf          ,5,1,-1,0,0,305.014085,305.014085,307.507415,0,7,7,7,1,8,6,5,dolphin     ,wolf          ,html/resources/sequences_IDs/B/02_dolphin.jpg,html/resources/sequences_IDs/A/01_wolf.jpg,2,1,1,1,1,1,2,1,0,78,,,,,,,,,,,,,,,,,,,,
,,,,,78,2020-07-04_18h32.25.578,retriever_ti,2020.1.3,Win32,60,Chrome,1920,1080,,,,,,,,,,,,,,,,,1,,,,,,,,,,,,,,,,,,,,,,,,,,,308.60131,9,right,1.676125,hat           ,3,8,-3,0,3,308.628635,308.628635,311.13124,0,8,8,8,1,9,6,3,dolphin     ,hat           ,html/resources/sequences_IDs/B/02_dolphin.jpg,html/resources/sequences_IDs/A/08_hat.jpg,2,8,1,1,3,2,2,7,0,78,,,,,,,,,,,,,,,,,,,,
,,,,,78,2020-07-04_18h32.25.578,retriever_ti,2020.1.3,Win32,60,Chrome,1920,1080,,,,,,,,,,,,,,,,,1,,,,,,,,,,,,,,,,,,,,,,,,,,,311.73508,10,left,1.748805,calculator    ,7,9,1,1,0,311.74878,311.74878,314.24238,0,9,9,9,1,10,7,6,calculator    ,dolphin     ,html/resources/sequences_IDs/A/09_calculator.jpg,html/resources/sequences_IDs/B/02_dolphin.jpg,9,2,4,2,1,1,8,2,1,78,,,,,,,,,,,,,,,,,,,,
,,,,,78,2020-07-04_18h32.25.578,retriever_ti,2020.1.3,Win32,60,Chrome,1920,1080,,,,,,,,,,,,,,,,,1,,,,,,,,,,,,,,,,,,,,,,,,,,,315.336315,11,right,0.776105,sport_tshirt,8,7,1,1,1,315.34975,315.34975,317.843585,0,10,10,10,1,11,7,8,calculator    ,sport_tshirt,html/resources/sequences_IDs/A/09_calculator.jpg,html/resources/sequences_IDs/B/07_sport_tshirt.jpg,9,7,4,2,3,2,8,6,0,78,,,,,,,,,,,,,,,,,,,,
,,,,,78,2020-07-04_18h32.25.578,retriever_ti,2020.1.3,Win32,60,Chrome,1920,1080,,,,,,,,,,,,,,,,,1,,,,,,,,,,,,,,,,,,,,,,,,,,,318.937455,12,right,0.94411,camel         ,1,3,-1,0,0,318.964255,318.964255,321.470935,0,11,11,11,1,12,2,1,holdfast    ,camel         ,html/resources/sequences_IDs/B/04_holdfast.jpg,html/resources/sequences_IDs/A/03_camel.jpg,4,3,2,1,1,1,4,3,0,78,,,,,,,,,,,,,,,,,,,,
,,,,,78,2020-07-04_18h32.25.578,retriever_ti,2020.1.3,Win32,60,Chrome,1920,1080,,,,,,,,,,,,,,,,,1,,,,,,,,,,,,,,,,,,,,,,,,,,,322.57401,13,left,1.380435,camel         ,1,3,-5,0,3,322.601375,322.601375,325.098605,0,12,12,12,1,13,1,6,camel         ,dolphin     ,html/resources/sequences_IDs/A/03_camel.jpg,html/resources/sequences_IDs/B/02_dolphin.jpg,3,2,1,1,1,1,3,2,0,78,,,,,,,,,,,,,,,,,,,,
,,,,,78,2020-07-04_18h32.25.578,retriever_ti,2020.1.3,Win32,60,Chrome,1920,1080,,,,,,,,,,,,,,,,,1,,,,,,,,,,,,,,,,,,,,,,,,,,,325.71216,14,right,1.18698,sport_tshirt,8,7,4,1,3,325.74009,325.74009,328.232595,0,13,13,13,1,14,4,8,gloves      ,sport_tshirt,html/resources/sequences_IDs/B/06_gloves.jpg,html/resources/sequences_IDs/B/07_sport_tshirt.jpg,6,7,3,2,3,2,5,6,0,78,,,,,,,,,,,,,,,,,,,,
,,,,,78,2020-07-04_18h32.25.578,retriever_ti,2020.1.3,Win32,60,Chrome,1920,1080,,,,,,,,,,,,,,,,,1,,,,,,,,,,,,,,,,,,,,,,,,,,,328.845995,15,left,1.21683,wolf          ,5,1,-2,0,3,328.859535,328.859535,331.3532,0,14,14,14,1,15,5,7,wolf          ,calculator    ,html/resources/sequences_IDs/A/01_wolf.jpg,html/resources/sequences_IDs/A/09_calculator.jpg,1,9,1,1,4,2,1,8,0,78,,,,,,,,,,,,,,,,,,,,
,,,,,78,2020-07-04_18h32.25.578,retriever_ti,2020.1.3,Win32,60,Chrome,1920,1080,,,,,,,,,,,,,,,,,1,,,,,,,,,,,,,,,,,,,,,,,,,,,331.96249,16,left,1.4982,sport_tshirt,8,7,2,1,3,331.993975,331.993975,334.487135,0,15,15,15,1,16,8,6,sport_tshirt,dolphin     ,html/resources/sequences_IDs/B/07_sport_tshirt.jpg,html/resources/sequences_IDs/B/02_dolphin.jpg,7,2,3,2,1,1,6,2,0,78,,,,,,,,,,,,,,,,,,,,
,,,,,78,2020-07-04_18h32.25.578,retriever_ti,2020.1.3,Win32,60,Chrome,1920,1080,,,,,,,,,,,,,,,,,1,,,,,,,,,,,,,,,,,,,,,,,,,,,335.087845,17,right,1.88431,holdfast    ,2,4,-4,0,3,335.12814,335.12814,337.621815,0,16,16,16,1,17,6,2,dolphin     ,holdfast    ,html/resources/sequences_IDs/B/02_dolphin.jpg,html/resources/sequences_IDs/B/04_holdfast.jpg,2,4,1,1,2,1,2,4,0,78,,,,,,,,,,,,,,,,,,,,
,,,,,78,2020-07-04_18h32.25.578,retriever_ti,2020.1.3,Win32,60,Chrome,1920,1080,,,,,,,,,,,,,,,,,1,,,,,,,,,,,,,,,,,,,,,,,,,,,338.23115,18,right,2.061255,calculator    ,7,9,3,1,3,338.258945,338.258945,340.755175,0,17,17,17,1,18,4,7,gloves      ,calculator    ,html/resources/sequences_IDs/B/06_gloves.jpg,html/resources/sequences_IDs/A/09_calculator.jpg,6,9,3,2,4,2,5,8,0,78,,,,,,,,,,,,,,,,,,,,
,,,,,78,2020-07-04_18h32.25.578,retriever_ti,2020.1.3,Win32,60,Chrome,1920,1080,,,,,,,,,,,,,,,,,1,,,,,,,,,,,,,,,,,,,,,,,,,,,341.36532,19,right,1.96522,wolf          ,5,1,3,1,3,341.38321,341.38321,343.87619,0,18,18,18,1,19,2,5,holdfast    ,wolf          ,html/resources/sequences_IDs/B/04_holdfast.jpg,html/resources/sequences_IDs/A/01_wolf.jpg,4,1,2,1,1,1,4,1,0,78,,,,,,,,,,,,,,,,,,,,
,,,,,78,2020-07-04_18h32.25.578,retriever_ti,2020.1.3,Win32,60,Chrome,1920,1080,,,,,,,,,,,,,,,,,1,,,,,,,,,,,,,,,,,,,,,,,,,,,344.489365,20,left,0.95165,calculator    ,7,9,1,1,1,344.503205,344.503205,346.99702,0,19,19,19,1,20,7,6,calculator    ,dolphin     ,html/resources/sequences_IDs/A/09_calculator.jpg,html/resources/sequences_IDs/B/02_dolphin.jpg,9,2,4,2,1,1,8,2,0,78,,,,,,,,,,,,,,,,,,,,
,,,,,78,2020-07-04_18h32.25.578,retriever_ti,2020.1.3,Win32,60,Chrome,1920,1080,,,,,,,,,,,,,,,,,1,,,,,,,,,,,,,,,,,,,,,,,,,,,348.090665,21,left,1.50737,sport_tshirt,8,7,6,1,3,348.10888,348.10888,350.597865,0,20,20,20,1,21,8,2,sport_tshirt,holdfast    ,html/resources/sequences_IDs/B/07_sport_tshirt.jpg,html/resources/sequences_IDs/B/04_holdfast.jpg,7,4,3,2,2,1,6,4,0,78,,,,,,,,,,,,,,,,,,,,
,,,,,78,2020-07-04_18h32.25.578,retriever_ti,2020.1.3,Win32,60,Chrome,1920,1080,,,,,,,,,,,,,,,,,1,,,,,,,,,,,,,,,,,,,,,,,,,,,351.211625,22,left,1.455425,holdfast    ,2,4,1,1,0,351.225105,351.225105,353.718535,0,21,21,21,1,22,2,1,holdfast    ,camel         ,html/resources/sequences_IDs/B/04_holdfast.jpg,html/resources/sequences_IDs/A/03_camel.jpg,4,3,2,1,1,1,4,3,1,78,,,,,,,,,,,,,,,,,,,,
,,,,,78,2020-07-04_18h32.25.578,retriever_ti,2020.1.3,Win32,60,Chrome,1920,1080,,,,,,,,,,,,,,,,,1,,,,,,,,,,,,,,,,,,,,,,,,,,,354.81223,23,left,1.1013,camel         ,1,3,-1,0,0,354.83539,354.83539,357.332895,0,22,22,22,1,23,1,2,camel         ,holdfast    ,html/resources/sequences_IDs/A/03_camel.jpg,html/resources/sequences_IDs/B/04_holdfast.jpg,3,4,1,1,2,1,3,4,0,78,,,,,,,,,,,,,,,,,,,,
,,,,,78,2020-07-04_18h32.25.578,retriever_ti,2020.1.3,Win32,60,Chrome,1920,1080,,,,,,,,,,,,,,,,,1,,,,,,,,,,,,,,,,,,,,,,,,,,,358.426235,24,right,1.323585,wolf          ,5,1,4,1,3,358.45345,358.45345,360.946795,0,23,23,23,1,24,1,5,camel         ,wolf          ,html/resources/sequences_IDs/A/03_camel.jpg,html/resources/sequences_IDs/A/01_wolf.jpg,3,1,1,1,1,1,3,1,0,78,,,,,,,,,,,,,,,,,,,,
,,,,,78,2020-07-04_18h32.25.578,retriever_ti,2020.1.3,Win32,60,Chrome,1920,1080,,,,,,,,,,,,,,,,,1,,,,,,,,,,,,,,,,,,,,,,,,,,,361.547465,25,left,1.332605,calculator    ,7,9,2,1,3,361.5756,361.5756,364.067905,0,24,24,24,1,25,7,5,calculator    ,wolf          ,html/resources/sequences_IDs/A/09_calculator.jpg,html/resources/sequences_IDs/A/01_wolf.jpg,9,1,4,2,1,1,8,1,0,78,,,,,,,,,,,,,,,,,,,,
,,,,,78,2020-07-04_18h32.25.578,retriever_ti,2020.1.3,Win32,60,Chrome,1920,1080,,,,,,,,,,,,,,,,,1,,,,,,,,,,,,,,,,,,,,,,,,,,,364.672,26,left,1.364515,holdfast    ,2,4,-2,0,3,364.69459,364.69459,367.19903,0,25,25,25,1,26,2,4,holdfast    ,gloves      ,html/resources/sequences_IDs/B/04_holdfast.jpg,html/resources/sequences_IDs/B/06_gloves.jpg,4,6,2,1,3,2,4,5,0,78,,,,,,,,,,,,,,,,,,,,
,,,,,78,2020-07-04_18h32.25.578,retriever_ti,2020.1.3,Win32,60,Chrome,1920,1080,,,,,,,,,,,,,,,,,1,,,,,,,,,,,,,,,,,,,,,,,,,,,367.80201,27,right,0.9372,sport_tshirt,8,7,1,1,0,367.815425,367.815425,370.309185,0,26,26,26,1,27,7,8,calculator    ,sport_tshirt,html/resources/sequences_IDs/A/09_calculator.jpg,html/resources/sequences_IDs/B/07_sport_tshirt.jpg,9,7,4,2,3,2,8,6,1,78,,,,,,,,,,,,,,,,,,,,
,,,,,78,2020-07-04_18h32.25.578,retriever_ti,2020.1.3,Win32,60,Chrome,1920,1080,,,,,,,,,,,,,,,,,1,,,,,,,,,,,,,,,,,,,,,,,,,,,371.399535,28,left,0.59508,dolphin     ,6,2,2,1,3,371.416375,371.416375,373.910005,0,27,27,27,1,28,6,4,dolphin     ,gloves      ,html/resources/sequences_IDs/B/02_dolphin.jpg,html/resources/sequences_IDs/B/06_gloves.jpg,2,6,1,1,3,2,2,5,0,78,,,,,,,,,,,,,,,,,,,,
,,,,,78,2020-07-04_18h32.25.578,retriever_ti,2020.1.3,Win32,60,Chrome,1920,1080,,,,,,,,,,,,,,,,,1,,,,,,,,,,,,,,,,,,,,,,,,,,,374.512445,29,left,0.951695,sport_tshirt,8,7,1,1,1,374.53747,374.53747,377.04445,0,28,28,28,1,29,8,7,sport_tshirt,calculator    ,html/resources/sequences_IDs/B/07_sport_tshirt.jpg,html/resources/sequences_IDs/A/09_calculator.jpg,7,9,3,2,4,2,6,8,0,78,,,,,,,,,,,,,,,,,,,,
,,,,,78,2020-07-04_18h32.25.578,retriever_ti,2020.1.3,Win32,60,Chrome,1920,1080,,,,,,,,,,,,,,,,,1,,,,,,,,,,,,,,,,,,,,,,,,,,,378.134615,30,right,0.73604,dolphin     ,6,2,1,1,1,378.15196,378.15196,380.644905,0,29,29,29,1,30,5,6,wolf          ,dolphin     ,html/resources/sequences_IDs/A/01_wolf.jpg,html/resources/sequences_IDs/B/02_dolphin.jpg,1,2,1,1,1,1,1,2,0,78,,,,,,,,,,,,,,,,,,,,
,,,,,78,2020-07-04_18h32.25.578,retriever_ti,2020.1.3,Win32,60,Chrome,1920,1080,,,,,,,,,,,,,,,,,1,,,,,,,,,,,,,,,,,,,,,,,,,,,381.738925,31,left,1.1148,wolf          ,5,1,4,1,3,381.765695,381.765695,384.25906,0,30,30,30,1,31,5,1,wolf          ,camel         ,html/resources/sequences_IDs/A/01_wolf.jpg,html/resources/sequences_IDs/A/03_camel.jpg,1,3,1,1,1,1,1,3,0,78,,,,,,,,,,,,,,,,,,,,
,,,,,78,2020-07-04_18h32.25.578,retriever_ti,2020.1.3,Win32,60,Chrome,1920,1080,,,,,,,,,,,,,,,,,1,,,,,,,,,,,,,,,,,,,,,,,,,,,384.878225,32,left,0.895485,calculator    ,7,9,-1,0,0,384.888415,384.888415,387.37966,0,31,31,31,1,32,7,8,calculator    ,sport_tshirt,html/resources/sequences_IDs/A/09_calculator.jpg,html/resources/sequences_IDs/B/07_sport_tshirt.jpg,9,7,4,2,3,2,8,6,0,78,,,,,,,,,,,,,,,,,,,,
,,,,,78,2020-07-04_18h32.25.578,retriever_ti,2020.1.3,Win32,60,Chrome,1920,1080,,,,,,,,,,,,,,,,,1,,,,,,,,,,,,,,,,,,,,,,,,,,,388.4737,33,left,0.649495,dolphin     ,6,2,5,1,3,388.49681,388.49681,390.993865,0,32,32,32,1,33,6,1,dolphin     ,camel         ,html/resources/sequences_IDs/B/02_dolphin.jpg,html/resources/sequences_IDs/A/03_camel.jpg,2,3,1,1,1,1,2,3,0,78,,,,,,,,,,,,,,,,,,,,
,,,,,78,2020-07-04_18h32.25.578,retriever_ti,2020.1.3,Win32,60,Chrome,1920,1080,,,,,,,,,,,,,,,,,1,,,,,,,,,,,,,,,,,,,,,,,,,,,391.60485,34,right,1.556235,holdfast    ,2,4,1,1,1,391.62125,391.62125,394.11476,0,33,33,33,1,34,1,2,camel         ,holdfast    ,html/resources/sequences_IDs/A/03_camel.jpg,html/resources/sequences_IDs/B/04_holdfast.jpg,3,4,1,1,2,1,3,4,0,78,,,,,,,,,,,,,,,,,,,,
,,,,,78,2020-07-04_18h32.25.578,retriever_ti,2020.1.3,Win32,60,Chrome,1920,1080,,,,,,,,,,,,,,,,,1,,,,,,,,,,,,,,,,,,,,,,,,,,,395.2086,35,right,1.842665,hat           ,3,8,2,1,3,395.22249,395.22249,397.71553,0,34,34,34,1,35,1,3,camel         ,hat           ,html/resources/sequences_IDs/A/03_camel.jpg,html/resources/sequences_IDs/A/08_hat.jpg,3,8,1,1,3,2,3,7,0,78,,,,,,,,,,,,,,,,,,,,
,,,,,78,2020-07-04_18h32.25.578,retriever_ti,2020.1.3,Win32,60,Chrome,1920,1080,,,,,,,,,,,,,,,,,1,,,,,,,,,,,,,,,,,,,,,,,,,,,398.319195,36,right,1.096345,hat           ,3,8,-4,0,3,398.356145,398.356145,400.849595,0,35,35,35,1,36,7,3,calculator    ,hat           ,html/resources/sequences_IDs/A/09_calculator.jpg,html/resources/sequences_IDs/A/08_hat.jpg,9,8,4,2,3,2,8,7,0,78,,,,,,,,,,,,,,,,,,,,
,,,,,78,2020-07-04_18h32.25.578,retriever_ti,2020.1.3,Win32,60,Chrome,1920,1080,,,,,,,,,,,,,,,,,1,,,,,,,,,,,,,,,,,,,,,,,,,,,401.45009,37,right,0.907505,dolphin     ,6,2,2,1,3,401.47928,401.47928,403.97027,0,36,36,36,1,37,4,6,gloves      ,dolphin     ,html/resources/sequences_IDs/B/06_gloves.jpg,html/resources/sequences_IDs/B/02_dolphin.jpg,6,2,3,2,1,1,5,2,0,78,,,,,,,,,,,,,,,,,,,,
,,,,,78,2020-07-04_18h32.25.578,retriever_ti,2020.1.3,Win32,60,Chrome,1920,1080,,,,,,,,,,,,,,,,,1,,,,,,,,,,,,,,,,,,,,,,,,,,,404.583895,38,left,0.431535,wolf          ,5,1,2,1,3,404.5979,404.5979,407.091415,0,37,37,37,1,38,5,3,wolf          ,hat           ,html/resources/sequences_IDs/A/01_wolf.jpg,html/resources/sequences_IDs/A/08_hat.jpg,1,8,1,1,3,2,1,7,0,78,,,,,,,,,,,,,,,,,,,,
,,,,,78,2020-07-04_18h32.25.578,retriever_ti,2020.1.3,Win32,60,Chrome,1920,1080,,,,,,,,,,,,,,,,,1,,,,,,,,,,,,,,,,,,,,,,,,,,,407.70179,39,left,0.65794,sport_tshirt,8,7,3,1,3,407.731675,407.731675,410.234625,0,38,38,38,1,39,8,5,sport_tshirt,wolf          ,html/resources/sequences_IDs/B/07_sport_tshirt.jpg,html/resources/sequences_IDs/A/01_wolf.jpg,7,1,3,2,1,1,6,1,0,78,,,,,,,,,,,,,,,,,,,,
,,,,,78,2020-07-04_18h32.25.578,retriever_ti,2020.1.3,Win32,60,Chrome,1920,1080,,,,,,,,,,,,,,,,,1,,,,,,,,,,,,,,,,,,,,,,,,,,,410.852165,40,right,0.5389,dolphin     ,6,2,3,1,3,410.866,410.866,413.36039,0,39,39,39,1,40,3,6,hat           ,dolphin     ,html/resources/sequences_IDs/A/08_hat.jpg,html/resources/sequences_IDs/B/02_dolphin.jpg,8,2,3,2,1,1,7,2,0,78,,,,,,,,,,,,,,,,,,,,
,,,,,78,2020-07-04_18h32.25.578,retriever_ti,2020.1.3,Win32,60,Chrome,1920,1080,,,,,,,,,,,,,,,,,1,,,,,,,,,,,,,,,,,,,,,,,,,,,413.9735,41,left,0.69758,gloves      ,4,6,-1,0,0,413.999935,413.999935,416.493935,0,40,40,40,1,41,4,5,gloves      ,wolf          ,html/resources/sequences_IDs/B/06_gloves.jpg,html/resources/sequences_IDs/A/01_wolf.jpg,6,1,3,2,1,1,5,1,0,78,,,,,,,,,,,,,,,,,,,,
,,,,,78,2020-07-04_18h32.25.578,retriever_ti,2020.1.3,Win32,60,Chrome,1920,1080,,,,,,,,,,,,,,,,,1,,,,,,,,,,,,,,,,,,,,,,,,,,,417.596825,42,left,0.359,hat           ,3,8,-1,0,1,417.619045,417.619045,420.10779,0,41,41,41,1,42,3,4,hat           ,gloves      ,html/resources/sequences_IDs/A/08_hat.jpg,html/resources/sequences_IDs/B/06_gloves.jpg,8,6,3,2,3,2,7,5,1,78,,,,,,,,,,,,,,,,,,,,
,,,,,78,2020-07-04_18h32.25.578,retriever_ti,2020.1.3,Win32,60,Chrome,1920,1080,,,,,,,,,,,,,,,,,1,,,,,,,,,,,,,,,,,,,,,,,,,,,421.201915,43,left,0.998075,holdfast    ,2,4,1,1,1,421.216475,421.216475,423.708415,0,42,42,42,1,43,2,1,holdfast    ,camel         ,html/resources/sequences_IDs/B/04_holdfast.jpg,html/resources/sequences_IDs/A/03_camel.jpg,4,3,2,1,1,1,4,3,0,78,,,,,,,,,,,,,,,,,,,,
,,,,,78,2020-07-04_18h32.25.578,retriever_ti,2020.1.3,Win32,60,Chrome,1920,1080,,,,,,,,,,,,,,,,,1,,,,,,,,,,,,,,,,,,,,,,,,,,,424.79809,44,left,0.629455,hat           ,3,8,1,1,0,424.82074,424.82074,427.30954,0,43,43,43,1,44,3,2,hat           ,holdfast    ,html/resources/sequences_IDs/A/08_hat.jpg,html/resources/sequences_IDs/B/04_holdfast.jpg,8,4,3,2,2,1,7,4,1,78,,,,,,,,,,,,,,,,,,,,
,,,,,78,2020-07-04_18h32.25.578,retriever_ti,2020.1.3,Win32,60,Chrome,1920,1080,,,,,,,,,,,,,,,,,1,,,,,,,,,,,,,,,,,,,,,,,,,,,428.39963,45,right,0.577255,gloves      ,4,6,-1,0,0,428.416775,428.416775,430.91005,0,44,44,44,1,45,5,4,wolf          ,gloves      ,html/resources/sequences_IDs/A/01_wolf.jpg,html/resources/sequences_IDs/B/06_gloves.jpg,1,6,1,1,3,2,1,5,0,78,,,,,,,,,,,,,,,,,,,,
,,,,,78,2020-07-04_18h32.25.578,retriever_ti,2020.1.3,Win32,60,Chrome,1920,1080,,,,,,,,,,,,,,,,,1,,,,,,,,,,,,,,,,,,,,,,,,,,,432.004495,46,left,0.362265,dolphin     ,6,2,-1,0,0,432.017785,432.017785,434.507415,0,45,45,45,1,46,6,7,dolphin     ,calculator    ,html/resources/sequences_IDs/B/02_dolphin.jpg,html/resources/sequences_IDs/A/09_calculator.jpg,2,9,1,1,4,2,2,8,0,78,,,,,,,,,,,,,,,,,,,,
,,,,,78,2020-07-04_18h32.25.578,retriever_ti,2020.1.3,Win32,60,Chrome,1920,1080,,,,,,,,,,,,,,,,,1,,,,,,,,,,,,,,,,,,,,,,,,,,,435.605865,47,left,0.362155,wolf          ,5,1,3,1,3,435.61862,435.61862,438.111935,0,46,46,46,1,47,5,2,wolf          ,holdfast    ,html/resources/sequences_IDs/A/01_wolf.jpg,html/resources/sequences_IDs/B/04_holdfast.jpg,1,4,1,1,2,1,1,4,0,78,,,,,,,,,,,,,,,,,,,,
,,,,,78,2020-07-04_18h32.25.578,retriever_ti,2020.1.3,Win32,60,Chrome,1920,1080,,,,,,,,,,,,,,,,,1,,,,,,,,,,,,,,,,,,,,,,,,,,,438.725165,48,right,1.60935,holdfast    ,2,4,-1,0,0,438.752905,438.752905,441.24602,0,47,47,47,1,48,3,2,hat           ,holdfast    ,html/resources/sequences_IDs/A/08_hat.jpg,html/resources/sequences_IDs/B/04_holdfast.jpg,8,4,3,2,2,1,7,4,0,78,,,,,,,,,,,,,,,,,,,,
,,,,,78,2020-07-04_18h32.25.578,retriever_ti,2020.1.3,Win32,60,Chrome,1920,1080,,,,,,,,,,,,,,,,,1,,,,,,,,,,,,,,,,,,,,,,,,,,,442.33666,49,left,1.45116,holdfast    ,2,4,-1,0,0,442.36363,442.36363,444.86006,0,48,48,48,1,49,2,3,holdfast    ,hat           ,html/resources/sequences_IDs/B/04_holdfast.jpg,html/resources/sequences_IDs/A/08_hat.jpg,4,8,2,1,3,2,4,7,0,78,,,,,,,,,,,,,,,,,,,,
,,,,,78,2020-07-04_18h32.25.578,retriever_ti,2020.1.3,Win32,60,Chrome,1920,1080,,,,,,,,,,,,,,,,,1,,,,,,,,,,,,,,,,,,,,,,,,,,,445.95475,50,left,0.82993,gloves      ,4,6,-1,0,1,445.98163,445.98163,448.474485,0,49,49,49,1,50,4,5,gloves      ,wolf          ,html/resources/sequences_IDs/B/06_gloves.jpg,html/resources/sequences_IDs/A/01_wolf.jpg,6,1,3,2,1,1,5,1,1,78,,,,,,,,,,,,,,,,,,,,
,,,,,78,2020-07-04_18h32.25.578,retriever_ti,2020.1.3,Win32,60,Chrome,1920,1080,,,,,,,,,,,,,,,,,1,,,,,,,,,,,,,,,,,,,,,,,,,,,449.56854,51,NaN,NaN,No_response,NaN,NaN,NaN,2,2,449.59534,449.59534,452.102115,0,50,50,50,1,51,6,7,dolphin     ,calculator    ,html/resources/sequences_IDs/B/02_dolphin.jpg,html/resources/sequences_IDs/A/09_calculator.jpg,2,9,1,1,4,2,2,8,0,78,,,,,,,,,,,,,,,,,,,,
,,,,,78,2020-07-04_18h32.25.578,retriever_ti,2020.1.3,Win32,60,Chrome,1920,1080,,,,,,,,,,,,,,,,,1,,,,,,,,,,,,,,,,,,,,,,,,,,,453.195745,52,NaN,NaN,No_response,NaN,NaN,NaN,2,2,453.21087,453.21087,455.70298,0,51,51,51,1,52,1,8,camel         ,sport_tshirt,html/resources/sequences_IDs/A/03_camel.jpg,html/resources/sequences_IDs/B/07_sport_tshirt.jpg,3,7,1,1,3,2,3,6,0,78,,,,,,,,,,,,,,,,,,,,
,,,,,78,2020-07-04_18h32.25.578,retriever_ti,2020.1.3,Win32,60,Chrome,1920,1080,,,,,,,,,,,,,,,,,1,,,,,,,,,,,,,,,,,,,,,,,,,,,456.79303,53,right,1.08447,calculator    ,7,9,4,1,3,456.796835,456.796835,459.29009,0,52,52,52,1,53,3,7,hat           ,calculator    ,html/resources/sequences_IDs/A/08_hat.jpg,html/resources/sequences_IDs/A/09_calculator.jpg,8,9,3,2,4,2,7,8,0,78,,,,,,,,,,,,,,,,,,,,
,,,,,78,2020-07-04_18h32.25.578,retriever_ti,2020.1.3,Win32,60,Chrome,1920,1080,,,,,,,,,,,,,,,,,1,,,,,,,,,,,,,,,,,,,,,,,,,,,459.89064,54,right,1.0972,dolphin     ,6,2,4,1,3,459.90413,459.90413,462.397685,0,53,53,53,1,54,2,6,holdfast    ,dolphin     ,html/resources/sequences_IDs/B/04_holdfast.jpg,html/resources/sequences_IDs/B/02_dolphin.jpg,4,2,2,1,1,1,4,2,0,78,,,,,,,,,,,,,,,,,,,,
,,,,,78,2020-07-04_18h32.25.578,retriever_ti,2020.1.3,Win32,60,Chrome,1920,1080,,,,,,,,,,,,,,,,,1,,,,,,,,,,,,,,,,,,,,,,,,,,,463.00694,55,left,1.294515,hat           ,3,8,-1,0,0,463.024745,463.024745,465.51857,0,54,54,54,1,55,3,4,hat           ,gloves      ,html/resources/sequences_IDs/A/08_hat.jpg,html/resources/sequences_IDs/B/06_gloves.jpg,8,6,3,2,3,2,7,5,0,78,,,,,,,,,,,,,,,,,,,,
,,,,,78,2020-07-04_18h32.25.578,retriever_ti,2020.1.3,Win32,60,Chrome,1920,1080,,,,,,,,,,,,,,,,,1,,,,,,,,,,,,,,,,,,,,,,,,,,,466.608505,56,right,1.377155,hat           ,3,8,-1,0,0,466.625865,466.625865,469.11945,0,55,55,55,1,56,4,3,gloves      ,hat           ,html/resources/sequences_IDs/B/06_gloves.jpg,html/resources/sequences_IDs/A/08_hat.jpg,6,8,3,2,3,2,5,7,0,78,,,,,,,,,,,,,,,,,,,,
,,,,,78,2020-07-04_18h32.25.578,retriever_ti,2020.1.3,Win32,60,Chrome,1920,1080,,,,,,,,,,,,,,,,,1,,,,,,,,,,,,,,,,,,,,,,,,,,,470.22818,57,left,1.35522,wolf          ,5,1,1,1,1,470.254145,470.254145,472.74686,0,56,56,56,1,57,5,4,wolf          ,gloves      ,html/resources/sequences_IDs/A/01_wolf.jpg,html/resources/sequences_IDs/B/06_gloves.jpg,1,6,1,1,3,2,1,5,0,78,,,,,,,,,,,,,,,,,,,,
,,,,,78,2020-07-04_18h32.25.578,retriever_ti,2020.1.3,Win32,60,Chrome,1920,1080,,,,,,,,,,,,,,,,,1,,,,,,,,,,,,,,,,,,,,,,,,,,,473.840885,58,right,0.750035,calculator    ,7,9,6,1,3,473.854375,473.854375,476.34801,0,57,57,57,1,58,1,7,camel         ,calculator    ,html/resources/sequences_IDs/A/03_camel.jpg,html/resources/sequences_IDs/A/09_calculator.jpg,3,9,1,1,4,2,3,8,0,78,,,,,,,,,,,,,,,,,,,,
,,,,,78,2020-07-04_18h32.25.578,retriever_ti,2020.1.3,Win32,60,Chrome,1920,1080,,,,,,,,,,,,,,,,,1,,,,,,,,,,,,,,,,,,,,,,,,,,,476.96164,59,right,1.29735,camel         ,1,3,-3,0,3,476.975075,476.975075,479.46877,0,58,58,58,1,59,4,1,gloves      ,camel         ,html/resources/sequences_IDs/B/06_gloves.jpg,html/resources/sequences_IDs/A/03_camel.jpg,6,3,3,2,1,1,5,3,0,78,,,,,,,,,,,,,,,,,,,,
,,,,,78,2020-07-04_18h32.25.578,retriever_ti,2020.1.3,Win32,60,Chrome,1920,1080,,,,,,,,,,,,,,,,,1,,,,,,,,,,,,,,,,,,,,,,,,,,,480.08198,60,right,2.35733,gloves      ,4,6,1,1,1,480.108915,480.108915,482.603505,0,59,59,59,1,60,3,4,hat           ,gloves      ,html/resources/sequences_IDs/A/08_hat.jpg,html/resources/sequences_IDs/B/06_gloves.jpg,8,6,3,2,3,2,7,5,0,78,,,,,,,,,,,,,,,,,,,,
,,,,,78,2020-07-04_18h32.25.578,retriever_ti,2020.1.3,Win32,60,Chrome,1920,1080,,,,,,,,,,,,,,,,,1,,,,,,,,,,,,,,,,,,,,,,,,,,,483.71004,61,right,1.09042,gloves      ,4,6,3,1,3,483.736665,483.736665,486.229985,0,60,60,60,1,61,1,4,camel         ,gloves      ,html/resources/sequences_IDs/A/03_camel.jpg,html/resources/sequences_IDs/B/06_gloves.jpg,3,6,1,1,3,2,3,5,0,78,,,,,,,,,,,,,,,,,,,,
,,,,,78,2020-07-04_18h32.25.578,retriever_ti,2020.1.3,Win32,60,Chrome,1920,1080,,,,,,,,,,,,,,,,,1,,,,,,,,,,,,,,,,,,,,,,,,,,,486.83063,62,left,1.063025,hat           ,3,8,-2,0,3,486.86678,486.86678,489.36497,0,61,61,61,1,62,3,5,hat           ,wolf          ,html/resources/sequences_IDs/A/08_hat.jpg,html/resources/sequences_IDs/A/01_wolf.jpg,8,1,3,2,1,1,7,1,0,78,,,,,,,,,,,,,,,,,,,,
,,,,,78,2020-07-04_18h32.25.578,retriever_ti,2020.1.3,Win32,60,Chrome,1920,1080,,,,,,,,,,,,,,,,,1,,,,,,,,,,,,,,,,,,,,,,,,,,,489.96946,63,right,1.138305,camel         ,1,3,-7,0,3,490.00479,490.00479,492.498465,0,62,62,62,1,63,8,1,sport_tshirt,camel         ,html/resources/sequences_IDs/B/07_sport_tshirt.jpg,html/resources/sequences_IDs/A/03_camel.jpg,7,3,3,2,1,1,6,3,0,78,,,,,,,,,,,,,,,,,,,,
,,,,,78,2020-07-04_18h32.25.578,retriever_ti,2020.1.3,Win32,60,Chrome,1920,1080,,,,,,,,,,,,,,,,,1,,,,,,,,,,,,,,,,,,,,,,,,,,,493.10828,64,left,1.9909,holdfast    ,2,4,-1,0,0,493.12527,493.12527,495.61921,0,63,63,63,1,64,2,3,holdfast    ,hat           ,html/resources/sequences_IDs/B/04_holdfast.jpg,html/resources/sequences_IDs/A/08_hat.jpg,4,8,2,1,3,2,4,7,0,78,,,,,,,,,,,,,,,,,,,,
,,,,,78,2020-07-04_18h32.25.578,retriever_ti,2020.1.3,Win32,60,Chrome,1920,1080,,,,,,,,,,,,,,,,,1,,,,,,,,,,,,,,,,,,,,,,,,,,,496.713135,65,right,0.710305,calculator    ,7,9,5,1,3,496.727105,496.727105,499.21994,0,64,64,64,1,65,2,7,holdfast    ,calculator    ,html/resources/sequences_IDs/B/04_holdfast.jpg,html/resources/sequences_IDs/A/09_calculator.jpg,4,9,2,1,4,2,4,8,0,78,,,,,,,,,,,,,,,,,,,,
,,,,,78,2020-07-04_18h32.25.578,retriever_ti,2020.1.3,Win32,60,Chrome,1920,1080,,,,,,,,,,,,,,,,,1,,,,,,,,,,,,,,,,,,,,,,,,,,,499.82996,66,left,1.57966,calculator    ,7,9,3,1,3,499.860165,499.860165,502.353825,0,65,65,65,1,66,7,4,calculator    ,gloves      ,html/resources/sequences_IDs/A/09_calculator.jpg,html/resources/sequences_IDs/B/06_gloves.jpg,9,6,4,2,3,2,8,5,0,78,,,,,,,,,,,,,,,,,,,,
,,,,,78,2020-07-04_18h32.25.578,retriever_ti,2020.1.3,Win32,60,Chrome,1920,1080,,,,,,,,,,,,,,,,,1,,,,,,,,,,,,,,,,,,,,,,,,,,,502.96757,67,left,1.24283,sport_tshirt,8,7,5,1,3,502.981115,502.981115,505.474495,0,66,66,66,1,67,8,3,sport_tshirt,hat           ,html/resources/sequences_IDs/B/07_sport_tshirt.jpg,html/resources/sequences_IDs/A/08_hat.jpg,7,8,3,2,3,2,6,7,0,78,,,,,,,,,,,,,,,,,,,,
,,,,,78,2020-07-04_18h32.25.578,retriever_ti,2020.1.3,Win32,60,Chrome,1920,1080,,,,,,,,,,,,,,,,,1,,,,,,,,,,,,,,,,,,,,,,,,,,,506.07538,68,right,1.002365,sport_tshirt,8,7,5,1,3,506.102985,506.102985,508.595785,0,67,67,67,1,68,3,8,hat           ,sport_tshirt,html/resources/sequences_IDs/A/08_hat.jpg,html/resources/sequences_IDs/B/07_sport_tshirt.jpg,8,7,3,2,3,2,7,6,0,78,,,,,,,,,,,,,,,,,,,,
,,,,,78,2020-07-04_18h32.25.578,retriever_ti,2020.1.3,Win32,60,Chrome,1920,1080,,,,,,,,,,,,,,,,,1,,,,,,,,,,,,,,,,,,,,,,,,,,,509.20882,69,left,1.77625,gloves      ,4,6,1,1,1,509.22239,509.22239,511.71615,0,68,68,68,1,69,4,3,gloves      ,hat           ,html/resources/sequences_IDs/B/06_gloves.jpg,html/resources/sequences_IDs/A/08_hat.jpg,6,8,3,2,3,2,5,7,0,78,,,,,,,,,,,,,,,,,,,,
,,,,,78,2020-07-04_18h32.25.578,retriever_ti,2020.1.3,Win32,60,Chrome,1920,1080,,,,,,,,,,,,,,,,,1,,,,,,,,,,,,,,,,,,,,,,,,,,,512.81132,70,right,0.75028,gloves      ,4,6,-4,0,3,512.85033,512.85033,515.34398,0,69,69,69,1,70,8,4,sport_tshirt,gloves      ,html/resources/sequences_IDs/B/07_sport_tshirt.jpg,html/resources/sequences_IDs/B/06_gloves.jpg,7,6,3,2,3,2,6,5,0,78,,,,,,,,,,,,,,,,,,,,
,,,,,78,2020-07-04_18h32.25.578,retriever_ti,2020.1.3,Win32,60,Chrome,1920,1080,,,,,,,,,,,,,,,,,1,,,,,,,,,,,,,,,,,,,,,,,,,,,515.949695,71,left,0.55224,dolphin     ,6,2,1,1,1,515.984575,515.984575,518.477985,0,70,70,70,1,71,6,5,dolphin     ,wolf          ,html/resources/sequences_IDs/B/02_dolphin.jpg,html/resources/sequences_IDs/A/01_wolf.jpg,2,1,1,1,1,1,2,1,0,78,,,,,,,,,,,,,,,,,,,,
,,,,,78,2020-07-04_18h32.25.578,retriever_ti,2020.1.3,Win32,60,Chrome,1920,1080,,,,,,,,,,,,,,,,,1,,,,,,,,,,,,,,,,,,,,,,,,,,,519.572075,72,right,0.820055,sport_tshirt,8,7,3,1,3,519.59549,519.59549,522.09206,0,71,71,71,1,72,5,8,wolf          ,sport_tshirt,html/resources/sequences_IDs/A/01_wolf.jpg,html/resources/sequences_IDs/B/07_sport_tshirt.jpg,1,7,1,1,3,2,1,6,0,78,,,,,,,,,,,,,,,,,,,,
,,,,,78,2020-07-04_18h32.25.578,retriever_ti,2020.1.3,Win32,60,Chrome,1920,1080,,,,,,,,,,,,,,,,,1,,,,,,,,,,,,,,,,,,,,,,,,,,,522.70168,73,left,1.2611,hat           ,3,8,1,1,1,522.728925,522.728925,525.22568,0,72,72,72,1,73,3,2,hat           ,holdfast    ,html/resources/sequences_IDs/A/08_hat.jpg,html/resources/sequences_IDs/B/04_holdfast.jpg,8,4,3,2,2,1,7,4,0,78,,,,,,,,,,,,,,,,,,,,
,,,,,78,2020-07-04_18h32.25.578,retriever_ti,2020.1.3,Win32,60,Chrome,1920,1080,,,,,,,,,,,,,,,,,1,,,,,,,,,,,,,,,,,,,,,,,,,,,526.333645,74,left,0.93701,calculator    ,7,9,5,1,3,526.361235,526.361235,528.86725,0,73,73,73,1,74,7,2,calculator    ,holdfast    ,html/resources/sequences_IDs/A/09_calculator.jpg,html/resources/sequences_IDs/B/04_holdfast.jpg,9,4,4,2,2,1,8,4,0,78,,,,,,,,,,,,,,,,,,,,
,,,,,78,2020-07-04_18h32.25.578,retriever_ti,2020.1.3,Win32,60,Chrome,1920,1080,,,,,,,,,,,,,,,,,1,,,,,,,,,,,,,,,,,,,,,,,,,,,529.47105,75,right,1.108305,camel         ,1,3,-2,0,3,529.49394,529.49394,531.98776,0,74,74,74,1,75,3,1,hat           ,camel         ,html/resources/sequences_IDs/A/08_hat.jpg,html/resources/sequences_IDs/A/03_camel.jpg,8,3,3,2,1,1,7,3,0,78,,,,,,,,,,,,,,,,,,,,
,,,,,78,2020-07-04_18h32.25.578,retriever_ti,2020.1.3,Win32,60,Chrome,1920,1080,,,,,,,,,,,,,,,,,1,,,,,,,,,,,,,,,,,,,,,,,,,,,532.602,76,right,0.922305,sport_tshirt,8,7,2,1,3,532.61724,532.61724,535.10985,0,75,75,75,1,76,6,8,dolphin     ,sport_tshirt,html/resources/sequences_IDs/B/02_dolphin.jpg,html/resources/sequences_IDs/B/07_sport_tshirt.jpg,2,7,1,1,3,2,2,6,0,78,,,,,,,,,,,,,,,,,,,,
,,,,,78,2020-07-04_18h32.25.578,retriever_ti,2020.1.3,Win32,60,Chrome,1920,1080,,,,,,,,,,,,,,,,,1,,,,,,,,,,,,,,,,,,,,,,,,,,,535.714285,77,NaN,NaN,No_response,NaN,NaN,NaN,2,2,535.75041,535.75041,538.24264,0,76,76,76,1,77,4,2,gloves      ,holdfast    ,html/resources/sequences_IDs/B/06_gloves.jpg,html/resources/sequences_IDs/B/04_holdfast.jpg,6,4,3,2,2,1,5,4,0,78,,,,,,,,,,,,,,,,,,,,
,,,,,78,2020-07-04_18h32.25.578,retriever_ti,2020.1.3,Win32,60,Chrome,1920,1080,,,,,,,,,,,,,,,,,,,,,,,,,,,,,,,,,,,,,0,3.80385,,,,,,,,,,,,,,,,,,,,,,,,,,,,,,,,,,,,,,,,,0,0,0,0,1,,,,,,,,,,,,,,,
,,,,,78,2020-07-04_18h32.25.578,retriever_ti,2020.1.3,Win32,60,Chrome,1920,1080,,,,,,,,,,,,,,,,,2,,,,,,,,,,,,,,,,,,,,,,,,,,,564.23824,78,right,2.324115,hat           ,3,8,-1,0,0,564.24051,564.24051,566.756675,0,0,0,0,1,78,4,3,gloves      ,hat           ,html/resources/sequences_IDs/B/06_gloves.jpg,html/resources/sequences_IDs/A/08_hat.jpg,6,8,3,2,3,2,5,7,0,78,,,,,,,,,,,,,,,,,,,,
,,,,,78,2020-07-04_18h32.25.578,retriever_ti,2020.1.3,Win32,60,Chrome,1920,1080,,,,,,,,,,,,,,,,,2,,,,,,,,,,,,,,,,,,,,,,,,,,,567.85011,79,right,1.308125,sport_tshirt,8,7,2,1,3,567.86298,567.86298,570.356755,0,1,1,1,1,79,6,8,dolphin     ,sport_tshirt,html/resources/sequences_IDs/B/02_dolphin.jpg,html/resources/sequences_IDs/B/07_sport_tshirt.jpg,2,7,1,1,3,2,2,6,0,78,,,,,,,,,,,,,,,,,,,,
,,,,,78,2020-07-04_18h32.25.578,retriever_ti,2020.1.3,Win32,60,Chrome,1920,1080,,,,,,,,,,,,,,,,,2,,,,,,,,,,,,,,,,,,,,,,,,,,,570.97192,80,right,1.31926,calculator    ,7,9,1,1,1,570.977715,570.977715,573.47292,0,2,2,2,1,80,6,7,dolphin     ,calculator    ,html/resources/sequences_IDs/B/02_dolphin.jpg,html/resources/sequences_IDs/A/09_calculator.jpg,2,9,1,1,4,2,2,8,0,78,,,,,,,,,,,,,,,,,,,,
,,,,,78,2020-07-04_18h32.25.578,retriever_ti,2020.1.3,Win32,60,Chrome,1920,1080,,,,,,,,,,,,,,,,,2,,,,,,,,,,,,,,,,,,,,,,,,,,,574.56361,81,left,1.37875,hat           ,3,8,1,1,1,574.59142,574.59142,577.092875,0,3,3,3,1,81,3,2,hat           ,holdfast    ,html/resources/sequences_IDs/A/08_hat.jpg,html/resources/sequences_IDs/B/04_holdfast.jpg,8,4,3,2,2,1,7,4,0,78,,,,,,,,,,,,,,,,,,,,
,,,,,78,2020-07-04_18h32.25.578,retriever_ti,2020.1.3,Win32,60,Chrome,1920,1080,,,,,,,,,,,,,,,,,2,,,,,,,,,,,,,,,,,,,,,,,,,,,578.198535,82,right,0.871415,dolphin     ,6,2,1,1,1,578.21261,578.21261,580.705425,0,4,4,4,1,82,5,6,wolf          ,dolphin     ,html/resources/sequences_IDs/A/01_wolf.jpg,html/resources/sequences_IDs/B/02_dolphin.jpg,1,2,1,1,1,1,1,2,0,78,,,,,,,,,,,,,,,,,,,,
,,,,,78,2020-07-04_18h32.25.578,retriever_ti,2020.1.3,Win32,60,Chrome,1920,1080,,,,,,,,,,,,,,,,,2,,,,,,,,,,,,,,,,,,,,,,,,,,,581.8,83,right,2.10509,camel         ,1,3,-3,0,3,581.827315,581.827315,584.31959,0,5,5,5,1,83,4,1,gloves      ,camel         ,html/resources/sequences_IDs/B/06_gloves.jpg,html/resources/sequences_IDs/A/03_camel.jpg,6,3,3,2,1,1,5,3,0,78,,,,,,,,,,,,,,,,,,,,
,,,,,78,2020-07-04_18h32.25.578,retriever_ti,2020.1.3,Win32,60,Chrome,1920,1080,,,,,,,,,,,,,,,,,2,,,,,,,,,,,,,,,,,,,,,,,,,,,584.933455,84,left,0.924475,sport_tshirt,8,7,5,1,3,584.960685,584.960685,587.45453,0,6,6,6,1,84,8,3,sport_tshirt,hat           ,html/resources/sequences_IDs/B/07_sport_tshirt.jpg,html/resources/sequences_IDs/A/08_hat.jpg,7,8,3,2,3,2,6,7,0,78,,,,,,,,,,,,,,,,,,,,
,,,,,78,2020-07-04_18h32.25.578,retriever_ti,2020.1.3,Win32,60,Chrome,1920,1080,,,,,,,,,,,,,,,,,2,,,,,,,,,,,,,,,,,,,,,,,,,,,588.067595,85,NaN,NaN,No_response,NaN,NaN,NaN,2,2,588.081575,588.081575,590.569055,0,7,7,7,1,85,2,4,holdfast    ,gloves      ,html/resources/sequences_IDs/B/04_holdfast.jpg,html/resources/sequences_IDs/B/06_gloves.jpg,4,6,2,1,3,2,4,5,0,78,,,,,,,,,,,,,,,,,,,,
,,,,,78,2020-07-04_18h32.25.578,retriever_ti,2020.1.3,Win32,60,Chrome,1920,1080,,,,,,,,,,,,,,,,,2,,,,,,,,,,,,,,,,,,,,,,,,,,,591.67079,86,NaN,NaN,No_response,NaN,NaN,NaN,2,2,591.68956,591.68956,594.189805,0,8,8,8,1,86,6,5,dolphin     ,wolf          ,html/resources/sequences_IDs/B/02_dolphin.jpg,html/resources/sequences_IDs/A/01_wolf.jpg,2,1,1,1,1,1,2,1,1,78,,,,,,,,,,,,,,,,,,,,
,,,,,78,2020-07-04_18h32.25.578,retriever_ti,2020.1.3,Win32,60,Chrome,1920,1080,,,,,,,,,,,,,,,,,2,,,,,,,,,,,,,,,,,,,,,,,,,,,595.28361,87,left,0.20926,wolf          ,5,1,-3,0,3,595.30939,595.30939,597.808295,0,9,9,9,1,87,5,8,wolf          ,sport_tshirt,html/resources/sequences_IDs/A/01_wolf.jpg,html/resources/sequences_IDs/B/07_sport_tshirt.jpg,1,7,1,1,3,2,1,6,0,78,,,,,,,,,,,,,,,,,,,,
,,,,,78,2020-07-04_18h32.25.578,retriever_ti,2020.1.3,Win32,60,Chrome,1920,1080,,,,,,,,,,,,,,,,,2,,,,,,,,,,,,,,,,,,,,,,,,,,,598.418525,88,left,0.64432,hat           ,3,8,-4,0,3,598.4447,598.4447,600.937765,0,10,10,10,1,88,3,7,hat           ,calculator    ,html/resources/sequences_IDs/A/08_hat.jpg,html/resources/sequences_IDs/A/09_calculator.jpg,8,9,3,2,4,2,7,8,0,78,,,,,,,,,,,,,,,,,,,,
,,,,,78,2020-07-04_18h32.25.578,retriever_ti,2020.1.3,Win32,60,Chrome,1920,1080,,,,,,,,,,,,,,,,,2,,,,,,,,,,,,,,,,,,,,,,,,,,,601.53806,89,right,0.749745,camel         ,1,3,-7,0,3,601.56474,601.56474,604.057615,0,11,11,11,1,89,8,1,sport_tshirt,camel         ,html/resources/sequences_IDs/B/07_sport_tshirt.jpg,html/resources/sequences_IDs/A/03_camel.jpg,7,3,3,2,1,1,6,3,0,78,,,,,,,,,,,,,,,,,,,,
,,,,,78,2020-07-04_18h32.25.578,retriever_ti,2020.1.3,Win32,60,Chrome,1920,1080,,,,,,,,,,,,,,,,,2,,,,,,,,,,,,,,,,,,,,,,,,,,,604.659205,90,right,0.83537,dolphin     ,6,2,2,1,3,604.685535,604.685535,607.1787,0,12,12,12,1,90,4,6,gloves      ,dolphin     ,html/resources/sequences_IDs/B/06_gloves.jpg,html/resources/sequences_IDs/B/02_dolphin.jpg,6,2,3,2,1,1,5,2,0,78,,,,,,,,,,,,,,,,,,,,
,,,,,78,2020-07-04_18h32.25.578,retriever_ti,2020.1.3,Win32,60,Chrome,1920,1080,,,,,,,,,,,,,,,,,2,,,,,,,,,,,,,,,,,,,,,,,,,,,607.779065,91,left,0.333345,calculator    ,7,9,1,1,1,607.80977,607.80977,610.30018,0,13,13,13,1,91,7,6,calculator    ,dolphin     ,html/resources/sequences_IDs/A/09_calculator.jpg,html/resources/sequences_IDs/B/02_dolphin.jpg,9,2,4,2,1,1,8,2,0,78,,,,,,,,,,,,,,,,,,,,
,,,,,78,2020-07-04_18h32.25.578,retriever_ti,2020.1.3,Win32,60,Chrome,1920,1080,,,,,,,,,,,,,,,,,2,,,,,,,,,,,,,,,,,,,,,,,,,,,611.406885,92,left,0.962855,hat           ,3,8,1,1,1,611.420385,611.420385,613.914035,0,14,14,14,1,92,3,2,hat           ,holdfast    ,html/resources/sequences_IDs/A/08_hat.jpg,html/resources/sequences_IDs/B/04_holdfast.jpg,8,4,3,2,2,1,7,4,0,78,,,,,,,,,,,,,,,,,,,,
,,,,,78,2020-07-04_18h32.25.578,retriever_ti,2020.1.3,Win32,60,Chrome,1920,1080,,,,,,,,,,,,,,,,,2,,,,,,,,,,,,,,,,,,,,,,,,,,,615.008575,93,left,1.81171,sport_tshirt,8,7,1,1,1,615.037565,615.037565,617.52841,0,15,15,15,1,93,8,7,sport_tshirt,calculator    ,html/resources/sequences_IDs/B/07_sport_tshirt.jpg,html/resources/sequences_IDs/A/09_calculator.jpg,7,9,3,2,4,2,6,8,0,78,,,,,,,,,,,,,,,,,,,,
,,,,,78,2020-07-04_18h32.25.578,retriever_ti,2020.1.3,Win32,60,Chrome,1920,1080,,,,,,,,,,,,,,,,,2,,,,,,,,,,,,,,,,,,,,,,,,,,,618.621925,94,NaN,NaN,No_response,NaN,NaN,NaN,2,2,618.642215,618.642215,621.145065,0,16,16,16,1,94,5,6,wolf          ,dolphin     ,html/resources/sequences_IDs/A/01_wolf.jpg,html/resources/sequences_IDs/B/02_dolphin.jpg,1,2,1,1,1,1,1,2,0,78,,,,,,,,,,,,,,,,,,,,
,,,,,78,2020-07-04_18h32.25.578,retriever_ti,2020.1.3,Win32,60,Chrome,1920,1080,,,,,,,,,,,,,,,,,2,,,,,,,,,,,,,,,,,,,,,,,,,,,622.249065,95,left,0.87056,hat           ,3,8,1,1,0,622.26306,622.26306,624.756065,0,17,17,17,1,95,3,2,hat           ,holdfast    ,html/resources/sequences_IDs/A/08_hat.jpg,html/resources/sequences_IDs/B/04_holdfast.jpg,8,4,3,2,2,1,7,4,1,78,,,,,,,,,,,,,,,,,,,,
,,,,,78,2020-07-04_18h32.25.578,retriever_ti,2020.1.3,Win32,60,Chrome,1920,1080,,,,,,,,,,,,,,,,,2,,,,,,,,,,,,,,,,,,,,,,,,,,,625.85037,96,left,0.788865,calculator    ,7,9,4,1,3,625.86704,625.86704,628.35789,0,18,18,18,1,96,7,3,calculator    ,hat           ,html/resources/sequences_IDs/A/09_calculator.jpg,html/resources/sequences_IDs/A/08_hat.jpg,9,8,4,2,3,2,8,7,0,78,,,,,,,,,,,,,,,,,,,,
,,,,,78,2020-07-04_18h32.25.578,retriever_ti,2020.1.3,Win32,60,Chrome,1920,1080,,,,,,,,,,,,,,,,,2,,,,,,,,,,,,,,,,,,,,,,,,,,,628.984045,97,left,1.176085,camel         ,1,3,-4,0,3,629.01205,629.01205,631.504145,0,19,19,19,1,97,1,5,camel         ,wolf          ,html/resources/sequences_IDs/A/03_camel.jpg,html/resources/sequences_IDs/A/01_wolf.jpg,3,1,1,1,1,1,3,1,0,78,,,,,,,,,,,,,,,,,,,,
,,,,,78,2020-07-04_18h32.25.578,retriever_ti,2020.1.3,Win32,60,Chrome,1920,1080,,,,,,,,,,,,,,,,,2,,,,,,,,,,,,,,,,,,,,,,,,,,,632.118515,98,right,0.65938,dolphin     ,6,2,3,1,3,632.14485,632.14485,634.63937,0,20,20,20,1,98,3,6,hat           ,dolphin     ,html/resources/sequences_IDs/A/08_hat.jpg,html/resources/sequences_IDs/B/02_dolphin.jpg,8,2,3,2,1,1,7,2,0,78,,,,,,,,,,,,,,,,,,,,
,,,,,78,2020-07-04_18h32.25.578,retriever_ti,2020.1.3,Win32,60,Chrome,1920,1080,,,,,,,,,,,,,,,,,2,,,,,,,,,,,,,,,,,,,,,,,,,,,635.253105,99,left,0.84177,sport_tshirt,8,7,1,1,1,635.278865,635.278865,637.772655,0,21,21,21,1,99,8,7,sport_tshirt,calculator    ,html/resources/sequences_IDs/B/07_sport_tshirt.jpg,html/resources/sequences_IDs/A/09_calculator.jpg,7,9,3,2,4,2,6,8,0,78,,,,,,,,,,,,,,,,,,,,
,,,,,78,2020-07-04_18h32.25.578,retriever_ti,2020.1.3,Win32,60,Chrome,1920,1080,,,,,,,,,,,,,,,,,2,,,,,,,,,,,,,,,,,,,,,,,,,,,638.866695,100,left,0.650515,sport_tshirt,8,7,2,1,3,638.886155,638.886155,641.373555,0,22,22,22,1,100,8,6,sport_tshirt,dolphin     ,html/resources/sequences_IDs/B/07_sport_tshirt.jpg,html/resources/sequences_IDs/B/02_dolphin.jpg,7,2,3,2,1,1,6,2,0,78,,,,,,,,,,,,,,,,,,,,
,,,,,78,2020-07-04_18h32.25.578,retriever_ti,2020.1.3,Win32,60,Chrome,1920,1080,,,,,,,,,,,,,,,,,2,,,,,,,,,,,,,,,,,,,,,,,,,,,641.976055,101,right,0.73689,camel         ,1,3,-2,0,3,641.983475,641.983475,644.48107,0,23,23,23,1,101,3,1,hat           ,camel         ,html/resources/sequences_IDs/A/08_hat.jpg,html/resources/sequences_IDs/A/03_camel.jpg,8,3,3,2,1,1,7,3,0,78,,,,,,,,,,,,,,,,,,,,
,,,,,78,2020-07-04_18h32.25.578,retriever_ti,2020.1.3,Win32,60,Chrome,1920,1080,,,,,,,,,,,,,,,,,2,,,,,,,,,,,,,,,,,,,,,,,,,,,645.08746,102,left,1.180185,camel         ,1,3,-2,0,3,645.121375,645.121375,647.61591,0,24,24,24,1,102,1,3,camel         ,hat           ,html/resources/sequences_IDs/A/03_camel.jpg,html/resources/sequences_IDs/A/08_hat.jpg,3,8,1,1,3,2,3,7,0,78,,,,,,,,,,,,,,,,,,,,
,,,,,78,2020-07-04_18h32.25.578,retriever_ti,2020.1.3,Win32,60,Chrome,1920,1080,,,,,,,,,,,,,,,,,2,,,,,,,,,,,,,,,,,,,,,,,,,,,648.2289,103,left,1.07882,gloves      ,4,6,-1,0,0,648.247495,648.247495,650.736245,0,25,25,25,1,103,4,5,gloves      ,wolf          ,html/resources/sequences_IDs/B/06_gloves.jpg,html/resources/sequences_IDs/A/01_wolf.jpg,6,1,3,2,1,1,5,1,0,78,,,,,,,,,,,,,,,,,,,,
,,,,,78,2020-07-04_18h32.25.578,retriever_ti,2020.1.3,Win32,60,Chrome,1920,1080,,,,,,,,,,,,,,,,,2,,,,,,,,,,,,,,,,,,,,,,,,,,,651.829925,104,left,1.035485,calculator    ,7,9,3,1,3,651.85689,651.85689,654.349855,0,26,26,26,1,104,7,4,calculator    ,gloves      ,html/resources/sequences_IDs/A/09_calculator.jpg,html/resources/sequences_IDs/B/06_gloves.jpg,9,6,4,2,3,2,8,5,0,78,,,,,,,,,,,,,,,,,,,,
,,,,,78,2020-07-04_18h32.25.578,retriever_ti,2020.1.3,Win32,60,Chrome,1920,1080,,,,,,,,,,,,,,,,,2,,,,,,,,,,,,,,,,,,,,,,,,,,,654.964025,105,left,1.560685,camel         ,1,3,-7,0,3,654.991215,654.991215,657.484535,0,27,27,27,1,105,1,8,camel         ,sport_tshirt,html/resources/sequences_IDs/A/03_camel.jpg,html/resources/sequences_IDs/B/07_sport_tshirt.jpg,3,7,1,1,3,2,3,6,0,78,,,,,,,,,,,,,,,,,,,,
,,,,,78,2020-07-04_18h32.25.578,retriever_ti,2020.1.3,Win32,60,Chrome,1920,1080,,,,,,,,,,,,,,,,,2,,,,,,,,,,,,,,,,,,,,,,,,,,,658.09772,106,right,1.073015,camel         ,1,3,-1,0,0,658.124715,658.124715,660.61849,0,28,28,28,1,106,2,1,holdfast    ,camel         ,html/resources/sequences_IDs/B/04_holdfast.jpg,html/resources/sequences_IDs/A/03_camel.jpg,4,3,2,1,1,1,4,3,0,78,,,,,,,,,,,,,,,,,,,,
,,,,,78,2020-07-04_18h32.25.578,retriever_ti,2020.1.3,Win32,60,Chrome,1920,1080,,,,,,,,,,,,,,,,,2,,,,,,,,,,,,,,,,,,,,,,,,,,,661.713195,107,NaN,NaN,No_response,NaN,NaN,NaN,2,2,661.739225,661.739225,664.232345,0,29,29,29,1,107,2,3,holdfast    ,hat           ,html/resources/sequences_IDs/B/04_holdfast.jpg,html/resources/sequences_IDs/A/08_hat.jpg,4,8,2,1,3,2,4,7,0,78,,,,,,,,,,,,,,,,,,,,
,,,,,78,2020-07-04_18h32.25.578,retriever_ti,2020.1.3,Win32,60,Chrome,1920,1080,,,,,,,,,,,,,,,,,2,,,,,,,,,,,,,,,,,,,,,,,,,,,665.326405,108,NaN,NaN,No_response,NaN,NaN,NaN,2,2,665.340195,665.340195,667.83326,0,30,30,30,1,108,6,2,dolphin     ,holdfast    ,html/resources/sequences_IDs/B/02_dolphin.jpg,html/resources/sequences_IDs/B/04_holdfast.jpg,2,4,1,1,2,1,2,4,0,78,,,,,,,,,,,,,,,,,,,,
,,,,,78,2020-07-04_18h32.25.578,retriever_ti,2020.1.3,Win32,60,Chrome,1920,1080,,,,,,,,,,,,,,,,,2,,,,,,,,,,,,,,,,,,,,,,,,,,,668.92357,109,right,0.61874,holdfast    ,2,4,-2,0,3,668.940985,668.940985,671.43443,0,31,31,31,1,109,4,2,gloves      ,holdfast    ,html/resources/sequences_IDs/B/06_gloves.jpg,html/resources/sequences_IDs/B/04_holdfast.jpg,6,4,3,2,2,1,5,4,0,78,,,,,,,,,,,,,,,,,,,,
,,,,,78,2020-07-04_18h32.25.578,retriever_ti,2020.1.3,Win32,60,Chrome,1920,1080,,,,,,,,,,,,,,,,,2,,,,,,,,,,,,,,,,,,,,,,,,,,,672.03991,110,left,2.257205,wolf          ,5,1,3,1,3,672.075705,672.075705,674.56905,0,32,32,32,1,110,5,2,wolf          ,holdfast    ,html/resources/sequences_IDs/A/01_wolf.jpg,html/resources/sequences_IDs/B/04_holdfast.jpg,1,4,1,1,2,1,1,4,0,78,,,,,,,,,,,,,,,,,,,,
,,,,,78,2020-07-04_18h32.25.578,retriever_ti,2020.1.3,Win32,60,Chrome,1920,1080,,,,,,,,,,,,,,,,,2,,,,,,,,,,,,,,,,,,,,,,,,,,,675.17225,111,left,0.926785,sport_tshirt,8,7,4,1,3,675.200065,675.200065,677.68929,0,33,33,33,1,111,8,4,sport_tshirt,gloves      ,html/resources/sequences_IDs/B/07_sport_tshirt.jpg,html/resources/sequences_IDs/B/06_gloves.jpg,7,6,3,2,3,2,6,5,0,78,,,,,,,,,,,,,,,,,,,,
,,,,,78,2020-07-04_18h32.25.578,retriever_ti,2020.1.3,Win32,60,Chrome,1920,1080,,,,,,,,,,,,,,,,,2,,,,,,,,,,,,,,,,,,,,,,,,,,,678.302665,112,left,0.725295,calculator    ,7,9,1,1,1,678.32966,678.32966,680.8232,0,34,34,34,1,112,7,6,calculator    ,dolphin     ,html/resources/sequences_IDs/A/09_calculator.jpg,html/resources/sequences_IDs/B/02_dolphin.jpg,9,2,4,2,1,1,8,2,0,78,,,,,,,,,,,,,,,,,,,,
,,,,,78,2020-07-04_18h32.25.578,retriever_ti,2020.1.3,Win32,60,Chrome,1920,1080,,,,,,,,,,,,,,,,,2,,,,,,,,,,,,,,,,,,,,,,,,,,,681.917105,113,right,0.50479,calculator    ,7,9,2,1,3,681.936685,681.936685,684.424135,0,35,35,35,1,113,5,7,wolf          ,calculator    ,html/resources/sequences_IDs/A/01_wolf.jpg,html/resources/sequences_IDs/A/09_calculator.jpg,1,9,1,1,4,2,1,8,0,78,,,,,,,,,,,,,,,,,,,,
,,,,,78,2020-07-04_18h32.25.578,retriever_ti,2020.1.3,Win32,60,Chrome,1920,1080,,,,,,,,,,,,,,,,,2,,,,,,,,,,,,,,,,,,,,,,,,,,,685.037855,114,right,1.0324,calculator    ,7,9,1,1,1,685.064565,685.064565,687.558305,0,36,36,36,1,114,6,7,dolphin     ,calculator    ,html/resources/sequences_IDs/B/02_dolphin.jpg,html/resources/sequences_IDs/A/09_calculator.jpg,2,9,1,1,4,2,2,8,0,78,,,,,,,,,,,,,,,,,,,,
,,,,,78,2020-07-04_18h32.25.578,retriever_ti,2020.1.3,Win32,60,Chrome,1920,1080,,,,,,,,,,,,,,,,,2,,,,,,,,,,,,,,,,,,,,,,,,,,,688.652605,115,left,0.72089,calculator    ,7,9,-1,0,0,688.66685,688.66685,691.15924,0,37,37,37,1,115,7,8,calculator    ,sport_tshirt,html/resources/sequences_IDs/A/09_calculator.jpg,html/resources/sequences_IDs/B/07_sport_tshirt.jpg,9,7,4,2,3,2,8,6,0,78,,,,,,,,,,,,,,,,,,,,
,,,,,78,2020-07-04_18h32.25.578,retriever_ti,2020.1.3,Win32,60,Chrome,1920,1080,,,,,,,,,,,,,,,,,2,,,,,,,,,,,,,,,,,,,,,,,,,,,692.266215,116,right,0.86384,wolf          ,5,1,-3,0,3,692.28969,692.28969,694.78651,0,38,38,38,1,116,8,5,sport_tshirt,wolf          ,html/resources/sequences_IDs/B/07_sport_tshirt.jpg,html/resources/sequences_IDs/A/01_wolf.jpg,7,1,3,2,1,1,6,1,0,78,,,,,,,,,,,,,,,,,,,,
,,,,,78,2020-07-04_18h32.25.578,retriever_ti,2020.1.3,Win32,60,Chrome,1920,1080,,,,,,,,,,,,,,,,,2,,,,,,,,,,,,,,,,,,,,,,,,,,,695.400355,117,left,1.284095,hat           ,3,8,-2,0,3,695.427825,695.427825,697.934095,0,39,39,39,1,117,3,5,hat           ,wolf          ,html/resources/sequences_IDs/A/08_hat.jpg,html/resources/sequences_IDs/A/01_wolf.jpg,8,1,3,2,1,1,7,1,0,78,,,,,,,,,,,,,,,,,,,,
,,,,,78,2020-07-04_18h32.25.578,retriever_ti,2020.1.3,Win32,60,Chrome,1920,1080,,,,,,,,,,,,,,,,,2,,,,,,,,,,,,,,,,,,,,,,,,,,,698.53466,118,right,0.964155,calculator    ,7,9,6,1,3,698.57448,698.57448,701.068045,0,40,40,40,1,118,1,7,camel         ,calculator    ,html/resources/sequences_IDs/A/03_camel.jpg,html/resources/sequences_IDs/A/09_calculator.jpg,3,9,1,1,4,2,3,8,0,78,,,,,,,,,,,,,,,,,,,,
,,,,,78,2020-07-04_18h32.25.578,retriever_ti,2020.1.3,Win32,60,Chrome,1920,1080,,,,,,,,,,,,,,,,,2,,,,,,,,,,,,,,,,,,,,,,,,,,,701.68127,119,left,0.69661,calculator    ,7,9,-1,0,1,701.708745,701.708745,704.202295,0,41,41,41,1,119,7,8,calculator    ,sport_tshirt,html/resources/sequences_IDs/A/09_calculator.jpg,html/resources/sequences_IDs/B/07_sport_tshirt.jpg,9,7,4,2,3,2,8,6,1,78,,,,,,,,,,,,,,,,,,,,
,,,,,78,2020-07-04_18h32.25.578,retriever_ti,2020.1.3,Win32,60,Chrome,1920,1080,,,,,,,,,,,,,,,,,2,,,,,,,,,,,,,,,,,,,,,,,,,,,705.29271,120,right,0.777105,hat           ,3,8,-3,0,3,705.3227,705.3227,707.816205,0,42,42,42,1,120,6,3,dolphin     ,hat           ,html/resources/sequences_IDs/B/02_dolphin.jpg,html/resources/sequences_IDs/A/08_hat.jpg,2,8,1,1,3,2,2,7,0,78,,,,,,,,,,,,,,,,,,,,
,,,,,78,2020-07-04_18h32.25.578,retriever_ti,2020.1.3,Win32,60,Chrome,1920,1080,,,,,,,,,,,,,,,,,2,,,,,,,,,,,,,,,,,,,,,,,,,,,708.430005,121,right,0.68205,wolf          ,5,1,1,1,1,708.445085,708.445085,710.93719,0,43,43,43,1,121,4,5,gloves      ,wolf          ,html/resources/sequences_IDs/B/06_gloves.jpg,html/resources/sequences_IDs/A/01_wolf.jpg,6,1,3,2,1,1,5,1,0,78,,,,,,,,,,,,,,,,,,,,
,,,,,78,2020-07-04_18h32.25.578,retriever_ti,2020.1.3,Win32,60,Chrome,1920,1080,,,,,,,,,,,,,,,,,2,,,,,,,,,,,,,,,,,,,,,,,,,,,712.031305,122,left,0.833325,camel         ,1,3,-5,0,3,712.044635,712.044635,714.53792,0,44,44,44,1,122,1,6,camel         ,dolphin     ,html/resources/sequences_IDs/A/03_camel.jpg,html/resources/sequences_IDs/B/02_dolphin.jpg,3,2,1,1,1,1,3,2,0,78,,,,,,,,,,,,,,,,,,,,
,,,,,78,2020-07-04_18h32.25.578,retriever_ti,2020.1.3,Win32,60,Chrome,1920,1080,,,,,,,,,,,,,,,,,2,,,,,,,,,,,,,,,,,,,,,,,,,,,715.15154,123,left,2.177335,dolphin     ,6,2,1,1,1,715.17842,715.17842,717.67247,0,45,45,45,1,123,6,5,dolphin     ,wolf          ,html/resources/sequences_IDs/B/02_dolphin.jpg,html/resources/sequences_IDs/A/01_wolf.jpg,2,1,1,1,1,1,2,1,0,78,,,,,,,,,,,,,,,,,,,,
,,,,,78,2020-07-04_18h32.25.578,retriever_ti,2020.1.3,Win32,60,Chrome,1920,1080,,,,,,,,,,,,,,,,,2,,,,,,,,,,,,,,,,,,,,,,,,,,,718.76262,124,right,0.75181,dolphin     ,6,2,4,1,3,718.77962,718.77962,721.273155,0,46,46,46,1,124,2,6,holdfast    ,dolphin     ,html/resources/sequences_IDs/B/04_holdfast.jpg,html/resources/sequences_IDs/B/02_dolphin.jpg,4,2,2,1,1,1,4,2,0,78,,,,,,,,,,,,,,,,,,,,
,,,,,78,2020-07-04_18h32.25.578,retriever_ti,2020.1.3,Win32,60,Chrome,1920,1080,,,,,,,,,,,,,,,,,2,,,,,,,,,,,,,,,,,,,,,,,,,,,721.886245,125,left,0.67135,hat           ,3,8,-1,0,0,721.90036,721.90036,724.39372,0,47,47,47,1,125,3,4,hat           ,gloves      ,html/resources/sequences_IDs/A/08_hat.jpg,html/resources/sequences_IDs/B/06_gloves.jpg,8,6,3,2,3,2,7,5,0,78,,,,,,,,,,,,,,,,,,,,
,,,,,78,2020-07-04_18h32.25.578,retriever_ti,2020.1.3,Win32,60,Chrome,1920,1080,,,,,,,,,,,,,,,,,2,,,,,,,,,,,,,,,,,,,,,,,,,,,725.483665,126,right,1.735985,holdfast    ,2,4,1,1,1,725.515225,725.515225,728.00786,0,48,48,48,1,126,1,2,camel         ,holdfast    ,html/resources/sequences_IDs/A/03_camel.jpg,html/resources/sequences_IDs/B/04_holdfast.jpg,3,4,1,1,2,1,3,4,0,78,,,,,,,,,,,,,,,,,,,,
,,,,,78,2020-07-04_18h32.25.578,retriever_ti,2020.1.3,Win32,60,Chrome,1920,1080,,,,,,,,,,,,,,,,,2,,,,,,,,,,,,,,,,,,,,,,,,,,,729.101845,127,left,0.78158,wolf          ,5,1,1,1,1,729.124775,729.124775,731.622075,0,49,49,49,1,127,5,4,wolf          ,gloves      ,html/resources/sequences_IDs/A/01_wolf.jpg,html/resources/sequences_IDs/B/06_gloves.jpg,1,6,1,1,3,2,1,5,0,78,,,,,,,,,,,,,,,,,,,,
,,,,,78,2020-07-04_18h32.25.578,retriever_ti,2020.1.3,Win32,60,Chrome,1920,1080,,,,,,,,,,,,,,,,,2,,,,,,,,,,,,,,,,,,,,,,,,,,,732.723955,128,left,0.897825,wolf          ,5,1,1,1,1,732.737175,732.737175,735.236395,0,50,50,50,1,128,5,4,wolf          ,gloves      ,html/resources/sequences_IDs/A/01_wolf.jpg,html/resources/sequences_IDs/B/06_gloves.jpg,1,6,1,1,3,2,1,5,0,78,,,,,,,,,,,,,,,,,,,,
,,,,,78,2020-07-04_18h32.25.578,retriever_ti,2020.1.3,Win32,60,Chrome,1920,1080,,,,,,,,,,,,,,,,,2,,,,,,,,,,,,,,,,,,,,,,,,,,,736.337555,129,left,0.99007,calculator    ,7,9,5,1,3,736.37044,736.37044,738.86376,0,51,51,51,1,129,7,2,calculator    ,holdfast    ,html/resources/sequences_IDs/A/09_calculator.jpg,html/resources/sequences_IDs/B/04_holdfast.jpg,9,4,4,2,2,1,8,4,0,78,,,,,,,,,,,,,,,,,,,,
,,,,,78,2020-07-04_18h32.25.578,retriever_ti,2020.1.3,Win32,60,Chrome,1920,1080,,,,,,,,,,,,,,,,,2,,,,,,,,,,,,,,,,,,,,,,,,,,,739.46686,130,right,0.67151,camel         ,1,3,-1,0,1,739.491305,739.491305,741.98405,0,52,52,52,1,130,2,1,holdfast    ,camel         ,html/resources/sequences_IDs/B/04_holdfast.jpg,html/resources/sequences_IDs/A/03_camel.jpg,4,3,2,1,1,1,4,3,1,78,,,,,,,,,,,,,,,,,,,,
,,,,,78,2020-07-04_18h32.25.578,retriever_ti,2020.1.3,Win32,60,Chrome,1920,1080,,,,,,,,,,,,,,,,,2,,,,,,,,,,,,,,,,,,,,,,,,,,,743.091915,131,left,0.73566,gloves      ,4,6,-1,0,1,743.10653,743.10653,745.59905,0,53,53,53,1,131,4,5,gloves      ,wolf          ,html/resources/sequences_IDs/B/06_gloves.jpg,html/resources/sequences_IDs/A/01_wolf.jpg,6,1,3,2,1,1,5,1,1,78,,,,,,,,,,,,,,,,,,,,
,,,,,78,2020-07-04_18h32.25.578,retriever_ti,2020.1.3,Win32,60,Chrome,1920,1080,,,,,,,,,,,,,,,,,2,,,,,,,,,,,,,,,,,,,,,,,,,,,746.688695,132,left,0.78617,camel         ,1,3,-3,0,3,746.71022,746.71022,749.199645,0,54,54,54,1,132,1,4,camel         ,gloves      ,html/resources/sequences_IDs/A/03_camel.jpg,html/resources/sequences_IDs/B/06_gloves.jpg,3,6,1,1,3,2,3,5,0,78,,,,,,,,,,,,,,,,,,,,
,,,,,78,2020-07-04_18h32.25.578,retriever_ti,2020.1.3,Win32,60,Chrome,1920,1080,,,,,,,,,,,,,,,,,2,,,,,,,,,,,,,,,,,,,,,,,,,,,749.800715,133,right,0.62612,calculator    ,7,9,3,1,3,749.826795,749.826795,752.32048,0,55,55,55,1,133,4,7,gloves      ,calculator    ,html/resources/sequences_IDs/B/06_gloves.jpg,html/resources/sequences_IDs/A/09_calculator.jpg,6,9,3,2,4,2,5,8,0,78,,,,,,,,,,,,,,,,,,,,
,,,,,78,2020-07-04_18h32.25.578,retriever_ti,2020.1.3,Win32,60,Chrome,1920,1080,,,,,,,,,,,,,,,,,2,,,,,,,,,,,,,,,,,,,,,,,,,,,752.933795,134,left,0.52352,dolphin     ,6,2,2,1,3,752.96107,752.96107,755.45444,0,56,56,56,1,134,6,4,dolphin     ,gloves      ,html/resources/sequences_IDs/B/02_dolphin.jpg,html/resources/sequences_IDs/B/06_gloves.jpg,2,6,1,1,3,2,2,5,0,78,,,,,,,,,,,,,,,,,,,,
,,,,,78,2020-07-04_18h32.25.578,retriever_ti,2020.1.3,Win32,60,Chrome,1920,1080,,,,,,,,,,,,,,,,,2,,,,,,,,,,,,,,,,,,,,,,,,,,,756.0679,135,left,0.48926,calculator    ,7,9,2,1,3,756.08587,756.08587,758.57527,0,57,57,57,1,135,7,5,calculator    ,wolf          ,html/resources/sequences_IDs/A/09_calculator.jpg,html/resources/sequences_IDs/A/01_wolf.jpg,9,1,4,2,1,1,8,1,0,78,,,,,,,,,,,,,,,,,,,,
,,,,,78,2020-07-04_18h32.25.578,retriever_ti,2020.1.3,Win32,60,Chrome,1920,1080,,,,,,,,,,,,,,,,,2,,,,,,,,,,,,,,,,,,,,,,,,,,,759.19838,136,right,0.495435,calculator    ,7,9,5,1,3,759.2162,759.2162,761.709225,0,58,58,58,1,136,2,7,holdfast    ,calculator    ,html/resources/sequences_IDs/B/04_holdfast.jpg,html/resources/sequences_IDs/A/09_calculator.jpg,4,9,2,1,4,2,4,8,0,78,,,,,,,,,,,,,,,,,,,,
,,,,,78,2020-07-04_18h32.25.578,retriever_ti,2020.1.3,Win32,60,Chrome,1920,1080,,,,,,,,,,,,,,,,,2,,,,,,,,,,,,,,,,,,,,,,,,,,,762.322675,137,left,0.796535,wolf          ,5,1,4,1,3,762.342965,762.342965,764.830065,0,59,59,59,1,137,5,1,wolf          ,camel         ,html/resources/sequences_IDs/A/01_wolf.jpg,html/resources/sequences_IDs/A/03_camel.jpg,1,3,1,1,1,1,1,3,0,78,,,,,,,,,,,,,,,,,,,,
,,,,,78,2020-07-04_18h32.25.578,retriever_ti,2020.1.3,Win32,60,Chrome,1920,1080,,,,,,,,,,,,,,,,,2,,,,,,,,,,,,,,,,,,,,,,,,,,,765.44354,138,left,1.274595,camel         ,1,3,-1,0,0,765.467125,765.467125,767.96414,0,60,60,60,1,138,1,2,camel         ,holdfast    ,html/resources/sequences_IDs/A/03_camel.jpg,html/resources/sequences_IDs/B/04_holdfast.jpg,3,4,1,1,2,1,3,4,0,78,,,,,,,,,,,,,,,,,,,,
,,,,,78,2020-07-04_18h32.25.578,retriever_ti,2020.1.3,Win32,60,Chrome,1920,1080,,,,,,,,,,,,,,,,,2,,,,,,,,,,,,,,,,,,,,,,,,,,,769.058,139,left,1.52582,wolf          ,5,1,2,1,3,769.07141,769.07141,771.565595,0,61,61,61,1,139,5,3,wolf          ,hat           ,html/resources/sequences_IDs/A/01_wolf.jpg,html/resources/sequences_IDs/A/08_hat.jpg,1,8,1,1,3,2,1,7,0,78,,,,,,,,,,,,,,,,,,,,
,,,,,78,2020-07-04_18h32.25.578,retriever_ti,2020.1.3,Win32,60,Chrome,1920,1080,,,,,,,,,,,,,,,,,2,,,,,,,,,,,,,,,,,,,,,,,,,,,772.1785,140,right,2.19044,sport_tshirt,8,7,4,1,3,772.192515,772.192515,774.68533,0,62,62,62,1,140,4,8,gloves      ,sport_tshirt,html/resources/sequences_IDs/B/06_gloves.jpg,html/resources/sequences_IDs/B/07_sport_tshirt.jpg,6,7,3,2,3,2,5,6,0,78,,,,,,,,,,,,,,,,,,,,
,,,,,78,2020-07-04_18h32.25.578,retriever_ti,2020.1.3,Win32,60,Chrome,1920,1080,,,,,,,,,,,,,,,,,2,,,,,,,,,,,,,,,,,,,,,,,,,,,775.296935,141,right,2.24549,hat           ,3,8,-1,0,0,775.337255,775.337255,777.83273,0,63,63,63,1,141,4,3,gloves      ,hat           ,html/resources/sequences_IDs/B/06_gloves.jpg,html/resources/sequences_IDs/A/08_hat.jpg,6,8,3,2,3,2,5,7,0,78,,,,,,,,,,,,,,,,,,,,
,,,,,78,2020-07-04_18h32.25.578,retriever_ti,2020.1.3,Win32,60,Chrome,1920,1080,,,,,,,,,,,,,,,,,2,,,,,,,,,,,,,,,,,,,,,,,,,,,778.92717,142,left,1.03267,holdfast    ,2,4,-6,0,3,778.942165,778.942165,781.4468,0,64,64,64,1,142,2,8,holdfast    ,sport_tshirt,html/resources/sequences_IDs/B/04_holdfast.jpg,html/resources/sequences_IDs/B/07_sport_tshirt.jpg,4,7,2,1,3,2,4,6,0,78,,,,,,,,,,,,,,,,,,,,
,,,,,78,2020-07-04_18h32.25.578,retriever_ti,2020.1.3,Win32,60,Chrome,1920,1080,,,,,,,,,,,,,,,,,2,,,,,,,,,,,,,,,,,,,,,,,,,,,782.050175,143,right,0.776675,hat           ,3,8,1,1,1,782.088105,782.088105,784.595055,0,65,65,65,1,143,2,3,holdfast    ,hat           ,html/resources/sequences_IDs/B/04_holdfast.jpg,html/resources/sequences_IDs/A/08_hat.jpg,4,8,2,1,3,2,4,7,0,78,,,,,,,,,,,,,,,,,,,,
,,,,,78,2020-07-04_18h32.25.578,retriever_ti,2020.1.3,Win32,60,Chrome,1920,1080,,,,,,,,,,,,,,,,,2,,,,,,,,,,,,,,,,,,,,,,,,,,,785.68834,144,left,0.69504,calculator    ,7,9,1,1,0,785.71095,785.71095,788.19945,0,66,66,66,1,144,7,6,calculator    ,dolphin     ,html/resources/sequences_IDs/A/09_calculator.jpg,html/resources/sequences_IDs/B/02_dolphin.jpg,9,2,4,2,1,1,8,2,1,78,,,,,,,,,,,,,,,,,,,,
,,,,,78,2020-07-04_18h32.25.578,retriever_ti,2020.1.3,Win32,60,Chrome,1920,1080,,,,,,,,,,,,,,,,,2,,,,,,,,,,,,,,,,,,,,,,,,,,,789.31001,145,left,1.71105,calculator    ,7,9,6,1,3,789.31718,789.31718,791.80982,0,67,67,67,1,145,7,1,calculator    ,camel         ,html/resources/sequences_IDs/A/09_calculator.jpg,html/resources/sequences_IDs/A/03_camel.jpg,9,3,4,2,1,1,8,3,0,78,,,,,,,,,,,,,,,,,,,,
,,,,,78,2020-07-04_18h32.25.578,retriever_ti,2020.1.3,Win32,60,Chrome,1920,1080,,,,,,,,,,,,,,,,,2,,,,,,,,,,,,,,,,,,,,,,,,,,,792.422865,146,NaN,NaN,No_response,NaN,NaN,NaN,2,2,792.45048,792.45048,794.94403,0,68,68,68,1,146,3,8,hat           ,sport_tshirt,html/resources/sequences_IDs/A/08_hat.jpg,html/resources/sequences_IDs/B/07_sport_tshirt.jpg,8,7,3,2,3,2,7,6,0,78,,,,,,,,,,,,,,,,,,,,
,,,,,78,2020-07-04_18h32.25.578,retriever_ti,2020.1.3,Win32,60,Chrome,1920,1080,,,,,,,,,,,,,,,,,2,,,,,,,,,,,,,,,,,,,,,,,,,,,796.038185,147,left,0.762365,hat           ,3,8,-1,0,1,796.05124,796.05124,798.541115,0,69,69,69,1,147,3,4,hat           ,gloves      ,html/resources/sequences_IDs/A/08_hat.jpg,html/resources/sequences_IDs/B/06_gloves.jpg,8,6,3,2,3,2,7,5,1,78,,,,,,,,,,,,,,,,,,,,
,,,,,78,2020-07-04_18h32.25.578,retriever_ti,2020.1.3,Win32,60,Chrome,1920,1080,,,,,,,,,,,,,,,,,2,,,,,,,,,,,,,,,,,,,,,,,,,,,799.638145,148,left,0.812745,hat           ,3,8,-1,0,0,799.65267,799.65267,802.145725,0,70,70,70,1,148,3,4,hat           ,gloves      ,html/resources/sequences_IDs/A/08_hat.jpg,html/resources/sequences_IDs/B/06_gloves.jpg,8,6,3,2,3,2,7,5,0,78,,,,,,,,,,,,,,,,,,,,
,,,,,78,2020-07-04_18h32.25.578,retriever_ti,2020.1.3,Win32,60,Chrome,1920,1080,,,,,,,,,,,,,,,,,2,,,,,,,,,,,,,,,,,,,,,,,,,,,803.254145,149,left,0.90297,sport_tshirt,8,7,6,1,3,803.279555,803.279555,805.772805,0,71,71,71,1,149,8,2,sport_tshirt,holdfast    ,html/resources/sequences_IDs/B/07_sport_tshirt.jpg,html/resources/sequences_IDs/B/04_holdfast.jpg,7,4,3,2,2,1,6,4,0,78,,,,,,,,,,,,,,,,,,,,
,,,,,78,2020-07-04_18h32.25.578,retriever_ti,2020.1.3,Win32,60,Chrome,1920,1080,,,,,,,,,,,,,,,,,2,,,,,,,,,,,,,,,,,,,,,,,,,,,806.3862,150,right,0.47159,wolf          ,5,1,-1,0,0,806.40078,806.40078,808.893545,0,72,72,72,1,150,6,5,dolphin     ,wolf          ,html/resources/sequences_IDs/B/02_dolphin.jpg,html/resources/sequences_IDs/A/01_wolf.jpg,2,1,1,1,1,1,2,1,0,78,,,,,,,,,,,,,,,,,,,,
,,,,,78,2020-07-04_18h32.25.578,retriever_ti,2020.1.3,Win32,60,Chrome,1920,1080,,,,,,,,,,,,,,,,,2,,,,,,,,,,,,,,,,,,,,,,,,,,,810.00053,151,left,2.267135,holdfast    ,2,4,-3,0,3,810.01858,810.01858,812.511945,0,73,73,73,1,151,2,5,holdfast    ,wolf          ,html/resources/sequences_IDs/B/04_holdfast.jpg,html/resources/sequences_IDs/A/01_wolf.jpg,4,1,2,1,1,1,4,1,0,78,,,,,,,,,,,,,,,,,,,,
,,,,,78,2020-07-04_18h32.25.578,retriever_ti,2020.1.3,Win32,60,Chrome,1920,1080,,,,,,,,,,,,,,,,,2,,,,,,,,,,,,,,,,,,,,,,,,,,,813.12195,152,right,2.263085,camel         ,1,3,-5,0,3,813.16222,813.16222,815.655235,0,74,74,74,1,152,6,1,dolphin     ,camel         ,html/resources/sequences_IDs/B/02_dolphin.jpg,html/resources/sequences_IDs/A/03_camel.jpg,2,3,1,1,1,1,2,3,0,78,,,,,,,,,,,,,,,,,,,,
,,,,,78,2020-07-04_18h32.25.578,retriever_ti,2020.1.3,Win32,60,Chrome,1920,1080,,,,,,,,,,,,,,,,,2,,,,,,,,,,,,,,,,,,,,,,,,,,,816.269455,153,right,1.09458,sport_tshirt,8,7,1,1,1,816.29973,816.29973,818.789325,0,75,75,75,1,153,7,8,calculator    ,sport_tshirt,html/resources/sequences_IDs/A/09_calculator.jpg,html/resources/sequences_IDs/B/07_sport_tshirt.jpg,9,7,4,2,3,2,8,6,0,78,,,,,,,,,,,,,,,,,,,,
,,,,,78,2020-07-04_18h32.25.578,retriever_ti,2020.1.3,Win32,60,Chrome,1920,1080,,,,,,,,,,,,,,,,,2,,,,,,,,,,,,,,,,,,,,,,,,,,,819.88352,154,left,1.0844,holdfast    ,2,4,1,1,1,819.90143,819.90143,822.40645,0,76,76,76,1,154,2,1,holdfast    ,camel         ,html/resources/sequences_IDs/B/04_holdfast.jpg,html/resources/sequences_IDs/A/03_camel.jpg,4,3,2,1,1,1,4,3,0,78,,,,,,,,,,,,,,,,,,,,
,,,,,78,2020-07-04_18h32.25.578,retriever_ti,2020.1.3,Win32,60,Chrome,1920,1080,,,,,,,,,,,,,,,,,,,,,,,,,,,,,,,,,,,,,1,7.173835,,,,,,,,,,,,,,,,,,,,,,,,,,,,,,,,,,,,,,,,,1,0,1,0,1,,,,,,,,,,,,,,,
,,,,,78,2020-07-04_18h32.25.578,retriever_ti,2020.1.3,Win32,60,Chrome,1920,1080,,,,,,,,,,,,,,,,,3,,,,,,,,,,,,,,,,,,,,,,,,,,,842.459815,155,left,1.848535,hat           ,3,8,-3,0,3,842.476775,842.476775,844.96899,0,0,0,0,1,155,3,6,hat           ,dolphin     ,html/resources/sequences_IDs/A/08_hat.jpg,html/resources/sequences_IDs/B/02_dolphin.jpg,8,2,3,2,1,1,7,2,0,78,,,,,,,,,,,,,,,,,,,,
,,,,,78,2020-07-04_18h32.25.578,retriever_ti,2020.1.3,Win32,60,Chrome,1920,1080,,,,,,,,,,,,,,,,,3,,,,,,,,,,,,,,,,,,,,,,,,,,,845.575935,156,right,0.692205,calculator    ,7,9,4,1,3,845.5841,845.5841,848.076795,0,1,1,1,1,156,3,7,hat           ,calculator    ,html/resources/sequences_IDs/A/08_hat.jpg,html/resources/sequences_IDs/A/09_calculator.jpg,8,9,3,2,4,2,7,8,0,78,,,,,,,,,,,,,,,,,,,,
,,,,,78,2020-07-04_18h32.25.578,retriever_ti,2020.1.3,Win32,60,Chrome,1920,1080,,,,,,,,,,,,,,,,,3,,,,,,,,,,,,,,,,,,,,,,,,,,,848.67987,157,right,0.71414,wolf          ,5,1,1,1,1,848.703635,848.703635,851.19767,0,2,2,2,1,157,4,5,gloves      ,wolf          ,html/resources/sequences_IDs/B/06_gloves.jpg,html/resources/sequences_IDs/A/01_wolf.jpg,6,1,3,2,1,1,5,1,0,78,,,,,,,,,,,,,,,,,,,,
,,,,,78,2020-07-04_18h32.25.578,retriever_ti,2020.1.3,Win32,60,Chrome,1920,1080,,,,,,,,,,,,,,,,,3,,,,,,,,,,,,,,,,,,,,,,,,,,,852.291455,158,right,1.23862,sport_tshirt,8,7,3,1,3,852.305715,852.305715,854.798825,0,3,3,3,1,158,5,8,wolf          ,sport_tshirt,html/resources/sequences_IDs/A/01_wolf.jpg,html/resources/sequences_IDs/B/07_sport_tshirt.jpg,1,7,1,1,3,2,1,6,0,78,,,,,,,,,,,,,,,,,,,,
,,,,,78,2020-07-04_18h32.25.578,retriever_ti,2020.1.3,Win32,60,Chrome,1920,1080,,,,,,,,,,,,,,,,,3,,,,,,,,,,,,,,,,,,,,,,,,,,,855.4112,159,left,1.445235,holdfast    ,2,4,1,1,1,855.438125,855.438125,857.93181,0,4,4,4,1,159,2,1,holdfast    ,camel         ,html/resources/sequences_IDs/B/04_holdfast.jpg,html/resources/sequences_IDs/A/03_camel.jpg,4,3,2,1,1,1,4,3,0,78,,,,,,,,,,,,,,,,,,,,
,,,,,78,2020-07-04_18h32.25.578,retriever_ti,2020.1.3,Win32,60,Chrome,1920,1080,,,,,,,,,,,,,,,,,3,,,,,,,,,,,,,,,,,,,,,,,,,,,859.02659,160,left,0.950865,wolf          ,5,1,1,1,1,859.05266,859.05266,861.546315,0,5,5,5,1,160,5,4,wolf          ,gloves      ,html/resources/sequences_IDs/A/01_wolf.jpg,html/resources/sequences_IDs/B/06_gloves.jpg,1,6,1,1,3,2,1,5,0,78,,,,,,,,,,,,,,,,,,,,
,,,,,78,2020-07-04_18h32.25.578,retriever_ti,2020.1.3,Win32,60,Chrome,1920,1080,,,,,,,,,,,,,,,,,3,,,,,,,,,,,,,,,,,,,,,,,,,,,862.639955,161,right,0.916595,camel         ,1,3,-5,0,3,862.667255,862.667255,865.160455,0,6,6,6,1,161,6,1,dolphin     ,camel         ,html/resources/sequences_IDs/B/02_dolphin.jpg,html/resources/sequences_IDs/A/03_camel.jpg,2,3,1,1,1,1,2,3,0,78,,,,,,,,,,,,,,,,,,,,
,,,,,78,2020-07-04_18h32.25.578,retriever_ti,2020.1.3,Win32,60,Chrome,1920,1080,,,,,,,,,,,,,,,,,3,,,,,,,,,,,,,,,,,,,,,,,,,,,865.761435,162,right,0.88907,wolf          ,5,1,3,1,3,865.78733,865.78733,868.28083,0,7,7,7,1,162,2,5,holdfast    ,wolf          ,html/resources/sequences_IDs/B/04_holdfast.jpg,html/resources/sequences_IDs/A/01_wolf.jpg,4,1,2,1,1,1,4,1,0,78,,,,,,,,,,,,,,,,,,,,
,,,,,78,2020-07-04_18h32.25.578,retriever_ti,2020.1.3,Win32,60,Chrome,1920,1080,,,,,,,,,,,,,,,,,3,,,,,,,,,,,,,,,,,,,,,,,,,,,868.89322,163,left,0.61557,sport_tshirt,8,7,6,1,3,868.9086,868.9086,871.401625,0,8,8,8,1,163,8,2,sport_tshirt,holdfast    ,html/resources/sequences_IDs/B/07_sport_tshirt.jpg,html/resources/sequences_IDs/B/04_holdfast.jpg,7,4,3,2,2,1,6,4,0,78,,,,,,,,,,,,,,,,,,,,
,,,,,78,2020-07-04_18h32.25.578,retriever_ti,2020.1.3,Win32,60,Chrome,1920,1080,,,,,,,,,,,,,,,,,3,,,,,,,,,,,,,,,,,,,,,,,,,,,872.00344,164,left,1.44987,calculator    ,7,9,6,1,3,872.043535,872.043535,874.53566,0,9,9,9,1,164,7,1,calculator    ,camel         ,html/resources/sequences_IDs/A/09_calculator.jpg,html/resources/sequences_IDs/A/03_camel.jpg,9,3,4,2,1,1,8,3,0,78,,,,,,,,,,,,,,,,,,,,
,,,,,78,2020-07-04_18h32.25.578,retriever_ti,2020.1.3,Win32,60,Chrome,1920,1080,,,,,,,,,,,,,,,,,3,,,,,,,,,,,,,,,,,,,,,,,,,,,875.137335,165,right,0.98562,sport_tshirt,8,7,2,1,3,875.163525,875.163525,877.665495,0,10,10,10,1,165,6,8,dolphin     ,sport_tshirt,html/resources/sequences_IDs/B/02_dolphin.jpg,html/resources/sequences_IDs/B/07_sport_tshirt.jpg,2,7,1,1,3,2,2,6,0,78,,,,,,,,,,,,,,,,,,,,
,,,,,78,2020-07-04_18h32.25.578,retriever_ti,2020.1.3,Win32,60,Chrome,1920,1080,,,,,,,,,,,,,,,,,3,,,,,,,,,,,,,,,,,,,,,,,,,,,878.270465,166,right,1.20103,dolphin     ,6,2,2,1,3,878.28602,878.28602,880.77772,0,11,11,11,1,166,4,6,gloves      ,dolphin     ,html/resources/sequences_IDs/B/06_gloves.jpg,html/resources/sequences_IDs/B/02_dolphin.jpg,6,2,3,2,1,1,5,2,0,78,,,,,,,,,,,,,,,,,,,,
,,,,,78,2020-07-04_18h32.25.578,retriever_ti,2020.1.3,Win32,60,Chrome,1920,1080,,,,,,,,,,,,,,,,,3,,,,,,,,,,,,,,,,,,,,,,,,,,,881.39068,167,left,2.1615,hat           ,3,8,-2,0,3,881.4047,881.4047,883.89781,0,12,12,12,1,167,3,5,hat           ,wolf          ,html/resources/sequences_IDs/A/08_hat.jpg,html/resources/sequences_IDs/A/01_wolf.jpg,8,1,3,2,1,1,7,1,0,78,,,,,,,,,,,,,,,,,,,,
,,,,,78,2020-07-04_18h32.25.578,retriever_ti,2020.1.3,Win32,60,Chrome,1920,1080,,,,,,,,,,,,,,,,,3,,,,,,,,,,,,,,,,,,,,,,,,,,,884.498515,168,NaN,NaN,No_response,NaN,NaN,NaN,2,2,884.51224,884.51224,887.006635,0,13,13,13,1,168,6,7,dolphin     ,calculator    ,html/resources/sequences_IDs/B/02_dolphin.jpg,html/resources/sequences_IDs/A/09_calculator.jpg,2,9,1,1,4,2,2,8,0,78,,,,,,,,,,,,,,,,,,,,
,,,,,78,2020-07-04_18h32.25.578,retriever_ti,2020.1.3,Win32,60,Chrome,1920,1080,,,,,,,,,,,,,,,,,3,,,,,,,,,,,,,,,,,,,,,,,,,,,888.099275,169,right,0.92346,camel         ,1,3,-4,0,3,888.119415,888.119415,890.60722,0,14,14,14,1,169,5,1,wolf          ,camel         ,html/resources/sequences_IDs/A/01_wolf.jpg,html/resources/sequences_IDs/A/03_camel.jpg,1,3,1,1,1,1,1,3,0,78,,,,,,,,,,,,,,,,,,,,
,,,,,78,2020-07-04_18h32.25.578,retriever_ti,2020.1.3,Win32,60,Chrome,1920,1080,,,,,,,,,,,,,,,,,3,,,,,,,,,,,,,,,,,,,,,,,,,,,891.233685,170,left,0.69835,holdfast    ,2,4,-1,0,0,891.24744,891.24744,893.740785,0,15,15,15,1,170,2,3,holdfast    ,hat           ,html/resources/sequences_IDs/B/04_holdfast.jpg,html/resources/sequences_IDs/A/08_hat.jpg,4,8,2,1,3,2,4,7,0,78,,,,,,,,,,,,,,,,,,,,
,,,,,78,2020-07-04_18h32.25.578,retriever_ti,2020.1.3,Win32,60,Chrome,1920,1080,,,,,,,,,,,,,,,,,3,,,,,,,,,,,,,,,,,,,,,,,,,,,894.84761,171,right,0.815,sport_tshirt,8,7,6,1,3,894.86204,894.86204,897.35449,0,16,16,16,1,171,2,8,holdfast    ,sport_tshirt,html/resources/sequences_IDs/B/04_holdfast.jpg,html/resources/sequences_IDs/B/07_sport_tshirt.jpg,4,7,2,1,3,2,4,6,0,78,,,,,,,,,,,,,,,,,,,,
,,,,,78,2020-07-04_18h32.25.578,retriever_ti,2020.1.3,Win32,60,Chrome,1920,1080,,,,,,,,,,,,,,,,,3,,,,,,,,,,,,,,,,,,,,,,,,,,,897.968115,172,left,0.871875,holdfast    ,2,4,-2,0,3,897.99563,897.99563,900.488555,0,17,17,17,1,172,2,4,holdfast    ,gloves      ,html/resources/sequences_IDs/B/04_holdfast.jpg,html/resources/sequences_IDs/B/06_gloves.jpg,4,6,2,1,3,2,4,5,0,78,,,,,,,,,,,,,,,,,,,,
,,,,,78,2020-07-04_18h32.25.578,retriever_ti,2020.1.3,Win32,60,Chrome,1920,1080,,,,,,,,,,,,,,,,,3,,,,,,,,,,,,,,,,,,,,,,,,,,,901.102145,173,left,1.144765,hat           ,3,8,-1,0,0,901.116245,901.116245,903.61039,0,18,18,18,1,173,3,4,hat           ,gloves      ,html/resources/sequences_IDs/A/08_hat.jpg,html/resources/sequences_IDs/B/06_gloves.jpg,8,6,3,2,3,2,7,5,0,78,,,,,,,,,,,,,,,,,,,,
,,,,,78,2020-07-04_18h32.25.578,retriever_ti,2020.1.3,Win32,60,Chrome,1920,1080,,,,,,,,,,,,,,,,,3,,,,,,,,,,,,,,,,,,,,,,,,,,,904.7037,174,right,0.90844,holdfast    ,2,4,-2,0,3,904.731745,904.731745,907.22379,0,19,19,19,1,174,4,2,gloves      ,holdfast    ,html/resources/sequences_IDs/B/06_gloves.jpg,html/resources/sequences_IDs/B/04_holdfast.jpg,6,4,3,2,2,1,5,4,0,78,,,,,,,,,,,,,,,,,,,,
,,,,,78,2020-07-04_18h32.25.578,retriever_ti,2020.1.3,Win32,60,Chrome,1920,1080,,,,,,,,,,,,,,,,,3,,,,,,,,,,,,,,,,,,,,,,,,,,,907.82822,175,left,0.82863,sport_tshirt,8,7,2,1,3,907.864665,907.864665,910.357465,0,20,20,20,1,175,8,6,sport_tshirt,dolphin     ,html/resources/sequences_IDs/B/07_sport_tshirt.jpg,html/resources/sequences_IDs/B/02_dolphin.jpg,7,2,3,2,1,1,6,2,0,78,,,,,,,,,,,,,,,,,,,,
,,,,,78,2020-07-04_18h32.25.578,retriever_ti,2020.1.3,Win32,60,Chrome,1920,1080,,,,,,,,,,,,,,,,,3,,,,,,,,,,,,,,,,,,,,,,,,,,,910.957945,176,left,0.821625,wolf          ,5,1,2,1,3,910.9853,910.9853,913.481475,0,21,21,21,1,176,5,3,wolf          ,hat           ,html/resources/sequences_IDs/A/01_wolf.jpg,html/resources/sequences_IDs/A/08_hat.jpg,1,8,1,1,3,2,1,7,0,78,,,,,,,,,,,,,,,,,,,,
,,,,,78,2020-07-04_18h32.25.578,retriever_ti,2020.1.3,Win32,60,Chrome,1920,1080,,,,,,,,,,,,,,,,,3,,,,,,,,,,,,,,,,,,,,,,,,,,,914.09327,177,left,0.927675,calculator    ,7,9,5,1,3,914.106835,914.106835,916.600255,0,22,22,22,1,177,7,2,calculator    ,holdfast    ,html/resources/sequences_IDs/A/09_calculator.jpg,html/resources/sequences_IDs/B/04_holdfast.jpg,9,4,4,2,2,1,8,4,0,78,,,,,,,,,,,,,,,,,,,,
,,,,,78,2020-07-04_18h32.25.578,retriever_ti,2020.1.3,Win32,60,Chrome,1920,1080,,,,,,,,,,,,,,,,,3,,,,,,,,,,,,,,,,,,,,,,,,,,,917.201145,178,left,1.096895,sport_tshirt,8,7,5,1,3,917.24037,917.24037,919.73346,0,23,23,23,1,178,8,3,sport_tshirt,hat           ,html/resources/sequences_IDs/B/07_sport_tshirt.jpg,html/resources/sequences_IDs/A/08_hat.jpg,7,8,3,2,3,2,6,7,0,78,,,,,,,,,,,,,,,,,,,,
,,,,,78,2020-07-04_18h32.25.578,retriever_ti,2020.1.3,Win32,60,Chrome,1920,1080,,,,,,,,,,,,,,,,,3,,,,,,,,,,,,,,,,,,,,,,,,,,,920.339065,179,right,1.722895,dolphin     ,6,2,1,1,1,920.36087,920.36087,922.854205,0,24,24,24,1,179,5,6,wolf          ,dolphin     ,html/resources/sequences_IDs/A/01_wolf.jpg,html/resources/sequences_IDs/B/02_dolphin.jpg,1,2,1,1,1,1,1,2,0,78,,,,,,,,,,,,,,,,,,,,
,,,,,78,2020-07-04_18h32.25.578,retriever_ti,2020.1.3,Win32,60,Chrome,1920,1080,,,,,,,,,,,,,,,,,3,,,,,,,,,,,,,,,,,,,,,,,,,,,923.94804,180,left,1.509245,camel         ,1,3,-2,0,3,923.97522,923.97522,926.468075,0,25,25,25,1,180,1,3,camel         ,hat           ,html/resources/sequences_IDs/A/03_camel.jpg,html/resources/sequences_IDs/A/08_hat.jpg,3,8,1,1,3,2,3,7,0,78,,,,,,,,,,,,,,,,,,,,
,,,,,78,2020-07-04_18h32.25.578,retriever_ti,2020.1.3,Win32,60,Chrome,1920,1080,,,,,,,,,,,,,,,,,3,,,,,,,,,,,,,,,,,,,,,,,,,,,927.0694,181,right,0.793045,dolphin     ,6,2,1,1,1,927.09532,927.09532,929.589115,0,26,26,26,1,181,5,6,wolf          ,dolphin     ,html/resources/sequences_IDs/A/01_wolf.jpg,html/resources/sequences_IDs/B/02_dolphin.jpg,1,2,1,1,1,1,1,2,0,78,,,,,,,,,,,,,,,,,,,,
,,,,,78,2020-07-04_18h32.25.578,retriever_ti,2020.1.3,Win32,60,Chrome,1920,1080,,,,,,,,,,,,,,,,,3,,,,,,,,,,,,,,,,,,,,,,,,,,,930.70166,182,right,1.31087,holdfast    ,2,4,1,1,0,930.72331,930.72331,933.216885,0,27,27,27,1,182,1,2,camel         ,holdfast    ,html/resources/sequences_IDs/A/03_camel.jpg,html/resources/sequences_IDs/B/04_holdfast.jpg,3,4,1,1,2,1,3,4,1,78,,,,,,,,,,,,,,,,,,,,
,,,,,78,2020-07-04_18h32.25.578,retriever_ti,2020.1.3,Win32,60,Chrome,1920,1080,,,,,,,,,,,,,,,,,3,,,,,,,,,,,,,,,,,,,,,,,,,,,934.31019,183,left,1.58811,calculator    ,7,9,1,1,1,934.32429,934.32429,936.817135,0,28,28,28,1,183,7,6,calculator    ,dolphin     ,html/resources/sequences_IDs/A/09_calculator.jpg,html/resources/sequences_IDs/B/02_dolphin.jpg,9,2,4,2,1,1,8,2,0,78,,,,,,,,,,,,,,,,,,,,
,,,,,78,2020-07-04_18h32.25.578,retriever_ti,2020.1.3,Win32,60,Chrome,1920,1080,,,,,,,,,,,,,,,,,3,,,,,,,,,,,,,,,,,,,,,,,,,,,937.911195,184,right,1.32547,sport_tshirt,8,7,1,1,1,937.925215,937.925215,940.418865,0,29,29,29,1,184,7,8,calculator    ,sport_tshirt,html/resources/sequences_IDs/A/09_calculator.jpg,html/resources/sequences_IDs/B/07_sport_tshirt.jpg,9,7,4,2,3,2,8,6,0,78,,,,,,,,,,,,,,,,,,,,
,,,,,78,2020-07-04_18h32.25.578,retriever_ti,2020.1.3,Win32,60,Chrome,1920,1080,,,,,,,,,,,,,,,,,3,,,,,,,,,,,,,,,,,,,,,,,,,,,941.51264,185,right,0.944985,calculator    ,7,9,2,1,3,941.53206,941.53206,944.03322,0,30,30,30,1,185,5,7,wolf          ,calculator    ,html/resources/sequences_IDs/A/01_wolf.jpg,html/resources/sequences_IDs/A/09_calculator.jpg,1,9,1,1,4,2,1,8,0,78,,,,,,,,,,,,,,,,,,,,
,,,,,78,2020-07-04_18h32.25.578,retriever_ti,2020.1.3,Win32,60,Chrome,1920,1080,,,,,,,,,,,,,,,,,3,,,,,,,,,,,,,,,,,,,,,,,,,,,944.646135,186,left,0.95213,dolphin     ,6,2,1,1,1,944.674385,944.674385,947.1664,0,31,31,31,1,186,6,5,dolphin     ,wolf          ,html/resources/sequences_IDs/B/02_dolphin.jpg,html/resources/sequences_IDs/A/01_wolf.jpg,2,1,1,1,1,1,2,1,0,78,,,,,,,,,,,,,,,,,,,,
,,,,,78,2020-07-04_18h32.25.578,retriever_ti,2020.1.3,Win32,60,Chrome,1920,1080,,,,,,,,,,,,,,,,,3,,,,,,,,,,,,,,,,,,,,,,,,,,,948.30077,187,left,0.609475,hat           ,3,8,1,1,1,948.31449,948.31449,950.821435,0,32,32,32,1,187,3,2,hat           ,holdfast    ,html/resources/sequences_IDs/A/08_hat.jpg,html/resources/sequences_IDs/B/04_holdfast.jpg,8,4,3,2,2,1,7,4,0,78,,,,,,,,,,,,,,,,,,,,
,,,,,78,2020-07-04_18h32.25.578,retriever_ti,2020.1.3,Win32,60,Chrome,1920,1080,,,,,,,,,,,,,,,,,3,,,,,,,,,,,,,,,,,,,,,,,,,,,951.914885,188,left,0.605145,sport_tshirt,8,7,1,1,0,951.928005,951.928005,954.45271,0,33,33,33,1,188,8,7,sport_tshirt,calculator    ,html/resources/sequences_IDs/B/07_sport_tshirt.jpg,html/resources/sequences_IDs/A/09_calculator.jpg,7,9,3,2,4,2,6,8,1,78,,,,,,,,,,,,,,,,,,,,
,,,,,78,2020-07-04_18h32.25.578,retriever_ti,2020.1.3,Win32,60,Chrome,1920,1080,,,,,,,,,,,,,,,,,3,,,,,,,,,,,,,,,,,,,,,,,,,,,955.542605,189,left,0.99914,dolphin     ,6,2,4,1,3,955.560285,955.560285,958.049195,0,34,34,34,1,189,6,2,dolphin     ,holdfast    ,html/resources/sequences_IDs/B/02_dolphin.jpg,html/resources/sequences_IDs/B/04_holdfast.jpg,2,4,1,1,2,1,2,4,0,78,,,,,,,,,,,,,,,,,,,,
,,,,,78,2020-07-04_18h32.25.578,retriever_ti,2020.1.3,Win32,60,Chrome,1920,1080,,,,,,,,,,,,,,,,,3,,,,,,,,,,,,,,,,,,,,,,,,,,,958.662955,190,left,0.93218,hat           ,3,8,-1,0,0,958.690015,958.690015,961.18368,0,35,35,35,1,190,3,4,hat           ,gloves      ,html/resources/sequences_IDs/A/08_hat.jpg,html/resources/sequences_IDs/B/06_gloves.jpg,8,6,3,2,3,2,7,5,0,78,,,,,,,,,,,,,,,,,,,,
,,,,,78,2020-07-04_18h32.25.578,retriever_ti,2020.1.3,Win32,60,Chrome,1920,1080,,,,,,,,,,,,,,,,,3,,,,,,,,,,,,,,,,,,,,,,,,,,,962.277175,191,right,0.45437,hat           ,3,8,-1,0,1,962.29272,962.29272,964.78455,0,36,36,36,1,191,4,3,gloves      ,hat           ,html/resources/sequences_IDs/B/06_gloves.jpg,html/resources/sequences_IDs/A/08_hat.jpg,6,8,3,2,3,2,5,7,1,78,,,,,,,,,,,,,,,,,,,,
,,,,,78,2020-07-04_18h32.25.578,retriever_ti,2020.1.3,Win32,60,Chrome,1920,1080,,,,,,,,,,,,,,,,,3,,,,,,,,,,,,,,,,,,,,,,,,,,,965.87853,192,right,0.941065,wolf          ,5,1,1,1,1,965.892135,965.892135,968.38504,0,37,37,37,1,192,4,5,gloves      ,wolf          ,html/resources/sequences_IDs/B/06_gloves.jpg,html/resources/sequences_IDs/A/01_wolf.jpg,6,1,3,2,1,1,5,1,0,78,,,,,,,,,,,,,,,,,,,,
,,,,,78,2020-07-04_18h32.25.578,retriever_ti,2020.1.3,Win32,60,Chrome,1920,1080,,,,,,,,,,,,,,,,,3,,,,,,,,,,,,,,,,,,,,,,,,,,,969.48194,193,left,0.87732,camel         ,1,3,-5,0,3,969.505405,969.505405,971.999265,0,38,38,38,1,193,1,6,camel         ,dolphin     ,html/resources/sequences_IDs/A/03_camel.jpg,html/resources/sequences_IDs/B/02_dolphin.jpg,3,2,1,1,1,1,3,2,0,78,,,,,,,,,,,,,,,,,,,,
,,,,,78,2020-07-04_18h32.25.578,retriever_ti,2020.1.3,Win32,60,Chrome,1920,1080,,,,,,,,,,,,,,,,,3,,,,,,,,,,,,,,,,,,,,,,,,,,,972.600345,194,right,0.96109,dolphin     ,6,2,4,1,3,972.63026,972.63026,975.119805,0,39,39,39,1,194,2,6,holdfast    ,dolphin     ,html/resources/sequences_IDs/B/04_holdfast.jpg,html/resources/sequences_IDs/B/02_dolphin.jpg,4,2,2,1,1,1,4,2,0,78,,,,,,,,,,,,,,,,,,,,
,,,,,78,2020-07-04_18h32.25.578,retriever_ti,2020.1.3,Win32,60,Chrome,1920,1080,,,,,,,,,,,,,,,,,3,,,,,,,,,,,,,,,,,,,,,,,,,,,975.73341,195,right,1.86328,wolf          ,5,1,4,1,3,975.75006,975.75006,978.24037,0,40,40,40,1,195,1,5,camel         ,wolf          ,html/resources/sequences_IDs/A/03_camel.jpg,html/resources/sequences_IDs/A/01_wolf.jpg,3,1,1,1,1,1,3,1,0,78,,,,,,,,,,,,,,,,,,,,
,,,,,78,2020-07-04_18h32.25.578,retriever_ti,2020.1.3,Win32,60,Chrome,1920,1080,,,,,,,,,,,,,,,,,3,,,,,,,,,,,,,,,,,,,,,,,,,,,978.84179,196,NaN,NaN,No_response,NaN,NaN,NaN,2,2,978.867675,978.867675,981.36143,0,41,41,41,1,196,4,7,gloves      ,calculator    ,html/resources/sequences_IDs/B/06_gloves.jpg,html/resources/sequences_IDs/A/09_calculator.jpg,6,9,3,2,4,2,5,8,0,78,,,,,,,,,,,,,,,,,,,,
,,,,,78,2020-07-04_18h32.25.578,retriever_ti,2020.1.3,Win32,60,Chrome,1920,1080,,,,,,,,,,,,,,,,,3,,,,,,,,,,,,,,,,,,,,,,,,,,,982.477665,197,left,0.665035,wolf          ,5,1,3,1,3,982.485805,982.485805,984.97531,0,42,42,42,1,197,5,2,wolf          ,holdfast    ,html/resources/sequences_IDs/A/01_wolf.jpg,html/resources/sequences_IDs/B/04_holdfast.jpg,1,4,1,1,2,1,1,4,0,78,,,,,,,,,,,,,,,,,,,,
,,,,,78,2020-07-04_18h32.25.578,retriever_ti,2020.1.3,Win32,60,Chrome,1920,1080,,,,,,,,,,,,,,,,,3,,,,,,,,,,,,,,,,,,,,,,,,,,,985.57592,198,left,1.846165,wolf          ,5,1,1,1,1,985.58937,985.58937,988.083145,0,43,43,43,1,198,5,4,wolf          ,gloves      ,html/resources/sequences_IDs/A/01_wolf.jpg,html/resources/sequences_IDs/B/06_gloves.jpg,1,6,1,1,3,2,1,5,0,78,,,,,,,,,,,,,,,,,,,,
,,,,,78,2020-07-04_18h32.25.578,retriever_ti,2020.1.3,Win32,60,Chrome,1920,1080,,,,,,,,,,,,,,,,,3,,,,,,,,,,,,,,,,,,,,,,,,,,,989.183945,199,right,0.8429,dolphin     ,6,2,1,1,0,989.20363,989.20363,991.697415,0,44,44,44,1,199,5,6,wolf          ,dolphin     ,html/resources/sequences_IDs/A/01_wolf.jpg,html/resources/sequences_IDs/B/02_dolphin.jpg,1,2,1,1,1,1,1,2,1,78,,,,,,,,,,,,,,,,,,,,
,,,,,78,2020-07-04_18h32.25.578,retriever_ti,2020.1.3,Win32,60,Chrome,1920,1080,,,,,,,,,,,,,,,,,3,,,,,,,,,,,,,,,,,,,,,,,,,,,992.804225,200,left,0.96509,calculator    ,7,9,3,1,3,992.807045,992.807045,995.297815,0,45,45,45,1,200,7,4,calculator    ,gloves      ,html/resources/sequences_IDs/A/09_calculator.jpg,html/resources/sequences_IDs/B/06_gloves.jpg,9,6,4,2,3,2,8,5,0,78,,,,,,,,,,,,,,,,,,,,
,,,,,78,2020-07-04_18h32.25.578,retriever_ti,2020.1.3,Win32,60,Chrome,1920,1080,,,,,,,,,,,,,,,,,3,,,,,,,,,,,,,,,,,,,,,,,,,,,995.898625,201,NaN,NaN,No_response,NaN,NaN,NaN,2,2,995.912045,995.912045,998.40565,0,46,46,46,1,201,1,7,camel         ,calculator    ,html/resources/sequences_IDs/A/03_camel.jpg,html/resources/sequences_IDs/A/09_calculator.jpg,3,9,1,1,4,2,3,8,0,78,,,,,,,,,,,,,,,,,,,,
,,,,,78,2020-07-04_18h32.25.578,retriever_ti,2020.1.3,Win32,60,Chrome,1920,1080,,,,,,,,,,,,,,,,,3,,,,,,,,,,,,,,,,,,,,,,,,,,,999.496365,202,left,1.084125,camel         ,1,3,-1,0,0,999.50838,999.50838,1002.006875,0,47,47,47,1,202,1,2,camel         ,holdfast    ,html/resources/sequences_IDs/A/03_camel.jpg,html/resources/sequences_IDs/B/04_holdfast.jpg,3,4,1,1,2,1,3,4,0,78,,,,,,,,,,,,,,,,,,,,
,,,,,78,2020-07-04_18h32.25.578,retriever_ti,2020.1.3,Win32,60,Chrome,1920,1080,,,,,,,,,,,,,,,,,3,,,,,,,,,,,,,,,,,,,,,,,,,,,1003.100405,203,NaN,NaN,No_response,NaN,NaN,NaN,2,2,1003.114205,1003.114205,1005.607285,0,48,48,48,1,203,8,7,sport_tshirt,calculator    ,html/resources/sequences_IDs/B/07_sport_tshirt.jpg,html/resources/sequences_IDs/A/09_calculator.jpg,7,9,3,2,4,2,6,8,0,78,,,,,,,,,,,,,,,,,,,,
,,,,,78,2020-07-04_18h32.25.578,retriever_ti,2020.1.3,Win32,60,Chrome,1920,1080,,,,,,,,,,,,,,,,,3,,,,,,,,,,,,,,,,,,,,,,,,,,,1006.701115,204,left,0.309365,sport_tshirt,8,7,4,1,3,1006.72825,1006.72825,1009.221635,0,49,49,49,1,204,8,4,sport_tshirt,gloves      ,html/resources/sequences_IDs/B/07_sport_tshirt.jpg,html/resources/sequences_IDs/B/06_gloves.jpg,7,6,3,2,3,2,6,5,0,78,,,,,,,,,,,,,,,,,,,,
,,,,,78,2020-07-04_18h32.25.578,retriever_ti,2020.1.3,Win32,60,Chrome,1920,1080,,,,,,,,,,,,,,,,,3,,,,,,,,,,,,,,,,,,,,,,,,,,,1009.83461,205,left,1.822055,dolphin     ,6,2,3,1,3,1009.86279,1009.86279,1012.355335,0,50,50,50,1,205,6,3,dolphin     ,hat           ,html/resources/sequences_IDs/B/02_dolphin.jpg,html/resources/sequences_IDs/A/08_hat.jpg,2,8,1,1,3,2,2,7,0,78,,,,,,,,,,,,,,,,,,,,
,,,,,78,2020-07-04_18h32.25.578,retriever_ti,2020.1.3,Win32,60,Chrome,1920,1080,,,,,,,,,,,,,,,,,3,,,,,,,,,,,,,,,,,,,,,,,,,,,1012.956055,206,NaN,NaN,No_response,NaN,NaN,NaN,2,2,1012.99697,1012.99697,1015.489435,0,51,51,51,1,206,4,8,gloves      ,sport_tshirt,html/resources/sequences_IDs/B/06_gloves.jpg,html/resources/sequences_IDs/B/07_sport_tshirt.jpg,6,7,3,2,3,2,5,6,0,78,,,,,,,,,,,,,,,,,,,,
,,,,,78,2020-07-04_18h32.25.578,retriever_ti,2020.1.3,Win32,60,Chrome,1920,1080,,,,,,,,,,,,,,,,,3,,,,,,,,,,,,,,,,,,,,,,,,,,,1016.583855,207,left,0.54366,camel         ,1,3,-3,0,3,1016.623895,1016.623895,1019.11724,0,52,52,52,1,207,1,4,camel         ,gloves      ,html/resources/sequences_IDs/A/03_camel.jpg,html/resources/sequences_IDs/B/06_gloves.jpg,3,6,1,1,3,2,3,5,0,78,,,,,,,,,,,,,,,,,,,,
,,,,,78,2020-07-04_18h32.25.578,retriever_ti,2020.1.3,Win32,60,Chrome,1920,1080,,,,,,,,,,,,,,,,,3,,,,,,,,,,,,,,,,,,,,,,,,,,,1019.718575,208,right,0.79074,wolf          ,5,1,-2,0,3,1019.757825,1019.757825,1022.2511,0,53,53,53,1,208,7,5,calculator    ,wolf          ,html/resources/sequences_IDs/A/09_calculator.jpg,html/resources/sequences_IDs/A/01_wolf.jpg,9,1,4,2,1,1,8,1,0,78,,,,,,,,,,,,,,,,,,,,
,,,,,78,2020-07-04_18h32.25.578,retriever_ti,2020.1.3,Win32,60,Chrome,1920,1080,,,,,,,,,,,,,,,,,3,,,,,,,,,,,,,,,,,,,,,,,,,,,1022.85456,209,left,0.581,dolphin     ,6,2,-1,0,1,1022.87823,1022.87823,1025.37179,0,54,54,54,1,209,6,7,dolphin     ,calculator    ,html/resources/sequences_IDs/B/02_dolphin.jpg,html/resources/sequences_IDs/A/09_calculator.jpg,2,9,1,1,4,2,2,8,1,78,,,,,,,,,,,,,,,,,,,,
,,,,,78,2020-07-04_18h32.25.578,retriever_ti,2020.1.3,Win32,60,Chrome,1920,1080,,,,,,,,,,,,,,,,,3,,,,,,,,,,,,,,,,,,,,,,,,,,,1026.466315,210,left,0.459905,calculator    ,7,9,4,1,3,1026.495125,1026.495125,1028.98659,0,55,55,55,1,210,7,3,calculator    ,hat           ,html/resources/sequences_IDs/A/09_calculator.jpg,html/resources/sequences_IDs/A/08_hat.jpg,9,8,4,2,3,2,8,7,0,78,,,,,,,,,,,,,,,,,,,,
,,,,,78,2020-07-04_18h32.25.578,retriever_ti,2020.1.3,Win32,60,Chrome,1920,1080,,,,,,,,,,,,,,,,,3,,,,,,,,,,,,,,,,,,,,,,,,,,,1029.590815,211,right,0.7333,sport_tshirt,8,7,7,1,3,1029.61425,1029.61425,1032.120045,0,56,56,56,1,211,1,8,camel         ,sport_tshirt,html/resources/sequences_IDs/A/03_camel.jpg,html/resources/sequences_IDs/B/07_sport_tshirt.jpg,3,7,1,1,3,2,3,6,0,78,,,,,,,,,,,,,,,,,,,,
,,,,,78,2020-07-04_18h32.25.578,retriever_ti,2020.1.3,Win32,60,Chrome,1920,1080,,,,,,,,,,,,,,,,,3,,,,,,,,,,,,,,,,,,,,,,,,,,,1032.723505,212,left,1.365915,holdfast    ,2,4,-1,0,1,1032.734895,1032.734895,1035.227575,0,57,57,57,1,212,2,3,holdfast    ,hat           ,html/resources/sequences_IDs/B/04_holdfast.jpg,html/resources/sequences_IDs/A/08_hat.jpg,4,8,2,1,3,2,4,7,1,78,,,,,,,,,,,,,,,,,,,,
,,,,,78,2020-07-04_18h32.25.578,retriever_ti,2020.1.3,Win32,60,Chrome,1920,1080,,,,,,,,,,,,,,,,,3,,,,,,,,,,,,,,,,,,,,,,,,,,,1036.334965,213,left,1.718625,hat           ,3,8,2,1,3,1036.349085,1036.349085,1038.842295,0,58,58,58,1,213,3,1,hat           ,camel         ,html/resources/sequences_IDs/A/08_hat.jpg,html/resources/sequences_IDs/A/03_camel.jpg,8,3,3,2,1,1,7,3,0,78,,,,,,,,,,,,,,,,,,,,
,,,,,78,2020-07-04_18h32.25.578,retriever_ti,2020.1.3,Win32,60,Chrome,1920,1080,,,,,,,,,,,,,,,,,3,,,,,,,,,,,,,,,,,,,,,,,,,,,1039.45564,214,left,1.28759,calculator    ,7,9,1,1,1,1039.47042,1039.47042,1041.962355,0,59,59,59,1,214,7,6,calculator    ,dolphin     ,html/resources/sequences_IDs/A/09_calculator.jpg,html/resources/sequences_IDs/B/02_dolphin.jpg,9,2,4,2,1,1,8,2,0,78,,,,,,,,,,,,,,,,,,,,
,,,,,78,2020-07-04_18h32.25.578,retriever_ti,2020.1.3,Win32,60,Chrome,1920,1080,,,,,,,,,,,,,,,,,3,,,,,,,,,,,,,,,,,,,,,,,,,,,1043.07811,215,left,0.77171,sport_tshirt,8,7,3,1,3,1043.08515,1043.08515,1045.57645,0,60,60,60,1,215,8,5,sport_tshirt,wolf          ,html/resources/sequences_IDs/B/07_sport_tshirt.jpg,html/resources/sequences_IDs/A/01_wolf.jpg,7,1,3,2,1,1,6,1,0,78,,,,,,,,,,,,,,,,,,,,
,,,,,78,2020-07-04_18h32.25.578,retriever_ti,2020.1.3,Win32,60,Chrome,1920,1080,,,,,,,,,,,,,,,,,3,,,,,,,,,,,,,,,,,,,,,,,,,,,1046.176835,216,right,0.624745,hat           ,3,8,1,1,1,1046.19078,1046.19078,1048.684985,0,61,61,61,1,216,2,3,holdfast    ,hat           ,html/resources/sequences_IDs/B/04_holdfast.jpg,html/resources/sequences_IDs/A/08_hat.jpg,4,8,2,1,3,2,4,7,0,78,,,,,,,,,,,,,,,,,,,,
,,,,,78,2020-07-04_18h32.25.578,retriever_ti,2020.1.3,Win32,60,Chrome,1920,1080,,,,,,,,,,,,,,,,,3,,,,,,,,,,,,,,,,,,,,,,,,,,,1049.779425,217,left,0.823855,dolphin     ,6,2,-1,0,0,1049.81054,1049.81054,1052.29813,0,62,62,62,1,217,6,7,dolphin     ,calculator    ,html/resources/sequences_IDs/B/02_dolphin.jpg,html/resources/sequences_IDs/A/09_calculator.jpg,2,9,1,1,4,2,2,8,0,78,,,,,,,,,,,,,,,,,,,,
,,,,,78,2020-07-04_18h32.25.578,retriever_ti,2020.1.3,Win32,60,Chrome,1920,1080,,,,,,,,,,,,,,,,,3,,,,,,,,,,,,,,,,,,,,,,,,,,,1053.40543,218,left,0.76917,hat           ,3,8,1,1,1,1053.41914,1053.41914,1055.91257,0,63,63,63,1,218,3,2,hat           ,holdfast    ,html/resources/sequences_IDs/A/08_hat.jpg,html/resources/sequences_IDs/B/04_holdfast.jpg,8,4,3,2,2,1,7,4,0,78,,,,,,,,,,,,,,,,,,,,
,,,,,78,2020-07-04_18h32.25.578,retriever_ti,2020.1.3,Win32,60,Chrome,1920,1080,,,,,,,,,,,,,,,,,3,,,,,,,,,,,,,,,,,,,,,,,,,,,1057.006875,219,right,0.810685,camel         ,1,3,-3,0,3,1057.0374,1057.0374,1059.52672,0,64,64,64,1,219,4,1,gloves      ,camel         ,html/resources/sequences_IDs/B/06_gloves.jpg,html/resources/sequences_IDs/A/03_camel.jpg,6,3,3,2,1,1,5,3,0,78,,,,,,,,,,,,,,,,,,,,
,,,,,78,2020-07-04_18h32.25.578,retriever_ti,2020.1.3,Win32,60,Chrome,1920,1080,,,,,,,,,,,,,,,,,3,,,,,,,,,,,,,,,,,,,,,,,,,,,1060.12836,220,right,0.70375,calculator    ,7,9,5,1,3,1060.167635,1060.167635,1062.660845,0,65,65,65,1,220,2,7,holdfast    ,calculator    ,html/resources/sequences_IDs/B/04_holdfast.jpg,html/resources/sequences_IDs/A/09_calculator.jpg,4,9,2,1,4,2,4,8,0,78,,,,,,,,,,,,,,,,,,,,
,,,,,78,2020-07-04_18h32.25.578,retriever_ti,2020.1.3,Win32,60,Chrome,1920,1080,,,,,,,,,,,,,,,,,3,,,,,,,,,,,,,,,,,,,,,,,,,,,1063.265975,221,left,0.50555,calculator    ,7,9,-1,0,0,1063.30198,1063.30198,1065.795515,0,66,66,66,1,221,7,8,calculator    ,sport_tshirt,html/resources/sequences_IDs/A/09_calculator.jpg,html/resources/sequences_IDs/B/07_sport_tshirt.jpg,9,7,4,2,3,2,8,6,0,78,,,,,,,,,,,,,,,,,,,,
,,,,,78,2020-07-04_18h32.25.578,retriever_ti,2020.1.3,Win32,60,Chrome,1920,1080,,,,,,,,,,,,,,,,,3,,,,,,,,,,,,,,,,,,,,,,,,,,,1066.90181,222,left,0.91033,dolphin     ,6,2,2,1,3,1066.92867,1066.92867,1069.434985,0,67,67,67,1,222,6,4,dolphin     ,gloves      ,html/resources/sequences_IDs/B/02_dolphin.jpg,html/resources/sequences_IDs/B/06_gloves.jpg,2,6,1,1,3,2,2,5,0,78,,,,,,,,,,,,,,,,,,,,
