instructionsLoop.thisRepN,instructionsLoop.thisTrialN,instructionsLoop.thisN,instructionsLoop.thisIndex,instructionsLoop.ran,participant,date,expName,psychopyVersion,OS,frameRate,browser,xResolution,yResolution,fix_onset,tprac,practiceKey.keys,practiceKey.rt,pracitem_chosen_name,acc_practice,P1_onsetPrac,P2_onsetPrac,onsetFeedbPrac,practiceTrials.thisRepN,practiceTrials.thisTrialN,practiceTrials.thisN,practiceTrials.thisIndex,practiceTrials.ran,P1,P2,Block,LocItem1,LocItem2,NameItem1,NameItem2,key_respAC_prac.keys,key_respAC_prac.corr,key_respAC_prac.rt,AC_acc,Attentions.thisRepN,Attentions.thisTrialN,Attentions.thisN,Attentions.thisIndex,Attentions.ran,Stim,Loc1,Loc2,Loc3,Loc4,CorrAns,keyDisturbed.keys,keyDisturbed.rt,repPractice.thisRepN,repPractice.thisTrialN,repPractice.thisN,repPractice.thisIndex,repPractice.ran,fixcross_onsetMain,trialNumber,key_resp.keys,key_resp.rt,item_chosen_name,item_chosen_value,item_chosen_ID,diff_chosen_minus_reject,acc_real,acc_feedback,P1_onset,P2_onset,feedb_onset,trials.thisRepN,trials.thisTrialN,trials.thisN,trials.thisIndex,trials.ran,Trial,ValueP1,ValueP2,P1name,P2name,P1Loc,P2Loc,P1id,P2id,Micro_categoryP1,Macro_categoryP1,Micro_categoryP2,Macro_categoryP2,ID_sequenceP1,ID_sequenceP2,InverseFb,pNumber,repBlocks.thisRepN,repBlocks.thisTrialN,repBlocks.thisN,repBlocks.thisIndex,repBlocks.ran,key_respAC.keys,key_respAC.corr,key_respAC.rt,trials_AC.thisRepN,trials_AC.thisTrialN,trials_AC.thisN,trials_AC.thisIndex,trials_AC.ran,Bonus,BonusLoop.thisRepN,BonusLoop.thisTrialN,BonusLoop.thisN,BonusLoop.thisIndex,BonusLoop.ran,comments
0,0,0,0,1,79,2020-07-04_12h37.49.571,retriever_ti,2020.1.3,MacIntel,60,Chrome,1280,800,,,,,,,,,,,,,,,,,,,,,,,,,,,,,,,,,,,,,,,,,,,,,,,,,,,,,,,,,,,,,,,,,,,,,,,,,,,,,,,,,,,,,,,,,,,,,,,,,,
1,0,1,0,1,79,2020-07-04_12h37.49.571,retriever_ti,2020.1.3,MacIntel,60,Chrome,1280,800,,,,,,,,,,,,,,,,,,,,,,,,,,,,,,,,,,,,,,,,,,,,,,,,,,,,,,,,,,,,,,,,,,,,,,,,,,,,,,,,,,,,,,,,,,,,,,,,,,
2,0,2,0,1,79,2020-07-04_12h37.49.571,retriever_ti,2020.1.3,MacIntel,60,Chrome,1280,800,,,,,,,,,,,,,,,,,,,,,,,,,,,,,,,,,,,,,,,,,,,,,,,,,,,,,,,,,,,,,,,,,,,,,,,,,,,,,,,,,,,,,,,,,,,,,,,,,,
3,0,3,0,1,79,2020-07-04_12h37.49.571,retriever_ti,2020.1.3,MacIntel,60,Chrome,1280,800,,,,,,,,,,,,,,,,,,,,,,,,,,,,,,,,,,,,,,,,,,,,,,,,,,,,,,,,,,,,,,,,,,,,,,,,,,,,,,,,,,,,,,,,,,,,,,,,,,
4,0,4,0,1,79,2020-07-04_12h37.49.571,retriever_ti,2020.1.3,MacIntel,60,Chrome,1280,800,,,,,,,,,,,,,,,,,,,,,,,,,,,,,,,,,,,,,,,,,,,,,,,,,,,,,,,,,,,,,,,,,,,,,,,,,,,,,,,,,,,,,,,,,,,,,,,,,,
5,0,5,0,1,79,2020-07-04_12h37.49.571,retriever_ti,2020.1.3,MacIntel,60,Chrome,1280,800,,,,,,,,,,,,,,,,,,,,,,,,,,,,,,,,,,,,,,,,,,,,,,,,,,,,,,,,,,,,,,,,,,,,,,,,,,,,,,,,,,,,,,,,,,,,,,,,,,
6,0,6,0,1,79,2020-07-04_12h37.49.571,retriever_ti,2020.1.3,MacIntel,60,Chrome,1280,800,,,,,,,,,,,,,,,,,,,,,,,,,,,,,,,,,,,,,,,,,,,,,,,,,,,,,,,,,,,,,,,,,,,,,,,,,,,,,,,,,,,,,,,,,,,,,,,,,,
7,0,7,0,1,79,2020-07-04_12h37.49.571,retriever_ti,2020.1.3,MacIntel,60,Chrome,1280,800,,,,,,,,,,,,,,,,,,,,,,,,,,,,,,,,,,,,,,,,,,,,,,,,,,,,,,,,,,,,,,,,,,,,,,,,,,,,,,,,,,,,,,,,,,,,,,,,,,
8,0,8,0,1,79,2020-07-04_12h37.49.571,retriever_ti,2020.1.3,MacIntel,60,Chrome,1280,800,,,,,,,,,,,,,,,,,,,,,,,,,,,,,,,,,,,,,,,,,,,,,,,,,,,,,,,,,,,,,,,,,,,,,,,,,,,,,,,,,,,,,,,,,,,,,,,,,,
9,0,9,0,1,79,2020-07-04_12h37.49.571,retriever_ti,2020.1.3,MacIntel,60,Chrome,1280,800,,,,,,,,,,,,,,,,,,,,,,,,,,,,,,,,,,,,,,,,,,,,,,,,,,,,,,,,,,,,,,,,,,,,,,,,,,,,,,,,,,,,,,,,,,,,,,,,,,
10,0,10,0,1,79,2020-07-04_12h37.49.571,retriever_ti,2020.1.3,MacIntel,60,Chrome,1280,800,,,,,,,,,,,,,,,,,,,,,,,,,,,,,,,,,,,,,,,,,,,,,,,,,,,,,,,,,,,,,,,,,,,,,,,,,,,,,,,,,,,,,,,,,,,,,,,,,,
11,0,11,0,1,79,2020-07-04_12h37.49.571,retriever_ti,2020.1.3,MacIntel,60,Chrome,1280,800,,,,,,,,,,,,,,,,,,,,,,,,,,,,,,,,,,,,,,,,,,,,,,,,,,,,,,,,,,,,,,,,,,,,,,,,,,,,,,,,,,,,,,,,,,,,,,,,,,
12,0,12,0,1,79,2020-07-04_12h37.49.571,retriever_ti,2020.1.3,MacIntel,60,Chrome,1280,800,,,,,,,,,,,,,,,,,,,,,,,,,,,,,,,,,,,,,,,,,,,,,,,,,,,,,,,,,,,,,,,,,,,,,,,,,,,,,,,,,,,,,,,,,,,,,,,,,,
13,0,13,0,1,79,2020-07-04_12h37.49.571,retriever_ti,2020.1.3,MacIntel,60,Chrome,1280,800,,,,,,,,,,,,,,,,,,,,,,,,,,,,,,,,,,,,,,,,,,,,,,,,,,,,,,,,,,,,,,,,,,,,,,,,,,,,,,,,,,,,,,,,,,,,,,,,,,
14,0,14,0,1,79,2020-07-04_12h37.49.571,retriever_ti,2020.1.3,MacIntel,60,Chrome,1280,800,,,,,,,,,,,,,,,,,,,,,,,,,,,,,,,,,,,,,,,,,,,,,,,,,,,,,,,,,,,,,,,,,,,,,,,,,,,,,,,,,,,,,,,,,,,,,,,,,,
,,,,,79,2020-07-04_12h37.49.571,retriever_ti,2020.1.3,MacIntel,60,Chrome,1280,800,197.03716,1,NaN,NaN,No_response,2,197.062565,197.062565,199.555785,0,0,0,0,1,2,5,1,html/resources/stimuli_practice_decision/04_beetle.jpg,html/resources/stimuli_practice_decision/02_canary.jpg,beetle,canary,,,,,,,,,,,,,,,,,,,,,,,,,,,,,,,,,,,,,,,,,,,,,,,,,,,,,,,,,,,,,,,,,,,,,,,,,,,,,
,,,,,79,2020-07-04_12h37.49.571,retriever_ti,2020.1.3,MacIntel,60,Chrome,1280,800,200.08418,2,right,1.420015,sock,0,200.112295,200.112295,202.611215,0,1,1,1,1,4,3,1,html/resources/stimuli_practice_decision/01_rabbit.jpg,html/resources/stimuli_practice_decision/07_sock.jpg,rabbit,sock,,,,,,,,,,,,,,,,,,,,,,,,,,,,,,,,,,,,,,,,,,,,,,,,,,,,,,,,,,,,,,,,,,,,,,,,,,,,,
,,,,,79,2020-07-04_12h37.49.571,retriever_ti,2020.1.3,MacIntel,60,Chrome,1280,800,203.614205,3,right,1.92665,beetle,0,203.641945,203.641945,206.135895,0,2,2,2,1,6,2,1,html/resources/stimuli_practice_decision/06_pullover.jpg,html/resources/stimuli_practice_decision/04_beetle.jpg,pullover,beetle,,,,,,,,,,,,,,,,,,,,,,,,,,,,,,,,,,,,,,,,,,,,,,,,,,,,,,,,,,,,,,,,,,,,,,,,,,,,,
,,,,,79,2020-07-04_12h37.49.571,retriever_ti,2020.1.3,MacIntel,60,Chrome,1280,800,206.65172,4,right,1.79063,handmixer,0,206.66979,206.66979,209.15864,0,3,3,3,1,7,1,1,html/resources/stimuli_practice_decision/05_glasses.jpg,html/resources/stimuli_practice_decision/08_handmixer.jpg,glasses,handmixer,,,,,,,,,,,,,,,,,,,,,,,,,,,,,,,,,,,,,,,,,,,,,,,,,,,,,,,,,,,,,,,,,,,,,,,,,,,,,
,,,,,79,2020-07-04_12h37.49.571,retriever_ti,2020.1.3,MacIntel,60,Chrome,1280,800,209.660595,5,left,1.34055,glasses,1,209.6951,209.6951,212.18174,0,4,4,4,1,7,6,1,html/resources/stimuli_practice_decision/05_glasses.jpg,html/resources/stimuli_practice_decision/06_pullover.jpg,glasses,pullover,,,,,,,,,,,,,,,,,,,,,,,,,,,,,,,,,,,,,,,,,,,,,,,,,,,,,,,,,,,,,,,,,,,,,,,,,,,,,
,,,,,79,2020-07-04_12h37.49.571,retriever_ti,2020.1.3,MacIntel,60,Chrome,1280,800,213.179775,6,left,1.28211,rabbit,0,213.219485,213.219485,215.70652,0,5,5,5,1,4,7,1,html/resources/stimuli_practice_decision/01_rabbit.jpg,html/resources/stimuli_practice_decision/05_glasses.jpg,rabbit,glasses,,,,,,,,,,,,,,,,,,,,,,,,,,,,,,,,,,,,,,,,,,,,,,,,,,,,,,,,,,,,,,,,,,,,,,,,,,,,,
,,,,,79,2020-07-04_12h37.49.571,retriever_ti,2020.1.3,MacIntel,60,Chrome,1280,800,216.22385,7,left,1.152505,handmixer,0,216.25906,216.25906,218.746395,0,6,6,6,1,1,2,1,html/resources/stimuli_practice_decision/08_handmixer.jpg,html/resources/stimuli_practice_decision/04_beetle.jpg,handmixer,beetle,,,,,,,,,,,,,,,,,,,,,,,,,,,,,,,,,,,,,,,,,,,,,,,,,,,,,,,,,,,,,,,,,,,,,,,,,,,,,
,,,,,79,2020-07-04_12h37.49.571,retriever_ti,2020.1.3,MacIntel,60,Chrome,1280,800,219.74988,8,left,1.43733,rabbit,1,219.76099,219.76099,222.25404,0,7,7,7,1,4,3,1,html/resources/stimuli_practice_decision/01_rabbit.jpg,html/resources/stimuli_practice_decision/07_sock.jpg,rabbit,sock,,,,,,,,,,,,,,,,,,,,,,,,,,,,,,,,,,,,,,,,,,,,,,,,,,,,,,,,,,,,,,,,,,,,,,,,,,,,,
,,,,,79,2020-07-04_12h37.49.571,retriever_ti,2020.1.3,MacIntel,60,Chrome,1280,800,,,,,,,,,,,,,,,,,,,,,,left,1,2.07203,1,0,0,0,2,1,html/resources/sequences_IDs/square1.png,star ↑,triangle →,circle ↓,← square,left,,,,,,,,,,,,,,,,,,,,,,,,,,,,,,,,,,,,,,,,,,,,,,,,,,,,,,,,,,,,,,
,,,,,79,2020-07-04_12h37.49.571,retriever_ti,2020.1.3,MacIntel,60,Chrome,1280,800,,,,,,,,,,,,,,,,,,,,,,down,1,1.60241,1,0,1,1,1,1,html/resources/sequences_IDs/star.png,square ↑,circle →,star ↓,← triangle,down,,,,,,,,,,,,,,,,,,,,,,,,,,,,,,,,,,,,,,,,,,,,,,,,,,,,,,,,,,,,,,
,,,,,79,2020-07-04_12h37.49.571,retriever_ti,2020.1.3,MacIntel,60,Chrome,1280,800,,,,,,,,,,,,,,,,,,,,,,up,1,1.2943,1,0,2,2,0,1,html/resources/sequences_IDs/circle.png,circle ↑,square →,triangle ↓,← star ,up,,,,,,,,,,,,,,,,,,,,,,,,,,,,,,,,,,,,,,,,,,,,,,,,,,,,,,,,,,,,,,
,,,,,79,2020-07-04_12h37.49.571,retriever_ti,2020.1.3,MacIntel,60,Chrome,1280,800,,,,,,,,,,,,,,,,,,,,,,down,1,1.473615,1,0,3,3,3,1,html/resources/sequences_IDs/triangle.png,star ↑,square →,triangle ↓,← circle,down,,,,,,,,,,,,,,,,,,,,,,,,,,,,,,,,,,,,,,,,,,,,,,,,,,,,,,,,,,,,,,
,,,,,79,2020-07-04_12h37.49.571,retriever_ti,2020.1.3,MacIntel,60,Chrome,1280,800,,,,,,,,,,,,,,,,,,,,,,,,,,,,,,,,,,,,,0,8.169345,0,0,0,0,1,,,,,,,,,,,,,,,,,,,,,,,,,,,,,,,,,,,,,,,,,,,,,,,,,,,,,,,
,,,,,79,2020-07-04_12h37.49.571,retriever_ti,2020.1.3,MacIntel,60,Chrome,1280,800,246.896715,9,right,1.070745,glasses,1,246.90725,246.90725,249.39561,0,0,0,0,1,6,7,1,html/resources/stimuli_practice_decision/06_pullover.jpg,html/resources/stimuli_practice_decision/05_glasses.jpg,pullover,glasses,,,,,,,,,,,,,,,,,,,,,,,,,,,,,,,,,,,,,,,,,,,,,,,,,,,,,,,,,,,,,,,,,,,,,,,,,,,,,
,,,,,79,2020-07-04_12h37.49.571,retriever_ti,2020.1.3,MacIntel,60,Chrome,1280,800,250.39195,10,right,1.358055,beetle,0,250.432775,250.432775,252.92022,0,1,1,1,1,6,2,1,html/resources/stimuli_practice_decision/06_pullover.jpg,html/resources/stimuli_practice_decision/04_beetle.jpg,pullover,beetle,,,,,,,,,,,,,,,,,,,,,,,,,,,,,,,,,,,,,,,,,,,,,,,,,,,,,,,,,,,,,,,,,,,,,,,,,,,,,
,,,,,79,2020-07-04_12h37.49.571,retriever_ti,2020.1.3,MacIntel,60,Chrome,1280,800,253.439635,11,left,1.304605,canary,0,253.45095,253.45095,255.94302,0,2,2,2,1,5,6,1,html/resources/stimuli_practice_decision/02_canary.jpg,html/resources/stimuli_practice_decision/06_pullover.jpg,canary,pullover,,,,,,,,,,,,,,,,,,,,,,,,,,,,,,,,,,,,,,,,,,,,,,,,,,,,,,,,,,,,,,,,,,,,,,,,,,,,,
,,,,,79,2020-07-04_12h37.49.571,retriever_ti,2020.1.3,MacIntel,60,Chrome,1280,800,256.945395,12,left,1.68627,squirrel,1,256.95699,256.95699,259.45023,0,3,3,3,1,8,7,1,html/resources/stimuli_practice_decision/03_squirrel.jpg,html/resources/stimuli_practice_decision/05_glasses.jpg,squirrel,glasses,,,,,,,,,,,,,,,,,,,,,,,,,,,,,,,,,,,,,,,,,,,,,,,,,,,,,,,,,,,,,,,,,,,,,,,,,,,,,
,,,,,79,2020-07-04_12h37.49.571,retriever_ti,2020.1.3,MacIntel,60,Chrome,1280,800,260.45417,13,left,1.27386,canary,1,260.48801,260.48801,262.97506,0,4,4,4,1,5,3,1,html/resources/stimuli_practice_decision/02_canary.jpg,html/resources/stimuli_practice_decision/07_sock.jpg,canary,sock,,,,,,,,,,,,,,,,,,,,,,,,,,,,,,,,,,,,,,,,,,,,,,,,,,,,,,,,,,,,,,,,,,,,,,,,,,,,,
,,,,,79,2020-07-04_12h37.49.571,retriever_ti,2020.1.3,MacIntel,60,Chrome,1280,800,263.4778,14,left,1.286715,glasses,0,263.48895,263.48895,265.98164,0,5,5,5,1,7,8,1,html/resources/stimuli_practice_decision/05_glasses.jpg,html/resources/stimuli_practice_decision/03_squirrel.jpg,glasses,squirrel,,,,,,,,,,,,,,,,,,,,,,,,,,,,,,,,,,,,,,,,,,,,,,,,,,,,,,,,,,,,,,,,,,,,,,,,,,,,,
,,,,,79,2020-07-04_12h37.49.571,retriever_ti,2020.1.3,MacIntel,60,Chrome,1280,800,266.979245,15,right,1.134995,rabbit,0,267.018015,267.018015,269.50545,0,6,6,6,1,5,4,1,html/resources/stimuli_practice_decision/02_canary.jpg,html/resources/stimuli_practice_decision/01_rabbit.jpg,canary,rabbit,,,,,,,,,,,,,,,,,,,,,,,,,,,,,,,,,,,,,,,,,,,,,,,,,,,,,,,,,,,,,,,,,,,,,,,,,,,,,
,,,,,79,2020-07-04_12h37.49.571,retriever_ti,2020.1.3,MacIntel,60,Chrome,1280,800,270.50391,16,left,1.061395,canary,1,270.543005,270.543005,273.030545,0,7,7,7,1,5,3,1,html/resources/stimuli_practice_decision/02_canary.jpg,html/resources/stimuli_practice_decision/07_sock.jpg,canary,sock,,,,,,,,,,,,,,,,,,,,,,,,,,,,,,,,,,,,,,,,,,,,,,,,,,,,,,,,,,,,,,,,,,,,,,,,,,,,,
,,,,,79,2020-07-04_12h37.49.571,retriever_ti,2020.1.3,MacIntel,60,Chrome,1280,800,,,,,,,,,,,,,,,,,,,,,,down,1,1.38419,1,0,0,0,1,1,html/resources/sequences_IDs/star.png,square ↑,circle →,star ↓,← triangle,down,,,,,,,,,,,,,,,,,,,,,,,,,,,,,,,,,,,,,,,,,,,,,,,,,,,,,,,,,,,,,,
,,,,,79,2020-07-04_12h37.49.571,retriever_ti,2020.1.3,MacIntel,60,Chrome,1280,800,,,,,,,,,,,,,,,,,,,,,,left,1,1.25421,1,0,1,1,2,1,html/resources/sequences_IDs/square1.png,star ↑,triangle →,circle ↓,← square,left,,,,,,,,,,,,,,,,,,,,,,,,,,,,,,,,,,,,,,,,,,,,,,,,,,,,,,,,,,,,,,
,,,,,79,2020-07-04_12h37.49.571,retriever_ti,2020.1.3,MacIntel,60,Chrome,1280,800,,,,,,,,,,,,,,,,,,,,,,down,1,1.55562,1,0,2,2,3,1,html/resources/sequences_IDs/triangle.png,star ↑,square →,triangle ↓,← circle,down,,,,,,,,,,,,,,,,,,,,,,,,,,,,,,,,,,,,,,,,,,,,,,,,,,,,,,,,,,,,,,
,,,,,79,2020-07-04_12h37.49.571,retriever_ti,2020.1.3,MacIntel,60,Chrome,1280,800,,,,,,,,,,,,,,,,,,,,,,up,1,1.23778,1,0,3,3,0,1,html/resources/sequences_IDs/circle.png,circle ↑,square →,triangle ↓,← star ,up,,,,,,,,,,,,,,,,,,,,,,,,,,,,,,,,,,,,,,,,,,,,,,,,,,,,,,,,,,,,,,
,,,,,79,2020-07-04_12h37.49.571,retriever_ti,2020.1.3,MacIntel,60,Chrome,1280,800,,,,,,,,,,,,,,,,,,,,,,,,,,,,,,,,,,,,,0,3.13601,1,0,1,0,1,,,,,,,,,,,,,,,,,,,,,,,,,,,,,,,,,,,,,,,,,,,,,,,,,,,,,,,
,,,,,79,2020-07-04_12h37.49.571,retriever_ti,2020.1.3,MacIntel,60,Chrome,1280,800,,,,,,,,,,,,,,,,,1,,,,,,,,,,,,,,,,,,,,,,,,,,,295.04398,1,right,0.91644,radio       ,6,10,1,1,1,295.05474,295.05474,297.550595,0,0,0,0,1,1,5,6,scarf         ,radio       ,html/resources/sequences_IDs/A/06_scarf.jpg,html/resources/sequences_IDs/B/10_radio.jpg,6,10,3,2,4,2,5,8,0,79,,,,,,,,,,,,,,,,,,,,
,,,,,79,2020-07-04_12h37.49.571,retriever_ti,2020.1.3,MacIntel,60,Chrome,1280,800,,,,,,,,,,,,,,,,,1,,,,,,,,,,,,,,,,,,,,,,,,,,,298.646825,2,left,1.75953,redfox      ,2,1,-2,0,3,298.68659,298.68659,301.17361,0,1,1,1,1,2,2,4,redfox      ,phone       ,html/resources/sequences_IDs/B/01_redfox.jpg,html/resources/sequences_IDs/B/09_phone.jpg,1,9,1,1,4,2,1,7,0,79,,,,,,,,,,,,,,,,,,,,
,,,,,79,2020-07-04_12h37.49.571,retriever_ti,2020.1.3,MacIntel,60,Chrome,1280,800,,,,,,,,,,,,,,,,,1,,,,,,,,,,,,,,,,,,,,,,,,,,,301.788075,3,left,1.21423,phone       ,4,9,-4,0,3,301.826955,301.826955,304.313785,0,2,2,2,1,3,4,8,phone       ,parrot      ,html/resources/sequences_IDs/B/09_phone.jpg,html/resources/sequences_IDs/B/05_parrot.jpg,9,5,4,2,2,1,7,4,0,79,,,,,,,,,,,,,,,,,,,,
,,,,,79,2020-07-04_12h37.49.571,retriever_ti,2020.1.3,MacIntel,60,Chrome,1280,800,,,,,,,,,,,,,,,,,1,,,,,,,,,,,,,,,,,,,,,,,,,,,304.92882,4,left,1.91714,clownfish     ,7,4,1,1,1,304.949935,304.949935,307.436945,0,3,3,3,1,4,7,6,clownfish     ,radio       ,html/resources/sequences_IDs/A/04_clownfish.jpg,html/resources/sequences_IDs/B/10_radio.jpg,4,10,2,1,4,2,3,8,0,79,,,,,,,,,,,,,,,,,,,,
,,,,,79,2020-07-04_12h37.49.571,retriever_ti,2020.1.3,MacIntel,60,Chrome,1280,800,,,,,,,,,,,,,,,,,1,,,,,,,,,,,,,,,,,,,,,,,,,,,308.5346,5,right,1.07402,clownfish     ,7,4,4,1,3,308.574225,308.574225,311.06179,0,4,4,4,1,5,3,7,dress         ,clownfish     ,html/resources/sequences_IDs/A/07_dress.jpg,html/resources/sequences_IDs/A/04_clownfish.jpg,7,4,3,2,2,1,6,3,0,79,,,,,,,,,,,,,,,,,,,,
,,,,,79,2020-07-04_12h37.49.571,retriever_ti,2020.1.3,MacIntel,60,Chrome,1280,800,,,,,,,,,,,,,,,,,1,,,,,,,,,,,,,,,,,,,,,,,,,,,311.66315,6,right,1.484945,clownfish     ,7,4,-1,0,0,311.6755,311.6755,314.168175,0,5,5,5,1,6,8,7,parrot      ,clownfish     ,html/resources/sequences_IDs/B/05_parrot.jpg,html/resources/sequences_IDs/A/04_clownfish.jpg,5,4,2,1,2,1,4,3,0,79,,,,,,,,,,,,,,,,,,,,
,,,,,79,2020-07-04_12h37.49.571,retriever_ti,2020.1.3,MacIntel,60,Chrome,1280,800,,,,,,,,,,,,,,,,,1,,,,,,,,,,,,,,,,,,,,,,,,,,,315.2726,7,right,2.03713,phone       ,4,9,1,1,0,315.28225,315.28225,317.775515,0,6,6,6,1,7,3,4,dress         ,phone       ,html/resources/sequences_IDs/A/07_dress.jpg,html/resources/sequences_IDs/B/09_phone.jpg,7,9,3,2,4,2,6,7,1,79,,,,,,,,,,,,,,,,,,,,
,,,,,79,2020-07-04_12h37.49.571,retriever_ti,2020.1.3,MacIntel,60,Chrome,1280,800,,,,,,,,,,,,,,,,,1,,,,,,,,,,,,,,,,,,,,,,,,,,,318.875625,8,right,1.20462,seaturtle     ,1,2,-5,0,3,318.913085,318.913085,321.4006,0,7,7,7,1,8,6,1,radio       ,seaturtle     ,html/resources/sequences_IDs/B/10_radio.jpg,html/resources/sequences_IDs/A/02_seaturtle.jpg,10,2,4,2,2,1,8,2,0,79,,,,,,,,,,,,,,,,,,,,
,,,,,79,2020-07-04_12h37.49.571,retriever_ti,2020.1.3,MacIntel,60,Chrome,1280,800,,,,,,,,,,,,,,,,,1,,,,,,,,,,,,,,,,,,,,,,,,,,,322.0023,9,left,1.463095,clownfish     ,7,4,3,1,3,322.037225,322.037225,324.523725,0,8,8,8,1,9,7,4,clownfish     ,phone       ,html/resources/sequences_IDs/A/04_clownfish.jpg,html/resources/sequences_IDs/B/09_phone.jpg,4,9,2,1,4,2,3,7,0,79,,,,,,,,,,,,,,,,,,,,
,,,,,79,2020-07-04_12h37.49.571,retriever_ti,2020.1.3,MacIntel,60,Chrome,1280,800,,,,,,,,,,,,,,,,,1,,,,,,,,,,,,,,,,,,,,,,,,,,,325.14139,10,right,0.99103,parrot      ,8,5,5,1,3,325.17492,325.17492,327.664085,0,9,9,9,1,10,3,8,dress         ,parrot      ,html/resources/sequences_IDs/A/07_dress.jpg,html/resources/sequences_IDs/B/05_parrot.jpg,7,5,3,2,2,1,6,4,0,79,,,,,,,,,,,,,,,,,,,,
,,,,,79,2020-07-04_12h37.49.571,retriever_ti,2020.1.3,MacIntel,60,Chrome,1280,800,,,,,,,,,,,,,,,,,1,,,,,,,,,,,,,,,,,,,,,,,,,,,328.28148,11,left,1.63371,clownfish     ,7,4,5,1,3,328.31697,328.31697,330.804265,0,10,10,10,1,11,7,2,clownfish     ,redfox      ,html/resources/sequences_IDs/A/04_clownfish.jpg,html/resources/sequences_IDs/B/01_redfox.jpg,4,1,2,1,1,1,3,1,0,79,,,,,,,,,,,,,,,,,,,,
,,,,,79,2020-07-04_12h37.49.571,retriever_ti,2020.1.3,MacIntel,60,Chrome,1280,800,,,,,,,,,,,,,,,,,1,,,,,,,,,,,,,,,,,,,,,,,,,,,331.422955,12,right,1.45274,parrot      ,8,5,1,1,0,331.43488,331.43488,333.9276,0,11,11,11,1,12,7,8,clownfish     ,parrot      ,html/resources/sequences_IDs/A/04_clownfish.jpg,html/resources/sequences_IDs/B/05_parrot.jpg,4,5,2,1,2,1,3,4,1,79,,,,,,,,,,,,,,,,,,,,
,,,,,79,2020-07-04_12h37.49.571,retriever_ti,2020.1.3,MacIntel,60,Chrome,1280,800,,,,,,,,,,,,,,,,,1,,,,,,,,,,,,,,,,,,,,,,,,,,,335.031825,13,left,1.90844,scarf         ,5,6,1,1,1,335.042385,335.042385,337.535215,0,12,12,12,1,13,5,4,scarf         ,phone       ,html/resources/sequences_IDs/A/06_scarf.jpg,html/resources/sequences_IDs/B/09_phone.jpg,6,9,3,2,4,2,5,7,0,79,,,,,,,,,,,,,,,,,,,,
,,,,,79,2020-07-04_12h37.49.571,retriever_ti,2020.1.3,MacIntel,60,Chrome,1280,800,,,,,,,,,,,,,,,,,1,,,,,,,,,,,,,,,,,,,,,,,,,,,338.638785,14,right,1.412235,radio       ,6,10,-1,0,0,338.668775,338.668775,341.159665,0,13,13,13,1,14,7,6,clownfish     ,radio       ,html/resources/sequences_IDs/A/04_clownfish.jpg,html/resources/sequences_IDs/B/10_radio.jpg,4,10,2,1,4,2,3,8,0,79,,,,,,,,,,,,,,,,,,,,
,,,,,79,2020-07-04_12h37.49.571,retriever_ti,2020.1.3,MacIntel,60,Chrome,1280,800,,,,,,,,,,,,,,,,,1,,,,,,,,,,,,,,,,,,,,,,,,,,,342.26198,15,left,1.233835,dress         ,3,7,-3,0,3,342.27844,342.27844,344.76757,0,14,14,14,1,15,3,6,dress         ,radio       ,html/resources/sequences_IDs/A/07_dress.jpg,html/resources/sequences_IDs/B/10_radio.jpg,7,10,3,2,4,2,6,8,0,79,,,,,,,,,,,,,,,,,,,,
,,,,,79,2020-07-04_12h37.49.571,retriever_ti,2020.1.3,MacIntel,60,Chrome,1280,800,,,,,,,,,,,,,,,,,1,,,,,,,,,,,,,,,,,,,,,,,,,,,345.369605,16,left,1.0971,dress         ,3,7,-2,0,3,345.399025,345.399025,347.890955,0,15,15,15,1,16,3,5,dress         ,scarf         ,html/resources/sequences_IDs/A/07_dress.jpg,html/resources/sequences_IDs/A/06_scarf.jpg,7,6,3,2,3,2,6,5,0,79,,,,,,,,,,,,,,,,,,,,
,,,,,79,2020-07-04_12h37.49.571,retriever_ti,2020.1.3,MacIntel,60,Chrome,1280,800,,,,,,,,,,,,,,,,,1,,,,,,,,,,,,,,,,,,,,,,,,,,,348.49226,17,right,1.29562,seaturtle     ,1,2,-1,0,0,348.510885,348.510885,350.99754,0,16,16,16,1,17,2,1,redfox      ,seaturtle     ,html/resources/sequences_IDs/B/01_redfox.jpg,html/resources/sequences_IDs/A/02_seaturtle.jpg,1,2,1,1,2,1,1,2,0,79,,,,,,,,,,,,,,,,,,,,
,,,,,79,2020-07-04_12h37.49.571,retriever_ti,2020.1.3,MacIntel,60,Chrome,1280,800,,,,,,,,,,,,,,,,,1,,,,,,,,,,,,,,,,,,,,,,,,,,,352.09539,18,right,1.828095,radio       ,6,10,1,1,0,352.13518,352.13518,354.621415,0,17,17,17,1,18,5,6,scarf         ,radio       ,html/resources/sequences_IDs/A/06_scarf.jpg,html/resources/sequences_IDs/B/10_radio.jpg,6,10,3,2,4,2,5,8,1,79,,,,,,,,,,,,,,,,,,,,
,,,,,79,2020-07-04_12h37.49.571,retriever_ti,2020.1.3,MacIntel,60,Chrome,1280,800,,,,,,,,,,,,,,,,,1,,,,,,,,,,,,,,,,,,,,,,,,,,,355.72603,19,left,1.49131,radio       ,6,10,2,1,3,355.7563,355.7563,358.246025,0,18,18,18,1,19,6,4,radio       ,phone       ,html/resources/sequences_IDs/B/10_radio.jpg,html/resources/sequences_IDs/B/09_phone.jpg,10,9,4,2,4,2,8,7,0,79,,,,,,,,,,,,,,,,,,,,
,,,,,79,2020-07-04_12h37.49.571,retriever_ti,2020.1.3,MacIntel,60,Chrome,1280,800,,,,,,,,,,,,,,,,,1,,,,,,,,,,,,,,,,,,,,,,,,,,,358.859855,20,left,1.40954,radio       ,6,10,4,1,3,358.8823,358.8823,361.37165,0,19,19,19,1,20,6,2,radio       ,redfox      ,html/resources/sequences_IDs/B/10_radio.jpg,html/resources/sequences_IDs/B/01_redfox.jpg,10,1,4,2,1,1,8,1,0,79,,,,,,,,,,,,,,,,,,,,
,,,,,79,2020-07-04_12h37.49.571,retriever_ti,2020.1.3,MacIntel,60,Chrome,1280,800,,,,,,,,,,,,,,,,,1,,,,,,,,,,,,,,,,,,,,,,,,,,,361.983815,21,right,1.130895,radio       ,6,10,2,1,3,362.006245,362.006245,364.49337,0,20,20,20,1,21,4,6,phone       ,radio       ,html/resources/sequences_IDs/B/09_phone.jpg,html/resources/sequences_IDs/B/10_radio.jpg,9,10,4,2,4,2,7,8,0,79,,,,,,,,,,,,,,,,,,,,
,,,,,79,2020-07-04_12h37.49.571,retriever_ti,2020.1.3,MacIntel,60,Chrome,1280,800,,,,,,,,,,,,,,,,,1,,,,,,,,,,,,,,,,,,,,,,,,,,,365.094725,22,right,0.83889,clownfish     ,7,4,-1,0,0,365.12963,365.12963,367.616515,0,21,21,21,1,22,8,7,parrot      ,clownfish     ,html/resources/sequences_IDs/B/05_parrot.jpg,html/resources/sequences_IDs/A/04_clownfish.jpg,5,4,2,1,2,1,4,3,0,79,,,,,,,,,,,,,,,,,,,,
,,,,,79,2020-07-04_12h37.49.571,retriever_ti,2020.1.3,MacIntel,60,Chrome,1280,800,,,,,,,,,,,,,,,,,1,,,,,,,,,,,,,,,,,,,,,,,,,,,368.720785,23,right,1.780895,dress         ,3,7,2,1,3,368.731725,368.731725,371.224755,0,22,22,22,1,23,1,3,seaturtle     ,dress         ,html/resources/sequences_IDs/A/02_seaturtle.jpg,html/resources/sequences_IDs/A/07_dress.jpg,2,7,2,1,3,2,2,6,0,79,,,,,,,,,,,,,,,,,,,,
,,,,,79,2020-07-04_12h37.49.571,retriever_ti,2020.1.3,MacIntel,60,Chrome,1280,800,,,,,,,,,,,,,,,,,1,,,,,,,,,,,,,,,,,,,,,,,,,,,371.83937,24,left,1.576395,redfox      ,2,1,1,1,0,371.87666,371.87666,374.364515,0,23,23,23,1,24,2,1,redfox      ,seaturtle     ,html/resources/sequences_IDs/B/01_redfox.jpg,html/resources/sequences_IDs/A/02_seaturtle.jpg,1,2,1,1,2,1,1,2,1,79,,,,,,,,,,,,,,,,,,,,
,,,,,79,2020-07-04_12h37.49.571,retriever_ti,2020.1.3,MacIntel,60,Chrome,1280,800,,,,,,,,,,,,,,,,,1,,,,,,,,,,,,,,,,,,,,,,,,,,,375.4674,25,left,1.07725,clownfish     ,7,4,6,1,3,375.480025,375.480025,377.97234,0,24,24,24,1,25,7,1,clownfish     ,seaturtle     ,html/resources/sequences_IDs/A/04_clownfish.jpg,html/resources/sequences_IDs/A/02_seaturtle.jpg,4,2,2,1,2,1,3,2,0,79,,,,,,,,,,,,,,,,,,,,
,,,,,79,2020-07-04_12h37.49.571,retriever_ti,2020.1.3,MacIntel,60,Chrome,1280,800,,,,,,,,,,,,,,,,,1,,,,,,,,,,,,,,,,,,,,,,,,,,,378.585395,26,right,1.21798,dress         ,3,7,-2,0,3,378.62499,378.62499,381.1125,0,25,25,25,1,26,5,3,scarf         ,dress         ,html/resources/sequences_IDs/A/06_scarf.jpg,html/resources/sequences_IDs/A/07_dress.jpg,6,7,3,2,3,2,5,6,0,79,,,,,,,,,,,,,,,,,,,,
,,,,,79,2020-07-04_12h37.49.571,retriever_ti,2020.1.3,MacIntel,60,Chrome,1280,800,,,,,,,,,,,,,,,,,1,,,,,,,,,,,,,,,,,,,,,,,,,,,381.71495,27,left,1.10287,scarf         ,5,6,-1,0,0,381.748755,381.748755,384.236095,0,26,26,26,1,27,5,6,scarf         ,radio       ,html/resources/sequences_IDs/A/06_scarf.jpg,html/resources/sequences_IDs/B/10_radio.jpg,6,10,3,2,4,2,5,8,0,79,,,,,,,,,,,,,,,,,,,,
,,,,,79,2020-07-04_12h37.49.571,retriever_ti,2020.1.3,MacIntel,60,Chrome,1280,800,,,,,,,,,,,,,,,,,1,,,,,,,,,,,,,,,,,,,,,,,,,,,385.3391,28,left,1.29964,parrot      ,8,5,7,1,3,385.37297,385.37297,387.86028,0,27,27,27,1,28,8,1,parrot      ,seaturtle     ,html/resources/sequences_IDs/B/05_parrot.jpg,html/resources/sequences_IDs/A/02_seaturtle.jpg,5,2,2,1,2,1,4,2,0,79,,,,,,,,,,,,,,,,,,,,
,,,,,79,2020-07-04_12h37.49.571,retriever_ti,2020.1.3,MacIntel,60,Chrome,1280,800,,,,,,,,,,,,,,,,,1,,,,,,,,,,,,,,,,,,,,,,,,,,,388.473855,29,left,1.094935,parrot      ,8,5,4,1,3,388.496295,388.496295,390.983405,0,28,28,28,1,29,8,4,parrot      ,phone       ,html/resources/sequences_IDs/B/05_parrot.jpg,html/resources/sequences_IDs/B/09_phone.jpg,5,9,2,1,4,2,4,7,0,79,,,,,,,,,,,,,,,,,,,,
,,,,,79,2020-07-04_12h37.49.571,retriever_ti,2020.1.3,MacIntel,60,Chrome,1280,800,,,,,,,,,,,,,,,,,1,,,,,,,,,,,,,,,,,,,,,,,,,,,391.585625,30,right,1.261155,radio       ,6,10,-1,0,1,391.619885,391.619885,394.10626,0,29,29,29,1,30,7,6,clownfish     ,radio       ,html/resources/sequences_IDs/A/04_clownfish.jpg,html/resources/sequences_IDs/B/10_radio.jpg,4,10,2,1,4,2,3,8,1,79,,,,,,,,,,,,,,,,,,,,
,,,,,79,2020-07-04_12h37.49.571,retriever_ti,2020.1.3,MacIntel,60,Chrome,1280,800,,,,,,,,,,,,,,,,,1,,,,,,,,,,,,,,,,,,,,,,,,,,,395.204025,31,right,1.142415,scarf         ,5,6,-3,0,3,395.22819,395.22819,397.71497,0,30,30,30,1,31,8,5,parrot      ,scarf         ,html/resources/sequences_IDs/B/05_parrot.jpg,html/resources/sequences_IDs/A/06_scarf.jpg,5,6,2,1,3,2,4,5,0,79,,,,,,,,,,,,,,,,,,,,
,,,,,79,2020-07-04_12h37.49.571,retriever_ti,2020.1.3,MacIntel,60,Chrome,1280,800,,,,,,,,,,,,,,,,,1,,,,,,,,,,,,,,,,,,,,,,,,,,,398.32926,32,right,1.17301,dress         ,3,7,-1,0,0,398.369005,398.369005,400.85459,0,31,31,31,1,32,4,3,phone       ,dress         ,html/resources/sequences_IDs/B/09_phone.jpg,html/resources/sequences_IDs/A/07_dress.jpg,9,7,4,2,3,2,7,6,0,79,,,,,,,,,,,,,,,,,,,,
,,,,,79,2020-07-04_12h37.49.571,retriever_ti,2020.1.3,MacIntel,60,Chrome,1280,800,,,,,,,,,,,,,,,,,1,,,,,,,,,,,,,,,,,,,,,,,,,,,401.95379,33,left,1.09729,scarf         ,5,6,-3,0,3,401.975075,401.975075,404.462445,0,32,32,32,1,33,5,8,scarf         ,parrot      ,html/resources/sequences_IDs/A/06_scarf.jpg,html/resources/sequences_IDs/B/05_parrot.jpg,6,5,3,2,2,1,5,4,0,79,,,,,,,,,,,,,,,,,,,,
,,,,,79,2020-07-04_12h37.49.571,retriever_ti,2020.1.3,MacIntel,60,Chrome,1280,800,,,,,,,,,,,,,,,,,1,,,,,,,,,,,,,,,,,,,,,,,,,,,405.07812,34,right,0.96942,scarf         ,5,6,1,1,1,405.114875,405.114875,407.60271,0,33,33,33,1,34,4,5,phone       ,scarf         ,html/resources/sequences_IDs/B/09_phone.jpg,html/resources/sequences_IDs/A/06_scarf.jpg,9,6,4,2,3,2,7,5,0,79,,,,,,,,,,,,,,,,,,,,
,,,,,79,2020-07-04_12h37.49.571,retriever_ti,2020.1.3,MacIntel,60,Chrome,1280,800,,,,,,,,,,,,,,,,,1,,,,,,,,,,,,,,,,,,,,,,,,,,,408.70077,35,left,1.368425,seaturtle     ,1,2,-7,0,3,408.72332,408.72332,411.21039,0,34,34,34,1,35,1,8,seaturtle     ,parrot      ,html/resources/sequences_IDs/A/02_seaturtle.jpg,html/resources/sequences_IDs/B/05_parrot.jpg,2,5,2,1,2,1,2,4,0,79,,,,,,,,,,,,,,,,,,,,
,,,,,79,2020-07-04_12h37.49.571,retriever_ti,2020.1.3,MacIntel,60,Chrome,1280,800,,,,,,,,,,,,,,,,,1,,,,,,,,,,,,,,,,,,,,,,,,,,,411.825265,36,left,1.53336,radio       ,6,10,1,1,1,411.864385,411.864385,414.351,0,35,35,35,1,36,6,5,radio       ,scarf         ,html/resources/sequences_IDs/B/10_radio.jpg,html/resources/sequences_IDs/A/06_scarf.jpg,10,6,4,2,3,2,8,5,0,79,,,,,,,,,,,,,,,,,,,,
,,,,,79,2020-07-04_12h37.49.571,retriever_ti,2020.1.3,MacIntel,60,Chrome,1280,800,,,,,,,,,,,,,,,,,1,,,,,,,,,,,,,,,,,,,,,,,,,,,415.45345,37,right,1.29991,dress         ,3,7,1,1,1,415.488345,415.488345,417.975135,0,36,36,36,1,37,2,3,redfox      ,dress         ,html/resources/sequences_IDs/B/01_redfox.jpg,html/resources/sequences_IDs/A/07_dress.jpg,1,7,1,1,3,2,1,6,0,79,,,,,,,,,,,,,,,,,,,,
,,,,,79,2020-07-04_12h37.49.571,retriever_ti,2020.1.3,MacIntel,60,Chrome,1280,800,,,,,,,,,,,,,,,,,1,,,,,,,,,,,,,,,,,,,,,,,,,,,419.071815,38,right,1.09675,redfox      ,2,1,1,1,1,419.107455,419.107455,421.59939,0,37,37,37,1,38,1,2,seaturtle     ,redfox      ,html/resources/sequences_IDs/A/02_seaturtle.jpg,html/resources/sequences_IDs/B/01_redfox.jpg,2,1,2,1,1,1,2,1,0,79,,,,,,,,,,,,,,,,,,,,
,,,,,79,2020-07-04_12h37.49.571,retriever_ti,2020.1.3,MacIntel,60,Chrome,1280,800,,,,,,,,,,,,,,,,,1,,,,,,,,,,,,,,,,,,,,,,,,,,,422.698075,39,left,1.353835,radio       ,6,10,1,1,1,422.73674,422.73674,425.224075,0,38,38,38,1,39,6,5,radio       ,scarf         ,html/resources/sequences_IDs/B/10_radio.jpg,html/resources/sequences_IDs/A/06_scarf.jpg,10,6,4,2,3,2,8,5,0,79,,,,,,,,,,,,,,,,,,,,
,,,,,79,2020-07-04_12h37.49.571,retriever_ti,2020.1.3,MacIntel,60,Chrome,1280,800,,,,,,,,,,,,,,,,,1,,,,,,,,,,,,,,,,,,,,,,,,,,,426.320765,40,right,1.375645,parrot      ,8,5,6,1,3,426.361875,426.361875,428.848585,0,39,39,39,1,40,2,8,redfox      ,parrot      ,html/resources/sequences_IDs/B/01_redfox.jpg,html/resources/sequences_IDs/B/05_parrot.jpg,1,5,1,1,2,1,1,4,0,79,,,,,,,,,,,,,,,,,,,,
,,,,,79,2020-07-04_12h37.49.571,retriever_ti,2020.1.3,MacIntel,60,Chrome,1280,800,,,,,,,,,,,,,,,,,1,,,,,,,,,,,,,,,,,,,,,,,,,,,429.461575,41,right,1.08301,redfox      ,2,1,-2,0,3,429.500745,429.500745,431.98801,0,40,40,40,1,41,4,2,phone       ,redfox      ,html/resources/sequences_IDs/B/09_phone.jpg,html/resources/sequences_IDs/B/01_redfox.jpg,9,1,4,2,1,1,7,1,0,79,,,,,,,,,,,,,,,,,,,,
,,,,,79,2020-07-04_12h37.49.571,retriever_ti,2020.1.3,MacIntel,60,Chrome,1280,800,,,,,,,,,,,,,,,,,1,,,,,,,,,,,,,,,,,,,,,,,,,,,432.590675,42,left,1.284885,seaturtle     ,1,2,-4,0,3,432.60332,432.60332,435.09525,0,41,41,41,1,42,1,5,seaturtle     ,scarf         ,html/resources/sequences_IDs/A/02_seaturtle.jpg,html/resources/sequences_IDs/A/06_scarf.jpg,2,6,2,1,3,2,2,5,0,79,,,,,,,,,,,,,,,,,,,,
,,,,,79,2020-07-04_12h37.49.571,retriever_ti,2020.1.3,MacIntel,60,Chrome,1280,800,,,,,,,,,,,,,,,,,1,,,,,,,,,,,,,,,,,,,,,,,,,,,435.713695,43,right,0.958935,scarf         ,5,6,1,1,1,435.748415,435.748415,438.25145,0,42,42,42,1,43,4,5,phone       ,scarf         ,html/resources/sequences_IDs/B/09_phone.jpg,html/resources/sequences_IDs/A/06_scarf.jpg,9,6,4,2,3,2,7,5,0,79,,,,,,,,,,,,,,,,,,,,
,,,,,79,2020-07-04_12h37.49.571,retriever_ti,2020.1.3,MacIntel,60,Chrome,1280,800,,,,,,,,,,,,,,,,,1,,,,,,,,,,,,,,,,,,,,,,,,,,,439.34908,44,right,1.20709,dress         ,3,7,1,1,1,439.36864,439.36864,441.86017,0,43,43,43,1,44,2,3,redfox      ,dress         ,html/resources/sequences_IDs/B/01_redfox.jpg,html/resources/sequences_IDs/A/07_dress.jpg,1,7,1,1,3,2,1,6,0,79,,,,,,,,,,,,,,,,,,,,
,,,,,79,2020-07-04_12h37.49.571,retriever_ti,2020.1.3,MacIntel,60,Chrome,1280,800,,,,,,,,,,,,,,,,,1,,,,,,,,,,,,,,,,,,,,,,,,,,,442.958485,45,right,1.441635,seaturtle     ,1,2,-1,0,0,442.97978,442.97978,445.4679,0,44,44,44,1,45,2,1,redfox      ,seaturtle     ,html/resources/sequences_IDs/B/01_redfox.jpg,html/resources/sequences_IDs/A/02_seaturtle.jpg,1,2,1,1,2,1,1,2,0,79,,,,,,,,,,,,,,,,,,,,
,,,,,79,2020-07-04_12h37.49.571,retriever_ti,2020.1.3,MacIntel,60,Chrome,1280,800,,,,,,,,,,,,,,,,,1,,,,,,,,,,,,,,,,,,,,,,,,,,,446.56707,46,right,1.29395,scarf         ,5,6,-2,0,3,446.58819,446.58819,449.07427,0,45,45,45,1,46,7,5,clownfish     ,scarf         ,html/resources/sequences_IDs/A/04_clownfish.jpg,html/resources/sequences_IDs/A/06_scarf.jpg,4,6,2,1,3,2,3,5,0,79,,,,,,,,,,,,,,,,,,,,
,,,,,79,2020-07-04_12h37.49.571,retriever_ti,2020.1.3,MacIntel,60,Chrome,1280,800,,,,,,,,,,,,,,,,,1,,,,,,,,,,,,,,,,,,,,,,,,,,,449.677065,47,left,0.970875,scarf         ,5,6,1,1,0,449.70712,449.70712,452.19886,0,46,46,46,1,47,5,4,scarf         ,phone       ,html/resources/sequences_IDs/A/06_scarf.jpg,html/resources/sequences_IDs/B/09_phone.jpg,6,9,3,2,4,2,5,7,1,79,,,,,,,,,,,,,,,,,,,,
,,,,,79,2020-07-04_12h37.49.571,retriever_ti,2020.1.3,MacIntel,60,Chrome,1280,800,,,,,,,,,,,,,,,,,1,,,,,,,,,,,,,,,,,,,,,,,,,,,453.297065,48,right,1.7686,dress         ,3,7,1,1,0,453.335725,453.335725,455.823155,0,47,47,47,1,48,2,3,redfox      ,dress         ,html/resources/sequences_IDs/B/01_redfox.jpg,html/resources/sequences_IDs/A/07_dress.jpg,1,7,1,1,3,2,1,6,1,79,,,,,,,,,,,,,,,,,,,,
,,,,,79,2020-07-04_12h37.49.571,retriever_ti,2020.1.3,MacIntel,60,Chrome,1280,800,,,,,,,,,,,,,,,,,1,,,,,,,,,,,,,,,,,,,,,,,,,,,456.92162,49,left,0.91906,radio       ,6,10,3,1,3,456.943975,456.943975,459.43116,0,48,48,48,1,49,6,3,radio       ,dress         ,html/resources/sequences_IDs/B/10_radio.jpg,html/resources/sequences_IDs/A/07_dress.jpg,10,7,4,2,3,2,8,6,0,79,,,,,,,,,,,,,,,,,,,,
,,,,,79,2020-07-04_12h37.49.571,retriever_ti,2020.1.3,MacIntel,60,Chrome,1280,800,,,,,,,,,,,,,,,,,1,,,,,,,,,,,,,,,,,,,,,,,,,,,460.04524,50,right,0.84716,clownfish     ,7,4,1,1,1,460.067595,460.067595,462.554275,0,49,49,49,1,50,6,7,radio       ,clownfish     ,html/resources/sequences_IDs/B/10_radio.jpg,html/resources/sequences_IDs/A/04_clownfish.jpg,10,4,4,2,2,1,8,3,0,79,,,,,,,,,,,,,,,,,,,,
,,,,,79,2020-07-04_12h37.49.571,retriever_ti,2020.1.3,MacIntel,60,Chrome,1280,800,,,,,,,,,,,,,,,,,1,,,,,,,,,,,,,,,,,,,,,,,,,,,463.65195,51,right,0.85135,parrot      ,8,5,1,1,1,463.675525,463.675525,466.16166,0,50,50,50,1,51,7,8,clownfish     ,parrot      ,html/resources/sequences_IDs/A/04_clownfish.jpg,html/resources/sequences_IDs/B/05_parrot.jpg,4,5,2,1,2,1,3,4,0,79,,,,,,,,,,,,,,,,,,,,
,,,,,79,2020-07-04_12h37.49.571,retriever_ti,2020.1.3,MacIntel,60,Chrome,1280,800,,,,,,,,,,,,,,,,,1,,,,,,,,,,,,,,,,,,,,,,,,,,,467.266385,52,left,0.796575,parrot      ,8,5,5,1,3,467.27701,467.27701,469.769955,0,51,51,51,1,52,8,3,parrot      ,dress         ,html/resources/sequences_IDs/B/05_parrot.jpg,html/resources/sequences_IDs/A/07_dress.jpg,5,7,2,1,3,2,4,6,0,79,,,,,,,,,,,,,,,,,,,,
,,,,,79,2020-07-04_12h37.49.571,retriever_ti,2020.1.3,MacIntel,60,Chrome,1280,800,,,,,,,,,,,,,,,,,1,,,,,,,,,,,,,,,,,,,,,,,,,,,470.386685,53,right,0.76831,seaturtle     ,1,2,-2,0,3,470.404645,470.404645,472.893025,0,52,52,52,1,53,3,1,dress         ,seaturtle     ,html/resources/sequences_IDs/A/07_dress.jpg,html/resources/sequences_IDs/A/02_seaturtle.jpg,7,2,3,2,2,1,6,2,0,79,,,,,,,,,,,,,,,,,,,,
,,,,,79,2020-07-04_12h37.49.571,retriever_ti,2020.1.3,MacIntel,60,Chrome,1280,800,,,,,,,,,,,,,,,,,1,,,,,,,,,,,,,,,,,,,,,,,,,,,473.509215,54,left,1.55287,parrot      ,8,5,6,1,3,473.52935,473.52935,476.016775,0,53,53,53,1,54,8,2,parrot      ,redfox      ,html/resources/sequences_IDs/B/05_parrot.jpg,html/resources/sequences_IDs/B/01_redfox.jpg,5,1,2,1,1,1,4,1,0,79,,,,,,,,,,,,,,,,,,,,
,,,,,79,2020-07-04_12h37.49.571,retriever_ti,2020.1.3,MacIntel,60,Chrome,1280,800,,,,,,,,,,,,,,,,,1,,,,,,,,,,,,,,,,,,,,,,,,,,,476.618325,55,right,0.709445,seaturtle     ,1,2,-3,0,3,476.631155,476.631155,479.122985,0,54,54,54,1,55,4,1,phone       ,seaturtle     ,html/resources/sequences_IDs/B/09_phone.jpg,html/resources/sequences_IDs/A/02_seaturtle.jpg,9,2,4,2,2,1,7,2,0,79,,,,,,,,,,,,,,,,,,,,
,,,,,79,2020-07-04_12h37.49.571,retriever_ti,2020.1.3,MacIntel,60,Chrome,1280,800,,,,,,,,,,,,,,,,,1,,,,,,,,,,,,,,,,,,,,,,,,,,,479.73647,56,right,1.673975,redfox      ,2,1,-1,0,0,479.776795,479.776795,482.263655,0,55,55,55,1,56,3,2,dress         ,redfox      ,html/resources/sequences_IDs/A/07_dress.jpg,html/resources/sequences_IDs/B/01_redfox.jpg,7,1,3,2,1,1,6,1,0,79,,,,,,,,,,,,,,,,,,,,
,,,,,79,2020-07-04_12h37.49.571,retriever_ti,2020.1.3,MacIntel,60,Chrome,1280,800,,,,,,,,,,,,,,,,,1,,,,,,,,,,,,,,,,,,,,,,,,,,,483.36725,57,left,0.86823,dress         ,3,7,-1,0,0,483.39735,483.39735,485.888125,0,56,56,56,1,57,3,4,dress         ,phone       ,html/resources/sequences_IDs/A/07_dress.jpg,html/resources/sequences_IDs/B/09_phone.jpg,7,9,3,2,4,2,6,7,0,79,,,,,,,,,,,,,,,,,,,,
,,,,,79,2020-07-04_12h37.49.571,retriever_ti,2020.1.3,MacIntel,60,Chrome,1280,800,,,,,,,,,,,,,,,,,1,,,,,,,,,,,,,,,,,,,,,,,,,,,486.9851,58,left,1.13377,parrot      ,8,5,2,1,3,487.02578,487.02578,489.52388,0,57,57,57,1,58,8,6,parrot      ,radio       ,html/resources/sequences_IDs/B/05_parrot.jpg,html/resources/sequences_IDs/B/10_radio.jpg,5,10,2,1,4,2,4,8,0,79,,,,,,,,,,,,,,,,,,,,
,,,,,79,2020-07-04_12h37.49.571,retriever_ti,2020.1.3,MacIntel,60,Chrome,1280,800,,,,,,,,,,,,,,,,,1,,,,,,,,,,,,,,,,,,,,,,,,,,,490.14197,59,left,0.746845,scarf         ,5,6,1,1,1,490.16522,490.16522,492.65275,0,58,58,58,1,59,5,4,scarf         ,phone       ,html/resources/sequences_IDs/A/06_scarf.jpg,html/resources/sequences_IDs/B/09_phone.jpg,6,9,3,2,4,2,5,7,0,79,,,,,,,,,,,,,,,,,,,,
,,,,,79,2020-07-04_12h37.49.571,retriever_ti,2020.1.3,MacIntel,60,Chrome,1280,800,,,,,,,,,,,,,,,,,1,,,,,,,,,,,,,,,,,,,,,,,,,,,493.750365,60,right,0.777485,clownfish     ,7,4,5,1,3,493.772665,493.772665,496.277095,0,59,59,59,1,60,2,7,redfox      ,clownfish     ,html/resources/sequences_IDs/B/01_redfox.jpg,html/resources/sequences_IDs/A/04_clownfish.jpg,1,4,1,1,2,1,1,3,0,79,,,,,,,,,,,,,,,,,,,,
,,,,,79,2020-07-04_12h37.49.571,retriever_ti,2020.1.3,MacIntel,60,Chrome,1280,800,,,,,,,,,,,,,,,,,1,,,,,,,,,,,,,,,,,,,,,,,,,,,496.891895,61,right,0.6293,scarf         ,5,6,3,1,3,496.930145,496.930145,499.416845,0,60,60,60,1,61,2,5,redfox      ,scarf         ,html/resources/sequences_IDs/B/01_redfox.jpg,html/resources/sequences_IDs/A/06_scarf.jpg,1,6,1,1,3,2,1,5,0,79,,,,,,,,,,,,,,,,,,,,
,,,,,79,2020-07-04_12h37.49.571,retriever_ti,2020.1.3,MacIntel,60,Chrome,1280,800,,,,,,,,,,,,,,,,,1,,,,,,,,,,,,,,,,,,,,,,,,,,,500.02969,62,left,0.733655,seaturtle     ,1,2,-3,0,3,500.07054,500.07054,502.557145,0,61,61,61,1,62,1,4,seaturtle     ,phone       ,html/resources/sequences_IDs/A/02_seaturtle.jpg,html/resources/sequences_IDs/B/09_phone.jpg,2,9,2,1,4,2,2,7,0,79,,,,,,,,,,,,,,,,,,,,
,,,,,79,2020-07-04_12h37.49.571,retriever_ti,2020.1.3,MacIntel,60,Chrome,1280,800,,,,,,,,,,,,,,,,,1,,,,,,,,,,,,,,,,,,,,,,,,,,,503.1749,63,right,0.767855,clownfish     ,7,4,3,1,3,503.193155,503.193155,505.68076,0,62,62,62,1,63,4,7,phone       ,clownfish     ,html/resources/sequences_IDs/B/09_phone.jpg,html/resources/sequences_IDs/A/04_clownfish.jpg,9,4,4,2,2,1,7,3,0,79,,,,,,,,,,,,,,,,,,,,
,,,,,79,2020-07-04_12h37.49.571,retriever_ti,2020.1.3,MacIntel,60,Chrome,1280,800,,,,,,,,,,,,,,,,,1,,,,,,,,,,,,,,,,,,,,,,,,,,,506.29506,64,right,1.52058,clownfish     ,7,4,6,1,3,506.333855,506.333855,508.820465,0,63,63,63,1,64,1,7,seaturtle     ,clownfish     ,html/resources/sequences_IDs/A/02_seaturtle.jpg,html/resources/sequences_IDs/A/04_clownfish.jpg,2,4,2,1,2,1,2,3,0,79,,,,,,,,,,,,,,,,,,,,
,,,,,79,2020-07-04_12h37.49.571,retriever_ti,2020.1.3,MacIntel,60,Chrome,1280,800,,,,,,,,,,,,,,,,,1,,,,,,,,,,,,,,,,,,,,,,,,,,,509.422945,65,right,1.171645,dress         ,3,7,-4,0,3,509.452885,509.452885,511.939445,0,64,64,64,1,65,7,3,clownfish     ,dress         ,html/resources/sequences_IDs/A/04_clownfish.jpg,html/resources/sequences_IDs/A/07_dress.jpg,4,7,2,1,3,2,3,6,0,79,,,,,,,,,,,,,,,,,,,,
,,,,,79,2020-07-04_12h37.49.571,retriever_ti,2020.1.3,MacIntel,60,Chrome,1280,800,,,,,,,,,,,,,,,,,1,,,,,,,,,,,,,,,,,,,,,,,,,,,512.545075,66,left,1.06896,dress         ,3,7,1,1,1,512.580685,512.580685,515.067445,0,65,65,65,1,66,3,2,dress         ,redfox      ,html/resources/sequences_IDs/A/07_dress.jpg,html/resources/sequences_IDs/B/01_redfox.jpg,7,1,3,2,1,1,6,1,0,79,,,,,,,,,,,,,,,,,,,,
,,,,,79,2020-07-04_12h37.49.571,retriever_ti,2020.1.3,MacIntel,60,Chrome,1280,800,,,,,,,,,,,,,,,,,1,,,,,,,,,,,,,,,,,,,,,,,,,,,516.17114,67,right,0.815255,dress         ,3,7,-1,0,0,516.18231,516.18231,518.67517,0,66,66,66,1,67,4,3,phone       ,dress         ,html/resources/sequences_IDs/B/09_phone.jpg,html/resources/sequences_IDs/A/07_dress.jpg,9,7,4,2,3,2,7,6,0,79,,,,,,,,,,,,,,,,,,,,
,,,,,79,2020-07-04_12h37.49.571,retriever_ti,2020.1.3,MacIntel,60,Chrome,1280,800,,,,,,,,,,,,,,,,,1,,,,,,,,,,,,,,,,,,,,,,,,,,,519.778935,68,left,1.254215,radio       ,6,10,-1,0,0,519.809015,519.809015,522.29949,0,67,67,67,1,68,6,7,radio       ,clownfish     ,html/resources/sequences_IDs/B/10_radio.jpg,html/resources/sequences_IDs/A/04_clownfish.jpg,10,4,4,2,2,1,8,3,0,79,,,,,,,,,,,,,,,,,,,,
,,,,,79,2020-07-04_12h37.49.571,retriever_ti,2020.1.3,MacIntel,60,Chrome,1280,800,,,,,,,,,,,,,,,,,1,,,,,,,,,,,,,,,,,,,,,,,,,,,523.403625,69,left,1.44959,seaturtle     ,1,2,-1,0,0,523.433445,523.433445,525.923815,0,68,68,68,1,69,1,2,seaturtle     ,redfox      ,html/resources/sequences_IDs/A/02_seaturtle.jpg,html/resources/sequences_IDs/B/01_redfox.jpg,2,1,2,1,1,1,2,1,0,79,,,,,,,,,,,,,,,,,,,,
,,,,,79,2020-07-04_12h37.49.571,retriever_ti,2020.1.3,MacIntel,60,Chrome,1280,800,,,,,,,,,,,,,,,,,1,,,,,,,,,,,,,,,,,,,,,,,,,,,527.020645,70,right,1.319285,parrot      ,8,5,1,1,1,527.061965,527.061965,529.54882,0,69,69,69,1,70,7,8,clownfish     ,parrot      ,html/resources/sequences_IDs/A/04_clownfish.jpg,html/resources/sequences_IDs/B/05_parrot.jpg,4,5,2,1,2,1,3,4,0,79,,,,,,,,,,,,,,,,,,,,
,,,,,79,2020-07-04_12h37.49.571,retriever_ti,2020.1.3,MacIntel,60,Chrome,1280,800,,,,,,,,,,,,,,,,,1,,,,,,,,,,,,,,,,,,,,,,,,,,,530.651835,71,left,0.86658,dress         ,3,7,-1,0,0,530.664195,530.664195,533.156445,0,70,70,70,1,71,3,4,dress         ,phone       ,html/resources/sequences_IDs/A/07_dress.jpg,html/resources/sequences_IDs/B/09_phone.jpg,7,9,3,2,4,2,6,7,0,79,,,,,,,,,,,,,,,,,,,,
,,,,,79,2020-07-04_12h37.49.571,retriever_ti,2020.1.3,MacIntel,60,Chrome,1280,800,,,,,,,,,,,,,,,,,1,,,,,,,,,,,,,,,,,,,,,,,,,,,534.26071,72,left,0.75562,scarf         ,5,6,3,1,3,534.271775,534.271775,536.763995,0,71,71,71,1,72,5,2,scarf         ,redfox      ,html/resources/sequences_IDs/A/06_scarf.jpg,html/resources/sequences_IDs/B/01_redfox.jpg,6,1,3,2,1,1,5,1,0,79,,,,,,,,,,,,,,,,,,,,
,,,,,79,2020-07-04_12h37.49.571,retriever_ti,2020.1.3,MacIntel,60,Chrome,1280,800,,,,,,,,,,,,,,,,,1,,,,,,,,,,,,,,,,,,,,,,,,,,,537.37872,73,right,1.747715,seaturtle     ,1,2,-4,0,3,537.40023,537.40023,539.887775,0,72,72,72,1,73,5,1,scarf         ,seaturtle     ,html/resources/sequences_IDs/A/06_scarf.jpg,html/resources/sequences_IDs/A/02_seaturtle.jpg,6,2,3,2,2,1,5,2,0,79,,,,,,,,,,,,,,,,,,,,
,,,,,79,2020-07-04_12h37.49.571,retriever_ti,2020.1.3,MacIntel,60,Chrome,1280,800,,,,,,,,,,,,,,,,,1,,,,,,,,,,,,,,,,,,,,,,,,,,,540.501305,74,left,2.019885,scarf         ,5,6,-2,0,3,540.52367,540.52367,543.01092,0,73,73,73,1,74,5,7,scarf         ,clownfish     ,html/resources/sequences_IDs/A/06_scarf.jpg,html/resources/sequences_IDs/A/04_clownfish.jpg,6,4,3,2,2,1,5,3,0,79,,,,,,,,,,,,,,,,,,,,
,,,,,79,2020-07-04_12h37.49.571,retriever_ti,2020.1.3,MacIntel,60,Chrome,1280,800,,,,,,,,,,,,,,,,,1,,,,,,,,,,,,,,,,,,,,,,,,,,,543.61264,75,right,1.6644,parrot      ,8,5,2,1,3,543.624575,543.624575,546.11763,0,74,74,74,1,75,6,8,radio       ,parrot      ,html/resources/sequences_IDs/B/10_radio.jpg,html/resources/sequences_IDs/B/05_parrot.jpg,10,5,4,2,2,1,8,4,0,79,,,,,,,,,,,,,,,,,,,,
,,,,,79,2020-07-04_12h37.49.571,retriever_ti,2020.1.3,MacIntel,60,Chrome,1280,800,,,,,,,,,,,,,,,,,1,,,,,,,,,,,,,,,,,,,,,,,,,,,546.73014,76,right,1.529795,radio       ,6,10,5,1,3,546.77114,546.77114,549.25801,0,75,75,75,1,76,1,6,seaturtle     ,radio       ,html/resources/sequences_IDs/A/02_seaturtle.jpg,html/resources/sequences_IDs/B/10_radio.jpg,2,10,2,1,4,2,2,8,0,79,,,,,,,,,,,,,,,,,,,,
,,,,,79,2020-07-04_12h37.49.571,retriever_ti,2020.1.3,MacIntel,60,Chrome,1280,800,,,,,,,,,,,,,,,,,1,,,,,,,,,,,,,,,,,,,,,,,,,,,549.872305,77,left,2.0974,redfox      ,2,1,-4,0,3,549.89241,549.89241,552.380135,0,76,76,76,1,77,2,6,redfox      ,radio       ,html/resources/sequences_IDs/B/01_redfox.jpg,html/resources/sequences_IDs/B/10_radio.jpg,1,10,1,1,4,2,1,8,0,79,,,,,,,,,,,,,,,,,,,,
,,,,,79,2020-07-04_12h37.49.571,retriever_ti,2020.1.3,MacIntel,60,Chrome,1280,800,,,,,,,,,,,,,,,,,,,,,,,,,,,,,,,,,,,,,0,4.31605,,,,,,,,,,,,,,,,,,,,,,,,,,,,,,,,,,,,,,,,,0,0,0,0,1,,,,,,,,,,,,,,,
,,,,,79,2020-07-04_12h37.49.571,retriever_ti,2020.1.3,MacIntel,60,Chrome,1280,800,,,,,,,,,,,,,,,,,2,,,,,,,,,,,,,,,,,,,,,,,,,,,568.623745,78,right,1.063765,scarf         ,5,6,3,1,3,568.633195,568.633195,571.12184,0,0,0,0,1,78,2,5,redfox      ,scarf         ,html/resources/sequences_IDs/B/01_redfox.jpg,html/resources/sequences_IDs/A/06_scarf.jpg,1,6,1,1,3,2,1,5,0,79,,,,,,,,,,,,,,,,,,,,
,,,,,79,2020-07-04_12h37.49.571,retriever_ti,2020.1.3,MacIntel,60,Chrome,1280,800,,,,,,,,,,,,,,,,,2,,,,,,,,,,,,,,,,,,,,,,,,,,,571.722665,79,left,1.078945,clownfish     ,7,4,3,1,3,571.757985,571.757985,574.24485,0,1,1,1,1,79,7,4,clownfish     ,phone       ,html/resources/sequences_IDs/A/04_clownfish.jpg,html/resources/sequences_IDs/B/09_phone.jpg,4,9,2,1,4,2,3,7,0,79,,,,,,,,,,,,,,,,,,,,
,,,,,79,2020-07-04_12h37.49.571,retriever_ti,2020.1.3,MacIntel,60,Chrome,1280,800,,,,,,,,,,,,,,,,,2,,,,,,,,,,,,,,,,,,,,,,,,,,,574.859715,80,left,1.499905,dress         ,3,7,-5,0,3,574.8976,574.8976,577.38415,0,2,2,2,1,80,3,8,dress         ,parrot      ,html/resources/sequences_IDs/A/07_dress.jpg,html/resources/sequences_IDs/B/05_parrot.jpg,7,5,3,2,2,1,6,4,0,79,,,,,,,,,,,,,,,,,,,,
,,,,,79,2020-07-04_12h37.49.571,retriever_ti,2020.1.3,MacIntel,60,Chrome,1280,800,,,,,,,,,,,,,,,,,2,,,,,,,,,,,,,,,,,,,,,,,,,,,577.99845,81,right,0.803865,dress         ,3,7,1,1,0,578.03714,578.03714,580.524205,0,3,3,3,1,81,2,3,redfox      ,dress         ,html/resources/sequences_IDs/B/01_redfox.jpg,html/resources/sequences_IDs/A/07_dress.jpg,1,7,1,1,3,2,1,6,1,79,,,,,,,,,,,,,,,,,,,,
,,,,,79,2020-07-04_12h37.49.571,retriever_ti,2020.1.3,MacIntel,60,Chrome,1280,800,,,,,,,,,,,,,,,,,2,,,,,,,,,,,,,,,,,,,,,,,,,,,581.629115,82,right,2.03639,scarf         ,5,6,-1,0,0,581.63965,581.63965,584.1327,0,4,4,4,1,82,6,5,radio       ,scarf         ,html/resources/sequences_IDs/B/10_radio.jpg,html/resources/sequences_IDs/A/06_scarf.jpg,10,6,4,2,3,2,8,5,0,79,,,,,,,,,,,,,,,,,,,,
,,,,,79,2020-07-04_12h37.49.571,retriever_ti,2020.1.3,MacIntel,60,Chrome,1280,800,,,,,,,,,,,,,,,,,2,,,,,,,,,,,,,,,,,,,,,,,,,,,585.23182,83,left,1.13734,radio       ,6,10,3,1,3,585.25293,585.25293,587.74083,0,5,5,5,1,83,6,3,radio       ,dress         ,html/resources/sequences_IDs/B/10_radio.jpg,html/resources/sequences_IDs/A/07_dress.jpg,10,7,4,2,3,2,8,6,0,79,,,,,,,,,,,,,,,,,,,,
,,,,,79,2020-07-04_12h37.49.571,retriever_ti,2020.1.3,MacIntel,60,Chrome,1280,800,,,,,,,,,,,,,,,,,2,,,,,,,,,,,,,,,,,,,,,,,,,,,588.354475,84,left,0.97718,redfox      ,2,1,-5,0,3,588.39374,588.39374,590.88088,0,6,6,6,1,84,2,7,redfox      ,clownfish     ,html/resources/sequences_IDs/B/01_redfox.jpg,html/resources/sequences_IDs/A/04_clownfish.jpg,1,4,1,1,2,1,1,3,0,79,,,,,,,,,,,,,,,,,,,,
,,,,,79,2020-07-04_12h37.49.571,retriever_ti,2020.1.3,MacIntel,60,Chrome,1280,800,,,,,,,,,,,,,,,,,2,,,,,,,,,,,,,,,,,,,,,,,,,,,591.497475,85,left,1.53325,scarf         ,5,6,4,1,3,591.51517,591.51517,594.00387,0,7,7,7,1,85,5,1,scarf         ,seaturtle     ,html/resources/sequences_IDs/A/06_scarf.jpg,html/resources/sequences_IDs/A/02_seaturtle.jpg,6,2,3,2,2,1,5,2,0,79,,,,,,,,,,,,,,,,,,,,
,,,,,79,2020-07-04_12h37.49.571,retriever_ti,2020.1.3,MacIntel,60,Chrome,1280,800,,,,,,,,,,,,,,,,,2,,,,,,,,,,,,,,,,,,,,,,,,,,,594.622185,86,right,1.34107,radio       ,6,10,-2,0,3,594.652135,594.652135,597.144095,0,8,8,8,1,86,8,6,parrot      ,radio       ,html/resources/sequences_IDs/B/05_parrot.jpg,html/resources/sequences_IDs/B/10_radio.jpg,5,10,2,1,4,2,4,8,0,79,,,,,,,,,,,,,,,,,,,,
,,,,,79,2020-07-04_12h37.49.571,retriever_ti,2020.1.3,MacIntel,60,Chrome,1280,800,,,,,,,,,,,,,,,,,2,,,,,,,,,,,,,,,,,,,,,,,,,,,597.757765,87,left,0.714155,radio       ,6,10,-1,0,0,597.781495,597.781495,600.267255,0,9,9,9,1,87,6,7,radio       ,clownfish     ,html/resources/sequences_IDs/B/10_radio.jpg,html/resources/sequences_IDs/A/04_clownfish.jpg,10,4,4,2,2,1,8,3,0,79,,,,,,,,,,,,,,,,,,,,
,,,,,79,2020-07-04_12h37.49.571,retriever_ti,2020.1.3,MacIntel,60,Chrome,1280,800,,,,,,,,,,,,,,,,,2,,,,,,,,,,,,,,,,,,,,,,,,,,,601.372035,88,right,0.9566,dress         ,3,7,-1,0,0,601.382895,601.382895,603.87472,0,10,10,10,1,88,4,3,phone       ,dress         ,html/resources/sequences_IDs/B/09_phone.jpg,html/resources/sequences_IDs/A/07_dress.jpg,9,7,4,2,3,2,7,6,0,79,,,,,,,,,,,,,,,,,,,,
,,,,,79,2020-07-04_12h37.49.571,retriever_ti,2020.1.3,MacIntel,60,Chrome,1280,800,,,,,,,,,,,,,,,,,2,,,,,,,,,,,,,,,,,,,,,,,,,,,604.97952,89,right,1.28511,scarf         ,5,6,1,1,1,605.012505,605.012505,607.49959,0,11,11,11,1,89,4,5,phone       ,scarf         ,html/resources/sequences_IDs/B/09_phone.jpg,html/resources/sequences_IDs/A/06_scarf.jpg,9,6,4,2,3,2,7,5,0,79,,,,,,,,,,,,,,,,,,,,
,,,,,79,2020-07-04_12h37.49.571,retriever_ti,2020.1.3,MacIntel,60,Chrome,1280,800,,,,,,,,,,,,,,,,,2,,,,,,,,,,,,,,,,,,,,,,,,,,,608.59877,90,right,0.943725,scarf         ,5,6,4,1,3,608.62001,608.62001,611.110175,0,12,12,12,1,90,1,5,seaturtle     ,scarf         ,html/resources/sequences_IDs/A/02_seaturtle.jpg,html/resources/sequences_IDs/A/06_scarf.jpg,2,6,2,1,3,2,2,5,0,79,,,,,,,,,,,,,,,,,,,,
,,,,,79,2020-07-04_12h37.49.571,retriever_ti,2020.1.3,MacIntel,60,Chrome,1280,800,,,,,,,,,,,,,,,,,2,,,,,,,,,,,,,,,,,,,,,,,,,,,611.72145,91,left,0.96596,redfox      ,2,1,1,1,1,611.760165,611.760165,614.247585,0,13,13,13,1,91,2,1,redfox      ,seaturtle     ,html/resources/sequences_IDs/B/01_redfox.jpg,html/resources/sequences_IDs/A/02_seaturtle.jpg,1,2,1,1,2,1,1,2,0,79,,,,,,,,,,,,,,,,,,,,
,,,,,79,2020-07-04_12h37.49.571,retriever_ti,2020.1.3,MacIntel,60,Chrome,1280,800,,,,,,,,,,,,,,,,,2,,,,,,,,,,,,,,,,,,,,,,,,,,,615.34477,92,left,1.42166,radio       ,6,10,-2,0,3,615.3675,615.3675,617.855215,0,14,14,14,1,92,6,8,radio       ,parrot      ,html/resources/sequences_IDs/B/10_radio.jpg,html/resources/sequences_IDs/B/05_parrot.jpg,10,5,4,2,2,1,8,4,0,79,,,,,,,,,,,,,,,,,,,,
,,,,,79,2020-07-04_12h37.49.571,retriever_ti,2020.1.3,MacIntel,60,Chrome,1280,800,,,,,,,,,,,,,,,,,2,,,,,,,,,,,,,,,,,,,,,,,,,,,618.46792,93,right,1.64463,parrot      ,8,5,3,1,3,618.508685,618.508685,620.99555,0,15,15,15,1,93,5,8,scarf         ,parrot      ,html/resources/sequences_IDs/A/06_scarf.jpg,html/resources/sequences_IDs/B/05_parrot.jpg,6,5,3,2,2,1,5,4,0,79,,,,,,,,,,,,,,,,,,,,
,,,,,79,2020-07-04_12h37.49.571,retriever_ti,2020.1.3,MacIntel,60,Chrome,1280,800,,,,,,,,,,,,,,,,,2,,,,,,,,,,,,,,,,,,,,,,,,,,,621.599565,94,left,1.545975,parrot      ,8,5,3,1,3,621.60892,621.60892,624.102535,0,16,16,16,1,94,8,5,parrot      ,scarf         ,html/resources/sequences_IDs/B/05_parrot.jpg,html/resources/sequences_IDs/A/06_scarf.jpg,5,6,2,1,3,2,4,5,0,79,,,,,,,,,,,,,,,,,,,,
,,,,,79,2020-07-04_12h37.49.571,retriever_ti,2020.1.3,MacIntel,60,Chrome,1280,800,,,,,,,,,,,,,,,,,2,,,,,,,,,,,,,,,,,,,,,,,,,,,624.71585,95,right,1.31954,radio       ,6,10,5,1,3,624.755865,624.755865,627.242875,0,17,17,17,1,95,1,6,seaturtle     ,radio       ,html/resources/sequences_IDs/A/02_seaturtle.jpg,html/resources/sequences_IDs/B/10_radio.jpg,2,10,2,1,4,2,2,8,0,79,,,,,,,,,,,,,,,,,,,,
,,,,,79,2020-07-04_12h37.49.571,retriever_ti,2020.1.3,MacIntel,60,Chrome,1280,800,,,,,,,,,,,,,,,,,2,,,,,,,,,,,,,,,,,,,,,,,,,,,627.85665,96,right,1.19302,redfox      ,2,1,-6,0,3,627.878715,627.878715,630.36529,0,18,18,18,1,96,8,2,parrot      ,redfox      ,html/resources/sequences_IDs/B/05_parrot.jpg,html/resources/sequences_IDs/B/01_redfox.jpg,5,1,2,1,1,1,4,1,0,79,,,,,,,,,,,,,,,,,,,,
,,,,,79,2020-07-04_12h37.49.571,retriever_ti,2020.1.3,MacIntel,60,Chrome,1280,800,,,,,,,,,,,,,,,,,2,,,,,,,,,,,,,,,,,,,,,,,,,,,630.984875,97,right,0.843255,redfox      ,2,1,1,1,1,631.019345,631.019345,633.506015,0,19,19,19,1,97,1,2,seaturtle     ,redfox      ,html/resources/sequences_IDs/A/02_seaturtle.jpg,html/resources/sequences_IDs/B/01_redfox.jpg,2,1,2,1,1,1,2,1,0,79,,,,,,,,,,,,,,,,,,,,
,,,,,79,2020-07-04_12h37.49.571,retriever_ti,2020.1.3,MacIntel,60,Chrome,1280,800,,,,,,,,,,,,,,,,,2,,,,,,,,,,,,,,,,,,,,,,,,,,,634.60696,98,right,1.119475,radio       ,6,10,3,1,3,634.641535,634.641535,637.130295,0,20,20,20,1,98,3,6,dress         ,radio       ,html/resources/sequences_IDs/A/07_dress.jpg,html/resources/sequences_IDs/B/10_radio.jpg,7,10,3,2,4,2,6,8,0,79,,,,,,,,,,,,,,,,,,,,
,,,,,79,2020-07-04_12h37.49.571,retriever_ti,2020.1.3,MacIntel,60,Chrome,1280,800,,,,,,,,,,,,,,,,,2,,,,,,,,,,,,,,,,,,,,,,,,,,,637.744765,99,right,1.65051,clownfish     ,7,4,6,1,3,637.783545,637.783545,640.270445,0,21,21,21,1,99,1,7,seaturtle     ,clownfish     ,html/resources/sequences_IDs/A/02_seaturtle.jpg,html/resources/sequences_IDs/A/04_clownfish.jpg,2,4,2,1,2,1,2,3,0,79,,,,,,,,,,,,,,,,,,,,
,,,,,79,2020-07-04_12h37.49.571,retriever_ti,2020.1.3,MacIntel,60,Chrome,1280,800,,,,,,,,,,,,,,,,,2,,,,,,,,,,,,,,,,,,,,,,,,,,,640.88824,100,left,0.735565,dress         ,3,7,-1,0,0,640.90269,640.90269,643.39332,0,22,22,22,1,100,3,4,dress         ,phone       ,html/resources/sequences_IDs/A/07_dress.jpg,html/resources/sequences_IDs/B/09_phone.jpg,7,9,3,2,4,2,6,7,0,79,,,,,,,,,,,,,,,,,,,,
,,,,,79,2020-07-04_12h37.49.571,retriever_ti,2020.1.3,MacIntel,60,Chrome,1280,800,,,,,,,,,,,,,,,,,2,,,,,,,,,,,,,,,,,,,,,,,,,,,644.498355,101,NaN,NaN,No_response,NaN,NaN,NaN,2,2,644.525415,644.525415,647.018245,0,23,23,23,1,101,7,6,clownfish     ,radio       ,html/resources/sequences_IDs/A/04_clownfish.jpg,html/resources/sequences_IDs/B/10_radio.jpg,4,10,2,1,4,2,3,8,1,79,,,,,,,,,,,,,,,,,,,,
,,,,,79,2020-07-04_12h37.49.571,retriever_ti,2020.1.3,MacIntel,60,Chrome,1280,800,,,,,,,,,,,,,,,,,2,,,,,,,,,,,,,,,,,,,,,,,,,,,648.116915,102,left,0.00127,scarf         ,5,6,-2,0,3,648.138695,648.138695,650.642195,0,24,24,24,1,102,5,7,scarf         ,clownfish     ,html/resources/sequences_IDs/A/06_scarf.jpg,html/resources/sequences_IDs/A/04_clownfish.jpg,6,4,3,2,2,1,5,3,0,79,,,,,,,,,,,,,,,,,,,,
,,,,,79,2020-07-04_12h37.49.571,retriever_ti,2020.1.3,MacIntel,60,Chrome,1280,800,,,,,,,,,,,,,,,,,2,,,,,,,,,,,,,,,,,,,,,,,,,,,651.261995,103,left,0.809195,dress         ,3,7,2,1,3,651.291995,651.291995,653.78275,0,25,25,25,1,103,3,1,dress         ,seaturtle     ,html/resources/sequences_IDs/A/07_dress.jpg,html/resources/sequences_IDs/A/02_seaturtle.jpg,7,2,3,2,2,1,6,2,0,79,,,,,,,,,,,,,,,,,,,,
,,,,,79,2020-07-04_12h37.49.571,retriever_ti,2020.1.3,MacIntel,60,Chrome,1280,800,,,,,,,,,,,,,,,,,2,,,,,,,,,,,,,,,,,,,,,,,,,,,654.400955,104,left,1.30796,radio       ,6,10,5,1,3,654.437355,654.437355,656.92294,0,26,26,26,1,104,6,1,radio       ,seaturtle     ,html/resources/sequences_IDs/B/10_radio.jpg,html/resources/sequences_IDs/A/02_seaturtle.jpg,10,2,4,2,2,1,8,2,0,79,,,,,,,,,,,,,,,,,,,,
,,,,,79,2020-07-04_12h37.49.571,retriever_ti,2020.1.3,MacIntel,60,Chrome,1280,800,,,,,,,,,,,,,,,,,2,,,,,,,,,,,,,,,,,,,,,,,,,,,657.52546,105,right,0.758965,dress         ,3,7,1,1,1,657.55527,657.55527,660.04595,0,27,27,27,1,105,2,3,redfox      ,dress         ,html/resources/sequences_IDs/B/01_redfox.jpg,html/resources/sequences_IDs/A/07_dress.jpg,1,7,1,1,3,2,1,6,0,79,,,,,,,,,,,,,,,,,,,,
,,,,,79,2020-07-04_12h37.49.571,retriever_ti,2020.1.3,MacIntel,60,Chrome,1280,800,,,,,,,,,,,,,,,,,2,,,,,,,,,,,,,,,,,,,,,,,,,,,661.148305,106,left,0.782695,dress         ,3,7,-1,0,0,661.16166,661.16166,663.654165,0,28,28,28,1,106,3,4,dress         ,phone       ,html/resources/sequences_IDs/A/07_dress.jpg,html/resources/sequences_IDs/B/09_phone.jpg,7,9,3,2,4,2,6,7,0,79,,,,,,,,,,,,,,,,,,,,
,,,,,79,2020-07-04_12h37.49.571,retriever_ti,2020.1.3,MacIntel,60,Chrome,1280,800,,,,,,,,,,,,,,,,,2,,,,,,,,,,,,,,,,,,,,,,,,,,,664.753155,107,left,1.45597,dress         ,3,7,-4,0,3,664.774395,664.774395,667.26111,0,29,29,29,1,107,3,7,dress         ,clownfish     ,html/resources/sequences_IDs/A/07_dress.jpg,html/resources/sequences_IDs/A/04_clownfish.jpg,7,4,3,2,2,1,6,3,0,79,,,,,,,,,,,,,,,,,,,,
,,,,,79,2020-07-04_12h37.49.571,retriever_ti,2020.1.3,MacIntel,60,Chrome,1280,800,,,,,,,,,,,,,,,,,2,,,,,,,,,,,,,,,,,,,,,,,,,,,667.87715,108,right,0.854655,redfox      ,2,1,-1,0,0,667.897585,667.897585,670.38506,0,30,30,30,1,108,3,2,dress         ,redfox      ,html/resources/sequences_IDs/A/07_dress.jpg,html/resources/sequences_IDs/B/01_redfox.jpg,7,1,3,2,1,1,6,1,0,79,,,,,,,,,,,,,,,,,,,,
,,,,,79,2020-07-04_12h37.49.571,retriever_ti,2020.1.3,MacIntel,60,Chrome,1280,800,,,,,,,,,,,,,,,,,2,,,,,,,,,,,,,,,,,,,,,,,,,,,671.505605,109,right,1.27144,radio       ,6,10,-1,0,0,671.53945,671.53945,674.026505,0,31,31,31,1,109,7,6,clownfish     ,radio       ,html/resources/sequences_IDs/A/04_clownfish.jpg,html/resources/sequences_IDs/B/10_radio.jpg,4,10,2,1,4,2,3,8,0,79,,,,,,,,,,,,,,,,,,,,
,,,,,79,2020-07-04_12h37.49.571,retriever_ti,2020.1.3,MacIntel,60,Chrome,1280,800,,,,,,,,,,,,,,,,,2,,,,,,,,,,,,,,,,,,,,,,,,,,,675.12933,110,left,0.65666,clownfish     ,7,4,1,1,1,675.163985,675.163985,677.65058,0,32,32,32,1,110,7,6,clownfish     ,radio       ,html/resources/sequences_IDs/A/04_clownfish.jpg,html/resources/sequences_IDs/B/10_radio.jpg,4,10,2,1,4,2,3,8,0,79,,,,,,,,,,,,,,,,,,,,
,,,,,79,2020-07-04_12h37.49.571,retriever_ti,2020.1.3,MacIntel,60,Chrome,1280,800,,,,,,,,,,,,,,,,,2,,,,,,,,,,,,,,,,,,,,,,,,,,,678.75008,111,left,1.240635,scarf         ,5,6,1,1,1,678.77146,678.77146,681.25843,0,33,33,33,1,111,5,4,scarf         ,phone       ,html/resources/sequences_IDs/A/06_scarf.jpg,html/resources/sequences_IDs/B/09_phone.jpg,6,9,3,2,4,2,5,7,0,79,,,,,,,,,,,,,,,,,,,,
,,,,,79,2020-07-04_12h37.49.571,retriever_ti,2020.1.3,MacIntel,60,Chrome,1280,800,,,,,,,,,,,,,,,,,2,,,,,,,,,,,,,,,,,,,,,,,,,,,682.357335,112,right,0.88738,phone       ,4,9,1,1,0,682.378965,682.378965,684.866145,0,34,34,34,1,112,3,4,dress         ,phone       ,html/resources/sequences_IDs/A/07_dress.jpg,html/resources/sequences_IDs/B/09_phone.jpg,7,9,3,2,4,2,6,7,1,79,,,,,,,,,,,,,,,,,,,,
,,,,,79,2020-07-04_12h37.49.571,retriever_ti,2020.1.3,MacIntel,60,Chrome,1280,800,,,,,,,,,,,,,,,,,2,,,,,,,,,,,,,,,,,,,,,,,,,,,685.970445,113,right,1.091205,radio       ,6,10,2,1,3,686.0002,686.0002,688.490755,0,35,35,35,1,113,4,6,phone       ,radio       ,html/resources/sequences_IDs/B/09_phone.jpg,html/resources/sequences_IDs/B/10_radio.jpg,9,10,4,2,4,2,7,8,0,79,,,,,,,,,,,,,,,,,,,,
,,,,,79,2020-07-04_12h37.49.571,retriever_ti,2020.1.3,MacIntel,60,Chrome,1280,800,,,,,,,,,,,,,,,,,2,,,,,,,,,,,,,,,,,,,,,,,,,,,689.109445,114,right,1.069225,redfox      ,2,1,-2,0,3,689.12156,689.12156,691.61416,0,36,36,36,1,114,4,2,phone       ,redfox      ,html/resources/sequences_IDs/B/09_phone.jpg,html/resources/sequences_IDs/B/01_redfox.jpg,9,1,4,2,1,1,7,1,0,79,,,,,,,,,,,,,,,,,,,,
,,,,,79,2020-07-04_12h37.49.571,retriever_ti,2020.1.3,MacIntel,60,Chrome,1280,800,,,,,,,,,,,,,,,,,2,,,,,,,,,,,,,,,,,,,,,,,,,,,692.229515,115,left,1.389445,seaturtle     ,1,2,-7,0,3,692.26701,692.26701,694.75423,0,37,37,37,1,115,1,8,seaturtle     ,parrot      ,html/resources/sequences_IDs/A/02_seaturtle.jpg,html/resources/sequences_IDs/B/05_parrot.jpg,2,5,2,1,2,1,2,4,0,79,,,,,,,,,,,,,,,,,,,,
,,,,,79,2020-07-04_12h37.49.571,retriever_ti,2020.1.3,MacIntel,60,Chrome,1280,800,,,,,,,,,,,,,,,,,2,,,,,,,,,,,,,,,,,,,,,,,,,,,695.356055,116,right,0.87806,dress         ,3,7,-5,0,3,695.36829,695.36829,697.86116,0,38,38,38,1,116,8,3,parrot      ,dress         ,html/resources/sequences_IDs/B/05_parrot.jpg,html/resources/sequences_IDs/A/07_dress.jpg,5,7,2,1,3,2,4,6,0,79,,,,,,,,,,,,,,,,,,,,
,,,,,79,2020-07-04_12h37.49.571,retriever_ti,2020.1.3,MacIntel,60,Chrome,1280,800,,,,,,,,,,,,,,,,,2,,,,,,,,,,,,,,,,,,,,,,,,,,,698.47834,117,right,1.458985,radio       ,6,10,1,1,1,698.51218,698.51218,701.003525,0,39,39,39,1,117,5,6,scarf         ,radio       ,html/resources/sequences_IDs/A/06_scarf.jpg,html/resources/sequences_IDs/B/10_radio.jpg,6,10,3,2,4,2,5,8,0,79,,,,,,,,,,,,,,,,,,,,
,,,,,79,2020-07-04_12h37.49.571,retriever_ti,2020.1.3,MacIntel,60,Chrome,1280,800,,,,,,,,,,,,,,,,,2,,,,,,,,,,,,,,,,,,,,,,,,,,,702.104905,118,right,1.02172,redfox      ,2,1,1,1,1,702.11742,702.11742,704.609095,0,40,40,40,1,118,1,2,seaturtle     ,redfox      ,html/resources/sequences_IDs/A/02_seaturtle.jpg,html/resources/sequences_IDs/B/01_redfox.jpg,2,1,2,1,1,1,2,1,0,79,,,,,,,,,,,,,,,,,,,,
,,,,,79,2020-07-04_12h37.49.571,retriever_ti,2020.1.3,MacIntel,60,Chrome,1280,800,,,,,,,,,,,,,,,,,2,,,,,,,,,,,,,,,,,,,,,,,,,,,705.70637,119,right,1.51544,dress         ,3,7,-2,0,3,705.74628,705.74628,708.23341,0,41,41,41,1,119,5,3,scarf         ,dress         ,html/resources/sequences_IDs/A/06_scarf.jpg,html/resources/sequences_IDs/A/07_dress.jpg,6,7,3,2,3,2,5,6,0,79,,,,,,,,,,,,,,,,,,,,
,,,,,79,2020-07-04_12h37.49.571,retriever_ti,2020.1.3,MacIntel,60,Chrome,1280,800,,,,,,,,,,,,,,,,,2,,,,,,,,,,,,,,,,,,,,,,,,,,,708.847965,120,right,1.485185,scarf         ,5,6,-1,0,0,708.86919,708.86919,711.35668,0,42,42,42,1,120,6,5,radio       ,scarf         ,html/resources/sequences_IDs/B/10_radio.jpg,html/resources/sequences_IDs/A/06_scarf.jpg,10,6,4,2,3,2,8,5,0,79,,,,,,,,,,,,,,,,,,,,
,,,,,79,2020-07-04_12h37.49.571,retriever_ti,2020.1.3,MacIntel,60,Chrome,1280,800,,,,,,,,,,,,,,,,,2,,,,,,,,,,,,,,,,,,,,,,,,,,,712.454685,121,right,1.66692,parrot      ,8,5,1,1,1,712.493865,712.493865,714.98045,0,43,43,43,1,121,7,8,clownfish     ,parrot      ,html/resources/sequences_IDs/A/04_clownfish.jpg,html/resources/sequences_IDs/B/05_parrot.jpg,4,5,2,1,2,1,3,4,0,79,,,,,,,,,,,,,,,,,,,,
,,,,,79,2020-07-04_12h37.49.571,retriever_ti,2020.1.3,MacIntel,60,Chrome,1280,800,,,,,,,,,,,,,,,,,2,,,,,,,,,,,,,,,,,,,,,,,,,,,716.080345,122,right,0.720035,redfox      ,2,1,-1,0,0,716.102215,716.102215,718.588725,0,44,44,44,1,122,3,2,dress         ,redfox      ,html/resources/sequences_IDs/A/07_dress.jpg,html/resources/sequences_IDs/B/01_redfox.jpg,7,1,3,2,1,1,6,1,0,79,,,,,,,,,,,,,,,,,,,,
,,,,,79,2020-07-04_12h37.49.571,retriever_ti,2020.1.3,MacIntel,60,Chrome,1280,800,,,,,,,,,,,,,,,,,2,,,,,,,,,,,,,,,,,,,,,,,,,,,719.68604,123,left,1.199075,radio       ,6,10,2,1,3,719.709225,719.709225,722.196215,0,45,45,45,1,123,6,4,radio       ,phone       ,html/resources/sequences_IDs/B/10_radio.jpg,html/resources/sequences_IDs/B/09_phone.jpg,10,9,4,2,4,2,8,7,0,79,,,,,,,,,,,,,,,,,,,,
,,,,,79,2020-07-04_12h37.49.571,retriever_ti,2020.1.3,MacIntel,60,Chrome,1280,800,,,,,,,,,,,,,,,,,2,,,,,,,,,,,,,,,,,,,,,,,,,,,722.799025,124,left,1.503905,redfox      ,2,1,-4,0,3,722.810255,722.810255,725.30322,0,46,46,46,1,124,2,6,redfox      ,radio       ,html/resources/sequences_IDs/B/01_redfox.jpg,html/resources/sequences_IDs/B/10_radio.jpg,1,10,1,1,4,2,1,8,0,79,,,,,,,,,,,,,,,,,,,,
,,,,,79,2020-07-04_12h37.49.571,retriever_ti,2020.1.3,MacIntel,60,Chrome,1280,800,,,,,,,,,,,,,,,,,2,,,,,,,,,,,,,,,,,,,,,,,,,,,725.90459,125,left,1.02267,redfox      ,2,1,1,1,1,725.93644,725.93644,728.4269,0,47,47,47,1,125,2,1,redfox      ,seaturtle     ,html/resources/sequences_IDs/B/01_redfox.jpg,html/resources/sequences_IDs/A/02_seaturtle.jpg,1,2,1,1,2,1,1,2,0,79,,,,,,,,,,,,,,,,,,,,
,,,,,79,2020-07-04_12h37.49.571,retriever_ti,2020.1.3,MacIntel,60,Chrome,1280,800,,,,,,,,,,,,,,,,,2,,,,,,,,,,,,,,,,,,,,,,,,,,,729.530565,126,left,0.88519,scarf         ,5,6,1,1,0,729.55997,729.55997,732.05139,0,48,48,48,1,126,5,4,scarf         ,phone       ,html/resources/sequences_IDs/A/06_scarf.jpg,html/resources/sequences_IDs/B/09_phone.jpg,6,9,3,2,4,2,5,7,1,79,,,,,,,,,,,,,,,,,,,,
,,,,,79,2020-07-04_12h37.49.571,retriever_ti,2020.1.3,MacIntel,60,Chrome,1280,800,,,,,,,,,,,,,,,,,2,,,,,,,,,,,,,,,,,,,,,,,,,,,733.14941,127,left,1.56702,clownfish     ,7,4,6,1,3,733.17208,733.17208,735.658475,0,49,49,49,1,127,7,1,clownfish     ,seaturtle     ,html/resources/sequences_IDs/A/04_clownfish.jpg,html/resources/sequences_IDs/A/02_seaturtle.jpg,4,2,2,1,2,1,3,2,0,79,,,,,,,,,,,,,,,,,,,,
,,,,,79,2020-07-04_12h37.49.571,retriever_ti,2020.1.3,MacIntel,60,Chrome,1280,800,,,,,,,,,,,,,,,,,2,,,,,,,,,,,,,,,,,,,,,,,,,,,736.278495,128,right,1.030795,radio       ,6,10,1,1,1,736.31227,736.31227,738.799025,0,50,50,50,1,128,5,6,scarf         ,radio       ,html/resources/sequences_IDs/A/06_scarf.jpg,html/resources/sequences_IDs/B/10_radio.jpg,6,10,3,2,4,2,5,8,0,79,,,,,,,,,,,,,,,,,,,,
,,,,,79,2020-07-04_12h37.49.571,retriever_ti,2020.1.3,MacIntel,60,Chrome,1280,800,,,,,,,,,,,,,,,,,2,,,,,,,,,,,,,,,,,,,,,,,,,,,739.895405,129,left,0.83215,parrot      ,8,5,7,1,3,739.936995,739.936995,742.42284,0,51,51,51,1,129,8,1,parrot      ,seaturtle     ,html/resources/sequences_IDs/B/05_parrot.jpg,html/resources/sequences_IDs/A/02_seaturtle.jpg,5,2,2,1,2,1,4,2,0,79,,,,,,,,,,,,,,,,,,,,
,,,,,79,2020-07-04_12h37.49.571,retriever_ti,2020.1.3,MacIntel,60,Chrome,1280,800,,,,,,,,,,,,,,,,,2,,,,,,,,,,,,,,,,,,,,,,,,,,,743.037015,130,right,0.84506,clownfish     ,7,4,1,1,1,743.06004,743.06004,745.54706,0,52,52,52,1,130,6,7,radio       ,clownfish     ,html/resources/sequences_IDs/B/10_radio.jpg,html/resources/sequences_IDs/A/04_clownfish.jpg,10,4,4,2,2,1,8,3,0,79,,,,,,,,,,,,,,,,,,,,
,,,,,79,2020-07-04_12h37.49.571,retriever_ti,2020.1.3,MacIntel,60,Chrome,1280,800,,,,,,,,,,,,,,,,,2,,,,,,,,,,,,,,,,,,,,,,,,,,,746.650465,131,right,0.70749,redfox      ,2,1,-4,0,3,746.6617,746.6617,749.148535,0,53,53,53,1,131,6,2,radio       ,redfox      ,html/resources/sequences_IDs/B/10_radio.jpg,html/resources/sequences_IDs/B/01_redfox.jpg,10,1,4,2,1,1,8,1,0,79,,,,,,,,,,,,,,,,,,,,
,,,,,79,2020-07-04_12h37.49.571,retriever_ti,2020.1.3,MacIntel,60,Chrome,1280,800,,,,,,,,,,,,,,,,,2,,,,,,,,,,,,,,,,,,,,,,,,,,,749.75672,132,left,1.426755,redfox      ,2,1,-2,0,3,749.786575,749.786575,752.27821,0,54,54,54,1,132,2,4,redfox      ,phone       ,html/resources/sequences_IDs/B/01_redfox.jpg,html/resources/sequences_IDs/B/09_phone.jpg,1,9,1,1,4,2,1,7,0,79,,,,,,,,,,,,,,,,,,,,
,,,,,79,2020-07-04_12h37.49.571,retriever_ti,2020.1.3,MacIntel,60,Chrome,1280,800,,,,,,,,,,,,,,,,,2,,,,,,,,,,,,,,,,,,,,,,,,,,,752.880505,133,right,0.680785,scarf         ,5,6,-2,0,3,752.914655,752.914655,755.4015,0,55,55,55,1,133,7,5,clownfish     ,scarf         ,html/resources/sequences_IDs/A/04_clownfish.jpg,html/resources/sequences_IDs/A/06_scarf.jpg,4,6,2,1,3,2,3,5,0,79,,,,,,,,,,,,,,,,,,,,
,,,,,79,2020-07-04_12h37.49.571,retriever_ti,2020.1.3,MacIntel,60,Chrome,1280,800,,,,,,,,,,,,,,,,,2,,,,,,,,,,,,,,,,,,,,,,,,,,,756.019625,134,left,0.72297,redfox      ,2,1,-6,0,3,756.03213,756.03213,758.51988,0,56,56,56,1,134,2,8,redfox      ,parrot      ,html/resources/sequences_IDs/B/01_redfox.jpg,html/resources/sequences_IDs/B/05_parrot.jpg,1,5,1,1,2,1,1,4,0,79,,,,,,,,,,,,,,,,,,,,
,,,,,79,2020-07-04_12h37.49.571,retriever_ti,2020.1.3,MacIntel,60,Chrome,1280,800,,,,,,,,,,,,,,,,,2,,,,,,,,,,,,,,,,,,,,,,,,,,,759.123075,135,right,1.889885,parrot      ,8,5,1,1,0,759.16157,759.16157,761.647695,0,57,57,57,1,135,7,8,clownfish     ,parrot      ,html/resources/sequences_IDs/A/04_clownfish.jpg,html/resources/sequences_IDs/B/05_parrot.jpg,4,5,2,1,2,1,3,4,1,79,,,,,,,,,,,,,,,,,,,,
,,,,,79,2020-07-04_12h37.49.571,retriever_ti,2020.1.3,MacIntel,60,Chrome,1280,800,,,,,,,,,,,,,,,,,2,,,,,,,,,,,,,,,,,,,,,,,,,,,762.74767,136,right,1.053425,phone       ,4,9,-1,0,0,762.768635,762.768635,765.256455,0,58,58,58,1,136,5,4,scarf         ,phone       ,html/resources/sequences_IDs/A/06_scarf.jpg,html/resources/sequences_IDs/B/09_phone.jpg,6,9,3,2,4,2,5,7,0,79,,,,,,,,,,,,,,,,,,,,
,,,,,79,2020-07-04_12h37.49.571,retriever_ti,2020.1.3,MacIntel,60,Chrome,1280,800,,,,,,,,,,,,,,,,,2,,,,,,,,,,,,,,,,,,,,,,,,,,,766.35531,137,left,1.73817,clownfish     ,7,4,-1,0,0,766.37866,766.37866,768.86397,0,59,59,59,1,137,7,8,clownfish     ,parrot      ,html/resources/sequences_IDs/A/04_clownfish.jpg,html/resources/sequences_IDs/B/05_parrot.jpg,4,5,2,1,2,1,3,4,0,79,,,,,,,,,,,,,,,,,,,,
,,,,,79,2020-07-04_12h37.49.571,retriever_ti,2020.1.3,MacIntel,60,Chrome,1280,800,,,,,,,,,,,,,,,,,2,,,,,,,,,,,,,,,,,,,,,,,,,,,769.962505,138,right,0.699835,dress         ,3,7,2,1,3,770.00106,770.00106,772.488075,0,60,60,60,1,138,1,3,seaturtle     ,dress         ,html/resources/sequences_IDs/A/02_seaturtle.jpg,html/resources/sequences_IDs/A/07_dress.jpg,2,7,2,1,3,2,2,6,0,79,,,,,,,,,,,,,,,,,,,,
,,,,,79,2020-07-04_12h37.49.571,retriever_ti,2020.1.3,MacIntel,60,Chrome,1280,800,,,,,,,,,,,,,,,,,2,,,,,,,,,,,,,,,,,,,,,,,,,,,773.10393,139,right,0.740825,scarf         ,5,6,1,1,1,773.12474,773.12474,775.6114,0,61,61,61,1,139,4,5,phone       ,scarf         ,html/resources/sequences_IDs/B/09_phone.jpg,html/resources/sequences_IDs/A/06_scarf.jpg,9,6,4,2,3,2,7,5,0,79,,,,,,,,,,,,,,,,,,,,
,,,,,79,2020-07-04_12h37.49.571,retriever_ti,2020.1.3,MacIntel,60,Chrome,1280,800,,,,,,,,,,,,,,,,,2,,,,,,,,,,,,,,,,,,,,,,,,,,,776.715725,140,right,1.54441,seaturtle     ,1,2,-3,0,3,776.72633,776.72633,779.219115,0,62,62,62,1,140,4,1,phone       ,seaturtle     ,html/resources/sequences_IDs/B/09_phone.jpg,html/resources/sequences_IDs/A/02_seaturtle.jpg,9,2,4,2,2,1,7,2,0,79,,,,,,,,,,,,,,,,,,,,
,,,,,79,2020-07-04_12h37.49.571,retriever_ti,2020.1.3,MacIntel,60,Chrome,1280,800,,,,,,,,,,,,,,,,,2,,,,,,,,,,,,,,,,,,,,,,,,,,,779.83278,141,right,0.758655,dress         ,3,7,-4,0,3,779.87221,779.87221,782.35958,0,63,63,63,1,141,7,3,clownfish     ,dress         ,html/resources/sequences_IDs/A/04_clownfish.jpg,html/resources/sequences_IDs/A/07_dress.jpg,4,7,2,1,3,2,3,6,0,79,,,,,,,,,,,,,,,,,,,,
,,,,,79,2020-07-04_12h37.49.571,retriever_ti,2020.1.3,MacIntel,60,Chrome,1280,800,,,,,,,,,,,,,,,,,2,,,,,,,,,,,,,,,,,,,,,,,,,,,782.974465,142,left,1.96472,seaturtle     ,1,2,-3,0,3,782.995375,782.995375,785.48287,0,64,64,64,1,142,1,4,seaturtle     ,phone       ,html/resources/sequences_IDs/A/02_seaturtle.jpg,html/resources/sequences_IDs/B/09_phone.jpg,2,9,2,1,4,2,2,7,0,79,,,,,,,,,,,,,,,,,,,,
,,,,,79,2020-07-04_12h37.49.571,retriever_ti,2020.1.3,MacIntel,60,Chrome,1280,800,,,,,,,,,,,,,,,,,2,,,,,,,,,,,,,,,,,,,,,,,,,,,786.101395,143,right,1.246915,clownfish     ,7,4,-1,0,0,786.1141,786.1141,788.605535,0,65,65,65,1,143,8,7,parrot      ,clownfish     ,html/resources/sequences_IDs/B/05_parrot.jpg,html/resources/sequences_IDs/A/04_clownfish.jpg,5,4,2,1,2,1,4,3,0,79,,,,,,,,,,,,,,,,,,,,
,,,,,79,2020-07-04_12h37.49.571,retriever_ti,2020.1.3,MacIntel,60,Chrome,1280,800,,,,,,,,,,,,,,,,,2,,,,,,,,,,,,,,,,,,,,,,,,,,,789.71015,144,right,0.90155,redfox      ,2,1,-3,0,3,789.739885,789.739885,792.230525,0,66,66,66,1,144,5,2,scarf         ,redfox      ,html/resources/sequences_IDs/A/06_scarf.jpg,html/resources/sequences_IDs/B/01_redfox.jpg,6,1,3,2,1,1,5,1,0,79,,,,,,,,,,,,,,,,,,,,
,,,,,79,2020-07-04_12h37.49.571,retriever_ti,2020.1.3,MacIntel,60,Chrome,1280,800,,,,,,,,,,,,,,,,,2,,,,,,,,,,,,,,,,,,,,,,,,,,,792.83267,145,left,1.46074,redfox      ,2,1,-1,0,0,792.84547,792.84547,795.33712,0,67,67,67,1,145,2,3,redfox      ,dress         ,html/resources/sequences_IDs/B/01_redfox.jpg,html/resources/sequences_IDs/A/07_dress.jpg,1,7,1,1,3,2,1,6,0,79,,,,,,,,,,,,,,,,,,,,
,,,,,79,2020-07-04_12h37.49.571,retriever_ti,2020.1.3,MacIntel,60,Chrome,1280,800,,,,,,,,,,,,,,,,,2,,,,,,,,,,,,,,,,,,,,,,,,,,,796.44033,146,right,1.677065,radio       ,6,10,1,1,0,796.45269,796.45269,798.944995,0,68,68,68,1,146,5,6,scarf         ,radio       ,html/resources/sequences_IDs/A/06_scarf.jpg,html/resources/sequences_IDs/B/10_radio.jpg,6,10,3,2,4,2,5,8,1,79,,,,,,,,,,,,,,,,,,,,
,,,,,79,2020-07-04_12h37.49.571,retriever_ti,2020.1.3,MacIntel,60,Chrome,1280,800,,,,,,,,,,,,,,,,,2,,,,,,,,,,,,,,,,,,,,,,,,,,,800.04925,147,left,1.224495,parrot      ,8,5,4,1,3,800.078685,800.078685,802.56986,0,69,69,69,1,147,8,4,parrot      ,phone       ,html/resources/sequences_IDs/B/05_parrot.jpg,html/resources/sequences_IDs/B/09_phone.jpg,5,9,2,1,4,2,4,7,0,79,,,,,,,,,,,,,,,,,,,,
,,,,,79,2020-07-04_12h37.49.571,retriever_ti,2020.1.3,MacIntel,60,Chrome,1280,800,,,,,,,,,,,,,,,,,2,,,,,,,,,,,,,,,,,,,,,,,,,,,803.182655,148,right,0.757445,parrot      ,8,5,4,1,3,803.21722,803.21722,805.709545,0,70,70,70,1,148,4,8,phone       ,parrot      ,html/resources/sequences_IDs/B/09_phone.jpg,html/resources/sequences_IDs/B/05_parrot.jpg,9,5,4,2,2,1,7,4,0,79,,,,,,,,,,,,,,,,,,,,
,,,,,79,2020-07-04_12h37.49.571,retriever_ti,2020.1.3,MacIntel,60,Chrome,1280,800,,,,,,,,,,,,,,,,,2,,,,,,,,,,,,,,,,,,,,,,,,,,,806.323465,149,right,1.059035,dress         ,3,7,-1,0,0,806.345925,806.345925,808.832955,0,71,71,71,1,149,4,3,phone       ,dress         ,html/resources/sequences_IDs/B/09_phone.jpg,html/resources/sequences_IDs/A/07_dress.jpg,9,7,4,2,3,2,7,6,0,79,,,,,,,,,,,,,,,,,,,,
,,,,,79,2020-07-04_12h37.49.571,retriever_ti,2020.1.3,MacIntel,60,Chrome,1280,800,,,,,,,,,,,,,,,,,2,,,,,,,,,,,,,,,,,,,,,,,,,,,809.936845,150,right,0.92391,scarf         ,5,6,2,1,3,809.9711,809.9711,812.457985,0,72,72,72,1,150,3,5,dress         ,scarf         ,html/resources/sequences_IDs/A/07_dress.jpg,html/resources/sequences_IDs/A/06_scarf.jpg,7,6,3,2,3,2,6,5,0,79,,,,,,,,,,,,,,,,,,,,
,,,,,79,2020-07-04_12h37.49.571,retriever_ti,2020.1.3,MacIntel,60,Chrome,1280,800,,,,,,,,,,,,,,,,,2,,,,,,,,,,,,,,,,,,,,,,,,,,,813.076575,151,right,0.819285,redfox      ,2,1,-5,0,3,813.110885,813.110885,815.59778,0,73,73,73,1,151,7,2,clownfish     ,redfox      ,html/resources/sequences_IDs/A/04_clownfish.jpg,html/resources/sequences_IDs/B/01_redfox.jpg,4,1,2,1,1,1,3,1,0,79,,,,,,,,,,,,,,,,,,,,
,,,,,79,2020-07-04_12h37.49.571,retriever_ti,2020.1.3,MacIntel,60,Chrome,1280,800,,,,,,,,,,,,,,,,,2,,,,,,,,,,,,,,,,,,,,,,,,,,,816.19934,152,left,0.71883,redfox      ,2,1,1,1,0,816.229895,816.229895,818.720275,0,74,74,74,1,152,2,1,redfox      ,seaturtle     ,html/resources/sequences_IDs/B/01_redfox.jpg,html/resources/sequences_IDs/A/02_seaturtle.jpg,1,2,1,1,2,1,1,2,1,79,,,,,,,,,,,,,,,,,,,,
,,,,,79,2020-07-04_12h37.49.571,retriever_ti,2020.1.3,MacIntel,60,Chrome,1280,800,,,,,,,,,,,,,,,,,2,,,,,,,,,,,,,,,,,,,,,,,,,,,819.81862,153,left,1.10905,parrot      ,8,5,1,1,1,819.858355,819.858355,822.344975,0,75,75,75,1,153,8,7,parrot      ,clownfish     ,html/resources/sequences_IDs/B/05_parrot.jpg,html/resources/sequences_IDs/A/04_clownfish.jpg,5,4,2,1,2,1,4,3,0,79,,,,,,,,,,,,,,,,,,,,
,,,,,79,2020-07-04_12h37.49.571,retriever_ti,2020.1.3,MacIntel,60,Chrome,1280,800,,,,,,,,,,,,,,,,,2,,,,,,,,,,,,,,,,,,,,,,,,,,,823.449525,154,right,1.17669,clownfish     ,7,4,3,1,3,823.460545,823.460545,825.953535,0,76,76,76,1,154,4,7,phone       ,clownfish     ,html/resources/sequences_IDs/B/09_phone.jpg,html/resources/sequences_IDs/A/04_clownfish.jpg,9,4,4,2,2,1,7,3,0,79,,,,,,,,,,,,,,,,,,,,
,,,,,79,2020-07-04_12h37.49.571,retriever_ti,2020.1.3,MacIntel,60,Chrome,1280,800,,,,,,,,,,,,,,,,,,,,,,,,,,,,,,,,,,,,,0,4.008115,,,,,,,,,,,,,,,,,,,,,,,,,,,,,,,,,,,,,,,,,1,0,1,0,1,,,,,,,,,,,,,,,
,,,,,79,2020-07-04_12h37.49.571,retriever_ti,2020.1.3,MacIntel,60,Chrome,1280,800,,,,,,,,,,,,,,,,,3,,,,,,,,,,,,,,,,,,,,,,,,,,,837.571945,155,right,0.61513,redfox      ,2,1,1,1,1,837.593925,837.593925,840.083875,0,0,0,0,1,155,1,2,seaturtle     ,redfox      ,html/resources/sequences_IDs/A/02_seaturtle.jpg,html/resources/sequences_IDs/B/01_redfox.jpg,2,1,2,1,1,1,2,1,0,79,,,,,,,,,,,,,,,,,,,,
,,,,,79,2020-07-04_12h37.49.571,retriever_ti,2020.1.3,MacIntel,60,Chrome,1280,800,,,,,,,,,,,,,,,,,3,,,,,,,,,,,,,,,,,,,,,,,,,,,841.182215,156,left,1.15566,redfox      ,2,1,-3,0,3,841.20406,841.20406,843.69171,0,1,1,1,1,156,2,5,redfox      ,scarf         ,html/resources/sequences_IDs/B/01_redfox.jpg,html/resources/sequences_IDs/A/06_scarf.jpg,1,6,1,1,3,2,1,5,0,79,,,,,,,,,,,,,,,,,,,,
,,,,,79,2020-07-04_12h37.49.571,retriever_ti,2020.1.3,MacIntel,60,Chrome,1280,800,,,,,,,,,,,,,,,,,3,,,,,,,,,,,,,,,,,,,,,,,,,,,844.293935,157,right,0.80012,parrot      ,8,5,2,1,3,844.32497,844.32497,846.814885,0,2,2,2,1,157,6,8,radio       ,parrot      ,html/resources/sequences_IDs/B/10_radio.jpg,html/resources/sequences_IDs/B/05_parrot.jpg,10,5,4,2,2,1,8,4,0,79,,,,,,,,,,,,,,,,,,,,
,,,,,79,2020-07-04_12h37.49.571,retriever_ti,2020.1.3,MacIntel,60,Chrome,1280,800,,,,,,,,,,,,,,,,,3,,,,,,,,,,,,,,,,,,,,,,,,,,,847.430035,158,left,1.564275,seaturtle     ,1,2,-4,0,3,847.451505,847.451505,849.938185,0,3,3,3,1,158,1,5,seaturtle     ,scarf         ,html/resources/sequences_IDs/A/02_seaturtle.jpg,html/resources/sequences_IDs/A/06_scarf.jpg,2,6,2,1,3,2,2,5,0,79,,,,,,,,,,,,,,,,,,,,
,,,,,79,2020-07-04_12h37.49.571,retriever_ti,2020.1.3,MacIntel,60,Chrome,1280,800,,,,,,,,,,,,,,,,,3,,,,,,,,,,,,,,,,,,,,,,,,,,,850.552125,159,right,0.708335,redfox      ,2,1,1,1,1,850.59167,850.59167,853.07882,0,4,4,4,1,159,1,2,seaturtle     ,redfox      ,html/resources/sequences_IDs/A/02_seaturtle.jpg,html/resources/sequences_IDs/B/01_redfox.jpg,2,1,2,1,1,1,2,1,0,79,,,,,,,,,,,,,,,,,,,,
,,,,,79,2020-07-04_12h37.49.571,retriever_ti,2020.1.3,MacIntel,60,Chrome,1280,800,,,,,,,,,,,,,,,,,3,,,,,,,,,,,,,,,,,,,,,,,,,,,854.18217,160,left,0.546595,redfox      ,2,1,-1,0,0,854.216675,854.216675,856.703025,0,5,5,5,1,160,2,3,redfox      ,dress         ,html/resources/sequences_IDs/B/01_redfox.jpg,html/resources/sequences_IDs/A/07_dress.jpg,1,7,1,1,3,2,1,6,0,79,,,,,,,,,,,,,,,,,,,,
,,,,,79,2020-07-04_12h37.49.571,retriever_ti,2020.1.3,MacIntel,60,Chrome,1280,800,,,,,,,,,,,,,,,,,3,,,,,,,,,,,,,,,,,,,,,,,,,,,857.80167,161,left,0.935935,dress         ,3,7,-3,0,3,857.8402,857.8402,860.32765,0,6,6,6,1,161,3,6,dress         ,radio       ,html/resources/sequences_IDs/A/07_dress.jpg,html/resources/sequences_IDs/B/10_radio.jpg,7,10,3,2,4,2,6,8,0,79,,,,,,,,,,,,,,,,,,,,
,,,,,79,2020-07-04_12h37.49.571,retriever_ti,2020.1.3,MacIntel,60,Chrome,1280,800,,,,,,,,,,,,,,,,,3,,,,,,,,,,,,,,,,,,,,,,,,,,,860.940205,162,right,1.01051,parrot      ,8,5,1,1,1,860.980465,860.980465,863.467545,0,7,7,7,1,162,7,8,clownfish     ,parrot      ,html/resources/sequences_IDs/A/04_clownfish.jpg,html/resources/sequences_IDs/B/05_parrot.jpg,4,5,2,1,2,1,3,4,0,79,,,,,,,,,,,,,,,,,,,,
,,,,,79,2020-07-04_12h37.49.571,retriever_ti,2020.1.3,MacIntel,60,Chrome,1280,800,,,,,,,,,,,,,,,,,3,,,,,,,,,,,,,,,,,,,,,,,,,,,864.57034,163,right,0.641795,dress         ,3,7,-1,0,0,864.58233,864.58233,867.07526,0,8,8,8,1,163,4,3,phone       ,dress         ,html/resources/sequences_IDs/B/09_phone.jpg,html/resources/sequences_IDs/A/07_dress.jpg,9,7,4,2,3,2,7,6,0,79,,,,,,,,,,,,,,,,,,,,
,,,,,79,2020-07-04_12h37.49.571,retriever_ti,2020.1.3,MacIntel,60,Chrome,1280,800,,,,,,,,,,,,,,,,,3,,,,,,,,,,,,,,,,,,,,,,,,,,,868.173235,164,left,1.531135,radio       ,6,10,3,1,3,868.195945,868.195945,870.682955,0,9,9,9,1,164,6,3,radio       ,dress         ,html/resources/sequences_IDs/B/10_radio.jpg,html/resources/sequences_IDs/A/07_dress.jpg,10,7,4,2,3,2,8,6,0,79,,,,,,,,,,,,,,,,,,,,
,,,,,79,2020-07-04_12h37.49.571,retriever_ti,2020.1.3,MacIntel,60,Chrome,1280,800,,,,,,,,,,,,,,,,,3,,,,,,,,,,,,,,,,,,,,,,,,,,,871.284885,165,right,2.049365,dress         ,3,7,2,1,3,871.314845,871.314845,873.805695,0,10,10,10,1,165,1,3,seaturtle     ,dress         ,html/resources/sequences_IDs/A/02_seaturtle.jpg,html/resources/sequences_IDs/A/07_dress.jpg,2,7,2,1,3,2,2,6,0,79,,,,,,,,,,,,,,,,,,,,
,,,,,79,2020-07-04_12h37.49.571,retriever_ti,2020.1.3,MacIntel,60,Chrome,1280,800,,,,,,,,,,,,,,,,,3,,,,,,,,,,,,,,,,,,,,,,,,,,,874.408185,166,left,0.98866,redfox      ,2,1,1,1,1,874.443425,874.443425,876.92952,0,11,11,11,1,166,2,1,redfox      ,seaturtle     ,html/resources/sequences_IDs/B/01_redfox.jpg,html/resources/sequences_IDs/A/02_seaturtle.jpg,1,2,1,1,2,1,1,2,0,79,,,,,,,,,,,,,,,,,,,,
,,,,,79,2020-07-04_12h37.49.571,retriever_ti,2020.1.3,MacIntel,60,Chrome,1280,800,,,,,,,,,,,,,,,,,3,,,,,,,,,,,,,,,,,,,,,,,,,,,878.029415,167,right,0.60419,redfox      ,2,1,-2,0,3,878.049875,878.049875,880.53763,0,12,12,12,1,167,4,2,phone       ,redfox      ,html/resources/sequences_IDs/B/09_phone.jpg,html/resources/sequences_IDs/B/01_redfox.jpg,9,1,4,2,1,1,7,1,0,79,,,,,,,,,,,,,,,,,,,,
,,,,,79,2020-07-04_12h37.49.571,retriever_ti,2020.1.3,MacIntel,60,Chrome,1280,800,,,,,,,,,,,,,,,,,3,,,,,,,,,,,,,,,,,,,,,,,,,,,881.151255,168,left,1.15637,dress         ,3,7,2,1,3,881.17385,881.17385,883.660815,0,13,13,13,1,168,3,1,dress         ,seaturtle     ,html/resources/sequences_IDs/A/07_dress.jpg,html/resources/sequences_IDs/A/02_seaturtle.jpg,7,2,3,2,2,1,6,2,0,79,,,,,,,,,,,,,,,,,,,,
,,,,,79,2020-07-04_12h37.49.571,retriever_ti,2020.1.3,MacIntel,60,Chrome,1280,800,,,,,,,,,,,,,,,,,3,,,,,,,,,,,,,,,,,,,,,,,,,,,884.28047,169,left,1.19474,parrot      ,8,5,4,1,3,884.29202,884.29202,886.784065,0,14,14,14,1,169,8,4,parrot      ,phone       ,html/resources/sequences_IDs/B/05_parrot.jpg,html/resources/sequences_IDs/B/09_phone.jpg,5,9,2,1,4,2,4,7,0,79,,,,,,,,,,,,,,,,,,,,
,,,,,79,2020-07-04_12h37.49.571,retriever_ti,2020.1.3,MacIntel,60,Chrome,1280,800,,,,,,,,,,,,,,,,,3,,,,,,,,,,,,,,,,,,,,,,,,,,,887.39894,170,right,1.003065,redfox      ,2,1,-4,0,3,887.437585,887.437585,889.924475,0,15,15,15,1,170,6,2,radio       ,redfox      ,html/resources/sequences_IDs/B/10_radio.jpg,html/resources/sequences_IDs/B/01_redfox.jpg,10,1,4,2,1,1,8,1,0,79,,,,,,,,,,,,,,,,,,,,
,,,,,79,2020-07-04_12h37.49.571,retriever_ti,2020.1.3,MacIntel,60,Chrome,1280,800,,,,,,,,,,,,,,,,,3,,,,,,,,,,,,,,,,,,,,,,,,,,,890.538605,171,left,1.440575,clownfish     ,7,4,-1,0,0,890.5608,890.5608,893.04822,0,16,16,16,1,171,7,8,clownfish     ,parrot      ,html/resources/sequences_IDs/A/04_clownfish.jpg,html/resources/sequences_IDs/B/05_parrot.jpg,4,5,2,1,2,1,3,4,0,79,,,,,,,,,,,,,,,,,,,,
,,,,,79,2020-07-04_12h37.49.571,retriever_ti,2020.1.3,MacIntel,60,Chrome,1280,800,,,,,,,,,,,,,,,,,3,,,,,,,,,,,,,,,,,,,,,,,,,,,894.15173,172,right,1.355785,redfox      ,2,1,-5,0,3,894.162345,894.162345,896.655575,0,17,17,17,1,172,7,2,clownfish     ,redfox      ,html/resources/sequences_IDs/A/04_clownfish.jpg,html/resources/sequences_IDs/B/01_redfox.jpg,4,1,2,1,1,1,3,1,0,79,,,,,,,,,,,,,,,,,,,,
,,,,,79,2020-07-04_12h37.49.571,retriever_ti,2020.1.3,MacIntel,60,Chrome,1280,800,,,,,,,,,,,,,,,,,3,,,,,,,,,,,,,,,,,,,,,,,,,,,897.257475,173,right,1.26223,scarf         ,5,6,1,1,1,897.269315,897.269315,899.76196,0,18,18,18,1,173,4,5,phone       ,scarf         ,html/resources/sequences_IDs/B/09_phone.jpg,html/resources/sequences_IDs/A/06_scarf.jpg,9,6,4,2,3,2,7,5,0,79,,,,,,,,,,,,,,,,,,,,
,,,,,79,2020-07-04_12h37.49.571,retriever_ti,2020.1.3,MacIntel,60,Chrome,1280,800,,,,,,,,,,,,,,,,,3,,,,,,,,,,,,,,,,,,,,,,,,,,,900.866185,174,right,1.473445,phone       ,4,9,1,1,0,900.87736,900.87736,903.370025,0,19,19,19,1,174,3,4,dress         ,phone       ,html/resources/sequences_IDs/A/07_dress.jpg,html/resources/sequences_IDs/B/09_phone.jpg,7,9,3,2,4,2,6,7,1,79,,,,,,,,,,,,,,,,,,,,
,,,,,79,2020-07-04_12h37.49.571,retriever_ti,2020.1.3,MacIntel,60,Chrome,1280,800,,,,,,,,,,,,,,,,,3,,,,,,,,,,,,,,,,,,,,,,,,,,,904.46831,175,left,1.14296,clownfish     ,7,4,1,1,0,904.507365,904.507365,906.99453,0,20,20,20,1,175,7,6,clownfish     ,radio       ,html/resources/sequences_IDs/A/04_clownfish.jpg,html/resources/sequences_IDs/B/10_radio.jpg,4,10,2,1,4,2,3,8,1,79,,,,,,,,,,,,,,,,,,,,
,,,,,79,2020-07-04_12h37.49.571,retriever_ti,2020.1.3,MacIntel,60,Chrome,1280,800,,,,,,,,,,,,,,,,,3,,,,,,,,,,,,,,,,,,,,,,,,,,,908.09818,176,right,1.233975,redfox      ,2,1,-1,0,0,908.13211,908.13211,910.6198,0,21,21,21,1,176,3,2,dress         ,redfox      ,html/resources/sequences_IDs/A/07_dress.jpg,html/resources/sequences_IDs/B/01_redfox.jpg,7,1,3,2,1,1,6,1,0,79,,,,,,,,,,,,,,,,,,,,
,,,,,79,2020-07-04_12h37.49.571,retriever_ti,2020.1.3,MacIntel,60,Chrome,1280,800,,,,,,,,,,,,,,,,,3,,,,,,,,,,,,,,,,,,,,,,,,,,,911.722855,177,right,1.24003,clownfish     ,7,4,-1,0,0,911.7351,911.7351,914.226975,0,22,22,22,1,177,8,7,parrot      ,clownfish     ,html/resources/sequences_IDs/B/05_parrot.jpg,html/resources/sequences_IDs/A/04_clownfish.jpg,5,4,2,1,2,1,4,3,0,79,,,,,,,,,,,,,,,,,,,,
,,,,,79,2020-07-04_12h37.49.571,retriever_ti,2020.1.3,MacIntel,60,Chrome,1280,800,,,,,,,,,,,,,,,,,3,,,,,,,,,,,,,,,,,,,,,,,,,,,915.325685,178,right,1.590415,seaturtle     ,1,2,-7,0,3,915.36429,915.36429,917.85379,0,23,23,23,1,178,8,1,parrot      ,seaturtle     ,html/resources/sequences_IDs/B/05_parrot.jpg,html/resources/sequences_IDs/A/02_seaturtle.jpg,5,2,2,1,2,1,4,2,0,79,,,,,,,,,,,,,,,,,,,,
,,,,,79,2020-07-04_12h37.49.571,retriever_ti,2020.1.3,MacIntel,60,Chrome,1280,800,,,,,,,,,,,,,,,,,3,,,,,,,,,,,,,,,,,,,,,,,,,,,918.47049,179,right,1.604565,seaturtle     ,1,2,-3,0,3,918.50394,918.50394,920.991335,0,24,24,24,1,179,4,1,phone       ,seaturtle     ,html/resources/sequences_IDs/B/09_phone.jpg,html/resources/sequences_IDs/A/02_seaturtle.jpg,9,2,4,2,2,1,7,2,0,79,,,,,,,,,,,,,,,,,,,,
,,,,,79,2020-07-04_12h37.49.571,retriever_ti,2020.1.3,MacIntel,60,Chrome,1280,800,,,,,,,,,,,,,,,,,3,,,,,,,,,,,,,,,,,,,,,,,,,,,921.59332,180,right,1.28022,radio       ,6,10,-1,0,0,921.64433,921.64433,924.13144,0,25,25,25,1,180,7,6,clownfish     ,radio       ,html/resources/sequences_IDs/A/04_clownfish.jpg,html/resources/sequences_IDs/B/10_radio.jpg,4,10,2,1,4,2,3,8,0,79,,,,,,,,,,,,,,,,,,,,
,,,,,79,2020-07-04_12h37.49.571,retriever_ti,2020.1.3,MacIntel,60,Chrome,1280,800,,,,,,,,,,,,,,,,,3,,,,,,,,,,,,,,,,,,,,,,,,,,,925.2311,181,left,0.81422,seaturtle     ,1,2,-5,0,3,925.251995,925.251995,927.73929,0,26,26,26,1,181,1,6,seaturtle     ,radio       ,html/resources/sequences_IDs/A/02_seaturtle.jpg,html/resources/sequences_IDs/B/10_radio.jpg,2,10,2,1,4,2,2,8,0,79,,,,,,,,,,,,,,,,,,,,
,,,,,79,2020-07-04_12h37.49.571,retriever_ti,2020.1.3,MacIntel,60,Chrome,1280,800,,,,,,,,,,,,,,,,,3,,,,,,,,,,,,,,,,,,,,,,,,,,,928.35765,182,left,1.223595,radio       ,6,10,2,1,3,928.36954,928.36954,930.862065,0,27,27,27,1,182,6,4,radio       ,phone       ,html/resources/sequences_IDs/B/10_radio.jpg,html/resources/sequences_IDs/B/09_phone.jpg,10,9,4,2,4,2,8,7,0,79,,,,,,,,,,,,,,,,,,,,
,,,,,79,2020-07-04_12h37.49.571,retriever_ti,2020.1.3,MacIntel,60,Chrome,1280,800,,,,,,,,,,,,,,,,,3,,,,,,,,,,,,,,,,,,,,,,,,,,,931.46428,183,left,1.26871,scarf         ,5,6,-3,0,3,931.49904,931.49904,933.98559,0,28,28,28,1,183,5,8,scarf         ,parrot      ,html/resources/sequences_IDs/A/06_scarf.jpg,html/resources/sequences_IDs/B/05_parrot.jpg,6,5,3,2,2,1,5,4,0,79,,,,,,,,,,,,,,,,,,,,
,,,,,79,2020-07-04_12h37.49.571,retriever_ti,2020.1.3,MacIntel,60,Chrome,1280,800,,,,,,,,,,,,,,,,,3,,,,,,,,,,,,,,,,,,,,,,,,,,,934.587705,184,left,1.60563,redfox      ,2,1,-5,0,3,934.601875,934.601875,937.09239,0,29,29,29,1,184,2,7,redfox      ,clownfish     ,html/resources/sequences_IDs/B/01_redfox.jpg,html/resources/sequences_IDs/A/04_clownfish.jpg,1,4,1,1,2,1,1,3,0,79,,,,,,,,,,,,,,,,,,,,
,,,,,79,2020-07-04_12h37.49.571,retriever_ti,2020.1.3,MacIntel,60,Chrome,1280,800,,,,,,,,,,,,,,,,,3,,,,,,,,,,,,,,,,,,,,,,,,,,,937.704835,185,left,0.932305,redfox      ,2,1,-4,0,3,937.74168,937.74168,940.23252,0,30,30,30,1,185,2,6,redfox      ,radio       ,html/resources/sequences_IDs/B/01_redfox.jpg,html/resources/sequences_IDs/B/10_radio.jpg,1,10,1,1,4,2,1,8,0,79,,,,,,,,,,,,,,,,,,,,
,,,,,79,2020-07-04_12h37.49.571,retriever_ti,2020.1.3,MacIntel,60,Chrome,1280,800,,,,,,,,,,,,,,,,,3,,,,,,,,,,,,,,,,,,,,,,,,,,,940.847165,186,right,0.749475,dress         ,3,7,-5,0,3,940.88564,940.88564,943.372895,0,31,31,31,1,186,8,3,parrot      ,dress         ,html/resources/sequences_IDs/B/05_parrot.jpg,html/resources/sequences_IDs/A/07_dress.jpg,5,7,2,1,3,2,4,6,0,79,,,,,,,,,,,,,,,,,,,,
,,,,,79,2020-07-04_12h37.49.571,retriever_ti,2020.1.3,MacIntel,60,Chrome,1280,800,,,,,,,,,,,,,,,,,3,,,,,,,,,,,,,,,,,,,,,,,,,,,943.97371,187,left,0.853665,dress         ,3,7,-1,0,0,944.009495,944.009495,946.49608,0,32,32,32,1,187,3,4,dress         ,phone       ,html/resources/sequences_IDs/A/07_dress.jpg,html/resources/sequences_IDs/B/09_phone.jpg,7,9,3,2,4,2,6,7,0,79,,,,,,,,,,,,,,,,,,,,
,,,,,79,2020-07-04_12h37.49.571,retriever_ti,2020.1.3,MacIntel,60,Chrome,1280,800,,,,,,,,,,,,,,,,,3,,,,,,,,,,,,,,,,,,,,,,,,,,,947.60069,188,right,1.22009,parrot      ,8,5,1,1,0,947.61203,947.61203,950.104065,0,33,33,33,1,188,7,8,clownfish     ,parrot      ,html/resources/sequences_IDs/A/04_clownfish.jpg,html/resources/sequences_IDs/B/05_parrot.jpg,4,5,2,1,2,1,3,4,1,79,,,,,,,,,,,,,,,,,,,,
,,,,,79,2020-07-04_12h37.49.571,retriever_ti,2020.1.3,MacIntel,60,Chrome,1280,800,,,,,,,,,,,,,,,,,3,,,,,,,,,,,,,,,,,,,,,,,,,,,951.20168,189,left,1.569025,scarf         ,5,6,1,1,1,951.241755,951.241755,953.728715,0,34,34,34,1,189,5,4,scarf         ,phone       ,html/resources/sequences_IDs/A/06_scarf.jpg,html/resources/sequences_IDs/B/09_phone.jpg,6,9,3,2,4,2,5,7,0,79,,,,,,,,,,,,,,,,,,,,
,,,,,79,2020-07-04_12h37.49.571,retriever_ti,2020.1.3,MacIntel,60,Chrome,1280,800,,,,,,,,,,,,,,,,,3,,,,,,,,,,,,,,,,,,,,,,,,,,,954.826395,190,right,1.108545,clownfish     ,7,4,4,1,3,954.8662,954.8662,957.352905,0,35,35,35,1,190,3,7,dress         ,clownfish     ,html/resources/sequences_IDs/A/07_dress.jpg,html/resources/sequences_IDs/A/04_clownfish.jpg,7,4,3,2,2,1,6,3,0,79,,,,,,,,,,,,,,,,,,,,
,,,,,79,2020-07-04_12h37.49.571,retriever_ti,2020.1.3,MacIntel,60,Chrome,1280,800,,,,,,,,,,,,,,,,,3,,,,,,,,,,,,,,,,,,,,,,,,,,,957.95498,191,left,1.026985,seaturtle     ,1,2,-7,0,3,957.96671,957.96671,960.459625,0,36,36,36,1,191,1,8,seaturtle     ,parrot      ,html/resources/sequences_IDs/A/02_seaturtle.jpg,html/resources/sequences_IDs/B/05_parrot.jpg,2,5,2,1,2,1,2,4,0,79,,,,,,,,,,,,,,,,,,,,
,,,,,79,2020-07-04_12h37.49.571,retriever_ti,2020.1.3,MacIntel,60,Chrome,1280,800,,,,,,,,,,,,,,,,,3,,,,,,,,,,,,,,,,,,,,,,,,,,,961.076965,192,right,0.71692,scarf         ,5,6,-1,0,0,961.110995,961.110995,963.59969,0,37,37,37,1,192,6,5,radio       ,scarf         ,html/resources/sequences_IDs/B/10_radio.jpg,html/resources/sequences_IDs/A/06_scarf.jpg,10,6,4,2,3,2,8,5,0,79,,,,,,,,,,,,,,,,,,,,
,,,,,79,2020-07-04_12h37.49.571,retriever_ti,2020.1.3,MacIntel,60,Chrome,1280,800,,,,,,,,,,,,,,,,,3,,,,,,,,,,,,,,,,,,,,,,,,,,,964.702685,193,right,0.841655,dress         ,3,7,1,1,1,964.73572,964.73572,967.224205,0,38,38,38,1,193,2,3,redfox      ,dress         ,html/resources/sequences_IDs/B/01_redfox.jpg,html/resources/sequences_IDs/A/07_dress.jpg,1,7,1,1,3,2,1,6,0,79,,,,,,,,,,,,,,,,,,,,
,,,,,79,2020-07-04_12h37.49.571,retriever_ti,2020.1.3,MacIntel,60,Chrome,1280,800,,,,,,,,,,,,,,,,,3,,,,,,,,,,,,,,,,,,,,,,,,,,,968.327055,194,left,1.060885,clownfish     ,7,4,1,1,1,968.339625,968.339625,970.83193,0,39,39,39,1,194,7,6,clownfish     ,radio       ,html/resources/sequences_IDs/A/04_clownfish.jpg,html/resources/sequences_IDs/B/10_radio.jpg,4,10,2,1,4,2,3,8,0,79,,,,,,,,,,,,,,,,,,,,
,,,,,79,2020-07-04_12h37.49.571,retriever_ti,2020.1.3,MacIntel,60,Chrome,1280,800,,,,,,,,,,,,,,,,,3,,,,,,,,,,,,,,,,,,,,,,,,,,,971.933995,195,right,1.019245,seaturtle     ,1,2,-5,0,3,971.951155,971.951155,974.43995,0,40,40,40,1,195,6,1,radio       ,seaturtle     ,html/resources/sequences_IDs/B/10_radio.jpg,html/resources/sequences_IDs/A/02_seaturtle.jpg,10,2,4,2,2,1,8,2,0,79,,,,,,,,,,,,,,,,,,,,
,,,,,79,2020-07-04_12h37.49.571,retriever_ti,2020.1.3,MacIntel,60,Chrome,1280,800,,,,,,,,,,,,,,,,,3,,,,,,,,,,,,,,,,,,,,,,,,,,,975.05895,196,right,0.957275,scarf         ,5,6,-2,0,3,975.08878,975.08878,977.57947,0,41,41,41,1,196,7,5,clownfish     ,scarf         ,html/resources/sequences_IDs/A/04_clownfish.jpg,html/resources/sequences_IDs/A/06_scarf.jpg,4,6,2,1,3,2,3,5,0,79,,,,,,,,,,,,,,,,,,,,
,,,,,79,2020-07-04_12h37.49.571,retriever_ti,2020.1.3,MacIntel,60,Chrome,1280,800,,,,,,,,,,,,,,,,,3,,,,,,,,,,,,,,,,,,,,,,,,,,,978.19368,197,right,0.98982,parrot      ,8,5,4,1,3,978.21629,978.21629,980.703125,0,42,42,42,1,197,4,8,phone       ,parrot      ,html/resources/sequences_IDs/B/09_phone.jpg,html/resources/sequences_IDs/B/05_parrot.jpg,9,5,4,2,2,1,7,4,0,79,,,,,,,,,,,,,,,,,,,,
,,,,,79,2020-07-04_12h37.49.571,retriever_ti,2020.1.3,MacIntel,60,Chrome,1280,800,,,,,,,,,,,,,,,,,3,,,,,,,,,,,,,,,,,,,,,,,,,,,981.317685,198,left,1.31578,scarf         ,5,6,1,1,1,981.339625,981.339625,983.826635,0,43,43,43,1,198,5,4,scarf         ,phone       ,html/resources/sequences_IDs/A/06_scarf.jpg,html/resources/sequences_IDs/B/09_phone.jpg,6,9,3,2,4,2,5,7,0,79,,,,,,,,,,,,,,,,,,,,
,,,,,79,2020-07-04_12h37.49.571,retriever_ti,2020.1.3,MacIntel,60,Chrome,1280,800,,,,,,,,,,,,,,,,,3,,,,,,,,,,,,,,,,,,,,,,,,,,,984.928885,199,right,1.393695,radio       ,6,10,1,1,0,984.943995,984.943995,987.436085,0,44,44,44,1,199,5,6,scarf         ,radio       ,html/resources/sequences_IDs/A/06_scarf.jpg,html/resources/sequences_IDs/B/10_radio.jpg,6,10,3,2,4,2,5,8,1,79,,,,,,,,,,,,,,,,,,,,
,,,,,79,2020-07-04_12h37.49.571,retriever_ti,2020.1.3,MacIntel,60,Chrome,1280,800,,,,,,,,,,,,,,,,,3,,,,,,,,,,,,,,,,,,,,,,,,,,,988.53356,200,right,1.1146,clownfish     ,7,4,1,1,1,988.572245,988.572245,991.05821,0,45,45,45,1,200,6,7,radio       ,clownfish     ,html/resources/sequences_IDs/B/10_radio.jpg,html/resources/sequences_IDs/A/04_clownfish.jpg,10,4,4,2,2,1,8,3,0,79,,,,,,,,,,,,,,,,,,,,
,,,,,79,2020-07-04_12h37.49.571,retriever_ti,2020.1.3,MacIntel,60,Chrome,1280,800,,,,,,,,,,,,,,,,,3,,,,,,,,,,,,,,,,,,,,,,,,,,,992.16277,201,right,0.89712,seaturtle     ,1,2,-4,0,3,992.191865,992.191865,994.68366,0,46,46,46,1,201,5,1,scarf         ,seaturtle     ,html/resources/sequences_IDs/A/06_scarf.jpg,html/resources/sequences_IDs/A/02_seaturtle.jpg,6,2,3,2,2,1,5,2,0,79,,,,,,,,,,,,,,,,,,,,
,,,,,79,2020-07-04_12h37.49.571,retriever_ti,2020.1.3,MacIntel,60,Chrome,1280,800,,,,,,,,,,,,,,,,,3,,,,,,,,,,,,,,,,,,,,,,,,,,,995.298525,202,left,1.02814,dress         ,3,7,-1,0,0,995.319955,995.319955,997.80688,0,47,47,47,1,202,3,4,dress         ,phone       ,html/resources/sequences_IDs/A/07_dress.jpg,html/resources/sequences_IDs/B/09_phone.jpg,7,9,3,2,4,2,6,7,0,79,,,,,,,,,,,,,,,,,,,,
,,,,,79,2020-07-04_12h37.49.571,retriever_ti,2020.1.3,MacIntel,60,Chrome,1280,800,,,,,,,,,,,,,,,,,3,,,,,,,,,,,,,,,,,,,,,,,,,,,998.903985,203,right,1.046515,clownfish     ,7,4,3,1,3,998.942405,998.942405,1001.43096,0,48,48,48,1,203,4,7,phone       ,clownfish     ,html/resources/sequences_IDs/B/09_phone.jpg,html/resources/sequences_IDs/A/04_clownfish.jpg,9,4,4,2,2,1,7,3,0,79,,,,,,,,,,,,,,,,,,,,
,,,,,79,2020-07-04_12h37.49.571,retriever_ti,2020.1.3,MacIntel,60,Chrome,1280,800,,,,,,,,,,,,,,,,,3,,,,,,,,,,,,,,,,,,,,,,,,,,,1002.03245,204,left,1.344885,parrot      ,8,5,3,1,3,1002.06794,1002.06794,1004.55483,0,49,49,49,1,204,8,5,parrot      ,scarf         ,html/resources/sequences_IDs/B/05_parrot.jpg,html/resources/sequences_IDs/A/06_scarf.jpg,5,6,2,1,3,2,4,5,0,79,,,,,,,,,,,,,,,,,,,,
,,,,,79,2020-07-04_12h37.49.571,retriever_ti,2020.1.3,MacIntel,60,Chrome,1280,800,,,,,,,,,,,,,,,,,3,,,,,,,,,,,,,,,,,,,,,,,,,,,1005.169255,205,left,1.070985,redfox      ,2,1,-6,0,3,1005.190825,1005.190825,1007.677785,0,50,50,50,1,205,2,8,redfox      ,parrot      ,html/resources/sequences_IDs/B/01_redfox.jpg,html/resources/sequences_IDs/B/05_parrot.jpg,1,5,1,1,2,1,1,4,0,79,,,,,,,,,,,,,,,,,,,,
,,,,,79,2020-07-04_12h37.49.571,retriever_ti,2020.1.3,MacIntel,60,Chrome,1280,800,,,,,,,,,,,,,,,,,3,,,,,,,,,,,,,,,,,,,,,,,,,,,1008.279395,206,right,0.82028,scarf         ,5,6,-1,0,0,1008.311025,1008.311025,1010.80149,0,51,51,51,1,206,6,5,radio       ,scarf         ,html/resources/sequences_IDs/B/10_radio.jpg,html/resources/sequences_IDs/A/06_scarf.jpg,10,6,4,2,3,2,8,5,0,79,,,,,,,,,,,,,,,,,,,,
,,,,,79,2020-07-04_12h37.49.571,retriever_ti,2020.1.3,MacIntel,60,Chrome,1280,800,,,,,,,,,,,,,,,,,3,,,,,,,,,,,,,,,,,,,,,,,,,,,1011.905205,207,left,0.8777,parrot      ,8,5,2,1,3,1011.917385,1011.917385,1014.40818,0,52,52,52,1,207,8,6,parrot      ,radio       ,html/resources/sequences_IDs/B/05_parrot.jpg,html/resources/sequences_IDs/B/10_radio.jpg,5,10,2,1,4,2,4,8,0,79,,,,,,,,,,,,,,,,,,,,
,,,,,79,2020-07-04_12h37.49.571,retriever_ti,2020.1.3,MacIntel,60,Chrome,1280,800,,,,,,,,,,,,,,,,,3,,,,,,,,,,,,,,,,,,,,,,,,,,,1015.027715,208,right,0.988665,clownfish     ,7,4,1,1,1,1015.061,1015.061,1017.54904,0,53,53,53,1,208,6,7,radio       ,clownfish     ,html/resources/sequences_IDs/B/10_radio.jpg,html/resources/sequences_IDs/A/04_clownfish.jpg,10,4,4,2,2,1,8,3,0,79,,,,,,,,,,,,,,,,,,,,
,,,,,79,2020-07-04_12h37.49.571,retriever_ti,2020.1.3,MacIntel,60,Chrome,1280,800,,,,,,,,,,,,,,,,,3,,,,,,,,,,,,,,,,,,,,,,,,,,,1018.64829,209,right,0.98942,redfox      ,2,1,-6,0,3,1018.66957,1018.66957,1021.15687,0,54,54,54,1,209,8,2,parrot      ,redfox      ,html/resources/sequences_IDs/B/05_parrot.jpg,html/resources/sequences_IDs/B/01_redfox.jpg,5,1,2,1,1,1,4,1,0,79,,,,,,,,,,,,,,,,,,,,
,,,,,79,2020-07-04_12h37.49.571,retriever_ti,2020.1.3,MacIntel,60,Chrome,1280,800,,,,,,,,,,,,,,,,,3,,,,,,,,,,,,,,,,,,,,,,,,,,,1021.776325,210,right,1.346745,dress         ,3,7,-1,0,0,1021.8105,1021.8105,1024.296985,0,55,55,55,1,210,4,3,phone       ,dress         ,html/resources/sequences_IDs/B/09_phone.jpg,html/resources/sequences_IDs/A/07_dress.jpg,9,7,4,2,3,2,7,6,0,79,,,,,,,,,,,,,,,,,,,,
,,,,,79,2020-07-04_12h37.49.571,retriever_ti,2020.1.3,MacIntel,60,Chrome,1280,800,,,,,,,,,,,,,,,,,3,,,,,,,,,,,,,,,,,,,,,,,,,,,1025.39592,211,right,1.2159,clownfish     ,7,4,-1,0,0,1025.434805,1025.434805,1027.921705,0,56,56,56,1,211,8,7,parrot      ,clownfish     ,html/resources/sequences_IDs/B/05_parrot.jpg,html/resources/sequences_IDs/A/04_clownfish.jpg,5,4,2,1,2,1,4,3,0,79,,,,,,,,,,,,,,,,,,,,
,,,,,79,2020-07-04_12h37.49.571,retriever_ti,2020.1.3,MacIntel,60,Chrome,1280,800,,,,,,,,,,,,,,,,,3,,,,,,,,,,,,,,,,,,,,,,,,,,,1029.01949,212,left,0.959755,redfox      ,2,1,-1,0,1,1029.059325,1029.059325,1031.54587,0,57,57,57,1,212,2,3,redfox      ,dress         ,html/resources/sequences_IDs/B/01_redfox.jpg,html/resources/sequences_IDs/A/07_dress.jpg,1,7,1,1,3,2,1,6,1,79,,,,,,,,,,,,,,,,,,,,
,,,,,79,2020-07-04_12h37.49.571,retriever_ti,2020.1.3,MacIntel,60,Chrome,1280,800,,,,,,,,,,,,,,,,,3,,,,,,,,,,,,,,,,,,,,,,,,,,,1032.64532,213,left,2.0201,phone       ,4,9,-2,0,3,1032.68338,1032.68338,1035.170325,0,58,58,58,1,213,4,6,phone       ,radio       ,html/resources/sequences_IDs/B/09_phone.jpg,html/resources/sequences_IDs/B/10_radio.jpg,9,10,4,2,4,2,7,8,0,79,,,,,,,,,,,,,,,,,,,,
,,,,,79,2020-07-04_12h37.49.571,retriever_ti,2020.1.3,MacIntel,60,Chrome,1280,800,,,,,,,,,,,,,,,,,3,,,,,,,,,,,,,,,,,,,,,,,,,,,1035.78947,214,right,1.362875,scarf         ,5,6,2,1,3,1035.800505,1035.800505,1038.293745,0,59,59,59,1,214,3,5,dress         ,scarf         ,html/resources/sequences_IDs/A/07_dress.jpg,html/resources/sequences_IDs/A/06_scarf.jpg,7,6,3,2,3,2,6,5,0,79,,,,,,,,,,,,,,,,,,,,
,,,,,79,2020-07-04_12h37.49.571,retriever_ti,2020.1.3,MacIntel,60,Chrome,1280,800,,,,,,,,,,,,,,,,,3,,,,,,,,,,,,,,,,,,,,,,,,,,,1038.91205,215,left,1.05913,scarf         ,5,6,-1,0,0,1038.92513,1038.92513,1041.41709,0,60,60,60,1,215,5,6,scarf         ,radio       ,html/resources/sequences_IDs/A/06_scarf.jpg,html/resources/sequences_IDs/B/10_radio.jpg,6,10,3,2,4,2,5,8,0,79,,,,,,,,,,,,,,,,,,,,
,,,,,79,2020-07-04_12h37.49.571,retriever_ti,2020.1.3,MacIntel,60,Chrome,1280,800,,,,,,,,,,,,,,,,,3,,,,,,,,,,,,,,,,,,,,,,,,,,,1042.52117,216,right,0.901705,parrot      ,8,5,5,1,3,1042.55435,1042.55435,1045.041645,0,61,61,61,1,216,3,8,dress         ,parrot      ,html/resources/sequences_IDs/A/07_dress.jpg,html/resources/sequences_IDs/B/05_parrot.jpg,7,5,3,2,2,1,6,4,0,79,,,,,,,,,,,,,,,,,,,,
,,,,,79,2020-07-04_12h37.49.571,retriever_ti,2020.1.3,MacIntel,60,Chrome,1280,800,,,,,,,,,,,,,,,,,3,,,,,,,,,,,,,,,,,,,,,,,,,,,1045.659595,217,right,1.048645,redfox      ,2,1,-3,0,3,1045.674185,1045.674185,1048.165375,0,62,62,62,1,217,5,2,scarf         ,redfox      ,html/resources/sequences_IDs/A/06_scarf.jpg,html/resources/sequences_IDs/B/01_redfox.jpg,6,1,3,2,1,1,5,1,0,79,,,,,,,,,,,,,,,,,,,,
,,,,,79,2020-07-04_12h37.49.571,retriever_ti,2020.1.3,MacIntel,60,Chrome,1280,800,,,,,,,,,,,,,,,,,3,,,,,,,,,,,,,,,,,,,,,,,,,,,1048.7668,218,left,1.173065,clownfish     ,7,4,3,1,3,1048.802315,1048.802315,1051.288185,0,63,63,63,1,218,7,4,clownfish     ,phone       ,html/resources/sequences_IDs/A/04_clownfish.jpg,html/resources/sequences_IDs/B/09_phone.jpg,4,9,2,1,4,2,3,7,0,79,,,,,,,,,,,,,,,,,,,,
,,,,,79,2020-07-04_12h37.49.571,retriever_ti,2020.1.3,MacIntel,60,Chrome,1280,800,,,,,,,,,,,,,,,,,3,,,,,,,,,,,,,,,,,,,,,,,,,,,1051.89103,219,right,1.452735,dress         ,3,7,-2,0,3,1051.925065,1051.925065,1054.411865,0,64,64,64,1,219,5,3,scarf         ,dress         ,html/resources/sequences_IDs/A/06_scarf.jpg,html/resources/sequences_IDs/A/07_dress.jpg,6,7,3,2,3,2,5,6,0,79,,,,,,,,,,,,,,,,,,,,
,,,,,79,2020-07-04_12h37.49.571,retriever_ti,2020.1.3,MacIntel,60,Chrome,1280,800,,,,,,,,,,,,,,,,,3,,,,,,,,,,,,,,,,,,,,,,,,,,,1055.03001,220,left,0.93866,redfox      ,2,1,1,1,1,1055.04323,1055.04323,1057.5353,0,65,65,65,1,220,2,1,redfox      ,seaturtle     ,html/resources/sequences_IDs/B/01_redfox.jpg,html/resources/sequences_IDs/A/02_seaturtle.jpg,1,2,1,1,2,1,1,2,0,79,,,,,,,,,,,,,,,,,,,,
,,,,,79,2020-07-04_12h37.49.571,retriever_ti,2020.1.3,MacIntel,60,Chrome,1280,800,,,,,,,,,,,,,,,,,3,,,,,,,,,,,,,,,,,,,,,,,,,,,1058.63982,221,left,0.79194,redfox      ,2,1,1,1,0,1058.672885,1058.672885,1061.160055,0,66,66,66,1,221,2,1,redfox      ,seaturtle     ,html/resources/sequences_IDs/B/01_redfox.jpg,html/resources/sequences_IDs/A/02_seaturtle.jpg,1,2,1,1,2,1,1,2,1,79,,,,,,,,,,,,,,,,,,,,
,,,,,79,2020-07-04_12h37.49.571,retriever_ti,2020.1.3,MacIntel,60,Chrome,1280,800,,,,,,,,,,,,,,,,,3,,,,,,,,,,,,,,,,,,,,,,,,,,,1062.258035,222,left,0.94837,redfox      ,2,1,-2,0,3,1062.29709,1062.29709,1064.78357,0,67,67,67,1,222,2,4,redfox      ,phone       ,html/resources/sequences_IDs/B/01_redfox.jpg,html/resources/sequences_IDs/B/09_phone.jpg,1,9,1,1,4,2,1,7,0,79,,,,,,,,,,,,,,,,,,,,
