instructionsLoop.thisRepN,instructionsLoop.thisTrialN,instructionsLoop.thisN,instructionsLoop.thisIndex,instructionsLoop.ran,participant,date,expName,psychopyVersion,OS,frameRate,browser,xResolution,yResolution,fix_onset,tprac,practiceKey.keys,practiceKey.rt,pracitem_chosen_name,acc_practice,P1_onsetPrac,P2_onsetPrac,onsetFeedbPrac,practiceTrials.thisRepN,practiceTrials.thisTrialN,practiceTrials.thisN,practiceTrials.thisIndex,practiceTrials.ran,P1,P2,Block,LocItem1,LocItem2,NameItem1,NameItem2,key_respAC_prac.keys,key_respAC_prac.corr,key_respAC_prac.rt,AC_acc,Attentions.thisRepN,Attentions.thisTrialN,Attentions.thisN,Attentions.thisIndex,Attentions.ran,Stim,Loc1,Loc2,Loc3,Loc4,CorrAns,keyDisturbed.keys,keyDisturbed.rt,repPractice.thisRepN,repPractice.thisTrialN,repPractice.thisN,repPractice.thisIndex,repPractice.ran,fixcross_onsetMain,trialNumber,key_resp.keys,key_resp.rt,item_chosen_name,item_chosen_value,item_chosen_ID,diff_chosen_minus_reject,acc_real,acc_feedback,P1_onset,P2_onset,feedb_onset,trials.thisRepN,trials.thisTrialN,trials.thisN,trials.thisIndex,trials.ran,Trial,ValueP1,ValueP2,P1name,P2name,P1Loc,P2Loc,P1id,P2id,Micro_categoryP1,Macro_categoryP1,Micro_categoryP2,Macro_categoryP2,ID_sequenceP1,ID_sequenceP2,InverseFb,pNumber,repBlocks.thisRepN,repBlocks.thisTrialN,repBlocks.thisN,repBlocks.thisIndex,repBlocks.ran,key_respAC.keys,key_respAC.corr,key_respAC.rt,trials_AC.thisRepN,trials_AC.thisTrialN,trials_AC.thisN,trials_AC.thisIndex,trials_AC.ran,Bonus,BonusLoop.thisRepN,BonusLoop.thisTrialN,BonusLoop.thisN,BonusLoop.thisIndex,BonusLoop.ran,comments
0,0,0,0,1,7,2020-07-01_10h33.22.265,retriever_ti,2020.1.3,Win32,60,Chrome,1536,864,,,,,,,,,,,,,,,,,,,,,,,,,,,,,,,,,,,,,,,,,,,,,,,,,,,,,,,,,,,,,,,,,,,,,,,,,,,,,,,,,,,,,,,,,,,,,,,,,,
1,0,1,0,1,7,2020-07-01_10h33.22.265,retriever_ti,2020.1.3,Win32,60,Chrome,1536,864,,,,,,,,,,,,,,,,,,,,,,,,,,,,,,,,,,,,,,,,,,,,,,,,,,,,,,,,,,,,,,,,,,,,,,,,,,,,,,,,,,,,,,,,,,,,,,,,,,
2,0,2,0,1,7,2020-07-01_10h33.22.265,retriever_ti,2020.1.3,Win32,60,Chrome,1536,864,,,,,,,,,,,,,,,,,,,,,,,,,,,,,,,,,,,,,,,,,,,,,,,,,,,,,,,,,,,,,,,,,,,,,,,,,,,,,,,,,,,,,,,,,,,,,,,,,,
3,0,3,0,1,7,2020-07-01_10h33.22.265,retriever_ti,2020.1.3,Win32,60,Chrome,1536,864,,,,,,,,,,,,,,,,,,,,,,,,,,,,,,,,,,,,,,,,,,,,,,,,,,,,,,,,,,,,,,,,,,,,,,,,,,,,,,,,,,,,,,,,,,,,,,,,,,
4,0,4,0,1,7,2020-07-01_10h33.22.265,retriever_ti,2020.1.3,Win32,60,Chrome,1536,864,,,,,,,,,,,,,,,,,,,,,,,,,,,,,,,,,,,,,,,,,,,,,,,,,,,,,,,,,,,,,,,,,,,,,,,,,,,,,,,,,,,,,,,,,,,,,,,,,,
5,0,5,0,1,7,2020-07-01_10h33.22.265,retriever_ti,2020.1.3,Win32,60,Chrome,1536,864,,,,,,,,,,,,,,,,,,,,,,,,,,,,,,,,,,,,,,,,,,,,,,,,,,,,,,,,,,,,,,,,,,,,,,,,,,,,,,,,,,,,,,,,,,,,,,,,,,
6,0,6,0,1,7,2020-07-01_10h33.22.265,retriever_ti,2020.1.3,Win32,60,Chrome,1536,864,,,,,,,,,,,,,,,,,,,,,,,,,,,,,,,,,,,,,,,,,,,,,,,,,,,,,,,,,,,,,,,,,,,,,,,,,,,,,,,,,,,,,,,,,,,,,,,,,,
7,0,7,0,1,7,2020-07-01_10h33.22.265,retriever_ti,2020.1.3,Win32,60,Chrome,1536,864,,,,,,,,,,,,,,,,,,,,,,,,,,,,,,,,,,,,,,,,,,,,,,,,,,,,,,,,,,,,,,,,,,,,,,,,,,,,,,,,,,,,,,,,,,,,,,,,,,
8,0,8,0,1,7,2020-07-01_10h33.22.265,retriever_ti,2020.1.3,Win32,60,Chrome,1536,864,,,,,,,,,,,,,,,,,,,,,,,,,,,,,,,,,,,,,,,,,,,,,,,,,,,,,,,,,,,,,,,,,,,,,,,,,,,,,,,,,,,,,,,,,,,,,,,,,,
9,0,9,0,1,7,2020-07-01_10h33.22.265,retriever_ti,2020.1.3,Win32,60,Chrome,1536,864,,,,,,,,,,,,,,,,,,,,,,,,,,,,,,,,,,,,,,,,,,,,,,,,,,,,,,,,,,,,,,,,,,,,,,,,,,,,,,,,,,,,,,,,,,,,,,,,,,
10,0,10,0,1,7,2020-07-01_10h33.22.265,retriever_ti,2020.1.3,Win32,60,Chrome,1536,864,,,,,,,,,,,,,,,,,,,,,,,,,,,,,,,,,,,,,,,,,,,,,,,,,,,,,,,,,,,,,,,,,,,,,,,,,,,,,,,,,,,,,,,,,,,,,,,,,,
11,0,11,0,1,7,2020-07-01_10h33.22.265,retriever_ti,2020.1.3,Win32,60,Chrome,1536,864,,,,,,,,,,,,,,,,,,,,,,,,,,,,,,,,,,,,,,,,,,,,,,,,,,,,,,,,,,,,,,,,,,,,,,,,,,,,,,,,,,,,,,,,,,,,,,,,,,
12,0,12,0,1,7,2020-07-01_10h33.22.265,retriever_ti,2020.1.3,Win32,60,Chrome,1536,864,,,,,,,,,,,,,,,,,,,,,,,,,,,,,,,,,,,,,,,,,,,,,,,,,,,,,,,,,,,,,,,,,,,,,,,,,,,,,,,,,,,,,,,,,,,,,,,,,,
13,0,13,0,1,7,2020-07-01_10h33.22.265,retriever_ti,2020.1.3,Win32,60,Chrome,1536,864,,,,,,,,,,,,,,,,,,,,,,,,,,,,,,,,,,,,,,,,,,,,,,,,,,,,,,,,,,,,,,,,,,,,,,,,,,,,,,,,,,,,,,,,,,,,,,,,,,
14,0,14,0,1,7,2020-07-01_10h33.22.265,retriever_ti,2020.1.3,Win32,60,Chrome,1536,864,,,,,,,,,,,,,,,,,,,,,,,,,,,,,,,,,,,,,,,,,,,,,,,,,,,,,,,,,,,,,,,,,,,,,,,,,,,,,,,,,,,,,,,,,,,,,,,,,,
15,0,15,0,1,7,2020-07-01_10h33.22.265,retriever_ti,2020.1.3,Win32,60,Chrome,1536,864,,,,,,,,,,,,,,,,,,,,,,,,,,,,,,,,,,,,,,,,,,,,,,,,,,,,,,,,,,,,,,,,,,,,,,,,,,,,,,,,,,,,,,,,,,,,,,,,,,
16,0,16,0,1,7,2020-07-01_10h33.22.265,retriever_ti,2020.1.3,Win32,60,Chrome,1536,864,,,,,,,,,,,,,,,,,,,,,,,,,,,,,,,,,,,,,,,,,,,,,,,,,,,,,,,,,,,,,,,,,,,,,,,,,,,,,,,,,,,,,,,,,,,,,,,,,,
,,,,,7,2020-07-01_10h33.22.265,retriever_ti,2020.1.3,Win32,60,Chrome,1536,864,247.497915,1,NaN,NaN,No_response,2,247.540465,247.540465,250.039955,0,0,0,0,1,2,5,1,html/resources/stimuli_practice_decision/04_beetle.jpg,html/resources/stimuli_practice_decision/02_canary.jpg,beetle,canary,,,,,,,,,,,,,,,,,,,,,,,,,,,,,,,,,,,,,,,,,,,,,,,,,,,,,,,,,,,,,,,,,,,,,,,,,,,,,
,,,,,7,2020-07-01_10h33.22.265,retriever_ti,2020.1.3,Win32,60,Chrome,1536,864,250.591905,2,right,1.040695,sock,0,250.606525,250.606525,253.106185,0,1,1,1,1,4,3,1,html/resources/stimuli_practice_decision/01_rabbit.jpg,html/resources/stimuli_practice_decision/07_sock.jpg,rabbit,sock,,,,,,,,,,,,,,,,,,,,,,,,,,,,,,,,,,,,,,,,,,,,,,,,,,,,,,,,,,,,,,,,,,,,,,,,,,,,,
,,,,,7,2020-07-01_10h33.22.265,retriever_ti,2020.1.3,Win32,60,Chrome,1536,864,254.1075,3,left,1.081335,pullover,1,254.1417,254.1417,256.63952,0,2,2,2,1,6,2,1,html/resources/stimuli_practice_decision/06_pullover.jpg,html/resources/stimuli_practice_decision/04_beetle.jpg,pullover,beetle,,,,,,,,,,,,,,,,,,,,,,,,,,,,,,,,,,,,,,,,,,,,,,,,,,,,,,,,,,,,,,,,,,,,,,,,,,,,,
,,,,,7,2020-07-01_10h33.22.265,retriever_ti,2020.1.3,Win32,60,Chrome,1536,864,257.14147,4,right,1.196505,handmixer,0,257.15847,257.15847,259.65626,0,3,3,3,1,7,1,1,html/resources/stimuli_practice_decision/05_glasses.jpg,html/resources/stimuli_practice_decision/08_handmixer.jpg,glasses,handmixer,,,,,,,,,,,,,,,,,,,,,,,,,,,,,,,,,,,,,,,,,,,,,,,,,,,,,,,,,,,,,,,,,,,,,,,,,,,,,
,,,,,7,2020-07-01_10h33.22.265,retriever_ti,2020.1.3,Win32,60,Chrome,1536,864,260.173955,5,right,1.39575,pullover,0,260.191485,260.191485,262.69028,0,4,4,4,1,7,6,1,html/resources/stimuli_practice_decision/05_glasses.jpg,html/resources/stimuli_practice_decision/06_pullover.jpg,glasses,pullover,,,,,,,,,,,,,,,,,,,,,,,,,,,,,,,,,,,,,,,,,,,,,,,,,,,,,,,,,,,,,,,,,,,,,,,,,,,,,
,,,,,7,2020-07-01_10h33.22.265,retriever_ti,2020.1.3,Win32,60,Chrome,1536,864,263.69036,6,left,0.9156,rabbit,0,263.723865,263.723865,266.22323,0,5,5,5,1,4,7,1,html/resources/stimuli_practice_decision/01_rabbit.jpg,html/resources/stimuli_practice_decision/05_glasses.jpg,rabbit,glasses,,,,,,,,,,,,,,,,,,,,,,,,,,,,,,,,,,,,,,,,,,,,,,,,,,,,,,,,,,,,,,,,,,,,,,,,,,,,,
,,,,,7,2020-07-01_10h33.22.265,retriever_ti,2020.1.3,Win32,60,Chrome,1536,864,266.72518,7,right,0.93358,beetle,1,266.74227,266.74227,269.24035,0,6,6,6,1,1,2,1,html/resources/stimuli_practice_decision/08_handmixer.jpg,html/resources/stimuli_practice_decision/04_beetle.jpg,handmixer,beetle,,,,,,,,,,,,,,,,,,,,,,,,,,,,,,,,,,,,,,,,,,,,,,,,,,,,,,,,,,,,,,,,,,,,,,,,,,,,,
,,,,,7,2020-07-01_10h33.22.265,retriever_ti,2020.1.3,Win32,60,Chrome,1536,864,270.24037,8,left,0.84964,rabbit,1,270.27493,270.27493,272.773815,0,7,7,7,1,4,3,1,html/resources/stimuli_practice_decision/01_rabbit.jpg,html/resources/stimuli_practice_decision/07_sock.jpg,rabbit,sock,,,,,,,,,,,,,,,,,,,,,,,,,,,,,,,,,,,,,,,,,,,,,,,,,,,,,,,,,,,,,,,,,,,,,,,,,,,,,
,,,,,7,2020-07-01_10h33.22.265,retriever_ti,2020.1.3,Win32,60,Chrome,1536,864,,,,,,,,,,,,,,,,,,,,,,down,1,3.038535,1,0,0,0,3,1,html/resources/sequences_IDs/triangle.png,star ↑,square →,triangle ↓,← circle,down,,,,,,,,,,,,,,,,,,,,,,,,,,,,,,,,,,,,,,,,,,,,,,,,,,,,,,,,,,,,,,
,,,,,7,2020-07-01_10h33.22.265,retriever_ti,2020.1.3,Win32,60,Chrome,1536,864,,,,,,,,,,,,,,,,,,,,,,up,1,2.624265,1,0,1,1,0,1,html/resources/sequences_IDs/circle.png,circle ↑,square →,triangle ↓,← star ,up,,,,,,,,,,,,,,,,,,,,,,,,,,,,,,,,,,,,,,,,,,,,,,,,,,,,,,,,,,,,,,
,,,,,7,2020-07-01_10h33.22.265,retriever_ti,2020.1.3,Win32,60,Chrome,1536,864,,,,,,,,,,,,,,,,,,,,,,down,1,1.778645,1,0,2,2,1,1,html/resources/sequences_IDs/star.png,square ↑,circle →,star ↓,← triangle,down,,,,,,,,,,,,,,,,,,,,,,,,,,,,,,,,,,,,,,,,,,,,,,,,,,,,,,,,,,,,,,
,,,,,7,2020-07-01_10h33.22.265,retriever_ti,2020.1.3,Win32,60,Chrome,1536,864,,,,,,,,,,,,,,,,,,,,,,left,1,1.347525,1,0,3,3,2,1,html/resources/sequences_IDs/square1.png,star ↑,triangle →,circle ↓,← square,left,,,,,,,,,,,,,,,,,,,,,,,,,,,,,,,,,,,,,,,,,,,,,,,,,,,,,,,,,,,,,,
,,,,,7,2020-07-01_10h33.22.265,retriever_ti,2020.1.3,Win32,60,Chrome,1536,864,,,,,,,,,,,,,,,,,,,,,,,,,,,,,,,,,,,,,1,11.72984,0,0,0,0,1,,,,,,,,,,,,,,,,,,,,,,,,,,,,,,,,,,,,,,,,,,,,,,,,,,,,,,,
,,,,,7,2020-07-01_10h33.22.265,retriever_ti,2020.1.3,Win32,60,Chrome,1536,864,299.080725,9,left,0.916225,pullover,0,299.1086,299.1086,301.608915,0,0,0,0,1,6,7,1,html/resources/stimuli_practice_decision/06_pullover.jpg,html/resources/stimuli_practice_decision/05_glasses.jpg,pullover,glasses,,,,,,,,,,,,,,,,,,,,,,,,,,,,,,,,,,,,,,,,,,,,,,,,,,,,,,,,,,,,,,,,,,,,,,,,,,,,,
,,,,,7,2020-07-01_10h33.22.265,retriever_ti,2020.1.3,Win32,60,Chrome,1536,864,302.60935,10,left,1.123205,pullover,1,302.62594,302.62594,305.125525,0,1,1,1,1,6,2,1,html/resources/stimuli_practice_decision/06_pullover.jpg,html/resources/stimuli_practice_decision/04_beetle.jpg,pullover,beetle,,,,,,,,,,,,,,,,,,,,,,,,,,,,,,,,,,,,,,,,,,,,,,,,,,,,,,,,,,,,,,,,,,,,,,,,,,,,,
,,,,,7,2020-07-01_10h33.22.265,retriever_ti,2020.1.3,Win32,60,Chrome,1536,864,305.641895,11,left,2.05514,canary,0,305.658845,305.658845,308.15831,0,2,2,2,1,5,6,1,html/resources/stimuli_practice_decision/02_canary.jpg,html/resources/stimuli_practice_decision/06_pullover.jpg,canary,pullover,,,,,,,,,,,,,,,,,,,,,,,,,,,,,,,,,,,,,,,,,,,,,,,,,,,,,,,,,,,,,,,,,,,,,,,,,,,,,
,,,,,7,2020-07-01_10h33.22.265,retriever_ti,2020.1.3,Win32,60,Chrome,1536,864,309.16066,12,right,1.327845,glasses,0,309.19292,309.19292,311.69214,0,3,3,3,1,8,7,1,html/resources/stimuli_practice_decision/03_squirrel.jpg,html/resources/stimuli_practice_decision/05_glasses.jpg,squirrel,glasses,,,,,,,,,,,,,,,,,,,,,,,,,,,,,,,,,,,,,,,,,,,,,,,,,,,,,,,,,,,,,,,,,,,,,,,,,,,,,
,,,,,7,2020-07-01_10h33.22.265,retriever_ti,2020.1.3,Win32,60,Chrome,1536,864,312.692815,13,left,0.980245,canary,1,312.72682,312.72682,315.22544,0,4,4,4,1,5,3,1,html/resources/stimuli_practice_decision/02_canary.jpg,html/resources/stimuli_practice_decision/07_sock.jpg,canary,sock,,,,,,,,,,,,,,,,,,,,,,,,,,,,,,,,,,,,,,,,,,,,,,,,,,,,,,,,,,,,,,,,,,,,,,,,,,,,,
,,,,,7,2020-07-01_10h33.22.265,retriever_ti,2020.1.3,Win32,60,Chrome,1536,864,315.741975,14,right,1.105535,squirrel,1,315.775935,315.775935,318.275675,0,5,5,5,1,7,8,1,html/resources/stimuli_practice_decision/05_glasses.jpg,html/resources/stimuli_practice_decision/03_squirrel.jpg,glasses,squirrel,,,,,,,,,,,,,,,,,,,,,,,,,,,,,,,,,,,,,,,,,,,,,,,,,,,,,,,,,,,,,,,,,,,,,,,,,,,,,
,,,,,7,2020-07-01_10h33.22.265,retriever_ti,2020.1.3,Win32,60,Chrome,1536,864,319.276385,15,left,1.61308,canary,1,319.31081,319.31081,321.80899,0,6,6,6,1,5,4,1,html/resources/stimuli_practice_decision/02_canary.jpg,html/resources/stimuli_practice_decision/01_rabbit.jpg,canary,rabbit,,,,,,,,,,,,,,,,,,,,,,,,,,,,,,,,,,,,,,,,,,,,,,,,,,,,,,,,,,,,,,,,,,,,,,,,,,,,,
,,,,,7,2020-07-01_10h33.22.265,retriever_ti,2020.1.3,Win32,60,Chrome,1536,864,322.81006,16,left,0.70404,canary,1,322.843615,322.843615,325.34238,0,7,7,7,1,5,3,1,html/resources/stimuli_practice_decision/02_canary.jpg,html/resources/stimuli_practice_decision/07_sock.jpg,canary,sock,,,,,,,,,,,,,,,,,,,,,,,,,,,,,,,,,,,,,,,,,,,,,,,,,,,,,,,,,,,,,,,,,,,,,,,,,,,,,
,,,,,7,2020-07-01_10h33.22.265,retriever_ti,2020.1.3,Win32,60,Chrome,1536,864,,,,,,,,,,,,,,,,,,,,,,left,1,1.791195,1,0,0,0,2,1,html/resources/sequences_IDs/square1.png,star ↑,triangle →,circle ↓,← square,left,,,,,,,,,,,,,,,,,,,,,,,,,,,,,,,,,,,,,,,,,,,,,,,,,,,,,,,,,,,,,,
,,,,,7,2020-07-01_10h33.22.265,retriever_ti,2020.1.3,Win32,60,Chrome,1536,864,,,,,,,,,,,,,,,,,,,,,,up,1,1.634185,1,0,1,1,0,1,html/resources/sequences_IDs/circle.png,circle ↑,square →,triangle ↓,← star ,up,,,,,,,,,,,,,,,,,,,,,,,,,,,,,,,,,,,,,,,,,,,,,,,,,,,,,,,,,,,,,,
,,,,,7,2020-07-01_10h33.22.265,retriever_ti,2020.1.3,Win32,60,Chrome,1536,864,,,,,,,,,,,,,,,,,,,,,,down,1,1.314905,1,0,2,2,1,1,html/resources/sequences_IDs/star.png,square ↑,circle →,star ↓,← triangle,down,,,,,,,,,,,,,,,,,,,,,,,,,,,,,,,,,,,,,,,,,,,,,,,,,,,,,,,,,,,,,,
,,,,,7,2020-07-01_10h33.22.265,retriever_ti,2020.1.3,Win32,60,Chrome,1536,864,,,,,,,,,,,,,,,,,,,,,,down,1,1.54816,1,0,3,3,3,1,html/resources/sequences_IDs/triangle.png,star ↑,square →,triangle ↓,← circle,down,,,,,,,,,,,,,,,,,,,,,,,,,,,,,,,,,,,,,,,,,,,,,,,,,,,,,,,,,,,,,,
,,,,,7,2020-07-01_10h33.22.265,retriever_ti,2020.1.3,Win32,60,Chrome,1536,864,,,,,,,,,,,,,,,,,,,,,,,,,,,,,,,,,,,,,1,4.573735,1,0,1,0,1,,,,,,,,,,,,,,,,,,,,,,,,,,,,,,,,,,,,,,,,,,,,,,,,,,,,,,,
,,,,,7,2020-07-01_10h33.22.265,retriever_ti,2020.1.3,Win32,60,Chrome,1536,864,,,,,,,,,,,,,,,,,1,,,,,,,,,,,,,,,,,,,,,,,,,,,346.666305,1,right,1.06128,camel         ,2,3,-3,0,3,346.678515,346.678515,349.17768,0,0,0,0,1,1,5,2,dolphin     ,camel         ,html/resources/sequences_IDs/B/02_dolphin.jpg,html/resources/sequences_IDs/A/03_camel.jpg,2,3,1,1,1,1,2,3,0,7,,,,,,,,,,,,,,,,,,,,
,,,,,7,2020-07-01_10h33.22.265,retriever_ti,2020.1.3,Win32,60,Chrome,1536,864,,,,,,,,,,,,,,,,,1,,,,,,,,,,,,,,,,,,,,,,,,,,,349.79645,2,left,1.481515,wolf          ,6,1,1,1,1,349.81275,349.81275,352.31019,0,1,1,1,1,2,6,5,wolf          ,dolphin     ,html/resources/sequences_IDs/A/01_wolf.jpg,html/resources/sequences_IDs/B/02_dolphin.jpg,1,2,1,1,1,1,1,2,0,7,,,,,,,,,,,,,,,,,,,,
,,,,,7,2020-07-01_10h33.22.265,retriever_ti,2020.1.3,Win32,60,Chrome,1536,864,,,,,,,,,,,,,,,,,1,,,,,,,,,,,,,,,,,,,,,,,,,,,353.4109,3,right,1.02604,wolf          ,6,1,1,1,1,353.446425,353.446425,355.944285,0,2,2,2,1,3,5,6,dolphin     ,wolf          ,html/resources/sequences_IDs/B/02_dolphin.jpg,html/resources/sequences_IDs/A/01_wolf.jpg,2,1,1,1,1,1,2,1,0,7,,,,,,,,,,,,,,,,,,,,
,,,,,7,2020-07-01_10h33.22.265,retriever_ti,2020.1.3,Win32,60,Chrome,1536,864,,,,,,,,,,,,,,,,,1,,,,,,,,,,,,,,,,,,,,,,,,,,,357.04503,4,left,1.40816,holdfast    ,1,4,-2,0,3,357.078625,357.078625,359.57773,0,3,3,3,1,4,1,3,holdfast    ,radio       ,html/resources/sequences_IDs/B/04_holdfast.jpg,html/resources/sequences_IDs/B/10_radio.jpg,4,10,2,1,4,2,4,8,0,7,,,,,,,,,,,,,,,,,,,,
,,,,,7,2020-07-01_10h33.22.265,retriever_ti,2020.1.3,Win32,60,Chrome,1536,864,,,,,,,,,,,,,,,,,1,,,,,,,,,,,,,,,,,,,,,,,,,,,360.19421,5,left,0.98522,camel         ,2,3,-1,0,0,360.21122,360.21122,362.71081,0,4,4,4,1,5,2,3,camel         ,radio       ,html/resources/sequences_IDs/A/03_camel.jpg,html/resources/sequences_IDs/B/10_radio.jpg,3,10,1,1,4,2,3,8,0,7,,,,,,,,,,,,,,,,,,,,
,,,,,7,2020-07-01_10h33.22.265,retriever_ti,2020.1.3,Win32,60,Chrome,1536,864,,,,,,,,,,,,,,,,,1,,,,,,,,,,,,,,,,,,,,,,,,,,,363.81167,6,right,1.16501,camel         ,2,3,-2,0,3,363.84493,363.84493,366.344195,0,5,5,5,1,6,4,2,calculator    ,camel         ,html/resources/sequences_IDs/A/09_calculator.jpg,html/resources/sequences_IDs/A/03_camel.jpg,9,3,4,2,1,1,7,3,0,7,,,,,,,,,,,,,,,,,,,,
,,,,,7,2020-07-01_10h33.22.265,retriever_ti,2020.1.3,Win32,60,Chrome,1536,864,,,,,,,,,,,,,,,,,1,,,,,,,,,,,,,,,,,,,,,,,,,,,366.94618,7,left,0.98311,wolf          ,6,1,-1,0,0,366.9632,366.9632,369.460845,0,6,6,6,1,7,6,7,wolf          ,gloves      ,html/resources/sequences_IDs/A/01_wolf.jpg,html/resources/sequences_IDs/B/06_gloves.jpg,1,6,1,1,3,2,1,5,0,7,,,,,,,,,,,,,,,,,,,,
,,,,,7,2020-07-01_10h33.22.265,retriever_ti,2020.1.3,Win32,60,Chrome,1536,864,,,,,,,,,,,,,,,,,1,,,,,,,,,,,,,,,,,,,,,,,,,,,370.56142,8,right,1.937755,dolphin     ,5,2,4,1,3,370.57832,370.57832,373.078265,0,7,7,7,1,8,1,5,holdfast    ,dolphin     ,html/resources/sequences_IDs/B/04_holdfast.jpg,html/resources/sequences_IDs/B/02_dolphin.jpg,4,2,2,1,1,1,4,2,0,7,,,,,,,,,,,,,,,,,,,,
,,,,,7,2020-07-01_10h33.22.265,retriever_ti,2020.1.3,Win32,60,Chrome,1536,864,,,,,,,,,,,,,,,,,1,,,,,,,,,,,,,,,,,,,,,,,,,,,373.694905,9,right,1.37622,wolf          ,6,1,1,1,0,373.72843,373.72843,376.22789,0,8,8,8,1,9,5,6,dolphin     ,wolf          ,html/resources/sequences_IDs/B/02_dolphin.jpg,html/resources/sequences_IDs/A/01_wolf.jpg,2,1,1,1,1,1,2,1,1,7,,,,,,,,,,,,,,,,,,,,
,,,,,7,2020-07-01_10h33.22.265,retriever_ti,2020.1.3,Win32,60,Chrome,1536,864,,,,,,,,,,,,,,,,,1,,,,,,,,,,,,,,,,,,,,,,,,,,,377.32996,10,left,1.28245,radio       ,3,10,2,1,3,377.346885,377.346885,379.84523,0,9,9,9,1,10,3,1,radio       ,holdfast    ,html/resources/sequences_IDs/B/10_radio.jpg,html/resources/sequences_IDs/B/04_holdfast.jpg,10,4,4,2,2,1,8,4,0,7,,,,,,,,,,,,,,,,,,,,
,,,,,7,2020-07-01_10h33.22.265,retriever_ti,2020.1.3,Win32,60,Chrome,1536,864,,,,,,,,,,,,,,,,,1,,,,,,,,,,,,,,,,,,,,,,,,,,,380.462075,11,left,1.393265,radio       ,3,10,-1,0,1,380.478865,380.478865,382.97848,0,10,10,10,1,11,3,4,radio       ,calculator    ,html/resources/sequences_IDs/B/10_radio.jpg,html/resources/sequences_IDs/A/09_calculator.jpg,10,9,4,2,4,2,8,7,1,7,,,,,,,,,,,,,,,,,,,,
,,,,,7,2020-07-01_10h33.22.265,retriever_ti,2020.1.3,Win32,60,Chrome,1536,864,,,,,,,,,,,,,,,,,1,,,,,,,,,,,,,,,,,,,,,,,,,,,384.07946,12,left,1.365585,holdfast    ,1,4,-1,0,1,384.09718,384.09718,386.59528,0,11,11,11,1,12,1,2,holdfast    ,camel         ,html/resources/sequences_IDs/B/04_holdfast.jpg,html/resources/sequences_IDs/A/03_camel.jpg,4,3,2,1,1,1,4,3,1,7,,,,,,,,,,,,,,,,,,,,
,,,,,7,2020-07-01_10h33.22.265,retriever_ti,2020.1.3,Win32,60,Chrome,1536,864,,,,,,,,,,,,,,,,,1,,,,,,,,,,,,,,,,,,,,,,,,,,,387.695705,13,right,1.067015,camel         ,2,3,-6,0,3,387.730945,387.730945,390.22855,0,12,12,12,1,13,8,2,hat           ,camel         ,html/resources/sequences_IDs/A/08_hat.jpg,html/resources/sequences_IDs/A/03_camel.jpg,8,3,3,2,1,1,6,3,0,7,,,,,,,,,,,,,,,,,,,,
,,,,,7,2020-07-01_10h33.22.265,retriever_ti,2020.1.3,Win32,60,Chrome,1536,864,,,,,,,,,,,,,,,,,1,,,,,,,,,,,,,,,,,,,,,,,,,,,390.8457,14,left,1.914005,gloves      ,7,6,-1,0,0,390.86248,390.86248,393.36241,0,13,13,13,1,14,7,8,gloves      ,hat           ,html/resources/sequences_IDs/B/06_gloves.jpg,html/resources/sequences_IDs/A/08_hat.jpg,6,8,3,2,3,2,5,6,0,7,,,,,,,,,,,,,,,,,,,,
,,,,,7,2020-07-01_10h33.22.265,retriever_ti,2020.1.3,Win32,60,Chrome,1536,864,,,,,,,,,,,,,,,,,1,,,,,,,,,,,,,,,,,,,,,,,,,,,394.46421,15,right,1.150655,wolf          ,6,1,-2,0,3,394.49757,394.49757,396.99606,0,14,14,14,1,15,8,6,hat           ,wolf          ,html/resources/sequences_IDs/A/08_hat.jpg,html/resources/sequences_IDs/A/01_wolf.jpg,8,1,3,2,1,1,6,1,0,7,,,,,,,,,,,,,,,,,,,,
,,,,,7,2020-07-01_10h33.22.265,retriever_ti,2020.1.3,Win32,60,Chrome,1536,864,,,,,,,,,,,,,,,,,1,,,,,,,,,,,,,,,,,,,,,,,,,,,397.61249,16,left,0.98969,dolphin     ,5,2,1,1,1,397.629505,397.629505,400.12911,0,15,15,15,1,16,5,4,dolphin     ,calculator    ,html/resources/sequences_IDs/B/02_dolphin.jpg,html/resources/sequences_IDs/A/09_calculator.jpg,2,9,1,1,4,2,2,7,0,7,,,,,,,,,,,,,,,,,,,,
,,,,,7,2020-07-01_10h33.22.265,retriever_ti,2020.1.3,Win32,60,Chrome,1536,864,,,,,,,,,,,,,,,,,1,,,,,,,,,,,,,,,,,,,,,,,,,,,401.2294,17,left,1.16045,hat           ,8,8,1,1,1,401.26319,401.26319,403.76291,0,16,16,16,1,17,8,7,hat           ,gloves      ,html/resources/sequences_IDs/A/08_hat.jpg,html/resources/sequences_IDs/B/06_gloves.jpg,8,6,3,2,3,2,6,5,0,7,,,,,,,,,,,,,,,,,,,,
,,,,,7,2020-07-01_10h33.22.265,retriever_ti,2020.1.3,Win32,60,Chrome,1536,864,,,,,,,,,,,,,,,,,1,,,,,,,,,,,,,,,,,,,,,,,,,,,404.863105,18,left,0.71804,hat           ,8,8,1,1,1,404.880445,404.880445,407.3792,0,17,17,17,1,18,8,7,hat           ,gloves      ,html/resources/sequences_IDs/A/08_hat.jpg,html/resources/sequences_IDs/B/06_gloves.jpg,8,6,3,2,3,2,6,5,0,7,,,,,,,,,,,,,,,,,,,,
,,,,,7,2020-07-01_10h33.22.265,retriever_ti,2020.1.3,Win32,60,Chrome,1536,864,,,,,,,,,,,,,,,,,1,,,,,,,,,,,,,,,,,,,,,,,,,,,408.479875,19,left,1.08992,dolphin     ,5,2,-3,0,3,408.5135,408.5135,411.012655,0,18,18,18,1,19,5,8,dolphin     ,hat           ,html/resources/sequences_IDs/B/02_dolphin.jpg,html/resources/sequences_IDs/A/08_hat.jpg,2,8,1,1,3,2,2,6,0,7,,,,,,,,,,,,,,,,,,,,
,,,,,7,2020-07-01_10h33.22.265,retriever_ti,2020.1.3,Win32,60,Chrome,1536,864,,,,,,,,,,,,,,,,,1,,,,,,,,,,,,,,,,,,,,,,,,,,,411.61404,20,left,1.81979,wolf          ,6,1,-2,0,3,411.646735,411.646735,414.146815,0,19,19,19,1,20,6,8,wolf          ,hat           ,html/resources/sequences_IDs/A/01_wolf.jpg,html/resources/sequences_IDs/A/08_hat.jpg,1,8,1,1,3,2,1,6,0,7,,,,,,,,,,,,,,,,,,,,
,,,,,7,2020-07-01_10h33.22.265,retriever_ti,2020.1.3,Win32,60,Chrome,1536,864,,,,,,,,,,,,,,,,,1,,,,,,,,,,,,,,,,,,,,,,,,,,,414.763555,21,left,1.67701,radio       ,3,10,1,1,1,414.78034,414.78034,417.279845,0,20,20,20,1,21,3,2,radio       ,camel         ,html/resources/sequences_IDs/B/10_radio.jpg,html/resources/sequences_IDs/A/03_camel.jpg,10,3,4,2,1,1,8,3,0,7,,,,,,,,,,,,,,,,,,,,
,,,,,7,2020-07-01_10h33.22.265,retriever_ti,2020.1.3,Win32,60,Chrome,1536,864,,,,,,,,,,,,,,,,,1,,,,,,,,,,,,,,,,,,,,,,,,,,,418.38057,22,right,1.0969,holdfast    ,1,4,-3,0,3,418.41486,418.41486,420.91317,0,21,21,21,1,22,4,1,calculator    ,holdfast    ,html/resources/sequences_IDs/A/09_calculator.jpg,html/resources/sequences_IDs/B/04_holdfast.jpg,9,4,4,2,2,1,7,4,0,7,,,,,,,,,,,,,,,,,,,,
,,,,,7,2020-07-01_10h33.22.265,retriever_ti,2020.1.3,Win32,60,Chrome,1536,864,,,,,,,,,,,,,,,,,1,,,,,,,,,,,,,,,,,,,,,,,,,,,421.514385,23,left,1.08446,dolphin     ,5,2,-2,0,3,421.548745,421.548745,424.047025,0,22,22,22,1,23,5,7,dolphin     ,gloves      ,html/resources/sequences_IDs/B/02_dolphin.jpg,html/resources/sequences_IDs/B/06_gloves.jpg,2,6,1,1,3,2,2,5,0,7,,,,,,,,,,,,,,,,,,,,
,,,,,7,2020-07-01_10h33.22.265,retriever_ti,2020.1.3,Win32,60,Chrome,1536,864,,,,,,,,,,,,,,,,,1,,,,,,,,,,,,,,,,,,,,,,,,,,,424.66397,24,left,1.09802,radio       ,3,10,-1,0,0,424.697405,424.697405,427.19683,0,23,23,23,1,24,3,4,radio       ,calculator    ,html/resources/sequences_IDs/B/10_radio.jpg,html/resources/sequences_IDs/A/09_calculator.jpg,10,9,4,2,4,2,8,7,0,7,,,,,,,,,,,,,,,,,,,,
,,,,,7,2020-07-01_10h33.22.265,retriever_ti,2020.1.3,Win32,60,Chrome,1536,864,,,,,,,,,,,,,,,,,1,,,,,,,,,,,,,,,,,,,,,,,,,,,428.297145,25,right,1.086375,wolf          ,6,1,-1,0,1,428.33088,428.33088,430.830335,0,24,24,24,1,25,7,6,gloves      ,wolf          ,html/resources/sequences_IDs/B/06_gloves.jpg,html/resources/sequences_IDs/A/01_wolf.jpg,6,1,3,2,1,1,5,1,1,7,,,,,,,,,,,,,,,,,,,,
,,,,,7,2020-07-01_10h33.22.265,retriever_ti,2020.1.3,Win32,60,Chrome,1536,864,,,,,,,,,,,,,,,,,1,,,,,,,,,,,,,,,,,,,,,,,,,,,431.930805,26,right,0.931835,dolphin     ,5,2,-2,0,3,431.96445,431.96445,434.46373,0,25,25,25,1,26,7,5,gloves      ,dolphin     ,html/resources/sequences_IDs/B/06_gloves.jpg,html/resources/sequences_IDs/B/02_dolphin.jpg,6,2,3,2,1,1,5,2,0,7,,,,,,,,,,,,,,,,,,,,
,,,,,7,2020-07-01_10h33.22.265,retriever_ti,2020.1.3,Win32,60,Chrome,1536,864,,,,,,,,,,,,,,,,,1,,,,,,,,,,,,,,,,,,,,,,,,,,,435.06609,27,left,1.332265,hat           ,8,8,1,1,0,435.082665,435.082665,437.580835,0,26,26,26,1,27,8,7,hat           ,gloves      ,html/resources/sequences_IDs/A/08_hat.jpg,html/resources/sequences_IDs/B/06_gloves.jpg,8,6,3,2,3,2,6,5,1,7,,,,,,,,,,,,,,,,,,,,
,,,,,7,2020-07-01_10h33.22.265,retriever_ti,2020.1.3,Win32,60,Chrome,1536,864,,,,,,,,,,,,,,,,,1,,,,,,,,,,,,,,,,,,,,,,,,,,,438.681115,28,right,1.117105,holdfast    ,1,4,-1,0,0,438.69799,438.69799,441.19739,0,27,27,27,1,28,2,1,camel         ,holdfast    ,html/resources/sequences_IDs/A/03_camel.jpg,html/resources/sequences_IDs/B/04_holdfast.jpg,3,4,1,1,2,1,3,4,0,7,,,,,,,,,,,,,,,,,,,,
,,,,,7,2020-07-01_10h33.22.265,retriever_ti,2020.1.3,Win32,60,Chrome,1536,864,,,,,,,,,,,,,,,,,1,,,,,,,,,,,,,,,,,,,,,,,,,,,442.29878,29,right,1.005215,holdfast    ,1,4,-7,0,3,442.31668,442.31668,444.81467,0,28,28,28,1,29,8,1,hat           ,holdfast    ,html/resources/sequences_IDs/A/08_hat.jpg,html/resources/sequences_IDs/B/04_holdfast.jpg,8,4,3,2,2,1,6,4,0,7,,,,,,,,,,,,,,,,,,,,
,,,,,7,2020-07-01_10h33.22.265,retriever_ti,2020.1.3,Win32,60,Chrome,1536,864,,,,,,,,,,,,,,,,,1,,,,,,,,,,,,,,,,,,,,,,,,,,,445.43292,30,NaN,NaN,No_response,NaN,NaN,NaN,2,2,445.449785,445.449785,447.94775,0,29,29,29,1,30,4,8,calculator    ,hat           ,html/resources/sequences_IDs/A/09_calculator.jpg,html/resources/sequences_IDs/A/08_hat.jpg,9,8,4,2,3,2,7,6,0,7,,,,,,,,,,,,,,,,,,,,
,,,,,7,2020-07-01_10h33.22.265,retriever_ti,2020.1.3,Win32,60,Chrome,1536,864,,,,,,,,,,,,,,,,,1,,,,,,,,,,,,,,,,,,,,,,,,,,,449.049655,31,right,1.10761,wolf          ,6,1,4,1,3,449.08337,449.08337,451.58177,0,30,30,30,1,31,2,6,camel         ,wolf          ,html/resources/sequences_IDs/A/03_camel.jpg,html/resources/sequences_IDs/A/01_wolf.jpg,3,1,1,1,1,1,3,1,0,7,,,,,,,,,,,,,,,,,,,,
,,,,,7,2020-07-01_10h33.22.265,retriever_ti,2020.1.3,Win32,60,Chrome,1536,864,,,,,,,,,,,,,,,,,1,,,,,,,,,,,,,,,,,,,,,,,,,,,452.19814,32,left,0.9257,wolf          ,6,1,-1,0,0,452.215965,452.215965,454.714525,0,31,31,31,1,32,6,7,wolf          ,gloves      ,html/resources/sequences_IDs/A/01_wolf.jpg,html/resources/sequences_IDs/B/06_gloves.jpg,1,6,1,1,3,2,1,5,0,7,,,,,,,,,,,,,,,,,,,,
,,,,,7,2020-07-01_10h33.22.265,retriever_ti,2020.1.3,Win32,60,Chrome,1536,864,,,,,,,,,,,,,,,,,1,,,,,,,,,,,,,,,,,,,,,,,,,,,455.81694,33,right,1.017085,camel         ,2,3,1,1,1,455.833545,455.833545,458.33174,0,32,32,32,1,33,1,2,holdfast    ,camel         ,html/resources/sequences_IDs/B/04_holdfast.jpg,html/resources/sequences_IDs/A/03_camel.jpg,4,3,2,1,1,1,4,3,0,7,,,,,,,,,,,,,,,,,,,,
,,,,,7,2020-07-01_10h33.22.265,retriever_ti,2020.1.3,Win32,60,Chrome,1536,864,,,,,,,,,,,,,,,,,1,,,,,,,,,,,,,,,,,,,,,,,,,,,459.43205,34,left,1.144205,radio       ,3,10,1,1,1,459.465635,459.465635,461.96514,0,33,33,33,1,34,3,2,radio       ,camel         ,html/resources/sequences_IDs/B/10_radio.jpg,html/resources/sequences_IDs/A/03_camel.jpg,10,3,4,2,1,1,8,3,0,7,,,,,,,,,,,,,,,,,,,,
,,,,,7,2020-07-01_10h33.22.265,retriever_ti,2020.1.3,Win32,60,Chrome,1536,864,,,,,,,,,,,,,,,,,1,,,,,,,,,,,,,,,,,,,,,,,,,,,463.06737,35,left,1.155335,calculator    ,4,9,-1,0,1,463.083785,463.083785,465.58227,0,34,34,34,1,35,4,5,calculator    ,dolphin     ,html/resources/sequences_IDs/A/09_calculator.jpg,html/resources/sequences_IDs/B/02_dolphin.jpg,9,2,4,2,1,1,7,2,1,7,,,,,,,,,,,,,,,,,,,,
,,,,,7,2020-07-01_10h33.22.265,retriever_ti,2020.1.3,Win32,60,Chrome,1536,864,,,,,,,,,,,,,,,,,1,,,,,,,,,,,,,,,,,,,,,,,,,,,466.682295,36,right,1.194125,calculator    ,4,9,-3,0,3,466.7173,466.7173,469.2153,0,35,35,35,1,36,7,4,gloves      ,calculator    ,html/resources/sequences_IDs/B/06_gloves.jpg,html/resources/sequences_IDs/A/09_calculator.jpg,6,9,3,2,4,2,5,7,0,7,,,,,,,,,,,,,,,,,,,,
,,,,,7,2020-07-01_10h33.22.265,retriever_ti,2020.1.3,Win32,60,Chrome,1536,864,,,,,,,,,,,,,,,,,1,,,,,,,,,,,,,,,,,,,,,,,,,,,469.816425,37,right,1.32303,wolf          ,6,1,1,1,1,469.834095,469.834095,472.332495,0,36,36,36,1,37,5,6,dolphin     ,wolf          ,html/resources/sequences_IDs/B/02_dolphin.jpg,html/resources/sequences_IDs/A/01_wolf.jpg,2,1,1,1,1,1,2,1,0,7,,,,,,,,,,,,,,,,,,,,
,,,,,7,2020-07-01_10h33.22.265,retriever_ti,2020.1.3,Win32,60,Chrome,1536,864,,,,,,,,,,,,,,,,,1,,,,,,,,,,,,,,,,,,,,,,,,,,,473.432495,38,right,0.99931,gloves      ,7,6,3,1,3,473.46604,473.46604,475.96568,0,37,37,37,1,38,4,7,calculator    ,gloves      ,html/resources/sequences_IDs/A/09_calculator.jpg,html/resources/sequences_IDs/B/06_gloves.jpg,9,6,4,2,3,2,7,5,0,7,,,,,,,,,,,,,,,,,,,,
,,,,,7,2020-07-01_10h33.22.265,retriever_ti,2020.1.3,Win32,60,Chrome,1536,864,,,,,,,,,,,,,,,,,1,,,,,,,,,,,,,,,,,,,,,,,,,,,476.582805,39,left,0.823435,camel         ,2,3,-3,0,3,476.599565,476.599565,479.09893,0,38,38,38,1,39,2,5,camel         ,dolphin     ,html/resources/sequences_IDs/A/03_camel.jpg,html/resources/sequences_IDs/B/02_dolphin.jpg,3,2,1,1,1,1,3,2,0,7,,,,,,,,,,,,,,,,,,,,
,,,,,7,2020-07-01_10h33.22.265,retriever_ti,2020.1.3,Win32,60,Chrome,1536,864,,,,,,,,,,,,,,,,,1,,,,,,,,,,,,,,,,,,,,,,,,,,,479.69949,40,left,1.58833,holdfast    ,1,4,-5,0,3,479.73498,479.73498,482.232765,0,39,39,39,1,40,1,6,holdfast    ,wolf          ,html/resources/sequences_IDs/B/04_holdfast.jpg,html/resources/sequences_IDs/A/01_wolf.jpg,4,1,2,1,1,1,4,1,0,7,,,,,,,,,,,,,,,,,,,,
,,,,,7,2020-07-01_10h33.22.265,retriever_ti,2020.1.3,Win32,60,Chrome,1536,864,,,,,,,,,,,,,,,,,1,,,,,,,,,,,,,,,,,,,,,,,,,,,482.85017,41,right,1.14226,calculator    ,4,9,1,1,1,482.884275,482.884275,485.38255,0,40,40,40,1,41,3,4,radio       ,calculator    ,html/resources/sequences_IDs/B/10_radio.jpg,html/resources/sequences_IDs/A/09_calculator.jpg,10,9,4,2,4,2,8,7,0,7,,,,,,,,,,,,,,,,,,,,
,,,,,7,2020-07-01_10h33.22.265,retriever_ti,2020.1.3,Win32,60,Chrome,1536,864,,,,,,,,,,,,,,,,,1,,,,,,,,,,,,,,,,,,,,,,,,,,,486.483145,42,left,0.68679,wolf          ,6,1,1,1,1,486.517445,486.517445,489.016105,0,41,41,41,1,42,6,5,wolf          ,dolphin     ,html/resources/sequences_IDs/A/01_wolf.jpg,html/resources/sequences_IDs/B/02_dolphin.jpg,1,2,1,1,1,1,1,2,0,7,,,,,,,,,,,,,,,,,,,,
,,,,,7,2020-07-01_10h33.22.265,retriever_ti,2020.1.3,Win32,60,Chrome,1536,864,,,,,,,,,,,,,,,,,1,,,,,,,,,,,,,,,,,,,,,,,,,,,490.11671,43,left,1.306815,gloves      ,7,6,1,1,1,490.133635,490.133635,492.632865,0,42,42,42,1,43,7,6,gloves      ,wolf          ,html/resources/sequences_IDs/B/06_gloves.jpg,html/resources/sequences_IDs/A/01_wolf.jpg,6,1,3,2,1,1,5,1,0,7,,,,,,,,,,,,,,,,,,,,
,,,,,7,2020-07-01_10h33.22.265,retriever_ti,2020.1.3,Win32,60,Chrome,1536,864,,,,,,,,,,,,,,,,,1,,,,,,,,,,,,,,,,,,,,,,,,,,,493.733745,44,left,0.96791,calculator    ,4,9,-2,0,3,493.75018,493.75018,496.25012,0,43,43,43,1,44,4,6,calculator    ,wolf          ,html/resources/sequences_IDs/A/09_calculator.jpg,html/resources/sequences_IDs/A/01_wolf.jpg,9,1,4,2,1,1,7,1,0,7,,,,,,,,,,,,,,,,,,,,
,,,,,7,2020-07-01_10h33.22.265,retriever_ti,2020.1.3,Win32,60,Chrome,1536,864,,,,,,,,,,,,,,,,,1,,,,,,,,,,,,,,,,,,,,,,,,,,,496.86728,45,left,0.926345,dolphin     ,5,2,2,1,3,496.900885,496.900885,499.40049,0,44,44,44,1,45,5,3,dolphin     ,radio       ,html/resources/sequences_IDs/B/02_dolphin.jpg,html/resources/sequences_IDs/B/10_radio.jpg,2,10,1,1,4,2,2,8,0,7,,,,,,,,,,,,,,,,,,,,
,,,,,7,2020-07-01_10h33.22.265,retriever_ti,2020.1.3,Win32,60,Chrome,1536,864,,,,,,,,,,,,,,,,,1,,,,,,,,,,,,,,,,,,,,,,,,,,,500.016915,46,left,0.945795,holdfast    ,1,4,-3,0,3,500.03411,500.03411,502.53345,0,45,45,45,1,46,1,4,holdfast    ,calculator    ,html/resources/sequences_IDs/B/04_holdfast.jpg,html/resources/sequences_IDs/A/09_calculator.jpg,4,9,2,1,4,2,4,7,0,7,,,,,,,,,,,,,,,,,,,,
,,,,,7,2020-07-01_10h33.22.265,retriever_ti,2020.1.3,Win32,60,Chrome,1536,864,,,,,,,,,,,,,,,,,1,,,,,,,,,,,,,,,,,,,,,,,,,,,503.135515,47,right,0.818975,dolphin     ,5,2,1,1,1,503.168865,503.168865,505.66672,0,46,46,46,1,47,4,5,calculator    ,dolphin     ,html/resources/sequences_IDs/A/09_calculator.jpg,html/resources/sequences_IDs/B/02_dolphin.jpg,9,2,4,2,1,1,7,2,0,7,,,,,,,,,,,,,,,,,,,,
,,,,,7,2020-07-01_10h33.22.265,retriever_ti,2020.1.3,Win32,60,Chrome,1536,864,,,,,,,,,,,,,,,,,1,,,,,,,,,,,,,,,,,,,,,,,,,,,506.76914,48,left,0.957135,holdfast    ,1,4,-1,0,0,506.801725,506.801725,509.30069,0,47,47,47,1,48,1,2,holdfast    ,camel         ,html/resources/sequences_IDs/B/04_holdfast.jpg,html/resources/sequences_IDs/A/03_camel.jpg,4,3,2,1,1,1,4,3,0,7,,,,,,,,,,,,,,,,,,,,
,,,,,7,2020-07-01_10h33.22.265,retriever_ti,2020.1.3,Win32,60,Chrome,1536,864,,,,,,,,,,,,,,,,,1,,,,,,,,,,,,,,,,,,,,,,,,,,,510.401035,49,right,1.083715,hat           ,8,8,5,1,3,510.418675,510.418675,512.91741,0,48,48,48,1,49,3,8,radio       ,hat           ,html/resources/sequences_IDs/B/10_radio.jpg,html/resources/sequences_IDs/A/08_hat.jpg,10,8,4,2,3,2,8,6,0,7,,,,,,,,,,,,,,,,,,,,
,,,,,7,2020-07-01_10h33.22.265,retriever_ti,2020.1.3,Win32,60,Chrome,1536,864,,,,,,,,,,,,,,,,,1,,,,,,,,,,,,,,,,,,,,,,,,,,,513.534305,50,right,1.40645,hat           ,8,8,6,1,3,513.56927,513.56927,516.067295,0,49,49,49,1,50,2,8,camel         ,hat           ,html/resources/sequences_IDs/A/03_camel.jpg,html/resources/sequences_IDs/A/08_hat.jpg,3,8,1,1,3,2,3,6,0,7,,,,,,,,,,,,,,,,,,,,
,,,,,7,2020-07-01_10h33.22.265,retriever_ti,2020.1.3,Win32,60,Chrome,1536,864,,,,,,,,,,,,,,,,,1,,,,,,,,,,,,,,,,,,,,,,,,,,,516.684525,51,left,1.37534,hat           ,8,8,5,1,3,516.71859,516.71859,519.218065,0,50,50,50,1,51,8,3,hat           ,radio       ,html/resources/sequences_IDs/A/08_hat.jpg,html/resources/sequences_IDs/B/10_radio.jpg,8,10,3,2,4,2,6,8,0,7,,,,,,,,,,,,,,,,,,,,
,,,,,7,2020-07-01_10h33.22.265,retriever_ti,2020.1.3,Win32,60,Chrome,1536,864,,,,,,,,,,,,,,,,,1,,,,,,,,,,,,,,,,,,,,,,,,,,,519.83436,52,left,1.24341,camel         ,2,3,-2,0,3,519.86822,519.86822,522.367495,0,51,51,51,1,52,2,4,camel         ,calculator    ,html/resources/sequences_IDs/A/03_camel.jpg,html/resources/sequences_IDs/A/09_calculator.jpg,3,9,1,1,4,2,3,7,0,7,,,,,,,,,,,,,,,,,,,,
,,,,,7,2020-07-01_10h33.22.265,retriever_ti,2020.1.3,Win32,60,Chrome,1536,864,,,,,,,,,,,,,,,,,1,,,,,,,,,,,,,,,,,,,,,,,,,,,522.96975,53,left,0.98308,hat           ,8,8,4,1,3,522.98659,522.98659,525.484305,0,52,52,52,1,53,8,4,hat           ,calculator    ,html/resources/sequences_IDs/A/08_hat.jpg,html/resources/sequences_IDs/A/09_calculator.jpg,8,9,3,2,4,2,6,7,0,7,,,,,,,,,,,,,,,,,,,,
,,,,,7,2020-07-01_10h33.22.265,retriever_ti,2020.1.3,Win32,60,Chrome,1536,864,,,,,,,,,,,,,,,,,1,,,,,,,,,,,,,,,,,,,,,,,,,,,526.08464,54,right,0.974195,wolf          ,6,1,3,1,3,526.118415,526.118415,528.617905,0,53,53,53,1,54,3,6,radio       ,wolf          ,html/resources/sequences_IDs/B/10_radio.jpg,html/resources/sequences_IDs/A/01_wolf.jpg,10,1,4,2,1,1,8,1,0,7,,,,,,,,,,,,,,,,,,,,
,,,,,7,2020-07-01_10h33.22.265,retriever_ti,2020.1.3,Win32,60,Chrome,1536,864,,,,,,,,,,,,,,,,,1,,,,,,,,,,,,,,,,,,,,,,,,,,,529.220125,55,left,1.44577,gloves      ,7,6,5,1,3,529.236905,529.236905,531.73455,0,54,54,54,1,55,7,2,gloves      ,camel         ,html/resources/sequences_IDs/B/06_gloves.jpg,html/resources/sequences_IDs/A/03_camel.jpg,6,3,3,2,1,1,5,3,0,7,,,,,,,,,,,,,,,,,,,,
,,,,,7,2020-07-01_10h33.22.265,retriever_ti,2020.1.3,Win32,60,Chrome,1536,864,,,,,,,,,,,,,,,,,1,,,,,,,,,,,,,,,,,,,,,,,,,,,532.334995,56,left,1.25121,wolf          ,6,1,2,1,3,532.35219,532.35219,534.851455,0,55,55,55,1,56,6,4,wolf          ,calculator    ,html/resources/sequences_IDs/A/01_wolf.jpg,html/resources/sequences_IDs/A/09_calculator.jpg,1,9,1,1,4,2,1,7,0,7,,,,,,,,,,,,,,,,,,,,
,,,,,7,2020-07-01_10h33.22.265,retriever_ti,2020.1.3,Win32,60,Chrome,1536,864,,,,,,,,,,,,,,,,,1,,,,,,,,,,,,,,,,,,,,,,,,,,,535.468845,57,left,1.091735,dolphin     ,5,2,1,1,1,535.502215,535.502215,538.00234,0,56,56,56,1,57,5,4,dolphin     ,calculator    ,html/resources/sequences_IDs/B/02_dolphin.jpg,html/resources/sequences_IDs/A/09_calculator.jpg,2,9,1,1,4,2,2,7,0,7,,,,,,,,,,,,,,,,,,,,
,,,,,7,2020-07-01_10h33.22.265,retriever_ti,2020.1.3,Win32,60,Chrome,1536,864,,,,,,,,,,,,,,,,,1,,,,,,,,,,,,,,,,,,,,,,,,,,,539.10288,58,left,0.782025,radio       ,3,10,1,1,0,539.11955,539.11955,541.61836,0,57,57,57,1,58,3,2,radio       ,camel         ,html/resources/sequences_IDs/B/10_radio.jpg,html/resources/sequences_IDs/A/03_camel.jpg,10,3,4,2,1,1,8,3,1,7,,,,,,,,,,,,,,,,,,,,
,,,,,7,2020-07-01_10h33.22.265,retriever_ti,2020.1.3,Win32,60,Chrome,1536,864,,,,,,,,,,,,,,,,,1,,,,,,,,,,,,,,,,,,,,,,,,,,,542.71925,59,right,1.125815,hat           ,8,8,1,1,1,542.75379,542.75379,545.25235,0,58,58,58,1,59,7,8,gloves      ,hat           ,html/resources/sequences_IDs/B/06_gloves.jpg,html/resources/sequences_IDs/A/08_hat.jpg,6,8,3,2,3,2,5,6,0,7,,,,,,,,,,,,,,,,,,,,
,,,,,7,2020-07-01_10h33.22.265,retriever_ti,2020.1.3,Win32,60,Chrome,1536,864,,,,,,,,,,,,,,,,,1,,,,,,,,,,,,,,,,,,,,,,,,,,,546.35304,60,right,1.5498,dolphin     ,5,2,1,1,1,546.37081,546.37081,548.869,0,59,59,59,1,60,4,5,calculator    ,dolphin     ,html/resources/sequences_IDs/A/09_calculator.jpg,html/resources/sequences_IDs/B/02_dolphin.jpg,9,2,4,2,1,1,7,2,0,7,,,,,,,,,,,,,,,,,,,,
,,,,,7,2020-07-01_10h33.22.265,retriever_ti,2020.1.3,Win32,60,Chrome,1536,864,,,,,,,,,,,,,,,,,1,,,,,,,,,,,,,,,,,,,,,,,,,,,549.97078,61,left,1.130005,calculator    ,4,9,1,1,1,550.004345,550.004345,552.502125,0,60,60,60,1,61,4,3,calculator    ,radio       ,html/resources/sequences_IDs/A/09_calculator.jpg,html/resources/sequences_IDs/B/10_radio.jpg,9,10,4,2,4,2,7,8,0,7,,,,,,,,,,,,,,,,,,,,
,,,,,7,2020-07-01_10h33.22.265,retriever_ti,2020.1.3,Win32,60,Chrome,1536,864,,,,,,,,,,,,,,,,,1,,,,,,,,,,,,,,,,,,,,,,,,,,,553.6028,62,right,0.7075,dolphin     ,5,2,-3,0,3,553.61973,553.61973,556.119015,0,61,61,61,1,62,8,5,hat           ,dolphin     ,html/resources/sequences_IDs/A/08_hat.jpg,html/resources/sequences_IDs/B/02_dolphin.jpg,8,2,3,2,1,1,6,2,0,7,,,,,,,,,,,,,,,,,,,,
,,,,,7,2020-07-01_10h33.22.265,retriever_ti,2020.1.3,Win32,60,Chrome,1536,864,,,,,,,,,,,,,,,,,1,,,,,,,,,,,,,,,,,,,,,,,,,,,556.72014,63,left,1.434925,camel         ,2,3,-1,0,0,556.738435,556.738435,559.236195,0,62,62,62,1,63,2,3,camel         ,radio       ,html/resources/sequences_IDs/A/03_camel.jpg,html/resources/sequences_IDs/B/10_radio.jpg,3,10,1,1,4,2,3,8,0,7,,,,,,,,,,,,,,,,,,,,
,,,,,7,2020-07-01_10h33.22.265,retriever_ti,2020.1.3,Win32,60,Chrome,1536,864,,,,,,,,,,,,,,,,,1,,,,,,,,,,,,,,,,,,,,,,,,,,,560.33698,64,right,1.486675,hat           ,8,8,7,1,3,560.35486,560.35486,562.8528,0,63,63,63,1,64,1,8,holdfast    ,hat           ,html/resources/sequences_IDs/B/04_holdfast.jpg,html/resources/sequences_IDs/A/08_hat.jpg,4,8,2,1,3,2,4,6,0,7,,,,,,,,,,,,,,,,,,,,
,,,,,7,2020-07-01_10h33.22.265,retriever_ti,2020.1.3,Win32,60,Chrome,1536,864,,,,,,,,,,,,,,,,,1,,,,,,,,,,,,,,,,,,,,,,,,,,,563.47014,65,right,0.95962,holdfast    ,1,4,-4,0,3,563.486385,563.486385,565.9863,0,64,64,64,1,65,5,1,dolphin     ,holdfast    ,html/resources/sequences_IDs/B/02_dolphin.jpg,html/resources/sequences_IDs/B/04_holdfast.jpg,2,4,1,1,2,1,2,4,0,7,,,,,,,,,,,,,,,,,,,,
,,,,,7,2020-07-01_10h33.22.265,retriever_ti,2020.1.3,Win32,60,Chrome,1536,864,,,,,,,,,,,,,,,,,1,,,,,,,,,,,,,,,,,,,,,,,,,,,566.58855,66,left,0.678925,gloves      ,7,6,4,1,3,566.620865,566.620865,569.120145,0,65,65,65,1,66,7,3,gloves      ,radio       ,html/resources/sequences_IDs/B/06_gloves.jpg,html/resources/sequences_IDs/B/10_radio.jpg,6,10,3,2,4,2,5,8,0,7,,,,,,,,,,,,,,,,,,,,
,,,,,7,2020-07-01_10h33.22.265,retriever_ti,2020.1.3,Win32,60,Chrome,1536,864,,,,,,,,,,,,,,,,,1,,,,,,,,,,,,,,,,,,,,,,,,,,,569.73752,67,right,0.69675,gloves      ,7,6,6,1,3,569.75558,569.75558,572.253,0,66,66,66,1,67,1,7,holdfast    ,gloves      ,html/resources/sequences_IDs/B/04_holdfast.jpg,html/resources/sequences_IDs/B/06_gloves.jpg,4,6,2,1,3,2,4,5,0,7,,,,,,,,,,,,,,,,,,,,
,,,,,7,2020-07-01_10h33.22.265,retriever_ti,2020.1.3,Win32,60,Chrome,1536,864,,,,,,,,,,,,,,,,,1,,,,,,,,,,,,,,,,,,,,,,,,,,,572.85371,68,left,1.07379,wolf          ,6,1,5,1,3,572.88688,572.88688,575.386745,0,67,67,67,1,68,6,1,wolf          ,holdfast    ,html/resources/sequences_IDs/A/01_wolf.jpg,html/resources/sequences_IDs/B/04_holdfast.jpg,1,4,1,1,2,1,1,4,0,7,,,,,,,,,,,,,,,,,,,,
,,,,,7,2020-07-01_10h33.22.265,retriever_ti,2020.1.3,Win32,60,Chrome,1536,864,,,,,,,,,,,,,,,,,1,,,,,,,,,,,,,,,,,,,,,,,,,,,576.00339,69,right,0.665185,holdfast    ,1,4,-1,0,0,576.03887,576.03887,578.537025,0,68,68,68,1,69,2,1,camel         ,holdfast    ,html/resources/sequences_IDs/A/03_camel.jpg,html/resources/sequences_IDs/B/04_holdfast.jpg,3,4,1,1,2,1,3,4,0,7,,,,,,,,,,,,,,,,,,,,
,,,,,7,2020-07-01_10h33.22.265,retriever_ti,2020.1.3,Win32,60,Chrome,1536,864,,,,,,,,,,,,,,,,,1,,,,,,,,,,,,,,,,,,,,,,,,,,,579.637295,70,right,0.650785,holdfast    ,1,4,-6,0,3,579.6539,579.6539,582.153475,0,69,69,69,1,70,7,1,gloves      ,holdfast    ,html/resources/sequences_IDs/B/06_gloves.jpg,html/resources/sequences_IDs/B/04_holdfast.jpg,6,4,3,2,2,1,5,4,0,7,,,,,,,,,,,,,,,,,,,,
,,,,,7,2020-07-01_10h33.22.265,retriever_ti,2020.1.3,Win32,60,Chrome,1536,864,,,,,,,,,,,,,,,,,1,,,,,,,,,,,,,,,,,,,,,,,,,,,582.75407,71,right,0.71166,gloves      ,7,6,4,1,3,582.78762,582.78762,585.28684,0,70,70,70,1,71,3,7,radio       ,gloves      ,html/resources/sequences_IDs/B/10_radio.jpg,html/resources/sequences_IDs/B/06_gloves.jpg,10,6,4,2,3,2,8,5,0,7,,,,,,,,,,,,,,,,,,,,
,,,,,7,2020-07-01_10h33.22.265,retriever_ti,2020.1.3,Win32,60,Chrome,1536,864,,,,,,,,,,,,,,,,,1,,,,,,,,,,,,,,,,,,,,,,,,,,,585.887275,72,left,0.92704,wolf          ,6,1,4,1,3,585.904245,585.904245,588.403815,0,71,71,71,1,72,6,2,wolf          ,camel         ,html/resources/sequences_IDs/A/01_wolf.jpg,html/resources/sequences_IDs/A/03_camel.jpg,1,3,1,1,1,1,1,3,0,7,,,,,,,,,,,,,,,,,,,,
,,,,,7,2020-07-01_10h33.22.265,retriever_ti,2020.1.3,Win32,60,Chrome,1536,864,,,,,,,,,,,,,,,,,1,,,,,,,,,,,,,,,,,,,,,,,,,,,589.005715,73,left,1.04662,gloves      ,7,6,1,1,1,589.02259,589.02259,591.520775,0,72,72,72,1,73,7,6,gloves      ,wolf          ,html/resources/sequences_IDs/B/06_gloves.jpg,html/resources/sequences_IDs/A/01_wolf.jpg,6,1,3,2,1,1,5,1,0,7,,,,,,,,,,,,,,,,,,,,
,,,,,7,2020-07-01_10h33.22.265,retriever_ti,2020.1.3,Win32,60,Chrome,1536,864,,,,,,,,,,,,,,,,,1,,,,,,,,,,,,,,,,,,,,,,,,,,,592.621105,74,right,1.043715,dolphin     ,5,2,2,1,3,592.65441,592.65441,595.1541,0,73,73,73,1,74,3,5,radio       ,dolphin     ,html/resources/sequences_IDs/B/10_radio.jpg,html/resources/sequences_IDs/B/02_dolphin.jpg,10,2,4,2,1,1,8,2,0,7,,,,,,,,,,,,,,,,,,,,
,,,,,7,2020-07-01_10h33.22.265,retriever_ti,2020.1.3,Win32,60,Chrome,1536,864,,,,,,,,,,,,,,,,,1,,,,,,,,,,,,,,,,,,,,,,,,,,,595.771155,75,left,0.621565,wolf          ,6,1,3,1,3,595.804555,595.804555,598.3041,0,74,74,74,1,75,6,3,wolf          ,radio       ,html/resources/sequences_IDs/A/01_wolf.jpg,html/resources/sequences_IDs/B/10_radio.jpg,1,10,1,1,4,2,1,8,0,7,,,,,,,,,,,,,,,,,,,,
,,,,,7,2020-07-01_10h33.22.265,retriever_ti,2020.1.3,Win32,60,Chrome,1536,864,,,,,,,,,,,,,,,,,1,,,,,,,,,,,,,,,,,,,,,,,,,,,598.906775,76,right,1.105935,gloves      ,7,6,5,1,3,598.940235,598.940235,601.437705,0,75,75,75,1,76,2,7,camel         ,gloves      ,html/resources/sequences_IDs/A/03_camel.jpg,html/resources/sequences_IDs/B/06_gloves.jpg,3,6,1,1,3,2,3,5,0,7,,,,,,,,,,,,,,,,,,,,
,,,,,7,2020-07-01_10h33.22.265,retriever_ti,2020.1.3,Win32,60,Chrome,1536,864,,,,,,,,,,,,,,,,,1,,,,,,,,,,,,,,,,,,,,,,,,,,,602.05495,77,left,0.655045,calculator    ,4,9,1,1,1,602.07227,602.07227,604.571005,0,76,76,76,1,77,4,3,calculator    ,radio       ,html/resources/sequences_IDs/A/09_calculator.jpg,html/resources/sequences_IDs/B/10_radio.jpg,9,10,4,2,4,2,7,8,0,7,,,,,,,,,,,,,,,,,,,,
,,,,,7,2020-07-01_10h33.22.265,retriever_ti,2020.1.3,Win32,60,Chrome,1536,864,,,,,,,,,,,,,,,,,,,,,,,,,,,,,,,,,,,,,1,5.20584,,,,,,,,,,,,,,,,,,,,,,,,,,,,,,,,,,,,,,,,,0,0,0,0,1,,,,,,,,,,,,,,,
,,,,,7,2020-07-01_10h33.22.265,retriever_ti,2020.1.3,Win32,60,Chrome,1536,864,,,,,,,,,,,,,,,,,2,,,,,,,,,,,,,,,,,,,,,,,,,,,623.479335,78,left,1.11322,gloves      ,7,6,2,1,3,623.50663,623.50663,626.00608,0,0,0,0,1,78,7,5,gloves      ,dolphin     ,html/resources/sequences_IDs/B/06_gloves.jpg,html/resources/sequences_IDs/B/02_dolphin.jpg,6,2,3,2,1,1,5,2,0,7,,,,,,,,,,,,,,,,,,,,
,,,,,7,2020-07-01_10h33.22.265,retriever_ti,2020.1.3,Win32,60,Chrome,1536,864,,,,,,,,,,,,,,,,,2,,,,,,,,,,,,,,,,,,,,,,,,,,,626.62232,79,right,0.821335,wolf          ,6,1,3,1,3,626.639495,626.639495,629.13876,0,1,1,1,1,79,3,6,radio       ,wolf          ,html/resources/sequences_IDs/B/10_radio.jpg,html/resources/sequences_IDs/A/01_wolf.jpg,10,1,4,2,1,1,8,1,0,7,,,,,,,,,,,,,,,,,,,,
,,,,,7,2020-07-01_10h33.22.265,retriever_ti,2020.1.3,Win32,60,Chrome,1536,864,,,,,,,,,,,,,,,,,2,,,,,,,,,,,,,,,,,,,,,,,,,,,629.740495,80,left,0.69254,gloves      ,7,6,3,1,3,629.7742,629.7742,632.27268,0,2,2,2,1,80,7,4,gloves      ,calculator    ,html/resources/sequences_IDs/B/06_gloves.jpg,html/resources/sequences_IDs/A/09_calculator.jpg,6,9,3,2,4,2,5,7,0,7,,,,,,,,,,,,,,,,,,,,
,,,,,7,2020-07-01_10h33.22.265,retriever_ti,2020.1.3,Win32,60,Chrome,1536,864,,,,,,,,,,,,,,,,,2,,,,,,,,,,,,,,,,,,,,,,,,,,,632.88932,81,left,1.19697,hat           ,8,8,1,1,1,632.905995,632.905995,635.405725,0,3,3,3,1,81,8,7,hat           ,gloves      ,html/resources/sequences_IDs/A/08_hat.jpg,html/resources/sequences_IDs/B/06_gloves.jpg,8,6,3,2,3,2,6,5,0,7,,,,,,,,,,,,,,,,,,,,
,,,,,7,2020-07-01_10h33.22.265,retriever_ti,2020.1.3,Win32,60,Chrome,1536,864,,,,,,,,,,,,,,,,,2,,,,,,,,,,,,,,,,,,,,,,,,,,,636.50646,82,right,1.4123,calculator    ,4,9,1,1,1,636.523175,636.523175,639.02302,0,4,4,4,1,82,3,4,radio       ,calculator    ,html/resources/sequences_IDs/B/10_radio.jpg,html/resources/sequences_IDs/A/09_calculator.jpg,10,9,4,2,4,2,8,7,0,7,,,,,,,,,,,,,,,,,,,,
,,,,,7,2020-07-01_10h33.22.265,retriever_ti,2020.1.3,Win32,60,Chrome,1536,864,,,,,,,,,,,,,,,,,2,,,,,,,,,,,,,,,,,,,,,,,,,,,640.12439,83,left,1.189465,radio       ,3,10,1,1,1,640.15844,640.15844,642.655905,0,5,5,5,1,83,3,2,radio       ,camel         ,html/resources/sequences_IDs/B/10_radio.jpg,html/resources/sequences_IDs/A/03_camel.jpg,10,3,4,2,1,1,8,3,0,7,,,,,,,,,,,,,,,,,,,,
,,,,,7,2020-07-01_10h33.22.265,retriever_ti,2020.1.3,Win32,60,Chrome,1536,864,,,,,,,,,,,,,,,,,2,,,,,,,,,,,,,,,,,,,,,,,,,,,643.756775,84,left,1.113595,wolf          ,6,1,3,1,3,643.77341,643.77341,646.27303,0,6,6,6,1,84,6,3,wolf          ,radio       ,html/resources/sequences_IDs/A/01_wolf.jpg,html/resources/sequences_IDs/B/10_radio.jpg,1,10,1,1,4,2,1,8,0,7,,,,,,,,,,,,,,,,,,,,
,,,,,7,2020-07-01_10h33.22.265,retriever_ti,2020.1.3,Win32,60,Chrome,1536,864,,,,,,,,,,,,,,,,,2,,,,,,,,,,,,,,,,,,,,,,,,,,,646.874095,85,right,1.04225,hat           ,8,8,4,1,3,646.90849,646.90849,649.40669,0,7,7,7,1,85,4,8,calculator    ,hat           ,html/resources/sequences_IDs/A/09_calculator.jpg,html/resources/sequences_IDs/A/08_hat.jpg,9,8,4,2,3,2,7,6,0,7,,,,,,,,,,,,,,,,,,,,
,,,,,7,2020-07-01_10h33.22.265,retriever_ti,2020.1.3,Win32,60,Chrome,1536,864,,,,,,,,,,,,,,,,,2,,,,,,,,,,,,,,,,,,,,,,,,,,,650.023595,86,left,0.77118,hat           ,8,8,1,1,1,650.057305,650.057305,652.556545,0,8,8,8,1,86,8,7,hat           ,gloves      ,html/resources/sequences_IDs/A/08_hat.jpg,html/resources/sequences_IDs/B/06_gloves.jpg,8,6,3,2,3,2,6,5,0,7,,,,,,,,,,,,,,,,,,,,
,,,,,7,2020-07-01_10h33.22.265,retriever_ti,2020.1.3,Win32,60,Chrome,1536,864,,,,,,,,,,,,,,,,,2,,,,,,,,,,,,,,,,,,,,,,,,,,,653.657395,87,left,1.03514,holdfast    ,1,4,-4,0,3,653.69084,653.69084,656.189895,0,9,9,9,1,87,1,5,holdfast    ,dolphin     ,html/resources/sequences_IDs/B/04_holdfast.jpg,html/resources/sequences_IDs/B/02_dolphin.jpg,4,2,2,1,1,1,4,2,0,7,,,,,,,,,,,,,,,,,,,,
,,,,,7,2020-07-01_10h33.22.265,retriever_ti,2020.1.3,Win32,60,Chrome,1536,864,,,,,,,,,,,,,,,,,2,,,,,,,,,,,,,,,,,,,,,,,,,,,656.79118,88,left,1.15615,wolf          ,6,1,1,1,1,656.8088,656.8088,659.307225,0,10,10,10,1,88,6,5,wolf          ,dolphin     ,html/resources/sequences_IDs/A/01_wolf.jpg,html/resources/sequences_IDs/B/02_dolphin.jpg,1,2,1,1,1,1,1,2,0,7,,,,,,,,,,,,,,,,,,,,
,,,,,7,2020-07-01_10h33.22.265,retriever_ti,2020.1.3,Win32,60,Chrome,1536,864,,,,,,,,,,,,,,,,,2,,,,,,,,,,,,,,,,,,,,,,,,,,,660.408875,89,right,0.7035,hat           ,8,8,1,1,1,660.425175,660.425175,662.92417,0,11,11,11,1,89,7,8,gloves      ,hat           ,html/resources/sequences_IDs/B/06_gloves.jpg,html/resources/sequences_IDs/A/08_hat.jpg,6,8,3,2,3,2,5,6,0,7,,,,,,,,,,,,,,,,,,,,
,,,,,7,2020-07-01_10h33.22.265,retriever_ti,2020.1.3,Win32,60,Chrome,1536,864,,,,,,,,,,,,,,,,,2,,,,,,,,,,,,,,,,,,,,,,,,,,,664.02416,90,right,1.57198,gloves      ,7,6,4,1,3,664.058995,664.058995,666.557105,0,12,12,12,1,90,3,7,radio       ,gloves      ,html/resources/sequences_IDs/B/10_radio.jpg,html/resources/sequences_IDs/B/06_gloves.jpg,10,6,4,2,3,2,8,5,0,7,,,,,,,,,,,,,,,,,,,,
,,,,,7,2020-07-01_10h33.22.265,retriever_ti,2020.1.3,Win32,60,Chrome,1536,864,,,,,,,,,,,,,,,,,2,,,,,,,,,,,,,,,,,,,,,,,,,,,667.17438,91,left,0.91381,holdfast    ,1,4,-3,0,3,667.19117,667.19117,669.69052,0,13,13,13,1,91,1,4,holdfast    ,calculator    ,html/resources/sequences_IDs/B/04_holdfast.jpg,html/resources/sequences_IDs/A/09_calculator.jpg,4,9,2,1,4,2,4,7,0,7,,,,,,,,,,,,,,,,,,,,
,,,,,7,2020-07-01_10h33.22.265,retriever_ti,2020.1.3,Win32,60,Chrome,1536,864,,,,,,,,,,,,,,,,,2,,,,,,,,,,,,,,,,,,,,,,,,,,,670.291995,92,right,1.498965,gloves      ,7,6,1,1,1,670.326295,670.326295,672.82405,0,14,14,14,1,92,6,7,wolf          ,gloves      ,html/resources/sequences_IDs/A/01_wolf.jpg,html/resources/sequences_IDs/B/06_gloves.jpg,1,6,1,1,3,2,1,5,0,7,,,,,,,,,,,,,,,,,,,,
,,,,,7,2020-07-01_10h33.22.265,retriever_ti,2020.1.3,Win32,60,Chrome,1536,864,,,,,,,,,,,,,,,,,2,,,,,,,,,,,,,,,,,,,,,,,,,,,673.927405,93,left,1.934465,radio       ,3,10,-1,0,0,673.959435,673.959435,676.45802,0,15,15,15,1,93,3,4,radio       ,calculator    ,html/resources/sequences_IDs/B/10_radio.jpg,html/resources/sequences_IDs/A/09_calculator.jpg,10,9,4,2,4,2,8,7,0,7,,,,,,,,,,,,,,,,,,,,
,,,,,7,2020-07-01_10h33.22.265,retriever_ti,2020.1.3,Win32,60,Chrome,1536,864,,,,,,,,,,,,,,,,,2,,,,,,,,,,,,,,,,,,,,,,,,,,,677.558135,94,right,0.74901,hat           ,8,8,1,1,1,677.574725,677.574725,680.07423,0,16,16,16,1,94,7,8,gloves      ,hat           ,html/resources/sequences_IDs/B/06_gloves.jpg,html/resources/sequences_IDs/A/08_hat.jpg,6,8,3,2,3,2,5,6,0,7,,,,,,,,,,,,,,,,,,,,
,,,,,7,2020-07-01_10h33.22.265,retriever_ti,2020.1.3,Win32,60,Chrome,1536,864,,,,,,,,,,,,,,,,,2,,,,,,,,,,,,,,,,,,,,,,,,,,,681.174675,95,left,0.800015,gloves      ,7,6,4,1,3,681.19197,681.19197,683.691075,0,17,17,17,1,95,7,3,gloves      ,radio       ,html/resources/sequences_IDs/B/06_gloves.jpg,html/resources/sequences_IDs/B/10_radio.jpg,6,10,3,2,4,2,5,8,0,7,,,,,,,,,,,,,,,,,,,,
,,,,,7,2020-07-01_10h33.22.265,retriever_ti,2020.1.3,Win32,60,Chrome,1536,864,,,,,,,,,,,,,,,,,2,,,,,,,,,,,,,,,,,,,,,,,,,,,684.292425,96,left,1.188805,calculator    ,4,9,2,1,3,684.32545,684.32545,686.825295,0,18,18,18,1,96,4,2,calculator    ,camel         ,html/resources/sequences_IDs/A/09_calculator.jpg,html/resources/sequences_IDs/A/03_camel.jpg,9,3,4,2,1,1,7,3,0,7,,,,,,,,,,,,,,,,,,,,
,,,,,7,2020-07-01_10h33.22.265,retriever_ti,2020.1.3,Win32,60,Chrome,1536,864,,,,,,,,,,,,,,,,,2,,,,,,,,,,,,,,,,,,,,,,,,,,,687.442195,97,right,0.85913,wolf          ,6,1,2,1,3,687.459235,687.459235,689.95803,0,19,19,19,1,97,4,6,calculator    ,wolf          ,html/resources/sequences_IDs/A/09_calculator.jpg,html/resources/sequences_IDs/A/01_wolf.jpg,9,1,4,2,1,1,7,1,0,7,,,,,,,,,,,,,,,,,,,,
,,,,,7,2020-07-01_10h33.22.265,retriever_ti,2020.1.3,Win32,60,Chrome,1536,864,,,,,,,,,,,,,,,,,2,,,,,,,,,,,,,,,,,,,,,,,,,,,690.55921,98,left,0.915185,holdfast    ,1,4,-1,0,0,690.59305,690.59305,693.092055,0,20,20,20,1,98,1,2,holdfast    ,camel         ,html/resources/sequences_IDs/B/04_holdfast.jpg,html/resources/sequences_IDs/A/03_camel.jpg,4,3,2,1,1,1,4,3,0,7,,,,,,,,,,,,,,,,,,,,
,,,,,7,2020-07-01_10h33.22.265,retriever_ti,2020.1.3,Win32,60,Chrome,1536,864,,,,,,,,,,,,,,,,,2,,,,,,,,,,,,,,,,,,,,,,,,,,,694.193605,99,left,1.95861,dolphin     ,5,2,2,1,3,694.21046,694.21046,696.792145,0,21,21,21,1,99,5,3,dolphin     ,radio       ,html/resources/sequences_IDs/B/02_dolphin.jpg,html/resources/sequences_IDs/B/10_radio.jpg,2,10,1,1,4,2,2,8,0,7,,,,,,,,,,,,,,,,,,,,
,,,,,7,2020-07-01_10h33.22.265,retriever_ti,2020.1.3,Win32,60,Chrome,1536,864,,,,,,,,,,,,,,,,,2,,,,,,,,,,,,,,,,,,,,,,,,,,,697.408905,100,left,0.782435,hat           ,8,8,4,1,3,697.442965,697.442965,699.942445,0,22,22,22,1,100,8,4,hat           ,calculator    ,html/resources/sequences_IDs/A/08_hat.jpg,html/resources/sequences_IDs/A/09_calculator.jpg,8,9,3,2,4,2,6,7,0,7,,,,,,,,,,,,,,,,,,,,
,,,,,7,2020-07-01_10h33.22.265,retriever_ti,2020.1.3,Win32,60,Chrome,1536,864,,,,,,,,,,,,,,,,,2,,,,,,,,,,,,,,,,,,,,,,,,,,,700.559765,101,left,0.95844,wolf          ,6,1,1,1,0,700.595575,700.595575,703.092155,0,23,23,23,1,101,6,5,wolf          ,dolphin     ,html/resources/sequences_IDs/A/01_wolf.jpg,html/resources/sequences_IDs/B/02_dolphin.jpg,1,2,1,1,1,1,1,2,1,7,,,,,,,,,,,,,,,,,,,,
,,,,,7,2020-07-01_10h33.22.265,retriever_ti,2020.1.3,Win32,60,Chrome,1536,864,,,,,,,,,,,,,,,,,2,,,,,,,,,,,,,,,,,,,,,,,,,,,704.194185,102,left,0.609755,holdfast    ,1,4,-2,0,3,704.228,704.228,706.72596,0,24,24,24,1,102,1,3,holdfast    ,radio       ,html/resources/sequences_IDs/B/04_holdfast.jpg,html/resources/sequences_IDs/B/10_radio.jpg,4,10,2,1,4,2,4,8,0,7,,,,,,,,,,,,,,,,,,,,
,,,,,7,2020-07-01_10h33.22.265,retriever_ti,2020.1.3,Win32,60,Chrome,1536,864,,,,,,,,,,,,,,,,,2,,,,,,,,,,,,,,,,,,,,,,,,,,,707.342645,103,right,1.217265,wolf          ,6,1,1,1,1,707.3595,707.3595,709.85885,0,25,25,25,1,103,5,6,dolphin     ,wolf          ,html/resources/sequences_IDs/B/02_dolphin.jpg,html/resources/sequences_IDs/A/01_wolf.jpg,2,1,1,1,1,1,2,1,0,7,,,,,,,,,,,,,,,,,,,,
,,,,,7,2020-07-01_10h33.22.265,retriever_ti,2020.1.3,Win32,60,Chrome,1536,864,,,,,,,,,,,,,,,,,2,,,,,,,,,,,,,,,,,,,,,,,,,,,710.959335,104,left,0.782805,camel         ,2,3,-2,0,3,710.976755,710.976755,713.475825,0,26,26,26,1,104,2,4,camel         ,calculator    ,html/resources/sequences_IDs/A/03_camel.jpg,html/resources/sequences_IDs/A/09_calculator.jpg,3,9,1,1,4,2,3,7,0,7,,,,,,,,,,,,,,,,,,,,
,,,,,7,2020-07-01_10h33.22.265,retriever_ti,2020.1.3,Win32,60,Chrome,1536,864,,,,,,,,,,,,,,,,,2,,,,,,,,,,,,,,,,,,,,,,,,,,,714.07789,105,right,0.76576,wolf          ,6,1,1,1,1,714.094785,714.094785,716.59302,0,27,27,27,1,105,5,6,dolphin     ,wolf          ,html/resources/sequences_IDs/B/02_dolphin.jpg,html/resources/sequences_IDs/A/01_wolf.jpg,2,1,1,1,1,1,2,1,0,7,,,,,,,,,,,,,,,,,,,,
,,,,,7,2020-07-01_10h33.22.265,retriever_ti,2020.1.3,Win32,60,Chrome,1536,864,,,,,,,,,,,,,,,,,2,,,,,,,,,,,,,,,,,,,,,,,,,,,717.694655,106,right,0.699365,holdfast    ,1,4,-3,0,3,717.728145,717.728145,720.226365,0,28,28,28,1,106,4,1,calculator    ,holdfast    ,html/resources/sequences_IDs/A/09_calculator.jpg,html/resources/sequences_IDs/B/04_holdfast.jpg,9,4,4,2,2,1,7,4,0,7,,,,,,,,,,,,,,,,,,,,
,,,,,7,2020-07-01_10h33.22.265,retriever_ti,2020.1.3,Win32,60,Chrome,1536,864,,,,,,,,,,,,,,,,,2,,,,,,,,,,,,,,,,,,,,,,,,,,,720.843675,107,left,1.554725,holdfast    ,1,4,-1,0,0,720.860945,720.860945,723.359595,0,29,29,29,1,107,1,2,holdfast    ,camel         ,html/resources/sequences_IDs/B/04_holdfast.jpg,html/resources/sequences_IDs/A/03_camel.jpg,4,3,2,1,1,1,4,3,0,7,,,,,,,,,,,,,,,,,,,,
,,,,,7,2020-07-01_10h33.22.265,retriever_ti,2020.1.3,Win32,60,Chrome,1536,864,,,,,,,,,,,,,,,,,2,,,,,,,,,,,,,,,,,,,,,,,,,,,724.461435,108,right,1.35406,hat           ,8,8,2,1,3,724.494435,724.494435,726.9933,0,30,30,30,1,108,6,8,wolf          ,hat           ,html/resources/sequences_IDs/A/01_wolf.jpg,html/resources/sequences_IDs/A/08_hat.jpg,1,8,1,1,3,2,1,6,0,7,,,,,,,,,,,,,,,,,,,,
,,,,,7,2020-07-01_10h33.22.265,retriever_ti,2020.1.3,Win32,60,Chrome,1536,864,,,,,,,,,,,,,,,,,2,,,,,,,,,,,,,,,,,,,,,,,,,,,727.611625,109,right,1.36194,wolf          ,6,1,5,1,3,727.627495,727.627495,730.126905,0,31,31,31,1,109,1,6,holdfast    ,wolf          ,html/resources/sequences_IDs/B/04_holdfast.jpg,html/resources/sequences_IDs/A/01_wolf.jpg,4,1,2,1,1,1,4,1,0,7,,,,,,,,,,,,,,,,,,,,
,,,,,7,2020-07-01_10h33.22.265,retriever_ti,2020.1.3,Win32,60,Chrome,1536,864,,,,,,,,,,,,,,,,,2,,,,,,,,,,,,,,,,,,,,,,,,,,,730.74385,110,right,1.02015,hat           ,8,8,3,1,3,730.77788,730.77788,733.276635,0,32,32,32,1,110,5,8,dolphin     ,hat           ,html/resources/sequences_IDs/B/02_dolphin.jpg,html/resources/sequences_IDs/A/08_hat.jpg,2,8,1,1,3,2,2,6,0,7,,,,,,,,,,,,,,,,,,,,
,,,,,7,2020-07-01_10h33.22.265,retriever_ti,2020.1.3,Win32,60,Chrome,1536,864,,,,,,,,,,,,,,,,,2,,,,,,,,,,,,,,,,,,,,,,,,,,,733.87728,111,left,1.016505,hat           ,8,8,5,1,3,733.894435,733.894435,736.39339,0,33,33,33,1,111,8,3,hat           ,radio       ,html/resources/sequences_IDs/A/08_hat.jpg,html/resources/sequences_IDs/B/10_radio.jpg,8,10,3,2,4,2,6,8,0,7,,,,,,,,,,,,,,,,,,,,
,,,,,7,2020-07-01_10h33.22.265,retriever_ti,2020.1.3,Win32,60,Chrome,1536,864,,,,,,,,,,,,,,,,,2,,,,,,,,,,,,,,,,,,,,,,,,,,,737.010425,112,right,0.73525,dolphin     ,5,2,2,1,3,737.02742,737.02742,739.52681,0,34,34,34,1,112,3,5,radio       ,dolphin     ,html/resources/sequences_IDs/B/10_radio.jpg,html/resources/sequences_IDs/B/02_dolphin.jpg,10,2,4,2,1,1,8,2,0,7,,,,,,,,,,,,,,,,,,,,
,,,,,7,2020-07-01_10h33.22.265,retriever_ti,2020.1.3,Win32,60,Chrome,1536,864,,,,,,,,,,,,,,,,,2,,,,,,,,,,,,,,,,,,,,,,,,,,,740.12901,113,left,1.03218,camel         ,2,3,-3,0,3,740.16272,740.16272,742.66047,0,35,35,35,1,113,2,5,camel         ,dolphin     ,html/resources/sequences_IDs/A/03_camel.jpg,html/resources/sequences_IDs/B/02_dolphin.jpg,3,2,1,1,1,1,3,2,0,7,,,,,,,,,,,,,,,,,,,,
,,,,,7,2020-07-01_10h33.22.265,retriever_ti,2020.1.3,Win32,60,Chrome,1536,864,,,,,,,,,,,,,,,,,2,,,,,,,,,,,,,,,,,,,,,,,,,,,743.27751,114,right,0.680535,holdfast    ,1,4,-2,0,3,743.31124,743.31124,745.81058,0,36,36,36,1,114,3,1,radio       ,holdfast    ,html/resources/sequences_IDs/B/10_radio.jpg,html/resources/sequences_IDs/B/04_holdfast.jpg,10,4,4,2,2,1,8,4,0,7,,,,,,,,,,,,,,,,,,,,
,,,,,7,2020-07-01_10h33.22.265,retriever_ti,2020.1.3,Win32,60,Chrome,1536,864,,,,,,,,,,,,,,,,,2,,,,,,,,,,,,,,,,,,,,,,,,,,,746.41131,115,right,0.68384,hat           ,8,8,6,1,3,746.42884,746.42884,748.9273,0,37,37,37,1,115,2,8,camel         ,hat           ,html/resources/sequences_IDs/A/03_camel.jpg,html/resources/sequences_IDs/A/08_hat.jpg,3,8,1,1,3,2,3,6,0,7,,,,,,,,,,,,,,,,,,,,
,,,,,7,2020-07-01_10h33.22.265,retriever_ti,2020.1.3,Win32,60,Chrome,1536,864,,,,,,,,,,,,,,,,,2,,,,,,,,,,,,,,,,,,,,,,,,,,,749.52794,116,right,0.85012,camel         ,2,3,-3,0,3,749.56154,749.56154,752.06071,0,38,38,38,1,116,5,2,dolphin     ,camel         ,html/resources/sequences_IDs/B/02_dolphin.jpg,html/resources/sequences_IDs/A/03_camel.jpg,2,3,1,1,1,1,2,3,0,7,,,,,,,,,,,,,,,,,,,,
,,,,,7,2020-07-01_10h33.22.265,retriever_ti,2020.1.3,Win32,60,Chrome,1536,864,,,,,,,,,,,,,,,,,2,,,,,,,,,,,,,,,,,,,,,,,,,,,752.66111,117,right,0.65167,holdfast    ,1,4,-7,0,3,752.69838,752.69838,755.19456,0,39,39,39,1,117,8,1,hat           ,holdfast    ,html/resources/sequences_IDs/A/08_hat.jpg,html/resources/sequences_IDs/B/04_holdfast.jpg,8,4,3,2,2,1,6,4,0,7,,,,,,,,,,,,,,,,,,,,
,,,,,7,2020-07-01_10h33.22.265,retriever_ti,2020.1.3,Win32,60,Chrome,1536,864,,,,,,,,,,,,,,,,,2,,,,,,,,,,,,,,,,,,,,,,,,,,,755.81139,118,right,1.175835,wolf          ,6,1,4,1,3,755.82804,755.82804,758.32762,0,40,40,40,1,118,2,6,camel         ,wolf          ,html/resources/sequences_IDs/A/03_camel.jpg,html/resources/sequences_IDs/A/01_wolf.jpg,3,1,1,1,1,1,3,1,0,7,,,,,,,,,,,,,,,,,,,,
,,,,,7,2020-07-01_10h33.22.265,retriever_ti,2020.1.3,Win32,60,Chrome,1536,864,,,,,,,,,,,,,,,,,2,,,,,,,,,,,,,,,,,,,,,,,,,,,758.928885,119,left,1.11242,camel         ,2,3,1,1,1,758.963245,758.963245,761.46122,0,41,41,41,1,119,2,1,camel         ,holdfast    ,html/resources/sequences_IDs/A/03_camel.jpg,html/resources/sequences_IDs/B/04_holdfast.jpg,3,4,1,1,2,1,3,4,0,7,,,,,,,,,,,,,,,,,,,,
,,,,,7,2020-07-01_10h33.22.265,retriever_ti,2020.1.3,Win32,60,Chrome,1536,864,,,,,,,,,,,,,,,,,2,,,,,,,,,,,,,,,,,,,,,,,,,,,762.561705,120,left,1.200575,dolphin     ,5,2,1,1,1,762.595315,762.595315,765.095315,0,42,42,42,1,120,5,4,dolphin     ,calculator    ,html/resources/sequences_IDs/B/02_dolphin.jpg,html/resources/sequences_IDs/A/09_calculator.jpg,2,9,1,1,4,2,2,7,0,7,,,,,,,,,,,,,,,,,,,,
,,,,,7,2020-07-01_10h33.22.265,retriever_ti,2020.1.3,Win32,60,Chrome,1536,864,,,,,,,,,,,,,,,,,2,,,,,,,,,,,,,,,,,,,,,,,,,,,766.195225,121,right,0.630275,gloves      ,7,6,3,1,3,766.22855,766.22855,768.72833,0,43,43,43,1,121,4,7,calculator    ,gloves      ,html/resources/sequences_IDs/A/09_calculator.jpg,html/resources/sequences_IDs/B/06_gloves.jpg,9,6,4,2,3,2,7,5,0,7,,,,,,,,,,,,,,,,,,,,
,,,,,7,2020-07-01_10h33.22.265,retriever_ti,2020.1.3,Win32,60,Chrome,1536,864,,,,,,,,,,,,,,,,,2,,,,,,,,,,,,,,,,,,,,,,,,,,,769.345445,122,right,1.49708,hat           ,8,8,7,1,3,769.37889,769.37889,771.878225,0,44,44,44,1,122,1,8,holdfast    ,hat           ,html/resources/sequences_IDs/B/04_holdfast.jpg,html/resources/sequences_IDs/A/08_hat.jpg,4,8,2,1,3,2,4,6,0,7,,,,,,,,,,,,,,,,,,,,
,,,,,7,2020-07-01_10h33.22.265,retriever_ti,2020.1.3,Win32,60,Chrome,1536,864,,,,,,,,,,,,,,,,,2,,,,,,,,,,,,,,,,,,,,,,,,,,,772.47939,123,left,0.817375,gloves      ,7,6,1,1,1,772.49722,772.49722,774.99554,0,45,45,45,1,123,7,6,gloves      ,wolf          ,html/resources/sequences_IDs/B/06_gloves.jpg,html/resources/sequences_IDs/A/01_wolf.jpg,6,1,3,2,1,1,5,1,0,7,,,,,,,,,,,,,,,,,,,,
,,,,,7,2020-07-01_10h33.22.265,retriever_ti,2020.1.3,Win32,60,Chrome,1536,864,,,,,,,,,,,,,,,,,2,,,,,,,,,,,,,,,,,,,,,,,,,,,776.097255,124,left,0.89739,gloves      ,7,6,5,1,3,776.130655,776.130655,778.6286,0,46,46,46,1,124,7,2,gloves      ,camel         ,html/resources/sequences_IDs/B/06_gloves.jpg,html/resources/sequences_IDs/A/03_camel.jpg,6,3,3,2,1,1,5,3,0,7,,,,,,,,,,,,,,,,,,,,
,,,,,7,2020-07-01_10h33.22.265,retriever_ti,2020.1.3,Win32,60,Chrome,1536,864,,,,,,,,,,,,,,,,,2,,,,,,,,,,,,,,,,,,,,,,,,,,,779.22894,125,left,0.734315,camel         ,2,3,-1,0,0,779.246115,779.246115,781.74529,0,47,47,47,1,125,2,3,camel         ,radio       ,html/resources/sequences_IDs/A/03_camel.jpg,html/resources/sequences_IDs/B/10_radio.jpg,3,10,1,1,4,2,3,8,0,7,,,,,,,,,,,,,,,,,,,,
,,,,,7,2020-07-01_10h33.22.265,retriever_ti,2020.1.3,Win32,60,Chrome,1536,864,,,,,,,,,,,,,,,,,2,,,,,,,,,,,,,,,,,,,,,,,,,,,782.84643,126,left,0.820115,camel         ,2,3,1,1,1,782.864055,782.864055,785.36276,0,48,48,48,1,126,2,1,camel         ,holdfast    ,html/resources/sequences_IDs/A/03_camel.jpg,html/resources/sequences_IDs/B/04_holdfast.jpg,3,4,1,1,2,1,3,4,0,7,,,,,,,,,,,,,,,,,,,,
,,,,,7,2020-07-01_10h33.22.265,retriever_ti,2020.1.3,Win32,60,Chrome,1536,864,,,,,,,,,,,,,,,,,2,,,,,,,,,,,,,,,,,,,,,,,,,,,786.46432,127,right,0.85894,camel         ,2,3,-1,0,0,786.49798,786.49798,788.995965,0,49,49,49,1,127,3,2,radio       ,camel         ,html/resources/sequences_IDs/B/10_radio.jpg,html/resources/sequences_IDs/A/03_camel.jpg,10,3,4,2,1,1,8,3,0,7,,,,,,,,,,,,,,,,,,,,
,,,,,7,2020-07-01_10h33.22.265,retriever_ti,2020.1.3,Win32,60,Chrome,1536,864,,,,,,,,,,,,,,,,,2,,,,,,,,,,,,,,,,,,,,,,,,,,,790.09773,128,left,0.852625,hat           ,8,8,2,1,3,790.11459,790.11459,792.612395,0,50,50,50,1,128,8,6,hat           ,wolf          ,html/resources/sequences_IDs/A/08_hat.jpg,html/resources/sequences_IDs/A/01_wolf.jpg,8,1,3,2,1,1,6,1,0,7,,,,,,,,,,,,,,,,,,,,
,,,,,7,2020-07-01_10h33.22.265,retriever_ti,2020.1.3,Win32,60,Chrome,1536,864,,,,,,,,,,,,,,,,,2,,,,,,,,,,,,,,,,,,,,,,,,,,,793.213635,129,right,1.33283,holdfast    ,1,4,-4,0,3,793.23164,793.23164,795.72928,0,51,51,51,1,129,5,1,dolphin     ,holdfast    ,html/resources/sequences_IDs/B/02_dolphin.jpg,html/resources/sequences_IDs/B/04_holdfast.jpg,2,4,1,1,2,1,2,4,0,7,,,,,,,,,,,,,,,,,,,,
,,,,,7,2020-07-01_10h33.22.265,retriever_ti,2020.1.3,Win32,60,Chrome,1536,864,,,,,,,,,,,,,,,,,2,,,,,,,,,,,,,,,,,,,,,,,,,,,796.331885,130,left,1.18071,calculator    ,4,9,1,1,1,796.348515,796.348515,798.84656,0,52,52,52,1,130,4,3,calculator    ,radio       ,html/resources/sequences_IDs/A/09_calculator.jpg,html/resources/sequences_IDs/B/10_radio.jpg,9,10,4,2,4,2,7,8,0,7,,,,,,,,,,,,,,,,,,,,
,,,,,7,2020-07-01_10h33.22.265,retriever_ti,2020.1.3,Win32,60,Chrome,1536,864,,,,,,,,,,,,,,,,,2,,,,,,,,,,,,,,,,,,,,,,,,,,,799.94832,131,left,0.85022,wolf          ,6,1,-1,0,0,799.96526,799.96526,802.463455,0,53,53,53,1,131,6,7,wolf          ,gloves      ,html/resources/sequences_IDs/A/01_wolf.jpg,html/resources/sequences_IDs/B/06_gloves.jpg,1,6,1,1,3,2,1,5,0,7,,,,,,,,,,,,,,,,,,,,
,,,,,7,2020-07-01_10h33.22.265,retriever_ti,2020.1.3,Win32,60,Chrome,1536,864,,,,,,,,,,,,,,,,,2,,,,,,,,,,,,,,,,,,,,,,,,,,,803.56349,132,right,0.48882,gloves      ,7,6,1,1,0,803.58038,803.58038,806.08029,0,54,54,54,1,132,6,7,wolf          ,gloves      ,html/resources/sequences_IDs/A/01_wolf.jpg,html/resources/sequences_IDs/B/06_gloves.jpg,1,6,1,1,3,2,1,5,1,7,,,,,,,,,,,,,,,,,,,,
,,,,,7,2020-07-01_10h33.22.265,retriever_ti,2020.1.3,Win32,60,Chrome,1536,864,,,,,,,,,,,,,,,,,2,,,,,,,,,,,,,,,,,,,,,,,,,,,807.18084,133,right,0.800305,gloves      ,7,6,6,1,3,807.215435,807.215435,809.713475,0,55,55,55,1,133,1,7,holdfast    ,gloves      ,html/resources/sequences_IDs/B/04_holdfast.jpg,html/resources/sequences_IDs/B/06_gloves.jpg,4,6,2,1,3,2,4,5,0,7,,,,,,,,,,,,,,,,,,,,
,,,,,7,2020-07-01_10h33.22.265,retriever_ti,2020.1.3,Win32,60,Chrome,1536,864,,,,,,,,,,,,,,,,,2,,,,,,,,,,,,,,,,,,,,,,,,,,,810.330405,134,left,0.785745,dolphin     ,5,2,-2,0,3,810.34707,810.34707,812.84658,0,56,56,56,1,134,5,7,dolphin     ,gloves      ,html/resources/sequences_IDs/B/02_dolphin.jpg,html/resources/sequences_IDs/B/06_gloves.jpg,2,6,1,1,3,2,2,5,0,7,,,,,,,,,,,,,,,,,,,,
,,,,,7,2020-07-01_10h33.22.265,retriever_ti,2020.1.3,Win32,60,Chrome,1536,864,,,,,,,,,,,,,,,,,2,,,,,,,,,,,,,,,,,,,,,,,,,,,813.448755,135,left,1.26626,wolf          ,6,1,4,1,3,813.465735,813.465735,815.964025,0,57,57,57,1,135,6,2,wolf          ,camel         ,html/resources/sequences_IDs/A/01_wolf.jpg,html/resources/sequences_IDs/A/03_camel.jpg,1,3,1,1,1,1,1,3,0,7,,,,,,,,,,,,,,,,,,,,
,,,,,7,2020-07-01_10h33.22.265,retriever_ti,2020.1.3,Win32,60,Chrome,1536,864,,,,,,,,,,,,,,,,,2,,,,,,,,,,,,,,,,,,,,,,,,,,,816.580525,136,left,0.976155,dolphin     ,5,2,1,1,1,816.61416,816.61416,819.11392,0,58,58,58,1,136,5,4,dolphin     ,calculator    ,html/resources/sequences_IDs/B/02_dolphin.jpg,html/resources/sequences_IDs/A/09_calculator.jpg,2,9,1,1,4,2,2,7,0,7,,,,,,,,,,,,,,,,,,,,
,,,,,7,2020-07-01_10h33.22.265,retriever_ti,2020.1.3,Win32,60,Chrome,1536,864,,,,,,,,,,,,,,,,,2,,,,,,,,,,,,,,,,,,,,,,,,,,,820.214675,137,right,0.90195,dolphin     ,5,2,-1,0,0,820.231805,820.231805,822.730405,0,59,59,59,1,137,6,5,wolf          ,dolphin     ,html/resources/sequences_IDs/A/01_wolf.jpg,html/resources/sequences_IDs/B/02_dolphin.jpg,1,2,1,1,1,1,1,2,0,7,,,,,,,,,,,,,,,,,,,,
,,,,,7,2020-07-01_10h33.22.265,retriever_ti,2020.1.3,Win32,60,Chrome,1536,864,,,,,,,,,,,,,,,,,2,,,,,,,,,,,,,,,,,,,,,,,,,,,823.831055,138,right,0.882075,hat           ,8,8,1,1,0,823.864765,823.864765,826.36397,0,60,60,60,1,138,7,8,gloves      ,hat           ,html/resources/sequences_IDs/B/06_gloves.jpg,html/resources/sequences_IDs/A/08_hat.jpg,6,8,3,2,3,2,5,6,1,7,,,,,,,,,,,,,,,,,,,,
,,,,,7,2020-07-01_10h33.22.265,retriever_ti,2020.1.3,Win32,60,Chrome,1536,864,,,,,,,,,,,,,,,,,2,,,,,,,,,,,,,,,,,,,,,,,,,,,827.46465,139,left,1.059765,camel         ,2,3,-1,0,0,827.49795,827.49795,829.99772,0,61,61,61,1,139,2,3,camel         ,radio       ,html/resources/sequences_IDs/A/03_camel.jpg,html/resources/sequences_IDs/B/10_radio.jpg,3,10,1,1,4,2,3,8,0,7,,,,,,,,,,,,,,,,,,,,
,,,,,7,2020-07-01_10h33.22.265,retriever_ti,2020.1.3,Win32,60,Chrome,1536,864,,,,,,,,,,,,,,,,,2,,,,,,,,,,,,,,,,,,,,,,,,,,,831.09863,140,left,1.18546,gloves      ,7,6,1,1,1,831.13332,831.13332,833.630865,0,62,62,62,1,140,7,6,gloves      ,wolf          ,html/resources/sequences_IDs/B/06_gloves.jpg,html/resources/sequences_IDs/A/01_wolf.jpg,6,1,3,2,1,1,5,1,0,7,,,,,,,,,,,,,,,,,,,,
,,,,,7,2020-07-01_10h33.22.265,retriever_ti,2020.1.3,Win32,60,Chrome,1536,864,,,,,,,,,,,,,,,,,2,,,,,,,,,,,,,,,,,,,,,,,,,,,834.732015,141,left,1.00859,gloves      ,7,6,6,1,3,834.74856,834.74856,837.24843,0,63,63,63,1,141,7,1,gloves      ,holdfast    ,html/resources/sequences_IDs/B/06_gloves.jpg,html/resources/sequences_IDs/B/04_holdfast.jpg,6,4,3,2,2,1,5,4,0,7,,,,,,,,,,,,,,,,,,,,
,,,,,7,2020-07-01_10h33.22.265,retriever_ti,2020.1.3,Win32,60,Chrome,1536,864,,,,,,,,,,,,,,,,,2,,,,,,,,,,,,,,,,,,,,,,,,,,,837.86661,142,left,0.779725,calculator    ,4,9,1,1,1,837.88338,837.88338,840.381915,0,64,64,64,1,142,4,3,calculator    ,radio       ,html/resources/sequences_IDs/A/09_calculator.jpg,html/resources/sequences_IDs/B/10_radio.jpg,9,10,4,2,4,2,7,8,0,7,,,,,,,,,,,,,,,,,,,,
,,,,,7,2020-07-01_10h33.22.265,retriever_ti,2020.1.3,Win32,60,Chrome,1536,864,,,,,,,,,,,,,,,,,2,,,,,,,,,,,,,,,,,,,,,,,,,,,841.48217,143,left,0.768855,dolphin     ,5,2,1,1,0,841.516145,841.516145,844.014925,0,65,65,65,1,143,5,4,dolphin     ,calculator    ,html/resources/sequences_IDs/B/02_dolphin.jpg,html/resources/sequences_IDs/A/09_calculator.jpg,2,9,1,1,4,2,2,7,1,7,,,,,,,,,,,,,,,,,,,,
,,,,,7,2020-07-01_10h33.22.265,retriever_ti,2020.1.3,Win32,60,Chrome,1536,864,,,,,,,,,,,,,,,,,2,,,,,,,,,,,,,,,,,,,,,,,,,,,845.11545,144,left,0.724565,camel         ,2,3,-1,0,1,845.13236,845.13236,847.631795,0,66,66,66,1,144,2,3,camel         ,radio       ,html/resources/sequences_IDs/A/03_camel.jpg,html/resources/sequences_IDs/B/10_radio.jpg,3,10,1,1,4,2,3,8,1,7,,,,,,,,,,,,,,,,,,,,
,,,,,7,2020-07-01_10h33.22.265,retriever_ti,2020.1.3,Win32,60,Chrome,1536,864,,,,,,,,,,,,,,,,,2,,,,,,,,,,,,,,,,,,,,,,,,,,,848.732635,145,left,0.9621,calculator    ,4,9,-1,0,0,848.76652,848.76652,851.265085,0,67,67,67,1,145,4,5,calculator    ,dolphin     ,html/resources/sequences_IDs/A/09_calculator.jpg,html/resources/sequences_IDs/B/02_dolphin.jpg,9,2,4,2,1,1,7,2,0,7,,,,,,,,,,,,,,,,,,,,
,,,,,7,2020-07-01_10h33.22.265,retriever_ti,2020.1.3,Win32,60,Chrome,1536,864,,,,,,,,,,,,,,,,,2,,,,,,,,,,,,,,,,,,,,,,,,,,,852.365595,146,left,1.209235,camel         ,2,3,1,1,0,852.399375,852.399375,854.89853,0,68,68,68,1,146,2,1,camel         ,holdfast    ,html/resources/sequences_IDs/A/03_camel.jpg,html/resources/sequences_IDs/B/04_holdfast.jpg,3,4,1,1,2,1,3,4,1,7,,,,,,,,,,,,,,,,,,,,
,,,,,7,2020-07-01_10h33.22.265,retriever_ti,2020.1.3,Win32,60,Chrome,1536,864,,,,,,,,,,,,,,,,,2,,,,,,,,,,,,,,,,,,,,,,,,,,,855.999035,147,right,0.810035,dolphin     ,5,2,-3,0,3,856.03288,856.03288,858.531915,0,69,69,69,1,147,8,5,hat           ,dolphin     ,html/resources/sequences_IDs/A/08_hat.jpg,html/resources/sequences_IDs/B/02_dolphin.jpg,8,2,3,2,1,1,6,2,0,7,,,,,,,,,,,,,,,,,,,,
,,,,,7,2020-07-01_10h33.22.265,retriever_ti,2020.1.3,Win32,60,Chrome,1536,864,,,,,,,,,,,,,,,,,2,,,,,,,,,,,,,,,,,,,,,,,,,,,859.13336,148,right,0.88038,dolphin     ,5,2,1,1,1,859.15108,859.15108,861.649145,0,70,70,70,1,148,4,5,calculator    ,dolphin     ,html/resources/sequences_IDs/A/09_calculator.jpg,html/resources/sequences_IDs/B/02_dolphin.jpg,9,2,4,2,1,1,7,2,0,7,,,,,,,,,,,,,,,,,,,,
,,,,,7,2020-07-01_10h33.22.265,retriever_ti,2020.1.3,Win32,60,Chrome,1536,864,,,,,,,,,,,,,,,,,2,,,,,,,,,,,,,,,,,,,,,,,,,,,862.751055,149,right,0.718575,radio       ,3,10,-1,0,1,862.768155,862.768155,865.26557,0,71,71,71,1,149,4,3,calculator    ,radio       ,html/resources/sequences_IDs/A/09_calculator.jpg,html/resources/sequences_IDs/B/10_radio.jpg,9,10,4,2,4,2,7,8,1,7,,,,,,,,,,,,,,,,,,,,
,,,,,7,2020-07-01_10h33.22.265,retriever_ti,2020.1.3,Win32,60,Chrome,1536,864,,,,,,,,,,,,,,,,,2,,,,,,,,,,,,,,,,,,,,,,,,,,,866.36783,150,left,0.714045,camel         ,2,3,-5,0,3,866.40167,866.40167,868.899425,0,72,72,72,1,150,2,7,camel         ,gloves      ,html/resources/sequences_IDs/A/03_camel.jpg,html/resources/sequences_IDs/B/06_gloves.jpg,3,6,1,1,3,2,3,5,0,7,,,,,,,,,,,,,,,,,,,,
,,,,,7,2020-07-01_10h33.22.265,retriever_ti,2020.1.3,Win32,60,Chrome,1536,864,,,,,,,,,,,,,,,,,2,,,,,,,,,,,,,,,,,,,,,,,,,,,869.51679,151,left,0.64833,wolf          ,6,1,5,1,3,869.550195,869.550195,872.049395,0,73,73,73,1,151,6,1,wolf          ,holdfast    ,html/resources/sequences_IDs/A/01_wolf.jpg,html/resources/sequences_IDs/B/04_holdfast.jpg,1,4,1,1,2,1,1,4,0,7,,,,,,,,,,,,,,,,,,,,
,,,,,7,2020-07-01_10h33.22.265,retriever_ti,2020.1.3,Win32,60,Chrome,1536,864,,,,,,,,,,,,,,,,,2,,,,,,,,,,,,,,,,,,,,,,,,,,,872.666225,152,left,0.85003,radio       ,3,10,-5,0,3,872.683385,872.683385,875.183285,0,74,74,74,1,152,3,8,radio       ,hat           ,html/resources/sequences_IDs/B/10_radio.jpg,html/resources/sequences_IDs/A/08_hat.jpg,10,8,4,2,3,2,8,6,0,7,,,,,,,,,,,,,,,,,,,,
,,,,,7,2020-07-01_10h33.22.265,retriever_ti,2020.1.3,Win32,60,Chrome,1536,864,,,,,,,,,,,,,,,,,2,,,,,,,,,,,,,,,,,,,,,,,,,,,875.801435,153,right,0.766645,calculator    ,4,9,-2,0,3,875.834935,875.834935,878.332825,0,75,75,75,1,153,6,4,wolf          ,calculator    ,html/resources/sequences_IDs/A/01_wolf.jpg,html/resources/sequences_IDs/A/09_calculator.jpg,1,9,1,1,4,2,1,7,0,7,,,,,,,,,,,,,,,,,,,,
,,,,,7,2020-07-01_10h33.22.265,retriever_ti,2020.1.3,Win32,60,Chrome,1536,864,,,,,,,,,,,,,,,,,2,,,,,,,,,,,,,,,,,,,,,,,,,,,878.93415,154,left,0.718415,hat           ,8,8,6,1,3,878.968635,878.968635,881.466815,0,76,76,76,1,154,8,2,hat           ,camel         ,html/resources/sequences_IDs/A/08_hat.jpg,html/resources/sequences_IDs/A/03_camel.jpg,8,3,3,2,1,1,6,3,0,7,,,,,,,,,,,,,,,,,,,,
,,,,,7,2020-07-01_10h33.22.265,retriever_ti,2020.1.3,Win32,60,Chrome,1536,864,,,,,,,,,,,,,,,,,,,,,,,,,,,,,,,,,,,,,1,3.52034,,,,,,,,,,,,,,,,,,,,,,,,,,,,,,,,,,,,,,,,,1,0,1,0,1,,,,,,,,,,,,,,,
,,,,,7,2020-07-01_10h33.22.265,retriever_ti,2020.1.3,Win32,60,Chrome,1536,864,,,,,,,,,,,,,,,,,3,,,,,,,,,,,,,,,,,,,,,,,,,,,896.46819,155,left,0.854135,camel         ,2,3,-1,0,0,896.4844,896.4844,898.984325,0,0,0,0,1,155,2,3,camel         ,radio       ,html/resources/sequences_IDs/A/03_camel.jpg,html/resources/sequences_IDs/B/10_radio.jpg,3,10,1,1,4,2,3,8,0,7,,,,,,,,,,,,,,,,,,,,
,,,,,7,2020-07-01_10h33.22.265,retriever_ti,2020.1.3,Win32,60,Chrome,1536,864,,,,,,,,,,,,,,,,,3,,,,,,,,,,,,,,,,,,,,,,,,,,,900.08573,156,left,0.758575,camel         ,2,3,-3,0,3,900.119115,900.119115,902.617305,0,1,1,1,1,156,2,5,camel         ,dolphin     ,html/resources/sequences_IDs/A/03_camel.jpg,html/resources/sequences_IDs/B/02_dolphin.jpg,3,2,1,1,1,1,3,2,0,7,,,,,,,,,,,,,,,,,,,,
,,,,,7,2020-07-01_10h33.22.265,retriever_ti,2020.1.3,Win32,60,Chrome,1536,864,,,,,,,,,,,,,,,,,3,,,,,,,,,,,,,,,,,,,,,,,,,,,903.23478,157,right,0.93968,calculator    ,4,9,-1,0,0,903.268,903.268,905.76734,0,2,2,2,1,157,5,4,dolphin     ,calculator    ,html/resources/sequences_IDs/B/02_dolphin.jpg,html/resources/sequences_IDs/A/09_calculator.jpg,2,9,1,1,4,2,2,7,0,7,,,,,,,,,,,,,,,,,,,,
,,,,,7,2020-07-01_10h33.22.265,retriever_ti,2020.1.3,Win32,60,Chrome,1536,864,,,,,,,,,,,,,,,,,3,,,,,,,,,,,,,,,,,,,,,,,,,,,906.86802,158,right,0.722325,hat           ,8,8,5,1,3,906.90157,906.90157,909.40081,0,3,3,3,1,158,3,8,radio       ,hat           ,html/resources/sequences_IDs/B/10_radio.jpg,html/resources/sequences_IDs/A/08_hat.jpg,10,8,4,2,3,2,8,6,0,7,,,,,,,,,,,,,,,,,,,,
,,,,,7,2020-07-01_10h33.22.265,retriever_ti,2020.1.3,Win32,60,Chrome,1536,864,,,,,,,,,,,,,,,,,3,,,,,,,,,,,,,,,,,,,,,,,,,,,910.003025,159,left,1.22644,calculator    ,4,9,-4,0,3,910.036745,910.036745,912.53445,0,4,4,4,1,159,4,8,calculator    ,hat           ,html/resources/sequences_IDs/A/09_calculator.jpg,html/resources/sequences_IDs/A/08_hat.jpg,9,8,4,2,3,2,7,6,0,7,,,,,,,,,,,,,,,,,,,,
,,,,,7,2020-07-01_10h33.22.265,retriever_ti,2020.1.3,Win32,60,Chrome,1536,864,,,,,,,,,,,,,,,,,3,,,,,,,,,,,,,,,,,,,,,,,,,,,913.15138,160,right,0.343185,gloves      ,7,6,2,1,3,913.16864,913.16864,915.667665,0,5,5,5,1,160,5,7,dolphin     ,gloves      ,html/resources/sequences_IDs/B/02_dolphin.jpg,html/resources/sequences_IDs/B/06_gloves.jpg,2,6,1,1,3,2,2,5,0,7,,,,,,,,,,,,,,,,,,,,
,,,,,7,2020-07-01_10h33.22.265,retriever_ti,2020.1.3,Win32,60,Chrome,1536,864,,,,,,,,,,,,,,,,,3,,,,,,,,,,,,,,,,,,,,,,,,,,,916.27014,161,right,0.415555,holdfast    ,1,4,-1,0,0,916.30351,916.30351,918.801545,0,6,6,6,1,161,2,1,camel         ,holdfast    ,html/resources/sequences_IDs/A/03_camel.jpg,html/resources/sequences_IDs/B/04_holdfast.jpg,3,4,1,1,2,1,3,4,0,7,,,,,,,,,,,,,,,,,,,,
,,,,,7,2020-07-01_10h33.22.265,retriever_ti,2020.1.3,Win32,60,Chrome,1536,864,,,,,,,,,,,,,,,,,3,,,,,,,,,,,,,,,,,,,,,,,,,,,919.903445,162,left,0.64258,dolphin     ,5,2,-3,0,3,919.92039,919.92039,922.4186,0,7,7,7,1,162,5,8,dolphin     ,hat           ,html/resources/sequences_IDs/B/02_dolphin.jpg,html/resources/sequences_IDs/A/08_hat.jpg,2,8,1,1,3,2,2,6,0,7,,,,,,,,,,,,,,,,,,,,
,,,,,7,2020-07-01_10h33.22.265,retriever_ti,2020.1.3,Win32,60,Chrome,1536,864,,,,,,,,,,,,,,,,,3,,,,,,,,,,,,,,,,,,,,,,,,,,,923.03538,163,left,0.801695,hat           ,8,8,5,1,3,923.06953,923.06953,925.56837,0,8,8,8,1,163,8,3,hat           ,radio       ,html/resources/sequences_IDs/A/08_hat.jpg,html/resources/sequences_IDs/B/10_radio.jpg,8,10,3,2,4,2,6,8,0,7,,,,,,,,,,,,,,,,,,,,
,,,,,7,2020-07-01_10h33.22.265,retriever_ti,2020.1.3,Win32,60,Chrome,1536,864,,,,,,,,,,,,,,,,,3,,,,,,,,,,,,,,,,,,,,,,,,,,,926.17055,164,left,0.49615,hat           ,8,8,3,1,3,926.203945,926.203945,928.701625,0,9,9,9,1,164,8,5,hat           ,dolphin     ,html/resources/sequences_IDs/A/08_hat.jpg,html/resources/sequences_IDs/B/02_dolphin.jpg,8,2,3,2,1,1,6,2,0,7,,,,,,,,,,,,,,,,,,,,
,,,,,7,2020-07-01_10h33.22.265,retriever_ti,2020.1.3,Win32,60,Chrome,1536,864,,,,,,,,,,,,,,,,,3,,,,,,,,,,,,,,,,,,,,,,,,,,,929.302095,165,left,0.69682,dolphin     ,5,2,1,1,0,929.335965,929.335965,931.835345,0,10,10,10,1,165,5,4,dolphin     ,calculator    ,html/resources/sequences_IDs/B/02_dolphin.jpg,html/resources/sequences_IDs/A/09_calculator.jpg,2,9,1,1,4,2,2,7,1,7,,,,,,,,,,,,,,,,,,,,
,,,,,7,2020-07-01_10h33.22.265,retriever_ti,2020.1.3,Win32,60,Chrome,1536,864,,,,,,,,,,,,,,,,,3,,,,,,,,,,,,,,,,,,,,,,,,,,,932.936285,166,left,0.88142,dolphin     ,5,2,-1,0,0,932.97,932.97,935.46855,0,11,11,11,1,166,5,6,dolphin     ,wolf          ,html/resources/sequences_IDs/B/02_dolphin.jpg,html/resources/sequences_IDs/A/01_wolf.jpg,2,1,1,1,1,1,2,1,0,7,,,,,,,,,,,,,,,,,,,,
,,,,,7,2020-07-01_10h33.22.265,retriever_ti,2020.1.3,Win32,60,Chrome,1536,864,,,,,,,,,,,,,,,,,3,,,,,,,,,,,,,,,,,,,,,,,,,,,936.57118,167,right,0.895735,radio       ,3,10,2,1,3,936.588555,936.588555,939.085735,0,12,12,12,1,167,1,3,holdfast    ,radio       ,html/resources/sequences_IDs/B/04_holdfast.jpg,html/resources/sequences_IDs/B/10_radio.jpg,4,10,2,1,4,2,4,8,0,7,,,,,,,,,,,,,,,,,,,,
,,,,,7,2020-07-01_10h33.22.265,retriever_ti,2020.1.3,Win32,60,Chrome,1536,864,,,,,,,,,,,,,,,,,3,,,,,,,,,,,,,,,,,,,,,,,,,,,939.687515,168,left,1.295665,holdfast    ,1,4,-1,0,0,939.721465,939.721465,942.218925,0,13,13,13,1,168,1,2,holdfast    ,camel         ,html/resources/sequences_IDs/B/04_holdfast.jpg,html/resources/sequences_IDs/A/03_camel.jpg,4,3,2,1,1,1,4,3,0,7,,,,,,,,,,,,,,,,,,,,
,,,,,7,2020-07-01_10h33.22.265,retriever_ti,2020.1.3,Win32,60,Chrome,1536,864,,,,,,,,,,,,,,,,,3,,,,,,,,,,,,,,,,,,,,,,,,,,,943.320095,169,left,0.565615,calculator    ,4,9,-1,0,0,943.337905,943.337905,945.835755,0,14,14,14,1,169,4,5,calculator    ,dolphin     ,html/resources/sequences_IDs/A/09_calculator.jpg,html/resources/sequences_IDs/B/02_dolphin.jpg,9,2,4,2,1,1,7,2,0,7,,,,,,,,,,,,,,,,,,,,
,,,,,7,2020-07-01_10h33.22.265,retriever_ti,2020.1.3,Win32,60,Chrome,1536,864,,,,,,,,,,,,,,,,,3,,,,,,,,,,,,,,,,,,,,,,,,,,,946.93649,170,right,0.891475,camel         ,2,3,1,1,1,946.953655,946.953655,949.452805,0,15,15,15,1,170,1,2,holdfast    ,camel         ,html/resources/sequences_IDs/B/04_holdfast.jpg,html/resources/sequences_IDs/A/03_camel.jpg,4,3,2,1,1,1,4,3,0,7,,,,,,,,,,,,,,,,,,,,
,,,,,7,2020-07-01_10h33.22.265,retriever_ti,2020.1.3,Win32,60,Chrome,1536,864,,,,,,,,,,,,,,,,,3,,,,,,,,,,,,,,,,,,,,,,,,,,,950.55309,171,right,0.968145,dolphin     ,5,2,4,1,3,950.58647,950.58647,953.08603,0,16,16,16,1,171,1,5,holdfast    ,dolphin     ,html/resources/sequences_IDs/B/04_holdfast.jpg,html/resources/sequences_IDs/B/02_dolphin.jpg,4,2,2,1,1,1,4,2,0,7,,,,,,,,,,,,,,,,,,,,
,,,,,7,2020-07-01_10h33.22.265,retriever_ti,2020.1.3,Win32,60,Chrome,1536,864,,,,,,,,,,,,,,,,,3,,,,,,,,,,,,,,,,,,,,,,,,,,,953.70329,172,left,0.932055,camel         ,2,3,-1,0,1,953.738035,953.738035,956.236465,0,17,17,17,1,172,2,3,camel         ,radio       ,html/resources/sequences_IDs/A/03_camel.jpg,html/resources/sequences_IDs/B/10_radio.jpg,3,10,1,1,4,2,3,8,1,7,,,,,,,,,,,,,,,,,,,,
,,,,,7,2020-07-01_10h33.22.265,retriever_ti,2020.1.3,Win32,60,Chrome,1536,864,,,,,,,,,,,,,,,,,3,,,,,,,,,,,,,,,,,,,,,,,,,,,957.337425,173,left,0.714375,hat           ,8,8,1,1,1,957.3552,957.3552,959.853235,0,18,18,18,1,173,8,7,hat           ,gloves      ,html/resources/sequences_IDs/A/08_hat.jpg,html/resources/sequences_IDs/B/06_gloves.jpg,8,6,3,2,3,2,6,5,0,7,,,,,,,,,,,,,,,,,,,,
,,,,,7,2020-07-01_10h33.22.265,retriever_ti,2020.1.3,Win32,60,Chrome,1536,864,,,,,,,,,,,,,,,,,3,,,,,,,,,,,,,,,,,,,,,,,,,,,960.95385,174,left,0.693425,wolf          ,6,1,1,1,1,960.970645,960.970645,963.470395,0,19,19,19,1,174,6,5,wolf          ,dolphin     ,html/resources/sequences_IDs/A/01_wolf.jpg,html/resources/sequences_IDs/B/02_dolphin.jpg,1,2,1,1,1,1,1,2,0,7,,,,,,,,,,,,,,,,,,,,
,,,,,7,2020-07-01_10h33.22.265,retriever_ti,2020.1.3,Win32,60,Chrome,1536,864,,,,,,,,,,,,,,,,,3,,,,,,,,,,,,,,,,,,,,,,,,,,,964.572575,175,right,0.645275,wolf          ,6,1,1,1,1,964.60691,964.60691,967.10388,0,20,20,20,1,175,5,6,dolphin     ,wolf          ,html/resources/sequences_IDs/B/02_dolphin.jpg,html/resources/sequences_IDs/A/01_wolf.jpg,2,1,1,1,1,1,2,1,0,7,,,,,,,,,,,,,,,,,,,,
,,,,,7,2020-07-01_10h33.22.265,retriever_ti,2020.1.3,Win32,60,Chrome,1536,864,,,,,,,,,,,,,,,,,3,,,,,,,,,,,,,,,,,,,,,,,,,,,968.20416,176,left,0.644115,hat           ,8,8,6,1,3,968.23872,968.23872,970.737085,0,21,21,21,1,176,8,2,hat           ,camel         ,html/resources/sequences_IDs/A/08_hat.jpg,html/resources/sequences_IDs/A/03_camel.jpg,8,3,3,2,1,1,6,3,0,7,,,,,,,,,,,,,,,,,,,,
,,,,,7,2020-07-01_10h33.22.265,retriever_ti,2020.1.3,Win32,60,Chrome,1536,864,,,,,,,,,,,,,,,,,3,,,,,,,,,,,,,,,,,,,,,,,,,,,971.33811,177,left,0.613285,dolphin     ,5,2,1,1,1,971.3562,971.3562,973.8541,0,22,22,22,1,177,5,4,dolphin     ,calculator    ,html/resources/sequences_IDs/B/02_dolphin.jpg,html/resources/sequences_IDs/A/09_calculator.jpg,2,9,1,1,4,2,2,7,0,7,,,,,,,,,,,,,,,,,,,,
,,,,,7,2020-07-01_10h33.22.265,retriever_ti,2020.1.3,Win32,60,Chrome,1536,864,,,,,,,,,,,,,,,,,3,,,,,,,,,,,,,,,,,,,,,,,,,,,974.95566,178,left,0.8391,wolf          ,6,1,2,1,3,974.989255,974.989255,977.48747,0,23,23,23,1,178,6,4,wolf          ,calculator    ,html/resources/sequences_IDs/A/01_wolf.jpg,html/resources/sequences_IDs/A/09_calculator.jpg,1,9,1,1,4,2,1,7,0,7,,,,,,,,,,,,,,,,,,,,
,,,,,7,2020-07-01_10h33.22.265,retriever_ti,2020.1.3,Win32,60,Chrome,1536,864,,,,,,,,,,,,,,,,,3,,,,,,,,,,,,,,,,,,,,,,,,,,,978.104675,179,left,0.79914,wolf          ,6,1,3,1,3,978.139495,978.139495,980.637235,0,24,24,24,1,179,6,3,wolf          ,radio       ,html/resources/sequences_IDs/A/01_wolf.jpg,html/resources/sequences_IDs/B/10_radio.jpg,1,10,1,1,4,2,1,8,0,7,,,,,,,,,,,,,,,,,,,,
,,,,,7,2020-07-01_10h33.22.265,retriever_ti,2020.1.3,Win32,60,Chrome,1536,864,,,,,,,,,,,,,,,,,3,,,,,,,,,,,,,,,,,,,,,,,,,,,981.237635,180,right,1.35279,wolf          ,6,1,2,1,3,981.271375,981.271375,983.77065,0,25,25,25,1,180,4,6,calculator    ,wolf          ,html/resources/sequences_IDs/A/09_calculator.jpg,html/resources/sequences_IDs/A/01_wolf.jpg,9,1,4,2,1,1,7,1,0,7,,,,,,,,,,,,,,,,,,,,
,,,,,7,2020-07-01_10h33.22.265,retriever_ti,2020.1.3,Win32,60,Chrome,1536,864,,,,,,,,,,,,,,,,,3,,,,,,,,,,,,,,,,,,,,,,,,,,,984.37317,181,left,0.92464,calculator    ,4,9,1,1,1,984.39002,984.39002,986.88816,0,26,26,26,1,181,4,3,calculator    ,radio       ,html/resources/sequences_IDs/A/09_calculator.jpg,html/resources/sequences_IDs/B/10_radio.jpg,9,10,4,2,4,2,7,8,0,7,,,,,,,,,,,,,,,,,,,,
,,,,,7,2020-07-01_10h33.22.265,retriever_ti,2020.1.3,Win32,60,Chrome,1536,864,,,,,,,,,,,,,,,,,3,,,,,,,,,,,,,,,,,,,,,,,,,,,987.99018,182,right,0.9552,gloves      ,7,6,1,1,1,988.023315,988.023315,990.52159,0,27,27,27,1,182,6,7,wolf          ,gloves      ,html/resources/sequences_IDs/A/01_wolf.jpg,html/resources/sequences_IDs/B/06_gloves.jpg,1,6,1,1,3,2,1,5,0,7,,,,,,,,,,,,,,,,,,,,
,,,,,7,2020-07-01_10h33.22.265,retriever_ti,2020.1.3,Win32,60,Chrome,1536,864,,,,,,,,,,,,,,,,,3,,,,,,,,,,,,,,,,,,,,,,,,,,,991.622675,183,left,1.00071,gloves      ,7,6,6,1,3,991.65604,991.65604,994.15503,0,28,28,28,1,183,7,1,gloves      ,holdfast    ,html/resources/sequences_IDs/B/06_gloves.jpg,html/resources/sequences_IDs/B/04_holdfast.jpg,6,4,3,2,2,1,5,4,0,7,,,,,,,,,,,,,,,,,,,,
,,,,,7,2020-07-01_10h33.22.265,retriever_ti,2020.1.3,Win32,60,Chrome,1536,864,,,,,,,,,,,,,,,,,3,,,,,,,,,,,,,,,,,,,,,,,,,,,994.77243,184,left,0.718465,gloves      ,7,6,5,1,3,994.806925,994.806925,997.30506,0,29,29,29,1,184,7,2,gloves      ,camel         ,html/resources/sequences_IDs/B/06_gloves.jpg,html/resources/sequences_IDs/A/03_camel.jpg,6,3,3,2,1,1,5,3,0,7,,,,,,,,,,,,,,,,,,,,
,,,,,7,2020-07-01_10h33.22.265,retriever_ti,2020.1.3,Win32,60,Chrome,1536,864,,,,,,,,,,,,,,,,,3,,,,,,,,,,,,,,,,,,,,,,,,,,,997.92213,185,right,0.994,gloves      ,7,6,4,1,3,997.955865,997.955865,1000.4553,0,30,30,30,1,185,3,7,radio       ,gloves      ,html/resources/sequences_IDs/B/10_radio.jpg,html/resources/sequences_IDs/B/06_gloves.jpg,10,6,4,2,3,2,8,5,0,7,,,,,,,,,,,,,,,,,,,,
,,,,,7,2020-07-01_10h33.22.265,retriever_ti,2020.1.3,Win32,60,Chrome,1536,864,,,,,,,,,,,,,,,,,3,,,,,,,,,,,,,,,,,,,,,,,,,,,1001.05628,186,left,1.59174,holdfast    ,1,4,-7,0,3,1001.08944,1001.08944,1003.588525,0,31,31,31,1,186,1,8,holdfast    ,hat           ,html/resources/sequences_IDs/B/04_holdfast.jpg,html/resources/sequences_IDs/A/08_hat.jpg,4,8,2,1,3,2,4,6,0,7,,,,,,,,,,,,,,,,,,,,
,,,,,7,2020-07-01_10h33.22.265,retriever_ti,2020.1.3,Win32,60,Chrome,1536,864,,,,,,,,,,,,,,,,,3,,,,,,,,,,,,,,,,,,,,,,,,,,,1004.190615,187,left,0.714655,gloves      ,7,6,-1,0,0,1004.22393,1004.22393,1006.72189,0,32,32,32,1,187,7,8,gloves      ,hat           ,html/resources/sequences_IDs/B/06_gloves.jpg,html/resources/sequences_IDs/A/08_hat.jpg,6,8,3,2,3,2,5,6,0,7,,,,,,,,,,,,,,,,,,,,
,,,,,7,2020-07-01_10h33.22.265,retriever_ti,2020.1.3,Win32,60,Chrome,1536,864,,,,,,,,,,,,,,,,,3,,,,,,,,,,,,,,,,,,,,,,,,,,,1007.823455,188,right,1.203385,holdfast    ,1,4,-3,0,3,1007.840045,1007.840045,1010.338975,0,33,33,33,1,188,4,1,calculator    ,holdfast    ,html/resources/sequences_IDs/A/09_calculator.jpg,html/resources/sequences_IDs/B/04_holdfast.jpg,9,4,4,2,2,1,7,4,0,7,,,,,,,,,,,,,,,,,,,,
,,,,,7,2020-07-01_10h33.22.265,retriever_ti,2020.1.3,Win32,60,Chrome,1536,864,,,,,,,,,,,,,,,,,3,,,,,,,,,,,,,,,,,,,,,,,,,,,1010.93987,189,right,1.175375,holdfast    ,1,4,-4,0,3,1010.95775,1010.95775,1013.45584,0,34,34,34,1,189,5,1,dolphin     ,holdfast    ,html/resources/sequences_IDs/B/02_dolphin.jpg,html/resources/sequences_IDs/B/04_holdfast.jpg,2,4,1,1,2,1,2,4,0,7,,,,,,,,,,,,,,,,,,,,
,,,,,7,2020-07-01_10h33.22.265,retriever_ti,2020.1.3,Win32,60,Chrome,1536,864,,,,,,,,,,,,,,,,,3,,,,,,,,,,,,,,,,,,,,,,,,,,,1014.0744,190,right,0.705,gloves      ,7,6,3,1,3,1014.09108,1014.09108,1016.588685,0,35,35,35,1,190,4,7,calculator    ,gloves      ,html/resources/sequences_IDs/A/09_calculator.jpg,html/resources/sequences_IDs/B/06_gloves.jpg,9,6,4,2,3,2,7,5,0,7,,,,,,,,,,,,,,,,,,,,
,,,,,7,2020-07-01_10h33.22.265,retriever_ti,2020.1.3,Win32,60,Chrome,1536,864,,,,,,,,,,,,,,,,,3,,,,,,,,,,,,,,,,,,,,,,,,,,,1017.189525,191,left,0.744725,wolf          ,6,1,1,1,1,1017.206255,1017.206255,1019.705595,0,36,36,36,1,191,6,5,wolf          ,dolphin     ,html/resources/sequences_IDs/A/01_wolf.jpg,html/resources/sequences_IDs/B/02_dolphin.jpg,1,2,1,1,1,1,1,2,0,7,,,,,,,,,,,,,,,,,,,,
,,,,,7,2020-07-01_10h33.22.265,retriever_ti,2020.1.3,Win32,60,Chrome,1536,864,,,,,,,,,,,,,,,,,3,,,,,,,,,,,,,,,,,,,,,,,,,,,1020.80788,192,left,0.713705,calculator    ,4,9,1,1,0,1020.824475,1020.824475,1023.322695,0,37,37,37,1,192,4,3,calculator    ,radio       ,html/resources/sequences_IDs/A/09_calculator.jpg,html/resources/sequences_IDs/B/10_radio.jpg,9,10,4,2,4,2,7,8,1,7,,,,,,,,,,,,,,,,,,,,
,,,,,7,2020-07-01_10h33.22.265,retriever_ti,2020.1.3,Win32,60,Chrome,1536,864,,,,,,,,,,,,,,,,,3,,,,,,,,,,,,,,,,,,,,,,,,,,,1024.424905,193,right,0.631075,radio       ,3,10,-1,0,0,1024.458025,1024.458025,1026.9562,0,38,38,38,1,193,4,3,calculator    ,radio       ,html/resources/sequences_IDs/A/09_calculator.jpg,html/resources/sequences_IDs/B/10_radio.jpg,9,10,4,2,4,2,7,8,0,7,,,,,,,,,,,,,,,,,,,,
,,,,,7,2020-07-01_10h33.22.265,retriever_ti,2020.1.3,Win32,60,Chrome,1536,864,,,,,,,,,,,,,,,,,3,,,,,,,,,,,,,,,,,,,,,,,,,,,1028.05821,194,left,1.28898,wolf          ,6,1,-2,0,3,1028.07485,1028.07485,1030.57342,0,39,39,39,1,194,6,8,wolf          ,hat           ,html/resources/sequences_IDs/A/01_wolf.jpg,html/resources/sequences_IDs/A/08_hat.jpg,1,8,1,1,3,2,1,6,0,7,,,,,,,,,,,,,,,,,,,,
,,,,,7,2020-07-01_10h33.22.265,retriever_ti,2020.1.3,Win32,60,Chrome,1536,864,,,,,,,,,,,,,,,,,3,,,,,,,,,,,,,,,,,,,,,,,,,,,1031.190595,195,right,0.97742,holdfast    ,1,4,-1,0,0,1031.22524,1031.22524,1033.723005,0,40,40,40,1,195,2,1,camel         ,holdfast    ,html/resources/sequences_IDs/A/03_camel.jpg,html/resources/sequences_IDs/B/04_holdfast.jpg,3,4,1,1,2,1,3,4,0,7,,,,,,,,,,,,,,,,,,,,
,,,,,7,2020-07-01_10h33.22.265,retriever_ti,2020.1.3,Win32,60,Chrome,1536,864,,,,,,,,,,,,,,,,,3,,,,,,,,,,,,,,,,,,,,,,,,,,,1034.82532,196,right,0.81673,radio       ,3,10,-2,0,3,1034.85853,1034.85853,1037.35644,0,41,41,41,1,196,5,3,dolphin     ,radio       ,html/resources/sequences_IDs/B/02_dolphin.jpg,html/resources/sequences_IDs/B/10_radio.jpg,2,10,1,1,4,2,2,8,0,7,,,,,,,,,,,,,,,,,,,,
,,,,,7,2020-07-01_10h33.22.265,retriever_ti,2020.1.3,Win32,60,Chrome,1536,864,,,,,,,,,,,,,,,,,3,,,,,,,,,,,,,,,,,,,,,,,,,,,1037.97352,197,left,0.81194,hat           ,8,8,2,1,3,1037.99053,1037.99053,1040.490275,0,42,42,42,1,197,8,6,hat           ,wolf          ,html/resources/sequences_IDs/A/08_hat.jpg,html/resources/sequences_IDs/A/01_wolf.jpg,8,1,3,2,1,1,6,1,0,7,,,,,,,,,,,,,,,,,,,,
,,,,,7,2020-07-01_10h33.22.265,retriever_ti,2020.1.3,Win32,60,Chrome,1536,864,,,,,,,,,,,,,,,,,3,,,,,,,,,,,,,,,,,,,,,,,,,,,1041.10767,198,right,0.873405,gloves      ,7,6,1,1,0,1041.125435,1041.125435,1043.623355,0,43,43,43,1,198,6,7,wolf          ,gloves      ,html/resources/sequences_IDs/A/01_wolf.jpg,html/resources/sequences_IDs/B/06_gloves.jpg,1,6,1,1,3,2,1,5,1,7,,,,,,,,,,,,,,,,,,,,
,,,,,7,2020-07-01_10h33.22.265,retriever_ti,2020.1.3,Win32,60,Chrome,1536,864,,,,,,,,,,,,,,,,,3,,,,,,,,,,,,,,,,,,,,,,,,,,,1044.724035,199,right,1.03878,calculator    ,4,9,1,1,1,1044.740905,1044.740905,1047.240105,0,44,44,44,1,199,3,4,radio       ,calculator    ,html/resources/sequences_IDs/B/10_radio.jpg,html/resources/sequences_IDs/A/09_calculator.jpg,10,9,4,2,4,2,8,7,0,7,,,,,,,,,,,,,,,,,,,,
,,,,,7,2020-07-01_10h33.22.265,retriever_ti,2020.1.3,Win32,60,Chrome,1536,864,,,,,,,,,,,,,,,,,3,,,,,,,,,,,,,,,,,,,,,,,,,,,1048.3407,200,left,0.967555,calculator    ,4,9,2,1,3,1048.35749,1048.35749,1050.856915,0,45,45,45,1,200,4,2,calculator    ,camel         ,html/resources/sequences_IDs/A/09_calculator.jpg,html/resources/sequences_IDs/A/03_camel.jpg,9,3,4,2,1,1,7,3,0,7,,,,,,,,,,,,,,,,,,,,
,,,,,7,2020-07-01_10h33.22.265,retriever_ti,2020.1.3,Win32,60,Chrome,1536,864,,,,,,,,,,,,,,,,,3,,,,,,,,,,,,,,,,,,,,,,,,,,,1051.4739,201,right,0.84765,wolf          ,6,1,3,1,3,1051.492095,1051.492095,1053.9909,0,46,46,46,1,201,3,6,radio       ,wolf          ,html/resources/sequences_IDs/B/10_radio.jpg,html/resources/sequences_IDs/A/01_wolf.jpg,10,1,4,2,1,1,8,1,0,7,,,,,,,,,,,,,,,,,,,,
,,,,,7,2020-07-01_10h33.22.265,retriever_ti,2020.1.3,Win32,60,Chrome,1536,864,,,,,,,,,,,,,,,,,3,,,,,,,,,,,,,,,,,,,,,,,,,,,1054.607395,202,right,0.57891,holdfast    ,1,4,-2,0,3,1054.624385,1054.624385,1057.12425,0,47,47,47,1,202,3,1,radio       ,holdfast    ,html/resources/sequences_IDs/B/10_radio.jpg,html/resources/sequences_IDs/B/04_holdfast.jpg,10,4,4,2,2,1,8,4,0,7,,,,,,,,,,,,,,,,,,,,
,,,,,7,2020-07-01_10h33.22.265,retriever_ti,2020.1.3,Win32,60,Chrome,1536,864,,,,,,,,,,,,,,,,,3,,,,,,,,,,,,,,,,,,,,,,,,,,,1057.741125,203,right,0.75944,camel         ,2,3,-1,0,0,1057.75805,1057.75805,1060.257555,0,48,48,48,1,203,3,2,radio       ,camel         ,html/resources/sequences_IDs/B/10_radio.jpg,html/resources/sequences_IDs/A/03_camel.jpg,10,3,4,2,1,1,8,3,0,7,,,,,,,,,,,,,,,,,,,,
,,,,,7,2020-07-01_10h33.22.265,retriever_ti,2020.1.3,Win32,60,Chrome,1536,864,,,,,,,,,,,,,,,,,3,,,,,,,,,,,,,,,,,,,,,,,,,,,1061.358655,204,left,0.564765,camel         ,2,3,-6,0,3,1061.39324,1061.39324,1063.89142,0,49,49,49,1,204,2,8,camel         ,hat           ,html/resources/sequences_IDs/A/03_camel.jpg,html/resources/sequences_IDs/A/08_hat.jpg,3,8,1,1,3,2,3,6,0,7,,,,,,,,,,,,,,,,,,,,
,,,,,7,2020-07-01_10h33.22.265,retriever_ti,2020.1.3,Win32,60,Chrome,1536,864,,,,,,,,,,,,,,,,,3,,,,,,,,,,,,,,,,,,,,,,,,,,,1064.508705,205,right,0.781045,holdfast    ,1,4,-5,0,3,1064.542235,1064.542235,1067.04097,0,50,50,50,1,205,6,1,wolf          ,holdfast    ,html/resources/sequences_IDs/A/01_wolf.jpg,html/resources/sequences_IDs/B/04_holdfast.jpg,1,4,1,1,2,1,1,4,0,7,,,,,,,,,,,,,,,,,,,,
,,,,,7,2020-07-01_10h33.22.265,retriever_ti,2020.1.3,Win32,60,Chrome,1536,864,,,,,,,,,,,,,,,,,3,,,,,,,,,,,,,,,,,,,,,,,,,,,1067.641775,206,right,0.665865,gloves      ,7,6,6,1,3,1067.675375,1067.675375,1070.17491,0,51,51,51,1,206,1,7,holdfast    ,gloves      ,html/resources/sequences_IDs/B/04_holdfast.jpg,html/resources/sequences_IDs/B/06_gloves.jpg,4,6,2,1,3,2,4,5,0,7,,,,,,,,,,,,,,,,,,,,
,,,,,7,2020-07-01_10h33.22.265,retriever_ti,2020.1.3,Win32,60,Chrome,1536,864,,,,,,,,,,,,,,,,,3,,,,,,,,,,,,,,,,,,,,,,,,,,,1070.791345,207,left,0.711055,wolf          ,6,1,1,1,0,1070.81021,1070.81021,1073.308345,0,52,52,52,1,207,6,5,wolf          ,dolphin     ,html/resources/sequences_IDs/A/01_wolf.jpg,html/resources/sequences_IDs/B/02_dolphin.jpg,1,2,1,1,1,1,1,2,1,7,,,,,,,,,,,,,,,,,,,,
,,,,,7,2020-07-01_10h33.22.265,retriever_ti,2020.1.3,Win32,60,Chrome,1536,864,,,,,,,,,,,,,,,,,3,,,,,,,,,,,,,,,,,,,,,,,,,,,1074.408645,208,left,1.086005,radio       ,3,10,-2,0,3,1074.42542,1074.42542,1076.92453,0,53,53,53,1,208,3,5,radio       ,dolphin     ,html/resources/sequences_IDs/B/10_radio.jpg,html/resources/sequences_IDs/B/02_dolphin.jpg,10,2,4,2,1,1,8,2,0,7,,,,,,,,,,,,,,,,,,,,
,,,,,7,2020-07-01_10h33.22.265,retriever_ti,2020.1.3,Win32,60,Chrome,1536,864,,,,,,,,,,,,,,,,,3,,,,,,,,,,,,,,,,,,,,,,,,,,,1077.526895,209,left,0.95158,holdfast    ,1,4,-5,0,3,1077.543695,1077.543695,1080.04202,0,54,54,54,1,209,1,6,holdfast    ,wolf          ,html/resources/sequences_IDs/B/04_holdfast.jpg,html/resources/sequences_IDs/A/01_wolf.jpg,4,1,2,1,1,1,4,1,0,7,,,,,,,,,,,,,,,,,,,,
,,,,,7,2020-07-01_10h33.22.265,retriever_ti,2020.1.3,Win32,60,Chrome,1536,864,,,,,,,,,,,,,,,,,3,,,,,,,,,,,,,,,,,,,,,,,,,,,1080.658315,210,left,0.698405,hat           ,8,8,1,1,1,1080.675535,1080.675535,1083.17489,0,55,55,55,1,210,8,7,hat           ,gloves      ,html/resources/sequences_IDs/A/08_hat.jpg,html/resources/sequences_IDs/B/06_gloves.jpg,8,6,3,2,3,2,6,5,0,7,,,,,,,,,,,,,,,,,,,,
,,,,,7,2020-07-01_10h33.22.265,retriever_ti,2020.1.3,Win32,60,Chrome,1536,864,,,,,,,,,,,,,,,,,3,,,,,,,,,,,,,,,,,,,,,,,,,,,1084.275915,211,right,0.74608,camel         ,2,3,-3,0,3,1084.29259,1084.29259,1086.791885,0,56,56,56,1,211,5,2,dolphin     ,camel         ,html/resources/sequences_IDs/B/02_dolphin.jpg,html/resources/sequences_IDs/A/03_camel.jpg,2,3,1,1,1,1,2,3,0,7,,,,,,,,,,,,,,,,,,,,
,,,,,7,2020-07-01_10h33.22.265,retriever_ti,2020.1.3,Win32,60,Chrome,1536,864,,,,,,,,,,,,,,,,,3,,,,,,,,,,,,,,,,,,,,,,,,,,,1087.39299,212,left,0.698455,calculator    ,4,9,-1,0,0,1087.42779,1087.42779,1089.92561,0,57,57,57,1,212,4,5,calculator    ,dolphin     ,html/resources/sequences_IDs/A/09_calculator.jpg,html/resources/sequences_IDs/B/02_dolphin.jpg,9,2,4,2,1,1,7,2,0,7,,,,,,,,,,,,,,,,,,,,
,,,,,7,2020-07-01_10h33.22.265,retriever_ti,2020.1.3,Win32,60,Chrome,1536,864,,,,,,,,,,,,,,,,,3,,,,,,,,,,,,,,,,,,,,,,,,,,,1091.02575,213,left,0.60966,hat           ,8,8,7,1,3,1091.04263,1091.04263,1093.542665,0,58,58,58,1,213,8,1,hat           ,holdfast    ,html/resources/sequences_IDs/A/08_hat.jpg,html/resources/sequences_IDs/B/04_holdfast.jpg,8,4,3,2,2,1,6,4,0,7,,,,,,,,,,,,,,,,,,,,
,,,,,7,2020-07-01_10h33.22.265,retriever_ti,2020.1.3,Win32,60,Chrome,1536,864,,,,,,,,,,,,,,,,,3,,,,,,,,,,,,,,,,,,,,,,,,,,,1094.15948,214,left,1.021305,gloves      ,7,6,-1,0,1,1094.176985,1094.176985,1096.675615,0,59,59,59,1,214,7,8,gloves      ,hat           ,html/resources/sequences_IDs/B/06_gloves.jpg,html/resources/sequences_IDs/A/08_hat.jpg,6,8,3,2,3,2,5,6,1,7,,,,,,,,,,,,,,,,,,,,
,,,,,7,2020-07-01_10h33.22.265,retriever_ti,2020.1.3,Win32,60,Chrome,1536,864,,,,,,,,,,,,,,,,,3,,,,,,,,,,,,,,,,,,,,,,,,,,,1097.777625,215,left,0.623375,camel         ,2,3,-4,0,3,1097.811245,1097.811245,1100.3094,0,60,60,60,1,215,2,6,camel         ,wolf          ,html/resources/sequences_IDs/A/03_camel.jpg,html/resources/sequences_IDs/A/01_wolf.jpg,3,1,1,1,1,1,3,1,0,7,,,,,,,,,,,,,,,,,,,,
,,,,,7,2020-07-01_10h33.22.265,retriever_ti,2020.1.3,Win32,60,Chrome,1536,864,,,,,,,,,,,,,,,,,3,,,,,,,,,,,,,,,,,,,,,,,,,,,1100.910615,216,left,0.829055,wolf          ,6,1,4,1,3,1100.928345,1100.928345,1103.42617,0,61,61,61,1,216,6,2,wolf          ,camel         ,html/resources/sequences_IDs/A/01_wolf.jpg,html/resources/sequences_IDs/A/03_camel.jpg,1,3,1,1,1,1,1,3,0,7,,,,,,,,,,,,,,,,,,,,
,,,,,7,2020-07-01_10h33.22.265,retriever_ti,2020.1.3,Win32,60,Chrome,1536,864,,,,,,,,,,,,,,,,,3,,,,,,,,,,,,,,,,,,,,,,,,,,,1104.043295,217,left,0.83837,gloves      ,7,6,4,1,3,1104.060255,1104.060255,1106.559365,0,62,62,62,1,217,7,3,gloves      ,radio       ,html/resources/sequences_IDs/B/06_gloves.jpg,html/resources/sequences_IDs/B/10_radio.jpg,6,10,3,2,4,2,5,8,0,7,,,,,,,,,,,,,,,,,,,,
,,,,,7,2020-07-01_10h33.22.265,retriever_ti,2020.1.3,Win32,60,Chrome,1536,864,,,,,,,,,,,,,,,,,3,,,,,,,,,,,,,,,,,,,,,,,,,,,1107.1605,218,right,0.77775,calculator    ,4,9,1,1,1,1107.19509,1107.19509,1109.69277,0,63,63,63,1,218,3,4,radio       ,calculator    ,html/resources/sequences_IDs/B/10_radio.jpg,html/resources/sequences_IDs/A/09_calculator.jpg,10,9,4,2,4,2,8,7,0,7,,,,,,,,,,,,,,,,,,,,
,,,,,7,2020-07-01_10h33.22.265,retriever_ti,2020.1.3,Win32,60,Chrome,1536,864,,,,,,,,,,,,,,,,,3,,,,,,,,,,,,,,,,,,,,,,,,,,,1110.79419,219,left,0.897915,gloves      ,7,6,2,1,3,1110.82764,1110.82764,1113.326865,0,64,64,64,1,219,7,5,gloves      ,dolphin     ,html/resources/sequences_IDs/B/06_gloves.jpg,html/resources/sequences_IDs/B/02_dolphin.jpg,6,2,3,2,1,1,5,2,0,7,,,,,,,,,,,,,,,,,,,,
,,,,,7,2020-07-01_10h33.22.265,retriever_ti,2020.1.3,Win32,60,Chrome,1536,864,,,,,,,,,,,,,,,,,3,,,,,,,,,,,,,,,,,,,,,,,,,,,1113.943525,220,left,0.754695,camel         ,2,3,-2,0,3,1113.960745,1113.960745,1116.459805,0,65,65,65,1,220,2,4,camel         ,calculator    ,html/resources/sequences_IDs/A/03_camel.jpg,html/resources/sequences_IDs/A/09_calculator.jpg,3,9,1,1,4,2,3,7,0,7,,,,,,,,,,,,,,,,,,,,
,,,,,7,2020-07-01_10h33.22.265,retriever_ti,2020.1.3,Win32,60,Chrome,1536,864,,,,,,,,,,,,,,,,,3,,,,,,,,,,,,,,,,,,,,,,,,,,,1117.06107,221,right,0.623345,wolf          ,6,1,-1,0,0,1117.0789,1117.0789,1119.57684,0,66,66,66,1,221,7,6,gloves      ,wolf          ,html/resources/sequences_IDs/B/06_gloves.jpg,html/resources/sequences_IDs/A/01_wolf.jpg,6,1,3,2,1,1,5,1,0,7,,,,,,,,,,,,,,,,,,,,
,,,,,7,2020-07-01_10h33.22.265,retriever_ti,2020.1.3,Win32,60,Chrome,1536,864,,,,,,,,,,,,,,,,,3,,,,,,,,,,,,,,,,,,,,,,,,,,,1120.677225,222,right,0.71578,camel         ,2,3,-1,0,0,1120.69585,1120.69585,1123.19351,0,67,67,67,1,222,3,2,radio       ,camel         ,html/resources/sequences_IDs/B/10_radio.jpg,html/resources/sequences_IDs/A/03_camel.jpg,10,3,4,2,1,1,8,3,0,7,,,,,,,,,,,,,,,,,,,,
,,,,,7,2020-07-01_10h33.22.265,retriever_ti,2020.1.3,Win32,60,Chrome,1536,864,,,,,,,,,,,,,,,,,3,,,,,,,,,,,,,,,,,,,,,,,,,,,1124.29627,223,left,0.83334,gloves      ,7,6,3,1,3,1124.3292,1124.3292,1126.826885,0,68,68,68,1,223,7,4,gloves      ,calculator    ,html/resources/sequences_IDs/B/06_gloves.jpg,html/resources/sequences_IDs/A/09_calculator.jpg,6,9,3,2,4,2,5,7,0,7,,,,,,,,,,,,,,,,,,,,
,,,,,7,2020-07-01_10h33.22.265,retriever_ti,2020.1.3,Win32,60,Chrome,1536,864,,,,,,,,,,,,,,,,,3,,,,,,,,,,,,,,,,,,,,,,,,,,,1127.427755,224,left,0.855435,camel         ,2,3,-1,0,0,1127.461935,1127.461935,1129.96034,0,69,69,69,1,224,2,3,camel         ,radio       ,html/resources/sequences_IDs/A/03_camel.jpg,html/resources/sequences_IDs/B/10_radio.jpg,3,10,1,1,4,2,3,8,0,7,,,,,,,,,,,,,,,,,,,,
,,,,,7,2020-07-01_10h33.22.265,retriever_ti,2020.1.3,Win32,60,Chrome,1536,864,,,,,,,,,,,,,,,,,3,,,,,,,,,,,,,,,,,,,,,,,,,,,1131.06235,225,right,0.892365,gloves      ,7,6,5,1,3,1131.095005,1131.095005,1133.593785,0,70,70,70,1,225,2,7,camel         ,gloves      ,html/resources/sequences_IDs/A/03_camel.jpg,html/resources/sequences_IDs/B/06_gloves.jpg,3,6,1,1,3,2,3,5,0,7,,,,,,,,,,,,,,,,,,,,
