instructionsLoop.thisRepN,instructionsLoop.thisTrialN,instructionsLoop.thisN,instructionsLoop.thisIndex,instructionsLoop.ran,participant,date,expName,psychopyVersion,OS,frameRate,browser,xResolution,yResolution,fix_onset,tprac,practiceKey.keys,practiceKey.rt,pracitem_chosen_name,acc_practice,P1_onsetPrac,P2_onsetPrac,onsetFeedbPrac,practiceTrials.thisRepN,practiceTrials.thisTrialN,practiceTrials.thisN,practiceTrials.thisIndex,practiceTrials.ran,P1,P2,Block,LocItem1,LocItem2,NameItem1,NameItem2,key_respAC_prac.keys,key_respAC_prac.corr,key_respAC_prac.rt,AC_acc,Attentions.thisRepN,Attentions.thisTrialN,Attentions.thisN,Attentions.thisIndex,Attentions.ran,Stim,Loc1,Loc2,Loc3,Loc4,CorrAns,keyDisturbed.keys,keyDisturbed.rt,repPractice.thisRepN,repPractice.thisTrialN,repPractice.thisN,repPractice.thisIndex,repPractice.ran,fixcross_onsetMain,trialNumber,key_resp.keys,key_resp.rt,item_chosen_name,item_chosen_value,item_chosen_ID,diff_chosen_minus_reject,acc_real,acc_feedback,P1_onset,P2_onset,feedb_onset,trials.thisRepN,trials.thisTrialN,trials.thisN,trials.thisIndex,trials.ran,Trial,ValueP1,ValueP2,P1name,P2name,P1Loc,P2Loc,P1id,P2id,Micro_categoryP1,Macro_categoryP1,Micro_categoryP2,Macro_categoryP2,ID_sequenceP1,ID_sequenceP2,InverseFb,pNumber,repBlocks.thisRepN,repBlocks.thisTrialN,repBlocks.thisN,repBlocks.thisIndex,repBlocks.ran,key_respAC.keys,key_respAC.corr,key_respAC.rt,trials_AC.thisRepN,trials_AC.thisTrialN,trials_AC.thisN,trials_AC.thisIndex,trials_AC.ran,Bonus,BonusLoop.thisRepN,BonusLoop.thisTrialN,BonusLoop.thisN,BonusLoop.thisIndex,BonusLoop.ran,comments
0,0,0,0,1,7,2020-07-01_10h32.17.371,retriever_ti,2020.1.3,Win32,60,Chrome,1536,864,,,,,,,,,,,,,,,,,,,,,,,,,,,,,,,,,,,,,,,,,,,,,,,,,,,,,,,,,,,,,,,,,,,,,,,,,,,,,,,,,,,,,,,,,,,,,,,,,,
1,0,1,0,1,7,2020-07-01_10h32.17.371,retriever_ti,2020.1.3,Win32,60,Chrome,1536,864,,,,,,,,,,,,,,,,,,,,,,,,,,,,,,,,,,,,,,,,,,,,,,,,,,,,,,,,,,,,,,,,,,,,,,,,,,,,,,,,,,,,,,,,,,,,,,,,,,
2,0,2,0,1,7,2020-07-01_10h32.17.371,retriever_ti,2020.1.3,Win32,60,Chrome,1536,864,,,,,,,,,,,,,,,,,,,,,,,,,,,,,,,,,,,,,,,,,,,,,,,,,,,,,,,,,,,,,,,,,,,,,,,,,,,,,,,,,,,,,,,,,,,,,,,,,,
3,0,3,0,1,7,2020-07-01_10h32.17.371,retriever_ti,2020.1.3,Win32,60,Chrome,1536,864,,,,,,,,,,,,,,,,,,,,,,,,,,,,,,,,,,,,,,,,,,,,,,,,,,,,,,,,,,,,,,,,,,,,,,,,,,,,,,,,,,,,,,,,,,,,,,,,,,
4,0,4,0,1,7,2020-07-01_10h32.17.371,retriever_ti,2020.1.3,Win32,60,Chrome,1536,864,,,,,,,,,,,,,,,,,,,,,,,,,,,,,,,,,,,,,,,,,,,,,,,,,,,,,,,,,,,,,,,,,,,,,,,,,,,,,,,,,,,,,,,,,,,,,,,,,,
5,0,5,0,1,7,2020-07-01_10h32.17.371,retriever_ti,2020.1.3,Win32,60,Chrome,1536,864,,,,,,,,,,,,,,,,,,,,,,,,,,,,,,,,,,,,,,,,,,,,,,,,,,,,,,,,,,,,,,,,,,,,,,,,,,,,,,,,,,,,,,,,,,,,,,,,,,
6,0,6,0,1,7,2020-07-01_10h32.17.371,retriever_ti,2020.1.3,Win32,60,Chrome,1536,864,,,,,,,,,,,,,,,,,,,,,,,,,,,,,,,,,,,,,,,,,,,,,,,,,,,,,,,,,,,,,,,,,,,,,,,,,,,,,,,,,,,,,,,,,,,,,,,,,,
7,0,7,0,1,7,2020-07-01_10h32.17.371,retriever_ti,2020.1.3,Win32,60,Chrome,1536,864,,,,,,,,,,,,,,,,,,,,,,,,,,,,,,,,,,,,,,,,,,,,,,,,,,,,,,,,,,,,,,,,,,,,,,,,,,,,,,,,,,,,,,,,,,,,,,,,,,
8,0,8,0,1,7,2020-07-01_10h32.17.371,retriever_ti,2020.1.3,Win32,60,Chrome,1536,864,,,,,,,,,,,,,,,,,,,,,,,,,,,,,,,,,,,,,,,,,,,,,,,,,,,,,,,,,,,,,,,,,,,,,,,,,,,,,,,,,,,,,,,,,,,,,,,,,,
9,0,9,0,1,7,2020-07-01_10h32.17.371,retriever_ti,2020.1.3,Win32,60,Chrome,1536,864,,,,,,,,,,,,,,,,,,,,,,,,,,,,,,,,,,,,,,,,,,,,,,,,,,,,,,,,,,,,,,,,,,,,,,,,,,,,,,,,,,,,,,,,,,,,,,,,,,
10,0,10,0,1,7,2020-07-01_10h32.17.371,retriever_ti,2020.1.3,Win32,60,Chrome,1536,864,,,,,,,,,,,,,,,,,,,,,,,,,,,,,,,,,,,,,,,,,,,,,,,,,,,,,,,,,,,,,,,,,,,,,,,,,,,,,,,,,,,,,,,,,,,,,,,,,,
11,0,11,0,1,7,2020-07-01_10h32.17.371,retriever_ti,2020.1.3,Win32,60,Chrome,1536,864,,,,,,,,,,,,,,,,,,,,,,,,,,,,,,,,,,,,,,,,,,,,,,,,,,,,,,,,,,,,,,,,,,,,,,,,,,,,,,,,,,,,,,,,,,,,,,,,,,
12,0,12,0,1,7,2020-07-01_10h32.17.371,retriever_ti,2020.1.3,Win32,60,Chrome,1536,864,,,,,,,,,,,,,,,,,,,,,,,,,,,,,,,,,,,,,,,,,,,,,,,,,,,,,,,,,,,,,,,,,,,,,,,,,,,,,,,,,,,,,,,,,,,,,,,,,,
13,0,13,0,1,7,2020-07-01_10h32.17.371,retriever_ti,2020.1.3,Win32,60,Chrome,1536,864,,,,,,,,,,,,,,,,,,,,,,,,,,,,,,,,,,,,,,,,,,,,,,,,,,,,,,,,,,,,,,,,,,,,,,,,,,,,,,,,,,,,,,,,,,,,,,,,,,
14,0,14,0,1,7,2020-07-01_10h32.17.371,retriever_ti,2020.1.3,Win32,60,Chrome,1536,864,,,,,,,,,,,,,,,,,,,,,,,,,,,,,,,,,,,,,,,,,,,,,,,,,,,,,,,,,,,,,,,,,,,,,,,,,,,,,,,,,,,,,,,,,,,,,,,,,,
,,,,,7,2020-07-01_10h32.17.371,retriever_ti,2020.1.3,Win32,60,Chrome,1536,864,195.12492,1,NaN,NaN,No_response,2,195.170195,195.170195,197.66902,0,0,0,0,1,2,5,1,html/resources/stimuli_practice_decision/04_beetle.jpg,html/resources/stimuli_practice_decision/02_canary.jpg,beetle,canary,,,,,,,,,,,,,,,,,,,,,,,,,,,,,,,,,,,,,,,,,,,,,,,,,,,,,,,,,,,,,,,,,,,,,,,,,,,,,
,,,,,7,2020-07-01_10h32.17.371,retriever_ti,2020.1.3,Win32,60,Chrome,1536,864,198.23587,2,NaN,NaN,No_response,2,198.252565,198.252565,200.74998,0,1,1,1,1,4,3,1,html/resources/stimuli_practice_decision/01_rabbit.jpg,html/resources/stimuli_practice_decision/07_sock.jpg,rabbit,sock,,,,,,,,,,,,,,,,,,,,,,,,,,,,,,,,,,,,,,,,,,,,,,,,,,,,,,,,,,,,,,,,,,,,,,,,,,,,,
,,,,,7,2020-07-01_10h32.17.371,retriever_ti,2020.1.3,Win32,60,Chrome,1536,864,201.25228,3,left,0.93609,pullover,1,201.286885,201.286885,203.782685,0,2,2,2,1,6,2,1,html/resources/stimuli_practice_decision/06_pullover.jpg,html/resources/stimuli_practice_decision/04_beetle.jpg,pullover,beetle,,,,,,,,,,,,,,,,,,,,,,,,,,,,,,,,,,,,,,,,,,,,,,,,,,,,,,,,,,,,,,,,,,,,,,,,,,,,,
,,,,,7,2020-07-01_10h32.17.371,retriever_ti,2020.1.3,Win32,60,Chrome,1536,864,204.300485,4,right,1.171915,handmixer,0,204.334955,204.334955,206.830665,0,3,3,3,1,7,1,1,html/resources/stimuli_practice_decision/05_glasses.jpg,html/resources/stimuli_practice_decision/08_handmixer.jpg,glasses,handmixer,,,,,,,,,,,,,,,,,,,,,,,,,,,,,,,,,,,,,,,,,,,,,,,,,,,,,,,,,,,,,,,,,,,,,,,,,,,,,
,,,,,7,2020-07-01_10h32.17.371,retriever_ti,2020.1.3,Win32,60,Chrome,1536,864,207.348765,5,left,0.97498,glasses,1,207.38434,207.38434,209.880415,0,4,4,4,1,7,6,1,html/resources/stimuli_practice_decision/05_glasses.jpg,html/resources/stimuli_practice_decision/06_pullover.jpg,glasses,pullover,,,,,,,,,,,,,,,,,,,,,,,,,,,,,,,,,,,,,,,,,,,,,,,,,,,,,,,,,,,,,,,,,,,,,,,,,,,,,
,,,,,7,2020-07-01_10h32.17.371,retriever_ti,2020.1.3,Win32,60,Chrome,1536,864,210.880085,6,left,1.31822,rabbit,0,210.898285,210.898285,213.394585,0,5,5,5,1,4,7,1,html/resources/stimuli_practice_decision/01_rabbit.jpg,html/resources/stimuli_practice_decision/05_glasses.jpg,rabbit,glasses,,,,,,,,,,,,,,,,,,,,,,,,,,,,,,,,,,,,,,,,,,,,,,,,,,,,,,,,,,,,,,,,,,,,,,,,,,,,,
,,,,,7,2020-07-01_10h32.17.371,retriever_ti,2020.1.3,Win32,60,Chrome,1536,864,213.912815,7,left,0.88868,handmixer,0,213.93061,213.93061,216.42723,0,6,6,6,1,1,2,1,html/resources/stimuli_practice_decision/08_handmixer.jpg,html/resources/stimuli_practice_decision/04_beetle.jpg,handmixer,beetle,,,,,,,,,,,,,,,,,,,,,,,,,,,,,,,,,,,,,,,,,,,,,,,,,,,,,,,,,,,,,,,,,,,,,,,,,,,,,
,,,,,7,2020-07-01_10h32.17.371,retriever_ti,2020.1.3,Win32,60,Chrome,1536,864,217.42733,8,left,2.02718,rabbit,1,217.46256,217.46256,219.95794,0,7,7,7,1,4,3,1,html/resources/stimuli_practice_decision/01_rabbit.jpg,html/resources/stimuli_practice_decision/07_sock.jpg,rabbit,sock,,,,,,,,,,,,,,,,,,,,,,,,,,,,,,,,,,,,,,,,,,,,,,,,,,,,,,,,,,,,,,,,,,,,,,,,,,,,,
,,,,,7,2020-07-01_10h32.17.371,retriever_ti,2020.1.3,Win32,60,Chrome,1536,864,,,,,,,,,,,,,,,,,,,,,,down,1,3.42557,1,0,0,0,3,1,html/resources/sequences_IDs/triangle.png,star ↑,square →,triangle ↓,← circle,down,,,,,,,,,,,,,,,,,,,,,,,,,,,,,,,,,,,,,,,,,,,,,,,,,,,,,,,,,,,,,,
,,,,,7,2020-07-01_10h32.17.371,retriever_ti,2020.1.3,Win32,60,Chrome,1536,864,,,,,,,,,,,,,,,,,,,,,,down,1,2.65457,1,0,1,1,1,1,html/resources/sequences_IDs/star.png,square ↑,circle →,star ↓,← triangle,down,,,,,,,,,,,,,,,,,,,,,,,,,,,,,,,,,,,,,,,,,,,,,,,,,,,,,,,,,,,,,,
,,,,,7,2020-07-01_10h32.17.371,retriever_ti,2020.1.3,Win32,60,Chrome,1536,864,,,,,,,,,,,,,,,,,,,,,,left,1,1.98684,1,0,2,2,2,1,html/resources/sequences_IDs/square1.png,star ↑,triangle →,circle ↓,← square,left,,,,,,,,,,,,,,,,,,,,,,,,,,,,,,,,,,,,,,,,,,,,,,,,,,,,,,,,,,,,,,
,,,,,7,2020-07-01_10h32.17.371,retriever_ti,2020.1.3,Win32,60,Chrome,1536,864,,,,,,,,,,,,,,,,,,,,,,up,1,2.511505,1,0,3,3,0,1,html/resources/sequences_IDs/circle.png,circle ↑,square →,triangle ↓,← star ,up,,,,,,,,,,,,,,,,,,,,,,,,,,,,,,,,,,,,,,,,,,,,,,,,,,,,,,,,,,,,,,
,,,,,7,2020-07-01_10h32.17.371,retriever_ti,2020.1.3,Win32,60,Chrome,1536,864,,,,,,,,,,,,,,,,,,,,,,,,,,,,,,,,,,,,,0,28.47633,0,0,0,0,1,,,,,,,,,,,,,,,,,,,,,,,,,,,,,,,,,,,,,,,,,,,,,,,,,,,,,,,
,,,,,7,2020-07-01_10h32.17.371,retriever_ti,2020.1.3,Win32,60,Chrome,1536,864,265.972595,9,left,2.345475,pullover,0,265.9878,265.9878,268.48757,0,0,0,0,1,6,7,1,html/resources/stimuli_practice_decision/06_pullover.jpg,html/resources/stimuli_practice_decision/05_glasses.jpg,pullover,glasses,,,,,,,,,,,,,,,,,,,,,,,,,,,,,,,,,,,,,,,,,,,,,,,,,,,,,,,,,,,,,,,,,,,,,,,,,,,,,
,,,,,7,2020-07-01_10h32.17.371,retriever_ti,2020.1.3,Win32,60,Chrome,1536,864,269.48766,10,left,1.494755,pullover,1,269.52259,269.52259,272.01822,0,1,1,1,1,6,2,1,html/resources/stimuli_practice_decision/06_pullover.jpg,html/resources/stimuli_practice_decision/04_beetle.jpg,pullover,beetle,,,,,,,,,,,,,,,,,,,,,,,,,,,,,,,,,,,,,,,,,,,,,,,,,,,,,,,,,,,,,,,,,,,,,,,,,,,,,
,,,,,7,2020-07-01_10h32.17.371,retriever_ti,2020.1.3,Win32,60,Chrome,1536,864,272.537605,11,right,1.45962,pullover,1,272.57033,272.57033,275.0681,0,2,2,2,1,5,6,1,html/resources/stimuli_practice_decision/02_canary.jpg,html/resources/stimuli_practice_decision/06_pullover.jpg,canary,pullover,,,,,,,,,,,,,,,,,,,,,,,,,,,,,,,,,,,,,,,,,,,,,,,,,,,,,,,,,,,,,,,,,,,,,,,,,,,,,
,,,,,7,2020-07-01_10h32.17.371,retriever_ti,2020.1.3,Win32,60,Chrome,1536,864,276.06841,12,right,0.83742,glasses,0,276.10183,276.10183,278.598485,0,3,3,3,1,8,7,1,html/resources/stimuli_practice_decision/03_squirrel.jpg,html/resources/stimuli_practice_decision/05_glasses.jpg,squirrel,glasses,,,,,,,,,,,,,,,,,,,,,,,,,,,,,,,,,,,,,,,,,,,,,,,,,,,,,,,,,,,,,,,,,,,,,,,,,,,,,
,,,,,7,2020-07-01_10h32.17.371,retriever_ti,2020.1.3,Win32,60,Chrome,1536,864,279.60057,13,left,1.398465,canary,1,279.61783,279.61783,282.113675,0,4,4,4,1,5,3,1,html/resources/stimuli_practice_decision/02_canary.jpg,html/resources/stimuli_practice_decision/07_sock.jpg,canary,sock,,,,,,,,,,,,,,,,,,,,,,,,,,,,,,,,,,,,,,,,,,,,,,,,,,,,,,,,,,,,,,,,,,,,,,,,,,,,,
,,,,,7,2020-07-01_10h32.17.371,retriever_ti,2020.1.3,Win32,60,Chrome,1536,864,282.630785,14,left,0.901075,glasses,0,282.66548,282.66548,285.16214,0,5,5,5,1,7,8,1,html/resources/stimuli_practice_decision/05_glasses.jpg,html/resources/stimuli_practice_decision/03_squirrel.jpg,glasses,squirrel,,,,,,,,,,,,,,,,,,,,,,,,,,,,,,,,,,,,,,,,,,,,,,,,,,,,,,,,,,,,,,,,,,,,,,,,,,,,,
,,,,,7,2020-07-01_10h32.17.371,retriever_ti,2020.1.3,Win32,60,Chrome,1536,864,286.163725,15,right,1.310915,rabbit,0,286.19737,286.19737,288.694175,0,6,6,6,1,5,4,1,html/resources/stimuli_practice_decision/02_canary.jpg,html/resources/stimuli_practice_decision/01_rabbit.jpg,canary,rabbit,,,,,,,,,,,,,,,,,,,,,,,,,,,,,,,,,,,,,,,,,,,,,,,,,,,,,,,,,,,,,,,,,,,,,,,,,,,,,
,,,,,7,2020-07-01_10h32.17.371,retriever_ti,2020.1.3,Win32,60,Chrome,1536,864,289.695865,16,left,2.07754,canary,1,289.713185,289.713185,292.209215,0,7,7,7,1,5,3,1,html/resources/stimuli_practice_decision/02_canary.jpg,html/resources/stimuli_practice_decision/07_sock.jpg,canary,sock,,,,,,,,,,,,,,,,,,,,,,,,,,,,,,,,,,,,,,,,,,,,,,,,,,,,,,,,,,,,,,,,,,,,,,,,,,,,,
,,,,,7,2020-07-01_10h32.17.371,retriever_ti,2020.1.3,Win32,60,Chrome,1536,864,,,,,,,,,,,,,,,,,,,,,,left,1,3.15473,1,0,0,0,2,1,html/resources/sequences_IDs/square1.png,star ↑,triangle →,circle ↓,← square,left,,,,,,,,,,,,,,,,,,,,,,,,,,,,,,,,,,,,,,,,,,,,,,,,,,,,,,,,,,,,,,
,,,,,7,2020-07-01_10h32.17.371,retriever_ti,2020.1.3,Win32,60,Chrome,1536,864,,,,,,,,,,,,,,,,,,,,,,down,1,1.259365,1,0,1,1,1,1,html/resources/sequences_IDs/star.png,square ↑,circle →,star ↓,← triangle,down,,,,,,,,,,,,,,,,,,,,,,,,,,,,,,,,,,,,,,,,,,,,,,,,,,,,,,,,,,,,,,
,,,,,7,2020-07-01_10h32.17.371,retriever_ti,2020.1.3,Win32,60,Chrome,1536,864,,,,,,,,,,,,,,,,,,,,,,down,1,1.34205,1,0,2,2,3,1,html/resources/sequences_IDs/triangle.png,star ↑,square →,triangle ↓,← circle,down,,,,,,,,,,,,,,,,,,,,,,,,,,,,,,,,,,,,,,,,,,,,,,,,,,,,,,,,,,,,,,
,,,,,7,2020-07-01_10h32.17.371,retriever_ti,2020.1.3,Win32,60,Chrome,1536,864,,,,,,,,,,,,,,,,,,,,,,up,1,0.987885,1,0,3,3,0,1,html/resources/sequences_IDs/circle.png,circle ↑,square →,triangle ↓,← star ,up,,,,,,,,,,,,,,,,,,,,,,,,,,,,,,,,,,,,,,,,,,,,,,,,,,,,,,,,,,,,,,
,,,,,7,2020-07-01_10h32.17.371,retriever_ti,2020.1.3,Win32,60,Chrome,1536,864,,,,,,,,,,,,,,,,,,,,,,,,,,,,,,,,,,,,,0,4.52022,1,0,1,0,1,,,,,,,,,,,,,,,,,,,,,,,,,,,,,,,,,,,,,,,,,,,,,,,,,,,,,,,
,,,,,7,2020-07-01_10h32.17.371,retriever_ti,2020.1.3,Win32,60,Chrome,1536,864,,,,,,,,,,,,,,,,,1,,,,,,,,,,,,,,,,,,,,,,,,,,,317.95329,1,right,1.28565,camel         ,2,3,-3,0,3,317.98144,317.98144,320.480915,0,0,0,0,1,1,5,2,dolphin     ,camel         ,html/resources/sequences_IDs/B/02_dolphin.jpg,html/resources/sequences_IDs/A/03_camel.jpg,2,3,1,1,1,1,2,3,0,7,,,,,,,,,,,,,,,,,,,,
,,,,,7,2020-07-01_10h32.17.371,retriever_ti,2020.1.3,Win32,60,Chrome,1536,864,,,,,,,,,,,,,,,,,1,,,,,,,,,,,,,,,,,,,,,,,,,,,321.097925,2,right,0.864275,dolphin     ,5,2,-1,0,0,321.11376,321.11376,323.612235,0,1,1,1,1,2,6,5,wolf          ,dolphin     ,html/resources/sequences_IDs/A/01_wolf.jpg,html/resources/sequences_IDs/B/02_dolphin.jpg,1,2,1,1,1,1,1,2,0,7,,,,,,,,,,,,,,,,,,,,
,,,,,7,2020-07-01_10h32.17.371,retriever_ti,2020.1.3,Win32,60,Chrome,1536,864,,,,,,,,,,,,,,,,,1,,,,,,,,,,,,,,,,,,,,,,,,,,,324.71185,3,left,0.91049,dolphin     ,5,2,-1,0,0,324.7465,324.7465,327.2451,0,2,2,2,1,3,5,6,dolphin     ,wolf          ,html/resources/sequences_IDs/B/02_dolphin.jpg,html/resources/sequences_IDs/A/01_wolf.jpg,2,1,1,1,1,1,2,1,0,7,,,,,,,,,,,,,,,,,,,,
,,,,,7,2020-07-01_10h32.17.371,retriever_ti,2020.1.3,Win32,60,Chrome,1536,864,,,,,,,,,,,,,,,,,1,,,,,,,,,,,,,,,,,,,,,,,,,,,328.34417,4,right,0.83677,radio       ,3,10,2,1,3,328.36204,328.36204,330.85869,0,3,3,3,1,4,1,3,holdfast    ,radio       ,html/resources/sequences_IDs/B/04_holdfast.jpg,html/resources/sequences_IDs/B/10_radio.jpg,4,10,2,1,4,2,4,8,0,7,,,,,,,,,,,,,,,,,,,,
,,,,,7,2020-07-01_10h32.17.371,retriever_ti,2020.1.3,Win32,60,Chrome,1536,864,,,,,,,,,,,,,,,,,1,,,,,,,,,,,,,,,,,,,,,,,,,,,331.47655,5,left,1.1187,camel         ,2,3,-1,0,0,331.510485,331.510485,334.00759,0,4,4,4,1,5,2,3,camel         ,radio       ,html/resources/sequences_IDs/A/03_camel.jpg,html/resources/sequences_IDs/B/10_radio.jpg,3,10,1,1,4,2,3,8,0,7,,,,,,,,,,,,,,,,,,,,
,,,,,7,2020-07-01_10h32.17.371,retriever_ti,2020.1.3,Win32,60,Chrome,1536,864,,,,,,,,,,,,,,,,,1,,,,,,,,,,,,,,,,,,,,,,,,,,,335.110045,6,right,2.00016,camel         ,2,3,-2,0,3,335.143185,335.143185,337.63918,0,5,5,5,1,6,4,2,calculator    ,camel         ,html/resources/sequences_IDs/A/09_calculator.jpg,html/resources/sequences_IDs/A/03_camel.jpg,9,3,4,2,1,1,7,3,0,7,,,,,,,,,,,,,,,,,,,,
,,,,,7,2020-07-01_10h32.17.371,retriever_ti,2020.1.3,Win32,60,Chrome,1536,864,,,,,,,,,,,,,,,,,1,,,,,,,,,,,,,,,,,,,,,,,,,,,338.256705,7,left,0.8676,wolf          ,6,1,-1,0,0,338.292445,338.292445,340.787935,0,6,6,6,1,7,6,7,wolf          ,gloves      ,html/resources/sequences_IDs/A/01_wolf.jpg,html/resources/sequences_IDs/B/06_gloves.jpg,1,6,1,1,3,2,1,5,0,7,,,,,,,,,,,,,,,,,,,,
,,,,,7,2020-07-01_10h32.17.371,retriever_ti,2020.1.3,Win32,60,Chrome,1536,864,,,,,,,,,,,,,,,,,1,,,,,,,,,,,,,,,,,,,,,,,,,,,341.88831,8,left,0.60506,holdfast    ,1,4,-4,0,3,341.92355,341.92355,344.41954,0,7,7,7,1,8,1,5,holdfast    ,dolphin     ,html/resources/sequences_IDs/B/04_holdfast.jpg,html/resources/sequences_IDs/B/02_dolphin.jpg,4,2,2,1,1,1,4,2,0,7,,,,,,,,,,,,,,,,,,,,
,,,,,7,2020-07-01_10h32.17.371,retriever_ti,2020.1.3,Win32,60,Chrome,1536,864,,,,,,,,,,,,,,,,,1,,,,,,,,,,,,,,,,,,,,,,,,,,,345.0369,9,left,1.233715,dolphin     ,5,2,-1,0,1,345.07445,345.07445,347.5687,0,8,8,8,1,9,5,6,dolphin     ,wolf          ,html/resources/sequences_IDs/B/02_dolphin.jpg,html/resources/sequences_IDs/A/01_wolf.jpg,2,1,1,1,1,1,2,1,1,7,,,,,,,,,,,,,,,,,,,,
,,,,,7,2020-07-01_10h32.17.371,retriever_ti,2020.1.3,Win32,60,Chrome,1536,864,,,,,,,,,,,,,,,,,1,,,,,,,,,,,,,,,,,,,,,,,,,,,348.669635,10,left,1.235125,radio       ,3,10,2,1,3,348.703285,348.703285,351.20078,0,9,9,9,1,10,3,1,radio       ,holdfast    ,html/resources/sequences_IDs/B/10_radio.jpg,html/resources/sequences_IDs/B/04_holdfast.jpg,10,4,4,2,2,1,8,4,0,7,,,,,,,,,,,,,,,,,,,,
,,,,,7,2020-07-01_10h32.17.371,retriever_ti,2020.1.3,Win32,60,Chrome,1536,864,,,,,,,,,,,,,,,,,1,,,,,,,,,,,,,,,,,,,,,,,,,,,351.817505,11,NaN,NaN,No_response,NaN,NaN,NaN,2,2,351.8357,351.8357,354.33272,0,10,10,10,1,11,3,4,radio       ,calculator    ,html/resources/sequences_IDs/B/10_radio.jpg,html/resources/sequences_IDs/A/09_calculator.jpg,10,9,4,2,4,2,8,7,1,7,,,,,,,,,,,,,,,,,,,,
,,,,,7,2020-07-01_10h32.17.371,retriever_ti,2020.1.3,Win32,60,Chrome,1536,864,,,,,,,,,,,,,,,,,1,,,,,,,,,,,,,,,,,,,,,,,,,,,355.433725,12,left,2.23243,holdfast    ,1,4,-1,0,1,355.467595,355.467595,357.96384,0,11,11,11,1,12,1,2,holdfast    ,camel         ,html/resources/sequences_IDs/B/04_holdfast.jpg,html/resources/sequences_IDs/A/03_camel.jpg,4,3,2,1,1,1,4,3,1,7,,,,,,,,,,,,,,,,,,,,
,,,,,7,2020-07-01_10h32.17.371,retriever_ti,2020.1.3,Win32,60,Chrome,1536,864,,,,,,,,,,,,,,,,,1,,,,,,,,,,,,,,,,,,,,,,,,,,,359.064815,13,left,0.792545,hat           ,8,8,6,1,3,359.09986,359.09986,361.595655,0,12,12,12,1,13,8,2,hat           ,camel         ,html/resources/sequences_IDs/A/08_hat.jpg,html/resources/sequences_IDs/A/03_camel.jpg,8,3,3,2,1,1,6,3,0,7,,,,,,,,,,,,,,,,,,,,
,,,,,7,2020-07-01_10h32.17.371,retriever_ti,2020.1.3,Win32,60,Chrome,1536,864,,,,,,,,,,,,,,,,,1,,,,,,,,,,,,,,,,,,,,,,,,,,,362.214175,14,right,0.74636,hat           ,8,8,1,1,1,362.247835,362.247835,364.74367,0,13,13,13,1,14,7,8,gloves      ,hat           ,html/resources/sequences_IDs/B/06_gloves.jpg,html/resources/sequences_IDs/A/08_hat.jpg,6,8,3,2,3,2,5,6,0,7,,,,,,,,,,,,,,,,,,,,
,,,,,7,2020-07-01_10h32.17.371,retriever_ti,2020.1.3,Win32,60,Chrome,1536,864,,,,,,,,,,,,,,,,,1,,,,,,,,,,,,,,,,,,,,,,,,,,,365.843365,15,left,0.880135,hat           ,8,8,2,1,3,365.859975,365.859975,368.358805,0,14,14,14,1,15,8,6,hat           ,wolf          ,html/resources/sequences_IDs/A/08_hat.jpg,html/resources/sequences_IDs/A/01_wolf.jpg,8,1,3,2,1,1,6,1,0,7,,,,,,,,,,,,,,,,,,,,
,,,,,7,2020-07-01_10h32.17.371,retriever_ti,2020.1.3,Win32,60,Chrome,1536,864,,,,,,,,,,,,,,,,,1,,,,,,,,,,,,,,,,,,,,,,,,,,,368.97729,16,left,1.74236,dolphin     ,5,2,1,1,1,369.0105,369.0105,371.507315,0,15,15,15,1,16,5,4,dolphin     ,calculator    ,html/resources/sequences_IDs/B/02_dolphin.jpg,html/resources/sequences_IDs/A/09_calculator.jpg,2,9,1,1,4,2,2,7,0,7,,,,,,,,,,,,,,,,,,,,
,,,,,7,2020-07-01_10h32.17.371,retriever_ti,2020.1.3,Win32,60,Chrome,1536,864,,,,,,,,,,,,,,,,,1,,,,,,,,,,,,,,,,,,,,,,,,,,,372.6067,17,left,1.172215,hat           ,8,8,1,1,1,372.640605,372.640605,375.138815,0,16,16,16,1,17,8,7,hat           ,gloves      ,html/resources/sequences_IDs/A/08_hat.jpg,html/resources/sequences_IDs/B/06_gloves.jpg,8,6,3,2,3,2,6,5,0,7,,,,,,,,,,,,,,,,,,,,
,,,,,7,2020-07-01_10h32.17.371,retriever_ti,2020.1.3,Win32,60,Chrome,1536,864,,,,,,,,,,,,,,,,,1,,,,,,,,,,,,,,,,,,,,,,,,,,,376.238695,18,left,0.66216,hat           ,8,8,1,1,1,376.25552,376.25552,378.75443,0,17,17,17,1,18,8,7,hat           ,gloves      ,html/resources/sequences_IDs/A/08_hat.jpg,html/resources/sequences_IDs/B/06_gloves.jpg,8,6,3,2,3,2,6,5,0,7,,,,,,,,,,,,,,,,,,,,
,,,,,7,2020-07-01_10h32.17.371,retriever_ti,2020.1.3,Win32,60,Chrome,1536,864,,,,,,,,,,,,,,,,,1,,,,,,,,,,,,,,,,,,,,,,,,,,,379.854525,19,left,1.195465,dolphin     ,5,2,-3,0,3,379.8726,379.8726,382.369205,0,18,18,18,1,19,5,8,dolphin     ,hat           ,html/resources/sequences_IDs/B/02_dolphin.jpg,html/resources/sequences_IDs/A/08_hat.jpg,2,8,1,1,3,2,2,6,0,7,,,,,,,,,,,,,,,,,,,,
,,,,,7,2020-07-01_10h32.17.371,retriever_ti,2020.1.3,Win32,60,Chrome,1536,864,,,,,,,,,,,,,,,,,1,,,,,,,,,,,,,,,,,,,,,,,,,,,382.98747,20,left,2.109065,wolf          ,6,1,-2,0,3,383.00433,383.00433,385.50057,0,19,19,19,1,20,6,8,wolf          ,hat           ,html/resources/sequences_IDs/A/01_wolf.jpg,html/resources/sequences_IDs/A/08_hat.jpg,1,8,1,1,3,2,1,6,0,7,,,,,,,,,,,,,,,,,,,,
,,,,,7,2020-07-01_10h32.17.371,retriever_ti,2020.1.3,Win32,60,Chrome,1536,864,,,,,,,,,,,,,,,,,1,,,,,,,,,,,,,,,,,,,,,,,,,,,386.11825,21,left,1.39578,radio       ,3,10,1,1,1,386.13616,386.13616,388.633115,0,20,20,20,1,21,3,2,radio       ,camel         ,html/resources/sequences_IDs/B/10_radio.jpg,html/resources/sequences_IDs/A/03_camel.jpg,10,3,4,2,1,1,8,3,0,7,,,,,,,,,,,,,,,,,,,,
,,,,,7,2020-07-01_10h32.17.371,retriever_ti,2020.1.3,Win32,60,Chrome,1536,864,,,,,,,,,,,,,,,,,1,,,,,,,,,,,,,,,,,,,,,,,,,,,389.736655,22,left,1.13213,calculator    ,4,9,3,1,3,389.75502,389.75502,392.2486,0,21,21,21,1,22,4,1,calculator    ,holdfast    ,html/resources/sequences_IDs/A/09_calculator.jpg,html/resources/sequences_IDs/B/04_holdfast.jpg,9,4,4,2,2,1,7,4,0,7,,,,,,,,,,,,,,,,,,,,
,,,,,7,2020-07-01_10h32.17.371,retriever_ti,2020.1.3,Win32,60,Chrome,1536,864,,,,,,,,,,,,,,,,,1,,,,,,,,,,,,,,,,,,,,,,,,,,,392.866155,23,left,0.95847,dolphin     ,5,2,-2,0,3,392.90098,392.90098,395.397035,0,22,22,22,1,23,5,7,dolphin     ,gloves      ,html/resources/sequences_IDs/B/02_dolphin.jpg,html/resources/sequences_IDs/B/06_gloves.jpg,2,6,1,1,3,2,2,5,0,7,,,,,,,,,,,,,,,,,,,,
,,,,,7,2020-07-01_10h32.17.371,retriever_ti,2020.1.3,Win32,60,Chrome,1536,864,,,,,,,,,,,,,,,,,1,,,,,,,,,,,,,,,,,,,,,,,,,,,396.01583,24,left,1.364835,radio       ,3,10,-1,0,0,396.03321,396.03321,398.529155,0,23,23,23,1,24,3,4,radio       ,calculator    ,html/resources/sequences_IDs/B/10_radio.jpg,html/resources/sequences_IDs/A/09_calculator.jpg,10,9,4,2,4,2,8,7,0,7,,,,,,,,,,,,,,,,,,,,
,,,,,7,2020-07-01_10h32.17.371,retriever_ti,2020.1.3,Win32,60,Chrome,1536,864,,,,,,,,,,,,,,,,,1,,,,,,,,,,,,,,,,,,,,,,,,,,,399.62914,25,right,0.912955,wolf          ,6,1,-1,0,1,399.66395,399.66395,402.161125,0,24,24,24,1,25,7,6,gloves      ,wolf          ,html/resources/sequences_IDs/B/06_gloves.jpg,html/resources/sequences_IDs/A/01_wolf.jpg,6,1,3,2,1,1,5,1,1,7,,,,,,,,,,,,,,,,,,,,
,,,,,7,2020-07-01_10h32.17.371,retriever_ti,2020.1.3,Win32,60,Chrome,1536,864,,,,,,,,,,,,,,,,,1,,,,,,,,,,,,,,,,,,,,,,,,,,,403.26239,26,right,0.6766,dolphin     ,5,2,-2,0,3,403.279755,403.279755,405.776085,0,25,25,25,1,26,7,5,gloves      ,dolphin     ,html/resources/sequences_IDs/B/06_gloves.jpg,html/resources/sequences_IDs/B/02_dolphin.jpg,6,2,3,2,1,1,5,2,0,7,,,,,,,,,,,,,,,,,,,,
,,,,,7,2020-07-01_10h32.17.371,retriever_ti,2020.1.3,Win32,60,Chrome,1536,864,,,,,,,,,,,,,,,,,1,,,,,,,,,,,,,,,,,,,,,,,,,,,406.39332,27,left,1.13061,hat           ,8,8,1,1,0,406.411935,406.411935,408.906615,0,26,26,26,1,27,8,7,hat           ,gloves      ,html/resources/sequences_IDs/A/08_hat.jpg,html/resources/sequences_IDs/B/06_gloves.jpg,8,6,3,2,3,2,6,5,1,7,,,,,,,,,,,,,,,,,,,,
,,,,,7,2020-07-01_10h32.17.371,retriever_ti,2020.1.3,Win32,60,Chrome,1536,864,,,,,,,,,,,,,,,,,1,,,,,,,,,,,,,,,,,,,,,,,,,,,410.009335,28,left,0.676965,camel         ,2,3,1,1,1,410.02608,410.02608,412.523895,0,27,27,27,1,28,2,1,camel         ,holdfast    ,html/resources/sequences_IDs/A/03_camel.jpg,html/resources/sequences_IDs/B/04_holdfast.jpg,3,4,1,1,2,1,3,4,0,7,,,,,,,,,,,,,,,,,,,,
,,,,,7,2020-07-01_10h32.17.371,retriever_ti,2020.1.3,Win32,60,Chrome,1536,864,,,,,,,,,,,,,,,,,1,,,,,,,,,,,,,,,,,,,,,,,,,,,413.623525,29,right,1.6568,holdfast    ,1,4,-7,0,3,413.641825,413.641825,416.13747,0,28,28,28,1,29,8,1,hat           ,holdfast    ,html/resources/sequences_IDs/A/08_hat.jpg,html/resources/sequences_IDs/B/04_holdfast.jpg,8,4,3,2,2,1,6,4,0,7,,,,,,,,,,,,,,,,,,,,
,,,,,7,2020-07-01_10h32.17.371,retriever_ti,2020.1.3,Win32,60,Chrome,1536,864,,,,,,,,,,,,,,,,,1,,,,,,,,,,,,,,,,,,,,,,,,,,,416.7397,30,left,2.134145,calculator    ,4,9,-4,0,3,416.756915,416.756915,419.253075,0,29,29,29,1,30,4,8,calculator    ,hat           ,html/resources/sequences_IDs/A/09_calculator.jpg,html/resources/sequences_IDs/A/08_hat.jpg,9,8,4,2,3,2,7,6,0,7,,,,,,,,,,,,,,,,,,,,
,,,,,7,2020-07-01_10h32.17.371,retriever_ti,2020.1.3,Win32,60,Chrome,1536,864,,,,,,,,,,,,,,,,,1,,,,,,,,,,,,,,,,,,,,,,,,,,,419.871065,31,left,0.973525,camel         ,2,3,-4,0,3,419.90643,419.90643,422.402165,0,30,30,30,1,31,2,6,camel         ,wolf          ,html/resources/sequences_IDs/A/03_camel.jpg,html/resources/sequences_IDs/A/01_wolf.jpg,3,1,1,1,1,1,3,1,0,7,,,,,,,,,,,,,,,,,,,,
,,,,,7,2020-07-01_10h32.17.371,retriever_ti,2020.1.3,Win32,60,Chrome,1536,864,,,,,,,,,,,,,,,,,1,,,,,,,,,,,,,,,,,,,,,,,,,,,423.020995,32,left,1.261715,wolf          ,6,1,-1,0,0,423.03841,423.03841,425.533665,0,31,31,31,1,32,6,7,wolf          ,gloves      ,html/resources/sequences_IDs/A/01_wolf.jpg,html/resources/sequences_IDs/B/06_gloves.jpg,1,6,1,1,3,2,1,5,0,7,,,,,,,,,,,,,,,,,,,,
,,,,,7,2020-07-01_10h32.17.371,retriever_ti,2020.1.3,Win32,60,Chrome,1536,864,,,,,,,,,,,,,,,,,1,,,,,,,,,,,,,,,,,,,,,,,,,,,426.63391,33,right,0.732575,camel         ,2,3,1,1,1,426.65156,426.65156,429.14994,0,32,32,32,1,33,1,2,holdfast    ,camel         ,html/resources/sequences_IDs/B/04_holdfast.jpg,html/resources/sequences_IDs/A/03_camel.jpg,4,3,2,1,1,1,4,3,0,7,,,,,,,,,,,,,,,,,,,,
,,,,,7,2020-07-01_10h32.17.371,retriever_ti,2020.1.3,Win32,60,Chrome,1536,864,,,,,,,,,,,,,,,,,1,,,,,,,,,,,,,,,,,,,,,,,,,,,430.250345,34,right,1.52365,camel         ,2,3,-1,0,0,430.26782,430.26782,432.76439,0,33,33,33,1,34,3,2,radio       ,camel         ,html/resources/sequences_IDs/B/10_radio.jpg,html/resources/sequences_IDs/A/03_camel.jpg,10,3,4,2,1,1,8,3,0,7,,,,,,,,,,,,,,,,,,,,
,,,,,7,2020-07-01_10h32.17.371,retriever_ti,2020.1.3,Win32,60,Chrome,1536,864,,,,,,,,,,,,,,,,,1,,,,,,,,,,,,,,,,,,,,,,,,,,,433.864565,35,right,0.927845,dolphin     ,5,2,1,1,0,433.882895,433.882895,436.37879,0,34,34,34,1,35,4,5,calculator    ,dolphin     ,html/resources/sequences_IDs/A/09_calculator.jpg,html/resources/sequences_IDs/B/02_dolphin.jpg,9,2,4,2,1,1,7,2,1,7,,,,,,,,,,,,,,,,,,,,
,,,,,7,2020-07-01_10h32.17.371,retriever_ti,2020.1.3,Win32,60,Chrome,1536,864,,,,,,,,,,,,,,,,,1,,,,,,,,,,,,,,,,,,,,,,,,,,,437.480355,36,right,0.77792,calculator    ,4,9,-3,0,3,437.513385,437.513385,440.01083,0,35,35,35,1,36,7,4,gloves      ,calculator    ,html/resources/sequences_IDs/B/06_gloves.jpg,html/resources/sequences_IDs/A/09_calculator.jpg,6,9,3,2,4,2,5,7,0,7,,,,,,,,,,,,,,,,,,,,
,,,,,7,2020-07-01_10h32.17.371,retriever_ti,2020.1.3,Win32,60,Chrome,1536,864,,,,,,,,,,,,,,,,,1,,,,,,,,,,,,,,,,,,,,,,,,,,,440.6275,37,left,1.289535,dolphin     ,5,2,-1,0,0,440.64586,440.64586,443.141595,0,36,36,36,1,37,5,6,dolphin     ,wolf          ,html/resources/sequences_IDs/B/02_dolphin.jpg,html/resources/sequences_IDs/A/01_wolf.jpg,2,1,1,1,1,1,2,1,0,7,,,,,,,,,,,,,,,,,,,,
,,,,,7,2020-07-01_10h32.17.371,retriever_ti,2020.1.3,Win32,60,Chrome,1536,864,,,,,,,,,,,,,,,,,1,,,,,,,,,,,,,,,,,,,,,,,,,,,444.241825,38,left,0.937875,calculator    ,4,9,-3,0,3,444.25858,444.25858,446.757055,0,37,37,37,1,38,4,7,calculator    ,gloves      ,html/resources/sequences_IDs/A/09_calculator.jpg,html/resources/sequences_IDs/B/06_gloves.jpg,9,6,4,2,3,2,7,5,0,7,,,,,,,,,,,,,,,,,,,,
,,,,,7,2020-07-01_10h32.17.371,retriever_ti,2020.1.3,Win32,60,Chrome,1536,864,,,,,,,,,,,,,,,,,1,,,,,,,,,,,,,,,,,,,,,,,,,,,447.3587,39,left,1.045435,camel         ,2,3,-3,0,3,447.393485,447.393485,449.889255,0,38,38,38,1,39,2,5,camel         ,dolphin     ,html/resources/sequences_IDs/A/03_camel.jpg,html/resources/sequences_IDs/B/02_dolphin.jpg,3,2,1,1,1,1,3,2,0,7,,,,,,,,,,,,,,,,,,,,
,,,,,7,2020-07-01_10h32.17.371,retriever_ti,2020.1.3,Win32,60,Chrome,1536,864,,,,,,,,,,,,,,,,,1,,,,,,,,,,,,,,,,,,,,,,,,,,,450.50751,40,right,2.288795,wolf          ,6,1,5,1,3,450.539955,450.539955,453.037555,0,39,39,39,1,40,1,6,holdfast    ,wolf          ,html/resources/sequences_IDs/B/04_holdfast.jpg,html/resources/sequences_IDs/A/01_wolf.jpg,4,1,2,1,1,1,4,1,0,7,,,,,,,,,,,,,,,,,,,,
,,,,,7,2020-07-01_10h32.17.371,retriever_ti,2020.1.3,Win32,60,Chrome,1536,864,,,,,,,,,,,,,,,,,1,,,,,,,,,,,,,,,,,,,,,,,,,,,453.639245,41,left,1.57786,radio       ,3,10,-1,0,0,453.65698,453.65698,456.15385,0,40,40,40,1,41,3,4,radio       ,calculator    ,html/resources/sequences_IDs/B/10_radio.jpg,html/resources/sequences_IDs/A/09_calculator.jpg,10,9,4,2,4,2,8,7,0,7,,,,,,,,,,,,,,,,,,,,
,,,,,7,2020-07-01_10h32.17.371,retriever_ti,2020.1.3,Win32,60,Chrome,1536,864,,,,,,,,,,,,,,,,,1,,,,,,,,,,,,,,,,,,,,,,,,,,,457.25523,42,right,0.69001,dolphin     ,5,2,-1,0,0,457.286445,457.286445,459.78477,0,41,41,41,1,42,6,5,wolf          ,dolphin     ,html/resources/sequences_IDs/A/01_wolf.jpg,html/resources/sequences_IDs/B/02_dolphin.jpg,1,2,1,1,1,1,1,2,0,7,,,,,,,,,,,,,,,,,,,,
,,,,,7,2020-07-01_10h32.17.371,retriever_ti,2020.1.3,Win32,60,Chrome,1536,864,,,,,,,,,,,,,,,,,1,,,,,,,,,,,,,,,,,,,,,,,,,,,460.885315,43,left,0.266315,gloves      ,7,6,1,1,1,460.91996,460.91996,463.41818,0,42,42,42,1,43,7,6,gloves      ,wolf          ,html/resources/sequences_IDs/B/06_gloves.jpg,html/resources/sequences_IDs/A/01_wolf.jpg,6,1,3,2,1,1,5,1,0,7,,,,,,,,,,,,,,,,,,,,
,,,,,7,2020-07-01_10h32.17.371,retriever_ti,2020.1.3,Win32,60,Chrome,1536,864,,,,,,,,,,,,,,,,,1,,,,,,,,,,,,,,,,,,,,,,,,,,,464.51936,44,left,0.801225,calculator    ,4,9,-2,0,3,464.552125,464.552125,467.048595,0,43,43,43,1,44,4,6,calculator    ,wolf          ,html/resources/sequences_IDs/A/09_calculator.jpg,html/resources/sequences_IDs/A/01_wolf.jpg,9,1,4,2,1,1,7,1,0,7,,,,,,,,,,,,,,,,,,,,
,,,,,7,2020-07-01_10h32.17.371,retriever_ti,2020.1.3,Win32,60,Chrome,1536,864,,,,,,,,,,,,,,,,,1,,,,,,,,,,,,,,,,,,,,,,,,,,,467.64938,45,left,1.052625,dolphin     ,5,2,2,1,3,467.667685,467.667685,470.163545,0,44,44,44,1,45,5,3,dolphin     ,radio       ,html/resources/sequences_IDs/B/02_dolphin.jpg,html/resources/sequences_IDs/B/10_radio.jpg,2,10,1,1,4,2,2,8,0,7,,,,,,,,,,,,,,,,,,,,
,,,,,7,2020-07-01_10h32.17.371,retriever_ti,2020.1.3,Win32,60,Chrome,1536,864,,,,,,,,,,,,,,,,,1,,,,,,,,,,,,,,,,,,,,,,,,,,,470.78231,46,left,1.546305,holdfast    ,1,4,-3,0,3,470.816385,470.816385,473.31249,0,45,45,45,1,46,1,4,holdfast    ,calculator    ,html/resources/sequences_IDs/B/04_holdfast.jpg,html/resources/sequences_IDs/A/09_calculator.jpg,4,9,2,1,4,2,4,7,0,7,,,,,,,,,,,,,,,,,,,,
,,,,,7,2020-07-01_10h32.17.371,retriever_ti,2020.1.3,Win32,60,Chrome,1536,864,,,,,,,,,,,,,,,,,1,,,,,,,,,,,,,,,,,,,,,,,,,,,473.930565,47,left,0.640805,calculator    ,4,9,-1,0,0,473.948785,473.948785,476.44395,0,46,46,46,1,47,4,5,calculator    ,dolphin     ,html/resources/sequences_IDs/A/09_calculator.jpg,html/resources/sequences_IDs/B/02_dolphin.jpg,9,2,4,2,1,1,7,2,0,7,,,,,,,,,,,,,,,,,,,,
,,,,,7,2020-07-01_10h32.17.371,retriever_ti,2020.1.3,Win32,60,Chrome,1536,864,,,,,,,,,,,,,,,,,1,,,,,,,,,,,,,,,,,,,,,,,,,,,477.5455,48,left,0.398655,holdfast    ,1,4,-1,0,0,477.57896,477.57896,480.07678,0,47,47,47,1,48,1,2,holdfast    ,camel         ,html/resources/sequences_IDs/B/04_holdfast.jpg,html/resources/sequences_IDs/A/03_camel.jpg,4,3,2,1,1,1,4,3,0,7,,,,,,,,,,,,,,,,,,,,
,,,,,7,2020-07-01_10h32.17.371,retriever_ti,2020.1.3,Win32,60,Chrome,1536,864,,,,,,,,,,,,,,,,,1,,,,,,,,,,,,,,,,,,,,,,,,,,,481.17657,49,left,1.000125,radio       ,3,10,-5,0,3,481.19488,481.19488,483.69139,0,48,48,48,1,49,3,8,radio       ,hat           ,html/resources/sequences_IDs/B/10_radio.jpg,html/resources/sequences_IDs/A/08_hat.jpg,10,8,4,2,3,2,8,6,0,7,,,,,,,,,,,,,,,,,,,,
,,,,,7,2020-07-01_10h32.17.371,retriever_ti,2020.1.3,Win32,60,Chrome,1536,864,,,,,,,,,,,,,,,,,1,,,,,,,,,,,,,,,,,,,,,,,,,,,484.31043,50,left,0.84352,camel         ,2,3,-6,0,3,484.327785,484.327785,486.838905,0,49,49,49,1,50,2,8,camel         ,hat           ,html/resources/sequences_IDs/A/03_camel.jpg,html/resources/sequences_IDs/A/08_hat.jpg,3,8,1,1,3,2,3,6,0,7,,,,,,,,,,,,,,,,,,,,
,,,,,7,2020-07-01_10h32.17.371,retriever_ti,2020.1.3,Win32,60,Chrome,1536,864,,,,,,,,,,,,,,,,,1,,,,,,,,,,,,,,,,,,,,,,,,,,,487.457015,51,right,0.5984,radio       ,3,10,-5,0,3,487.474865,487.474865,489.97085,0,50,50,50,1,51,8,3,hat           ,radio       ,html/resources/sequences_IDs/A/08_hat.jpg,html/resources/sequences_IDs/B/10_radio.jpg,8,10,3,2,4,2,6,8,0,7,,,,,,,,,,,,,,,,,,,,
,,,,,7,2020-07-01_10h32.17.371,retriever_ti,2020.1.3,Win32,60,Chrome,1536,864,,,,,,,,,,,,,,,,,1,,,,,,,,,,,,,,,,,,,,,,,,,,,490.58896,52,right,1.836075,calculator    ,4,9,2,1,3,490.60574,490.60574,493.103495,0,51,51,51,1,52,2,4,camel         ,calculator    ,html/resources/sequences_IDs/A/03_camel.jpg,html/resources/sequences_IDs/A/09_calculator.jpg,3,9,1,1,4,2,3,7,0,7,,,,,,,,,,,,,,,,,,,,
,,,,,7,2020-07-01_10h32.17.371,retriever_ti,2020.1.3,Win32,60,Chrome,1536,864,,,,,,,,,,,,,,,,,1,,,,,,,,,,,,,,,,,,,,,,,,,,,493.720565,53,right,0.983515,calculator    ,4,9,-4,0,3,493.755925,493.755925,496.25296,0,52,52,52,1,53,8,4,hat           ,calculator    ,html/resources/sequences_IDs/A/08_hat.jpg,html/resources/sequences_IDs/A/09_calculator.jpg,8,9,3,2,4,2,6,7,0,7,,,,,,,,,,,,,,,,,,,,
,,,,,7,2020-07-01_10h32.17.371,retriever_ti,2020.1.3,Win32,60,Chrome,1536,864,,,,,,,,,,,,,,,,,1,,,,,,,,,,,,,,,,,,,,,,,,,,,496.86863,54,left,0.769635,radio       ,3,10,-3,0,3,496.901865,496.901865,499.401235,0,53,53,53,1,54,3,6,radio       ,wolf          ,html/resources/sequences_IDs/B/10_radio.jpg,html/resources/sequences_IDs/A/01_wolf.jpg,10,1,4,2,1,1,8,1,0,7,,,,,,,,,,,,,,,,,,,,
,,,,,7,2020-07-01_10h32.17.371,retriever_ti,2020.1.3,Win32,60,Chrome,1536,864,,,,,,,,,,,,,,,,,1,,,,,,,,,,,,,,,,,,,,,,,,,,,500.0179,55,right,0.97871,camel         ,2,3,-5,0,3,500.053455,500.053455,502.549685,0,54,54,54,1,55,7,2,gloves      ,camel         ,html/resources/sequences_IDs/B/06_gloves.jpg,html/resources/sequences_IDs/A/03_camel.jpg,6,3,3,2,1,1,5,3,0,7,,,,,,,,,,,,,,,,,,,,
,,,,,7,2020-07-01_10h32.17.371,retriever_ti,2020.1.3,Win32,60,Chrome,1536,864,,,,,,,,,,,,,,,,,1,,,,,,,,,,,,,,,,,,,,,,,,,,,503.16756,56,left,1.38936,wolf          ,6,1,2,1,3,503.201765,503.201765,505.69813,0,55,55,55,1,56,6,4,wolf          ,calculator    ,html/resources/sequences_IDs/A/01_wolf.jpg,html/resources/sequences_IDs/A/09_calculator.jpg,1,9,1,1,4,2,1,7,0,7,,,,,,,,,,,,,,,,,,,,
,,,,,7,2020-07-01_10h32.17.371,retriever_ti,2020.1.3,Win32,60,Chrome,1536,864,,,,,,,,,,,,,,,,,1,,,,,,,,,,,,,,,,,,,,,,,,,,,506.315525,57,left,0.766615,dolphin     ,5,2,1,1,1,506.33336,506.33336,508.8297,0,56,56,56,1,57,5,4,dolphin     ,calculator    ,html/resources/sequences_IDs/B/02_dolphin.jpg,html/resources/sequences_IDs/A/09_calculator.jpg,2,9,1,1,4,2,2,7,0,7,,,,,,,,,,,,,,,,,,,,
,,,,,7,2020-07-01_10h32.17.371,retriever_ti,2020.1.3,Win32,60,Chrome,1536,864,,,,,,,,,,,,,,,,,1,,,,,,,,,,,,,,,,,,,,,,,,,,,509.931245,58,right,1.064715,camel         ,2,3,-1,0,1,509.948065,509.948065,512.444265,0,57,57,57,1,58,3,2,radio       ,camel         ,html/resources/sequences_IDs/B/10_radio.jpg,html/resources/sequences_IDs/A/03_camel.jpg,10,3,4,2,1,1,8,3,1,7,,,,,,,,,,,,,,,,,,,,
,,,,,7,2020-07-01_10h32.17.371,retriever_ti,2020.1.3,Win32,60,Chrome,1536,864,,,,,,,,,,,,,,,,,1,,,,,,,,,,,,,,,,,,,,,,,,,,,513.5453,59,left,0.90086,gloves      ,7,6,-1,0,0,513.5808,513.5808,516.07841,0,58,58,58,1,59,7,8,gloves      ,hat           ,html/resources/sequences_IDs/B/06_gloves.jpg,html/resources/sequences_IDs/A/08_hat.jpg,6,8,3,2,3,2,5,6,0,7,,,,,,,,,,,,,,,,,,,,
,,,,,7,2020-07-01_10h32.17.371,retriever_ti,2020.1.3,Win32,60,Chrome,1536,864,,,,,,,,,,,,,,,,,1,,,,,,,,,,,,,,,,,,,,,,,,,,,517.177955,60,right,1.415905,dolphin     ,5,2,1,1,1,517.21312,517.21312,519.70883,0,59,59,59,1,60,4,5,calculator    ,dolphin     ,html/resources/sequences_IDs/A/09_calculator.jpg,html/resources/sequences_IDs/B/02_dolphin.jpg,9,2,4,2,1,1,7,2,0,7,,,,,,,,,,,,,,,,,,,,
,,,,,7,2020-07-01_10h32.17.371,retriever_ti,2020.1.3,Win32,60,Chrome,1536,864,,,,,,,,,,,,,,,,,1,,,,,,,,,,,,,,,,,,,,,,,,,,,520.809365,61,right,0.899505,radio       ,3,10,-1,0,0,520.844455,520.844455,523.340725,0,60,60,60,1,61,4,3,calculator    ,radio       ,html/resources/sequences_IDs/A/09_calculator.jpg,html/resources/sequences_IDs/B/10_radio.jpg,9,10,4,2,4,2,7,8,0,7,,,,,,,,,,,,,,,,,,,,
,,,,,7,2020-07-01_10h32.17.371,retriever_ti,2020.1.3,Win32,60,Chrome,1536,864,,,,,,,,,,,,,,,,,1,,,,,,,,,,,,,,,,,,,,,,,,,,,524.44217,62,right,1.093335,dolphin     ,5,2,-3,0,3,524.474955,524.474955,526.9711,0,61,61,61,1,62,8,5,hat           ,dolphin     ,html/resources/sequences_IDs/A/08_hat.jpg,html/resources/sequences_IDs/B/02_dolphin.jpg,8,2,3,2,1,1,6,2,0,7,,,,,,,,,,,,,,,,,,,,
,,,,,7,2020-07-01_10h32.17.371,retriever_ti,2020.1.3,Win32,60,Chrome,1536,864,,,,,,,,,,,,,,,,,1,,,,,,,,,,,,,,,,,,,,,,,,,,,527.589055,63,left,0.702005,camel         ,2,3,-1,0,0,527.606855,527.606855,530.1033,0,62,62,62,1,63,2,3,camel         ,radio       ,html/resources/sequences_IDs/A/03_camel.jpg,html/resources/sequences_IDs/B/10_radio.jpg,3,10,1,1,4,2,3,8,0,7,,,,,,,,,,,,,,,,,,,,
,,,,,7,2020-07-01_10h32.17.371,retriever_ti,2020.1.3,Win32,60,Chrome,1536,864,,,,,,,,,,,,,,,,,1,,,,,,,,,,,,,,,,,,,,,,,,,,,531.20475,64,right,0.798695,hat           ,8,8,7,1,3,531.23833,531.23833,533.73521,0,63,63,63,1,64,1,8,holdfast    ,hat           ,html/resources/sequences_IDs/B/04_holdfast.jpg,html/resources/sequences_IDs/A/08_hat.jpg,4,8,2,1,3,2,4,6,0,7,,,,,,,,,,,,,,,,,,,,
,,,,,7,2020-07-01_10h32.17.371,retriever_ti,2020.1.3,Win32,60,Chrome,1536,864,,,,,,,,,,,,,,,,,1,,,,,,,,,,,,,,,,,,,,,,,,,,,534.352235,65,NaN,NaN,No_response,NaN,NaN,NaN,2,2,534.369775,534.369775,536.868685,0,64,64,64,1,65,5,1,dolphin     ,holdfast    ,html/resources/sequences_IDs/B/02_dolphin.jpg,html/resources/sequences_IDs/B/04_holdfast.jpg,2,4,1,1,2,1,2,4,0,7,,,,,,,,,,,,,,,,,,,,
,,,,,7,2020-07-01_10h32.17.371,retriever_ti,2020.1.3,Win32,60,Chrome,1536,864,,,,,,,,,,,,,,,,,1,,,,,,,,,,,,,,,,,,,,,,,,,,,537.96856,66,left,0.780795,gloves      ,7,6,4,1,3,538.0024,538.0024,540.498895,0,65,65,65,1,66,7,3,gloves      ,radio       ,html/resources/sequences_IDs/B/06_gloves.jpg,html/resources/sequences_IDs/B/10_radio.jpg,6,10,3,2,4,2,5,8,0,7,,,,,,,,,,,,,,,,,,,,
,,,,,7,2020-07-01_10h32.17.371,retriever_ti,2020.1.3,Win32,60,Chrome,1536,864,,,,,,,,,,,,,,,,,1,,,,,,,,,,,,,,,,,,,,,,,,,,,541.115685,67,left,1.92022,holdfast    ,1,4,-6,0,3,541.1332,541.1332,543.63103,0,66,66,66,1,67,1,7,holdfast    ,gloves      ,html/resources/sequences_IDs/B/04_holdfast.jpg,html/resources/sequences_IDs/B/06_gloves.jpg,4,6,2,1,3,2,4,5,0,7,,,,,,,,,,,,,,,,,,,,
,,,,,7,2020-07-01_10h32.17.371,retriever_ti,2020.1.3,Win32,60,Chrome,1536,864,,,,,,,,,,,,,,,,,1,,,,,,,,,,,,,,,,,,,,,,,,,,,544.24911,68,left,0.712575,wolf          ,6,1,5,1,3,544.26574,544.26574,546.763355,0,67,67,67,1,68,6,1,wolf          ,holdfast    ,html/resources/sequences_IDs/A/01_wolf.jpg,html/resources/sequences_IDs/B/04_holdfast.jpg,1,4,1,1,2,1,1,4,0,7,,,,,,,,,,,,,,,,,,,,
,,,,,7,2020-07-01_10h32.17.371,retriever_ti,2020.1.3,Win32,60,Chrome,1536,864,,,,,,,,,,,,,,,,,1,,,,,,,,,,,,,,,,,,,,,,,,,,,547.380975,69,left,0.85049,camel         ,2,3,1,1,1,547.399865,547.399865,549.894575,0,68,68,68,1,69,2,1,camel         ,holdfast    ,html/resources/sequences_IDs/A/03_camel.jpg,html/resources/sequences_IDs/B/04_holdfast.jpg,3,4,1,1,2,1,3,4,0,7,,,,,,,,,,,,,,,,,,,,
,,,,,7,2020-07-01_10h32.17.371,retriever_ti,2020.1.3,Win32,60,Chrome,1536,864,,,,,,,,,,,,,,,,,1,,,,,,,,,,,,,,,,,,,,,,,,,,,550.994475,70,left,0.99185,gloves      ,7,6,6,1,3,551.027875,551.027875,553.527265,0,69,69,69,1,70,7,1,gloves      ,holdfast    ,html/resources/sequences_IDs/B/06_gloves.jpg,html/resources/sequences_IDs/B/04_holdfast.jpg,6,4,3,2,2,1,5,4,0,7,,,,,,,,,,,,,,,,,,,,
,,,,,7,2020-07-01_10h32.17.371,retriever_ti,2020.1.3,Win32,60,Chrome,1536,864,,,,,,,,,,,,,,,,,1,,,,,,,,,,,,,,,,,,,,,,,,,,,554.145275,71,left,1.09378,radio       ,3,10,-4,0,3,554.17959,554.17959,556.6755,0,70,70,70,1,71,3,7,radio       ,gloves      ,html/resources/sequences_IDs/B/10_radio.jpg,html/resources/sequences_IDs/B/06_gloves.jpg,10,6,4,2,3,2,8,5,0,7,,,,,,,,,,,,,,,,,,,,
,,,,,7,2020-07-01_10h32.17.371,retriever_ti,2020.1.3,Win32,60,Chrome,1536,864,,,,,,,,,,,,,,,,,1,,,,,,,,,,,,,,,,,,,,,,,,,,,557.29381,72,left,1.974595,wolf          ,6,1,4,1,3,557.31059,557.31059,559.807345,0,71,71,71,1,72,6,2,wolf          ,camel         ,html/resources/sequences_IDs/A/01_wolf.jpg,html/resources/sequences_IDs/A/03_camel.jpg,1,3,1,1,1,1,1,3,0,7,,,,,,,,,,,,,,,,,,,,
,,,,,7,2020-07-01_10h32.17.371,retriever_ti,2020.1.3,Win32,60,Chrome,1536,864,,,,,,,,,,,,,,,,,1,,,,,,,,,,,,,,,,,,,,,,,,,,,560.425355,73,NaN,NaN,No_response,NaN,NaN,NaN,2,2,560.46025,560.46025,562.95622,0,72,72,72,1,73,7,6,gloves      ,wolf          ,html/resources/sequences_IDs/B/06_gloves.jpg,html/resources/sequences_IDs/A/01_wolf.jpg,6,1,3,2,1,1,5,1,0,7,,,,,,,,,,,,,,,,,,,,
,,,,,7,2020-07-01_10h32.17.371,retriever_ti,2020.1.3,Win32,60,Chrome,1536,864,,,,,,,,,,,,,,,,,1,,,,,,,,,,,,,,,,,,,,,,,,,,,564.05714,74,left,0.42991,radio       ,3,10,-2,0,3,564.091675,564.091675,566.58677,0,73,73,73,1,74,3,5,radio       ,dolphin     ,html/resources/sequences_IDs/B/10_radio.jpg,html/resources/sequences_IDs/B/02_dolphin.jpg,10,2,4,2,1,1,8,2,0,7,,,,,,,,,,,,,,,,,,,,
,,,,,7,2020-07-01_10h32.17.371,retriever_ti,2020.1.3,Win32,60,Chrome,1536,864,,,,,,,,,,,,,,,,,1,,,,,,,,,,,,,,,,,,,,,,,,,,,567.18887,75,right,1.122335,radio       ,3,10,-3,0,3,567.207315,567.207315,569.70323,0,74,74,74,1,75,6,3,wolf          ,radio       ,html/resources/sequences_IDs/A/01_wolf.jpg,html/resources/sequences_IDs/B/10_radio.jpg,1,10,1,1,4,2,1,8,0,7,,,,,,,,,,,,,,,,,,,,
,,,,,7,2020-07-01_10h32.17.371,retriever_ti,2020.1.3,Win32,60,Chrome,1536,864,,,,,,,,,,,,,,,,,1,,,,,,,,,,,,,,,,,,,,,,,,,,,570.32058,76,left,1.509335,camel         ,2,3,-5,0,3,570.35419,570.35419,572.8509,0,75,75,75,1,76,2,7,camel         ,gloves      ,html/resources/sequences_IDs/A/03_camel.jpg,html/resources/sequences_IDs/B/06_gloves.jpg,3,6,1,1,3,2,3,5,0,7,,,,,,,,,,,,,,,,,,,,
,,,,,7,2020-07-01_10h32.17.371,retriever_ti,2020.1.3,Win32,60,Chrome,1536,864,,,,,,,,,,,,,,,,,1,,,,,,,,,,,,,,,,,,,,,,,,,,,573.468975,77,left,1.201665,calculator    ,4,9,1,1,1,573.486695,573.486695,575.98393,0,76,76,76,1,77,4,3,calculator    ,radio       ,html/resources/sequences_IDs/A/09_calculator.jpg,html/resources/sequences_IDs/B/10_radio.jpg,9,10,4,2,4,2,7,8,0,7,,,,,,,,,,,,,,,,,,,,
,,,,,7,2020-07-01_10h32.17.371,retriever_ti,2020.1.3,Win32,60,Chrome,1536,864,,,,,,,,,,,,,,,,,,,,,,,,,,,,,,,,,,,,,0,16.25222,,,,,,,,,,,,,,,,,,,,,,,,,,,,,,,,,,,,,,,,,0,0,0,0,1,,,,,,,,,,,,,,,
,,,,,7,2020-07-01_10h32.17.371,retriever_ti,2020.1.3,Win32,60,Chrome,1536,864,,,,,,,,,,,,,,,,,2,,,,,,,,,,,,,,,,,,,,,,,,,,,733.61912,78,right,1.457585,dolphin     ,5,2,-2,0,3,733.630415,733.630415,736.129245,0,0,0,0,1,78,7,5,gloves      ,dolphin     ,html/resources/sequences_IDs/B/06_gloves.jpg,html/resources/sequences_IDs/B/02_dolphin.jpg,6,2,3,2,1,1,5,2,0,7,,,,,,,,,,,,,,,,,,,,
,,,,,7,2020-07-01_10h32.17.371,retriever_ti,2020.1.3,Win32,60,Chrome,1536,864,,,,,,,,,,,,,,,,,2,,,,,,,,,,,,,,,,,,,,,,,,,,,736.74564,79,left,0.963425,radio       ,3,10,-3,0,3,736.77893,736.77893,739.277715,0,1,1,1,1,79,3,6,radio       ,wolf          ,html/resources/sequences_IDs/B/10_radio.jpg,html/resources/sequences_IDs/A/01_wolf.jpg,10,1,4,2,1,1,8,1,0,7,,,,,,,,,,,,,,,,,,,,
,,,,,7,2020-07-01_10h32.17.371,retriever_ti,2020.1.3,Win32,60,Chrome,1536,864,,,,,,,,,,,,,,,,,2,,,,,,,,,,,,,,,,,,,,,,,,,,,739.89617,80,right,0.95924,calculator    ,4,9,-3,0,3,739.91288,739.91288,742.40964,0,2,2,2,1,80,7,4,gloves      ,calculator    ,html/resources/sequences_IDs/B/06_gloves.jpg,html/resources/sequences_IDs/A/09_calculator.jpg,6,9,3,2,4,2,5,7,0,7,,,,,,,,,,,,,,,,,,,,
,,,,,7,2020-07-01_10h32.17.371,retriever_ti,2020.1.3,Win32,60,Chrome,1536,864,,,,,,,,,,,,,,,,,2,,,,,,,,,,,,,,,,,,,,,,,,,,,743.02622,81,right,1.10361,gloves      ,7,6,-1,0,0,743.06154,743.06154,745.557585,0,3,3,3,1,81,8,7,hat           ,gloves      ,html/resources/sequences_IDs/A/08_hat.jpg,html/resources/sequences_IDs/B/06_gloves.jpg,8,6,3,2,3,2,6,5,0,7,,,,,,,,,,,,,,,,,,,,
,,,,,7,2020-07-01_10h32.17.371,retriever_ti,2020.1.3,Win32,60,Chrome,1536,864,,,,,,,,,,,,,,,,,2,,,,,,,,,,,,,,,,,,,,,,,,,,,746.657755,82,left,0.937075,radio       ,3,10,-1,0,0,746.6933,746.6933,749.18989,0,4,4,4,1,82,3,4,radio       ,calculator    ,html/resources/sequences_IDs/B/10_radio.jpg,html/resources/sequences_IDs/A/09_calculator.jpg,10,9,4,2,4,2,8,7,0,7,,,,,,,,,,,,,,,,,,,,
,,,,,7,2020-07-01_10h32.17.371,retriever_ti,2020.1.3,Win32,60,Chrome,1536,864,,,,,,,,,,,,,,,,,2,,,,,,,,,,,,,,,,,,,,,,,,,,,750.289975,83,right,0.573365,camel         ,2,3,-1,0,0,750.307735,750.307735,752.80496,0,5,5,5,1,83,3,2,radio       ,camel         ,html/resources/sequences_IDs/B/10_radio.jpg,html/resources/sequences_IDs/A/03_camel.jpg,10,3,4,2,1,1,8,3,0,7,,,,,,,,,,,,,,,,,,,,
,,,,,7,2020-07-01_10h32.17.371,retriever_ti,2020.1.3,Win32,60,Chrome,1536,864,,,,,,,,,,,,,,,,,2,,,,,,,,,,,,,,,,,,,,,,,,,,,753.906665,84,left,0.881665,wolf          ,6,1,3,1,3,753.923295,753.923295,756.419815,0,6,6,6,1,84,6,3,wolf          ,radio       ,html/resources/sequences_IDs/A/01_wolf.jpg,html/resources/sequences_IDs/B/10_radio.jpg,1,10,1,1,4,2,1,8,0,7,,,,,,,,,,,,,,,,,,,,
,,,,,7,2020-07-01_10h32.17.371,retriever_ti,2020.1.3,Win32,60,Chrome,1536,864,,,,,,,,,,,,,,,,,2,,,,,,,,,,,,,,,,,,,,,,,,,,,757.037235,85,left,0.64815,calculator    ,4,9,-4,0,3,757.071905,757.071905,759.568655,0,7,7,7,1,85,4,8,calculator    ,hat           ,html/resources/sequences_IDs/A/09_calculator.jpg,html/resources/sequences_IDs/A/08_hat.jpg,9,8,4,2,3,2,7,6,0,7,,,,,,,,,,,,,,,,,,,,
,,,,,7,2020-07-01_10h32.17.371,retriever_ti,2020.1.3,Win32,60,Chrome,1536,864,,,,,,,,,,,,,,,,,2,,,,,,,,,,,,,,,,,,,,,,,,,,,760.18744,86,right,1.52969,gloves      ,7,6,-1,0,0,760.2048,760.2048,762.701335,0,8,8,8,1,86,8,7,hat           ,gloves      ,html/resources/sequences_IDs/A/08_hat.jpg,html/resources/sequences_IDs/B/06_gloves.jpg,8,6,3,2,3,2,6,5,0,7,,,,,,,,,,,,,,,,,,,,
,,,,,7,2020-07-01_10h32.17.371,retriever_ti,2020.1.3,Win32,60,Chrome,1536,864,,,,,,,,,,,,,,,,,2,,,,,,,,,,,,,,,,,,,,,,,,,,,763.801925,87,left,0.53618,holdfast    ,1,4,-4,0,3,763.81964,763.81964,766.315815,0,9,9,9,1,87,1,5,holdfast    ,dolphin     ,html/resources/sequences_IDs/B/04_holdfast.jpg,html/resources/sequences_IDs/B/02_dolphin.jpg,4,2,2,1,1,1,4,2,0,7,,,,,,,,,,,,,,,,,,,,
,,,,,7,2020-07-01_10h32.17.371,retriever_ti,2020.1.3,Win32,60,Chrome,1536,864,,,,,,,,,,,,,,,,,2,,,,,,,,,,,,,,,,,,,,,,,,,,,766.933325,88,right,0.81762,dolphin     ,5,2,-1,0,0,766.968115,766.968115,769.465625,0,10,10,10,1,88,6,5,wolf          ,dolphin     ,html/resources/sequences_IDs/A/01_wolf.jpg,html/resources/sequences_IDs/B/02_dolphin.jpg,1,2,1,1,1,1,1,2,0,7,,,,,,,,,,,,,,,,,,,,
,,,,,7,2020-07-01_10h32.17.371,retriever_ti,2020.1.3,Win32,60,Chrome,1536,864,,,,,,,,,,,,,,,,,2,,,,,,,,,,,,,,,,,,,,,,,,,,,770.56503,89,left,0.33754,gloves      ,7,6,-1,0,0,770.599815,770.599815,773.09635,0,11,11,11,1,89,7,8,gloves      ,hat           ,html/resources/sequences_IDs/B/06_gloves.jpg,html/resources/sequences_IDs/A/08_hat.jpg,6,8,3,2,3,2,5,6,0,7,,,,,,,,,,,,,,,,,,,,
,,,,,7,2020-07-01_10h32.17.371,retriever_ti,2020.1.3,Win32,60,Chrome,1536,864,,,,,,,,,,,,,,,,,2,,,,,,,,,,,,,,,,,,,,,,,,,,,774.198155,90,left,0.75238,radio       ,3,10,-4,0,3,774.231965,774.231965,776.728375,0,12,12,12,1,90,3,7,radio       ,gloves      ,html/resources/sequences_IDs/B/10_radio.jpg,html/resources/sequences_IDs/B/06_gloves.jpg,10,6,4,2,3,2,8,5,0,7,,,,,,,,,,,,,,,,,,,,
,,,,,7,2020-07-01_10h32.17.371,retriever_ti,2020.1.3,Win32,60,Chrome,1536,864,,,,,,,,,,,,,,,,,2,,,,,,,,,,,,,,,,,,,,,,,,,,,777.34509,91,right,0.72603,calculator    ,4,9,3,1,3,777.36303,777.36303,779.86029,0,13,13,13,1,91,1,4,holdfast    ,calculator    ,html/resources/sequences_IDs/B/04_holdfast.jpg,html/resources/sequences_IDs/A/09_calculator.jpg,4,9,2,1,4,2,4,7,0,7,,,,,,,,,,,,,,,,,,,,
,,,,,7,2020-07-01_10h32.17.371,retriever_ti,2020.1.3,Win32,60,Chrome,1536,864,,,,,,,,,,,,,,,,,2,,,,,,,,,,,,,,,,,,,,,,,,,,,780.478415,92,left,0.869795,wolf          ,6,1,-1,0,0,780.512255,780.512255,783.008265,0,14,14,14,1,92,6,7,wolf          ,gloves      ,html/resources/sequences_IDs/A/01_wolf.jpg,html/resources/sequences_IDs/B/06_gloves.jpg,1,6,1,1,3,2,1,5,0,7,,,,,,,,,,,,,,,,,,,,
,,,,,7,2020-07-01_10h32.17.371,retriever_ti,2020.1.3,Win32,60,Chrome,1536,864,,,,,,,,,,,,,,,,,2,,,,,,,,,,,,,,,,,,,,,,,,,,,784.11016,93,left,1.024485,radio       ,3,10,-1,0,0,784.12651,784.12651,786.622685,0,15,15,15,1,93,3,4,radio       ,calculator    ,html/resources/sequences_IDs/B/10_radio.jpg,html/resources/sequences_IDs/A/09_calculator.jpg,10,9,4,2,4,2,8,7,0,7,,,,,,,,,,,,,,,,,,,,
,,,,,7,2020-07-01_10h32.17.371,retriever_ti,2020.1.3,Win32,60,Chrome,1536,864,,,,,,,,,,,,,,,,,2,,,,,,,,,,,,,,,,,,,,,,,,,,,787.724905,94,right,1.805755,hat           ,8,8,1,1,1,787.758525,787.758525,790.25507,0,16,16,16,1,94,7,8,gloves      ,hat           ,html/resources/sequences_IDs/B/06_gloves.jpg,html/resources/sequences_IDs/A/08_hat.jpg,6,8,3,2,3,2,5,6,0,7,,,,,,,,,,,,,,,,,,,,
,,,,,7,2020-07-01_10h32.17.371,retriever_ti,2020.1.3,Win32,60,Chrome,1536,864,,,,,,,,,,,,,,,,,2,,,,,,,,,,,,,,,,,,,,,,,,,,,791.35499,95,right,1.439295,radio       ,3,10,-4,0,3,791.38935,791.38935,793.887605,0,17,17,17,1,95,7,3,gloves      ,radio       ,html/resources/sequences_IDs/B/06_gloves.jpg,html/resources/sequences_IDs/B/10_radio.jpg,6,10,3,2,4,2,5,8,0,7,,,,,,,,,,,,,,,,,,,,
,,,,,7,2020-07-01_10h32.17.371,retriever_ti,2020.1.3,Win32,60,Chrome,1536,864,,,,,,,,,,,,,,,,,2,,,,,,,,,,,,,,,,,,,,,,,,,,,794.50618,96,NaN,NaN,No_response,NaN,NaN,NaN,2,2,794.52179,794.52179,797.01881,0,18,18,18,1,96,4,2,calculator    ,camel         ,html/resources/sequences_IDs/A/09_calculator.jpg,html/resources/sequences_IDs/A/03_camel.jpg,9,3,4,2,1,1,7,3,0,7,,,,,,,,,,,,,,,,,,,,
,,,,,7,2020-07-01_10h32.17.371,retriever_ti,2020.1.3,Win32,60,Chrome,1536,864,,,,,,,,,,,,,,,,,2,,,,,,,,,,,,,,,,,,,,,,,,,,,798.118845,97,right,1.375325,wolf          ,6,1,2,1,3,798.153575,798.153575,800.6506,0,19,19,19,1,97,4,6,calculator    ,wolf          ,html/resources/sequences_IDs/A/09_calculator.jpg,html/resources/sequences_IDs/A/01_wolf.jpg,9,1,4,2,1,1,7,1,0,7,,,,,,,,,,,,,,,,,,,,
,,,,,7,2020-07-01_10h32.17.371,retriever_ti,2020.1.3,Win32,60,Chrome,1536,864,,,,,,,,,,,,,,,,,2,,,,,,,,,,,,,,,,,,,,,,,,,,,801.2693,98,right,0.74571,camel         ,2,3,1,1,1,801.28677,801.28677,803.782315,0,20,20,20,1,98,1,2,holdfast    ,camel         ,html/resources/sequences_IDs/B/04_holdfast.jpg,html/resources/sequences_IDs/A/03_camel.jpg,4,3,2,1,1,1,4,3,0,7,,,,,,,,,,,,,,,,,,,,
,,,,,7,2020-07-01_10h32.17.371,retriever_ti,2020.1.3,Win32,60,Chrome,1536,864,,,,,,,,,,,,,,,,,2,,,,,,,,,,,,,,,,,,,,,,,,,,,804.882585,99,right,0.802335,radio       ,3,10,-2,0,3,804.900765,804.900765,807.397385,0,21,21,21,1,99,5,3,dolphin     ,radio       ,html/resources/sequences_IDs/B/02_dolphin.jpg,html/resources/sequences_IDs/B/10_radio.jpg,2,10,1,1,4,2,2,8,0,7,,,,,,,,,,,,,,,,,,,,
,,,,,7,2020-07-01_10h32.17.371,retriever_ti,2020.1.3,Win32,60,Chrome,1536,864,,,,,,,,,,,,,,,,,2,,,,,,,,,,,,,,,,,,,,,,,,,,,808.015965,100,right,1.27779,calculator    ,4,9,-4,0,3,808.03272,808.03272,810.52899,0,22,22,22,1,100,8,4,hat           ,calculator    ,html/resources/sequences_IDs/A/08_hat.jpg,html/resources/sequences_IDs/A/09_calculator.jpg,8,9,3,2,4,2,6,7,0,7,,,,,,,,,,,,,,,,,,,,
,,,,,7,2020-07-01_10h32.17.371,retriever_ti,2020.1.3,Win32,60,Chrome,1536,864,,,,,,,,,,,,,,,,,2,,,,,,,,,,,,,,,,,,,,,,,,,,,811.146225,101,right,1.073265,dolphin     ,5,2,-1,0,1,811.16403,811.16403,813.66137,0,23,23,23,1,101,6,5,wolf          ,dolphin     ,html/resources/sequences_IDs/A/01_wolf.jpg,html/resources/sequences_IDs/B/02_dolphin.jpg,1,2,1,1,1,1,1,2,1,7,,,,,,,,,,,,,,,,,,,,
,,,,,7,2020-07-01_10h32.17.371,retriever_ti,2020.1.3,Win32,60,Chrome,1536,864,,,,,,,,,,,,,,,,,2,,,,,,,,,,,,,,,,,,,,,,,,,,,814.763925,102,right,0.91009,radio       ,3,10,2,1,3,814.797535,814.797535,817.294135,0,24,24,24,1,102,1,3,holdfast    ,radio       ,html/resources/sequences_IDs/B/04_holdfast.jpg,html/resources/sequences_IDs/B/10_radio.jpg,4,10,2,1,4,2,4,8,0,7,,,,,,,,,,,,,,,,,,,,
,,,,,7,2020-07-01_10h32.17.371,retriever_ti,2020.1.3,Win32,60,Chrome,1536,864,,,,,,,,,,,,,,,,,2,,,,,,,,,,,,,,,,,,,,,,,,,,,817.91147,103,left,0.881015,dolphin     ,5,2,-1,0,0,817.92961,817.92961,820.42539,0,25,25,25,1,103,5,6,dolphin     ,wolf          ,html/resources/sequences_IDs/B/02_dolphin.jpg,html/resources/sequences_IDs/A/01_wolf.jpg,2,1,1,1,1,1,2,1,0,7,,,,,,,,,,,,,,,,,,,,
,,,,,7,2020-07-01_10h32.17.371,retriever_ti,2020.1.3,Win32,60,Chrome,1536,864,,,,,,,,,,,,,,,,,2,,,,,,,,,,,,,,,,,,,,,,,,,,,821.527595,104,left,0.833335,camel         ,2,3,-2,0,3,821.54533,821.54533,824.039515,0,26,26,26,1,104,2,4,camel         ,calculator    ,html/resources/sequences_IDs/A/03_camel.jpg,html/resources/sequences_IDs/A/09_calculator.jpg,3,9,1,1,4,2,3,7,0,7,,,,,,,,,,,,,,,,,,,,
,,,,,7,2020-07-01_10h32.17.371,retriever_ti,2020.1.3,Win32,60,Chrome,1536,864,,,,,,,,,,,,,,,,,2,,,,,,,,,,,,,,,,,,,,,,,,,,,824.65638,105,left,1.06089,dolphin     ,5,2,-1,0,0,824.691915,824.691915,827.18963,0,27,27,27,1,105,5,6,dolphin     ,wolf          ,html/resources/sequences_IDs/B/02_dolphin.jpg,html/resources/sequences_IDs/A/01_wolf.jpg,2,1,1,1,1,1,2,1,0,7,,,,,,,,,,,,,,,,,,,,
,,,,,7,2020-07-01_10h32.17.371,retriever_ti,2020.1.3,Win32,60,Chrome,1536,864,,,,,,,,,,,,,,,,,2,,,,,,,,,,,,,,,,,,,,,,,,,,,828.290605,106,left,2.034905,calculator    ,4,9,3,1,3,828.30661,828.30661,830.80305,0,28,28,28,1,106,4,1,calculator    ,holdfast    ,html/resources/sequences_IDs/A/09_calculator.jpg,html/resources/sequences_IDs/B/04_holdfast.jpg,9,4,4,2,2,1,7,4,0,7,,,,,,,,,,,,,,,,,,,,
,,,,,7,2020-07-01_10h32.17.371,retriever_ti,2020.1.3,Win32,60,Chrome,1536,864,,,,,,,,,,,,,,,,,2,,,,,,,,,,,,,,,,,,,,,,,,,,,831.40452,107,right,0.94143,camel         ,2,3,1,1,1,831.422655,831.422655,833.919085,0,29,29,29,1,107,1,2,holdfast    ,camel         ,html/resources/sequences_IDs/B/04_holdfast.jpg,html/resources/sequences_IDs/A/03_camel.jpg,4,3,2,1,1,1,4,3,0,7,,,,,,,,,,,,,,,,,,,,
,,,,,7,2020-07-01_10h32.17.371,retriever_ti,2020.1.3,Win32,60,Chrome,1536,864,,,,,,,,,,,,,,,,,2,,,,,,,,,,,,,,,,,,,,,,,,,,,835.021075,108,left,1.252025,wolf          ,6,1,-2,0,3,835.03791,835.03791,837.53439,0,30,30,30,1,108,6,8,wolf          ,hat           ,html/resources/sequences_IDs/A/01_wolf.jpg,html/resources/sequences_IDs/A/08_hat.jpg,1,8,1,1,3,2,1,6,0,7,,,,,,,,,,,,,,,,,,,,
,,,,,7,2020-07-01_10h32.17.371,retriever_ti,2020.1.3,Win32,60,Chrome,1536,864,,,,,,,,,,,,,,,,,2,,,,,,,,,,,,,,,,,,,,,,,,,,,838.135345,109,NaN,NaN,No_response,NaN,NaN,NaN,2,2,838.1692,838.1692,840.665855,0,31,31,31,1,109,1,6,holdfast    ,wolf          ,html/resources/sequences_IDs/B/04_holdfast.jpg,html/resources/sequences_IDs/A/01_wolf.jpg,4,1,2,1,1,1,4,1,0,7,,,,,,,,,,,,,,,,,,,,
,,,,,7,2020-07-01_10h32.17.371,retriever_ti,2020.1.3,Win32,60,Chrome,1536,864,,,,,,,,,,,,,,,,,2,,,,,,,,,,,,,,,,,,,,,,,,,,,841.767705,110,left,1.45136,dolphin     ,5,2,-3,0,3,841.78516,841.78516,844.281865,0,32,32,32,1,110,5,8,dolphin     ,hat           ,html/resources/sequences_IDs/B/02_dolphin.jpg,html/resources/sequences_IDs/A/08_hat.jpg,2,8,1,1,3,2,2,6,0,7,,,,,,,,,,,,,,,,,,,,
,,,,,7,2020-07-01_10h32.17.371,retriever_ti,2020.1.3,Win32,60,Chrome,1536,864,,,,,,,,,,,,,,,,,2,,,,,,,,,,,,,,,,,,,,,,,,,,,844.89914,111,right,0.90068,radio       ,3,10,-5,0,3,844.934515,844.934515,847.429745,0,33,33,33,1,111,8,3,hat           ,radio       ,html/resources/sequences_IDs/A/08_hat.jpg,html/resources/sequences_IDs/B/10_radio.jpg,8,10,3,2,4,2,6,8,0,7,,,,,,,,,,,,,,,,,,,,
,,,,,7,2020-07-01_10h32.17.371,retriever_ti,2020.1.3,Win32,60,Chrome,1536,864,,,,,,,,,,,,,,,,,2,,,,,,,,,,,,,,,,,,,,,,,,,,,848.0482,112,NaN,NaN,No_response,NaN,NaN,NaN,2,2,848.082195,848.082195,850.578395,0,34,34,34,1,112,3,5,radio       ,dolphin     ,html/resources/sequences_IDs/B/10_radio.jpg,html/resources/sequences_IDs/B/02_dolphin.jpg,10,2,4,2,1,1,8,2,0,7,,,,,,,,,,,,,,,,,,,,
,,,,,7,2020-07-01_10h32.17.371,retriever_ti,2020.1.3,Win32,60,Chrome,1536,864,,,,,,,,,,,,,,,,,2,,,,,,,,,,,,,,,,,,,,,,,,,,,851.679075,113,left,1.2825,camel         ,2,3,-3,0,3,851.713895,851.713895,854.210815,0,35,35,35,1,113,2,5,camel         ,dolphin     ,html/resources/sequences_IDs/A/03_camel.jpg,html/resources/sequences_IDs/B/02_dolphin.jpg,3,2,1,1,1,1,3,2,0,7,,,,,,,,,,,,,,,,,,,,
,,,,,7,2020-07-01_10h32.17.371,retriever_ti,2020.1.3,Win32,60,Chrome,1536,864,,,,,,,,,,,,,,,,,2,,,,,,,,,,,,,,,,,,,,,,,,,,,854.82901,114,left,0.69505,radio       ,3,10,2,1,3,854.846,854.846,857.342165,0,36,36,36,1,114,3,1,radio       ,holdfast    ,html/resources/sequences_IDs/B/10_radio.jpg,html/resources/sequences_IDs/B/04_holdfast.jpg,10,4,4,2,2,1,8,4,0,7,,,,,,,,,,,,,,,,,,,,
,,,,,7,2020-07-01_10h32.17.371,retriever_ti,2020.1.3,Win32,60,Chrome,1536,864,,,,,,,,,,,,,,,,,2,,,,,,,,,,,,,,,,,,,,,,,,,,,857.96054,115,left,1.076035,camel         ,2,3,-6,0,3,857.9787,857.9787,860.473775,0,37,37,37,1,115,2,8,camel         ,hat           ,html/resources/sequences_IDs/A/03_camel.jpg,html/resources/sequences_IDs/A/08_hat.jpg,3,8,1,1,3,2,3,6,0,7,,,,,,,,,,,,,,,,,,,,
,,,,,7,2020-07-01_10h32.17.371,retriever_ti,2020.1.3,Win32,60,Chrome,1536,864,,,,,,,,,,,,,,,,,2,,,,,,,,,,,,,,,,,,,,,,,,,,,861.09239,116,right,0.79947,camel         ,2,3,-3,0,3,861.10921,861.10921,863.606725,0,38,38,38,1,116,5,2,dolphin     ,camel         ,html/resources/sequences_IDs/B/02_dolphin.jpg,html/resources/sequences_IDs/A/03_camel.jpg,2,3,1,1,1,1,2,3,0,7,,,,,,,,,,,,,,,,,,,,
,,,,,7,2020-07-01_10h32.17.371,retriever_ti,2020.1.3,Win32,60,Chrome,1536,864,,,,,,,,,,,,,,,,,2,,,,,,,,,,,,,,,,,,,,,,,,,,,864.224415,117,left,1.04455,hat           ,8,8,7,1,3,864.24269,864.24269,866.741465,0,39,39,39,1,117,8,1,hat           ,holdfast    ,html/resources/sequences_IDs/A/08_hat.jpg,html/resources/sequences_IDs/B/04_holdfast.jpg,8,4,3,2,2,1,6,4,0,7,,,,,,,,,,,,,,,,,,,,
,,,,,7,2020-07-01_10h32.17.371,retriever_ti,2020.1.3,Win32,60,Chrome,1536,864,,,,,,,,,,,,,,,,,2,,,,,,,,,,,,,,,,,,,,,,,,,,,867.357345,118,left,0.597845,camel         ,2,3,-4,0,3,867.374795,867.374795,869.86975,0,40,40,40,1,118,2,6,camel         ,wolf          ,html/resources/sequences_IDs/A/03_camel.jpg,html/resources/sequences_IDs/A/01_wolf.jpg,3,1,1,1,1,1,3,1,0,7,,,,,,,,,,,,,,,,,,,,
,,,,,7,2020-07-01_10h32.17.371,retriever_ti,2020.1.3,Win32,60,Chrome,1536,864,,,,,,,,,,,,,,,,,2,,,,,,,,,,,,,,,,,,,,,,,,,,,870.488455,119,left,0.564305,camel         ,2,3,1,1,1,870.523145,870.523145,873.01934,0,41,41,41,1,119,2,1,camel         ,holdfast    ,html/resources/sequences_IDs/A/03_camel.jpg,html/resources/sequences_IDs/B/04_holdfast.jpg,3,4,1,1,2,1,3,4,0,7,,,,,,,,,,,,,,,,,,,,
,,,,,7,2020-07-01_10h32.17.371,retriever_ti,2020.1.3,Win32,60,Chrome,1536,864,,,,,,,,,,,,,,,,,2,,,,,,,,,,,,,,,,,,,,,,,,,,,874.119445,120,left,0.86225,dolphin     ,5,2,1,1,1,874.153135,874.153135,876.65053,0,42,42,42,1,120,5,4,dolphin     ,calculator    ,html/resources/sequences_IDs/B/02_dolphin.jpg,html/resources/sequences_IDs/A/09_calculator.jpg,2,9,1,1,4,2,2,7,0,7,,,,,,,,,,,,,,,,,,,,
,,,,,7,2020-07-01_10h32.17.371,retriever_ti,2020.1.3,Win32,60,Chrome,1536,864,,,,,,,,,,,,,,,,,2,,,,,,,,,,,,,,,,,,,,,,,,,,,877.7511,121,right,1.165455,gloves      ,7,6,3,1,3,877.769485,877.769485,880.265125,0,43,43,43,1,121,4,7,calculator    ,gloves      ,html/resources/sequences_IDs/A/09_calculator.jpg,html/resources/sequences_IDs/B/06_gloves.jpg,9,6,4,2,3,2,7,5,0,7,,,,,,,,,,,,,,,,,,,,
,,,,,7,2020-07-01_10h32.17.371,retriever_ti,2020.1.3,Win32,60,Chrome,1536,864,,,,,,,,,,,,,,,,,2,,,,,,,,,,,,,,,,,,,,,,,,,,,880.88441,122,left,0.74339,holdfast    ,1,4,-7,0,3,880.91812,880.91812,883.413795,0,44,44,44,1,122,1,8,holdfast    ,hat           ,html/resources/sequences_IDs/B/04_holdfast.jpg,html/resources/sequences_IDs/A/08_hat.jpg,4,8,2,1,3,2,4,6,0,7,,,,,,,,,,,,,,,,,,,,
,,,,,7,2020-07-01_10h32.17.371,retriever_ti,2020.1.3,Win32,60,Chrome,1536,864,,,,,,,,,,,,,,,,,2,,,,,,,,,,,,,,,,,,,,,,,,,,,884.031355,123,right,0.949415,wolf          ,6,1,-1,0,0,884.04872,884.04872,886.546625,0,45,45,45,1,123,7,6,gloves      ,wolf          ,html/resources/sequences_IDs/B/06_gloves.jpg,html/resources/sequences_IDs/A/01_wolf.jpg,6,1,3,2,1,1,5,1,0,7,,,,,,,,,,,,,,,,,,,,
,,,,,7,2020-07-01_10h32.17.371,retriever_ti,2020.1.3,Win32,60,Chrome,1536,864,,,,,,,,,,,,,,,,,2,,,,,,,,,,,,,,,,,,,,,,,,,,,887.64743,124,left,0.42372,gloves      ,7,6,5,1,3,887.6649,887.6649,890.160725,0,46,46,46,1,124,7,2,gloves      ,camel         ,html/resources/sequences_IDs/B/06_gloves.jpg,html/resources/sequences_IDs/A/03_camel.jpg,6,3,3,2,1,1,5,3,0,7,,,,,,,,,,,,,,,,,,,,
,,,,,7,2020-07-01_10h32.17.371,retriever_ti,2020.1.3,Win32,60,Chrome,1536,864,,,,,,,,,,,,,,,,,2,,,,,,,,,,,,,,,,,,,,,,,,,,,890.77902,125,left,0.860105,camel         ,2,3,-1,0,0,890.814605,890.814605,893.30912,0,47,47,47,1,125,2,3,camel         ,radio       ,html/resources/sequences_IDs/A/03_camel.jpg,html/resources/sequences_IDs/B/10_radio.jpg,3,10,1,1,4,2,3,8,0,7,,,,,,,,,,,,,,,,,,,,
,,,,,7,2020-07-01_10h32.17.371,retriever_ti,2020.1.3,Win32,60,Chrome,1536,864,,,,,,,,,,,,,,,,,2,,,,,,,,,,,,,,,,,,,,,,,,,,,894.411155,126,left,0.46826,camel         ,2,3,1,1,1,894.428235,894.428235,896.92534,0,48,48,48,1,126,2,1,camel         ,holdfast    ,html/resources/sequences_IDs/A/03_camel.jpg,html/resources/sequences_IDs/B/04_holdfast.jpg,3,4,1,1,2,1,3,4,0,7,,,,,,,,,,,,,,,,,,,,
,,,,,7,2020-07-01_10h32.17.371,retriever_ti,2020.1.3,Win32,60,Chrome,1536,864,,,,,,,,,,,,,,,,,2,,,,,,,,,,,,,,,,,,,,,,,,,,,898.025735,127,right,0.56634,camel         ,2,3,-1,0,0,898.044185,898.044185,900.53943,0,49,49,49,1,127,3,2,radio       ,camel         ,html/resources/sequences_IDs/B/10_radio.jpg,html/resources/sequences_IDs/A/03_camel.jpg,10,3,4,2,1,1,8,3,0,7,,,,,,,,,,,,,,,,,,,,
,,,,,7,2020-07-01_10h32.17.371,retriever_ti,2020.1.3,Win32,60,Chrome,1536,864,,,,,,,,,,,,,,,,,2,,,,,,,,,,,,,,,,,,,,,,,,,,,901.64042,128,left,0.32365,hat           ,8,8,2,1,3,901.65734,901.65734,904.154575,0,50,50,50,1,128,8,6,hat           ,wolf          ,html/resources/sequences_IDs/A/08_hat.jpg,html/resources/sequences_IDs/A/01_wolf.jpg,8,1,3,2,1,1,6,1,0,7,,,,,,,,,,,,,,,,,,,,
,,,,,7,2020-07-01_10h32.17.371,retriever_ti,2020.1.3,Win32,60,Chrome,1536,864,,,,,,,,,,,,,,,,,2,,,,,,,,,,,,,,,,,,,,,,,,,,,904.771695,129,right,0.762475,holdfast    ,1,4,-4,0,3,904.789885,904.789885,907.28749,0,51,51,51,1,129,5,1,dolphin     ,holdfast    ,html/resources/sequences_IDs/B/02_dolphin.jpg,html/resources/sequences_IDs/B/04_holdfast.jpg,2,4,1,1,2,1,2,4,0,7,,,,,,,,,,,,,,,,,,,,
,,,,,7,2020-07-01_10h32.17.371,retriever_ti,2020.1.3,Win32,60,Chrome,1536,864,,,,,,,,,,,,,,,,,2,,,,,,,,,,,,,,,,,,,,,,,,,,,907.90473,130,left,0.78232,calculator    ,4,9,1,1,1,907.92172,907.92172,910.418475,0,52,52,52,1,130,4,3,calculator    ,radio       ,html/resources/sequences_IDs/A/09_calculator.jpg,html/resources/sequences_IDs/B/10_radio.jpg,9,10,4,2,4,2,7,8,0,7,,,,,,,,,,,,,,,,,,,,
,,,,,7,2020-07-01_10h32.17.371,retriever_ti,2020.1.3,Win32,60,Chrome,1536,864,,,,,,,,,,,,,,,,,2,,,,,,,,,,,,,,,,,,,,,,,,,,,911.51859,131,left,0.607585,wolf          ,6,1,-1,0,0,911.55319,911.55319,914.050085,0,53,53,53,1,131,6,7,wolf          ,gloves      ,html/resources/sequences_IDs/A/01_wolf.jpg,html/resources/sequences_IDs/B/06_gloves.jpg,1,6,1,1,3,2,1,5,0,7,,,,,,,,,,,,,,,,,,,,
,,,,,7,2020-07-01_10h32.17.371,retriever_ti,2020.1.3,Win32,60,Chrome,1536,864,,,,,,,,,,,,,,,,,2,,,,,,,,,,,,,,,,,,,,,,,,,,,915.15141,132,right,0.492665,gloves      ,7,6,1,1,0,915.185035,915.185035,917.68279,0,54,54,54,1,132,6,7,wolf          ,gloves      ,html/resources/sequences_IDs/A/01_wolf.jpg,html/resources/sequences_IDs/B/06_gloves.jpg,1,6,1,1,3,2,1,5,1,7,,,,,,,,,,,,,,,,,,,,
,,,,,7,2020-07-01_10h32.17.371,retriever_ti,2020.1.3,Win32,60,Chrome,1536,864,,,,,,,,,,,,,,,,,2,,,,,,,,,,,,,,,,,,,,,,,,,,,918.782485,133,right,0.836805,gloves      ,7,6,6,1,3,918.81511,918.81511,921.314695,0,55,55,55,1,133,1,7,holdfast    ,gloves      ,html/resources/sequences_IDs/B/04_holdfast.jpg,html/resources/sequences_IDs/B/06_gloves.jpg,4,6,2,1,3,2,4,5,0,7,,,,,,,,,,,,,,,,,,,,
,,,,,7,2020-07-01_10h32.17.371,retriever_ti,2020.1.3,Win32,60,Chrome,1536,864,,,,,,,,,,,,,,,,,2,,,,,,,,,,,,,,,,,,,,,,,,,,,921.93308,134,left,0.61803,dolphin     ,5,2,-2,0,3,921.96644,921.96644,924.462615,0,56,56,56,1,134,5,7,dolphin     ,gloves      ,html/resources/sequences_IDs/B/02_dolphin.jpg,html/resources/sequences_IDs/B/06_gloves.jpg,2,6,1,1,3,2,2,5,0,7,,,,,,,,,,,,,,,,,,,,
,,,,,7,2020-07-01_10h32.17.371,retriever_ti,2020.1.3,Win32,60,Chrome,1536,864,,,,,,,,,,,,,,,,,2,,,,,,,,,,,,,,,,,,,,,,,,,,,925.080115,135,NaN,NaN,No_response,NaN,NaN,NaN,2,2,925.098685,925.098685,927.593625,0,57,57,57,1,135,6,2,wolf          ,camel         ,html/resources/sequences_IDs/A/01_wolf.jpg,html/resources/sequences_IDs/A/03_camel.jpg,1,3,1,1,1,1,1,3,0,7,,,,,,,,,,,,,,,,,,,,
,,,,,7,2020-07-01_10h32.17.371,retriever_ti,2020.1.3,Win32,60,Chrome,1536,864,,,,,,,,,,,,,,,,,2,,,,,,,,,,,,,,,,,,,,,,,,,,,928.693695,136,left,0.42964,dolphin     ,5,2,1,1,1,928.72816,928.72816,931.2258,0,58,58,58,1,136,5,4,dolphin     ,calculator    ,html/resources/sequences_IDs/B/02_dolphin.jpg,html/resources/sequences_IDs/A/09_calculator.jpg,2,9,1,1,4,2,2,7,0,7,,,,,,,,,,,,,,,,,,,,
,,,,,7,2020-07-01_10h32.17.371,retriever_ti,2020.1.3,Win32,60,Chrome,1536,864,,,,,,,,,,,,,,,,,2,,,,,,,,,,,,,,,,,,,,,,,,,,,932.326035,137,left,0.515085,wolf          ,6,1,1,1,1,932.36066,932.36066,934.85852,0,59,59,59,1,137,6,5,wolf          ,dolphin     ,html/resources/sequences_IDs/A/01_wolf.jpg,html/resources/sequences_IDs/B/02_dolphin.jpg,1,2,1,1,1,1,1,2,0,7,,,,,,,,,,,,,,,,,,,,
,,,,,7,2020-07-01_10h32.17.371,retriever_ti,2020.1.3,Win32,60,Chrome,1536,864,,,,,,,,,,,,,,,,,2,,,,,,,,,,,,,,,,,,,,,,,,,,,935.9609,138,left,0.809075,gloves      ,7,6,-1,0,1,935.993955,935.993955,938.488775,0,60,60,60,1,138,7,8,gloves      ,hat           ,html/resources/sequences_IDs/B/06_gloves.jpg,html/resources/sequences_IDs/A/08_hat.jpg,6,8,3,2,3,2,5,6,1,7,,,,,,,,,,,,,,,,,,,,
,,,,,7,2020-07-01_10h32.17.371,retriever_ti,2020.1.3,Win32,60,Chrome,1536,864,,,,,,,,,,,,,,,,,2,,,,,,,,,,,,,,,,,,,,,,,,,,,939.588565,139,left,0.503935,camel         ,2,3,-1,0,0,939.60588,939.60588,942.10431,0,61,61,61,1,139,2,3,camel         ,radio       ,html/resources/sequences_IDs/A/03_camel.jpg,html/resources/sequences_IDs/B/10_radio.jpg,3,10,1,1,4,2,3,8,0,7,,,,,,,,,,,,,,,,,,,,
,,,,,7,2020-07-01_10h32.17.371,retriever_ti,2020.1.3,Win32,60,Chrome,1536,864,,,,,,,,,,,,,,,,,2,,,,,,,,,,,,,,,,,,,,,,,,,,,943.206565,140,right,0.833865,wolf          ,6,1,-1,0,0,943.2395,943.2395,945.73642,0,62,62,62,1,140,7,6,gloves      ,wolf          ,html/resources/sequences_IDs/B/06_gloves.jpg,html/resources/sequences_IDs/A/01_wolf.jpg,6,1,3,2,1,1,5,1,0,7,,,,,,,,,,,,,,,,,,,,
,,,,,7,2020-07-01_10h32.17.371,retriever_ti,2020.1.3,Win32,60,Chrome,1536,864,,,,,,,,,,,,,,,,,2,,,,,,,,,,,,,,,,,,,,,,,,,,,946.83625,141,left,0.42406,gloves      ,7,6,6,1,3,946.87073,946.87073,949.36742,0,63,63,63,1,141,7,1,gloves      ,holdfast    ,html/resources/sequences_IDs/B/06_gloves.jpg,html/resources/sequences_IDs/B/04_holdfast.jpg,6,4,3,2,2,1,5,4,0,7,,,,,,,,,,,,,,,,,,,,
,,,,,7,2020-07-01_10h32.17.371,retriever_ti,2020.1.3,Win32,60,Chrome,1536,864,,,,,,,,,,,,,,,,,2,,,,,,,,,,,,,,,,,,,,,,,,,,,949.9862,142,left,0.665955,calculator    ,4,9,1,1,1,950.002825,950.002825,952.500015,0,64,64,64,1,142,4,3,calculator    ,radio       ,html/resources/sequences_IDs/A/09_calculator.jpg,html/resources/sequences_IDs/B/10_radio.jpg,9,10,4,2,4,2,7,8,0,7,,,,,,,,,,,,,,,,,,,,
,,,,,7,2020-07-01_10h32.17.371,retriever_ti,2020.1.3,Win32,60,Chrome,1536,864,,,,,,,,,,,,,,,,,2,,,,,,,,,,,,,,,,,,,,,,,,,,,953.600365,143,right,0.65622,calculator    ,4,9,-1,0,1,953.616805,953.616805,956.114785,0,65,65,65,1,143,5,4,dolphin     ,calculator    ,html/resources/sequences_IDs/B/02_dolphin.jpg,html/resources/sequences_IDs/A/09_calculator.jpg,2,9,1,1,4,2,2,7,1,7,,,,,,,,,,,,,,,,,,,,
,,,,,7,2020-07-01_10h32.17.371,retriever_ti,2020.1.3,Win32,60,Chrome,1536,864,,,,,,,,,,,,,,,,,2,,,,,,,,,,,,,,,,,,,,,,,,,,,957.21658,144,left,0.822325,camel         ,2,3,-1,0,1,957.249925,957.249925,959.74646,0,66,66,66,1,144,2,3,camel         ,radio       ,html/resources/sequences_IDs/A/03_camel.jpg,html/resources/sequences_IDs/B/10_radio.jpg,3,10,1,1,4,2,3,8,1,7,,,,,,,,,,,,,,,,,,,,
,,,,,7,2020-07-01_10h32.17.371,retriever_ti,2020.1.3,Win32,60,Chrome,1536,864,,,,,,,,,,,,,,,,,2,,,,,,,,,,,,,,,,,,,,,,,,,,,960.846935,145,NaN,NaN,No_response,NaN,NaN,NaN,2,2,960.88162,960.88162,963.37835,0,67,67,67,1,145,4,5,calculator    ,dolphin     ,html/resources/sequences_IDs/A/09_calculator.jpg,html/resources/sequences_IDs/B/02_dolphin.jpg,9,2,4,2,1,1,7,2,0,7,,,,,,,,,,,,,,,,,,,,
,,,,,7,2020-07-01_10h32.17.371,retriever_ti,2020.1.3,Win32,60,Chrome,1536,864,,,,,,,,,,,,,,,,,2,,,,,,,,,,,,,,,,,,,,,,,,,,,964.48046,146,left,0.61062,camel         ,2,3,1,1,0,964.51422,964.51422,967.009595,0,68,68,68,1,146,2,1,camel         ,holdfast    ,html/resources/sequences_IDs/A/03_camel.jpg,html/resources/sequences_IDs/B/04_holdfast.jpg,3,4,1,1,2,1,3,4,1,7,,,,,,,,,,,,,,,,,,,,
,,,,,7,2020-07-01_10h32.17.371,retriever_ti,2020.1.3,Win32,60,Chrome,1536,864,,,,,,,,,,,,,,,,,2,,,,,,,,,,,,,,,,,,,,,,,,,,,968.110245,147,right,0.87038,dolphin     ,5,2,-3,0,3,968.12838,968.12838,970.624975,0,69,69,69,1,147,8,5,hat           ,dolphin     ,html/resources/sequences_IDs/A/08_hat.jpg,html/resources/sequences_IDs/B/02_dolphin.jpg,8,2,3,2,1,1,6,2,0,7,,,,,,,,,,,,,,,,,,,,
,,,,,7,2020-07-01_10h32.17.371,retriever_ti,2020.1.3,Win32,60,Chrome,1536,864,,,,,,,,,,,,,,,,,2,,,,,,,,,,,,,,,,,,,,,,,,,,,971.24274,148,left,0.50839,calculator    ,4,9,-1,0,0,971.261325,971.261325,973.757565,0,70,70,70,1,148,4,5,calculator    ,dolphin     ,html/resources/sequences_IDs/A/09_calculator.jpg,html/resources/sequences_IDs/B/02_dolphin.jpg,9,2,4,2,1,1,7,2,0,7,,,,,,,,,,,,,,,,,,,,
,,,,,7,2020-07-01_10h32.17.371,retriever_ti,2020.1.3,Win32,60,Chrome,1536,864,,,,,,,,,,,,,,,,,2,,,,,,,,,,,,,,,,,,,,,,,,,,,974.85764,149,right,0.4873,radio       ,3,10,-1,0,1,974.892965,974.892965,977.38871,0,71,71,71,1,149,4,3,calculator    ,radio       ,html/resources/sequences_IDs/A/09_calculator.jpg,html/resources/sequences_IDs/B/10_radio.jpg,9,10,4,2,4,2,7,8,1,7,,,,,,,,,,,,,,,,,,,,
,,,,,7,2020-07-01_10h32.17.371,retriever_ti,2020.1.3,Win32,60,Chrome,1536,864,,,,,,,,,,,,,,,,,2,,,,,,,,,,,,,,,,,,,,,,,,,,,978.49034,150,left,0.549945,camel         ,2,3,-5,0,3,978.523725,978.523725,981.01985,0,72,72,72,1,150,2,7,camel         ,gloves      ,html/resources/sequences_IDs/A/03_camel.jpg,html/resources/sequences_IDs/B/06_gloves.jpg,3,6,1,1,3,2,3,5,0,7,,,,,,,,,,,,,,,,,,,,
,,,,,7,2020-07-01_10h32.17.371,retriever_ti,2020.1.3,Win32,60,Chrome,1536,864,,,,,,,,,,,,,,,,,2,,,,,,,,,,,,,,,,,,,,,,,,,,,981.63726,151,left,0.49869,wolf          ,6,1,5,1,3,981.654955,981.654955,984.153485,0,73,73,73,1,151,6,1,wolf          ,holdfast    ,html/resources/sequences_IDs/A/01_wolf.jpg,html/resources/sequences_IDs/B/04_holdfast.jpg,1,4,1,1,2,1,1,4,0,7,,,,,,,,,,,,,,,,,,,,
,,,,,7,2020-07-01_10h32.17.371,retriever_ti,2020.1.3,Win32,60,Chrome,1536,864,,,,,,,,,,,,,,,,,2,,,,,,,,,,,,,,,,,,,,,,,,,,,984.77227,152,left,0.791835,radio       ,3,10,-5,0,3,984.789115,984.789115,987.28478,0,74,74,74,1,152,3,8,radio       ,hat           ,html/resources/sequences_IDs/B/10_radio.jpg,html/resources/sequences_IDs/A/08_hat.jpg,10,8,4,2,3,2,8,6,0,7,,,,,,,,,,,,,,,,,,,,
,,,,,7,2020-07-01_10h32.17.371,retriever_ti,2020.1.3,Win32,60,Chrome,1536,864,,,,,,,,,,,,,,,,,2,,,,,,,,,,,,,,,,,,,,,,,,,,,987.902115,153,right,0.683905,calculator    ,4,9,-2,0,3,987.920305,987.920305,990.416585,0,75,75,75,1,153,6,4,wolf          ,calculator    ,html/resources/sequences_IDs/A/01_wolf.jpg,html/resources/sequences_IDs/A/09_calculator.jpg,1,9,1,1,4,2,1,7,0,7,,,,,,,,,,,,,,,,,,,,
,,,,,7,2020-07-01_10h32.17.371,retriever_ti,2020.1.3,Win32,60,Chrome,1536,864,,,,,,,,,,,,,,,,,2,,,,,,,,,,,,,,,,,,,,,,,,,,,991.03477,154,right,0.622595,camel         ,2,3,-6,0,3,991.06823,991.06823,993.56495,0,76,76,76,1,154,8,2,hat           ,camel         ,html/resources/sequences_IDs/A/08_hat.jpg,html/resources/sequences_IDs/A/03_camel.jpg,8,3,3,2,1,1,6,3,0,7,,,,,,,,,,,,,,,,,,,,
,,,,,7,2020-07-01_10h32.17.371,retriever_ti,2020.1.3,Win32,60,Chrome,1536,864,,,,,,,,,,,,,,,,,,,,,,,,,,,,,,,,,,,,,0,2.73455,,,,,,,,,,,,,,,,,,,,,,,,,,,,,,,,,,,,,,,,,1,0,1,0,1,,,,,,,,,,,,,,,
,,,,,7,2020-07-01_10h32.17.371,retriever_ti,2020.1.3,Win32,60,Chrome,1536,864,,,,,,,,,,,,,,,,,3,,,,,,,,,,,,,,,,,,,,,,,,,,,1094.166345,155,left,0.794915,camel         ,2,3,-1,0,0,1094.22133,1094.22133,1096.720015,0,0,0,0,1,155,2,3,camel         ,radio       ,html/resources/sequences_IDs/A/03_camel.jpg,html/resources/sequences_IDs/B/10_radio.jpg,3,10,1,1,4,2,3,8,0,7,,,,,,,,,,,,,,,,,,,,
,,,,,7,2020-07-01_10h32.17.371,retriever_ti,2020.1.3,Win32,60,Chrome,1536,864,,,,,,,,,,,,,,,,,3,,,,,,,,,,,,,,,,,,,,,,,,,,,1097.821675,156,left,0.636665,camel         ,2,3,-3,0,3,1097.838805,1097.838805,1100.334425,0,1,1,1,1,156,2,5,camel         ,dolphin     ,html/resources/sequences_IDs/A/03_camel.jpg,html/resources/sequences_IDs/B/02_dolphin.jpg,3,2,1,1,1,1,3,2,0,7,,,,,,,,,,,,,,,,,,,,
,,,,,7,2020-07-01_10h32.17.371,retriever_ti,2020.1.3,Win32,60,Chrome,1536,864,,,,,,,,,,,,,,,,,3,,,,,,,,,,,,,,,,,,,,,,,,,,,1100.951385,157,right,0.657225,calculator    ,4,9,-1,0,0,1100.985945,1100.985945,1103.48304,0,2,2,2,1,157,5,4,dolphin     ,calculator    ,html/resources/sequences_IDs/B/02_dolphin.jpg,html/resources/sequences_IDs/A/09_calculator.jpg,2,9,1,1,4,2,2,7,0,7,,,,,,,,,,,,,,,,,,,,
,,,,,7,2020-07-01_10h32.17.371,retriever_ti,2020.1.3,Win32,60,Chrome,1536,864,,,,,,,,,,,,,,,,,3,,,,,,,,,,,,,,,,,,,,,,,,,,,1104.58309,158,left,0.77405,radio       ,3,10,-5,0,3,1104.615865,1104.615865,1107.11391,0,3,3,3,1,158,3,8,radio       ,hat           ,html/resources/sequences_IDs/B/10_radio.jpg,html/resources/sequences_IDs/A/08_hat.jpg,10,8,4,2,3,2,8,6,0,7,,,,,,,,,,,,,,,,,,,,
,,,,,7,2020-07-01_10h32.17.371,retriever_ti,2020.1.3,Win32,60,Chrome,1536,864,,,,,,,,,,,,,,,,,3,,,,,,,,,,,,,,,,,,,,,,,,,,,1107.73183,159,left,0.85986,calculator    ,4,9,-4,0,3,1107.7663,1107.7663,1110.263995,0,4,4,4,1,159,4,8,calculator    ,hat           ,html/resources/sequences_IDs/A/09_calculator.jpg,html/resources/sequences_IDs/A/08_hat.jpg,9,8,4,2,3,2,7,6,0,7,,,,,,,,,,,,,,,,,,,,
,,,,,7,2020-07-01_10h32.17.371,retriever_ti,2020.1.3,Win32,60,Chrome,1536,864,,,,,,,,,,,,,,,,,3,,,,,,,,,,,,,,,,,,,,,,,,,,,1110.865715,160,left,1.043335,dolphin     ,5,2,-2,0,3,1110.88258,1110.88258,1113.37848,0,5,5,5,1,160,5,7,dolphin     ,gloves      ,html/resources/sequences_IDs/B/02_dolphin.jpg,html/resources/sequences_IDs/B/06_gloves.jpg,2,6,1,1,3,2,2,5,0,7,,,,,,,,,,,,,,,,,,,,
,,,,,7,2020-07-01_10h32.17.371,retriever_ti,2020.1.3,Win32,60,Chrome,1536,864,,,,,,,,,,,,,,,,,3,,,,,,,,,,,,,,,,,,,,,,,,,,,1113.99543,161,left,0.585755,camel         ,2,3,1,1,1,1114.0133,1114.0133,1116.510385,0,6,6,6,1,161,2,1,camel         ,holdfast    ,html/resources/sequences_IDs/A/03_camel.jpg,html/resources/sequences_IDs/B/04_holdfast.jpg,3,4,1,1,2,1,3,4,0,7,,,,,,,,,,,,,,,,,,,,
,,,,,7,2020-07-01_10h32.17.371,retriever_ti,2020.1.3,Win32,60,Chrome,1536,864,,,,,,,,,,,,,,,,,3,,,,,,,,,,,,,,,,,,,,,,,,,,,1117.611835,162,NaN,NaN,No_response,NaN,NaN,NaN,2,2,1117.644315,1117.644315,1120.14171,0,7,7,7,1,162,5,8,dolphin     ,hat           ,html/resources/sequences_IDs/B/02_dolphin.jpg,html/resources/sequences_IDs/A/08_hat.jpg,2,8,1,1,3,2,2,6,0,7,,,,,,,,,,,,,,,,,,,,
,,,,,7,2020-07-01_10h32.17.371,retriever_ti,2020.1.3,Win32,60,Chrome,1536,864,,,,,,,,,,,,,,,,,3,,,,,,,,,,,,,,,,,,,,,,,,,,,1121.241565,163,left,0.09108,hat           ,8,8,5,1,3,1121.274995,1121.274995,1123.77397,0,8,8,8,1,163,8,3,hat           ,radio       ,html/resources/sequences_IDs/A/08_hat.jpg,html/resources/sequences_IDs/B/10_radio.jpg,8,10,3,2,4,2,6,8,0,7,,,,,,,,,,,,,,,,,,,,
,,,,,7,2020-07-01_10h32.17.371,retriever_ti,2020.1.3,Win32,60,Chrome,1536,864,,,,,,,,,,,,,,,,,3,,,,,,,,,,,,,,,,,,,,,,,,,,,1124.39344,164,right,0.572285,dolphin     ,5,2,-3,0,3,1124.4272,1124.4272,1126.92251,0,9,9,9,1,164,8,5,hat           ,dolphin     ,html/resources/sequences_IDs/A/08_hat.jpg,html/resources/sequences_IDs/B/02_dolphin.jpg,8,2,3,2,1,1,6,2,0,7,,,,,,,,,,,,,,,,,,,,
,,,,,7,2020-07-01_10h32.17.371,retriever_ti,2020.1.3,Win32,60,Chrome,1536,864,,,,,,,,,,,,,,,,,3,,,,,,,,,,,,,,,,,,,,,,,,,,,1127.53964,165,left,0.117135,dolphin     ,5,2,1,1,0,1127.57389,1127.57389,1130.070905,0,10,10,10,1,165,5,4,dolphin     ,calculator    ,html/resources/sequences_IDs/B/02_dolphin.jpg,html/resources/sequences_IDs/A/09_calculator.jpg,2,9,1,1,4,2,2,7,1,7,,,,,,,,,,,,,,,,,,,,
,,,,,7,2020-07-01_10h32.17.371,retriever_ti,2020.1.3,Win32,60,Chrome,1536,864,,,,,,,,,,,,,,,,,3,,,,,,,,,,,,,,,,,,,,,,,,,,,1131.17184,166,right,0.425135,wolf          ,6,1,1,1,1,1131.206545,1131.206545,1133.70246,0,11,11,11,1,166,5,6,dolphin     ,wolf          ,html/resources/sequences_IDs/B/02_dolphin.jpg,html/resources/sequences_IDs/A/01_wolf.jpg,2,1,1,1,1,1,2,1,0,7,,,,,,,,,,,,,,,,,,,,
,,,,,7,2020-07-01_10h32.17.371,retriever_ti,2020.1.3,Win32,60,Chrome,1536,864,,,,,,,,,,,,,,,,,3,,,,,,,,,,,,,,,,,,,,,,,,,,,1134.8031,167,left,0.25538,holdfast    ,1,4,-2,0,3,1134.838465,1134.838465,1137.33486,0,12,12,12,1,167,1,3,holdfast    ,radio       ,html/resources/sequences_IDs/B/04_holdfast.jpg,html/resources/sequences_IDs/B/10_radio.jpg,4,10,2,1,4,2,4,8,0,7,,,,,,,,,,,,,,,,,,,,
,,,,,7,2020-07-01_10h32.17.371,retriever_ti,2020.1.3,Win32,60,Chrome,1536,864,,,,,,,,,,,,,,,,,3,,,,,,,,,,,,,,,,,,,,,,,,,,,1137.952815,168,left,0.50234,holdfast    ,1,4,-1,0,0,1137.986965,1137.986965,1140.483065,0,13,13,13,1,168,1,2,holdfast    ,camel         ,html/resources/sequences_IDs/B/04_holdfast.jpg,html/resources/sequences_IDs/A/03_camel.jpg,4,3,2,1,1,1,4,3,0,7,,,,,,,,,,,,,,,,,,,,
,,,,,7,2020-07-01_10h32.17.371,retriever_ti,2020.1.3,Win32,60,Chrome,1536,864,,,,,,,,,,,,,,,,,3,,,,,,,,,,,,,,,,,,,,,,,,,,,1141.58357,169,left,0.4334,calculator    ,4,9,-1,0,0,1141.601435,1141.601435,1144.0983,0,14,14,14,1,169,4,5,calculator    ,dolphin     ,html/resources/sequences_IDs/A/09_calculator.jpg,html/resources/sequences_IDs/B/02_dolphin.jpg,9,2,4,2,1,1,7,2,0,7,,,,,,,,,,,,,,,,,,,,
,,,,,7,2020-07-01_10h32.17.371,retriever_ti,2020.1.3,Win32,60,Chrome,1536,864,,,,,,,,,,,,,,,,,3,,,,,,,,,,,,,,,,,,,,,,,,,,,1145.20013,170,right,0.178775,camel         ,2,3,1,1,1,1145.217465,1145.217465,1147.71307,0,15,15,15,1,170,1,2,holdfast    ,camel         ,html/resources/sequences_IDs/B/04_holdfast.jpg,html/resources/sequences_IDs/A/03_camel.jpg,4,3,2,1,1,1,4,3,0,7,,,,,,,,,,,,,,,,,,,,
,,,,,7,2020-07-01_10h32.17.371,retriever_ti,2020.1.3,Win32,60,Chrome,1536,864,,,,,,,,,,,,,,,,,3,,,,,,,,,,,,,,,,,,,,,,,,,,,1148.814125,171,left,0.57221,holdfast    ,1,4,-4,0,3,1148.84828,1148.84828,1151.34484,0,16,16,16,1,171,1,5,holdfast    ,dolphin     ,html/resources/sequences_IDs/B/04_holdfast.jpg,html/resources/sequences_IDs/B/02_dolphin.jpg,4,2,2,1,1,1,4,2,0,7,,,,,,,,,,,,,,,,,,,,
,,,,,7,2020-07-01_10h32.17.371,retriever_ti,2020.1.3,Win32,60,Chrome,1536,864,,,,,,,,,,,,,,,,,3,,,,,,,,,,,,,,,,,,,,,,,,,,,1151.96282,172,left,0.520145,camel         ,2,3,-1,0,1,1151.979745,1151.979745,1154.477615,0,17,17,17,1,172,2,3,camel         ,radio       ,html/resources/sequences_IDs/A/03_camel.jpg,html/resources/sequences_IDs/B/10_radio.jpg,3,10,1,1,4,2,3,8,1,7,,,,,,,,,,,,,,,,,,,,
,,,,,7,2020-07-01_10h32.17.371,retriever_ti,2020.1.3,Win32,60,Chrome,1536,864,,,,,,,,,,,,,,,,,3,,,,,,,,,,,,,,,,,,,,,,,,,,,1155.57828,173,left,0.553555,hat           ,8,8,1,1,1,1155.597165,1155.597165,1158.091805,0,18,18,18,1,173,8,7,hat           ,gloves      ,html/resources/sequences_IDs/A/08_hat.jpg,html/resources/sequences_IDs/B/06_gloves.jpg,8,6,3,2,3,2,6,5,0,7,,,,,,,,,,,,,,,,,,,,
,,,,,7,2020-07-01_10h32.17.371,retriever_ti,2020.1.3,Win32,60,Chrome,1536,864,,,,,,,,,,,,,,,,,3,,,,,,,,,,,,,,,,,,,,,,,,,,,1159.193625,174,left,0.255815,wolf          ,6,1,1,1,1,1159.210375,1159.210375,1161.70641,0,19,19,19,1,174,6,5,wolf          ,dolphin     ,html/resources/sequences_IDs/A/01_wolf.jpg,html/resources/sequences_IDs/B/02_dolphin.jpg,1,2,1,1,1,1,1,2,0,7,,,,,,,,,,,,,,,,,,,,
,,,,,7,2020-07-01_10h32.17.371,retriever_ti,2020.1.3,Win32,60,Chrome,1536,864,,,,,,,,,,,,,,,,,3,,,,,,,,,,,,,,,,,,,,,,,,,,,1162.806195,175,right,0.26821,wolf          ,6,1,1,1,1,1162.84205,1162.84205,1165.339795,0,20,20,20,1,175,5,6,dolphin     ,wolf          ,html/resources/sequences_IDs/B/02_dolphin.jpg,html/resources/sequences_IDs/A/01_wolf.jpg,2,1,1,1,1,1,2,1,0,7,,,,,,,,,,,,,,,,,,,,
,,,,,7,2020-07-01_10h32.17.371,retriever_ti,2020.1.3,Win32,60,Chrome,1536,864,,,,,,,,,,,,,,,,,3,,,,,,,,,,,,,,,,,,,,,,,,,,,1166.4404,176,right,0.563045,camel         ,2,3,-6,0,3,1166.474655,1166.474655,1168.97096,0,21,21,21,1,176,8,2,hat           ,camel         ,html/resources/sequences_IDs/A/08_hat.jpg,html/resources/sequences_IDs/A/03_camel.jpg,8,3,3,2,1,1,6,3,0,7,,,,,,,,,,,,,,,,,,,,
,,,,,7,2020-07-01_10h32.17.371,retriever_ti,2020.1.3,Win32,60,Chrome,1536,864,,,,,,,,,,,,,,,,,3,,,,,,,,,,,,,,,,,,,,,,,,,,,1169.58893,177,right,0.89952,calculator    ,4,9,-1,0,0,1169.60679,1169.60679,1172.10355,0,22,22,22,1,177,5,4,dolphin     ,calculator    ,html/resources/sequences_IDs/B/02_dolphin.jpg,html/resources/sequences_IDs/A/09_calculator.jpg,2,9,1,1,4,2,2,7,0,7,,,,,,,,,,,,,,,,,,,,
,,,,,7,2020-07-01_10h32.17.371,retriever_ti,2020.1.3,Win32,60,Chrome,1536,864,,,,,,,,,,,,,,,,,3,,,,,,,,,,,,,,,,,,,,,,,,,,,1173.204375,178,left,0.3234,wolf          ,6,1,2,1,3,1173.238465,1173.238465,1175.734795,0,23,23,23,1,178,6,4,wolf          ,calculator    ,html/resources/sequences_IDs/A/01_wolf.jpg,html/resources/sequences_IDs/A/09_calculator.jpg,1,9,1,1,4,2,1,7,0,7,,,,,,,,,,,,,,,,,,,,
,,,,,7,2020-07-01_10h32.17.371,retriever_ti,2020.1.3,Win32,60,Chrome,1536,864,,,,,,,,,,,,,,,,,3,,,,,,,,,,,,,,,,,,,,,,,,,,,1176.351555,179,right,0.793085,radio       ,3,10,-3,0,3,1176.38581,1176.38581,1178.88258,0,24,24,24,1,179,6,3,wolf          ,radio       ,html/resources/sequences_IDs/A/01_wolf.jpg,html/resources/sequences_IDs/B/10_radio.jpg,1,10,1,1,4,2,1,8,0,7,,,,,,,,,,,,,,,,,,,,
,,,,,7,2020-07-01_10h32.17.371,retriever_ti,2020.1.3,Win32,60,Chrome,1536,864,,,,,,,,,,,,,,,,,3,,,,,,,,,,,,,,,,,,,,,,,,,,,1179.501585,180,right,0.53768,wolf          ,6,1,2,1,3,1179.518455,1179.518455,1182.014495,0,25,25,25,1,180,4,6,calculator    ,wolf          ,html/resources/sequences_IDs/A/09_calculator.jpg,html/resources/sequences_IDs/A/01_wolf.jpg,9,1,4,2,1,1,7,1,0,7,,,,,,,,,,,,,,,,,,,,
,,,,,7,2020-07-01_10h32.17.371,retriever_ti,2020.1.3,Win32,60,Chrome,1536,864,,,,,,,,,,,,,,,,,3,,,,,,,,,,,,,,,,,,,,,,,,,,,1182.630725,181,right,0.44045,radio       ,3,10,-1,0,0,1182.66677,1182.66677,1185.16421,0,26,26,26,1,181,4,3,calculator    ,radio       ,html/resources/sequences_IDs/A/09_calculator.jpg,html/resources/sequences_IDs/B/10_radio.jpg,9,10,4,2,4,2,7,8,0,7,,,,,,,,,,,,,,,,,,,,
,,,,,7,2020-07-01_10h32.17.371,retriever_ti,2020.1.3,Win32,60,Chrome,1536,864,,,,,,,,,,,,,,,,,3,,,,,,,,,,,,,,,,,,,,,,,,,,,1186.265885,182,left,0.27959,wolf          ,6,1,-1,0,0,1186.29941,1186.29941,1188.796395,0,27,27,27,1,182,6,7,wolf          ,gloves      ,html/resources/sequences_IDs/A/01_wolf.jpg,html/resources/sequences_IDs/B/06_gloves.jpg,1,6,1,1,3,2,1,5,0,7,,,,,,,,,,,,,,,,,,,,
,,,,,7,2020-07-01_10h32.17.371,retriever_ti,2020.1.3,Win32,60,Chrome,1536,864,,,,,,,,,,,,,,,,,3,,,,,,,,,,,,,,,,,,,,,,,,,,,1189.89588,183,left,0.577975,gloves      ,7,6,6,1,3,1189.92954,1189.92954,1192.426715,0,28,28,28,1,183,7,1,gloves      ,holdfast    ,html/resources/sequences_IDs/B/06_gloves.jpg,html/resources/sequences_IDs/B/04_holdfast.jpg,6,4,3,2,2,1,5,4,0,7,,,,,,,,,,,,,,,,,,,,
,,,,,7,2020-07-01_10h32.17.371,retriever_ti,2020.1.3,Win32,60,Chrome,1536,864,,,,,,,,,,,,,,,,,3,,,,,,,,,,,,,,,,,,,,,,,,,,,1193.04532,184,right,0.623255,camel         ,2,3,-5,0,3,1193.06195,1193.06195,1195.558545,0,29,29,29,1,184,7,2,gloves      ,camel         ,html/resources/sequences_IDs/B/06_gloves.jpg,html/resources/sequences_IDs/A/03_camel.jpg,6,3,3,2,1,1,5,3,0,7,,,,,,,,,,,,,,,,,,,,
,,,,,7,2020-07-01_10h32.17.371,retriever_ti,2020.1.3,Win32,60,Chrome,1536,864,,,,,,,,,,,,,,,,,3,,,,,,,,,,,,,,,,,,,,,,,,,,,1196.17722,185,left,0.431415,radio       ,3,10,-4,0,3,1196.2121,1196.2121,1198.70776,0,30,30,30,1,185,3,7,radio       ,gloves      ,html/resources/sequences_IDs/B/10_radio.jpg,html/resources/sequences_IDs/B/06_gloves.jpg,10,6,4,2,3,2,8,5,0,7,,,,,,,,,,,,,,,,,,,,
,,,,,7,2020-07-01_10h32.17.371,retriever_ti,2020.1.3,Win32,60,Chrome,1536,864,,,,,,,,,,,,,,,,,3,,,,,,,,,,,,,,,,,,,,,,,,,,,1199.32696,186,right,0.776,hat           ,8,8,7,1,3,1199.3438,1199.3438,1201.83911,0,31,31,31,1,186,1,8,holdfast    ,hat           ,html/resources/sequences_IDs/B/04_holdfast.jpg,html/resources/sequences_IDs/A/08_hat.jpg,4,8,2,1,3,2,4,6,0,7,,,,,,,,,,,,,,,,,,,,
,,,,,7,2020-07-01_10h32.17.371,retriever_ti,2020.1.3,Win32,60,Chrome,1536,864,,,,,,,,,,,,,,,,,3,,,,,,,,,,,,,,,,,,,,,,,,,,,1202.45632,187,right,0.70151,hat           ,8,8,1,1,1,1202.491075,1202.491075,1204.988095,0,32,32,32,1,187,7,8,gloves      ,hat           ,html/resources/sequences_IDs/B/06_gloves.jpg,html/resources/sequences_IDs/A/08_hat.jpg,6,8,3,2,3,2,5,6,0,7,,,,,,,,,,,,,,,,,,,,
,,,,,7,2020-07-01_10h32.17.371,retriever_ti,2020.1.3,Win32,60,Chrome,1536,864,,,,,,,,,,,,,,,,,3,,,,,,,,,,,,,,,,,,,,,,,,,,,1206.089085,188,right,1.08903,holdfast    ,1,4,-3,0,3,1206.123955,1206.123955,1208.61952,0,33,33,33,1,188,4,1,calculator    ,holdfast    ,html/resources/sequences_IDs/A/09_calculator.jpg,html/resources/sequences_IDs/B/04_holdfast.jpg,9,4,4,2,2,1,7,4,0,7,,,,,,,,,,,,,,,,,,,,
,,,,,7,2020-07-01_10h32.17.371,retriever_ti,2020.1.3,Win32,60,Chrome,1536,864,,,,,,,,,,,,,,,,,3,,,,,,,,,,,,,,,,,,,,,,,,,,,1209.237695,189,right,0.894365,holdfast    ,1,4,-4,0,3,1209.272665,1209.272665,1211.767535,0,34,34,34,1,189,5,1,dolphin     ,holdfast    ,html/resources/sequences_IDs/B/02_dolphin.jpg,html/resources/sequences_IDs/B/04_holdfast.jpg,2,4,1,1,2,1,2,4,0,7,,,,,,,,,,,,,,,,,,,,
,,,,,7,2020-07-01_10h32.17.371,retriever_ti,2020.1.3,Win32,60,Chrome,1536,864,,,,,,,,,,,,,,,,,3,,,,,,,,,,,,,,,,,,,,,,,,,,,1212.387535,190,right,0.58422,gloves      ,7,6,3,1,3,1212.42018,1212.42018,1214.91726,0,35,35,35,1,190,4,7,calculator    ,gloves      ,html/resources/sequences_IDs/A/09_calculator.jpg,html/resources/sequences_IDs/B/06_gloves.jpg,9,6,4,2,3,2,7,5,0,7,,,,,,,,,,,,,,,,,,,,
,,,,,7,2020-07-01_10h32.17.371,retriever_ti,2020.1.3,Win32,60,Chrome,1536,864,,,,,,,,,,,,,,,,,3,,,,,,,,,,,,,,,,,,,,,,,,,,,1215.534865,191,right,1.15597,dolphin     ,5,2,-1,0,0,1215.55205,1215.55205,1218.048505,0,36,36,36,1,191,6,5,wolf          ,dolphin     ,html/resources/sequences_IDs/A/01_wolf.jpg,html/resources/sequences_IDs/B/02_dolphin.jpg,1,2,1,1,1,1,1,2,0,7,,,,,,,,,,,,,,,,,,,,
,,,,,7,2020-07-01_10h32.17.371,retriever_ti,2020.1.3,Win32,60,Chrome,1536,864,,,,,,,,,,,,,,,,,3,,,,,,,,,,,,,,,,,,,,,,,,,,,1219.15136,192,left,1.30375,calculator    ,4,9,1,1,0,1219.168095,1219.168095,1221.6649,0,37,37,37,1,192,4,3,calculator    ,radio       ,html/resources/sequences_IDs/A/09_calculator.jpg,html/resources/sequences_IDs/B/10_radio.jpg,9,10,4,2,4,2,7,8,1,7,,,,,,,,,,,,,,,,,,,,
,,,,,7,2020-07-01_10h32.17.371,retriever_ti,2020.1.3,Win32,60,Chrome,1536,864,,,,,,,,,,,,,,,,,3,,,,,,,,,,,,,,,,,,,,,,,,,,,1222.76531,193,left,1.128845,calculator    ,4,9,1,1,1,1222.799635,1222.799635,1225.29634,0,38,38,38,1,193,4,3,calculator    ,radio       ,html/resources/sequences_IDs/A/09_calculator.jpg,html/resources/sequences_IDs/B/10_radio.jpg,9,10,4,2,4,2,7,8,0,7,,,,,,,,,,,,,,,,,,,,
,,,,,7,2020-07-01_10h32.17.371,retriever_ti,2020.1.3,Win32,60,Chrome,1536,864,,,,,,,,,,,,,,,,,3,,,,,,,,,,,,,,,,,,,,,,,,,,,1226.397835,194,left,0.708335,wolf          ,6,1,-2,0,3,1226.41473,1226.41473,1228.910605,0,39,39,39,1,194,6,8,wolf          ,hat           ,html/resources/sequences_IDs/A/01_wolf.jpg,html/resources/sequences_IDs/A/08_hat.jpg,1,8,1,1,3,2,1,6,0,7,,,,,,,,,,,,,,,,,,,,
,,,,,7,2020-07-01_10h32.17.371,retriever_ti,2020.1.3,Win32,60,Chrome,1536,864,,,,,,,,,,,,,,,,,3,,,,,,,,,,,,,,,,,,,,,,,,,,,1229.52842,195,left,0.604205,camel         ,2,3,1,1,1,1229.563675,1229.563675,1232.0595,0,40,40,40,1,195,2,1,camel         ,holdfast    ,html/resources/sequences_IDs/A/03_camel.jpg,html/resources/sequences_IDs/B/04_holdfast.jpg,3,4,1,1,2,1,3,4,0,7,,,,,,,,,,,,,,,,,,,,
,,,,,7,2020-07-01_10h32.17.371,retriever_ti,2020.1.3,Win32,60,Chrome,1536,864,,,,,,,,,,,,,,,,,3,,,,,,,,,,,,,,,,,,,,,,,,,,,1233.161325,196,left,0.442955,dolphin     ,5,2,2,1,3,1233.195185,1233.195185,1235.690815,0,41,41,41,1,196,5,3,dolphin     ,radio       ,html/resources/sequences_IDs/B/02_dolphin.jpg,html/resources/sequences_IDs/B/10_radio.jpg,2,10,1,1,4,2,2,8,0,7,,,,,,,,,,,,,,,,,,,,
,,,,,7,2020-07-01_10h32.17.371,retriever_ti,2020.1.3,Win32,60,Chrome,1536,864,,,,,,,,,,,,,,,,,3,,,,,,,,,,,,,,,,,,,,,,,,,,,1236.308755,197,left,0.3555,hat           ,8,8,2,1,3,1236.34336,1236.34336,1238.839145,0,42,42,42,1,197,8,6,hat           ,wolf          ,html/resources/sequences_IDs/A/08_hat.jpg,html/resources/sequences_IDs/A/01_wolf.jpg,8,1,3,2,1,1,6,1,0,7,,,,,,,,,,,,,,,,,,,,
,,,,,7,2020-07-01_10h32.17.371,retriever_ti,2020.1.3,Win32,60,Chrome,1536,864,,,,,,,,,,,,,,,,,3,,,,,,,,,,,,,,,,,,,,,,,,,,,1239.45826,198,left,0.419665,wolf          ,6,1,-1,0,1,1239.491645,1239.491645,1241.98779,0,43,43,43,1,198,6,7,wolf          ,gloves      ,html/resources/sequences_IDs/A/01_wolf.jpg,html/resources/sequences_IDs/B/06_gloves.jpg,1,6,1,1,3,2,1,5,1,7,,,,,,,,,,,,,,,,,,,,
,,,,,7,2020-07-01_10h32.17.371,retriever_ti,2020.1.3,Win32,60,Chrome,1536,864,,,,,,,,,,,,,,,,,3,,,,,,,,,,,,,,,,,,,,,,,,,,,1243.0893,199,left,0.429665,radio       ,3,10,-1,0,0,1243.10746,1243.10746,1245.60364,0,44,44,44,1,199,3,4,radio       ,calculator    ,html/resources/sequences_IDs/B/10_radio.jpg,html/resources/sequences_IDs/A/09_calculator.jpg,10,9,4,2,4,2,8,7,0,7,,,,,,,,,,,,,,,,,,,,
,,,,,7,2020-07-01_10h32.17.371,retriever_ti,2020.1.3,Win32,60,Chrome,1536,864,,,,,,,,,,,,,,,,,3,,,,,,,,,,,,,,,,,,,,,,,,,,,1246.704995,200,right,0.682165,camel         ,2,3,-2,0,3,1246.722275,1246.722275,1249.218645,0,45,45,45,1,200,4,2,calculator    ,camel         ,html/resources/sequences_IDs/A/09_calculator.jpg,html/resources/sequences_IDs/A/03_camel.jpg,9,3,4,2,1,1,7,3,0,7,,,,,,,,,,,,,,,,,,,,
,,,,,7,2020-07-01_10h32.17.371,retriever_ti,2020.1.3,Win32,60,Chrome,1536,864,,,,,,,,,,,,,,,,,3,,,,,,,,,,,,,,,,,,,,,,,,,,,1249.83546,201,right,0.44193,wolf          ,6,1,3,1,3,1249.85361,1249.85361,1252.349905,0,46,46,46,1,201,3,6,radio       ,wolf          ,html/resources/sequences_IDs/B/10_radio.jpg,html/resources/sequences_IDs/A/01_wolf.jpg,10,1,4,2,1,1,8,1,0,7,,,,,,,,,,,,,,,,,,,,
,,,,,7,2020-07-01_10h32.17.371,retriever_ti,2020.1.3,Win32,60,Chrome,1536,864,,,,,,,,,,,,,,,,,3,,,,,,,,,,,,,,,,,,,,,,,,,,,1252.98469,202,left,0.50656,radio       ,3,10,2,1,3,1253.002805,1253.002805,1255.498735,0,47,47,47,1,202,3,1,radio       ,holdfast    ,html/resources/sequences_IDs/B/10_radio.jpg,html/resources/sequences_IDs/B/04_holdfast.jpg,10,4,4,2,2,1,8,4,0,7,,,,,,,,,,,,,,,,,,,,
,,,,,7,2020-07-01_10h32.17.371,retriever_ti,2020.1.3,Win32,60,Chrome,1536,864,,,,,,,,,,,,,,,,,3,,,,,,,,,,,,,,,,,,,,,,,,,,,1256.114885,203,right,0.464515,camel         ,2,3,-1,0,0,1256.1341,1256.1341,1258.630845,0,48,48,48,1,203,3,2,radio       ,camel         ,html/resources/sequences_IDs/B/10_radio.jpg,html/resources/sequences_IDs/A/03_camel.jpg,10,3,4,2,1,1,8,3,0,7,,,,,,,,,,,,,,,,,,,,
,,,,,7,2020-07-01_10h32.17.371,retriever_ti,2020.1.3,Win32,60,Chrome,1536,864,,,,,,,,,,,,,,,,,3,,,,,,,,,,,,,,,,,,,,,,,,,,,1259.732735,204,left,0.5031,camel         ,2,3,-6,0,3,1259.766725,1259.766725,1262.26233,0,49,49,49,1,204,2,8,camel         ,hat           ,html/resources/sequences_IDs/A/03_camel.jpg,html/resources/sequences_IDs/A/08_hat.jpg,3,8,1,1,3,2,3,6,0,7,,,,,,,,,,,,,,,,,,,,
,,,,,7,2020-07-01_10h32.17.371,retriever_ti,2020.1.3,Win32,60,Chrome,1536,864,,,,,,,,,,,,,,,,,3,,,,,,,,,,,,,,,,,,,,,,,,,,,1262.879665,205,left,0.801815,wolf          ,6,1,5,1,3,1262.897715,1262.897715,1265.394965,0,50,50,50,1,205,6,1,wolf          ,holdfast    ,html/resources/sequences_IDs/A/01_wolf.jpg,html/resources/sequences_IDs/B/04_holdfast.jpg,1,4,1,1,2,1,1,4,0,7,,,,,,,,,,,,,,,,,,,,
,,,,,7,2020-07-01_10h32.17.371,retriever_ti,2020.1.3,Win32,60,Chrome,1536,864,,,,,,,,,,,,,,,,,3,,,,,,,,,,,,,,,,,,,,,,,,,,,1266.012915,206,right,0.764855,gloves      ,7,6,6,1,3,1266.04709,1266.04709,1268.54273,0,51,51,51,1,206,1,7,holdfast    ,gloves      ,html/resources/sequences_IDs/B/04_holdfast.jpg,html/resources/sequences_IDs/B/06_gloves.jpg,4,6,2,1,3,2,4,5,0,7,,,,,,,,,,,,,,,,,,,,
,,,,,7,2020-07-01_10h32.17.371,retriever_ti,2020.1.3,Win32,60,Chrome,1536,864,,,,,,,,,,,,,,,,,3,,,,,,,,,,,,,,,,,,,,,,,,,,,1269.16026,207,right,0.884395,dolphin     ,5,2,-1,0,1,1269.19494,1269.19494,1271.690775,0,52,52,52,1,207,6,5,wolf          ,dolphin     ,html/resources/sequences_IDs/A/01_wolf.jpg,html/resources/sequences_IDs/B/02_dolphin.jpg,1,2,1,1,1,1,1,2,1,7,,,,,,,,,,,,,,,,,,,,
,,,,,7,2020-07-01_10h32.17.371,retriever_ti,2020.1.3,Win32,60,Chrome,1536,864,,,,,,,,,,,,,,,,,3,,,,,,,,,,,,,,,,,,,,,,,,,,,1272.792535,208,right,0.46644,dolphin     ,5,2,2,1,3,1272.82624,1272.82624,1275.32269,0,53,53,53,1,208,3,5,radio       ,dolphin     ,html/resources/sequences_IDs/B/10_radio.jpg,html/resources/sequences_IDs/B/02_dolphin.jpg,10,2,4,2,1,1,8,2,0,7,,,,,,,,,,,,,,,,,,,,
,,,,,7,2020-07-01_10h32.17.371,retriever_ti,2020.1.3,Win32,60,Chrome,1536,864,,,,,,,,,,,,,,,,,3,,,,,,,,,,,,,,,,,,,,,,,,,,,1275.939245,209,NaN,NaN,No_response,NaN,NaN,NaN,2,2,1275.956845,1275.956845,1278.456465,0,54,54,54,1,209,1,6,holdfast    ,wolf          ,html/resources/sequences_IDs/B/04_holdfast.jpg,html/resources/sequences_IDs/A/01_wolf.jpg,4,1,2,1,1,1,4,1,0,7,,,,,,,,,,,,,,,,,,,,
,,,,,7,2020-07-01_10h32.17.371,retriever_ti,2020.1.3,Win32,60,Chrome,1536,864,,,,,,,,,,,,,,,,,3,,,,,,,,,,,,,,,,,,,,,,,,,,,1279.5561,210,left,0.48106,hat           ,8,8,1,1,1,1279.5736,1279.5736,1282.07016,0,55,55,55,1,210,8,7,hat           ,gloves      ,html/resources/sequences_IDs/A/08_hat.jpg,html/resources/sequences_IDs/B/06_gloves.jpg,8,6,3,2,3,2,6,5,0,7,,,,,,,,,,,,,,,,,,,,
,,,,,7,2020-07-01_10h32.17.371,retriever_ti,2020.1.3,Win32,60,Chrome,1536,864,,,,,,,,,,,,,,,,,3,,,,,,,,,,,,,,,,,,,,,,,,,,,1283.169485,211,right,0.663155,camel         ,2,3,-3,0,3,1283.20322,1283.20322,1285.70202,0,56,56,56,1,211,5,2,dolphin     ,camel         ,html/resources/sequences_IDs/B/02_dolphin.jpg,html/resources/sequences_IDs/A/03_camel.jpg,2,3,1,1,1,1,2,3,0,7,,,,,,,,,,,,,,,,,,,,
,,,,,7,2020-07-01_10h32.17.371,retriever_ti,2020.1.3,Win32,60,Chrome,1536,864,,,,,,,,,,,,,,,,,3,,,,,,,,,,,,,,,,,,,,,,,,,,,1286.320975,212,right,0.661185,dolphin     ,5,2,1,1,1,1286.338515,1286.338515,1288.836115,0,57,57,57,1,212,4,5,calculator    ,dolphin     ,html/resources/sequences_IDs/A/09_calculator.jpg,html/resources/sequences_IDs/B/02_dolphin.jpg,9,2,4,2,1,1,7,2,0,7,,,,,,,,,,,,,,,,,,,,
,,,,,7,2020-07-01_10h32.17.371,retriever_ti,2020.1.3,Win32,60,Chrome,1536,864,,,,,,,,,,,,,,,,,3,,,,,,,,,,,,,,,,,,,,,,,,,,,1289.934645,213,right,1.07566,holdfast    ,1,4,-7,0,3,1289.96851,1289.96851,1292.466055,0,58,58,58,1,213,8,1,hat           ,holdfast    ,html/resources/sequences_IDs/A/08_hat.jpg,html/resources/sequences_IDs/B/04_holdfast.jpg,8,4,3,2,2,1,6,4,0,7,,,,,,,,,,,,,,,,,,,,
,,,,,7,2020-07-01_10h32.17.371,retriever_ti,2020.1.3,Win32,60,Chrome,1536,864,,,,,,,,,,,,,,,,,3,,,,,,,,,,,,,,,,,,,,,,,,,,,1293.083245,214,right,0.562585,hat           ,8,8,1,1,0,1293.118185,1293.118185,1295.61513,0,59,59,59,1,214,7,8,gloves      ,hat           ,html/resources/sequences_IDs/B/06_gloves.jpg,html/resources/sequences_IDs/A/08_hat.jpg,6,8,3,2,3,2,5,6,1,7,,,,,,,,,,,,,,,,,,,,
,,,,,7,2020-07-01_10h32.17.371,retriever_ti,2020.1.3,Win32,60,Chrome,1536,864,,,,,,,,,,,,,,,,,3,,,,,,,,,,,,,,,,,,,,,,,,,,,1296.71522,215,left,0.3421,camel         ,2,3,-4,0,3,1296.750475,1296.750475,1299.245895,0,60,60,60,1,215,2,6,camel         ,wolf          ,html/resources/sequences_IDs/A/03_camel.jpg,html/resources/sequences_IDs/A/01_wolf.jpg,3,1,1,1,1,1,3,1,0,7,,,,,,,,,,,,,,,,,,,,
,,,,,7,2020-07-01_10h32.17.371,retriever_ti,2020.1.3,Win32,60,Chrome,1536,864,,,,,,,,,,,,,,,,,3,,,,,,,,,,,,,,,,,,,,,,,,,,,1299.86445,216,left,0.53702,wolf          ,6,1,4,1,3,1299.881285,1299.881285,1302.378045,0,61,61,61,1,216,6,2,wolf          ,camel         ,html/resources/sequences_IDs/A/01_wolf.jpg,html/resources/sequences_IDs/A/03_camel.jpg,1,3,1,1,1,1,1,3,0,7,,,,,,,,,,,,,,,,,,,,
,,,,,7,2020-07-01_10h32.17.371,retriever_ti,2020.1.3,Win32,60,Chrome,1536,864,,,,,,,,,,,,,,,,,3,,,,,,,,,,,,,,,,,,,,,,,,,,,1302.99559,217,right,0.59237,radio       ,3,10,-4,0,3,1303.014865,1303.014865,1305.510635,0,62,62,62,1,217,7,3,gloves      ,radio       ,html/resources/sequences_IDs/B/06_gloves.jpg,html/resources/sequences_IDs/B/10_radio.jpg,6,10,3,2,4,2,5,8,0,7,,,,,,,,,,,,,,,,,,,,
,,,,,7,2020-07-01_10h32.17.371,retriever_ti,2020.1.3,Win32,60,Chrome,1536,864,,,,,,,,,,,,,,,,,3,,,,,,,,,,,,,,,,,,,,,,,,,,,1306.129715,218,left,0.717075,radio       ,3,10,-1,0,0,1306.16323,1306.16323,1308.65871,0,63,63,63,1,218,3,4,radio       ,calculator    ,html/resources/sequences_IDs/B/10_radio.jpg,html/resources/sequences_IDs/A/09_calculator.jpg,10,9,4,2,4,2,8,7,0,7,,,,,,,,,,,,,,,,,,,,
,,,,,7,2020-07-01_10h32.17.371,retriever_ti,2020.1.3,Win32,60,Chrome,1536,864,,,,,,,,,,,,,,,,,3,,,,,,,,,,,,,,,,,,,,,,,,,,,1309.75884,219,right,0.286325,dolphin     ,5,2,-2,0,3,1309.777015,1309.777015,1312.27413,0,64,64,64,1,219,7,5,gloves      ,dolphin     ,html/resources/sequences_IDs/B/06_gloves.jpg,html/resources/sequences_IDs/B/02_dolphin.jpg,6,2,3,2,1,1,5,2,0,7,,,,,,,,,,,,,,,,,,,,
,,,,,7,2020-07-01_10h32.17.371,retriever_ti,2020.1.3,Win32,60,Chrome,1536,864,,,,,,,,,,,,,,,,,3,,,,,,,,,,,,,,,,,,,,,,,,,,,1312.891265,220,left,1.976965,camel         ,2,3,-2,0,3,1312.90845,1312.90845,1315.40609,0,65,65,65,1,220,2,4,camel         ,calculator    ,html/resources/sequences_IDs/A/03_camel.jpg,html/resources/sequences_IDs/A/09_calculator.jpg,3,9,1,1,4,2,3,7,0,7,,,,,,,,,,,,,,,,,,,,
,,,,,7,2020-07-01_10h32.17.371,retriever_ti,2020.1.3,Win32,60,Chrome,1536,864,,,,,,,,,,,,,,,,,3,,,,,,,,,,,,,,,,,,,,,,,,,,,1316.023995,221,right,0.60601,wolf          ,6,1,-1,0,0,1316.05906,1316.05906,1318.55405,0,66,66,66,1,221,7,6,gloves      ,wolf          ,html/resources/sequences_IDs/B/06_gloves.jpg,html/resources/sequences_IDs/A/01_wolf.jpg,6,1,3,2,1,1,5,1,0,7,,,,,,,,,,,,,,,,,,,,
,,,,,7,2020-07-01_10h32.17.371,retriever_ti,2020.1.3,Win32,60,Chrome,1536,864,,,,,,,,,,,,,,,,,3,,,,,,,,,,,,,,,,,,,,,,,,,,,1319.656225,222,left,0.26756,radio       ,3,10,1,1,1,1319.689255,1319.689255,1322.18654,0,67,67,67,1,222,3,2,radio       ,camel         ,html/resources/sequences_IDs/B/10_radio.jpg,html/resources/sequences_IDs/A/03_camel.jpg,10,3,4,2,1,1,8,3,0,7,,,,,,,,,,,,,,,,,,,,
,,,,,7,2020-07-01_10h32.17.371,retriever_ti,2020.1.3,Win32,60,Chrome,1536,864,,,,,,,,,,,,,,,,,3,,,,,,,,,,,,,,,,,,,,,,,,,,,1323.28682,223,left,0.335805,gloves      ,7,6,3,1,3,1323.30478,1323.30478,1325.802085,0,68,68,68,1,223,7,4,gloves      ,calculator    ,html/resources/sequences_IDs/B/06_gloves.jpg,html/resources/sequences_IDs/A/09_calculator.jpg,6,9,3,2,4,2,5,7,0,7,,,,,,,,,,,,,,,,,,,,
,,,,,7,2020-07-01_10h32.17.371,retriever_ti,2020.1.3,Win32,60,Chrome,1536,864,,,,,,,,,,,,,,,,,3,,,,,,,,,,,,,,,,,,,,,,,,,,,1326.42062,224,left,0.387845,camel         ,2,3,-1,0,0,1326.437115,1326.437115,1328.933535,0,69,69,69,1,224,2,3,camel         ,radio       ,html/resources/sequences_IDs/A/03_camel.jpg,html/resources/sequences_IDs/B/10_radio.jpg,3,10,1,1,4,2,3,8,0,7,,,,,,,,,,,,,,,,,,,,
,,,,,7,2020-07-01_10h32.17.371,retriever_ti,2020.1.3,Win32,60,Chrome,1536,864,,,,,,,,,,,,,,,,,3,,,,,,,,,,,,,,,,,,,,,,,,,,,1330.034335,225,NaN,NaN,No_response,NaN,NaN,NaN,2,2,1330.069485,1330.069485,1332.563975,0,70,70,70,1,225,2,7,camel         ,gloves      ,html/resources/sequences_IDs/A/03_camel.jpg,html/resources/sequences_IDs/B/06_gloves.jpg,3,6,1,1,3,2,3,5,0,7,,,,,,,,,,,,,,,,,,,,
