instructionsLoop.thisRepN,instructionsLoop.thisTrialN,instructionsLoop.thisN,instructionsLoop.thisIndex,instructionsLoop.ran,participant,date,expName,psychopyVersion,OS,frameRate,browser,xResolution,yResolution,fix_onset,tprac,practiceKey.keys,practiceKey.rt,pracitem_chosen_name,acc_practice,P1_onsetPrac,P2_onsetPrac,onsetFeedbPrac,practiceTrials.thisRepN,practiceTrials.thisTrialN,practiceTrials.thisN,practiceTrials.thisIndex,practiceTrials.ran,P1,P2,Block,LocItem1,LocItem2,NameItem1,NameItem2,key_respAC_prac.keys,key_respAC_prac.corr,key_respAC_prac.rt,AC_acc,Attentions.thisRepN,Attentions.thisTrialN,Attentions.thisN,Attentions.thisIndex,Attentions.ran,Stim,Loc1,Loc2,Loc3,Loc4,CorrAns,keyDisturbed.keys,keyDisturbed.rt,repPractice.thisRepN,repPractice.thisTrialN,repPractice.thisN,repPractice.thisIndex,repPractice.ran,fixcross_onsetMain,trialNumber,key_resp.keys,key_resp.rt,item_chosen_name,item_chosen_value,item_chosen_ID,diff_chosen_minus_reject,acc_real,acc_feedback,P1_onset,P2_onset,feedb_onset,trials.thisRepN,trials.thisTrialN,trials.thisN,trials.thisIndex,trials.ran,Trial,ValueP1,ValueP2,P1name,P2name,P1Loc,P2Loc,P1id,P2id,Micro_categoryP1,Macro_categoryP1,Micro_categoryP2,Macro_categoryP2,ID_sequenceP1,ID_sequenceP2,InverseFb,pNumber,repBlocks.thisRepN,repBlocks.thisTrialN,repBlocks.thisN,repBlocks.thisIndex,repBlocks.ran,key_respAC.keys,key_respAC.corr,key_respAC.rt,trials_AC.thisRepN,trials_AC.thisTrialN,trials_AC.thisN,trials_AC.thisIndex,trials_AC.ran,Bonus,BonusLoop.thisRepN,BonusLoop.thisTrialN,BonusLoop.thisN,BonusLoop.thisIndex,BonusLoop.ran,comments
0,0,0,0,1,7,2020-07-01_11h31.19.288,retriever_ti,2020.1.3,Win32,60,Chrome,1536,864,,,,,,,,,,,,,,,,,,,,,,,,,,,,,,,,,,,,,,,,,,,,,,,,,,,,,,,,,,,,,,,,,,,,,,,,,,,,,,,,,,,,,,,,,,,,,,,,,,
1,0,1,0,1,7,2020-07-01_11h31.19.288,retriever_ti,2020.1.3,Win32,60,Chrome,1536,864,,,,,,,,,,,,,,,,,,,,,,,,,,,,,,,,,,,,,,,,,,,,,,,,,,,,,,,,,,,,,,,,,,,,,,,,,,,,,,,,,,,,,,,,,,,,,,,,,,
2,0,2,0,1,7,2020-07-01_11h31.19.288,retriever_ti,2020.1.3,Win32,60,Chrome,1536,864,,,,,,,,,,,,,,,,,,,,,,,,,,,,,,,,,,,,,,,,,,,,,,,,,,,,,,,,,,,,,,,,,,,,,,,,,,,,,,,,,,,,,,,,,,,,,,,,,,
3,0,3,0,1,7,2020-07-01_11h31.19.288,retriever_ti,2020.1.3,Win32,60,Chrome,1536,864,,,,,,,,,,,,,,,,,,,,,,,,,,,,,,,,,,,,,,,,,,,,,,,,,,,,,,,,,,,,,,,,,,,,,,,,,,,,,,,,,,,,,,,,,,,,,,,,,,
4,0,4,0,1,7,2020-07-01_11h31.19.288,retriever_ti,2020.1.3,Win32,60,Chrome,1536,864,,,,,,,,,,,,,,,,,,,,,,,,,,,,,,,,,,,,,,,,,,,,,,,,,,,,,,,,,,,,,,,,,,,,,,,,,,,,,,,,,,,,,,,,,,,,,,,,,,
5,0,5,0,1,7,2020-07-01_11h31.19.288,retriever_ti,2020.1.3,Win32,60,Chrome,1536,864,,,,,,,,,,,,,,,,,,,,,,,,,,,,,,,,,,,,,,,,,,,,,,,,,,,,,,,,,,,,,,,,,,,,,,,,,,,,,,,,,,,,,,,,,,,,,,,,,,
6,0,6,0,1,7,2020-07-01_11h31.19.288,retriever_ti,2020.1.3,Win32,60,Chrome,1536,864,,,,,,,,,,,,,,,,,,,,,,,,,,,,,,,,,,,,,,,,,,,,,,,,,,,,,,,,,,,,,,,,,,,,,,,,,,,,,,,,,,,,,,,,,,,,,,,,,,
7,0,7,0,1,7,2020-07-01_11h31.19.288,retriever_ti,2020.1.3,Win32,60,Chrome,1536,864,,,,,,,,,,,,,,,,,,,,,,,,,,,,,,,,,,,,,,,,,,,,,,,,,,,,,,,,,,,,,,,,,,,,,,,,,,,,,,,,,,,,,,,,,,,,,,,,,,
8,0,8,0,1,7,2020-07-01_11h31.19.288,retriever_ti,2020.1.3,Win32,60,Chrome,1536,864,,,,,,,,,,,,,,,,,,,,,,,,,,,,,,,,,,,,,,,,,,,,,,,,,,,,,,,,,,,,,,,,,,,,,,,,,,,,,,,,,,,,,,,,,,,,,,,,,,
9,0,9,0,1,7,2020-07-01_11h31.19.288,retriever_ti,2020.1.3,Win32,60,Chrome,1536,864,,,,,,,,,,,,,,,,,,,,,,,,,,,,,,,,,,,,,,,,,,,,,,,,,,,,,,,,,,,,,,,,,,,,,,,,,,,,,,,,,,,,,,,,,,,,,,,,,,
10,0,10,0,1,7,2020-07-01_11h31.19.288,retriever_ti,2020.1.3,Win32,60,Chrome,1536,864,,,,,,,,,,,,,,,,,,,,,,,,,,,,,,,,,,,,,,,,,,,,,,,,,,,,,,,,,,,,,,,,,,,,,,,,,,,,,,,,,,,,,,,,,,,,,,,,,,
11,0,11,0,1,7,2020-07-01_11h31.19.288,retriever_ti,2020.1.3,Win32,60,Chrome,1536,864,,,,,,,,,,,,,,,,,,,,,,,,,,,,,,,,,,,,,,,,,,,,,,,,,,,,,,,,,,,,,,,,,,,,,,,,,,,,,,,,,,,,,,,,,,,,,,,,,,
12,0,12,0,1,7,2020-07-01_11h31.19.288,retriever_ti,2020.1.3,Win32,60,Chrome,1536,864,,,,,,,,,,,,,,,,,,,,,,,,,,,,,,,,,,,,,,,,,,,,,,,,,,,,,,,,,,,,,,,,,,,,,,,,,,,,,,,,,,,,,,,,,,,,,,,,,,
13,0,13,0,1,7,2020-07-01_11h31.19.288,retriever_ti,2020.1.3,Win32,60,Chrome,1536,864,,,,,,,,,,,,,,,,,,,,,,,,,,,,,,,,,,,,,,,,,,,,,,,,,,,,,,,,,,,,,,,,,,,,,,,,,,,,,,,,,,,,,,,,,,,,,,,,,,
14,0,14,0,1,7,2020-07-01_11h31.19.288,retriever_ti,2020.1.3,Win32,60,Chrome,1536,864,,,,,,,,,,,,,,,,,,,,,,,,,,,,,,,,,,,,,,,,,,,,,,,,,,,,,,,,,,,,,,,,,,,,,,,,,,,,,,,,,,,,,,,,,,,,,,,,,,
,,,,,7,2020-07-01_11h31.19.288,retriever_ti,2020.1.3,Win32,60,Chrome,1536,864,138.754645,1,left,1.020845,beetle,0,138.77783,138.77783,141.27689,0,0,0,0,1,2,5,1,html/resources/stimuli_practice_decision/04_beetle.jpg,html/resources/stimuli_practice_decision/02_canary.jpg,beetle,canary,,,,,,,,,,,,,,,,,,,,,,,,,,,,,,,,,,,,,,,,,,,,,,,,,,,,,,,,,,,,,,,,,,,,,,,,,,,,,
,,,,,7,2020-07-01_11h31.19.288,retriever_ti,2020.1.3,Win32,60,Chrome,1536,864,141.81159,2,left,1.081645,rabbit,1,141.81569,141.81569,144.310355,0,1,1,1,1,4,3,1,html/resources/stimuli_practice_decision/01_rabbit.jpg,html/resources/stimuli_practice_decision/07_sock.jpg,rabbit,sock,,,,,,,,,,,,,,,,,,,,,,,,,,,,,,,,,,,,,,,,,,,,,,,,,,,,,,,,,,,,,,,,,,,,,,,,,,,,,
,,,,,7,2020-07-01_11h31.19.288,retriever_ti,2020.1.3,Win32,60,Chrome,1536,864,145.31068,3,left,1.33602,pullover,1,145.32774,145.32774,147.826325,0,2,2,2,1,6,2,1,html/resources/stimuli_practice_decision/06_pullover.jpg,html/resources/stimuli_practice_decision/04_beetle.jpg,pullover,beetle,,,,,,,,,,,,,,,,,,,,,,,,,,,,,,,,,,,,,,,,,,,,,,,,,,,,,,,,,,,,,,,,,,,,,,,,,,,,,
,,,,,7,2020-07-01_11h31.19.288,retriever_ti,2020.1.3,Win32,60,Chrome,1536,864,148.32735,4,right,1.205515,handmixer,0,148.343965,148.343965,150.842715,0,3,3,3,1,7,1,1,html/resources/stimuli_practice_decision/05_glasses.jpg,html/resources/stimuli_practice_decision/08_handmixer.jpg,glasses,handmixer,,,,,,,,,,,,,,,,,,,,,,,,,,,,,,,,,,,,,,,,,,,,,,,,,,,,,,,,,,,,,,,,,,,,,,,,,,,,,
,,,,,7,2020-07-01_11h31.19.288,retriever_ti,2020.1.3,Win32,60,Chrome,1536,864,151.360015,5,left,1.300625,glasses,1,151.37685,151.37685,153.87591,0,4,4,4,1,7,6,1,html/resources/stimuli_practice_decision/05_glasses.jpg,html/resources/stimuli_practice_decision/06_pullover.jpg,glasses,pullover,,,,,,,,,,,,,,,,,,,,,,,,,,,,,,,,,,,,,,,,,,,,,,,,,,,,,,,,,,,,,,,,,,,,,,,,,,,,,
,,,,,7,2020-07-01_11h31.19.288,retriever_ti,2020.1.3,Win32,60,Chrome,1536,864,154.876555,6,left,1.46768,rabbit,0,154.91039,154.91039,157.409385,0,5,5,5,1,4,7,1,html/resources/stimuli_practice_decision/01_rabbit.jpg,html/resources/stimuli_practice_decision/05_glasses.jpg,rabbit,glasses,,,,,,,,,,,,,,,,,,,,,,,,,,,,,,,,,,,,,,,,,,,,,,,,,,,,,,,,,,,,,,,,,,,,,,,,,,,,,
,,,,,7,2020-07-01_11h31.19.288,retriever_ti,2020.1.3,Win32,60,Chrome,1536,864,157.910365,7,left,1.14199,handmixer,0,157.927045,157.927045,160.425705,0,6,6,6,1,1,2,1,html/resources/stimuli_practice_decision/08_handmixer.jpg,html/resources/stimuli_practice_decision/04_beetle.jpg,handmixer,beetle,,,,,,,,,,,,,,,,,,,,,,,,,,,,,,,,,,,,,,,,,,,,,,,,,,,,,,,,,,,,,,,,,,,,,,,,,,,,,
,,,,,7,2020-07-01_11h31.19.288,retriever_ti,2020.1.3,Win32,60,Chrome,1536,864,161.42604,8,left,1.1706,rabbit,1,161.459935,161.459935,163.95906,0,7,7,7,1,4,3,1,html/resources/stimuli_practice_decision/01_rabbit.jpg,html/resources/stimuli_practice_decision/07_sock.jpg,rabbit,sock,,,,,,,,,,,,,,,,,,,,,,,,,,,,,,,,,,,,,,,,,,,,,,,,,,,,,,,,,,,,,,,,,,,,,,,,,,,,,
,,,,,7,2020-07-01_11h31.19.288,retriever_ti,2020.1.3,Win32,60,Chrome,1536,864,,,,,,,,,,,,,,,,,,,,,,down,1,2.214815,1,0,0,0,3,1,html/resources/sequences_IDs/triangle.png,star ↑,square →,triangle ↓,← circle,down,,,,,,,,,,,,,,,,,,,,,,,,,,,,,,,,,,,,,,,,,,,,,,,,,,,,,,,,,,,,,,
,,,,,7,2020-07-01_11h31.19.288,retriever_ti,2020.1.3,Win32,60,Chrome,1536,864,,,,,,,,,,,,,,,,,,,,,,up,1,2.54843,1,0,1,1,0,1,html/resources/sequences_IDs/circle.png,circle ↑,square →,triangle ↓,← star ,up,,,,,,,,,,,,,,,,,,,,,,,,,,,,,,,,,,,,,,,,,,,,,,,,,,,,,,,,,,,,,,
,,,,,7,2020-07-01_11h31.19.288,retriever_ti,2020.1.3,Win32,60,Chrome,1536,864,,,,,,,,,,,,,,,,,,,,,,left,1,1.193195,1,0,2,2,2,1,html/resources/sequences_IDs/square1.png,star ↑,triangle →,circle ↓,← square,left,,,,,,,,,,,,,,,,,,,,,,,,,,,,,,,,,,,,,,,,,,,,,,,,,,,,,,,,,,,,,,
,,,,,7,2020-07-01_11h31.19.288,retriever_ti,2020.1.3,Win32,60,Chrome,1536,864,,,,,,,,,,,,,,,,,,,,,,down,1,1.7353,1,0,3,3,1,1,html/resources/sequences_IDs/star.png,square ↑,circle →,star ↓,← triangle,down,,,,,,,,,,,,,,,,,,,,,,,,,,,,,,,,,,,,,,,,,,,,,,,,,,,,,,,,,,,,,,
,,,,,7,2020-07-01_11h31.19.288,retriever_ti,2020.1.3,Win32,60,Chrome,1536,864,,,,,,,,,,,,,,,,,,,,,,,,,,,,,,,,,,,,,0,7.337065,0,0,0,0,1,,,,,,,,,,,,,,,,,,,,,,,,,,,,,,,,,,,,,,,,,,,,,,,,,,,,,,,
,,,,,7,2020-07-01_11h31.19.288,retriever_ti,2020.1.3,Win32,60,Chrome,1536,864,183.31813,9,right,2.06862,glasses,1,183.32544,183.32544,185.8246,0,0,0,0,1,6,7,1,html/resources/stimuli_practice_decision/06_pullover.jpg,html/resources/stimuli_practice_decision/05_glasses.jpg,pullover,glasses,,,,,,,,,,,,,,,,,,,,,,,,,,,,,,,,,,,,,,,,,,,,,,,,,,,,,,,,,,,,,,,,,,,,,,,,,,,,,
,,,,,7,2020-07-01_11h31.19.288,retriever_ti,2020.1.3,Win32,60,Chrome,1536,864,186.8253,10,left,1.08736,pullover,1,186.84209,186.84209,189.34148,0,1,1,1,1,6,2,1,html/resources/stimuli_practice_decision/06_pullover.jpg,html/resources/stimuli_practice_decision/04_beetle.jpg,pullover,beetle,,,,,,,,,,,,,,,,,,,,,,,,,,,,,,,,,,,,,,,,,,,,,,,,,,,,,,,,,,,,,,,,,,,,,,,,,,,,,
,,,,,7,2020-07-01_11h31.19.288,retriever_ti,2020.1.3,Win32,60,Chrome,1536,864,189.858325,11,left,1.437515,canary,0,189.892235,189.892235,192.391405,0,2,2,2,1,5,6,1,html/resources/stimuli_practice_decision/02_canary.jpg,html/resources/stimuli_practice_decision/06_pullover.jpg,canary,pullover,,,,,,,,,,,,,,,,,,,,,,,,,,,,,,,,,,,,,,,,,,,,,,,,,,,,,,,,,,,,,,,,,,,,,,,,,,,,,
,,,,,7,2020-07-01_11h31.19.288,retriever_ti,2020.1.3,Win32,60,Chrome,1536,864,193.39149,12,left,1.260855,squirrel,1,193.425735,193.425735,195.92478,0,3,3,3,1,8,7,1,html/resources/stimuli_practice_decision/03_squirrel.jpg,html/resources/stimuli_practice_decision/05_glasses.jpg,squirrel,glasses,,,,,,,,,,,,,,,,,,,,,,,,,,,,,,,,,,,,,,,,,,,,,,,,,,,,,,,,,,,,,,,,,,,,,,,,,,,,,
,,,,,7,2020-07-01_11h31.19.288,retriever_ti,2020.1.3,Win32,60,Chrome,1536,864,196.92533,13,left,1.410525,canary,1,196.958595,196.958595,199.45818,0,4,4,4,1,5,3,1,html/resources/stimuli_practice_decision/02_canary.jpg,html/resources/stimuli_practice_decision/07_sock.jpg,canary,sock,,,,,,,,,,,,,,,,,,,,,,,,,,,,,,,,,,,,,,,,,,,,,,,,,,,,,,,,,,,,,,,,,,,,,,,,,,,,,
,,,,,7,2020-07-01_11h31.19.288,retriever_ti,2020.1.3,Win32,60,Chrome,1536,864,199.975025,14,right,1.85587,squirrel,1,199.99187,199.99187,202.491485,0,5,5,5,1,7,8,1,html/resources/stimuli_practice_decision/05_glasses.jpg,html/resources/stimuli_practice_decision/03_squirrel.jpg,glasses,squirrel,,,,,,,,,,,,,,,,,,,,,,,,,,,,,,,,,,,,,,,,,,,,,,,,,,,,,,,,,,,,,,,,,,,,,,,,,,,,,
,,,,,7,2020-07-01_11h31.19.288,retriever_ti,2020.1.3,Win32,60,Chrome,1536,864,203.49163,15,right,1.71447,rabbit,0,203.508945,203.508945,206.007955,0,6,6,6,1,5,4,1,html/resources/stimuli_practice_decision/02_canary.jpg,html/resources/stimuli_practice_decision/01_rabbit.jpg,canary,rabbit,,,,,,,,,,,,,,,,,,,,,,,,,,,,,,,,,,,,,,,,,,,,,,,,,,,,,,,,,,,,,,,,,,,,,,,,,,,,,
,,,,,7,2020-07-01_11h31.19.288,retriever_ti,2020.1.3,Win32,60,Chrome,1536,864,207.00756,16,left,0.91592,canary,1,207.041415,207.041415,209.540295,0,7,7,7,1,5,3,1,html/resources/stimuli_practice_decision/02_canary.jpg,html/resources/stimuli_practice_decision/07_sock.jpg,canary,sock,,,,,,,,,,,,,,,,,,,,,,,,,,,,,,,,,,,,,,,,,,,,,,,,,,,,,,,,,,,,,,,,,,,,,,,,,,,,,
,,,,,7,2020-07-01_11h31.19.288,retriever_ti,2020.1.3,Win32,60,Chrome,1536,864,,,,,,,,,,,,,,,,,,,,,,down,1,1.520655,1,0,0,0,1,1,html/resources/sequences_IDs/star.png,square ↑,circle →,star ↓,← triangle,down,,,,,,,,,,,,,,,,,,,,,,,,,,,,,,,,,,,,,,,,,,,,,,,,,,,,,,,,,,,,,,
,,,,,7,2020-07-01_11h31.19.288,retriever_ti,2020.1.3,Win32,60,Chrome,1536,864,,,,,,,,,,,,,,,,,,,,,,left,1,2.403125,1,0,1,1,2,1,html/resources/sequences_IDs/square1.png,star ↑,triangle →,circle ↓,← square,left,,,,,,,,,,,,,,,,,,,,,,,,,,,,,,,,,,,,,,,,,,,,,,,,,,,,,,,,,,,,,,
,,,,,7,2020-07-01_11h31.19.288,retriever_ti,2020.1.3,Win32,60,Chrome,1536,864,,,,,,,,,,,,,,,,,,,,,,down,1,1.958865,1,0,2,2,3,1,html/resources/sequences_IDs/triangle.png,star ↑,square →,triangle ↓,← circle,down,,,,,,,,,,,,,,,,,,,,,,,,,,,,,,,,,,,,,,,,,,,,,,,,,,,,,,,,,,,,,,
,,,,,7,2020-07-01_11h31.19.288,retriever_ti,2020.1.3,Win32,60,Chrome,1536,864,,,,,,,,,,,,,,,,,,,,,,up,1,1.274595,1,0,3,3,0,1,html/resources/sequences_IDs/circle.png,circle ↑,square →,triangle ↓,← star ,up,,,,,,,,,,,,,,,,,,,,,,,,,,,,,,,,,,,,,,,,,,,,,,,,,,,,,,,,,,,,,,
,,,,,7,2020-07-01_11h31.19.288,retriever_ti,2020.1.3,Win32,60,Chrome,1536,864,,,,,,,,,,,,,,,,,,,,,,,,,,,,,,,,,,,,,0,2.427435,1,0,1,0,1,,,,,,,,,,,,,,,,,,,,,,,,,,,,,,,,,,,,,,,,,,,,,,,,,,,,,,,
,,,,,7,2020-07-01_11h31.19.288,retriever_ti,2020.1.3,Win32,60,Chrome,1536,864,,,,,,,,,,,,,,,,,1,,,,,,,,,,,,,,,,,,,,,,,,,,,225.89577,1,left,1.03743,dolphin     ,5,2,3,1,3,225.90801,225.90801,228.40746,0,0,0,0,1,1,5,2,dolphin     ,camel         ,html/resources/sequences_IDs/B/02_dolphin.jpg,html/resources/sequences_IDs/A/03_camel.jpg,2,3,1,1,1,1,2,3,0,7,,,,,,,,,,,,,,,,,,,,
,,,,,7,2020-07-01_11h31.19.288,retriever_ti,2020.1.3,Win32,60,Chrome,1536,864,,,,,,,,,,,,,,,,,1,,,,,,,,,,,,,,,,,,,,,,,,,,,229.024725,2,right,1.148515,dolphin     ,5,2,-1,0,0,229.05726,229.05726,231.55687,0,1,1,1,1,2,6,5,wolf          ,dolphin     ,html/resources/sequences_IDs/A/01_wolf.jpg,html/resources/sequences_IDs/B/02_dolphin.jpg,1,2,1,1,1,1,1,2,0,7,,,,,,,,,,,,,,,,,,,,
,,,,,7,2020-07-01_11h31.19.288,retriever_ti,2020.1.3,Win32,60,Chrome,1536,864,,,,,,,,,,,,,,,,,1,,,,,,,,,,,,,,,,,,,,,,,,,,,232.65695,3,right,0.734265,wolf          ,6,1,1,1,1,232.674205,232.674205,235.173225,0,2,2,2,1,3,5,6,dolphin     ,wolf          ,html/resources/sequences_IDs/B/02_dolphin.jpg,html/resources/sequences_IDs/A/01_wolf.jpg,2,1,1,1,1,1,2,1,0,7,,,,,,,,,,,,,,,,,,,,
,,,,,7,2020-07-01_11h31.19.288,retriever_ti,2020.1.3,Win32,60,Chrome,1536,864,,,,,,,,,,,,,,,,,1,,,,,,,,,,,,,,,,,,,,,,,,,,,236.27386,4,left,0.97799,holdfast    ,1,4,-2,0,3,236.30651,236.30651,238.80668,0,3,3,3,1,4,1,3,holdfast    ,radio       ,html/resources/sequences_IDs/B/04_holdfast.jpg,html/resources/sequences_IDs/B/10_radio.jpg,4,10,2,1,4,2,4,8,0,7,,,,,,,,,,,,,,,,,,,,
,,,,,7,2020-07-01_11h31.19.288,retriever_ti,2020.1.3,Win32,60,Chrome,1536,864,,,,,,,,,,,,,,,,,1,,,,,,,,,,,,,,,,,,,,,,,,,,,239.423625,5,left,1.26305,camel         ,2,3,-1,0,0,239.4399,239.4399,241.939055,0,4,4,4,1,5,2,3,camel         ,radio       ,html/resources/sequences_IDs/A/03_camel.jpg,html/resources/sequences_IDs/B/10_radio.jpg,3,10,1,1,4,2,3,8,0,7,,,,,,,,,,,,,,,,,,,,
,,,,,7,2020-07-01_11h31.19.288,retriever_ti,2020.1.3,Win32,60,Chrome,1536,864,,,,,,,,,,,,,,,,,1,,,,,,,,,,,,,,,,,,,,,,,,,,,243.03972,6,right,1.486645,camel         ,2,3,-2,0,3,243.056305,243.056305,245.55602,0,5,5,5,1,6,4,2,calculator    ,camel         ,html/resources/sequences_IDs/A/09_calculator.jpg,html/resources/sequences_IDs/A/03_camel.jpg,9,3,4,2,1,1,7,3,0,7,,,,,,,,,,,,,,,,,,,,
,,,,,7,2020-07-01_11h31.19.288,retriever_ti,2020.1.3,Win32,60,Chrome,1536,864,,,,,,,,,,,,,,,,,1,,,,,,,,,,,,,,,,,,,,,,,,,,,246.17306,7,left,0.99853,wolf          ,6,1,-1,0,0,246.189735,246.189735,248.68878,0,6,6,6,1,7,6,7,wolf          ,gloves      ,html/resources/sequences_IDs/A/01_wolf.jpg,html/resources/sequences_IDs/B/06_gloves.jpg,1,6,1,1,3,2,1,5,0,7,,,,,,,,,,,,,,,,,,,,
,,,,,7,2020-07-01_11h31.19.288,retriever_ti,2020.1.3,Win32,60,Chrome,1536,864,,,,,,,,,,,,,,,,,1,,,,,,,,,,,,,,,,,,,,,,,,,,,249.78914,8,right,1.163785,dolphin     ,5,2,4,1,3,249.82328,249.82328,252.32233,0,7,7,7,1,8,1,5,holdfast    ,dolphin     ,html/resources/sequences_IDs/B/04_holdfast.jpg,html/resources/sequences_IDs/B/02_dolphin.jpg,4,2,2,1,1,1,4,2,0,7,,,,,,,,,,,,,,,,,,,,
,,,,,7,2020-07-01_11h31.19.288,retriever_ti,2020.1.3,Win32,60,Chrome,1536,864,,,,,,,,,,,,,,,,,1,,,,,,,,,,,,,,,,,,,,,,,,,,,252.939295,9,left,1.272225,dolphin     ,5,2,-1,0,1,252.956485,252.956485,255.455585,0,8,8,8,1,9,5,6,dolphin     ,wolf          ,html/resources/sequences_IDs/B/02_dolphin.jpg,html/resources/sequences_IDs/A/01_wolf.jpg,2,1,1,1,1,1,2,1,1,7,,,,,,,,,,,,,,,,,,,,
,,,,,7,2020-07-01_11h31.19.288,retriever_ti,2020.1.3,Win32,60,Chrome,1536,864,,,,,,,,,,,,,,,,,1,,,,,,,,,,,,,,,,,,,,,,,,,,,256.556165,10,left,1.041645,radio       ,3,10,2,1,3,256.589415,256.589415,259.089,0,9,9,9,1,10,3,1,radio       ,holdfast    ,html/resources/sequences_IDs/B/10_radio.jpg,html/resources/sequences_IDs/B/04_holdfast.jpg,10,4,4,2,2,1,8,4,0,7,,,,,,,,,,,,,,,,,,,,
,,,,,7,2020-07-01_11h31.19.288,retriever_ti,2020.1.3,Win32,60,Chrome,1536,864,,,,,,,,,,,,,,,,,1,,,,,,,,,,,,,,,,,,,,,,,,,,,259.70587,11,left,1.09572,radio       ,3,10,-1,0,1,259.7227,259.7227,262.22237,0,10,10,10,1,11,3,4,radio       ,calculator    ,html/resources/sequences_IDs/B/10_radio.jpg,html/resources/sequences_IDs/A/09_calculator.jpg,10,9,4,2,4,2,8,7,1,7,,,,,,,,,,,,,,,,,,,,
,,,,,7,2020-07-01_11h31.19.288,retriever_ti,2020.1.3,Win32,60,Chrome,1536,864,,,,,,,,,,,,,,,,,1,,,,,,,,,,,,,,,,,,,,,,,,,,,263.322135,12,right,0.95271,camel         ,2,3,1,1,0,263.339745,263.339745,265.838435,0,11,11,11,1,12,1,2,holdfast    ,camel         ,html/resources/sequences_IDs/B/04_holdfast.jpg,html/resources/sequences_IDs/A/03_camel.jpg,4,3,2,1,1,1,4,3,1,7,,,,,,,,,,,,,,,,,,,,
,,,,,7,2020-07-01_11h31.19.288,retriever_ti,2020.1.3,Win32,60,Chrome,1536,864,,,,,,,,,,,,,,,,,1,,,,,,,,,,,,,,,,,,,,,,,,,,,266.939455,13,right,1.36122,camel         ,2,3,-6,0,3,266.95578,266.95578,269.454775,0,12,12,12,1,13,8,2,hat           ,camel         ,html/resources/sequences_IDs/A/08_hat.jpg,html/resources/sequences_IDs/A/03_camel.jpg,8,3,3,2,1,1,6,3,0,7,,,,,,,,,,,,,,,,,,,,
,,,,,7,2020-07-01_11h31.19.288,retriever_ti,2020.1.3,Win32,60,Chrome,1536,864,,,,,,,,,,,,,,,,,1,,,,,,,,,,,,,,,,,,,,,,,,,,,270.0718,14,left,0.907625,gloves      ,7,6,-1,0,0,270.10542,270.10542,272.6046,0,13,13,13,1,14,7,8,gloves      ,hat           ,html/resources/sequences_IDs/B/06_gloves.jpg,html/resources/sequences_IDs/A/08_hat.jpg,6,8,3,2,3,2,5,6,0,7,,,,,,,,,,,,,,,,,,,,
,,,,,7,2020-07-01_11h31.19.288,retriever_ti,2020.1.3,Win32,60,Chrome,1536,864,,,,,,,,,,,,,,,,,1,,,,,,,,,,,,,,,,,,,,,,,,,,,273.70516,15,left,1.28805,hat           ,8,8,2,1,3,273.721795,273.721795,276.221015,0,14,14,14,1,15,8,6,hat           ,wolf          ,html/resources/sequences_IDs/A/08_hat.jpg,html/resources/sequences_IDs/A/01_wolf.jpg,8,1,3,2,1,1,6,1,0,7,,,,,,,,,,,,,,,,,,,,
,,,,,7,2020-07-01_11h31.19.288,retriever_ti,2020.1.3,Win32,60,Chrome,1536,864,,,,,,,,,,,,,,,,,1,,,,,,,,,,,,,,,,,,,,,,,,,,,276.83855,16,left,0.973345,dolphin     ,5,2,1,1,1,276.855135,276.855135,279.35432,0,15,15,15,1,16,5,4,dolphin     ,calculator    ,html/resources/sequences_IDs/B/02_dolphin.jpg,html/resources/sequences_IDs/A/09_calculator.jpg,2,9,1,1,4,2,2,7,0,7,,,,,,,,,,,,,,,,,,,,
,,,,,7,2020-07-01_11h31.19.288,retriever_ti,2020.1.3,Win32,60,Chrome,1536,864,,,,,,,,,,,,,,,,,1,,,,,,,,,,,,,,,,,,,,,,,,,,,280.454965,17,right,1.06563,gloves      ,7,6,-1,0,0,280.47159,280.47159,282.97114,0,16,16,16,1,17,8,7,hat           ,gloves      ,html/resources/sequences_IDs/A/08_hat.jpg,html/resources/sequences_IDs/B/06_gloves.jpg,8,6,3,2,3,2,6,5,0,7,,,,,,,,,,,,,,,,,,,,
,,,,,7,2020-07-01_11h31.19.288,retriever_ti,2020.1.3,Win32,60,Chrome,1536,864,,,,,,,,,,,,,,,,,1,,,,,,,,,,,,,,,,,,,,,,,,,,,284.07136,18,left,0.649965,hat           ,8,8,1,1,1,284.08868,284.08868,286.58762,0,17,17,17,1,18,8,7,hat           ,gloves      ,html/resources/sequences_IDs/A/08_hat.jpg,html/resources/sequences_IDs/B/06_gloves.jpg,8,6,3,2,3,2,6,5,0,7,,,,,,,,,,,,,,,,,,,,
,,,,,7,2020-07-01_11h31.19.288,retriever_ti,2020.1.3,Win32,60,Chrome,1536,864,,,,,,,,,,,,,,,,,1,,,,,,,,,,,,,,,,,,,,,,,,,,,287.688005,19,left,1.04471,dolphin     ,5,2,-3,0,3,287.70504,287.70504,290.20459,0,18,18,18,1,19,5,8,dolphin     ,hat           ,html/resources/sequences_IDs/B/02_dolphin.jpg,html/resources/sequences_IDs/A/08_hat.jpg,2,8,1,1,3,2,2,6,0,7,,,,,,,,,,,,,,,,,,,,
,,,,,7,2020-07-01_11h31.19.288,retriever_ti,2020.1.3,Win32,60,Chrome,1536,864,,,,,,,,,,,,,,,,,1,,,,,,,,,,,,,,,,,,,,,,,,,,,290.821635,20,right,1.205905,hat           ,8,8,2,1,3,290.854935,290.854935,293.353575,0,19,19,19,1,20,6,8,wolf          ,hat           ,html/resources/sequences_IDs/A/01_wolf.jpg,html/resources/sequences_IDs/A/08_hat.jpg,1,8,1,1,3,2,1,6,0,7,,,,,,,,,,,,,,,,,,,,
,,,,,7,2020-07-01_11h31.19.288,retriever_ti,2020.1.3,Win32,60,Chrome,1536,864,,,,,,,,,,,,,,,,,1,,,,,,,,,,,,,,,,,,,,,,,,,,,293.95474,21,left,1.513415,radio       ,3,10,1,1,1,293.987525,293.987525,296.486795,0,20,20,20,1,21,3,2,radio       ,camel         ,html/resources/sequences_IDs/B/10_radio.jpg,html/resources/sequences_IDs/A/03_camel.jpg,10,3,4,2,1,1,8,3,0,7,,,,,,,,,,,,,,,,,,,,
,,,,,7,2020-07-01_11h31.19.288,retriever_ti,2020.1.3,Win32,60,Chrome,1536,864,,,,,,,,,,,,,,,,,1,,,,,,,,,,,,,,,,,,,,,,,,,,,297.58747,22,right,1.329005,holdfast    ,1,4,-3,0,3,297.60399,297.60399,300.103495,0,21,21,21,1,22,4,1,calculator    ,holdfast    ,html/resources/sequences_IDs/A/09_calculator.jpg,html/resources/sequences_IDs/B/04_holdfast.jpg,9,4,4,2,2,1,7,4,0,7,,,,,,,,,,,,,,,,,,,,
,,,,,7,2020-07-01_11h31.19.288,retriever_ti,2020.1.3,Win32,60,Chrome,1536,864,,,,,,,,,,,,,,,,,1,,,,,,,,,,,,,,,,,,,,,,,,,,,300.720555,23,left,0.929005,dolphin     ,5,2,-2,0,3,300.73752,300.73752,303.23693,0,22,22,22,1,23,5,7,dolphin     ,gloves      ,html/resources/sequences_IDs/B/02_dolphin.jpg,html/resources/sequences_IDs/B/06_gloves.jpg,2,6,1,1,3,2,2,5,0,7,,,,,,,,,,,,,,,,,,,,
,,,,,7,2020-07-01_11h31.19.288,retriever_ti,2020.1.3,Win32,60,Chrome,1536,864,,,,,,,,,,,,,,,,,1,,,,,,,,,,,,,,,,,,,,,,,,,,,303.85346,24,left,0.976475,radio       ,3,10,-1,0,0,303.870795,303.870795,306.370155,0,23,23,23,1,24,3,4,radio       ,calculator    ,html/resources/sequences_IDs/B/10_radio.jpg,html/resources/sequences_IDs/A/09_calculator.jpg,10,9,4,2,4,2,8,7,0,7,,,,,,,,,,,,,,,,,,,,
,,,,,7,2020-07-01_11h31.19.288,retriever_ti,2020.1.3,Win32,60,Chrome,1536,864,,,,,,,,,,,,,,,,,1,,,,,,,,,,,,,,,,,,,,,,,,,,,307.470635,25,left,1.55193,gloves      ,7,6,1,1,0,307.487495,307.487495,309.986295,0,24,24,24,1,25,7,6,gloves      ,wolf          ,html/resources/sequences_IDs/B/06_gloves.jpg,html/resources/sequences_IDs/A/01_wolf.jpg,6,1,3,2,1,1,5,1,1,7,,,,,,,,,,,,,,,,,,,,
,,,,,7,2020-07-01_11h31.19.288,retriever_ti,2020.1.3,Win32,60,Chrome,1536,864,,,,,,,,,,,,,,,,,1,,,,,,,,,,,,,,,,,,,,,,,,,,,311.087095,26,right,0.88694,dolphin     ,5,2,-2,0,3,311.120635,311.120635,313.620095,0,25,25,25,1,26,7,5,gloves      ,dolphin     ,html/resources/sequences_IDs/B/06_gloves.jpg,html/resources/sequences_IDs/B/02_dolphin.jpg,6,2,3,2,1,1,5,2,0,7,,,,,,,,,,,,,,,,,,,,
,,,,,7,2020-07-01_11h31.19.288,retriever_ti,2020.1.3,Win32,60,Chrome,1536,864,,,,,,,,,,,,,,,,,1,,,,,,,,,,,,,,,,,,,,,,,,,,,314.23689,27,left,1.19761,hat           ,8,8,1,1,0,314.270575,314.270575,316.769635,0,26,26,26,1,27,8,7,hat           ,gloves      ,html/resources/sequences_IDs/A/08_hat.jpg,html/resources/sequences_IDs/B/06_gloves.jpg,8,6,3,2,3,2,6,5,1,7,,,,,,,,,,,,,,,,,,,,
,,,,,7,2020-07-01_11h31.19.288,retriever_ti,2020.1.3,Win32,60,Chrome,1536,864,,,,,,,,,,,,,,,,,1,,,,,,,,,,,,,,,,,,,,,,,,,,,317.87003,28,left,1.262865,camel         ,2,3,1,1,1,317.88696,317.88696,320.386045,0,27,27,27,1,28,2,1,camel         ,holdfast    ,html/resources/sequences_IDs/A/03_camel.jpg,html/resources/sequences_IDs/B/04_holdfast.jpg,3,4,1,1,2,1,3,4,0,7,,,,,,,,,,,,,,,,,,,,
,,,,,7,2020-07-01_11h31.19.288,retriever_ti,2020.1.3,Win32,60,Chrome,1536,864,,,,,,,,,,,,,,,,,1,,,,,,,,,,,,,,,,,,,,,,,,,,,321.487125,29,left,1.021485,hat           ,8,8,7,1,3,321.504045,321.504045,324.002375,0,28,28,28,1,29,8,1,hat           ,holdfast    ,html/resources/sequences_IDs/A/08_hat.jpg,html/resources/sequences_IDs/B/04_holdfast.jpg,8,4,3,2,2,1,6,4,0,7,,,,,,,,,,,,,,,,,,,,
,,,,,7,2020-07-01_11h31.19.288,retriever_ti,2020.1.3,Win32,60,Chrome,1536,864,,,,,,,,,,,,,,,,,1,,,,,,,,,,,,,,,,,,,,,,,,,,,324.603635,30,left,0.948285,calculator    ,4,9,-4,0,3,324.62031,324.62031,327.11929,0,29,29,29,1,30,4,8,calculator    ,hat           ,html/resources/sequences_IDs/A/09_calculator.jpg,html/resources/sequences_IDs/A/08_hat.jpg,9,8,4,2,3,2,7,6,0,7,,,,,,,,,,,,,,,,,,,,
,,,,,7,2020-07-01_11h31.19.288,retriever_ti,2020.1.3,Win32,60,Chrome,1536,864,,,,,,,,,,,,,,,,,1,,,,,,,,,,,,,,,,,,,,,,,,,,,327.719725,31,left,1.81389,camel         ,2,3,-4,0,3,327.753025,327.753025,330.2527,0,30,30,30,1,31,2,6,camel         ,wolf          ,html/resources/sequences_IDs/A/03_camel.jpg,html/resources/sequences_IDs/A/01_wolf.jpg,3,1,1,1,1,1,3,1,0,7,,,,,,,,,,,,,,,,,,,,
,,,,,7,2020-07-01_11h31.19.288,retriever_ti,2020.1.3,Win32,60,Chrome,1536,864,,,,,,,,,,,,,,,,,1,,,,,,,,,,,,,,,,,,,,,,,,,,,330.8703,32,right,1.2923,gloves      ,7,6,1,1,1,330.903955,330.903955,333.402485,0,31,31,31,1,32,6,7,wolf          ,gloves      ,html/resources/sequences_IDs/A/01_wolf.jpg,html/resources/sequences_IDs/B/06_gloves.jpg,1,6,1,1,3,2,1,5,0,7,,,,,,,,,,,,,,,,,,,,
,,,,,7,2020-07-01_11h31.19.288,retriever_ti,2020.1.3,Win32,60,Chrome,1536,864,,,,,,,,,,,,,,,,,1,,,,,,,,,,,,,,,,,,,,,,,,,,,334.50267,33,right,1.213215,camel         ,2,3,1,1,1,334.53722,334.53722,337.035895,0,32,32,32,1,33,1,2,holdfast    ,camel         ,html/resources/sequences_IDs/B/04_holdfast.jpg,html/resources/sequences_IDs/A/03_camel.jpg,4,3,2,1,1,1,4,3,0,7,,,,,,,,,,,,,,,,,,,,
,,,,,7,2020-07-01_11h31.19.288,retriever_ti,2020.1.3,Win32,60,Chrome,1536,864,,,,,,,,,,,,,,,,,1,,,,,,,,,,,,,,,,,,,,,,,,,,,338.136125,34,right,0.85509,camel         ,2,3,-1,0,0,338.15265,338.15265,340.652415,0,33,33,33,1,34,3,2,radio       ,camel         ,html/resources/sequences_IDs/B/10_radio.jpg,html/resources/sequences_IDs/A/03_camel.jpg,10,3,4,2,1,1,8,3,0,7,,,,,,,,,,,,,,,,,,,,
,,,,,7,2020-07-01_11h31.19.288,retriever_ti,2020.1.3,Win32,60,Chrome,1536,864,,,,,,,,,,,,,,,,,1,,,,,,,,,,,,,,,,,,,,,,,,,,,341.75232,35,right,0.938275,dolphin     ,5,2,1,1,0,341.769195,341.769195,344.268295,0,34,34,34,1,35,4,5,calculator    ,dolphin     ,html/resources/sequences_IDs/A/09_calculator.jpg,html/resources/sequences_IDs/B/02_dolphin.jpg,9,2,4,2,1,1,7,2,1,7,,,,,,,,,,,,,,,,,,,,
,,,,,7,2020-07-01_11h31.19.288,retriever_ti,2020.1.3,Win32,60,Chrome,1536,864,,,,,,,,,,,,,,,,,1,,,,,,,,,,,,,,,,,,,,,,,,,,,345.369465,36,left,1.677795,gloves      ,7,6,3,1,3,345.402585,345.402585,347.901675,0,35,35,35,1,36,7,4,gloves      ,calculator    ,html/resources/sequences_IDs/B/06_gloves.jpg,html/resources/sequences_IDs/A/09_calculator.jpg,6,9,3,2,4,2,5,7,0,7,,,,,,,,,,,,,,,,,,,,
,,,,,7,2020-07-01_11h31.19.288,retriever_ti,2020.1.3,Win32,60,Chrome,1536,864,,,,,,,,,,,,,,,,,1,,,,,,,,,,,,,,,,,,,,,,,,,,,348.5023,37,left,0.70895,dolphin     ,5,2,-1,0,0,348.5359,348.5359,351.03507,0,36,36,36,1,37,5,6,dolphin     ,wolf          ,html/resources/sequences_IDs/B/02_dolphin.jpg,html/resources/sequences_IDs/A/01_wolf.jpg,2,1,1,1,1,1,2,1,0,7,,,,,,,,,,,,,,,,,,,,
,,,,,7,2020-07-01_11h31.19.288,retriever_ti,2020.1.3,Win32,60,Chrome,1536,864,,,,,,,,,,,,,,,,,1,,,,,,,,,,,,,,,,,,,,,,,,,,,352.13567,38,left,1.72606,calculator    ,4,9,-3,0,3,352.16884,352.16884,354.667895,0,37,37,37,1,38,4,7,calculator    ,gloves      ,html/resources/sequences_IDs/A/09_calculator.jpg,html/resources/sequences_IDs/B/06_gloves.jpg,9,6,4,2,3,2,7,5,0,7,,,,,,,,,,,,,,,,,,,,
,,,,,7,2020-07-01_11h31.19.288,retriever_ti,2020.1.3,Win32,60,Chrome,1536,864,,,,,,,,,,,,,,,,,1,,,,,,,,,,,,,,,,,,,,,,,,,,,355.268775,39,right,0.954905,dolphin     ,5,2,3,1,3,355.28561,355.28561,357.784795,0,38,38,38,1,39,2,5,camel         ,dolphin     ,html/resources/sequences_IDs/A/03_camel.jpg,html/resources/sequences_IDs/B/02_dolphin.jpg,3,2,1,1,1,1,3,2,0,7,,,,,,,,,,,,,,,,,,,,
,,,,,7,2020-07-01_11h31.19.288,retriever_ti,2020.1.3,Win32,60,Chrome,1536,864,,,,,,,,,,,,,,,,,1,,,,,,,,,,,,,,,,,,,,,,,,,,,358.40194,40,left,1.354645,holdfast    ,1,4,-5,0,3,358.43559,358.43559,360.93464,0,39,39,39,1,40,1,6,holdfast    ,wolf          ,html/resources/sequences_IDs/B/04_holdfast.jpg,html/resources/sequences_IDs/A/01_wolf.jpg,4,1,2,1,1,1,4,1,0,7,,,,,,,,,,,,,,,,,,,,
,,,,,7,2020-07-01_11h31.19.288,retriever_ti,2020.1.3,Win32,60,Chrome,1536,864,,,,,,,,,,,,,,,,,1,,,,,,,,,,,,,,,,,,,,,,,,,,,361.551475,41,left,0.85564,radio       ,3,10,-1,0,0,361.5849,361.5849,364.084485,0,40,40,40,1,41,3,4,radio       ,calculator    ,html/resources/sequences_IDs/B/10_radio.jpg,html/resources/sequences_IDs/A/09_calculator.jpg,10,9,4,2,4,2,8,7,0,7,,,,,,,,,,,,,,,,,,,,
,,,,,7,2020-07-01_11h31.19.288,retriever_ti,2020.1.3,Win32,60,Chrome,1536,864,,,,,,,,,,,,,,,,,1,,,,,,,,,,,,,,,,,,,,,,,,,,,365.18469,42,right,0.949165,dolphin     ,5,2,-1,0,0,365.202325,365.202325,367.70143,0,41,41,41,1,42,6,5,wolf          ,dolphin     ,html/resources/sequences_IDs/A/01_wolf.jpg,html/resources/sequences_IDs/B/02_dolphin.jpg,1,2,1,1,1,1,1,2,0,7,,,,,,,,,,,,,,,,,,,,
,,,,,7,2020-07-01_11h31.19.288,retriever_ti,2020.1.3,Win32,60,Chrome,1536,864,,,,,,,,,,,,,,,,,1,,,,,,,,,,,,,,,,,,,,,,,,,,,368.801165,43,left,1.527415,gloves      ,7,6,1,1,1,368.834825,368.834825,371.333855,0,42,42,42,1,43,7,6,gloves      ,wolf          ,html/resources/sequences_IDs/B/06_gloves.jpg,html/resources/sequences_IDs/A/01_wolf.jpg,6,1,3,2,1,1,5,1,0,7,,,,,,,,,,,,,,,,,,,,
,,,,,7,2020-07-01_11h31.19.288,retriever_ti,2020.1.3,Win32,60,Chrome,1536,864,,,,,,,,,,,,,,,,,1,,,,,,,,,,,,,,,,,,,,,,,,,,,372.43443,44,left,1.29035,calculator    ,4,9,-2,0,3,372.46815,372.46815,374.967795,0,43,43,43,1,44,4,6,calculator    ,wolf          ,html/resources/sequences_IDs/A/09_calculator.jpg,html/resources/sequences_IDs/A/01_wolf.jpg,9,1,4,2,1,1,7,1,0,7,,,,,,,,,,,,,,,,,,,,
,,,,,7,2020-07-01_11h31.19.288,retriever_ti,2020.1.3,Win32,60,Chrome,1536,864,,,,,,,,,,,,,,,,,1,,,,,,,,,,,,,,,,,,,,,,,,,,,375.5841,45,left,1.145985,dolphin     ,5,2,2,1,3,375.618035,375.618035,378.11715,0,44,44,44,1,45,5,3,dolphin     ,radio       ,html/resources/sequences_IDs/B/02_dolphin.jpg,html/resources/sequences_IDs/B/10_radio.jpg,2,10,1,1,4,2,2,8,0,7,,,,,,,,,,,,,,,,,,,,
,,,,,7,2020-07-01_11h31.19.288,retriever_ti,2020.1.3,Win32,60,Chrome,1536,864,,,,,,,,,,,,,,,,,1,,,,,,,,,,,,,,,,,,,,,,,,,,,378.734175,46,right,1.59482,calculator    ,4,9,3,1,3,378.767835,378.767835,381.26702,0,45,45,45,1,46,1,4,holdfast    ,calculator    ,html/resources/sequences_IDs/B/04_holdfast.jpg,html/resources/sequences_IDs/A/09_calculator.jpg,4,9,2,1,4,2,4,7,0,7,,,,,,,,,,,,,,,,,,,,
,,,,,7,2020-07-01_11h31.19.288,retriever_ti,2020.1.3,Win32,60,Chrome,1536,864,,,,,,,,,,,,,,,,,1,,,,,,,,,,,,,,,,,,,,,,,,,,,381.867405,47,right,1.009765,dolphin     ,5,2,1,1,1,381.88472,381.88472,384.38333,0,46,46,46,1,47,4,5,calculator    ,dolphin     ,html/resources/sequences_IDs/A/09_calculator.jpg,html/resources/sequences_IDs/B/02_dolphin.jpg,9,2,4,2,1,1,7,2,0,7,,,,,,,,,,,,,,,,,,,,
,,,,,7,2020-07-01_11h31.19.288,retriever_ti,2020.1.3,Win32,60,Chrome,1536,864,,,,,,,,,,,,,,,,,1,,,,,,,,,,,,,,,,,,,,,,,,,,,385.484525,48,right,1.95527,camel         ,2,3,1,1,1,385.50115,385.50115,388.000205,0,47,47,47,1,48,1,2,holdfast    ,camel         ,html/resources/sequences_IDs/B/04_holdfast.jpg,html/resources/sequences_IDs/A/03_camel.jpg,4,3,2,1,1,1,4,3,0,7,,,,,,,,,,,,,,,,,,,,
,,,,,7,2020-07-01_11h31.19.288,retriever_ti,2020.1.3,Win32,60,Chrome,1536,864,,,,,,,,,,,,,,,,,1,,,,,,,,,,,,,,,,,,,,,,,,,,,389.10047,49,left,1.141495,radio       ,3,10,-5,0,3,389.11707,389.11707,391.616705,0,48,48,48,1,49,3,8,radio       ,hat           ,html/resources/sequences_IDs/B/10_radio.jpg,html/resources/sequences_IDs/A/08_hat.jpg,10,8,4,2,3,2,8,6,0,7,,,,,,,,,,,,,,,,,,,,
,,,,,7,2020-07-01_11h31.19.288,retriever_ti,2020.1.3,Win32,60,Chrome,1536,864,,,,,,,,,,,,,,,,,1,,,,,,,,,,,,,,,,,,,,,,,,,,,392.23418,50,left,1.29445,camel         ,2,3,-6,0,3,392.268075,392.268075,394.76653,0,49,49,49,1,50,2,8,camel         ,hat           ,html/resources/sequences_IDs/A/03_camel.jpg,html/resources/sequences_IDs/A/08_hat.jpg,3,8,1,1,3,2,3,6,0,7,,,,,,,,,,,,,,,,,,,,
,,,,,7,2020-07-01_11h31.19.288,retriever_ti,2020.1.3,Win32,60,Chrome,1536,864,,,,,,,,,,,,,,,,,1,,,,,,,,,,,,,,,,,,,,,,,,,,,395.36741,51,right,1.40601,radio       ,3,10,-5,0,3,395.384285,395.384285,397.883385,0,50,50,50,1,51,8,3,hat           ,radio       ,html/resources/sequences_IDs/A/08_hat.jpg,html/resources/sequences_IDs/B/10_radio.jpg,8,10,3,2,4,2,6,8,0,7,,,,,,,,,,,,,,,,,,,,
,,,,,7,2020-07-01_11h31.19.288,retriever_ti,2020.1.3,Win32,60,Chrome,1536,864,,,,,,,,,,,,,,,,,1,,,,,,,,,,,,,,,,,,,,,,,,,,,398.483995,52,left,0.999165,camel         ,2,3,-2,0,3,398.517655,398.517655,401.016765,0,51,51,51,1,52,2,4,camel         ,calculator    ,html/resources/sequences_IDs/A/03_camel.jpg,html/resources/sequences_IDs/A/09_calculator.jpg,3,9,1,1,4,2,3,7,0,7,,,,,,,,,,,,,,,,,,,,
,,,,,7,2020-07-01_11h31.19.288,retriever_ti,2020.1.3,Win32,60,Chrome,1536,864,,,,,,,,,,,,,,,,,1,,,,,,,,,,,,,,,,,,,,,,,,,,,401.63312,53,right,1.52144,calculator    ,4,9,-4,0,3,401.66699,401.66699,404.166585,0,52,52,52,1,53,8,4,hat           ,calculator    ,html/resources/sequences_IDs/A/08_hat.jpg,html/resources/sequences_IDs/A/09_calculator.jpg,8,9,3,2,4,2,6,7,0,7,,,,,,,,,,,,,,,,,,,,
,,,,,7,2020-07-01_11h31.19.288,retriever_ti,2020.1.3,Win32,60,Chrome,1536,864,,,,,,,,,,,,,,,,,1,,,,,,,,,,,,,,,,,,,,,,,,,,,404.783225,54,right,1.85482,wolf          ,6,1,3,1,3,404.80037,404.80037,407.299965,0,53,53,53,1,54,3,6,radio       ,wolf          ,html/resources/sequences_IDs/B/10_radio.jpg,html/resources/sequences_IDs/A/01_wolf.jpg,10,1,4,2,1,1,8,1,0,7,,,,,,,,,,,,,,,,,,,,
,,,,,7,2020-07-01_11h31.19.288,retriever_ti,2020.1.3,Win32,60,Chrome,1536,864,,,,,,,,,,,,,,,,,1,,,,,,,,,,,,,,,,,,,,,,,,,,,407.916345,55,left,1.356195,gloves      ,7,6,5,1,3,407.95027,407.95027,410.4498,0,54,54,54,1,55,7,2,gloves      ,camel         ,html/resources/sequences_IDs/B/06_gloves.jpg,html/resources/sequences_IDs/A/03_camel.jpg,6,3,3,2,1,1,5,3,0,7,,,,,,,,,,,,,,,,,,,,
,,,,,7,2020-07-01_11h31.19.288,retriever_ti,2020.1.3,Win32,60,Chrome,1536,864,,,,,,,,,,,,,,,,,1,,,,,,,,,,,,,,,,,,,,,,,,,,,411.06645,56,left,1.55532,wolf          ,6,1,2,1,3,411.100145,411.100145,413.599205,0,55,55,55,1,56,6,4,wolf          ,calculator    ,html/resources/sequences_IDs/A/01_wolf.jpg,html/resources/sequences_IDs/A/09_calculator.jpg,1,9,1,1,4,2,1,7,0,7,,,,,,,,,,,,,,,,,,,,
,,,,,7,2020-07-01_11h31.19.288,retriever_ti,2020.1.3,Win32,60,Chrome,1536,864,,,,,,,,,,,,,,,,,1,,,,,,,,,,,,,,,,,,,,,,,,,,,414.21622,57,left,0.99308,dolphin     ,5,2,1,1,1,414.2336,414.2336,416.7321,0,56,56,56,1,57,5,4,dolphin     ,calculator    ,html/resources/sequences_IDs/B/02_dolphin.jpg,html/resources/sequences_IDs/A/09_calculator.jpg,2,9,1,1,4,2,2,7,0,7,,,,,,,,,,,,,,,,,,,,
,,,,,7,2020-07-01_11h31.19.288,retriever_ti,2020.1.3,Win32,60,Chrome,1536,864,,,,,,,,,,,,,,,,,1,,,,,,,,,,,,,,,,,,,,,,,,,,,417.8329,58,right,1.42874,camel         ,2,3,-1,0,1,417.849865,417.849865,420.34902,0,57,57,57,1,58,3,2,radio       ,camel         ,html/resources/sequences_IDs/B/10_radio.jpg,html/resources/sequences_IDs/A/03_camel.jpg,10,3,4,2,1,1,8,3,1,7,,,,,,,,,,,,,,,,,,,,
,,,,,7,2020-07-01_11h31.19.288,retriever_ti,2020.1.3,Win32,60,Chrome,1536,864,,,,,,,,,,,,,,,,,1,,,,,,,,,,,,,,,,,,,,,,,,,,,421.44914,59,right,1.047525,hat           ,8,8,1,1,1,421.465785,421.465785,423.96539,0,58,58,58,1,59,7,8,gloves      ,hat           ,html/resources/sequences_IDs/B/06_gloves.jpg,html/resources/sequences_IDs/A/08_hat.jpg,6,8,3,2,3,2,5,6,0,7,,,,,,,,,,,,,,,,,,,,
,,,,,7,2020-07-01_11h31.19.288,retriever_ti,2020.1.3,Win32,60,Chrome,1536,864,,,,,,,,,,,,,,,,,1,,,,,,,,,,,,,,,,,,,,,,,,,,,425.06557,60,right,0.976055,dolphin     ,5,2,1,1,1,425.0992,425.0992,427.598775,0,59,59,59,1,60,4,5,calculator    ,dolphin     ,html/resources/sequences_IDs/A/09_calculator.jpg,html/resources/sequences_IDs/B/02_dolphin.jpg,9,2,4,2,1,1,7,2,0,7,,,,,,,,,,,,,,,,,,,,
,,,,,7,2020-07-01_11h31.19.288,retriever_ti,2020.1.3,Win32,60,Chrome,1536,864,,,,,,,,,,,,,,,,,1,,,,,,,,,,,,,,,,,,,,,,,,,,,428.698955,61,left,1.338055,calculator    ,4,9,1,1,1,428.733015,428.733015,431.232195,0,60,60,60,1,61,4,3,calculator    ,radio       ,html/resources/sequences_IDs/A/09_calculator.jpg,html/resources/sequences_IDs/B/10_radio.jpg,9,10,4,2,4,2,7,8,0,7,,,,,,,,,,,,,,,,,,,,
,,,,,7,2020-07-01_11h31.19.288,retriever_ti,2020.1.3,Win32,60,Chrome,1536,864,,,,,,,,,,,,,,,,,1,,,,,,,,,,,,,,,,,,,,,,,,,,,432.332375,62,right,1.007955,dolphin     ,5,2,-3,0,3,432.349075,432.349075,434.84861,0,61,61,61,1,62,8,5,hat           ,dolphin     ,html/resources/sequences_IDs/A/08_hat.jpg,html/resources/sequences_IDs/B/02_dolphin.jpg,8,2,3,2,1,1,6,2,0,7,,,,,,,,,,,,,,,,,,,,
,,,,,7,2020-07-01_11h31.19.288,retriever_ti,2020.1.3,Win32,60,Chrome,1536,864,,,,,,,,,,,,,,,,,1,,,,,,,,,,,,,,,,,,,,,,,,,,,435.46491,63,left,1.473065,camel         ,2,3,-1,0,0,435.48246,435.48246,437.981585,0,62,62,62,1,63,2,3,camel         ,radio       ,html/resources/sequences_IDs/A/03_camel.jpg,html/resources/sequences_IDs/B/10_radio.jpg,3,10,1,1,4,2,3,8,0,7,,,,,,,,,,,,,,,,,,,,
,,,,,7,2020-07-01_11h31.19.288,retriever_ti,2020.1.3,Win32,60,Chrome,1536,864,,,,,,,,,,,,,,,,,1,,,,,,,,,,,,,,,,,,,,,,,,,,,439.0822,64,left,1.47538,holdfast    ,1,4,-7,0,3,439.115945,439.115945,441.61433,0,63,63,63,1,64,1,8,holdfast    ,hat           ,html/resources/sequences_IDs/B/04_holdfast.jpg,html/resources/sequences_IDs/A/08_hat.jpg,4,8,2,1,3,2,4,6,0,7,,,,,,,,,,,,,,,,,,,,
,,,,,7,2020-07-01_11h31.19.288,retriever_ti,2020.1.3,Win32,60,Chrome,1536,864,,,,,,,,,,,,,,,,,1,,,,,,,,,,,,,,,,,,,,,,,,,,,442.21547,65,left,0.75735,dolphin     ,5,2,4,1,3,442.23226,442.23226,444.731255,0,64,64,64,1,65,5,1,dolphin     ,holdfast    ,html/resources/sequences_IDs/B/02_dolphin.jpg,html/resources/sequences_IDs/B/04_holdfast.jpg,2,4,1,1,2,1,2,4,0,7,,,,,,,,,,,,,,,,,,,,
,,,,,7,2020-07-01_11h31.19.288,retriever_ti,2020.1.3,Win32,60,Chrome,1536,864,,,,,,,,,,,,,,,,,1,,,,,,,,,,,,,,,,,,,,,,,,,,,445.348005,66,right,1.032735,radio       ,3,10,-4,0,3,445.382005,445.382005,447.88114,0,65,65,65,1,66,7,3,gloves      ,radio       ,html/resources/sequences_IDs/B/06_gloves.jpg,html/resources/sequences_IDs/B/10_radio.jpg,6,10,3,2,4,2,5,8,0,7,,,,,,,,,,,,,,,,,,,,
,,,,,7,2020-07-01_11h31.19.288,retriever_ti,2020.1.3,Win32,60,Chrome,1536,864,,,,,,,,,,,,,,,,,1,,,,,,,,,,,,,,,,,,,,,,,,,,,448.498755,67,left,1.375765,holdfast    ,1,4,-6,0,3,448.53185,448.53185,451.031,0,66,66,66,1,67,1,7,holdfast    ,gloves      ,html/resources/sequences_IDs/B/04_holdfast.jpg,html/resources/sequences_IDs/B/06_gloves.jpg,4,6,2,1,3,2,4,5,0,7,,,,,,,,,,,,,,,,,,,,
,,,,,7,2020-07-01_11h31.19.288,retriever_ti,2020.1.3,Win32,60,Chrome,1536,864,,,,,,,,,,,,,,,,,1,,,,,,,,,,,,,,,,,,,,,,,,,,,451.64829,68,left,0.7736,wolf          ,6,1,5,1,3,451.66514,451.66514,454.163865,0,67,67,67,1,68,6,1,wolf          ,holdfast    ,html/resources/sequences_IDs/A/01_wolf.jpg,html/resources/sequences_IDs/B/04_holdfast.jpg,1,4,1,1,2,1,1,4,0,7,,,,,,,,,,,,,,,,,,,,
,,,,,7,2020-07-01_11h31.19.288,retriever_ti,2020.1.3,Win32,60,Chrome,1536,864,,,,,,,,,,,,,,,,,1,,,,,,,,,,,,,,,,,,,,,,,,,,,454.78149,69,left,1.360045,camel         ,2,3,1,1,1,454.814565,454.814565,457.3142,0,68,68,68,1,69,2,1,camel         ,holdfast    ,html/resources/sequences_IDs/A/03_camel.jpg,html/resources/sequences_IDs/B/04_holdfast.jpg,3,4,1,1,2,1,3,4,0,7,,,,,,,,,,,,,,,,,,,,
,,,,,7,2020-07-01_11h31.19.288,retriever_ti,2020.1.3,Win32,60,Chrome,1536,864,,,,,,,,,,,,,,,,,1,,,,,,,,,,,,,,,,,,,,,,,,,,,458.4149,70,right,0.693275,holdfast    ,1,4,-6,0,3,458.44794,458.44794,460.94707,0,69,69,69,1,70,7,1,gloves      ,holdfast    ,html/resources/sequences_IDs/B/06_gloves.jpg,html/resources/sequences_IDs/B/04_holdfast.jpg,6,4,3,2,2,1,5,4,0,7,,,,,,,,,,,,,,,,,,,,
,,,,,7,2020-07-01_11h31.19.288,retriever_ti,2020.1.3,Win32,60,Chrome,1536,864,,,,,,,,,,,,,,,,,1,,,,,,,,,,,,,,,,,,,,,,,,,,,461.56443,71,left,0.79335,radio       ,3,10,-4,0,3,461.58147,461.58147,464.08058,0,70,70,70,1,71,3,7,radio       ,gloves      ,html/resources/sequences_IDs/B/10_radio.jpg,html/resources/sequences_IDs/B/06_gloves.jpg,10,6,4,2,3,2,8,5,0,7,,,,,,,,,,,,,,,,,,,,
,,,,,7,2020-07-01_11h31.19.288,retriever_ti,2020.1.3,Win32,60,Chrome,1536,864,,,,,,,,,,,,,,,,,1,,,,,,,,,,,,,,,,,,,,,,,,,,,464.698055,72,left,1.095485,wolf          ,6,1,4,1,3,464.731455,464.731455,467.230855,0,71,71,71,1,72,6,2,wolf          ,camel         ,html/resources/sequences_IDs/A/01_wolf.jpg,html/resources/sequences_IDs/A/03_camel.jpg,1,3,1,1,1,1,1,3,0,7,,,,,,,,,,,,,,,,,,,,
,,,,,7,2020-07-01_11h31.19.288,retriever_ti,2020.1.3,Win32,60,Chrome,1536,864,,,,,,,,,,,,,,,,,1,,,,,,,,,,,,,,,,,,,,,,,,,,,467.84774,73,right,1.353905,wolf          ,6,1,-1,0,0,467.864545,467.864545,470.36315,0,72,72,72,1,73,7,6,gloves      ,wolf          ,html/resources/sequences_IDs/B/06_gloves.jpg,html/resources/sequences_IDs/A/01_wolf.jpg,6,1,3,2,1,1,5,1,0,7,,,,,,,,,,,,,,,,,,,,
,,,,,7,2020-07-01_11h31.19.288,retriever_ti,2020.1.3,Win32,60,Chrome,1536,864,,,,,,,,,,,,,,,,,1,,,,,,,,,,,,,,,,,,,,,,,,,,,471.46434,74,right,0.91126,dolphin     ,5,2,2,1,3,471.480895,471.480895,473.980595,0,73,73,73,1,74,3,5,radio       ,dolphin     ,html/resources/sequences_IDs/B/10_radio.jpg,html/resources/sequences_IDs/B/02_dolphin.jpg,10,2,4,2,1,1,8,2,0,7,,,,,,,,,,,,,,,,,,,,
,,,,,7,2020-07-01_11h31.19.288,retriever_ti,2020.1.3,Win32,60,Chrome,1536,864,,,,,,,,,,,,,,,,,1,,,,,,,,,,,,,,,,,,,,,,,,,,,474.597775,75,left,0.9452,wolf          ,6,1,3,1,3,474.61395,474.61395,477.11352,0,74,74,74,1,75,6,3,wolf          ,radio       ,html/resources/sequences_IDs/A/01_wolf.jpg,html/resources/sequences_IDs/B/10_radio.jpg,1,10,1,1,4,2,1,8,0,7,,,,,,,,,,,,,,,,,,,,
,,,,,7,2020-07-01_11h31.19.288,retriever_ti,2020.1.3,Win32,60,Chrome,1536,864,,,,,,,,,,,,,,,,,1,,,,,,,,,,,,,,,,,,,,,,,,,,,477.73039,76,left,1.05629,camel         ,2,3,-5,0,3,477.764255,477.764255,480.26285,0,75,75,75,1,76,2,7,camel         ,gloves      ,html/resources/sequences_IDs/A/03_camel.jpg,html/resources/sequences_IDs/B/06_gloves.jpg,3,6,1,1,3,2,3,5,0,7,,,,,,,,,,,,,,,,,,,,
,,,,,7,2020-07-01_11h31.19.288,retriever_ti,2020.1.3,Win32,60,Chrome,1536,864,,,,,,,,,,,,,,,,,1,,,,,,,,,,,,,,,,,,,,,,,,,,,480.86346,77,left,1.24179,calculator    ,4,9,1,1,1,480.89721,480.89721,483.396235,0,76,76,76,1,77,4,3,calculator    ,radio       ,html/resources/sequences_IDs/A/09_calculator.jpg,html/resources/sequences_IDs/B/10_radio.jpg,9,10,4,2,4,2,7,8,0,7,,,,,,,,,,,,,,,,,,,,
,,,,,7,2020-07-01_11h31.19.288,retriever_ti,2020.1.3,Win32,60,Chrome,1536,864,,,,,,,,,,,,,,,,,,,,,,,,,,,,,,,,,,,,,0,2.942075,,,,,,,,,,,,,,,,,,,,,,,,,,,,,,,,,,,,,,,,,0,0,0,0,1,,,,,,,,,,,,,,,
,,,,,7,2020-07-01_11h31.19.288,retriever_ti,2020.1.3,Win32,60,Chrome,1536,864,,,,,,,,,,,,,,,,,2,,,,,,,,,,,,,,,,,,,,,,,,,,,496.361195,78,right,1.03242,dolphin     ,5,2,-2,0,3,496.381695,496.381695,498.87947,0,0,0,0,1,78,7,5,gloves      ,dolphin     ,html/resources/sequences_IDs/B/06_gloves.jpg,html/resources/sequences_IDs/B/02_dolphin.jpg,6,2,3,2,1,1,5,2,0,7,,,,,,,,,,,,,,,,,,,,
,,,,,7,2020-07-01_11h31.19.288,retriever_ti,2020.1.3,Win32,60,Chrome,1536,864,,,,,,,,,,,,,,,,,2,,,,,,,,,,,,,,,,,,,,,,,,,,,499.49582,79,left,1.10044,radio       ,3,10,-3,0,3,499.52974,499.52974,502.0294,0,1,1,1,1,79,3,6,radio       ,wolf          ,html/resources/sequences_IDs/B/10_radio.jpg,html/resources/sequences_IDs/A/01_wolf.jpg,10,1,4,2,1,1,8,1,0,7,,,,,,,,,,,,,,,,,,,,
,,,,,7,2020-07-01_11h31.19.288,retriever_ti,2020.1.3,Win32,60,Chrome,1536,864,,,,,,,,,,,,,,,,,2,,,,,,,,,,,,,,,,,,,,,,,,,,,502.6464,80,right,0.990115,calculator    ,4,9,-3,0,3,502.68019,502.68019,505.17924,0,2,2,2,1,80,7,4,gloves      ,calculator    ,html/resources/sequences_IDs/B/06_gloves.jpg,html/resources/sequences_IDs/A/09_calculator.jpg,6,9,3,2,4,2,5,7,0,7,,,,,,,,,,,,,,,,,,,,
,,,,,7,2020-07-01_11h31.19.288,retriever_ti,2020.1.3,Win32,60,Chrome,1536,864,,,,,,,,,,,,,,,,,2,,,,,,,,,,,,,,,,,,,,,,,,,,,505.795565,81,left,1.053275,hat           ,8,8,1,1,1,505.812455,505.812455,508.312095,0,3,3,3,1,81,8,7,hat           ,gloves      ,html/resources/sequences_IDs/A/08_hat.jpg,html/resources/sequences_IDs/B/06_gloves.jpg,8,6,3,2,3,2,6,5,0,7,,,,,,,,,,,,,,,,,,,,
,,,,,7,2020-07-01_11h31.19.288,retriever_ti,2020.1.3,Win32,60,Chrome,1536,864,,,,,,,,,,,,,,,,,2,,,,,,,,,,,,,,,,,,,,,,,,,,,509.41269,82,right,0.90344,calculator    ,4,9,1,1,1,509.446315,509.446315,511.94497,0,4,4,4,1,82,3,4,radio       ,calculator    ,html/resources/sequences_IDs/B/10_radio.jpg,html/resources/sequences_IDs/A/09_calculator.jpg,10,9,4,2,4,2,8,7,0,7,,,,,,,,,,,,,,,,,,,,
,,,,,7,2020-07-01_11h31.19.288,retriever_ti,2020.1.3,Win32,60,Chrome,1536,864,,,,,,,,,,,,,,,,,2,,,,,,,,,,,,,,,,,,,,,,,,,,,513.04562,83,left,0.970725,radio       ,3,10,1,1,1,513.07891,513.07891,515.57847,0,5,5,5,1,83,3,2,radio       ,camel         ,html/resources/sequences_IDs/B/10_radio.jpg,html/resources/sequences_IDs/A/03_camel.jpg,10,3,4,2,1,1,8,3,0,7,,,,,,,,,,,,,,,,,,,,
,,,,,7,2020-07-01_11h31.19.288,retriever_ti,2020.1.3,Win32,60,Chrome,1536,864,,,,,,,,,,,,,,,,,2,,,,,,,,,,,,,,,,,,,,,,,,,,,516.678975,84,right,1.12646,radio       ,3,10,-3,0,3,516.695655,516.695655,519.194835,0,6,6,6,1,84,6,3,wolf          ,radio       ,html/resources/sequences_IDs/A/01_wolf.jpg,html/resources/sequences_IDs/B/10_radio.jpg,1,10,1,1,4,2,1,8,0,7,,,,,,,,,,,,,,,,,,,,
,,,,,7,2020-07-01_11h31.19.288,retriever_ti,2020.1.3,Win32,60,Chrome,1536,864,,,,,,,,,,,,,,,,,2,,,,,,,,,,,,,,,,,,,,,,,,,,,519.795195,85,left,0.68327,calculator    ,4,9,-4,0,3,519.829175,519.829175,522.32814,0,7,7,7,1,85,4,8,calculator    ,hat           ,html/resources/sequences_IDs/A/09_calculator.jpg,html/resources/sequences_IDs/A/08_hat.jpg,9,8,4,2,3,2,7,6,0,7,,,,,,,,,,,,,,,,,,,,
,,,,,7,2020-07-01_11h31.19.288,retriever_ti,2020.1.3,Win32,60,Chrome,1536,864,,,,,,,,,,,,,,,,,2,,,,,,,,,,,,,,,,,,,,,,,,,,,522.928815,86,left,0.943145,hat           ,8,8,1,1,1,522.94551,522.94551,525.44505,0,8,8,8,1,86,8,7,hat           ,gloves      ,html/resources/sequences_IDs/A/08_hat.jpg,html/resources/sequences_IDs/B/06_gloves.jpg,8,6,3,2,3,2,6,5,0,7,,,,,,,,,,,,,,,,,,,,
,,,,,7,2020-07-01_11h31.19.288,retriever_ti,2020.1.3,Win32,60,Chrome,1536,864,,,,,,,,,,,,,,,,,2,,,,,,,,,,,,,,,,,,,,,,,,,,,526.545115,87,right,0.82011,dolphin     ,5,2,4,1,3,526.578765,526.578765,529.077895,0,9,9,9,1,87,1,5,holdfast    ,dolphin     ,html/resources/sequences_IDs/B/04_holdfast.jpg,html/resources/sequences_IDs/B/02_dolphin.jpg,4,2,2,1,1,1,4,2,0,7,,,,,,,,,,,,,,,,,,,,
,,,,,7,2020-07-01_11h31.19.288,retriever_ti,2020.1.3,Win32,60,Chrome,1536,864,,,,,,,,,,,,,,,,,2,,,,,,,,,,,,,,,,,,,,,,,,,,,529.69526,88,right,1.066495,dolphin     ,5,2,-1,0,0,529.7282,529.7282,532.228325,0,10,10,10,1,88,6,5,wolf          ,dolphin     ,html/resources/sequences_IDs/A/01_wolf.jpg,html/resources/sequences_IDs/B/02_dolphin.jpg,1,2,1,1,1,1,1,2,0,7,,,,,,,,,,,,,,,,,,,,
,,,,,7,2020-07-01_11h31.19.288,retriever_ti,2020.1.3,Win32,60,Chrome,1536,864,,,,,,,,,,,,,,,,,2,,,,,,,,,,,,,,,,,,,,,,,,,,,533.32791,89,right,0.815655,hat           ,8,8,1,1,1,533.362105,533.362105,535.860855,0,11,11,11,1,89,7,8,gloves      ,hat           ,html/resources/sequences_IDs/B/06_gloves.jpg,html/resources/sequences_IDs/A/08_hat.jpg,6,8,3,2,3,2,5,6,0,7,,,,,,,,,,,,,,,,,,,,
,,,,,7,2020-07-01_11h31.19.288,retriever_ti,2020.1.3,Win32,60,Chrome,1536,864,,,,,,,,,,,,,,,,,2,,,,,,,,,,,,,,,,,,,,,,,,,,,536.96189,90,left,0.76023,radio       ,3,10,-4,0,3,536.99461,536.99461,539.49466,0,12,12,12,1,90,3,7,radio       ,gloves      ,html/resources/sequences_IDs/B/10_radio.jpg,html/resources/sequences_IDs/B/06_gloves.jpg,10,6,4,2,3,2,8,5,0,7,,,,,,,,,,,,,,,,,,,,
,,,,,7,2020-07-01_11h31.19.288,retriever_ti,2020.1.3,Win32,60,Chrome,1536,864,,,,,,,,,,,,,,,,,2,,,,,,,,,,,,,,,,,,,,,,,,,,,540.111095,91,right,0.620855,calculator    ,4,9,3,1,3,540.144595,540.144595,542.644025,0,13,13,13,1,91,1,4,holdfast    ,calculator    ,html/resources/sequences_IDs/B/04_holdfast.jpg,html/resources/sequences_IDs/A/09_calculator.jpg,4,9,2,1,4,2,4,7,0,7,,,,,,,,,,,,,,,,,,,,
,,,,,7,2020-07-01_11h31.19.288,retriever_ti,2020.1.3,Win32,60,Chrome,1536,864,,,,,,,,,,,,,,,,,2,,,,,,,,,,,,,,,,,,,,,,,,,,,543.26112,92,left,0.66857,wolf          ,6,1,-1,0,0,543.277675,543.277675,545.776855,0,14,14,14,1,92,6,7,wolf          ,gloves      ,html/resources/sequences_IDs/A/01_wolf.jpg,html/resources/sequences_IDs/B/06_gloves.jpg,1,6,1,1,3,2,1,5,0,7,,,,,,,,,,,,,,,,,,,,
,,,,,7,2020-07-01_11h31.19.288,retriever_ti,2020.1.3,Win32,60,Chrome,1536,864,,,,,,,,,,,,,,,,,2,,,,,,,,,,,,,,,,,,,,,,,,,,,546.877575,93,right,0.773485,calculator    ,4,9,1,1,1,546.894385,546.894385,549.39378,0,15,15,15,1,93,3,4,radio       ,calculator    ,html/resources/sequences_IDs/B/10_radio.jpg,html/resources/sequences_IDs/A/09_calculator.jpg,10,9,4,2,4,2,8,7,0,7,,,,,,,,,,,,,,,,,,,,
,,,,,7,2020-07-01_11h31.19.288,retriever_ti,2020.1.3,Win32,60,Chrome,1536,864,,,,,,,,,,,,,,,,,2,,,,,,,,,,,,,,,,,,,,,,,,,,,550.49456,94,right,0.71298,hat           ,8,8,1,1,1,550.51112,550.51112,553.010115,0,16,16,16,1,94,7,8,gloves      ,hat           ,html/resources/sequences_IDs/B/06_gloves.jpg,html/resources/sequences_IDs/A/08_hat.jpg,6,8,3,2,3,2,5,6,0,7,,,,,,,,,,,,,,,,,,,,
,,,,,7,2020-07-01_11h31.19.288,retriever_ti,2020.1.3,Win32,60,Chrome,1536,864,,,,,,,,,,,,,,,,,2,,,,,,,,,,,,,,,,,,,,,,,,,,,554.11062,95,right,1.334675,radio       ,3,10,-4,0,3,554.127515,554.127515,556.62709,0,17,17,17,1,95,7,3,gloves      ,radio       ,html/resources/sequences_IDs/B/06_gloves.jpg,html/resources/sequences_IDs/B/10_radio.jpg,6,10,3,2,4,2,5,8,0,7,,,,,,,,,,,,,,,,,,,,
,,,,,7,2020-07-01_11h31.19.288,retriever_ti,2020.1.3,Win32,60,Chrome,1536,864,,,,,,,,,,,,,,,,,2,,,,,,,,,,,,,,,,,,,,,,,,,,,557.244385,96,left,0.73656,calculator    ,4,9,2,1,3,557.27786,557.27786,559.77702,0,18,18,18,1,96,4,2,calculator    ,camel         ,html/resources/sequences_IDs/A/09_calculator.jpg,html/resources/sequences_IDs/A/03_camel.jpg,9,3,4,2,1,1,7,3,0,7,,,,,,,,,,,,,,,,,,,,
,,,,,7,2020-07-01_11h31.19.288,retriever_ti,2020.1.3,Win32,60,Chrome,1536,864,,,,,,,,,,,,,,,,,2,,,,,,,,,,,,,,,,,,,,,,,,,,,560.39407,97,left,0.94646,calculator    ,4,9,-2,0,3,560.41061,560.41061,562.910315,0,19,19,19,1,97,4,6,calculator    ,wolf          ,html/resources/sequences_IDs/A/09_calculator.jpg,html/resources/sequences_IDs/A/01_wolf.jpg,9,1,4,2,1,1,7,1,0,7,,,,,,,,,,,,,,,,,,,,
,,,,,7,2020-07-01_11h31.19.288,retriever_ti,2020.1.3,Win32,60,Chrome,1536,864,,,,,,,,,,,,,,,,,2,,,,,,,,,,,,,,,,,,,,,,,,,,,563.527155,98,right,0.89817,camel         ,2,3,1,1,1,563.56022,563.56022,566.06016,0,20,20,20,1,98,1,2,holdfast    ,camel         ,html/resources/sequences_IDs/B/04_holdfast.jpg,html/resources/sequences_IDs/A/03_camel.jpg,4,3,2,1,1,1,4,3,0,7,,,,,,,,,,,,,,,,,,,,
,,,,,7,2020-07-01_11h31.19.288,retriever_ti,2020.1.3,Win32,60,Chrome,1536,864,,,,,,,,,,,,,,,,,2,,,,,,,,,,,,,,,,,,,,,,,,,,,567.15987,99,left,0.69224,dolphin     ,5,2,2,1,3,567.17765,567.17765,569.6761,0,21,21,21,1,99,5,3,dolphin     ,radio       ,html/resources/sequences_IDs/B/02_dolphin.jpg,html/resources/sequences_IDs/B/10_radio.jpg,2,10,1,1,4,2,2,8,0,7,,,,,,,,,,,,,,,,,,,,
,,,,,7,2020-07-01_11h31.19.288,retriever_ti,2020.1.3,Win32,60,Chrome,1536,864,,,,,,,,,,,,,,,,,2,,,,,,,,,,,,,,,,,,,,,,,,,,,570.276525,100,right,0.717335,calculator    ,4,9,-4,0,3,570.30995,570.30995,572.809445,0,22,22,22,1,100,8,4,hat           ,calculator    ,html/resources/sequences_IDs/A/08_hat.jpg,html/resources/sequences_IDs/A/09_calculator.jpg,8,9,3,2,4,2,6,7,0,7,,,,,,,,,,,,,,,,,,,,
,,,,,7,2020-07-01_11h31.19.288,retriever_ti,2020.1.3,Win32,60,Chrome,1536,864,,,,,,,,,,,,,,,,,2,,,,,,,,,,,,,,,,,,,,,,,,,,,573.4271,101,right,0.90005,dolphin     ,5,2,-1,0,1,573.443665,573.443665,575.9424,0,23,23,23,1,101,6,5,wolf          ,dolphin     ,html/resources/sequences_IDs/A/01_wolf.jpg,html/resources/sequences_IDs/B/02_dolphin.jpg,1,2,1,1,1,1,1,2,1,7,,,,,,,,,,,,,,,,,,,,
,,,,,7,2020-07-01_11h31.19.288,retriever_ti,2020.1.3,Win32,60,Chrome,1536,864,,,,,,,,,,,,,,,,,2,,,,,,,,,,,,,,,,,,,,,,,,,,,577.042925,102,right,0.888885,radio       ,3,10,2,1,3,577.076555,577.076555,579.575795,0,24,24,24,1,102,1,3,holdfast    ,radio       ,html/resources/sequences_IDs/B/04_holdfast.jpg,html/resources/sequences_IDs/B/10_radio.jpg,4,10,2,1,4,2,4,8,0,7,,,,,,,,,,,,,,,,,,,,
,,,,,7,2020-07-01_11h31.19.288,retriever_ti,2020.1.3,Win32,60,Chrome,1536,864,,,,,,,,,,,,,,,,,2,,,,,,,,,,,,,,,,,,,,,,,,,,,580.19248,103,left,0.6485,dolphin     ,5,2,-1,0,0,580.226515,580.226515,582.72568,0,25,25,25,1,103,5,6,dolphin     ,wolf          ,html/resources/sequences_IDs/B/02_dolphin.jpg,html/resources/sequences_IDs/A/01_wolf.jpg,2,1,1,1,1,1,2,1,0,7,,,,,,,,,,,,,,,,,,,,
,,,,,7,2020-07-01_11h31.19.288,retriever_ti,2020.1.3,Win32,60,Chrome,1536,864,,,,,,,,,,,,,,,,,2,,,,,,,,,,,,,,,,,,,,,,,,,,,583.826205,104,right,0.84276,calculator    ,4,9,2,1,3,583.84296,583.84296,586.342505,0,26,26,26,1,104,2,4,camel         ,calculator    ,html/resources/sequences_IDs/A/03_camel.jpg,html/resources/sequences_IDs/A/09_calculator.jpg,3,9,1,1,4,2,3,7,0,7,,,,,,,,,,,,,,,,,,,,
,,,,,7,2020-07-01_11h31.19.288,retriever_ti,2020.1.3,Win32,60,Chrome,1536,864,,,,,,,,,,,,,,,,,2,,,,,,,,,,,,,,,,,,,,,,,,,,,586.943135,105,left,0.589305,dolphin     ,5,2,-1,0,0,586.95984,586.95984,589.45888,0,27,27,27,1,105,5,6,dolphin     ,wolf          ,html/resources/sequences_IDs/B/02_dolphin.jpg,html/resources/sequences_IDs/A/01_wolf.jpg,2,1,1,1,1,1,2,1,0,7,,,,,,,,,,,,,,,,,,,,
,,,,,7,2020-07-01_11h31.19.288,retriever_ti,2020.1.3,Win32,60,Chrome,1536,864,,,,,,,,,,,,,,,,,2,,,,,,,,,,,,,,,,,,,,,,,,,,,590.559465,106,left,0.893625,calculator    ,4,9,3,1,3,590.59313,590.59313,593.0923,0,28,28,28,1,106,4,1,calculator    ,holdfast    ,html/resources/sequences_IDs/A/09_calculator.jpg,html/resources/sequences_IDs/B/04_holdfast.jpg,9,4,4,2,2,1,7,4,0,7,,,,,,,,,,,,,,,,,,,,
,,,,,7,2020-07-01_11h31.19.288,retriever_ti,2020.1.3,Win32,60,Chrome,1536,864,,,,,,,,,,,,,,,,,2,,,,,,,,,,,,,,,,,,,,,,,,,,,593.69276,107,right,0.897805,camel         ,2,3,1,1,1,593.726535,593.726535,596.22564,0,29,29,29,1,107,1,2,holdfast    ,camel         ,html/resources/sequences_IDs/B/04_holdfast.jpg,html/resources/sequences_IDs/A/03_camel.jpg,4,3,2,1,1,1,4,3,0,7,,,,,,,,,,,,,,,,,,,,
,,,,,7,2020-07-01_11h31.19.288,retriever_ti,2020.1.3,Win32,60,Chrome,1536,864,,,,,,,,,,,,,,,,,2,,,,,,,,,,,,,,,,,,,,,,,,,,,597.325265,108,left,1.307825,wolf          ,6,1,-2,0,3,597.359415,597.359415,599.858045,0,30,30,30,1,108,6,8,wolf          ,hat           ,html/resources/sequences_IDs/A/01_wolf.jpg,html/resources/sequences_IDs/A/08_hat.jpg,1,8,1,1,3,2,1,6,0,7,,,,,,,,,,,,,,,,,,,,
,,,,,7,2020-07-01_11h31.19.288,retriever_ti,2020.1.3,Win32,60,Chrome,1536,864,,,,,,,,,,,,,,,,,2,,,,,,,,,,,,,,,,,,,,,,,,,,,600.458645,109,right,0.7961,wolf          ,6,1,5,1,3,600.476245,600.476245,602.97504,0,31,31,31,1,109,1,6,holdfast    ,wolf          ,html/resources/sequences_IDs/B/04_holdfast.jpg,html/resources/sequences_IDs/A/01_wolf.jpg,4,1,2,1,1,1,4,1,0,7,,,,,,,,,,,,,,,,,,,,
,,,,,7,2020-07-01_11h31.19.288,retriever_ti,2020.1.3,Win32,60,Chrome,1536,864,,,,,,,,,,,,,,,,,2,,,,,,,,,,,,,,,,,,,,,,,,,,,603.59176,110,left,0.978825,dolphin     ,5,2,-3,0,3,603.625285,603.625285,606.124765,0,32,32,32,1,110,5,8,dolphin     ,hat           ,html/resources/sequences_IDs/B/02_dolphin.jpg,html/resources/sequences_IDs/A/08_hat.jpg,2,8,1,1,3,2,2,6,0,7,,,,,,,,,,,,,,,,,,,,
,,,,,7,2020-07-01_11h31.19.288,retriever_ti,2020.1.3,Win32,60,Chrome,1536,864,,,,,,,,,,,,,,,,,2,,,,,,,,,,,,,,,,,,,,,,,,,,,606.72546,111,right,0.86854,radio       ,3,10,-5,0,3,606.74205,606.74205,609.24122,0,33,33,33,1,111,8,3,hat           ,radio       ,html/resources/sequences_IDs/A/08_hat.jpg,html/resources/sequences_IDs/B/10_radio.jpg,8,10,3,2,4,2,6,8,0,7,,,,,,,,,,,,,,,,,,,,
,,,,,7,2020-07-01_11h31.19.288,retriever_ti,2020.1.3,Win32,60,Chrome,1536,864,,,,,,,,,,,,,,,,,2,,,,,,,,,,,,,,,,,,,,,,,,,,,609.842015,112,right,0.989605,dolphin     ,5,2,2,1,3,609.875395,609.875395,612.374535,0,34,34,34,1,112,3,5,radio       ,dolphin     ,html/resources/sequences_IDs/B/10_radio.jpg,html/resources/sequences_IDs/B/02_dolphin.jpg,10,2,4,2,1,1,8,2,0,7,,,,,,,,,,,,,,,,,,,,
,,,,,7,2020-07-01_11h31.19.288,retriever_ti,2020.1.3,Win32,60,Chrome,1536,864,,,,,,,,,,,,,,,,,2,,,,,,,,,,,,,,,,,,,,,,,,,,,612.991565,113,right,0.882185,dolphin     ,5,2,3,1,3,613.0252,613.0252,615.524335,0,35,35,35,1,113,2,5,camel         ,dolphin     ,html/resources/sequences_IDs/A/03_camel.jpg,html/resources/sequences_IDs/B/02_dolphin.jpg,3,2,1,1,1,1,3,2,0,7,,,,,,,,,,,,,,,,,,,,
,,,,,7,2020-07-01_11h31.19.288,retriever_ti,2020.1.3,Win32,60,Chrome,1536,864,,,,,,,,,,,,,,,,,2,,,,,,,,,,,,,,,,,,,,,,,,,,,616.141245,114,left,1.340005,radio       ,3,10,2,1,3,616.158565,616.158565,618.657765,0,36,36,36,1,114,3,1,radio       ,holdfast    ,html/resources/sequences_IDs/B/10_radio.jpg,html/resources/sequences_IDs/B/04_holdfast.jpg,10,4,4,2,2,1,8,4,0,7,,,,,,,,,,,,,,,,,,,,
,,,,,7,2020-07-01_11h31.19.288,retriever_ti,2020.1.3,Win32,60,Chrome,1536,864,,,,,,,,,,,,,,,,,2,,,,,,,,,,,,,,,,,,,,,,,,,,,619.274915,115,left,1.459025,camel         ,2,3,-6,0,3,619.29208,619.29208,621.79104,0,37,37,37,1,115,2,8,camel         ,hat           ,html/resources/sequences_IDs/A/03_camel.jpg,html/resources/sequences_IDs/A/08_hat.jpg,3,8,1,1,3,2,3,6,0,7,,,,,,,,,,,,,,,,,,,,
,,,,,7,2020-07-01_11h31.19.288,retriever_ti,2020.1.3,Win32,60,Chrome,1536,864,,,,,,,,,,,,,,,,,2,,,,,,,,,,,,,,,,,,,,,,,,,,,622.391365,116,left,0.842955,dolphin     ,5,2,3,1,3,622.425315,622.425315,624.924385,0,38,38,38,1,116,5,2,dolphin     ,camel         ,html/resources/sequences_IDs/B/02_dolphin.jpg,html/resources/sequences_IDs/A/03_camel.jpg,2,3,1,1,1,1,2,3,0,7,,,,,,,,,,,,,,,,,,,,
,,,,,7,2020-07-01_11h31.19.288,retriever_ti,2020.1.3,Win32,60,Chrome,1536,864,,,,,,,,,,,,,,,,,2,,,,,,,,,,,,,,,,,,,,,,,,,,,625.54134,117,left,1.22956,hat           ,8,8,7,1,3,625.557675,625.557675,628.05876,0,39,39,39,1,117,8,1,hat           ,holdfast    ,html/resources/sequences_IDs/A/08_hat.jpg,html/resources/sequences_IDs/B/04_holdfast.jpg,8,4,3,2,2,1,6,4,0,7,,,,,,,,,,,,,,,,,,,,
,,,,,7,2020-07-01_11h31.19.288,retriever_ti,2020.1.3,Win32,60,Chrome,1536,864,,,,,,,,,,,,,,,,,2,,,,,,,,,,,,,,,,,,,,,,,,,,,628.675,118,right,1.08694,wolf          ,6,1,4,1,3,628.70747,628.70747,631.20765,0,40,40,40,1,118,2,6,camel         ,wolf          ,html/resources/sequences_IDs/A/03_camel.jpg,html/resources/sequences_IDs/A/01_wolf.jpg,3,1,1,1,1,1,3,1,0,7,,,,,,,,,,,,,,,,,,,,
,,,,,7,2020-07-01_11h31.19.288,retriever_ti,2020.1.3,Win32,60,Chrome,1536,864,,,,,,,,,,,,,,,,,2,,,,,,,,,,,,,,,,,,,,,,,,,,,631.824195,119,left,0.939975,camel         ,2,3,1,1,1,631.85744,631.85744,634.357105,0,41,41,41,1,119,2,1,camel         ,holdfast    ,html/resources/sequences_IDs/A/03_camel.jpg,html/resources/sequences_IDs/B/04_holdfast.jpg,3,4,1,1,2,1,3,4,0,7,,,,,,,,,,,,,,,,,,,,
,,,,,7,2020-07-01_11h31.19.288,retriever_ti,2020.1.3,Win32,60,Chrome,1536,864,,,,,,,,,,,,,,,,,2,,,,,,,,,,,,,,,,,,,,,,,,,,,635.457215,120,right,1.00924,calculator    ,4,9,-1,0,0,635.490975,635.490975,637.99,0,42,42,42,1,120,5,4,dolphin     ,calculator    ,html/resources/sequences_IDs/B/02_dolphin.jpg,html/resources/sequences_IDs/A/09_calculator.jpg,2,9,1,1,4,2,2,7,0,7,,,,,,,,,,,,,,,,,,,,
,,,,,7,2020-07-01_11h31.19.288,retriever_ti,2020.1.3,Win32,60,Chrome,1536,864,,,,,,,,,,,,,,,,,2,,,,,,,,,,,,,,,,,,,,,,,,,,,639.09086,121,left,0.889915,calculator    ,4,9,-3,0,3,639.107325,639.107325,641.606945,0,43,43,43,1,121,4,7,calculator    ,gloves      ,html/resources/sequences_IDs/A/09_calculator.jpg,html/resources/sequences_IDs/B/06_gloves.jpg,9,6,4,2,3,2,7,5,0,7,,,,,,,,,,,,,,,,,,,,
,,,,,7,2020-07-01_11h31.19.288,retriever_ti,2020.1.3,Win32,60,Chrome,1536,864,,,,,,,,,,,,,,,,,2,,,,,,,,,,,,,,,,,,,,,,,,,,,642.223805,122,right,1.48155,hat           ,8,8,7,1,3,642.24053,642.24053,644.739715,0,44,44,44,1,122,1,8,holdfast    ,hat           ,html/resources/sequences_IDs/B/04_holdfast.jpg,html/resources/sequences_IDs/A/08_hat.jpg,4,8,2,1,3,2,4,6,0,7,,,,,,,,,,,,,,,,,,,,
,,,,,7,2020-07-01_11h31.19.288,retriever_ti,2020.1.3,Win32,60,Chrome,1536,864,,,,,,,,,,,,,,,,,2,,,,,,,,,,,,,,,,,,,,,,,,,,,645.34039,123,left,1.6268,gloves      ,7,6,1,1,1,645.373885,645.373885,647.873025,0,45,45,45,1,123,7,6,gloves      ,wolf          ,html/resources/sequences_IDs/B/06_gloves.jpg,html/resources/sequences_IDs/A/01_wolf.jpg,6,1,3,2,1,1,5,1,0,7,,,,,,,,,,,,,,,,,,,,
,,,,,7,2020-07-01_11h31.19.288,retriever_ti,2020.1.3,Win32,60,Chrome,1536,864,,,,,,,,,,,,,,,,,2,,,,,,,,,,,,,,,,,,,,,,,,,,,648.97379,124,right,1.57387,camel         ,2,3,-5,0,3,648.990905,648.990905,651.489965,0,46,46,46,1,124,7,2,gloves      ,camel         ,html/resources/sequences_IDs/B/06_gloves.jpg,html/resources/sequences_IDs/A/03_camel.jpg,6,3,3,2,1,1,5,3,0,7,,,,,,,,,,,,,,,,,,,,
,,,,,7,2020-07-01_11h31.19.288,retriever_ti,2020.1.3,Win32,60,Chrome,1536,864,,,,,,,,,,,,,,,,,2,,,,,,,,,,,,,,,,,,,,,,,,,,,652.10682,125,right,1.216525,radio       ,3,10,1,1,1,652.123335,652.123335,654.62331,0,47,47,47,1,125,2,3,camel         ,radio       ,html/resources/sequences_IDs/A/03_camel.jpg,html/resources/sequences_IDs/B/10_radio.jpg,3,10,1,1,4,2,3,8,0,7,,,,,,,,,,,,,,,,,,,,
,,,,,7,2020-07-01_11h31.19.288,retriever_ti,2020.1.3,Win32,60,Chrome,1536,864,,,,,,,,,,,,,,,,,2,,,,,,,,,,,,,,,,,,,,,,,,,,,655.72299,126,left,0.88182,camel         ,2,3,1,1,1,655.740695,655.740695,658.239715,0,48,48,48,1,126,2,1,camel         ,holdfast    ,html/resources/sequences_IDs/A/03_camel.jpg,html/resources/sequences_IDs/B/04_holdfast.jpg,3,4,1,1,2,1,3,4,0,7,,,,,,,,,,,,,,,,,,,,
,,,,,7,2020-07-01_11h31.19.288,retriever_ti,2020.1.3,Win32,60,Chrome,1536,864,,,,,,,,,,,,,,,,,2,,,,,,,,,,,,,,,,,,,,,,,,,,,659.34044,127,left,1.068495,radio       ,3,10,1,1,1,659.357155,659.357155,661.855625,0,49,49,49,1,127,3,2,radio       ,camel         ,html/resources/sequences_IDs/B/10_radio.jpg,html/resources/sequences_IDs/A/03_camel.jpg,10,3,4,2,1,1,8,3,0,7,,,,,,,,,,,,,,,,,,,,
,,,,,7,2020-07-01_11h31.19.288,retriever_ti,2020.1.3,Win32,60,Chrome,1536,864,,,,,,,,,,,,,,,,,2,,,,,,,,,,,,,,,,,,,,,,,,,,,662.956395,128,right,1.22095,wolf          ,6,1,-2,0,3,662.989495,662.989495,665.48912,0,50,50,50,1,128,8,6,hat           ,wolf          ,html/resources/sequences_IDs/A/08_hat.jpg,html/resources/sequences_IDs/A/01_wolf.jpg,8,1,3,2,1,1,6,1,0,7,,,,,,,,,,,,,,,,,,,,
,,,,,7,2020-07-01_11h31.19.288,retriever_ti,2020.1.3,Win32,60,Chrome,1536,864,,,,,,,,,,,,,,,,,2,,,,,,,,,,,,,,,,,,,,,,,,,,,666.105955,129,left,0.831495,dolphin     ,5,2,4,1,3,666.12291,666.12291,668.622,0,51,51,51,1,129,5,1,dolphin     ,holdfast    ,html/resources/sequences_IDs/B/02_dolphin.jpg,html/resources/sequences_IDs/B/04_holdfast.jpg,2,4,1,1,2,1,2,4,0,7,,,,,,,,,,,,,,,,,,,,
,,,,,7,2020-07-01_11h31.19.288,retriever_ti,2020.1.3,Win32,60,Chrome,1536,864,,,,,,,,,,,,,,,,,2,,,,,,,,,,,,,,,,,,,,,,,,,,,669.23951,130,left,0.69709,calculator    ,4,9,1,1,1,669.272675,669.272675,671.772355,0,52,52,52,1,130,4,3,calculator    ,radio       ,html/resources/sequences_IDs/A/09_calculator.jpg,html/resources/sequences_IDs/B/10_radio.jpg,9,10,4,2,4,2,7,8,0,7,,,,,,,,,,,,,,,,,,,,
,,,,,7,2020-07-01_11h31.19.288,retriever_ti,2020.1.3,Win32,60,Chrome,1536,864,,,,,,,,,,,,,,,,,2,,,,,,,,,,,,,,,,,,,,,,,,,,,672.87239,131,right,1.639435,gloves      ,7,6,1,1,1,672.889745,672.889745,675.38873,0,53,53,53,1,131,6,7,wolf          ,gloves      ,html/resources/sequences_IDs/A/01_wolf.jpg,html/resources/sequences_IDs/B/06_gloves.jpg,1,6,1,1,3,2,1,5,0,7,,,,,,,,,,,,,,,,,,,,
,,,,,7,2020-07-01_11h31.19.288,retriever_ti,2020.1.3,Win32,60,Chrome,1536,864,,,,,,,,,,,,,,,,,2,,,,,,,,,,,,,,,,,,,,,,,,,,,676.489315,132,right,0.863665,gloves      ,7,6,1,1,0,676.522645,676.522645,679.02208,0,54,54,54,1,132,6,7,wolf          ,gloves      ,html/resources/sequences_IDs/A/01_wolf.jpg,html/resources/sequences_IDs/B/06_gloves.jpg,1,6,1,1,3,2,1,5,1,7,,,,,,,,,,,,,,,,,,,,
,,,,,7,2020-07-01_11h31.19.288,retriever_ti,2020.1.3,Win32,60,Chrome,1536,864,,,,,,,,,,,,,,,,,2,,,,,,,,,,,,,,,,,,,,,,,,,,,680.122625,133,right,1.0879,gloves      ,7,6,6,1,3,680.155965,680.155965,682.65551,0,55,55,55,1,133,1,7,holdfast    ,gloves      ,html/resources/sequences_IDs/B/04_holdfast.jpg,html/resources/sequences_IDs/B/06_gloves.jpg,4,6,2,1,3,2,4,5,0,7,,,,,,,,,,,,,,,,,,,,
,,,,,7,2020-07-01_11h31.19.288,retriever_ti,2020.1.3,Win32,60,Chrome,1536,864,,,,,,,,,,,,,,,,,2,,,,,,,,,,,,,,,,,,,,,,,,,,,683.27278,134,left,0.746505,dolphin     ,5,2,-2,0,3,683.28929,683.28929,685.78794,0,56,56,56,1,134,5,7,dolphin     ,gloves      ,html/resources/sequences_IDs/B/02_dolphin.jpg,html/resources/sequences_IDs/B/06_gloves.jpg,2,6,1,1,3,2,2,5,0,7,,,,,,,,,,,,,,,,,,,,
,,,,,7,2020-07-01_11h31.19.288,retriever_ti,2020.1.3,Win32,60,Chrome,1536,864,,,,,,,,,,,,,,,,,2,,,,,,,,,,,,,,,,,,,,,,,,,,,686.388755,135,right,1.428875,camel         ,2,3,-4,0,3,686.40618,686.40618,688.90532,0,57,57,57,1,135,6,2,wolf          ,camel         ,html/resources/sequences_IDs/A/01_wolf.jpg,html/resources/sequences_IDs/A/03_camel.jpg,1,3,1,1,1,1,1,3,0,7,,,,,,,,,,,,,,,,,,,,
,,,,,7,2020-07-01_11h31.19.288,retriever_ti,2020.1.3,Win32,60,Chrome,1536,864,,,,,,,,,,,,,,,,,2,,,,,,,,,,,,,,,,,,,,,,,,,,,689.522585,136,right,0.62739,calculator    ,4,9,-1,0,0,689.53861,689.53861,692.0377,0,58,58,58,1,136,5,4,dolphin     ,calculator    ,html/resources/sequences_IDs/B/02_dolphin.jpg,html/resources/sequences_IDs/A/09_calculator.jpg,2,9,1,1,4,2,2,7,0,7,,,,,,,,,,,,,,,,,,,,
,,,,,7,2020-07-01_11h31.19.288,retriever_ti,2020.1.3,Win32,60,Chrome,1536,864,,,,,,,,,,,,,,,,,2,,,,,,,,,,,,,,,,,,,,,,,,,,,693.138265,137,right,0.70357,dolphin     ,5,2,-1,0,0,693.154925,693.154925,695.65503,0,59,59,59,1,137,6,5,wolf          ,dolphin     ,html/resources/sequences_IDs/A/01_wolf.jpg,html/resources/sequences_IDs/B/02_dolphin.jpg,1,2,1,1,1,1,1,2,0,7,,,,,,,,,,,,,,,,,,,,
,,,,,7,2020-07-01_11h31.19.288,retriever_ti,2020.1.3,Win32,60,Chrome,1536,864,,,,,,,,,,,,,,,,,2,,,,,,,,,,,,,,,,,,,,,,,,,,,696.754665,138,right,1.08632,hat           ,8,8,1,1,0,696.788515,696.788515,699.287425,0,60,60,60,1,138,7,8,gloves      ,hat           ,html/resources/sequences_IDs/B/06_gloves.jpg,html/resources/sequences_IDs/A/08_hat.jpg,6,8,3,2,3,2,5,6,1,7,,,,,,,,,,,,,,,,,,,,
,,,,,7,2020-07-01_11h31.19.288,retriever_ti,2020.1.3,Win32,60,Chrome,1536,864,,,,,,,,,,,,,,,,,2,,,,,,,,,,,,,,,,,,,,,,,,,,,700.387845,139,right,1.042125,radio       ,3,10,1,1,1,700.42189,700.42189,702.920875,0,61,61,61,1,139,2,3,camel         ,radio       ,html/resources/sequences_IDs/A/03_camel.jpg,html/resources/sequences_IDs/B/10_radio.jpg,3,10,1,1,4,2,3,8,0,7,,,,,,,,,,,,,,,,,,,,
,,,,,7,2020-07-01_11h31.19.288,retriever_ti,2020.1.3,Win32,60,Chrome,1536,864,,,,,,,,,,,,,,,,,2,,,,,,,,,,,,,,,,,,,,,,,,,,,704.021565,140,left,1.089625,gloves      ,7,6,1,1,1,704.03806,704.03806,706.53793,0,62,62,62,1,140,7,6,gloves      ,wolf          ,html/resources/sequences_IDs/B/06_gloves.jpg,html/resources/sequences_IDs/A/01_wolf.jpg,6,1,3,2,1,1,5,1,0,7,,,,,,,,,,,,,,,,,,,,
,,,,,7,2020-07-01_11h31.19.288,retriever_ti,2020.1.3,Win32,60,Chrome,1536,864,,,,,,,,,,,,,,,,,2,,,,,,,,,,,,,,,,,,,,,,,,,,,707.638,141,left,0.983605,gloves      ,7,6,6,1,3,707.65514,707.65514,710.15419,0,63,63,63,1,141,7,1,gloves      ,holdfast    ,html/resources/sequences_IDs/B/06_gloves.jpg,html/resources/sequences_IDs/B/04_holdfast.jpg,6,4,3,2,2,1,5,4,0,7,,,,,,,,,,,,,,,,,,,,
,,,,,7,2020-07-01_11h31.19.288,retriever_ti,2020.1.3,Win32,60,Chrome,1536,864,,,,,,,,,,,,,,,,,2,,,,,,,,,,,,,,,,,,,,,,,,,,,710.771735,142,left,0.935935,calculator    ,4,9,1,1,1,710.80501,710.80501,713.3041,0,64,64,64,1,142,4,3,calculator    ,radio       ,html/resources/sequences_IDs/A/09_calculator.jpg,html/resources/sequences_IDs/B/10_radio.jpg,9,10,4,2,4,2,7,8,0,7,,,,,,,,,,,,,,,,,,,,
,,,,,7,2020-07-01_11h31.19.288,retriever_ti,2020.1.3,Win32,60,Chrome,1536,864,,,,,,,,,,,,,,,,,2,,,,,,,,,,,,,,,,,,,,,,,,,,,714.404475,143,right,0.80706,calculator    ,4,9,-1,0,1,714.42147,714.42147,716.920055,0,65,65,65,1,143,5,4,dolphin     ,calculator    ,html/resources/sequences_IDs/B/02_dolphin.jpg,html/resources/sequences_IDs/A/09_calculator.jpg,2,9,1,1,4,2,2,7,1,7,,,,,,,,,,,,,,,,,,,,
,,,,,7,2020-07-01_11h31.19.288,retriever_ti,2020.1.3,Win32,60,Chrome,1536,864,,,,,,,,,,,,,,,,,2,,,,,,,,,,,,,,,,,,,,,,,,,,,718.020745,144,right,0.825895,radio       ,3,10,1,1,0,718.05482,718.05482,720.553965,0,66,66,66,1,144,2,3,camel         ,radio       ,html/resources/sequences_IDs/A/03_camel.jpg,html/resources/sequences_IDs/B/10_radio.jpg,3,10,1,1,4,2,3,8,1,7,,,,,,,,,,,,,,,,,,,,
,,,,,7,2020-07-01_11h31.19.288,retriever_ti,2020.1.3,Win32,60,Chrome,1536,864,,,,,,,,,,,,,,,,,2,,,,,,,,,,,,,,,,,,,,,,,,,,,721.654525,145,left,0.898025,calculator    ,4,9,-1,0,0,721.670755,721.670755,724.16978,0,67,67,67,1,145,4,5,calculator    ,dolphin     ,html/resources/sequences_IDs/A/09_calculator.jpg,html/resources/sequences_IDs/B/02_dolphin.jpg,9,2,4,2,1,1,7,2,0,7,,,,,,,,,,,,,,,,,,,,
,,,,,7,2020-07-01_11h31.19.288,retriever_ti,2020.1.3,Win32,60,Chrome,1536,864,,,,,,,,,,,,,,,,,2,,,,,,,,,,,,,,,,,,,,,,,,,,,725.27045,146,left,0.866425,camel         ,2,3,1,1,0,725.30372,725.30372,727.80323,0,68,68,68,1,146,2,1,camel         ,holdfast    ,html/resources/sequences_IDs/A/03_camel.jpg,html/resources/sequences_IDs/B/04_holdfast.jpg,3,4,1,1,2,1,3,4,1,7,,,,,,,,,,,,,,,,,,,,
,,,,,7,2020-07-01_11h31.19.288,retriever_ti,2020.1.3,Win32,60,Chrome,1536,864,,,,,,,,,,,,,,,,,2,,,,,,,,,,,,,,,,,,,,,,,,,,,728.90343,147,right,0.95837,dolphin     ,5,2,-3,0,3,728.937045,728.937045,731.436215,0,69,69,69,1,147,8,5,hat           ,dolphin     ,html/resources/sequences_IDs/A/08_hat.jpg,html/resources/sequences_IDs/B/02_dolphin.jpg,8,2,3,2,1,1,6,2,0,7,,,,,,,,,,,,,,,,,,,,
,,,,,7,2020-07-01_11h31.19.288,retriever_ti,2020.1.3,Win32,60,Chrome,1536,864,,,,,,,,,,,,,,,,,2,,,,,,,,,,,,,,,,,,,,,,,,,,,732.053535,148,left,0.62923,calculator    ,4,9,-1,0,0,732.08704,732.08704,734.58646,0,70,70,70,1,148,4,5,calculator    ,dolphin     ,html/resources/sequences_IDs/A/09_calculator.jpg,html/resources/sequences_IDs/B/02_dolphin.jpg,9,2,4,2,1,1,7,2,0,7,,,,,,,,,,,,,,,,,,,,
,,,,,7,2020-07-01_11h31.19.288,retriever_ti,2020.1.3,Win32,60,Chrome,1536,864,,,,,,,,,,,,,,,,,2,,,,,,,,,,,,,,,,,,,,,,,,,,,735.68664,149,left,0.743595,calculator    ,4,9,1,1,0,735.70383,735.70383,738.202905,0,71,71,71,1,149,4,3,calculator    ,radio       ,html/resources/sequences_IDs/A/09_calculator.jpg,html/resources/sequences_IDs/B/10_radio.jpg,9,10,4,2,4,2,7,8,1,7,,,,,,,,,,,,,,,,,,,,
,,,,,7,2020-07-01_11h31.19.288,retriever_ti,2020.1.3,Win32,60,Chrome,1536,864,,,,,,,,,,,,,,,,,2,,,,,,,,,,,,,,,,,,,,,,,,,,,739.3035,150,left,1.59357,camel         ,2,3,-5,0,3,739.32019,739.32019,741.819245,0,72,72,72,1,150,2,7,camel         ,gloves      ,html/resources/sequences_IDs/A/03_camel.jpg,html/resources/sequences_IDs/B/06_gloves.jpg,3,6,1,1,3,2,3,5,0,7,,,,,,,,,,,,,,,,,,,,
,,,,,7,2020-07-01_11h31.19.288,retriever_ti,2020.1.3,Win32,60,Chrome,1536,864,,,,,,,,,,,,,,,,,2,,,,,,,,,,,,,,,,,,,,,,,,,,,742.41967,151,left,1.22411,wolf          ,6,1,5,1,3,742.437135,742.437135,744.936175,0,73,73,73,1,151,6,1,wolf          ,holdfast    ,html/resources/sequences_IDs/A/01_wolf.jpg,html/resources/sequences_IDs/B/04_holdfast.jpg,1,4,1,1,2,1,1,4,0,7,,,,,,,,,,,,,,,,,,,,
,,,,,7,2020-07-01_11h31.19.288,retriever_ti,2020.1.3,Win32,60,Chrome,1536,864,,,,,,,,,,,,,,,,,2,,,,,,,,,,,,,,,,,,,,,,,,,,,745.536795,152,left,1.379725,radio       ,3,10,-5,0,3,745.553095,745.553095,748.05206,0,74,74,74,1,152,3,8,radio       ,hat           ,html/resources/sequences_IDs/B/10_radio.jpg,html/resources/sequences_IDs/A/08_hat.jpg,10,8,4,2,3,2,8,6,0,7,,,,,,,,,,,,,,,,,,,,
,,,,,7,2020-07-01_11h31.19.288,retriever_ti,2020.1.3,Win32,60,Chrome,1536,864,,,,,,,,,,,,,,,,,2,,,,,,,,,,,,,,,,,,,,,,,,,,,748.652665,153,right,0.65229,calculator    ,4,9,-2,0,3,748.67044,748.67044,751.169375,0,75,75,75,1,153,6,4,wolf          ,calculator    ,html/resources/sequences_IDs/A/01_wolf.jpg,html/resources/sequences_IDs/A/09_calculator.jpg,1,9,1,1,4,2,1,7,0,7,,,,,,,,,,,,,,,,,,,,
,,,,,7,2020-07-01_11h31.19.288,retriever_ti,2020.1.3,Win32,60,Chrome,1536,864,,,,,,,,,,,,,,,,,2,,,,,,,,,,,,,,,,,,,,,,,,,,,751.76978,154,left,1.02014,hat           ,8,8,6,1,3,751.786255,751.786255,754.28522,0,76,76,76,1,154,8,2,hat           ,camel         ,html/resources/sequences_IDs/A/08_hat.jpg,html/resources/sequences_IDs/A/03_camel.jpg,8,3,3,2,1,1,6,3,0,7,,,,,,,,,,,,,,,,,,,,
,,,,,7,2020-07-01_11h31.19.288,retriever_ti,2020.1.3,Win32,60,Chrome,1536,864,,,,,,,,,,,,,,,,,,,,,,,,,,,,,,,,,,,,,0,3.0625,,,,,,,,,,,,,,,,,,,,,,,,,,,,,,,,,,,,,,,,,1,0,1,0,1,,,,,,,,,,,,,,,
,,,,,7,2020-07-01_11h31.19.288,retriever_ti,2020.1.3,Win32,60,Chrome,1536,864,,,,,,,,,,,,,,,,,3,,,,,,,,,,,,,,,,,,,,,,,,,,,763.678035,155,right,0.9716,radio       ,3,10,1,1,1,763.70271,763.70271,766.20173,0,0,0,0,1,155,2,3,camel         ,radio       ,html/resources/sequences_IDs/A/03_camel.jpg,html/resources/sequences_IDs/B/10_radio.jpg,3,10,1,1,4,2,3,8,0,7,,,,,,,,,,,,,,,,,,,,
,,,,,7,2020-07-01_11h31.19.288,retriever_ti,2020.1.3,Win32,60,Chrome,1536,864,,,,,,,,,,,,,,,,,3,,,,,,,,,,,,,,,,,,,,,,,,,,,767.30234,156,right,0.82435,dolphin     ,5,2,3,1,3,767.318995,767.318995,769.818565,0,1,1,1,1,156,2,5,camel         ,dolphin     ,html/resources/sequences_IDs/A/03_camel.jpg,html/resources/sequences_IDs/B/02_dolphin.jpg,3,2,1,1,1,1,3,2,0,7,,,,,,,,,,,,,,,,,,,,
,,,,,7,2020-07-01_11h31.19.288,retriever_ti,2020.1.3,Win32,60,Chrome,1536,864,,,,,,,,,,,,,,,,,3,,,,,,,,,,,,,,,,,,,,,,,,,,,770.4354,157,right,0.813075,calculator    ,4,9,-1,0,0,770.469345,770.469345,772.968515,0,2,2,2,1,157,5,4,dolphin     ,calculator    ,html/resources/sequences_IDs/B/02_dolphin.jpg,html/resources/sequences_IDs/A/09_calculator.jpg,2,9,1,1,4,2,2,7,0,7,,,,,,,,,,,,,,,,,,,,
,,,,,7,2020-07-01_11h31.19.288,retriever_ti,2020.1.3,Win32,60,Chrome,1536,864,,,,,,,,,,,,,,,,,3,,,,,,,,,,,,,,,,,,,,,,,,,,,774.06903,158,left,0.786225,radio       ,3,10,-5,0,3,774.102255,774.102255,776.60182,0,3,3,3,1,158,3,8,radio       ,hat           ,html/resources/sequences_IDs/B/10_radio.jpg,html/resources/sequences_IDs/A/08_hat.jpg,10,8,4,2,3,2,8,6,0,7,,,,,,,,,,,,,,,,,,,,
,,,,,7,2020-07-01_11h31.19.288,retriever_ti,2020.1.3,Win32,60,Chrome,1536,864,,,,,,,,,,,,,,,,,3,,,,,,,,,,,,,,,,,,,,,,,,,,,777.218885,159,left,0.66631,calculator    ,4,9,-4,0,3,777.251685,777.251685,779.75169,0,4,4,4,1,159,4,8,calculator    ,hat           ,html/resources/sequences_IDs/A/09_calculator.jpg,html/resources/sequences_IDs/A/08_hat.jpg,9,8,4,2,3,2,7,6,0,7,,,,,,,,,,,,,,,,,,,,
,,,,,7,2020-07-01_11h31.19.288,retriever_ti,2020.1.3,Win32,60,Chrome,1536,864,,,,,,,,,,,,,,,,,3,,,,,,,,,,,,,,,,,,,,,,,,,,,780.3685,160,left,0.72417,dolphin     ,5,2,-2,0,3,780.40256,780.40256,782.901495,0,5,5,5,1,160,5,7,dolphin     ,gloves      ,html/resources/sequences_IDs/B/02_dolphin.jpg,html/resources/sequences_IDs/B/06_gloves.jpg,2,6,1,1,3,2,2,5,0,7,,,,,,,,,,,,,,,,,,,,
,,,,,7,2020-07-01_11h31.19.288,retriever_ti,2020.1.3,Win32,60,Chrome,1536,864,,,,,,,,,,,,,,,,,3,,,,,,,,,,,,,,,,,,,,,,,,,,,783.518725,161,left,1.124475,camel         ,2,3,1,1,1,783.534835,783.534835,786.033965,0,6,6,6,1,161,2,1,camel         ,holdfast    ,html/resources/sequences_IDs/A/03_camel.jpg,html/resources/sequences_IDs/B/04_holdfast.jpg,3,4,1,1,2,1,3,4,0,7,,,,,,,,,,,,,,,,,,,,
,,,,,7,2020-07-01_11h31.19.288,retriever_ti,2020.1.3,Win32,60,Chrome,1536,864,,,,,,,,,,,,,,,,,3,,,,,,,,,,,,,,,,,,,,,,,,,,,787.13455,162,left,0.70112,dolphin     ,5,2,-3,0,3,787.151355,787.151355,789.65084,0,7,7,7,1,162,5,8,dolphin     ,hat           ,html/resources/sequences_IDs/B/02_dolphin.jpg,html/resources/sequences_IDs/A/08_hat.jpg,2,8,1,1,3,2,2,6,0,7,,,,,,,,,,,,,,,,,,,,
,,,,,7,2020-07-01_11h31.19.288,retriever_ti,2020.1.3,Win32,60,Chrome,1536,864,,,,,,,,,,,,,,,,,3,,,,,,,,,,,,,,,,,,,,,,,,,,,790.26759,163,right,0.726005,radio       ,3,10,-5,0,3,790.28453,790.28453,792.78382,0,8,8,8,1,163,8,3,hat           ,radio       ,html/resources/sequences_IDs/A/08_hat.jpg,html/resources/sequences_IDs/B/10_radio.jpg,8,10,3,2,4,2,6,8,0,7,,,,,,,,,,,,,,,,,,,,
,,,,,7,2020-07-01_11h31.19.288,retriever_ti,2020.1.3,Win32,60,Chrome,1536,864,,,,,,,,,,,,,,,,,3,,,,,,,,,,,,,,,,,,,,,,,,,,,793.400825,164,right,0.693265,dolphin     ,5,2,-3,0,3,793.434395,793.434395,795.933455,0,9,9,9,1,164,8,5,hat           ,dolphin     ,html/resources/sequences_IDs/A/08_hat.jpg,html/resources/sequences_IDs/B/02_dolphin.jpg,8,2,3,2,1,1,6,2,0,7,,,,,,,,,,,,,,,,,,,,
,,,,,7,2020-07-01_11h31.19.288,retriever_ti,2020.1.3,Win32,60,Chrome,1536,864,,,,,,,,,,,,,,,,,3,,,,,,,,,,,,,,,,,,,,,,,,,,,796.533905,165,left,0.906185,dolphin     ,5,2,1,1,0,796.55129,796.55129,799.05041,0,10,10,10,1,165,5,4,dolphin     ,calculator    ,html/resources/sequences_IDs/B/02_dolphin.jpg,html/resources/sequences_IDs/A/09_calculator.jpg,2,9,1,1,4,2,2,7,1,7,,,,,,,,,,,,,,,,,,,,
,,,,,7,2020-07-01_11h31.19.288,retriever_ti,2020.1.3,Win32,60,Chrome,1536,864,,,,,,,,,,,,,,,,,3,,,,,,,,,,,,,,,,,,,,,,,,,,,800.15101,166,left,0.75164,dolphin     ,5,2,-1,0,0,800.18418,800.18418,802.683845,0,11,11,11,1,166,5,6,dolphin     ,wolf          ,html/resources/sequences_IDs/B/02_dolphin.jpg,html/resources/sequences_IDs/A/01_wolf.jpg,2,1,1,1,1,1,2,1,0,7,,,,,,,,,,,,,,,,,,,,
,,,,,7,2020-07-01_11h31.19.288,retriever_ti,2020.1.3,Win32,60,Chrome,1536,864,,,,,,,,,,,,,,,,,3,,,,,,,,,,,,,,,,,,,,,,,,,,,803.78451,167,right,0.824955,radio       ,3,10,2,1,3,803.817765,803.817765,806.31722,0,12,12,12,1,167,1,3,holdfast    ,radio       ,html/resources/sequences_IDs/B/04_holdfast.jpg,html/resources/sequences_IDs/B/10_radio.jpg,4,10,2,1,4,2,4,8,0,7,,,,,,,,,,,,,,,,,,,,
,,,,,7,2020-07-01_11h31.19.288,retriever_ti,2020.1.3,Win32,60,Chrome,1536,864,,,,,,,,,,,,,,,,,3,,,,,,,,,,,,,,,,,,,,,,,,,,,806.91789,168,right,0.84821,camel         ,2,3,1,1,1,806.934465,806.934465,809.43297,0,13,13,13,1,168,1,2,holdfast    ,camel         ,html/resources/sequences_IDs/B/04_holdfast.jpg,html/resources/sequences_IDs/A/03_camel.jpg,4,3,2,1,1,1,4,3,0,7,,,,,,,,,,,,,,,,,,,,
,,,,,7,2020-07-01_11h31.19.288,retriever_ti,2020.1.3,Win32,60,Chrome,1536,864,,,,,,,,,,,,,,,,,3,,,,,,,,,,,,,,,,,,,,,,,,,,,810.53323,169,right,1.014085,dolphin     ,5,2,1,1,1,810.56691,810.56691,813.06624,0,14,14,14,1,169,4,5,calculator    ,dolphin     ,html/resources/sequences_IDs/A/09_calculator.jpg,html/resources/sequences_IDs/B/02_dolphin.jpg,9,2,4,2,1,1,7,2,0,7,,,,,,,,,,,,,,,,,,,,
,,,,,7,2020-07-01_11h31.19.288,retriever_ti,2020.1.3,Win32,60,Chrome,1536,864,,,,,,,,,,,,,,,,,3,,,,,,,,,,,,,,,,,,,,,,,,,,,814.166625,170,right,0.675545,camel         ,2,3,1,1,1,814.200455,814.200455,816.69955,0,15,15,15,1,170,1,2,holdfast    ,camel         ,html/resources/sequences_IDs/B/04_holdfast.jpg,html/resources/sequences_IDs/A/03_camel.jpg,4,3,2,1,1,1,4,3,0,7,,,,,,,,,,,,,,,,,,,,
,,,,,7,2020-07-01_11h31.19.288,retriever_ti,2020.1.3,Win32,60,Chrome,1536,864,,,,,,,,,,,,,,,,,3,,,,,,,,,,,,,,,,,,,,,,,,,,,817.800065,171,right,0.55702,dolphin     ,5,2,4,1,3,817.83352,817.83352,820.33293,0,16,16,16,1,171,1,5,holdfast    ,dolphin     ,html/resources/sequences_IDs/B/04_holdfast.jpg,html/resources/sequences_IDs/B/02_dolphin.jpg,4,2,2,1,1,1,4,2,0,7,,,,,,,,,,,,,,,,,,,,
,,,,,7,2020-07-01_11h31.19.288,retriever_ti,2020.1.3,Win32,60,Chrome,1536,864,,,,,,,,,,,,,,,,,3,,,,,,,,,,,,,,,,,,,,,,,,,,,820.950085,172,right,0.89109,radio       ,3,10,1,1,0,820.98359,820.98359,823.482915,0,17,17,17,1,172,2,3,camel         ,radio       ,html/resources/sequences_IDs/A/03_camel.jpg,html/resources/sequences_IDs/B/10_radio.jpg,3,10,1,1,4,2,3,8,1,7,,,,,,,,,,,,,,,,,,,,
,,,,,7,2020-07-01_11h31.19.288,retriever_ti,2020.1.3,Win32,60,Chrome,1536,864,,,,,,,,,,,,,,,,,3,,,,,,,,,,,,,,,,,,,,,,,,,,,824.583095,173,left,1.22387,hat           ,8,8,1,1,1,824.616615,824.616615,827.1156,0,18,18,18,1,173,8,7,hat           ,gloves      ,html/resources/sequences_IDs/A/08_hat.jpg,html/resources/sequences_IDs/B/06_gloves.jpg,8,6,3,2,3,2,6,5,0,7,,,,,,,,,,,,,,,,,,,,
,,,,,7,2020-07-01_11h31.19.288,retriever_ti,2020.1.3,Win32,60,Chrome,1536,864,,,,,,,,,,,,,,,,,3,,,,,,,,,,,,,,,,,,,,,,,,,,,828.21633,174,right,0.76402,dolphin     ,5,2,-1,0,0,828.25021,828.25021,830.749525,0,19,19,19,1,174,6,5,wolf          ,dolphin     ,html/resources/sequences_IDs/A/01_wolf.jpg,html/resources/sequences_IDs/B/02_dolphin.jpg,1,2,1,1,1,1,1,2,0,7,,,,,,,,,,,,,,,,,,,,
,,,,,7,2020-07-01_11h31.19.288,retriever_ti,2020.1.3,Win32,60,Chrome,1536,864,,,,,,,,,,,,,,,,,3,,,,,,,,,,,,,,,,,,,,,,,,,,,831.84994,175,left,0.616155,dolphin     ,5,2,-1,0,0,831.883465,831.883465,834.3819,0,20,20,20,1,175,5,6,dolphin     ,wolf          ,html/resources/sequences_IDs/B/02_dolphin.jpg,html/resources/sequences_IDs/A/01_wolf.jpg,2,1,1,1,1,1,2,1,0,7,,,,,,,,,,,,,,,,,,,,
,,,,,7,2020-07-01_11h31.19.288,retriever_ti,2020.1.3,Win32,60,Chrome,1536,864,,,,,,,,,,,,,,,,,3,,,,,,,,,,,,,,,,,,,,,,,,,,,835.483195,176,right,1.54266,camel         ,2,3,-6,0,3,835.49998,835.49998,837.99888,0,21,21,21,1,176,8,2,hat           ,camel         ,html/resources/sequences_IDs/A/08_hat.jpg,html/resources/sequences_IDs/A/03_camel.jpg,8,3,3,2,1,1,6,3,0,7,,,,,,,,,,,,,,,,,,,,
,,,,,7,2020-07-01_11h31.19.288,retriever_ti,2020.1.3,Win32,60,Chrome,1536,864,,,,,,,,,,,,,,,,,3,,,,,,,,,,,,,,,,,,,,,,,,,,,838.616245,177,left,0.981805,dolphin     ,5,2,1,1,1,838.63321,838.63321,841.132275,0,22,22,22,1,177,5,4,dolphin     ,calculator    ,html/resources/sequences_IDs/B/02_dolphin.jpg,html/resources/sequences_IDs/A/09_calculator.jpg,2,9,1,1,4,2,2,7,0,7,,,,,,,,,,,,,,,,,,,,
,,,,,7,2020-07-01_11h31.19.288,retriever_ti,2020.1.3,Win32,60,Chrome,1536,864,,,,,,,,,,,,,,,,,3,,,,,,,,,,,,,,,,,,,,,,,,,,,842.23292,178,right,1.410905,calculator    ,4,9,-2,0,3,842.249655,842.249655,844.74859,0,23,23,23,1,178,6,4,wolf          ,calculator    ,html/resources/sequences_IDs/A/01_wolf.jpg,html/resources/sequences_IDs/A/09_calculator.jpg,1,9,1,1,4,2,1,7,0,7,,,,,,,,,,,,,,,,,,,,
,,,,,7,2020-07-01_11h31.19.288,retriever_ti,2020.1.3,Win32,60,Chrome,1536,864,,,,,,,,,,,,,,,,,3,,,,,,,,,,,,,,,,,,,,,,,,,,,845.349315,179,right,1.041285,radio       ,3,10,-3,0,3,845.383135,845.383135,847.881965,0,24,24,24,1,179,6,3,wolf          ,radio       ,html/resources/sequences_IDs/A/01_wolf.jpg,html/resources/sequences_IDs/B/10_radio.jpg,1,10,1,1,4,2,1,8,0,7,,,,,,,,,,,,,,,,,,,,
,,,,,7,2020-07-01_11h31.19.288,retriever_ti,2020.1.3,Win32,60,Chrome,1536,864,,,,,,,,,,,,,,,,,3,,,,,,,,,,,,,,,,,,,,,,,,,,,848.498325,180,left,0.91928,calculator    ,4,9,-2,0,3,848.533,848.533,851.03137,0,25,25,25,1,180,4,6,calculator    ,wolf          ,html/resources/sequences_IDs/A/09_calculator.jpg,html/resources/sequences_IDs/A/01_wolf.jpg,9,1,4,2,1,1,7,1,0,7,,,,,,,,,,,,,,,,,,,,
,,,,,7,2020-07-01_11h31.19.288,retriever_ti,2020.1.3,Win32,60,Chrome,1536,864,,,,,,,,,,,,,,,,,3,,,,,,,,,,,,,,,,,,,,,,,,,,,851.63201,181,left,1.17354,calculator    ,4,9,1,1,1,851.64864,851.64864,854.14888,0,26,26,26,1,181,4,3,calculator    ,radio       ,html/resources/sequences_IDs/A/09_calculator.jpg,html/resources/sequences_IDs/B/10_radio.jpg,9,10,4,2,4,2,7,8,0,7,,,,,,,,,,,,,,,,,,,,
,,,,,7,2020-07-01_11h31.19.288,retriever_ti,2020.1.3,Win32,60,Chrome,1536,864,,,,,,,,,,,,,,,,,3,,,,,,,,,,,,,,,,,,,,,,,,,,,855.24841,182,right,1.09216,gloves      ,7,6,1,1,1,855.265585,855.265585,857.76515,0,27,27,27,1,182,6,7,wolf          ,gloves      ,html/resources/sequences_IDs/A/01_wolf.jpg,html/resources/sequences_IDs/B/06_gloves.jpg,1,6,1,1,3,2,1,5,0,7,,,,,,,,,,,,,,,,,,,,
,,,,,7,2020-07-01_11h31.19.288,retriever_ti,2020.1.3,Win32,60,Chrome,1536,864,,,,,,,,,,,,,,,,,3,,,,,,,,,,,,,,,,,,,,,,,,,,,858.865195,183,left,0.812905,gloves      ,7,6,6,1,3,858.88189,858.88189,861.381115,0,28,28,28,1,183,7,1,gloves      ,holdfast    ,html/resources/sequences_IDs/B/06_gloves.jpg,html/resources/sequences_IDs/B/04_holdfast.jpg,6,4,3,2,2,1,5,4,0,7,,,,,,,,,,,,,,,,,,,,
,,,,,7,2020-07-01_11h31.19.288,retriever_ti,2020.1.3,Win32,60,Chrome,1536,864,,,,,,,,,,,,,,,,,3,,,,,,,,,,,,,,,,,,,,,,,,,,,861.997785,184,left,0.63222,gloves      ,7,6,5,1,3,862.01519,862.01519,864.51442,0,29,29,29,1,184,7,2,gloves      ,camel         ,html/resources/sequences_IDs/B/06_gloves.jpg,html/resources/sequences_IDs/A/03_camel.jpg,6,3,3,2,1,1,5,3,0,7,,,,,,,,,,,,,,,,,,,,
,,,,,7,2020-07-01_11h31.19.288,retriever_ti,2020.1.3,Win32,60,Chrome,1536,864,,,,,,,,,,,,,,,,,3,,,,,,,,,,,,,,,,,,,,,,,,,,,865.131615,185,left,0.914095,radio       ,3,10,-4,0,3,865.148605,865.148605,867.647795,0,30,30,30,1,185,3,7,radio       ,gloves      ,html/resources/sequences_IDs/B/10_radio.jpg,html/resources/sequences_IDs/B/06_gloves.jpg,10,6,4,2,3,2,8,5,0,7,,,,,,,,,,,,,,,,,,,,
,,,,,7,2020-07-01_11h31.19.288,retriever_ti,2020.1.3,Win32,60,Chrome,1536,864,,,,,,,,,,,,,,,,,3,,,,,,,,,,,,,,,,,,,,,,,,,,,868.264625,186,right,0.65347,hat           ,8,8,7,1,3,868.298645,868.298645,870.79766,0,31,31,31,1,186,1,8,holdfast    ,hat           ,html/resources/sequences_IDs/B/04_holdfast.jpg,html/resources/sequences_IDs/A/08_hat.jpg,4,8,2,1,3,2,4,6,0,7,,,,,,,,,,,,,,,,,,,,
,,,,,7,2020-07-01_11h31.19.288,retriever_ti,2020.1.3,Win32,60,Chrome,1536,864,,,,,,,,,,,,,,,,,3,,,,,,,,,,,,,,,,,,,,,,,,,,,871.415235,187,left,0.77501,gloves      ,7,6,-1,0,0,871.448385,871.448385,873.947425,0,32,32,32,1,187,7,8,gloves      ,hat           ,html/resources/sequences_IDs/B/06_gloves.jpg,html/resources/sequences_IDs/A/08_hat.jpg,6,8,3,2,3,2,5,6,0,7,,,,,,,,,,,,,,,,,,,,
,,,,,7,2020-07-01_11h31.19.288,retriever_ti,2020.1.3,Win32,60,Chrome,1536,864,,,,,,,,,,,,,,,,,3,,,,,,,,,,,,,,,,,,,,,,,,,,,875.04767,188,left,0.648475,calculator    ,4,9,3,1,3,875.081815,875.081815,877.580895,0,33,33,33,1,188,4,1,calculator    ,holdfast    ,html/resources/sequences_IDs/A/09_calculator.jpg,html/resources/sequences_IDs/B/04_holdfast.jpg,9,4,4,2,2,1,7,4,0,7,,,,,,,,,,,,,,,,,,,,
,,,,,7,2020-07-01_11h31.19.288,retriever_ti,2020.1.3,Win32,60,Chrome,1536,864,,,,,,,,,,,,,,,,,3,,,,,,,,,,,,,,,,,,,,,,,,,,,878.197195,189,left,0.70924,dolphin     ,5,2,4,1,3,878.21509,878.21509,880.714265,0,34,34,34,1,189,5,1,dolphin     ,holdfast    ,html/resources/sequences_IDs/B/02_dolphin.jpg,html/resources/sequences_IDs/B/04_holdfast.jpg,2,4,1,1,2,1,2,4,0,7,,,,,,,,,,,,,,,,,,,,
,,,,,7,2020-07-01_11h31.19.288,retriever_ti,2020.1.3,Win32,60,Chrome,1536,864,,,,,,,,,,,,,,,,,3,,,,,,,,,,,,,,,,,,,,,,,,,,,881.3313,190,left,1.156265,calculator    ,4,9,-3,0,3,881.347575,881.347575,883.846585,0,35,35,35,1,190,4,7,calculator    ,gloves      ,html/resources/sequences_IDs/A/09_calculator.jpg,html/resources/sequences_IDs/B/06_gloves.jpg,9,6,4,2,3,2,7,5,0,7,,,,,,,,,,,,,,,,,,,,
,,,,,7,2020-07-01_11h31.19.288,retriever_ti,2020.1.3,Win32,60,Chrome,1536,864,,,,,,,,,,,,,,,,,3,,,,,,,,,,,,,,,,,,,,,,,,,,,884.46446,191,right,0.82231,dolphin     ,5,2,-1,0,0,884.480785,884.480785,886.9804,0,36,36,36,1,191,6,5,wolf          ,dolphin     ,html/resources/sequences_IDs/A/01_wolf.jpg,html/resources/sequences_IDs/B/02_dolphin.jpg,1,2,1,1,1,1,1,2,0,7,,,,,,,,,,,,,,,,,,,,
,,,,,7,2020-07-01_11h31.19.288,retriever_ti,2020.1.3,Win32,60,Chrome,1536,864,,,,,,,,,,,,,,,,,3,,,,,,,,,,,,,,,,,,,,,,,,,,,888.08113,192,left,0.79899,calculator    ,4,9,1,1,0,888.09732,888.09732,890.5964,0,37,37,37,1,192,4,3,calculator    ,radio       ,html/resources/sequences_IDs/A/09_calculator.jpg,html/resources/sequences_IDs/B/10_radio.jpg,9,10,4,2,4,2,7,8,1,7,,,,,,,,,,,,,,,,,,,,
,,,,,7,2020-07-01_11h31.19.288,retriever_ti,2020.1.3,Win32,60,Chrome,1536,864,,,,,,,,,,,,,,,,,3,,,,,,,,,,,,,,,,,,,,,,,,,,,891.69757,193,left,0.631775,calculator    ,4,9,1,1,1,891.730615,891.730615,894.22986,0,38,38,38,1,193,4,3,calculator    ,radio       ,html/resources/sequences_IDs/A/09_calculator.jpg,html/resources/sequences_IDs/B/10_radio.jpg,9,10,4,2,4,2,7,8,0,7,,,,,,,,,,,,,,,,,,,,
,,,,,7,2020-07-01_11h31.19.288,retriever_ti,2020.1.3,Win32,60,Chrome,1536,864,,,,,,,,,,,,,,,,,3,,,,,,,,,,,,,,,,,,,,,,,,,,,895.33043,194,right,1.088425,hat           ,8,8,2,1,3,895.34715,895.34715,897.846175,0,39,39,39,1,194,6,8,wolf          ,hat           ,html/resources/sequences_IDs/A/01_wolf.jpg,html/resources/sequences_IDs/A/08_hat.jpg,1,8,1,1,3,2,1,6,0,7,,,,,,,,,,,,,,,,,,,,
,,,,,7,2020-07-01_11h31.19.288,retriever_ti,2020.1.3,Win32,60,Chrome,1536,864,,,,,,,,,,,,,,,,,3,,,,,,,,,,,,,,,,,,,,,,,,,,,898.44706,195,left,0.79203,camel         ,2,3,1,1,1,898.48057,898.48057,900.979555,0,40,40,40,1,195,2,1,camel         ,holdfast    ,html/resources/sequences_IDs/A/03_camel.jpg,html/resources/sequences_IDs/B/04_holdfast.jpg,3,4,1,1,2,1,3,4,0,7,,,,,,,,,,,,,,,,,,,,
,,,,,7,2020-07-01_11h31.19.288,retriever_ti,2020.1.3,Win32,60,Chrome,1536,864,,,,,,,,,,,,,,,,,3,,,,,,,,,,,,,,,,,,,,,,,,,,,902.07975,196,right,1.398935,radio       ,3,10,-2,0,3,902.097355,902.097355,904.596015,0,41,41,41,1,196,5,3,dolphin     ,radio       ,html/resources/sequences_IDs/B/02_dolphin.jpg,html/resources/sequences_IDs/B/10_radio.jpg,2,10,1,1,4,2,2,8,0,7,,,,,,,,,,,,,,,,,,,,
,,,,,7,2020-07-01_11h31.19.288,retriever_ti,2020.1.3,Win32,60,Chrome,1536,864,,,,,,,,,,,,,,,,,3,,,,,,,,,,,,,,,,,,,,,,,,,,,905.197045,197,left,1.695985,hat           ,8,8,2,1,3,905.230715,905.230715,907.72982,0,42,42,42,1,197,8,6,hat           ,wolf          ,html/resources/sequences_IDs/A/08_hat.jpg,html/resources/sequences_IDs/A/01_wolf.jpg,8,1,3,2,1,1,6,1,0,7,,,,,,,,,,,,,,,,,,,,
,,,,,7,2020-07-01_11h31.19.288,retriever_ti,2020.1.3,Win32,60,Chrome,1536,864,,,,,,,,,,,,,,,,,3,,,,,,,,,,,,,,,,,,,,,,,,,,,908.330175,198,right,1.07061,gloves      ,7,6,1,1,0,908.363075,908.363075,910.862705,0,43,43,43,1,198,6,7,wolf          ,gloves      ,html/resources/sequences_IDs/A/01_wolf.jpg,html/resources/sequences_IDs/B/06_gloves.jpg,1,6,1,1,3,2,1,5,1,7,,,,,,,,,,,,,,,,,,,,
,,,,,7,2020-07-01_11h31.19.288,retriever_ti,2020.1.3,Win32,60,Chrome,1536,864,,,,,,,,,,,,,,,,,3,,,,,,,,,,,,,,,,,,,,,,,,,,,911.962855,199,right,0.67097,calculator    ,4,9,1,1,1,911.996485,911.996485,914.496135,0,44,44,44,1,199,3,4,radio       ,calculator    ,html/resources/sequences_IDs/B/10_radio.jpg,html/resources/sequences_IDs/A/09_calculator.jpg,10,9,4,2,4,2,8,7,0,7,,,,,,,,,,,,,,,,,,,,
,,,,,7,2020-07-01_11h31.19.288,retriever_ti,2020.1.3,Win32,60,Chrome,1536,864,,,,,,,,,,,,,,,,,3,,,,,,,,,,,,,,,,,,,,,,,,,,,915.59627,200,left,0.71604,calculator    ,4,9,2,1,3,915.629425,915.629425,918.12951,0,45,45,45,1,200,4,2,calculator    ,camel         ,html/resources/sequences_IDs/A/09_calculator.jpg,html/resources/sequences_IDs/A/03_camel.jpg,9,3,4,2,1,1,7,3,0,7,,,,,,,,,,,,,,,,,,,,
,,,,,7,2020-07-01_11h31.19.288,retriever_ti,2020.1.3,Win32,60,Chrome,1536,864,,,,,,,,,,,,,,,,,3,,,,,,,,,,,,,,,,,,,,,,,,,,,918.74645,201,left,1.35098,radio       ,3,10,-3,0,3,918.77976,918.77976,921.27888,0,46,46,46,1,201,3,6,radio       ,wolf          ,html/resources/sequences_IDs/B/10_radio.jpg,html/resources/sequences_IDs/A/01_wolf.jpg,10,1,4,2,1,1,8,1,0,7,,,,,,,,,,,,,,,,,,,,
,,,,,7,2020-07-01_11h31.19.288,retriever_ti,2020.1.3,Win32,60,Chrome,1536,864,,,,,,,,,,,,,,,,,3,,,,,,,,,,,,,,,,,,,,,,,,,,,921.895705,202,left,0.85403,radio       ,3,10,2,1,3,921.92961,921.92961,924.429295,0,47,47,47,1,202,3,1,radio       ,holdfast    ,html/resources/sequences_IDs/B/10_radio.jpg,html/resources/sequences_IDs/B/04_holdfast.jpg,10,4,4,2,2,1,8,4,0,7,,,,,,,,,,,,,,,,,,,,
,,,,,7,2020-07-01_11h31.19.288,retriever_ti,2020.1.3,Win32,60,Chrome,1536,864,,,,,,,,,,,,,,,,,3,,,,,,,,,,,,,,,,,,,,,,,,,,,925.045855,203,left,0.916045,radio       ,3,10,1,1,1,925.062355,925.062355,927.561585,0,48,48,48,1,203,3,2,radio       ,camel         ,html/resources/sequences_IDs/B/10_radio.jpg,html/resources/sequences_IDs/A/03_camel.jpg,10,3,4,2,1,1,8,3,0,7,,,,,,,,,,,,,,,,,,,,
,,,,,7,2020-07-01_11h31.19.288,retriever_ti,2020.1.3,Win32,60,Chrome,1536,864,,,,,,,,,,,,,,,,,3,,,,,,,,,,,,,,,,,,,,,,,,,,,928.66252,204,left,0.75052,camel         ,2,3,-6,0,3,928.6959,928.6959,931.195125,0,49,49,49,1,204,2,8,camel         ,hat           ,html/resources/sequences_IDs/A/03_camel.jpg,html/resources/sequences_IDs/A/08_hat.jpg,3,8,1,1,3,2,3,6,0,7,,,,,,,,,,,,,,,,,,,,
,,,,,7,2020-07-01_11h31.19.288,retriever_ti,2020.1.3,Win32,60,Chrome,1536,864,,,,,,,,,,,,,,,,,3,,,,,,,,,,,,,,,,,,,,,,,,,,,931.812765,205,left,0.956495,wolf          ,6,1,5,1,3,931.8463,931.8463,934.34491,0,50,50,50,1,205,6,1,wolf          ,holdfast    ,html/resources/sequences_IDs/A/01_wolf.jpg,html/resources/sequences_IDs/B/04_holdfast.jpg,1,4,1,1,2,1,1,4,0,7,,,,,,,,,,,,,,,,,,,,
,,,,,7,2020-07-01_11h31.19.288,retriever_ti,2020.1.3,Win32,60,Chrome,1536,864,,,,,,,,,,,,,,,,,3,,,,,,,,,,,,,,,,,,,,,,,,,,,934.94601,206,right,0.7041,gloves      ,7,6,6,1,3,934.96261,934.96261,937.461725,0,51,51,51,1,206,1,7,holdfast    ,gloves      ,html/resources/sequences_IDs/B/04_holdfast.jpg,html/resources/sequences_IDs/B/06_gloves.jpg,4,6,2,1,3,2,4,5,0,7,,,,,,,,,,,,,,,,,,,,
,,,,,7,2020-07-01_11h31.19.288,retriever_ti,2020.1.3,Win32,60,Chrome,1536,864,,,,,,,,,,,,,,,,,3,,,,,,,,,,,,,,,,,,,,,,,,,,,938.07808,207,right,0.833595,dolphin     ,5,2,-1,0,1,938.11212,938.11212,940.6117,0,52,52,52,1,207,6,5,wolf          ,dolphin     ,html/resources/sequences_IDs/A/01_wolf.jpg,html/resources/sequences_IDs/B/02_dolphin.jpg,1,2,1,1,1,1,1,2,1,7,,,,,,,,,,,,,,,,,,,,
,,,,,7,2020-07-01_11h31.19.288,retriever_ti,2020.1.3,Win32,60,Chrome,1536,864,,,,,,,,,,,,,,,,,3,,,,,,,,,,,,,,,,,,,,,,,,,,,941.711835,208,right,1.357385,dolphin     ,5,2,2,1,3,941.745965,941.745965,944.245015,0,53,53,53,1,208,3,5,radio       ,dolphin     ,html/resources/sequences_IDs/B/10_radio.jpg,html/resources/sequences_IDs/B/02_dolphin.jpg,10,2,4,2,1,1,8,2,0,7,,,,,,,,,,,,,,,,,,,,
,,,,,7,2020-07-01_11h31.19.288,retriever_ti,2020.1.3,Win32,60,Chrome,1536,864,,,,,,,,,,,,,,,,,3,,,,,,,,,,,,,,,,,,,,,,,,,,,944.84565,209,right,0.740205,wolf          ,6,1,5,1,3,944.8618,944.8618,947.360875,0,54,54,54,1,209,1,6,holdfast    ,wolf          ,html/resources/sequences_IDs/B/04_holdfast.jpg,html/resources/sequences_IDs/A/01_wolf.jpg,4,1,2,1,1,1,4,1,0,7,,,,,,,,,,,,,,,,,,,,
,,,,,7,2020-07-01_11h31.19.288,retriever_ti,2020.1.3,Win32,60,Chrome,1536,864,,,,,,,,,,,,,,,,,3,,,,,,,,,,,,,,,,,,,,,,,,,,,947.96127,210,right,1.955355,gloves      ,7,6,-1,0,0,947.995025,947.995025,950.494275,0,55,55,55,1,210,8,7,hat           ,gloves      ,html/resources/sequences_IDs/A/08_hat.jpg,html/resources/sequences_IDs/B/06_gloves.jpg,8,6,3,2,3,2,6,5,0,7,,,,,,,,,,,,,,,,,,,,
,,,,,7,2020-07-01_11h31.19.288,retriever_ti,2020.1.3,Win32,60,Chrome,1536,864,,,,,,,,,,,,,,,,,3,,,,,,,,,,,,,,,,,,,,,,,,,,,951.59497,211,left,0.817525,dolphin     ,5,2,3,1,3,951.628115,951.628115,954.12712,0,56,56,56,1,211,5,2,dolphin     ,camel         ,html/resources/sequences_IDs/B/02_dolphin.jpg,html/resources/sequences_IDs/A/03_camel.jpg,2,3,1,1,1,1,2,3,0,7,,,,,,,,,,,,,,,,,,,,
,,,,,7,2020-07-01_11h31.19.288,retriever_ti,2020.1.3,Win32,60,Chrome,1536,864,,,,,,,,,,,,,,,,,3,,,,,,,,,,,,,,,,,,,,,,,,,,,954.74449,212,left,0.9904,calculator    ,4,9,-1,0,0,954.761395,954.761395,957.26048,0,57,57,57,1,212,4,5,calculator    ,dolphin     ,html/resources/sequences_IDs/A/09_calculator.jpg,html/resources/sequences_IDs/B/02_dolphin.jpg,9,2,4,2,1,1,7,2,0,7,,,,,,,,,,,,,,,,,,,,
,,,,,7,2020-07-01_11h31.19.288,retriever_ti,2020.1.3,Win32,60,Chrome,1536,864,,,,,,,,,,,,,,,,,3,,,,,,,,,,,,,,,,,,,,,,,,,,,958.361655,213,left,0.99955,hat           ,8,8,7,1,3,958.39477,958.39477,960.89392,0,58,58,58,1,213,8,1,hat           ,holdfast    ,html/resources/sequences_IDs/A/08_hat.jpg,html/resources/sequences_IDs/B/04_holdfast.jpg,8,4,3,2,2,1,6,4,0,7,,,,,,,,,,,,,,,,,,,,
,,,,,7,2020-07-01_11h31.19.288,retriever_ti,2020.1.3,Win32,60,Chrome,1536,864,,,,,,,,,,,,,,,,,3,,,,,,,,,,,,,,,,,,,,,,,,,,,961.511515,214,right,0.83286,hat           ,8,8,1,1,0,961.54464,961.54464,964.04378,0,59,59,59,1,214,7,8,gloves      ,hat           ,html/resources/sequences_IDs/B/06_gloves.jpg,html/resources/sequences_IDs/A/08_hat.jpg,6,8,3,2,3,2,5,6,1,7,,,,,,,,,,,,,,,,,,,,
,,,,,7,2020-07-01_11h31.19.288,retriever_ti,2020.1.3,Win32,60,Chrome,1536,864,,,,,,,,,,,,,,,,,3,,,,,,,,,,,,,,,,,,,,,,,,,,,965.14446,215,right,1.242665,wolf          ,6,1,4,1,3,965.17807,965.17807,967.67717,0,60,60,60,1,215,2,6,camel         ,wolf          ,html/resources/sequences_IDs/A/03_camel.jpg,html/resources/sequences_IDs/A/01_wolf.jpg,3,1,1,1,1,1,3,1,0,7,,,,,,,,,,,,,,,,,,,,
,,,,,7,2020-07-01_11h31.19.288,retriever_ti,2020.1.3,Win32,60,Chrome,1536,864,,,,,,,,,,,,,,,,,3,,,,,,,,,,,,,,,,,,,,,,,,,,,968.277545,216,left,0.78484,wolf          ,6,1,4,1,3,968.29445,968.29445,970.793545,0,61,61,61,1,216,6,2,wolf          ,camel         ,html/resources/sequences_IDs/A/01_wolf.jpg,html/resources/sequences_IDs/A/03_camel.jpg,1,3,1,1,1,1,1,3,0,7,,,,,,,,,,,,,,,,,,,,
,,,,,7,2020-07-01_11h31.19.288,retriever_ti,2020.1.3,Win32,60,Chrome,1536,864,,,,,,,,,,,,,,,,,3,,,,,,,,,,,,,,,,,,,,,,,,,,,971.411165,217,right,0.958105,radio       ,3,10,-4,0,3,971.44386,971.44386,973.943975,0,62,62,62,1,217,7,3,gloves      ,radio       ,html/resources/sequences_IDs/B/06_gloves.jpg,html/resources/sequences_IDs/B/10_radio.jpg,6,10,3,2,4,2,5,8,0,7,,,,,,,,,,,,,,,,,,,,
,,,,,7,2020-07-01_11h31.19.288,retriever_ti,2020.1.3,Win32,60,Chrome,1536,864,,,,,,,,,,,,,,,,,3,,,,,,,,,,,,,,,,,,,,,,,,,,,974.560765,218,right,0.684985,calculator    ,4,9,1,1,1,974.5937,974.5937,977.09381,0,63,63,63,1,218,3,4,radio       ,calculator    ,html/resources/sequences_IDs/B/10_radio.jpg,html/resources/sequences_IDs/A/09_calculator.jpg,10,9,4,2,4,2,8,7,0,7,,,,,,,,,,,,,,,,,,,,
,,,,,7,2020-07-01_11h31.19.288,retriever_ti,2020.1.3,Win32,60,Chrome,1536,864,,,,,,,,,,,,,,,,,3,,,,,,,,,,,,,,,,,,,,,,,,,,,978.193445,219,right,0.958425,dolphin     ,5,2,-2,0,3,978.227265,978.227265,980.72617,0,64,64,64,1,219,7,5,gloves      ,dolphin     ,html/resources/sequences_IDs/B/06_gloves.jpg,html/resources/sequences_IDs/B/02_dolphin.jpg,6,2,3,2,1,1,5,2,0,7,,,,,,,,,,,,,,,,,,,,
,,,,,7,2020-07-01_11h31.19.288,retriever_ti,2020.1.3,Win32,60,Chrome,1536,864,,,,,,,,,,,,,,,,,3,,,,,,,,,,,,,,,,,,,,,,,,,,,981.343415,220,right,0.60085,calculator    ,4,9,2,1,3,981.36044,981.36044,983.859595,0,65,65,65,1,220,2,4,camel         ,calculator    ,html/resources/sequences_IDs/A/03_camel.jpg,html/resources/sequences_IDs/A/09_calculator.jpg,3,9,1,1,4,2,3,7,0,7,,,,,,,,,,,,,,,,,,,,
,,,,,7,2020-07-01_11h31.19.288,retriever_ti,2020.1.3,Win32,60,Chrome,1536,864,,,,,,,,,,,,,,,,,3,,,,,,,,,,,,,,,,,,,,,,,,,,,984.476385,221,right,1.305025,wolf          ,6,1,-1,0,0,984.493825,984.493825,986.993405,0,66,66,66,1,221,7,6,gloves      ,wolf          ,html/resources/sequences_IDs/B/06_gloves.jpg,html/resources/sequences_IDs/A/01_wolf.jpg,6,1,3,2,1,1,5,1,0,7,,,,,,,,,,,,,,,,,,,,
,,,,,7,2020-07-01_11h31.19.288,retriever_ti,2020.1.3,Win32,60,Chrome,1536,864,,,,,,,,,,,,,,,,,3,,,,,,,,,,,,,,,,,,,,,,,,,,,988.09351,222,left,0.80129,radio       ,3,10,1,1,1,988.110205,988.110205,990.609325,0,67,67,67,1,222,3,2,radio       ,camel         ,html/resources/sequences_IDs/B/10_radio.jpg,html/resources/sequences_IDs/A/03_camel.jpg,10,3,4,2,1,1,8,3,0,7,,,,,,,,,,,,,,,,,,,,
,,,,,7,2020-07-01_11h31.19.288,retriever_ti,2020.1.3,Win32,60,Chrome,1536,864,,,,,,,,,,,,,,,,,3,,,,,,,,,,,,,,,,,,,,,,,,,,,991.70997,223,right,0.85937,calculator    ,4,9,-3,0,3,991.72669,991.72669,994.225745,0,68,68,68,1,223,7,4,gloves      ,calculator    ,html/resources/sequences_IDs/B/06_gloves.jpg,html/resources/sequences_IDs/A/09_calculator.jpg,6,9,3,2,4,2,5,7,0,7,,,,,,,,,,,,,,,,,,,,
,,,,,7,2020-07-01_11h31.19.288,retriever_ti,2020.1.3,Win32,60,Chrome,1536,864,,,,,,,,,,,,,,,,,3,,,,,,,,,,,,,,,,,,,,,,,,,,,994.84313,224,right,0.95888,radio       ,3,10,1,1,1,994.876495,994.876495,997.3761,0,69,69,69,1,224,2,3,camel         ,radio       ,html/resources/sequences_IDs/A/03_camel.jpg,html/resources/sequences_IDs/B/10_radio.jpg,3,10,1,1,4,2,3,8,0,7,,,,,,,,,,,,,,,,,,,,
,,,,,7,2020-07-01_11h31.19.288,retriever_ti,2020.1.3,Win32,60,Chrome,1536,864,,,,,,,,,,,,,,,,,3,,,,,,,,,,,,,,,,,,,,,,,,,,,998.47645,225,right,1.12265,gloves      ,7,6,5,1,3,998.509915,998.509915,1001.00899,0,70,70,70,1,225,2,7,camel         ,gloves      ,html/resources/sequences_IDs/A/03_camel.jpg,html/resources/sequences_IDs/B/06_gloves.jpg,3,6,1,1,3,2,3,5,0,7,,,,,,,,,,,,,,,,,,,,
,,,,,7,2020-07-01_11h31.19.288,retriever_ti,2020.1.3,Win32,60,Chrome,1536,864,,,,,,,,,,,,,,,,,3,,,,,,,,,,,,,,,,,,,,,,,,,,,1001.626605,226,right,0.856015,gloves      ,7,6,1,1,1,1001.659795,1001.659795,1004.159425,0,71,71,71,1,226,6,7,wolf          ,gloves      ,html/resources/sequences_IDs/A/01_wolf.jpg,html/resources/sequences_IDs/B/06_gloves.jpg,1,6,1,1,3,2,1,5,0,7,,,,,,,,,,,,,,,,,,,,
