instructionsLoop.thisRepN,instructionsLoop.thisTrialN,instructionsLoop.thisN,instructionsLoop.thisIndex,instructionsLoop.ran,participant,date,expName,psychopyVersion,OS,frameRate,browser,xResolution,yResolution,fix_onset,tprac,practiceKey.keys,practiceKey.rt,pracitem_chosen_name,acc_practice,P1_onsetPrac,P2_onsetPrac,onsetFeedbPrac,practiceTrials.thisRepN,practiceTrials.thisTrialN,practiceTrials.thisN,practiceTrials.thisIndex,practiceTrials.ran,P1,P2,Block,LocItem1,LocItem2,NameItem1,NameItem2,key_respAC_prac.keys,key_respAC_prac.corr,key_respAC_prac.rt,AC_acc,Attentions.thisRepN,Attentions.thisTrialN,Attentions.thisN,Attentions.thisIndex,Attentions.ran,Stim,Loc1,Loc2,Loc3,Loc4,CorrAns,keyDisturbed.keys,keyDisturbed.rt,repPractice.thisRepN,repPractice.thisTrialN,repPractice.thisN,repPractice.thisIndex,repPractice.ran,fixcross_onsetMain,trialNumber,key_resp.keys,key_resp.rt,item_chosen_name,item_chosen_value,item_chosen_ID,diff_chosen_minus_reject,acc_real,acc_feedback,P1_onset,P2_onset,feedb_onset,trials.thisRepN,trials.thisTrialN,trials.thisN,trials.thisIndex,trials.ran,Trial,ValueP1,ValueP2,P1name,P2name,P1Loc,P2Loc,P1id,P2id,Micro_categoryP1,Macro_categoryP1,Micro_categoryP2,Macro_categoryP2,ID_sequenceP1,ID_sequenceP2,InverseFb,pNumber,repBlocks.thisRepN,repBlocks.thisTrialN,repBlocks.thisN,repBlocks.thisIndex,repBlocks.ran,key_respAC.keys,key_respAC.corr,key_respAC.rt,trials_AC.thisRepN,trials_AC.thisTrialN,trials_AC.thisN,trials_AC.thisIndex,trials_AC.ran,Bonus,BonusLoop.thisRepN,BonusLoop.thisTrialN,BonusLoop.thisN,BonusLoop.thisIndex,BonusLoop.ran,comments
0,0,0,0,1,80,2020-07-04_19h39.56.987,retriever_ti,2020.1.3,Win32,60,Chrome,1920,1080,,,,,,,,,,,,,,,,,,,,,,,,,,,,,,,,,,,,,,,,,,,,,,,,,,,,,,,,,,,,,,,,,,,,,,,,,,,,,,,,,,,,,,,,,,,,,,,,,,
1,0,1,0,1,80,2020-07-04_19h39.56.987,retriever_ti,2020.1.3,Win32,60,Chrome,1920,1080,,,,,,,,,,,,,,,,,,,,,,,,,,,,,,,,,,,,,,,,,,,,,,,,,,,,,,,,,,,,,,,,,,,,,,,,,,,,,,,,,,,,,,,,,,,,,,,,,,
2,0,2,0,1,80,2020-07-04_19h39.56.987,retriever_ti,2020.1.3,Win32,60,Chrome,1920,1080,,,,,,,,,,,,,,,,,,,,,,,,,,,,,,,,,,,,,,,,,,,,,,,,,,,,,,,,,,,,,,,,,,,,,,,,,,,,,,,,,,,,,,,,,,,,,,,,,,
3,0,3,0,1,80,2020-07-04_19h39.56.987,retriever_ti,2020.1.3,Win32,60,Chrome,1920,1080,,,,,,,,,,,,,,,,,,,,,,,,,,,,,,,,,,,,,,,,,,,,,,,,,,,,,,,,,,,,,,,,,,,,,,,,,,,,,,,,,,,,,,,,,,,,,,,,,,
4,0,4,0,1,80,2020-07-04_19h39.56.987,retriever_ti,2020.1.3,Win32,60,Chrome,1920,1080,,,,,,,,,,,,,,,,,,,,,,,,,,,,,,,,,,,,,,,,,,,,,,,,,,,,,,,,,,,,,,,,,,,,,,,,,,,,,,,,,,,,,,,,,,,,,,,,,,
5,0,5,0,1,80,2020-07-04_19h39.56.987,retriever_ti,2020.1.3,Win32,60,Chrome,1920,1080,,,,,,,,,,,,,,,,,,,,,,,,,,,,,,,,,,,,,,,,,,,,,,,,,,,,,,,,,,,,,,,,,,,,,,,,,,,,,,,,,,,,,,,,,,,,,,,,,,
6,0,6,0,1,80,2020-07-04_19h39.56.987,retriever_ti,2020.1.3,Win32,60,Chrome,1920,1080,,,,,,,,,,,,,,,,,,,,,,,,,,,,,,,,,,,,,,,,,,,,,,,,,,,,,,,,,,,,,,,,,,,,,,,,,,,,,,,,,,,,,,,,,,,,,,,,,,
7,0,7,0,1,80,2020-07-04_19h39.56.987,retriever_ti,2020.1.3,Win32,60,Chrome,1920,1080,,,,,,,,,,,,,,,,,,,,,,,,,,,,,,,,,,,,,,,,,,,,,,,,,,,,,,,,,,,,,,,,,,,,,,,,,,,,,,,,,,,,,,,,,,,,,,,,,,
8,0,8,0,1,80,2020-07-04_19h39.56.987,retriever_ti,2020.1.3,Win32,60,Chrome,1920,1080,,,,,,,,,,,,,,,,,,,,,,,,,,,,,,,,,,,,,,,,,,,,,,,,,,,,,,,,,,,,,,,,,,,,,,,,,,,,,,,,,,,,,,,,,,,,,,,,,,
9,0,9,0,1,80,2020-07-04_19h39.56.987,retriever_ti,2020.1.3,Win32,60,Chrome,1920,1080,,,,,,,,,,,,,,,,,,,,,,,,,,,,,,,,,,,,,,,,,,,,,,,,,,,,,,,,,,,,,,,,,,,,,,,,,,,,,,,,,,,,,,,,,,,,,,,,,,
10,0,10,0,1,80,2020-07-04_19h39.56.987,retriever_ti,2020.1.3,Win32,60,Chrome,1920,1080,,,,,,,,,,,,,,,,,,,,,,,,,,,,,,,,,,,,,,,,,,,,,,,,,,,,,,,,,,,,,,,,,,,,,,,,,,,,,,,,,,,,,,,,,,,,,,,,,,
11,0,11,0,1,80,2020-07-04_19h39.56.987,retriever_ti,2020.1.3,Win32,60,Chrome,1920,1080,,,,,,,,,,,,,,,,,,,,,,,,,,,,,,,,,,,,,,,,,,,,,,,,,,,,,,,,,,,,,,,,,,,,,,,,,,,,,,,,,,,,,,,,,,,,,,,,,,
12,0,12,0,1,80,2020-07-04_19h39.56.987,retriever_ti,2020.1.3,Win32,60,Chrome,1920,1080,,,,,,,,,,,,,,,,,,,,,,,,,,,,,,,,,,,,,,,,,,,,,,,,,,,,,,,,,,,,,,,,,,,,,,,,,,,,,,,,,,,,,,,,,,,,,,,,,,
13,0,13,0,1,80,2020-07-04_19h39.56.987,retriever_ti,2020.1.3,Win32,60,Chrome,1920,1080,,,,,,,,,,,,,,,,,,,,,,,,,,,,,,,,,,,,,,,,,,,,,,,,,,,,,,,,,,,,,,,,,,,,,,,,,,,,,,,,,,,,,,,,,,,,,,,,,,
14,0,14,0,1,80,2020-07-04_19h39.56.987,retriever_ti,2020.1.3,Win32,60,Chrome,1920,1080,,,,,,,,,,,,,,,,,,,,,,,,,,,,,,,,,,,,,,,,,,,,,,,,,,,,,,,,,,,,,,,,,,,,,,,,,,,,,,,,,,,,,,,,,,,,,,,,,,
15,0,15,0,1,80,2020-07-04_19h39.56.987,retriever_ti,2020.1.3,Win32,60,Chrome,1920,1080,,,,,,,,,,,,,,,,,,,,,,,,,,,,,,,,,,,,,,,,,,,,,,,,,,,,,,,,,,,,,,,,,,,,,,,,,,,,,,,,,,,,,,,,,,,,,,,,,,
16,0,16,0,1,80,2020-07-04_19h39.56.987,retriever_ti,2020.1.3,Win32,60,Chrome,1920,1080,,,,,,,,,,,,,,,,,,,,,,,,,,,,,,,,,,,,,,,,,,,,,,,,,,,,,,,,,,,,,,,,,,,,,,,,,,,,,,,,,,,,,,,,,,,,,,,,,,
17,0,17,0,1,80,2020-07-04_19h39.56.987,retriever_ti,2020.1.3,Win32,60,Chrome,1920,1080,,,,,,,,,,,,,,,,,,,,,,,,,,,,,,,,,,,,,,,,,,,,,,,,,,,,,,,,,,,,,,,,,,,,,,,,,,,,,,,,,,,,,,,,,,,,,,,,,,
18,0,18,0,1,80,2020-07-04_19h39.56.987,retriever_ti,2020.1.3,Win32,60,Chrome,1920,1080,,,,,,,,,,,,,,,,,,,,,,,,,,,,,,,,,,,,,,,,,,,,,,,,,,,,,,,,,,,,,,,,,,,,,,,,,,,,,,,,,,,,,,,,,,,,,,,,,,
19,0,19,0,1,80,2020-07-04_19h39.56.987,retriever_ti,2020.1.3,Win32,60,Chrome,1920,1080,,,,,,,,,,,,,,,,,,,,,,,,,,,,,,,,,,,,,,,,,,,,,,,,,,,,,,,,,,,,,,,,,,,,,,,,,,,,,,,,,,,,,,,,,,,,,,,,,,
20,0,20,0,1,80,2020-07-04_19h39.56.987,retriever_ti,2020.1.3,Win32,60,Chrome,1920,1080,,,,,,,,,,,,,,,,,,,,,,,,,,,,,,,,,,,,,,,,,,,,,,,,,,,,,,,,,,,,,,,,,,,,,,,,,,,,,,,,,,,,,,,,,,,,,,,,,,
,,,,,80,2020-07-04_19h39.56.987,retriever_ti,2020.1.3,Win32,60,Chrome,1920,1080,214.238745,1,right,1.00662,canary,1,214.277675,214.277675,216.776765,0,0,0,0,1,2,5,1,html/resources/stimuli_practice_decision/04_beetle.jpg,html/resources/stimuli_practice_decision/02_canary.jpg,beetle,canary,,,,,,,,,,,,,,,,,,,,,,,,,,,,,,,,,,,,,,,,,,,,,,,,,,,,,,,,,,,,,,,,,,,,,,,,,,,,,
,,,,,80,2020-07-04_19h39.56.987,retriever_ti,2020.1.3,Win32,60,Chrome,1920,1080,217.310775,2,left,0.84651,rabbit,1,217.35977,217.35977,219.82654,0,1,1,1,1,4,3,1,html/resources/stimuli_practice_decision/01_rabbit.jpg,html/resources/stimuli_practice_decision/07_sock.jpg,rabbit,sock,,,,,,,,,,,,,,,,,,,,,,,,,,,,,,,,,,,,,,,,,,,,,,,,,,,,,,,,,,,,,,,,,,,,,,,,,,,,,
,,,,,80,2020-07-04_19h39.56.987,retriever_ti,2020.1.3,Win32,60,Chrome,1920,1080,220.82968,3,left,0.97907,pullover,1,220.843945,220.843945,223.34358,0,2,2,2,1,6,2,1,html/resources/stimuli_practice_decision/06_pullover.jpg,html/resources/stimuli_practice_decision/04_beetle.jpg,pullover,beetle,,,,,,,,,,,,,,,,,,,,,,,,,,,,,,,,,,,,,,,,,,,,,,,,,,,,,,,,,,,,,,,,,,,,,,,,,,,,,
,,,,,80,2020-07-04_19h39.56.987,retriever_ti,2020.1.3,Win32,60,Chrome,1920,1080,223.86044,4,right,0.89656,handmixer,0,223.89415,223.89415,226.393225,0,3,3,3,1,7,1,1,html/resources/stimuli_practice_decision/05_glasses.jpg,html/resources/stimuli_practice_decision/08_handmixer.jpg,glasses,handmixer,,,,,,,,,,,,,,,,,,,,,,,,,,,,,,,,,,,,,,,,,,,,,,,,,,,,,,,,,,,,,,,,,,,,,,,,,,,,,
,,,,,80,2020-07-04_19h39.56.987,retriever_ti,2020.1.3,Win32,60,Chrome,1920,1080,226.910165,5,left,1.848115,glasses,1,226.928375,226.928375,229.427575,0,4,4,4,1,7,6,1,html/resources/stimuli_practice_decision/05_glasses.jpg,html/resources/stimuli_practice_decision/06_pullover.jpg,glasses,pullover,,,,,,,,,,,,,,,,,,,,,,,,,,,,,,,,,,,,,,,,,,,,,,,,,,,,,,,,,,,,,,,,,,,,,,,,,,,,,
,,,,,80,2020-07-04_19h39.56.987,retriever_ti,2020.1.3,Win32,60,Chrome,1920,1080,230.42729,6,right,1.116805,glasses,1,230.444395,230.444395,232.94363,0,5,5,5,1,4,7,1,html/resources/stimuli_practice_decision/01_rabbit.jpg,html/resources/stimuli_practice_decision/05_glasses.jpg,rabbit,glasses,,,,,,,,,,,,,,,,,,,,,,,,,,,,,,,,,,,,,,,,,,,,,,,,,,,,,,,,,,,,,,,,,,,,,,,,,,,,,
,,,,,80,2020-07-04_19h39.56.987,retriever_ti,2020.1.3,Win32,60,Chrome,1920,1080,233.44575,7,left,0.684225,handmixer,0,233.478855,233.478855,235.976935,0,6,6,6,1,1,2,1,html/resources/stimuli_practice_decision/08_handmixer.jpg,html/resources/stimuli_practice_decision/04_beetle.jpg,handmixer,beetle,,,,,,,,,,,,,,,,,,,,,,,,,,,,,,,,,,,,,,,,,,,,,,,,,,,,,,,,,,,,,,,,,,,,,,,,,,,,,
,,,,,80,2020-07-04_19h39.56.987,retriever_ti,2020.1.3,Win32,60,Chrome,1920,1080,236.977275,8,left,0.70843,rabbit,1,236.99424,236.99424,239.49359,0,7,7,7,1,4,3,1,html/resources/stimuli_practice_decision/01_rabbit.jpg,html/resources/stimuli_practice_decision/07_sock.jpg,rabbit,sock,,,,,,,,,,,,,,,,,,,,,,,,,,,,,,,,,,,,,,,,,,,,,,,,,,,,,,,,,,,,,,,,,,,,,,,,,,,,,
,,,,,80,2020-07-04_19h39.56.987,retriever_ti,2020.1.3,Win32,60,Chrome,1920,1080,,,,,,,,,,,,,,,,,,,,,,up,1,2.061275,1,0,0,0,0,1,html/resources/sequences_IDs/circle.png,circle ↑,square →,triangle ↓,← star ,up,,,,,,,,,,,,,,,,,,,,,,,,,,,,,,,,,,,,,,,,,,,,,,,,,,,,,,,,,,,,,,
,,,,,80,2020-07-04_19h39.56.987,retriever_ti,2020.1.3,Win32,60,Chrome,1920,1080,,,,,,,,,,,,,,,,,,,,,,left,1,1.523275,1,0,1,1,2,1,html/resources/sequences_IDs/square1.png,star ↑,triangle →,circle ↓,← square,left,,,,,,,,,,,,,,,,,,,,,,,,,,,,,,,,,,,,,,,,,,,,,,,,,,,,,,,,,,,,,,
,,,,,80,2020-07-04_19h39.56.987,retriever_ti,2020.1.3,Win32,60,Chrome,1920,1080,,,,,,,,,,,,,,,,,,,,,,down,1,1.540975,1,0,2,2,3,1,html/resources/sequences_IDs/triangle.png,star ↑,square →,triangle ↓,← circle,down,,,,,,,,,,,,,,,,,,,,,,,,,,,,,,,,,,,,,,,,,,,,,,,,,,,,,,,,,,,,,,
,,,,,80,2020-07-04_19h39.56.987,retriever_ti,2020.1.3,Win32,60,Chrome,1920,1080,,,,,,,,,,,,,,,,,,,,,,down,1,1.688205,1,0,3,3,1,1,html/resources/sequences_IDs/star.png,square ↑,circle →,star ↓,← triangle,down,,,,,,,,,,,,,,,,,,,,,,,,,,,,,,,,,,,,,,,,,,,,,,,,,,,,,,,,,,,,,,
,,,,,80,2020-07-04_19h39.56.987,retriever_ti,2020.1.3,Win32,60,Chrome,1920,1080,,,,,,,,,,,,,,,,,,,,,,,,,,,,,,,,,,,,,0,10.328095,0,0,0,0,1,,,,,,,,,,,,,,,,,,,,,,,,,,,,,,,,,,,,,,,,,,,,,,,,,,,,,,,
,,,,,80,2020-07-04_19h39.56.987,retriever_ti,2020.1.3,Win32,60,Chrome,1920,1080,261.969905,9,right,1.145175,glasses,1,261.978125,261.978125,264.47799,0,0,0,0,1,6,7,1,html/resources/stimuli_practice_decision/06_pullover.jpg,html/resources/stimuli_practice_decision/05_glasses.jpg,pullover,glasses,,,,,,,,,,,,,,,,,,,,,,,,,,,,,,,,,,,,,,,,,,,,,,,,,,,,,,,,,,,,,,,,,,,,,,,,,,,,,
,,,,,80,2020-07-04_19h39.56.987,retriever_ti,2020.1.3,Win32,60,Chrome,1920,1080,265.477405,10,left,0.69191,pullover,1,265.49449,265.49449,267.993855,0,1,1,1,1,6,2,1,html/resources/stimuli_practice_decision/06_pullover.jpg,html/resources/stimuli_practice_decision/04_beetle.jpg,pullover,beetle,,,,,,,,,,,,,,,,,,,,,,,,,,,,,,,,,,,,,,,,,,,,,,,,,,,,,,,,,,,,,,,,,,,,,,,,,,,,,
,,,,,80,2020-07-04_19h39.56.987,retriever_ti,2020.1.3,Win32,60,Chrome,1920,1080,268.49481,11,right,0.677605,pullover,1,268.51124,268.51124,271.010715,0,2,2,2,1,5,6,1,html/resources/stimuli_practice_decision/02_canary.jpg,html/resources/stimuli_practice_decision/06_pullover.jpg,canary,pullover,,,,,,,,,,,,,,,,,,,,,,,,,,,,,,,,,,,,,,,,,,,,,,,,,,,,,,,,,,,,,,,,,,,,,,,,,,,,,
,,,,,80,2020-07-04_19h39.56.987,retriever_ti,2020.1.3,Win32,60,Chrome,1920,1080,272.0111,12,right,0.861725,glasses,0,272.02899,272.02899,274.52816,0,3,3,3,1,8,7,1,html/resources/stimuli_practice_decision/03_squirrel.jpg,html/resources/stimuli_practice_decision/05_glasses.jpg,squirrel,glasses,,,,,,,,,,,,,,,,,,,,,,,,,,,,,,,,,,,,,,,,,,,,,,,,,,,,,,,,,,,,,,,,,,,,,,,,,,,,,
,,,,,80,2020-07-04_19h39.56.987,retriever_ti,2020.1.3,Win32,60,Chrome,1920,1080,275.52827,13,left,1.06799,canary,1,275.54471,275.54471,278.044,0,4,4,4,1,5,3,1,html/resources/stimuli_practice_decision/02_canary.jpg,html/resources/stimuli_practice_decision/07_sock.jpg,canary,sock,,,,,,,,,,,,,,,,,,,,,,,,,,,,,,,,,,,,,,,,,,,,,,,,,,,,,,,,,,,,,,,,,,,,,,,,,,,,,
,,,,,80,2020-07-04_19h39.56.987,retriever_ti,2020.1.3,Win32,60,Chrome,1920,1080,278.56144,14,right,1.443615,squirrel,1,278.594775,278.594775,281.094065,0,5,5,5,1,7,8,1,html/resources/stimuli_practice_decision/05_glasses.jpg,html/resources/stimuli_practice_decision/03_squirrel.jpg,glasses,squirrel,,,,,,,,,,,,,,,,,,,,,,,,,,,,,,,,,,,,,,,,,,,,,,,,,,,,,,,,,,,,,,,,,,,,,,,,,,,,,
,,,,,80,2020-07-04_19h39.56.987,retriever_ti,2020.1.3,Win32,60,Chrome,1920,1080,282.09466,15,right,1.30862,rabbit,0,282.13137,282.13137,284.6299,0,6,6,6,1,5,4,1,html/resources/stimuli_practice_decision/02_canary.jpg,html/resources/stimuli_practice_decision/01_rabbit.jpg,canary,rabbit,,,,,,,,,,,,,,,,,,,,,,,,,,,,,,,,,,,,,,,,,,,,,,,,,,,,,,,,,,,,,,,,,,,,,,,,,,,,,
,,,,,80,2020-07-04_19h39.56.987,retriever_ti,2020.1.3,Win32,60,Chrome,1920,1080,285.62826,16,left,0.67544,canary,1,285.64523,285.64523,288.14475,0,7,7,7,1,5,3,1,html/resources/stimuli_practice_decision/02_canary.jpg,html/resources/stimuli_practice_decision/07_sock.jpg,canary,sock,,,,,,,,,,,,,,,,,,,,,,,,,,,,,,,,,,,,,,,,,,,,,,,,,,,,,,,,,,,,,,,,,,,,,,,,,,,,,
,,,,,80,2020-07-04_19h39.56.987,retriever_ti,2020.1.3,Win32,60,Chrome,1920,1080,,,,,,,,,,,,,,,,,,,,,,up,1,1.694325,1,0,0,0,0,1,html/resources/sequences_IDs/circle.png,circle ↑,square →,triangle ↓,← star ,up,,,,,,,,,,,,,,,,,,,,,,,,,,,,,,,,,,,,,,,,,,,,,,,,,,,,,,,,,,,,,,
,,,,,80,2020-07-04_19h39.56.987,retriever_ti,2020.1.3,Win32,60,Chrome,1920,1080,,,,,,,,,,,,,,,,,,,,,,left,1,1.95463,1,0,1,1,2,1,html/resources/sequences_IDs/square1.png,star ↑,triangle →,circle ↓,← square,left,,,,,,,,,,,,,,,,,,,,,,,,,,,,,,,,,,,,,,,,,,,,,,,,,,,,,,,,,,,,,,
,,,,,80,2020-07-04_19h39.56.987,retriever_ti,2020.1.3,Win32,60,Chrome,1920,1080,,,,,,,,,,,,,,,,,,,,,,down,1,1.101475,1,0,2,2,3,1,html/resources/sequences_IDs/triangle.png,star ↑,square →,triangle ↓,← circle,down,,,,,,,,,,,,,,,,,,,,,,,,,,,,,,,,,,,,,,,,,,,,,,,,,,,,,,,,,,,,,,
,,,,,80,2020-07-04_19h39.56.987,retriever_ti,2020.1.3,Win32,60,Chrome,1920,1080,,,,,,,,,,,,,,,,,,,,,,down,1,1.50767,1,0,3,3,1,1,html/resources/sequences_IDs/star.png,square ↑,circle →,star ↓,← triangle,down,,,,,,,,,,,,,,,,,,,,,,,,,,,,,,,,,,,,,,,,,,,,,,,,,,,,,,,,,,,,,,
,,,,,80,2020-07-04_19h39.56.987,retriever_ti,2020.1.3,Win32,60,Chrome,1920,1080,,,,,,,,,,,,,,,,,,,,,,,,,,,,,,,,,,,,,0,2.21941,1,0,1,0,1,,,,,,,,,,,,,,,,,,,,,,,,,,,,,,,,,,,,,,,,,,,,,,,,,,,,,,,
,,,,,80,2020-07-04_19h39.56.987,retriever_ti,2020.1.3,Win32,60,Chrome,1920,1080,,,,,,,,,,,,,,,,,1,,,,,,,,,,,,,,,,,,,,,,,,,,,306.84884,1,right,1.081025,dolphin     ,2,2,1,1,1,306.861945,306.861945,309.362385,0,0,0,0,1,1,1,2,wolf          ,dolphin     ,html/resources/sequences_IDs/A/01_wolf.jpg,html/resources/sequences_IDs/B/02_dolphin.jpg,1,2,1,1,1,1,1,2,0,80,,,,,,,,,,,,,,,,,,,,
,,,,,80,2020-07-04_19h39.56.987,retriever_ti,2020.1.3,Win32,60,Chrome,1920,1080,,,,,,,,,,,,,,,,,1,,,,,,,,,,,,,,,,,,,,,,,,,,,310.46213,2,left,1.65421,satellite_dish,7,10,5,1,3,310.478415,310.478415,312.977915,0,1,1,1,1,2,7,2,satellite_dish,dolphin     ,html/resources/sequences_IDs/A/10_satellite_dish.jpg,html/resources/sequences_IDs/B/02_dolphin.jpg,10,2,4,2,1,1,8,2,0,80,,,,,,,,,,,,,,,,,,,,
,,,,,80,2020-07-04_19h39.56.987,retriever_ti,2020.1.3,Win32,60,Chrome,1920,1080,,,,,,,,,,,,,,,,,1,,,,,,,,,,,,,,,,,,,,,,,,,,,313.594855,3,left,1.148215,wolf          ,1,1,-2,0,3,313.611835,313.611835,316.111195,0,2,2,2,1,3,1,3,wolf          ,scarf         ,html/resources/sequences_IDs/A/01_wolf.jpg,html/resources/sequences_IDs/A/06_scarf.jpg,1,6,1,1,3,2,1,5,0,80,,,,,,,,,,,,,,,,,,,,
,,,,,80,2020-07-04_19h39.56.987,retriever_ti,2020.1.3,Win32,60,Chrome,1920,1080,,,,,,,,,,,,,,,,,1,,,,,,,,,,,,,,,,,,,,,,,,,,,316.712445,4,left,1.34617,dolphin     ,2,2,1,1,1,316.74513,316.74513,319.244955,0,3,3,3,1,4,2,1,dolphin     ,wolf          ,html/resources/sequences_IDs/B/02_dolphin.jpg,html/resources/sequences_IDs/A/01_wolf.jpg,2,1,1,1,1,1,2,1,0,80,,,,,,,,,,,,,,,,,,,,
,,,,,80,2020-07-04_19h39.56.987,retriever_ti,2020.1.3,Win32,60,Chrome,1920,1080,,,,,,,,,,,,,,,,,1,,,,,,,,,,,,,,,,,,,,,,,,,,,320.345945,5,left,1.405765,wolf          ,1,1,-5,0,3,320.362625,320.362625,322.861425,0,4,4,4,1,5,1,6,wolf          ,holdfast    ,html/resources/sequences_IDs/A/01_wolf.jpg,html/resources/sequences_IDs/B/04_holdfast.jpg,1,4,1,1,2,1,1,3,0,80,,,,,,,,,,,,,,,,,,,,
,,,,,80,2020-07-04_19h39.56.987,retriever_ti,2020.1.3,Win32,60,Chrome,1920,1080,,,,,,,,,,,,,,,,,1,,,,,,,,,,,,,,,,,,,,,,,,,,,323.480245,6,left,1.742355,peacock       ,5,5,-2,0,3,323.512195,323.512195,326.01152,0,5,5,5,1,6,5,7,peacock       ,satellite_dish,html/resources/sequences_IDs/A/05_peacock.jpg,html/resources/sequences_IDs/A/10_satellite_dish.jpg,5,10,2,1,4,2,4,8,0,80,,,,,,,,,,,,,,,,,,,,
,,,,,80,2020-07-04_19h39.56.987,retriever_ti,2020.1.3,Win32,60,Chrome,1920,1080,,,,,,,,,,,,,,,,,1,,,,,,,,,,,,,,,,,,,,,,,,,,,326.629315,7,right,1.48797,satellite_dish,7,10,6,1,3,326.661995,326.661995,329.16149,0,6,6,6,1,7,1,7,wolf          ,satellite_dish,html/resources/sequences_IDs/A/01_wolf.jpg,html/resources/sequences_IDs/A/10_satellite_dish.jpg,1,10,1,1,4,2,1,8,0,80,,,,,,,,,,,,,,,,,,,,
,,,,,80,2020-07-04_19h39.56.987,retriever_ti,2020.1.3,Win32,60,Chrome,1920,1080,,,,,,,,,,,,,,,,,1,,,,,,,,,,,,,,,,,,,,,,,,,,,329.76197,8,left,0.974565,dolphin     ,2,2,1,1,1,329.796395,329.796395,332.295105,0,7,7,7,1,8,2,1,dolphin     ,wolf          ,html/resources/sequences_IDs/B/02_dolphin.jpg,html/resources/sequences_IDs/A/01_wolf.jpg,2,1,1,1,1,1,2,1,0,80,,,,,,,,,,,,,,,,,,,,
,,,,,80,2020-07-04_19h39.56.987,retriever_ti,2020.1.3,Win32,60,Chrome,1920,1080,,,,,,,,,,,,,,,,,1,,,,,,,,,,,,,,,,,,,,,,,,,,,333.396835,9,right,1.100405,satellite_dish,7,10,-1,0,0,333.428955,333.428955,335.935475,0,8,8,8,1,9,8,7,slipper     ,satellite_dish,html/resources/sequences_IDs/B/08_slipper.jpg,html/resources/sequences_IDs/A/10_satellite_dish.jpg,8,10,3,2,4,2,7,8,0,80,,,,,,,,,,,,,,,,,,,,
,,,,,80,2020-07-04_19h39.56.987,retriever_ti,2020.1.3,Win32,60,Chrome,1920,1080,,,,,,,,,,,,,,,,,1,,,,,,,,,,,,,,,,,,,,,,,,,,,337.029005,10,left,2.2378,holdfast    ,6,4,3,1,3,337.062635,337.062635,339.56161,0,9,9,9,1,10,6,3,holdfast    ,scarf         ,html/resources/sequences_IDs/B/04_holdfast.jpg,html/resources/sequences_IDs/A/06_scarf.jpg,4,6,2,1,3,2,3,5,0,80,,,,,,,,,,,,,,,,,,,,
,,,,,80,2020-07-04_19h39.56.987,retriever_ti,2020.1.3,Win32,60,Chrome,1920,1080,,,,,,,,,,,,,,,,,1,,,,,,,,,,,,,,,,,,,,,,,,,,,340.178485,11,right,0.892915,wolf          ,1,1,-3,0,3,340.19981,340.19981,342.697645,0,10,10,10,1,11,4,1,sport_tshirt,wolf          ,html/resources/sequences_IDs/B/07_sport_tshirt.jpg,html/resources/sequences_IDs/A/01_wolf.jpg,7,1,3,2,1,1,6,1,0,80,,,,,,,,,,,,,,,,,,,,
,,,,,80,2020-07-04_19h39.56.987,retriever_ti,2020.1.3,Win32,60,Chrome,1920,1080,,,,,,,,,,,,,,,,,1,,,,,,,,,,,,,,,,,,,,,,,,,,,343.314795,12,left,1.25394,peacock       ,5,5,-1,0,0,343.329375,343.329375,345.82857,0,11,11,11,1,12,5,6,peacock       ,holdfast    ,html/resources/sequences_IDs/A/05_peacock.jpg,html/resources/sequences_IDs/B/04_holdfast.jpg,5,4,2,1,2,1,4,3,0,80,,,,,,,,,,,,,,,,,,,,
,,,,,80,2020-07-04_19h39.56.987,retriever_ti,2020.1.3,Win32,60,Chrome,1920,1080,,,,,,,,,,,,,,,,,1,,,,,,,,,,,,,,,,,,,,,,,,,,,346.928865,13,left,0.7559,wolf          ,1,1,-3,0,3,346.96724,346.96724,349.46234,0,12,12,12,1,13,1,4,wolf          ,sport_tshirt,html/resources/sequences_IDs/A/01_wolf.jpg,html/resources/sequences_IDs/B/07_sport_tshirt.jpg,1,7,1,1,3,2,1,6,0,80,,,,,,,,,,,,,,,,,,,,
,,,,,80,2020-07-04_19h39.56.987,retriever_ti,2020.1.3,Win32,60,Chrome,1920,1080,,,,,,,,,,,,,,,,,1,,,,,,,,,,,,,,,,,,,,,,,,,,,350.080505,14,left,0.84781,peacock       ,5,5,-1,0,1,350.112445,350.112445,352.611795,0,13,13,13,1,14,5,6,peacock       ,holdfast    ,html/resources/sequences_IDs/A/05_peacock.jpg,html/resources/sequences_IDs/B/04_holdfast.jpg,5,4,2,1,2,1,4,3,1,80,,,,,,,,,,,,,,,,,,,,
,,,,,80,2020-07-04_19h39.56.987,retriever_ti,2020.1.3,Win32,60,Chrome,1920,1080,,,,,,,,,,,,,,,,,1,,,,,,,,,,,,,,,,,,,,,,,,,,,353.713365,15,left,1.17311,peacock       ,5,5,-3,0,3,353.74744,353.74744,356.246715,0,14,14,14,1,15,5,8,peacock       ,slipper     ,html/resources/sequences_IDs/A/05_peacock.jpg,html/resources/sequences_IDs/B/08_slipper.jpg,5,8,2,1,3,2,4,7,0,80,,,,,,,,,,,,,,,,,,,,
,,,,,80,2020-07-04_19h39.56.987,retriever_ti,2020.1.3,Win32,60,Chrome,1920,1080,,,,,,,,,,,,,,,,,1,,,,,,,,,,,,,,,,,,,,,,,,,,,356.86255,16,left,0.805195,dolphin     ,2,2,-6,0,3,356.87966,356.87966,359.37861,0,15,15,15,1,16,2,8,dolphin     ,slipper     ,html/resources/sequences_IDs/B/02_dolphin.jpg,html/resources/sequences_IDs/B/08_slipper.jpg,2,8,1,1,3,2,2,7,0,80,,,,,,,,,,,,,,,,,,,,
,,,,,80,2020-07-04_19h39.56.987,retriever_ti,2020.1.3,Win32,60,Chrome,1920,1080,,,,,,,,,,,,,,,,,1,,,,,,,,,,,,,,,,,,,,,,,,,,,359.995575,17,left,1.675445,holdfast    ,6,4,-1,0,0,360.012535,360.012535,362.511935,0,16,16,16,1,17,6,7,holdfast    ,satellite_dish,html/resources/sequences_IDs/B/04_holdfast.jpg,html/resources/sequences_IDs/A/10_satellite_dish.jpg,4,10,2,1,4,2,3,8,0,80,,,,,,,,,,,,,,,,,,,,
,,,,,80,2020-07-04_19h39.56.987,retriever_ti,2020.1.3,Win32,60,Chrome,1920,1080,,,,,,,,,,,,,,,,,1,,,,,,,,,,,,,,,,,,,,,,,,,,,363.612535,18,right,0.791325,wolf          ,1,1,-7,0,3,363.629385,363.629385,366.128715,0,17,17,17,1,18,8,1,slipper     ,wolf          ,html/resources/sequences_IDs/B/08_slipper.jpg,html/resources/sequences_IDs/A/01_wolf.jpg,8,1,3,2,1,1,7,1,0,80,,,,,,,,,,,,,,,,,,,,
,,,,,80,2020-07-04_19h39.56.987,retriever_ti,2020.1.3,Win32,60,Chrome,1920,1080,,,,,,,,,,,,,,,,,1,,,,,,,,,,,,,,,,,,,,,,,,,,,366.746015,19,right,0.59676,wolf          ,1,1,-2,0,3,366.779675,366.779675,369.278795,0,18,18,18,1,19,3,1,scarf         ,wolf          ,html/resources/sequences_IDs/A/06_scarf.jpg,html/resources/sequences_IDs/A/01_wolf.jpg,6,1,3,2,1,1,5,1,0,80,,,,,,,,,,,,,,,,,,,,
,,,,,80,2020-07-04_19h39.56.987,retriever_ti,2020.1.3,Win32,60,Chrome,1920,1080,,,,,,,,,,,,,,,,,1,,,,,,,,,,,,,,,,,,,,,,,,,,,369.884465,20,right,1.3651,peacock       ,5,5,4,1,3,369.89596,369.89596,372.395415,0,19,19,19,1,20,1,5,wolf          ,peacock       ,html/resources/sequences_IDs/A/01_wolf.jpg,html/resources/sequences_IDs/A/05_peacock.jpg,1,5,1,1,2,1,1,4,0,80,,,,,,,,,,,,,,,,,,,,
,,,,,80,2020-07-04_19h39.56.987,retriever_ti,2020.1.3,Win32,60,Chrome,1920,1080,,,,,,,,,,,,,,,,,1,,,,,,,,,,,,,,,,,,,,,,,,,,,373.012825,21,left,1.69258,peacock       ,5,5,-1,0,0,373.02931,373.02931,375.528795,0,20,20,20,1,21,5,6,peacock       ,holdfast    ,html/resources/sequences_IDs/A/05_peacock.jpg,html/resources/sequences_IDs/B/04_holdfast.jpg,5,4,2,1,2,1,4,3,0,80,,,,,,,,,,,,,,,,,,,,
,,,,,80,2020-07-04_19h39.56.987,retriever_ti,2020.1.3,Win32,60,Chrome,1920,1080,,,,,,,,,,,,,,,,,1,,,,,,,,,,,,,,,,,,,,,,,,,,,376.629415,22,right,0.93146,dolphin     ,2,2,-2,0,3,376.662795,376.662795,379.162235,0,21,21,21,1,22,4,2,sport_tshirt,dolphin     ,html/resources/sequences_IDs/B/07_sport_tshirt.jpg,html/resources/sequences_IDs/B/02_dolphin.jpg,7,2,3,2,1,1,6,2,0,80,,,,,,,,,,,,,,,,,,,,
,,,,,80,2020-07-04_19h39.56.987,retriever_ti,2020.1.3,Win32,60,Chrome,1920,1080,,,,,,,,,,,,,,,,,1,,,,,,,,,,,,,,,,,,,,,,,,,,,379.77923,23,left,1.457775,satellite_dish,7,10,6,1,3,379.8129,379.8129,382.312365,0,22,22,22,1,23,7,1,satellite_dish,wolf          ,html/resources/sequences_IDs/A/10_satellite_dish.jpg,html/resources/sequences_IDs/A/01_wolf.jpg,10,1,4,2,1,1,8,1,0,80,,,,,,,,,,,,,,,,,,,,
,,,,,80,2020-07-04_19h39.56.987,retriever_ti,2020.1.3,Win32,60,Chrome,1920,1080,,,,,,,,,,,,,,,,,1,,,,,,,,,,,,,,,,,,,,,,,,,,,382.92939,24,right,0.66239,holdfast    ,6,4,3,1,3,382.96283,382.96283,385.462285,0,23,23,23,1,24,3,6,scarf         ,holdfast    ,html/resources/sequences_IDs/A/06_scarf.jpg,html/resources/sequences_IDs/B/04_holdfast.jpg,6,4,3,2,2,1,5,3,0,80,,,,,,,,,,,,,,,,,,,,
,,,,,80,2020-07-04_19h39.56.987,retriever_ti,2020.1.3,Win32,60,Chrome,1920,1080,,,,,,,,,,,,,,,,,1,,,,,,,,,,,,,,,,,,,,,,,,,,,386.079345,25,left,1.420975,satellite_dish,7,10,2,1,3,386.096215,386.096215,388.59565,0,24,24,24,1,25,7,5,satellite_dish,peacock       ,html/resources/sequences_IDs/A/10_satellite_dish.jpg,html/resources/sequences_IDs/A/05_peacock.jpg,10,5,4,2,2,1,8,4,0,80,,,,,,,,,,,,,,,,,,,,
,,,,,80,2020-07-04_19h39.56.987,retriever_ti,2020.1.3,Win32,60,Chrome,1920,1080,,,,,,,,,,,,,,,,,1,,,,,,,,,,,,,,,,,,,,,,,,,,,389.19634,26,NaN,NaN,No_response,NaN,NaN,NaN,2,2,389.22954,389.22954,391.7291,0,25,25,25,1,26,6,5,holdfast    ,peacock       ,html/resources/sequences_IDs/B/04_holdfast.jpg,html/resources/sequences_IDs/A/05_peacock.jpg,4,5,2,1,2,1,3,4,0,80,,,,,,,,,,,,,,,,,,,,
,,,,,80,2020-07-04_19h39.56.987,retriever_ti,2020.1.3,Win32,60,Chrome,1920,1080,,,,,,,,,,,,,,,,,1,,,,,,,,,,,,,,,,,,,,,,,,,,,392.82992,27,right,1.063405,peacock       ,5,5,-3,0,3,392.86302,392.86302,395.36238,0,26,26,26,1,27,8,5,slipper     ,peacock       ,html/resources/sequences_IDs/B/08_slipper.jpg,html/resources/sequences_IDs/A/05_peacock.jpg,8,5,3,2,2,1,7,4,0,80,,,,,,,,,,,,,,,,,,,,
,,,,,80,2020-07-04_19h39.56.987,retriever_ti,2020.1.3,Win32,60,Chrome,1920,1080,,,,,,,,,,,,,,,,,1,,,,,,,,,,,,,,,,,,,,,,,,,,,395.96277,28,left,0.49451,wolf          ,1,1,-7,0,3,395.97996,395.97996,398.479145,0,27,27,27,1,28,1,8,wolf          ,slipper     ,html/resources/sequences_IDs/A/01_wolf.jpg,html/resources/sequences_IDs/B/08_slipper.jpg,1,8,1,1,3,2,1,7,0,80,,,,,,,,,,,,,,,,,,,,
,,,,,80,2020-07-04_19h39.56.987,retriever_ti,2020.1.3,Win32,60,Chrome,1920,1080,,,,,,,,,,,,,,,,,1,,,,,,,,,,,,,,,,,,,,,,,,,,,399.09647,29,left,0.732095,satellite_dish,7,10,-1,0,0,399.113155,399.113155,401.612585,0,28,28,28,1,29,7,8,satellite_dish,slipper     ,html/resources/sequences_IDs/A/10_satellite_dish.jpg,html/resources/sequences_IDs/B/08_slipper.jpg,10,8,4,2,3,2,8,7,0,80,,,,,,,,,,,,,,,,,,,,
,,,,,80,2020-07-04_19h39.56.987,retriever_ti,2020.1.3,Win32,60,Chrome,1920,1080,,,,,,,,,,,,,,,,,1,,,,,,,,,,,,,,,,,,,,,,,,,,,402.71318,30,right,0.584445,dolphin     ,2,2,-1,0,0,402.74658,402.74658,405.24599,0,29,29,29,1,30,3,2,scarf         ,dolphin     ,html/resources/sequences_IDs/A/06_scarf.jpg,html/resources/sequences_IDs/B/02_dolphin.jpg,6,2,3,2,1,1,5,2,0,80,,,,,,,,,,,,,,,,,,,,
,,,,,80,2020-07-04_19h39.56.987,retriever_ti,2020.1.3,Win32,60,Chrome,1920,1080,,,,,,,,,,,,,,,,,1,,,,,,,,,,,,,,,,,,,,,,,,,,,406.346275,31,left,0.57022,satellite_dish,7,10,-1,0,0,406.363325,406.363325,408.862725,0,30,30,30,1,31,7,8,satellite_dish,slipper     ,html/resources/sequences_IDs/A/10_satellite_dish.jpg,html/resources/sequences_IDs/B/08_slipper.jpg,10,8,4,2,3,2,8,7,0,80,,,,,,,,,,,,,,,,,,,,
,,,,,80,2020-07-04_19h39.56.987,retriever_ti,2020.1.3,Win32,60,Chrome,1920,1080,,,,,,,,,,,,,,,,,1,,,,,,,,,,,,,,,,,,,,,,,,,,,409.963235,32,right,1.088375,wolf          ,1,1,-5,0,3,409.9969,409.9969,412.49619,0,31,31,31,1,32,6,1,holdfast    ,wolf          ,html/resources/sequences_IDs/B/04_holdfast.jpg,html/resources/sequences_IDs/A/01_wolf.jpg,4,1,2,1,1,1,3,1,0,80,,,,,,,,,,,,,,,,,,,,
,,,,,80,2020-07-04_19h39.56.987,retriever_ti,2020.1.3,Win32,60,Chrome,1920,1080,,,,,,,,,,,,,,,,,1,,,,,,,,,,,,,,,,,,,,,,,,,,,413.11324,33,left,0.84367,slipper     ,8,8,2,1,3,413.129965,413.129965,415.629495,0,32,32,32,1,33,8,6,slipper     ,holdfast    ,html/resources/sequences_IDs/B/08_slipper.jpg,html/resources/sequences_IDs/B/04_holdfast.jpg,8,4,3,2,2,1,7,3,0,80,,,,,,,,,,,,,,,,,,,,
,,,,,80,2020-07-04_19h39.56.987,retriever_ti,2020.1.3,Win32,60,Chrome,1920,1080,,,,,,,,,,,,,,,,,1,,,,,,,,,,,,,,,,,,,,,,,,,,,416.24634,34,left,0.68015,satellite_dish,7,10,4,1,3,416.263415,416.263415,418.76281,0,33,33,33,1,34,7,3,satellite_dish,scarf         ,html/resources/sequences_IDs/A/10_satellite_dish.jpg,html/resources/sequences_IDs/A/06_scarf.jpg,10,6,4,2,3,2,8,5,0,80,,,,,,,,,,,,,,,,,,,,
,,,,,80,2020-07-04_19h39.56.987,retriever_ti,2020.1.3,Win32,60,Chrome,1920,1080,,,,,,,,,,,,,,,,,1,,,,,,,,,,,,,,,,,,,,,,,,,,,419.380515,35,right,1.000425,sport_tshirt,4,7,1,1,1,419.397155,419.397155,421.89619,0,34,34,34,1,35,3,4,scarf         ,sport_tshirt,html/resources/sequences_IDs/A/06_scarf.jpg,html/resources/sequences_IDs/B/07_sport_tshirt.jpg,6,7,3,2,3,2,5,6,0,80,,,,,,,,,,,,,,,,,,,,
,,,,,80,2020-07-04_19h39.56.987,retriever_ti,2020.1.3,Win32,60,Chrome,1920,1080,,,,,,,,,,,,,,,,,1,,,,,,,,,,,,,,,,,,,,,,,,,,,422.9967,36,right,1.626305,satellite_dish,7,10,3,1,3,423.030205,423.030205,425.529585,0,35,35,35,1,36,4,7,sport_tshirt,satellite_dish,html/resources/sequences_IDs/B/07_sport_tshirt.jpg,html/resources/sequences_IDs/A/10_satellite_dish.jpg,7,10,3,2,4,2,6,8,0,80,,,,,,,,,,,,,,,,,,,,
,,,,,80,2020-07-04_19h39.56.987,retriever_ti,2020.1.3,Win32,60,Chrome,1920,1080,,,,,,,,,,,,,,,,,1,,,,,,,,,,,,,,,,,,,,,,,,,,,426.12988,37,left,1.21914,peacock       ,5,5,2,1,3,426.147055,426.147055,428.64641,0,36,36,36,1,37,5,3,peacock       ,scarf         ,html/resources/sequences_IDs/A/05_peacock.jpg,html/resources/sequences_IDs/A/06_scarf.jpg,5,6,2,1,3,2,4,5,0,80,,,,,,,,,,,,,,,,,,,,
,,,,,80,2020-07-04_19h39.56.987,retriever_ti,2020.1.3,Win32,60,Chrome,1920,1080,,,,,,,,,,,,,,,,,1,,,,,,,,,,,,,,,,,,,,,,,,,,,429.263435,38,left,0.993595,slipper     ,8,8,1,1,1,429.2802,429.2802,431.7797,0,37,37,37,1,38,8,7,slipper     ,satellite_dish,html/resources/sequences_IDs/B/08_slipper.jpg,html/resources/sequences_IDs/A/10_satellite_dish.jpg,8,10,3,2,4,2,7,8,0,80,,,,,,,,,,,,,,,,,,,,
,,,,,80,2020-07-04_19h39.56.987,retriever_ti,2020.1.3,Win32,60,Chrome,1920,1080,,,,,,,,,,,,,,,,,1,,,,,,,,,,,,,,,,,,,,,,,,,,,432.880285,39,left,0.98466,sport_tshirt,4,7,1,1,1,432.91386,432.91386,435.413035,0,38,38,38,1,39,4,3,sport_tshirt,scarf         ,html/resources/sequences_IDs/B/07_sport_tshirt.jpg,html/resources/sequences_IDs/A/06_scarf.jpg,7,6,3,2,3,2,6,5,0,80,,,,,,,,,,,,,,,,,,,,
,,,,,80,2020-07-04_19h39.56.987,retriever_ti,2020.1.3,Win32,60,Chrome,1920,1080,,,,,,,,,,,,,,,,,1,,,,,,,,,,,,,,,,,,,,,,,,,,,436.513605,40,left,0.67444,sport_tshirt,4,7,1,1,0,436.53025,436.53025,439.02982,0,39,39,39,1,40,4,3,sport_tshirt,scarf         ,html/resources/sequences_IDs/B/07_sport_tshirt.jpg,html/resources/sequences_IDs/A/06_scarf.jpg,7,6,3,2,3,2,6,5,1,80,,,,,,,,,,,,,,,,,,,,
,,,,,80,2020-07-04_19h39.56.987,retriever_ti,2020.1.3,Win32,60,Chrome,1920,1080,,,,,,,,,,,,,,,,,1,,,,,,,,,,,,,,,,,,,,,,,,,,,440.12992,41,right,0.9496,peacock       ,5,5,2,1,3,440.163715,440.163715,442.66331,0,40,40,40,1,41,3,5,scarf         ,peacock       ,html/resources/sequences_IDs/A/06_scarf.jpg,html/resources/sequences_IDs/A/05_peacock.jpg,6,5,3,2,2,1,5,4,0,80,,,,,,,,,,,,,,,,,,,,
,,,,,80,2020-07-04_19h39.56.987,retriever_ti,2020.1.3,Win32,60,Chrome,1920,1080,,,,,,,,,,,,,,,,,1,,,,,,,,,,,,,,,,,,,,,,,,,,,443.280465,42,left,1.09492,satellite_dish,7,10,1,1,1,443.313895,443.313895,445.81328,0,41,41,41,1,42,7,6,satellite_dish,holdfast    ,html/resources/sequences_IDs/A/10_satellite_dish.jpg,html/resources/sequences_IDs/B/04_holdfast.jpg,10,4,4,2,2,1,8,3,0,80,,,,,,,,,,,,,,,,,,,,
,,,,,80,2020-07-04_19h39.56.987,retriever_ti,2020.1.3,Win32,60,Chrome,1920,1080,,,,,,,,,,,,,,,,,1,,,,,,,,,,,,,,,,,,,,,,,,,,,446.913755,43,right,0.711055,dolphin     ,2,2,-1,0,1,446.94723,446.94723,449.44676,0,42,42,42,1,43,3,2,scarf         ,dolphin     ,html/resources/sequences_IDs/A/06_scarf.jpg,html/resources/sequences_IDs/B/02_dolphin.jpg,6,2,3,2,1,1,5,2,1,80,,,,,,,,,,,,,,,,,,,,
,,,,,80,2020-07-04_19h39.56.987,retriever_ti,2020.1.3,Win32,60,Chrome,1920,1080,,,,,,,,,,,,,,,,,1,,,,,,,,,,,,,,,,,,,,,,,,,,,450.547245,44,left,0.54222,dolphin     ,2,2,-2,0,3,450.580535,450.580535,453.080065,0,43,43,43,1,44,2,4,dolphin     ,sport_tshirt,html/resources/sequences_IDs/B/02_dolphin.jpg,html/resources/sequences_IDs/B/07_sport_tshirt.jpg,2,7,1,1,3,2,2,6,0,80,,,,,,,,,,,,,,,,,,,,
,,,,,80,2020-07-04_19h39.56.987,retriever_ti,2020.1.3,Win32,60,Chrome,1920,1080,,,,,,,,,,,,,,,,,1,,,,,,,,,,,,,,,,,,,,,,,,,,,453.696985,45,right,0.68118,dolphin     ,2,2,-3,0,3,453.71406,453.71406,456.213545,0,44,44,44,1,45,5,2,peacock       ,dolphin     ,html/resources/sequences_IDs/A/05_peacock.jpg,html/resources/sequences_IDs/B/02_dolphin.jpg,5,2,2,1,1,1,4,2,0,80,,,,,,,,,,,,,,,,,,,,
,,,,,80,2020-07-04_19h39.56.987,retriever_ti,2020.1.3,Win32,60,Chrome,1920,1080,,,,,,,,,,,,,,,,,1,,,,,,,,,,,,,,,,,,,,,,,,,,,456.830545,46,right,1.11567,peacock       ,5,5,1,1,0,456.864135,456.864135,459.363345,0,45,45,45,1,46,4,5,sport_tshirt,peacock       ,html/resources/sequences_IDs/B/07_sport_tshirt.jpg,html/resources/sequences_IDs/A/05_peacock.jpg,7,5,3,2,2,1,6,4,1,80,,,,,,,,,,,,,,,,,,,,
,,,,,80,2020-07-04_19h39.56.987,retriever_ti,2020.1.3,Win32,60,Chrome,1920,1080,,,,,,,,,,,,,,,,,1,,,,,,,,,,,,,,,,,,,,,,,,,,,460.463895,47,right,1.325225,dolphin     ,2,2,-4,0,3,460.497715,460.497715,462.99686,0,46,46,46,1,47,6,2,holdfast    ,dolphin     ,html/resources/sequences_IDs/B/04_holdfast.jpg,html/resources/sequences_IDs/B/02_dolphin.jpg,4,2,2,1,1,1,3,2,0,80,,,,,,,,,,,,,,,,,,,,
,,,,,80,2020-07-04_19h39.56.987,retriever_ti,2020.1.3,Win32,60,Chrome,1920,1080,,,,,,,,,,,,,,,,,1,,,,,,,,,,,,,,,,,,,,,,,,,,,463.61381,48,right,0.65877,slipper     ,8,8,1,1,0,463.647635,463.647635,466.14692,0,47,47,47,1,48,7,8,satellite_dish,slipper     ,html/resources/sequences_IDs/A/10_satellite_dish.jpg,html/resources/sequences_IDs/B/08_slipper.jpg,10,8,4,2,3,2,8,7,1,80,,,,,,,,,,,,,,,,,,,,
,,,,,80,2020-07-04_19h39.56.987,retriever_ti,2020.1.3,Win32,60,Chrome,1920,1080,,,,,,,,,,,,,,,,,1,,,,,,,,,,,,,,,,,,,,,,,,,,,467.24757,49,left,1.09248,satellite_dish,7,10,1,1,1,467.26405,467.26405,469.763565,0,48,48,48,1,49,7,6,satellite_dish,holdfast    ,html/resources/sequences_IDs/A/10_satellite_dish.jpg,html/resources/sequences_IDs/B/04_holdfast.jpg,10,4,4,2,2,1,8,3,0,80,,,,,,,,,,,,,,,,,,,,
,,,,,80,2020-07-04_19h39.56.987,retriever_ti,2020.1.3,Win32,60,Chrome,1920,1080,,,,,,,,,,,,,,,,,1,,,,,,,,,,,,,,,,,,,,,,,,,,,470.86413,50,right,0.65967,satellite_dish,7,10,4,1,3,470.89754,470.89754,473.397115,0,49,49,49,1,50,3,7,scarf         ,satellite_dish,html/resources/sequences_IDs/A/06_scarf.jpg,html/resources/sequences_IDs/A/10_satellite_dish.jpg,6,10,3,2,4,2,5,8,0,80,,,,,,,,,,,,,,,,,,,,
,,,,,80,2020-07-04_19h39.56.987,retriever_ti,2020.1.3,Win32,60,Chrome,1920,1080,,,,,,,,,,,,,,,,,1,,,,,,,,,,,,,,,,,,,,,,,,,,,474.013775,51,left,0.691445,slipper     ,8,8,6,1,3,474.04772,474.04772,476.547055,0,50,50,50,1,51,8,2,slipper     ,dolphin     ,html/resources/sequences_IDs/B/08_slipper.jpg,html/resources/sequences_IDs/B/02_dolphin.jpg,8,2,3,2,1,1,7,2,0,80,,,,,,,,,,,,,,,,,,,,
,,,,,80,2020-07-04_19h39.56.987,retriever_ti,2020.1.3,Win32,60,Chrome,1920,1080,,,,,,,,,,,,,,,,,1,,,,,,,,,,,,,,,,,,,,,,,,,,,477.164305,52,left,0.681495,slipper     ,8,8,4,1,3,477.18103,477.18103,479.680395,0,51,51,51,1,52,8,4,slipper     ,sport_tshirt,html/resources/sequences_IDs/B/08_slipper.jpg,html/resources/sequences_IDs/B/07_sport_tshirt.jpg,8,7,3,2,3,2,7,6,0,80,,,,,,,,,,,,,,,,,,,,
,,,,,80,2020-07-04_19h39.56.987,retriever_ti,2020.1.3,Win32,60,Chrome,1920,1080,,,,,,,,,,,,,,,,,1,,,,,,,,,,,,,,,,,,,,,,,,,,,480.280735,53,left,0.97725,sport_tshirt,4,7,1,1,1,480.29762,480.29762,482.797045,0,52,52,52,1,53,4,3,sport_tshirt,scarf         ,html/resources/sequences_IDs/B/07_sport_tshirt.jpg,html/resources/sequences_IDs/A/06_scarf.jpg,7,6,3,2,3,2,6,5,0,80,,,,,,,,,,,,,,,,,,,,
,,,,,80,2020-07-04_19h39.56.987,retriever_ti,2020.1.3,Win32,60,Chrome,1920,1080,,,,,,,,,,,,,,,,,1,,,,,,,,,,,,,,,,,,,,,,,,,,,483.897815,54,left,0.712535,satellite_dish,7,10,1,1,0,483.91469,483.91469,486.413915,0,53,53,53,1,54,7,6,satellite_dish,holdfast    ,html/resources/sequences_IDs/A/10_satellite_dish.jpg,html/resources/sequences_IDs/B/04_holdfast.jpg,10,4,4,2,2,1,8,3,1,80,,,,,,,,,,,,,,,,,,,,
,,,,,80,2020-07-04_19h39.56.987,retriever_ti,2020.1.3,Win32,60,Chrome,1920,1080,,,,,,,,,,,,,,,,,1,,,,,,,,,,,,,,,,,,,,,,,,,,,487.5144,55,left,0.63241,dolphin     ,2,2,-3,0,3,487.54774,487.54774,490.04727,0,54,54,54,1,55,2,5,dolphin     ,peacock       ,html/resources/sequences_IDs/B/02_dolphin.jpg,html/resources/sequences_IDs/A/05_peacock.jpg,2,5,1,1,2,1,2,4,0,80,,,,,,,,,,,,,,,,,,,,
,,,,,80,2020-07-04_19h39.56.987,retriever_ti,2020.1.3,Win32,60,Chrome,1920,1080,,,,,,,,,,,,,,,,,1,,,,,,,,,,,,,,,,,,,,,,,,,,,490.66432,56,right,1.47115,slipper     ,8,8,2,1,3,490.681235,490.681235,493.180535,0,55,55,55,1,56,6,8,holdfast    ,slipper     ,html/resources/sequences_IDs/B/04_holdfast.jpg,html/resources/sequences_IDs/B/08_slipper.jpg,4,8,2,1,3,2,3,7,0,80,,,,,,,,,,,,,,,,,,,,
,,,,,80,2020-07-04_19h39.56.987,retriever_ti,2020.1.3,Win32,60,Chrome,1920,1080,,,,,,,,,,,,,,,,,1,,,,,,,,,,,,,,,,,,,,,,,,,,,493.78093,57,right,1.14903,sport_tshirt,4,7,1,1,1,493.814565,493.814565,496.313955,0,56,56,56,1,57,3,4,scarf         ,sport_tshirt,html/resources/sequences_IDs/A/06_scarf.jpg,html/resources/sequences_IDs/B/07_sport_tshirt.jpg,6,7,3,2,3,2,5,6,0,80,,,,,,,,,,,,,,,,,,,,
,,,,,80,2020-07-04_19h39.56.987,retriever_ti,2020.1.3,Win32,60,Chrome,1920,1080,,,,,,,,,,,,,,,,,1,,,,,,,,,,,,,,,,,,,,,,,,,,,497.41466,58,left,0.59729,dolphin     ,2,2,-4,0,3,497.44789,497.44789,499.947375,0,57,57,57,1,58,2,6,dolphin     ,holdfast    ,html/resources/sequences_IDs/B/02_dolphin.jpg,html/resources/sequences_IDs/B/04_holdfast.jpg,2,4,1,1,2,1,2,3,0,80,,,,,,,,,,,,,,,,,,,,
,,,,,80,2020-07-04_19h39.56.987,retriever_ti,2020.1.3,Win32,60,Chrome,1920,1080,,,,,,,,,,,,,,,,,1,,,,,,,,,,,,,,,,,,,,,,,,,,,500.56457,59,right,0.693435,dolphin     ,2,2,1,1,1,500.581475,500.581475,503.08072,0,58,58,58,1,59,1,2,wolf          ,dolphin     ,html/resources/sequences_IDs/A/01_wolf.jpg,html/resources/sequences_IDs/B/02_dolphin.jpg,1,2,1,1,1,1,1,2,0,80,,,,,,,,,,,,,,,,,,,,
,,,,,80,2020-07-04_19h39.56.987,retriever_ti,2020.1.3,Win32,60,Chrome,1920,1080,,,,,,,,,,,,,,,,,1,,,,,,,,,,,,,,,,,,,,,,,,,,,504.18105,60,left,1.24791,peacock       ,5,5,4,1,3,504.214855,504.214855,506.714195,0,59,59,59,1,60,5,1,peacock       ,wolf          ,html/resources/sequences_IDs/A/05_peacock.jpg,html/resources/sequences_IDs/A/01_wolf.jpg,5,1,2,1,1,1,4,1,0,80,,,,,,,,,,,,,,,,,,,,
,,,,,80,2020-07-04_19h39.56.987,retriever_ti,2020.1.3,Win32,60,Chrome,1920,1080,,,,,,,,,,,,,,,,,1,,,,,,,,,,,,,,,,,,,,,,,,,,,507.331435,61,left,1.190275,peacock       ,5,5,1,1,1,507.34803,507.34803,509.84743,0,60,60,60,1,61,5,4,peacock       ,sport_tshirt,html/resources/sequences_IDs/A/05_peacock.jpg,html/resources/sequences_IDs/B/07_sport_tshirt.jpg,5,7,2,1,3,2,4,6,0,80,,,,,,,,,,,,,,,,,,,,
,,,,,80,2020-07-04_19h39.56.987,retriever_ti,2020.1.3,Win32,60,Chrome,1920,1080,,,,,,,,,,,,,,,,,1,,,,,,,,,,,,,,,,,,,,,,,,,,,510.94811,62,right,0.824465,slipper     ,8,8,5,1,3,510.98144,510.98144,513.480925,0,61,61,61,1,62,3,8,scarf         ,slipper     ,html/resources/sequences_IDs/A/06_scarf.jpg,html/resources/sequences_IDs/B/08_slipper.jpg,6,8,3,2,3,2,5,7,0,80,,,,,,,,,,,,,,,,,,,,
,,,,,80,2020-07-04_19h39.56.987,retriever_ti,2020.1.3,Win32,60,Chrome,1920,1080,,,,,,,,,,,,,,,,,1,,,,,,,,,,,,,,,,,,,,,,,,,,,514.097805,63,left,0.61121,dolphin     ,2,2,-1,0,0,514.131405,514.131405,516.631075,0,62,62,62,1,63,2,3,dolphin     ,scarf         ,html/resources/sequences_IDs/B/02_dolphin.jpg,html/resources/sequences_IDs/A/06_scarf.jpg,2,6,1,1,3,2,2,5,0,80,,,,,,,,,,,,,,,,,,,,
,,,,,80,2020-07-04_19h39.56.987,retriever_ti,2020.1.3,Win32,60,Chrome,1920,1080,,,,,,,,,,,,,,,,,1,,,,,,,,,,,,,,,,,,,,,,,,,,,517.73152,64,left,1.8771,peacock       ,5,5,1,1,1,517.764805,517.764805,520.264335,0,63,63,63,1,64,5,4,peacock       ,sport_tshirt,html/resources/sequences_IDs/A/05_peacock.jpg,html/resources/sequences_IDs/B/07_sport_tshirt.jpg,5,7,2,1,3,2,4,6,0,80,,,,,,,,,,,,,,,,,,,,
,,,,,80,2020-07-04_19h39.56.987,retriever_ti,2020.1.3,Win32,60,Chrome,1920,1080,,,,,,,,,,,,,,,,,1,,,,,,,,,,,,,,,,,,,,,,,,,,,521.364955,65,right,1.01964,sport_tshirt,4,7,-2,0,3,521.3817,521.3817,523.881085,0,64,64,64,1,65,6,4,holdfast    ,sport_tshirt,html/resources/sequences_IDs/B/04_holdfast.jpg,html/resources/sequences_IDs/B/07_sport_tshirt.jpg,4,7,2,1,3,2,3,6,0,80,,,,,,,,,,,,,,,,,,,,
,,,,,80,2020-07-04_19h39.56.987,retriever_ti,2020.1.3,Win32,60,Chrome,1920,1080,,,,,,,,,,,,,,,,,1,,,,,,,,,,,,,,,,,,,,,,,,,,,524.498145,66,right,1.397845,peacock       ,5,5,1,1,1,524.53182,524.53182,527.031015,0,65,65,65,1,66,4,5,sport_tshirt,peacock       ,html/resources/sequences_IDs/B/07_sport_tshirt.jpg,html/resources/sequences_IDs/A/05_peacock.jpg,7,5,3,2,2,1,6,4,0,80,,,,,,,,,,,,,,,,,,,,
,,,,,80,2020-07-04_19h39.56.987,retriever_ti,2020.1.3,Win32,60,Chrome,1920,1080,,,,,,,,,,,,,,,,,1,,,,,,,,,,,,,,,,,,,,,,,,,,,528.13127,67,right,1.32603,slipper     ,8,8,4,1,3,528.14842,528.14842,530.647835,0,66,66,66,1,67,4,8,sport_tshirt,slipper     ,html/resources/sequences_IDs/B/07_sport_tshirt.jpg,html/resources/sequences_IDs/B/08_slipper.jpg,7,8,3,2,3,2,6,7,0,80,,,,,,,,,,,,,,,,,,,,
,,,,,80,2020-07-04_19h39.56.987,retriever_ti,2020.1.3,Win32,60,Chrome,1920,1080,,,,,,,,,,,,,,,,,1,,,,,,,,,,,,,,,,,,,,,,,,,,,531.26503,68,right,1.31412,peacock       ,5,5,1,1,1,531.28167,531.28167,533.78125,0,67,67,67,1,68,4,5,sport_tshirt,peacock       ,html/resources/sequences_IDs/B/07_sport_tshirt.jpg,html/resources/sequences_IDs/A/05_peacock.jpg,7,5,3,2,2,1,6,4,0,80,,,,,,,,,,,,,,,,,,,,
,,,,,80,2020-07-04_19h39.56.987,retriever_ti,2020.1.3,Win32,60,Chrome,1920,1080,,,,,,,,,,,,,,,,,1,,,,,,,,,,,,,,,,,,,,,,,,,,,534.881785,69,right,0.817935,dolphin     ,2,2,-1,0,0,534.89863,534.89863,537.397865,0,68,68,68,1,69,3,2,scarf         ,dolphin     ,html/resources/sequences_IDs/A/06_scarf.jpg,html/resources/sequences_IDs/B/02_dolphin.jpg,6,2,3,2,1,1,5,2,0,80,,,,,,,,,,,,,,,,,,,,
,,,,,80,2020-07-04_19h39.56.987,retriever_ti,2020.1.3,Win32,60,Chrome,1920,1080,,,,,,,,,,,,,,,,,1,,,,,,,,,,,,,,,,,,,,,,,,,,,538.498095,70,left,1.853895,satellite_dish,7,10,3,1,3,538.515185,538.515185,541.014655,0,69,69,69,1,70,7,4,satellite_dish,sport_tshirt,html/resources/sequences_IDs/A/10_satellite_dish.jpg,html/resources/sequences_IDs/B/07_sport_tshirt.jpg,10,7,4,2,3,2,8,6,0,80,,,,,,,,,,,,,,,,,,,,
,,,,,80,2020-07-04_19h39.56.987,retriever_ti,2020.1.3,Win32,60,Chrome,1920,1080,,,,,,,,,,,,,,,,,1,,,,,,,,,,,,,,,,,,,,,,,,,,,541.63162,71,left,0.571185,dolphin     ,2,2,1,1,0,541.648725,541.648725,544.148015,0,70,70,70,1,71,2,1,dolphin     ,wolf          ,html/resources/sequences_IDs/B/02_dolphin.jpg,html/resources/sequences_IDs/A/01_wolf.jpg,2,1,1,1,1,1,2,1,1,80,,,,,,,,,,,,,,,,,,,,
,,,,,80,2020-07-04_19h39.56.987,retriever_ti,2020.1.3,Win32,60,Chrome,1920,1080,,,,,,,,,,,,,,,,,1,,,,,,,,,,,,,,,,,,,,,,,,,,,545.248755,72,left,0.790825,slipper     ,8,8,5,1,3,545.28206,545.28206,547.78152,0,71,71,71,1,72,8,3,slipper     ,scarf         ,html/resources/sequences_IDs/B/08_slipper.jpg,html/resources/sequences_IDs/A/06_scarf.jpg,8,6,3,2,3,2,7,5,0,80,,,,,,,,,,,,,,,,,,,,
,,,,,80,2020-07-04_19h39.56.987,retriever_ti,2020.1.3,Win32,60,Chrome,1920,1080,,,,,,,,,,,,,,,,,1,,,,,,,,,,,,,,,,,,,,,,,,,,,548.398285,73,right,0.72591,peacock       ,5,5,-1,0,0,548.4156,548.4156,550.914815,0,72,72,72,1,73,6,5,holdfast    ,peacock       ,html/resources/sequences_IDs/B/04_holdfast.jpg,html/resources/sequences_IDs/A/05_peacock.jpg,4,5,2,1,2,1,3,4,0,80,,,,,,,,,,,,,,,,,,,,
,,,,,80,2020-07-04_19h39.56.987,retriever_ti,2020.1.3,Win32,60,Chrome,1920,1080,,,,,,,,,,,,,,,,,1,,,,,,,,,,,,,,,,,,,,,,,,,,,552.015345,74,left,0.69712,dolphin     ,2,2,-1,0,0,552.048675,552.048675,554.548345,0,73,73,73,1,74,2,3,dolphin     ,scarf         ,html/resources/sequences_IDs/B/02_dolphin.jpg,html/resources/sequences_IDs/A/06_scarf.jpg,2,6,1,1,3,2,2,5,0,80,,,,,,,,,,,,,,,,,,,,
,,,,,80,2020-07-04_19h39.56.987,retriever_ti,2020.1.3,Win32,60,Chrome,1920,1080,,,,,,,,,,,,,,,,,1,,,,,,,,,,,,,,,,,,,,,,,,,,,555.648905,75,left,1.752005,sport_tshirt,4,7,-2,0,3,555.66546,555.66546,558.16489,0,74,74,74,1,75,4,6,sport_tshirt,holdfast    ,html/resources/sequences_IDs/B/07_sport_tshirt.jpg,html/resources/sequences_IDs/B/04_holdfast.jpg,7,4,3,2,2,1,6,3,0,80,,,,,,,,,,,,,,,,,,,,
,,,,,80,2020-07-04_19h39.56.987,retriever_ti,2020.1.3,Win32,60,Chrome,1920,1080,,,,,,,,,,,,,,,,,1,,,,,,,,,,,,,,,,,,,,,,,,,,,558.78237,76,left,0.58108,dolphin     ,2,2,-5,0,3,558.815575,558.815575,561.315035,0,75,75,75,1,76,2,7,dolphin     ,satellite_dish,html/resources/sequences_IDs/B/02_dolphin.jpg,html/resources/sequences_IDs/A/10_satellite_dish.jpg,2,10,1,1,4,2,2,8,0,80,,,,,,,,,,,,,,,,,,,,
,,,,,80,2020-07-04_19h39.56.987,retriever_ti,2020.1.3,Win32,60,Chrome,1920,1080,,,,,,,,,,,,,,,,,1,,,,,,,,,,,,,,,,,,,,,,,,,,,561.931765,77,right,0.88552,satellite_dish,7,10,1,1,1,561.948965,561.948965,564.448255,0,76,76,76,1,77,6,7,holdfast    ,satellite_dish,html/resources/sequences_IDs/B/04_holdfast.jpg,html/resources/sequences_IDs/A/10_satellite_dish.jpg,4,10,2,1,4,2,3,8,0,80,,,,,,,,,,,,,,,,,,,,
,,,,,80,2020-07-04_19h39.56.987,retriever_ti,2020.1.3,Win32,60,Chrome,1920,1080,,,,,,,,,,,,,,,,,,,,,,,,,,,,,,,,,,,,,0,6.17837,,,,,,,,,,,,,,,,,,,,,,,,,,,,,,,,,,,,,,,,,0,0,0,0,1,,,,,,,,,,,,,,,
,,,,,80,2020-07-04_19h39.56.987,retriever_ti,2020.1.3,Win32,60,Chrome,1920,1080,,,,,,,,,,,,,,,,,2,,,,,,,,,,,,,,,,,,,,,,,,,,,583.452445,78,left,0.86459,satellite_dish,7,10,1,1,1,583.4829,583.4829,585.982035,0,0,0,0,1,78,7,6,satellite_dish,holdfast    ,html/resources/sequences_IDs/A/10_satellite_dish.jpg,html/resources/sequences_IDs/B/04_holdfast.jpg,10,4,4,2,2,1,8,3,0,80,,,,,,,,,,,,,,,,,,,,
,,,,,80,2020-07-04_19h39.56.987,retriever_ti,2020.1.3,Win32,60,Chrome,1920,1080,,,,,,,,,,,,,,,,,2,,,,,,,,,,,,,,,,,,,,,,,,,,,587.082655,79,left,1.14083,sport_tshirt,4,7,1,1,1,587.09926,587.09926,589.598855,0,1,1,1,1,79,4,3,sport_tshirt,scarf         ,html/resources/sequences_IDs/B/07_sport_tshirt.jpg,html/resources/sequences_IDs/A/06_scarf.jpg,7,6,3,2,3,2,6,5,0,80,,,,,,,,,,,,,,,,,,,,
,,,,,80,2020-07-04_19h39.56.987,retriever_ti,2020.1.3,Win32,60,Chrome,1920,1080,,,,,,,,,,,,,,,,,2,,,,,,,,,,,,,,,,,,,,,,,,,,,590.699195,80,left,0.660485,peacock       ,5,5,-3,0,3,590.732565,590.732565,593.23205,0,2,2,2,1,80,5,8,peacock       ,slipper     ,html/resources/sequences_IDs/A/05_peacock.jpg,html/resources/sequences_IDs/B/08_slipper.jpg,5,8,2,1,3,2,4,7,0,80,,,,,,,,,,,,,,,,,,,,
,,,,,80,2020-07-04_19h39.56.987,retriever_ti,2020.1.3,Win32,60,Chrome,1920,1080,,,,,,,,,,,,,,,,,2,,,,,,,,,,,,,,,,,,,,,,,,,,,593.84913,81,right,0.67343,peacock       ,5,5,-1,0,0,593.88275,593.88275,596.38222,0,3,3,3,1,81,6,5,holdfast    ,peacock       ,html/resources/sequences_IDs/B/04_holdfast.jpg,html/resources/sequences_IDs/A/05_peacock.jpg,4,5,2,1,2,1,3,4,0,80,,,,,,,,,,,,,,,,,,,,
,,,,,80,2020-07-04_19h39.56.987,retriever_ti,2020.1.3,Win32,60,Chrome,1920,1080,,,,,,,,,,,,,,,,,2,,,,,,,,,,,,,,,,,,,,,,,,,,,597.48269,82,left,0.65666,sport_tshirt,4,7,-3,0,3,597.499345,597.499345,599.998845,0,4,4,4,1,82,4,7,sport_tshirt,satellite_dish,html/resources/sequences_IDs/B/07_sport_tshirt.jpg,html/resources/sequences_IDs/A/10_satellite_dish.jpg,7,10,3,2,4,2,6,8,0,80,,,,,,,,,,,,,,,,,,,,
,,,,,80,2020-07-04_19h39.56.987,retriever_ti,2020.1.3,Win32,60,Chrome,1920,1080,,,,,,,,,,,,,,,,,2,,,,,,,,,,,,,,,,,,,,,,,,,,,600.616075,83,right,1.306775,satellite_dish,7,10,1,1,1,600.63282,600.63282,603.13226,0,5,5,5,1,83,6,7,holdfast    ,satellite_dish,html/resources/sequences_IDs/B/04_holdfast.jpg,html/resources/sequences_IDs/A/10_satellite_dish.jpg,4,10,2,1,4,2,3,8,0,80,,,,,,,,,,,,,,,,,,,,
,,,,,80,2020-07-04_19h39.56.987,retriever_ti,2020.1.3,Win32,60,Chrome,1920,1080,,,,,,,,,,,,,,,,,2,,,,,,,,,,,,,,,,,,,,,,,,,,,604.23273,84,right,1.51924,sport_tshirt,4,7,1,1,1,604.2662,604.2662,606.76558,0,6,6,6,1,84,3,4,scarf         ,sport_tshirt,html/resources/sequences_IDs/A/06_scarf.jpg,html/resources/sequences_IDs/B/07_sport_tshirt.jpg,6,7,3,2,3,2,5,6,0,80,,,,,,,,,,,,,,,,,,,,
,,,,,80,2020-07-04_19h39.56.987,retriever_ti,2020.1.3,Win32,60,Chrome,1920,1080,,,,,,,,,,,,,,,,,2,,,,,,,,,,,,,,,,,,,,,,,,,,,607.865905,85,left,0.72111,slipper     ,8,8,1,1,1,607.89954,607.89954,610.398995,0,7,7,7,1,85,8,7,slipper     ,satellite_dish,html/resources/sequences_IDs/B/08_slipper.jpg,html/resources/sequences_IDs/A/10_satellite_dish.jpg,8,10,3,2,4,2,7,8,0,80,,,,,,,,,,,,,,,,,,,,
,,,,,80,2020-07-04_19h39.56.987,retriever_ti,2020.1.3,Win32,60,Chrome,1920,1080,,,,,,,,,,,,,,,,,2,,,,,,,,,,,,,,,,,,,,,,,,,,,611.499605,86,left,1.062445,sport_tshirt,4,7,1,1,1,611.516495,611.516495,614.0158,0,8,8,8,1,86,4,3,sport_tshirt,scarf         ,html/resources/sequences_IDs/B/07_sport_tshirt.jpg,html/resources/sequences_IDs/A/06_scarf.jpg,7,6,3,2,3,2,6,5,0,80,,,,,,,,,,,,,,,,,,,,
,,,,,80,2020-07-04_19h39.56.987,retriever_ti,2020.1.3,Win32,60,Chrome,1920,1080,,,,,,,,,,,,,,,,,2,,,,,,,,,,,,,,,,,,,,,,,,,,,615.116265,87,left,1.37757,sport_tshirt,4,7,3,1,3,615.13301,615.13301,617.632465,0,9,9,9,1,87,4,1,sport_tshirt,wolf          ,html/resources/sequences_IDs/B/07_sport_tshirt.jpg,html/resources/sequences_IDs/A/01_wolf.jpg,7,1,3,2,1,1,6,1,0,80,,,,,,,,,,,,,,,,,,,,
,,,,,80,2020-07-04_19h39.56.987,retriever_ti,2020.1.3,Win32,60,Chrome,1920,1080,,,,,,,,,,,,,,,,,2,,,,,,,,,,,,,,,,,,,,,,,,,,,618.249605,88,left,0.785805,dolphin     ,2,2,-1,0,0,618.28313,618.28313,620.7826,0,10,10,10,1,88,2,3,dolphin     ,scarf         ,html/resources/sequences_IDs/B/02_dolphin.jpg,html/resources/sequences_IDs/A/06_scarf.jpg,2,6,1,1,3,2,2,5,0,80,,,,,,,,,,,,,,,,,,,,
,,,,,80,2020-07-04_19h39.56.987,retriever_ti,2020.1.3,Win32,60,Chrome,1920,1080,,,,,,,,,,,,,,,,,2,,,,,,,,,,,,,,,,,,,,,,,,,,,621.88284,89,right,1.08161,satellite_dish,7,10,1,1,0,621.899955,621.899955,624.39932,0,11,11,11,1,89,6,7,holdfast    ,satellite_dish,html/resources/sequences_IDs/B/04_holdfast.jpg,html/resources/sequences_IDs/A/10_satellite_dish.jpg,4,10,2,1,4,2,3,8,1,80,,,,,,,,,,,,,,,,,,,,
,,,,,80,2020-07-04_19h39.56.987,retriever_ti,2020.1.3,Win32,60,Chrome,1920,1080,,,,,,,,,,,,,,,,,2,,,,,,,,,,,,,,,,,,,,,,,,,,,625.4997,90,left,0.674785,dolphin     ,2,2,1,1,1,625.533135,625.533135,628.03266,0,12,12,12,1,90,2,1,dolphin     ,wolf          ,html/resources/sequences_IDs/B/02_dolphin.jpg,html/resources/sequences_IDs/A/01_wolf.jpg,2,1,1,1,1,1,2,1,0,80,,,,,,,,,,,,,,,,,,,,
,,,,,80,2020-07-04_19h39.56.987,retriever_ti,2020.1.3,Win32,60,Chrome,1920,1080,,,,,,,,,,,,,,,,,2,,,,,,,,,,,,,,,,,,,,,,,,,,,629.13323,91,right,0.790585,dolphin     ,2,2,-1,0,0,629.150005,629.150005,631.64926,0,13,13,13,1,91,3,2,scarf         ,dolphin     ,html/resources/sequences_IDs/A/06_scarf.jpg,html/resources/sequences_IDs/B/02_dolphin.jpg,6,2,3,2,1,1,5,2,0,80,,,,,,,,,,,,,,,,,,,,
,,,,,80,2020-07-04_19h39.56.987,retriever_ti,2020.1.3,Win32,60,Chrome,1920,1080,,,,,,,,,,,,,,,,,2,,,,,,,,,,,,,,,,,,,,,,,,,,,632.74989,92,left,1.314075,slipper     ,8,8,1,1,0,632.76699,632.76699,635.26602,0,14,14,14,1,92,8,7,slipper     ,satellite_dish,html/resources/sequences_IDs/B/08_slipper.jpg,html/resources/sequences_IDs/A/10_satellite_dish.jpg,8,10,3,2,4,2,7,8,1,80,,,,,,,,,,,,,,,,,,,,
,,,,,80,2020-07-04_19h39.56.987,retriever_ti,2020.1.3,Win32,60,Chrome,1920,1080,,,,,,,,,,,,,,,,,2,,,,,,,,,,,,,,,,,,,,,,,,,,,636.366585,93,left,1.108585,dolphin     ,2,2,-1,0,1,636.383465,636.383465,638.882725,0,15,15,15,1,93,2,3,dolphin     ,scarf         ,html/resources/sequences_IDs/B/02_dolphin.jpg,html/resources/sequences_IDs/A/06_scarf.jpg,2,6,1,1,3,2,2,5,1,80,,,,,,,,,,,,,,,,,,,,
,,,,,80,2020-07-04_19h39.56.987,retriever_ti,2020.1.3,Win32,60,Chrome,1920,1080,,,,,,,,,,,,,,,,,2,,,,,,,,,,,,,,,,,,,,,,,,,,,639.983565,94,right,1.297385,sport_tshirt,4,7,3,1,3,640.016665,640.016665,642.516215,0,16,16,16,1,94,1,4,wolf          ,sport_tshirt,html/resources/sequences_IDs/A/01_wolf.jpg,html/resources/sequences_IDs/B/07_sport_tshirt.jpg,1,7,1,1,3,2,1,6,0,80,,,,,,,,,,,,,,,,,,,,
,,,,,80,2020-07-04_19h39.56.987,retriever_ti,2020.1.3,Win32,60,Chrome,1920,1080,,,,,,,,,,,,,,,,,2,,,,,,,,,,,,,,,,,,,,,,,,,,,643.133275,95,left,0.941975,peacock       ,5,5,4,1,3,643.16669,643.16669,645.66633,0,17,17,17,1,95,5,1,peacock       ,wolf          ,html/resources/sequences_IDs/A/05_peacock.jpg,html/resources/sequences_IDs/A/01_wolf.jpg,5,1,2,1,1,1,4,1,0,80,,,,,,,,,,,,,,,,,,,,
,,,,,80,2020-07-04_19h39.56.987,retriever_ti,2020.1.3,Win32,60,Chrome,1920,1080,,,,,,,,,,,,,,,,,2,,,,,,,,,,,,,,,,,,,,,,,,,,,646.28355,96,right,0.803055,dolphin     ,2,2,-6,0,3,646.300115,646.300115,648.79962,0,18,18,18,1,96,8,2,slipper     ,dolphin     ,html/resources/sequences_IDs/B/08_slipper.jpg,html/resources/sequences_IDs/B/02_dolphin.jpg,8,2,3,2,1,1,7,2,0,80,,,,,,,,,,,,,,,,,,,,
,,,,,80,2020-07-04_19h39.56.987,retriever_ti,2020.1.3,Win32,60,Chrome,1920,1080,,,,,,,,,,,,,,,,,2,,,,,,,,,,,,,,,,,,,,,,,,,,,649.416655,97,right,1.32589,sport_tshirt,4,7,-1,0,1,649.433505,649.433505,651.93291,0,19,19,19,1,97,5,4,peacock       ,sport_tshirt,html/resources/sequences_IDs/A/05_peacock.jpg,html/resources/sequences_IDs/B/07_sport_tshirt.jpg,5,7,2,1,3,2,4,6,1,80,,,,,,,,,,,,,,,,,,,,
,,,,,80,2020-07-04_19h39.56.987,retriever_ti,2020.1.3,Win32,60,Chrome,1920,1080,,,,,,,,,,,,,,,,,2,,,,,,,,,,,,,,,,,,,,,,,,,,,653.033585,98,right,0.88209,holdfast    ,6,4,-1,0,0,653.066955,653.066955,655.566385,0,20,20,20,1,98,7,6,satellite_dish,holdfast    ,html/resources/sequences_IDs/A/10_satellite_dish.jpg,html/resources/sequences_IDs/B/04_holdfast.jpg,10,4,4,2,2,1,8,3,0,80,,,,,,,,,,,,,,,,,,,,
,,,,,80,2020-07-04_19h39.56.987,retriever_ti,2020.1.3,Win32,60,Chrome,1920,1080,,,,,,,,,,,,,,,,,2,,,,,,,,,,,,,,,,,,,,,,,,,,,656.66686,99,left,0.593115,dolphin     ,2,2,-6,0,3,656.683705,656.683705,659.183075,0,21,21,21,1,99,2,8,dolphin     ,slipper     ,html/resources/sequences_IDs/B/02_dolphin.jpg,html/resources/sequences_IDs/B/08_slipper.jpg,2,8,1,1,3,2,2,7,0,80,,,,,,,,,,,,,,,,,,,,
,,,,,80,2020-07-04_19h39.56.987,retriever_ti,2020.1.3,Win32,60,Chrome,1920,1080,,,,,,,,,,,,,,,,,2,,,,,,,,,,,,,,,,,,,,,,,,,,,659.80004,100,left,0.968605,peacock       ,5,5,-1,0,0,659.81736,659.81736,662.3164,0,22,22,22,1,100,5,6,peacock       ,holdfast    ,html/resources/sequences_IDs/A/05_peacock.jpg,html/resources/sequences_IDs/B/04_holdfast.jpg,5,4,2,1,2,1,4,3,0,80,,,,,,,,,,,,,,,,,,,,
,,,,,80,2020-07-04_19h39.56.987,retriever_ti,2020.1.3,Win32,60,Chrome,1920,1080,,,,,,,,,,,,,,,,,2,,,,,,,,,,,,,,,,,,,,,,,,,,,663.41706,101,left,1.74389,satellite_dish,7,10,-1,0,0,663.43374,663.43374,665.93326,0,23,23,23,1,101,7,8,satellite_dish,slipper     ,html/resources/sequences_IDs/A/10_satellite_dish.jpg,html/resources/sequences_IDs/B/08_slipper.jpg,10,8,4,2,3,2,8,7,0,80,,,,,,,,,,,,,,,,,,,,
,,,,,80,2020-07-04_19h39.56.987,retriever_ti,2020.1.3,Win32,60,Chrome,1920,1080,,,,,,,,,,,,,,,,,2,,,,,,,,,,,,,,,,,,,,,,,,,,,667.03366,102,left,1.990395,wolf          ,1,1,-5,0,3,667.067175,667.067175,669.566475,0,24,24,24,1,102,1,6,wolf          ,holdfast    ,html/resources/sequences_IDs/A/01_wolf.jpg,html/resources/sequences_IDs/B/04_holdfast.jpg,1,4,1,1,2,1,1,3,0,80,,,,,,,,,,,,,,,,,,,,
,,,,,80,2020-07-04_19h39.56.987,retriever_ti,2020.1.3,Win32,60,Chrome,1920,1080,,,,,,,,,,,,,,,,,2,,,,,,,,,,,,,,,,,,,,,,,,,,,670.183705,103,left,0.86089,peacock       ,5,5,-1,0,0,670.200515,670.200515,672.699885,0,25,25,25,1,103,5,6,peacock       ,holdfast    ,html/resources/sequences_IDs/A/05_peacock.jpg,html/resources/sequences_IDs/B/04_holdfast.jpg,5,4,2,1,2,1,4,3,0,80,,,,,,,,,,,,,,,,,,,,
,,,,,80,2020-07-04_19h39.56.987,retriever_ti,2020.1.3,Win32,60,Chrome,1920,1080,,,,,,,,,,,,,,,,,2,,,,,,,,,,,,,,,,,,,,,,,,,,,673.800385,104,left,1.09238,wolf          ,1,1,-7,0,3,673.81742,673.81742,676.31671,0,26,26,26,1,104,1,8,wolf          ,slipper     ,html/resources/sequences_IDs/A/01_wolf.jpg,html/resources/sequences_IDs/B/08_slipper.jpg,1,8,1,1,3,2,1,7,0,80,,,,,,,,,,,,,,,,,,,,
,,,,,80,2020-07-04_19h39.56.987,retriever_ti,2020.1.3,Win32,60,Chrome,1920,1080,,,,,,,,,,,,,,,,,2,,,,,,,,,,,,,,,,,,,,,,,,,,,676.933935,105,right,0.887855,satellite_dish,7,10,1,1,1,676.95071,676.95071,679.450065,0,27,27,27,1,105,6,7,holdfast    ,satellite_dish,html/resources/sequences_IDs/B/04_holdfast.jpg,html/resources/sequences_IDs/A/10_satellite_dish.jpg,4,10,2,1,4,2,3,8,0,80,,,,,,,,,,,,,,,,,,,,
,,,,,80,2020-07-04_19h39.56.987,retriever_ti,2020.1.3,Win32,60,Chrome,1920,1080,,,,,,,,,,,,,,,,,2,,,,,,,,,,,,,,,,,,,,,,,,,,,680.55061,106,right,0.62963,wolf          ,1,1,-5,0,3,680.567265,680.567265,683.06679,0,28,28,28,1,106,6,1,holdfast    ,wolf          ,html/resources/sequences_IDs/B/04_holdfast.jpg,html/resources/sequences_IDs/A/01_wolf.jpg,4,1,2,1,1,1,3,1,0,80,,,,,,,,,,,,,,,,,,,,
,,,,,80,2020-07-04_19h39.56.987,retriever_ti,2020.1.3,Win32,60,Chrome,1920,1080,,,,,,,,,,,,,,,,,2,,,,,,,,,,,,,,,,,,,,,,,,,,,683.683695,107,left,0.69714,dolphin     ,2,2,1,1,1,683.7174,683.7174,686.216945,0,29,29,29,1,107,2,1,dolphin     ,wolf          ,html/resources/sequences_IDs/B/02_dolphin.jpg,html/resources/sequences_IDs/A/01_wolf.jpg,2,1,1,1,1,1,2,1,0,80,,,,,,,,,,,,,,,,,,,,
,,,,,80,2020-07-04_19h39.56.987,retriever_ti,2020.1.3,Win32,60,Chrome,1920,1080,,,,,,,,,,,,,,,,,2,,,,,,,,,,,,,,,,,,,,,,,,,,,687.31733,108,right,1.315505,scarf         ,3,6,-3,0,3,687.334075,687.334075,689.83351,0,30,30,30,1,108,6,3,holdfast    ,scarf         ,html/resources/sequences_IDs/B/04_holdfast.jpg,html/resources/sequences_IDs/A/06_scarf.jpg,4,6,2,1,3,2,3,5,0,80,,,,,,,,,,,,,,,,,,,,
,,,,,80,2020-07-04_19h39.56.987,retriever_ti,2020.1.3,Win32,60,Chrome,1920,1080,,,,,,,,,,,,,,,,,2,,,,,,,,,,,,,,,,,,,,,,,,,,,690.450795,109,left,0.70058,slipper     ,8,8,2,1,3,690.48422,690.48422,692.98355,0,31,31,31,1,109,8,6,slipper     ,holdfast    ,html/resources/sequences_IDs/B/08_slipper.jpg,html/resources/sequences_IDs/B/04_holdfast.jpg,8,4,3,2,2,1,7,3,0,80,,,,,,,,,,,,,,,,,,,,
,,,,,80,2020-07-04_19h39.56.987,retriever_ti,2020.1.3,Win32,60,Chrome,1920,1080,,,,,,,,,,,,,,,,,2,,,,,,,,,,,,,,,,,,,,,,,,,,,693.60053,110,left,1.288075,slipper     ,8,8,1,1,1,693.634075,693.634075,696.133645,0,32,32,32,1,110,8,7,slipper     ,satellite_dish,html/resources/sequences_IDs/B/08_slipper.jpg,html/resources/sequences_IDs/A/10_satellite_dish.jpg,8,10,3,2,4,2,7,8,0,80,,,,,,,,,,,,,,,,,,,,
,,,,,80,2020-07-04_19h39.56.987,retriever_ti,2020.1.3,Win32,60,Chrome,1920,1080,,,,,,,,,,,,,,,,,2,,,,,,,,,,,,,,,,,,,,,,,,,,,697.23424,111,left,1.238325,scarf         ,3,6,-4,0,3,697.25099,697.25099,699.75043,0,33,33,33,1,111,3,7,scarf         ,satellite_dish,html/resources/sequences_IDs/A/06_scarf.jpg,html/resources/sequences_IDs/A/10_satellite_dish.jpg,6,10,3,2,4,2,5,8,0,80,,,,,,,,,,,,,,,,,,,,
,,,,,80,2020-07-04_19h39.56.987,retriever_ti,2020.1.3,Win32,60,Chrome,1920,1080,,,,,,,,,,,,,,,,,2,,,,,,,,,,,,,,,,,,,,,,,,,,,700.3675,112,right,0.970035,sport_tshirt,4,7,-4,0,3,700.38418,700.38418,702.883715,0,34,34,34,1,112,8,4,slipper     ,sport_tshirt,html/resources/sequences_IDs/B/08_slipper.jpg,html/resources/sequences_IDs/B/07_sport_tshirt.jpg,8,7,3,2,3,2,7,6,0,80,,,,,,,,,,,,,,,,,,,,
,,,,,80,2020-07-04_19h39.56.987,retriever_ti,2020.1.3,Win32,60,Chrome,1920,1080,,,,,,,,,,,,,,,,,2,,,,,,,,,,,,,,,,,,,,,,,,,,,703.500695,113,right,1.009155,peacock       ,5,5,-1,0,0,703.534225,703.534225,706.033715,0,35,35,35,1,113,6,5,holdfast    ,peacock       ,html/resources/sequences_IDs/B/04_holdfast.jpg,html/resources/sequences_IDs/A/05_peacock.jpg,4,5,2,1,2,1,3,4,0,80,,,,,,,,,,,,,,,,,,,,
,,,,,80,2020-07-04_19h39.56.987,retriever_ti,2020.1.3,Win32,60,Chrome,1920,1080,,,,,,,,,,,,,,,,,2,,,,,,,,,,,,,,,,,,,,,,,,,,,707.134325,114,left,0.723735,dolphin     ,2,2,-3,0,3,707.1677,707.1677,709.667005,0,36,36,36,1,114,2,5,dolphin     ,peacock       ,html/resources/sequences_IDs/B/02_dolphin.jpg,html/resources/sequences_IDs/A/05_peacock.jpg,2,5,1,1,2,1,2,4,0,80,,,,,,,,,,,,,,,,,,,,
,,,,,80,2020-07-04_19h39.56.987,retriever_ti,2020.1.3,Win32,60,Chrome,1920,1080,,,,,,,,,,,,,,,,,2,,,,,,,,,,,,,,,,,,,,,,,,,,,710.267595,115,right,0.872735,dolphin     ,2,2,-4,0,3,710.284475,710.284475,712.783905,0,37,37,37,1,115,6,2,holdfast    ,dolphin     ,html/resources/sequences_IDs/B/04_holdfast.jpg,html/resources/sequences_IDs/B/02_dolphin.jpg,4,2,2,1,1,1,3,2,0,80,,,,,,,,,,,,,,,,,,,,
,,,,,80,2020-07-04_19h39.56.987,retriever_ti,2020.1.3,Win32,60,Chrome,1920,1080,,,,,,,,,,,,,,,,,2,,,,,,,,,,,,,,,,,,,,,,,,,,,713.40087,116,left,0.762905,sport_tshirt,4,7,-4,0,3,713.434575,713.434575,715.93393,0,38,38,38,1,116,4,8,sport_tshirt,slipper     ,html/resources/sequences_IDs/B/07_sport_tshirt.jpg,html/resources/sequences_IDs/B/08_slipper.jpg,7,8,3,2,3,2,6,7,0,80,,,,,,,,,,,,,,,,,,,,
,,,,,80,2020-07-04_19h39.56.987,retriever_ti,2020.1.3,Win32,60,Chrome,1920,1080,,,,,,,,,,,,,,,,,2,,,,,,,,,,,,,,,,,,,,,,,,,,,716.551105,117,right,0.824365,sport_tshirt,4,7,-2,0,3,716.58455,716.58455,719.083945,0,39,39,39,1,117,6,4,holdfast    ,sport_tshirt,html/resources/sequences_IDs/B/04_holdfast.jpg,html/resources/sequences_IDs/B/07_sport_tshirt.jpg,4,7,2,1,3,2,3,6,0,80,,,,,,,,,,,,,,,,,,,,
,,,,,80,2020-07-04_19h39.56.987,retriever_ti,2020.1.3,Win32,60,Chrome,1920,1080,,,,,,,,,,,,,,,,,2,,,,,,,,,,,,,,,,,,,,,,,,,,,719.68427,118,right,0.799625,dolphin     ,2,2,-2,0,3,719.701285,719.701285,722.20071,0,40,40,40,1,118,4,2,sport_tshirt,dolphin     ,html/resources/sequences_IDs/B/07_sport_tshirt.jpg,html/resources/sequences_IDs/B/02_dolphin.jpg,7,2,3,2,1,1,6,2,0,80,,,,,,,,,,,,,,,,,,,,
,,,,,80,2020-07-04_19h39.56.987,retriever_ti,2020.1.3,Win32,60,Chrome,1920,1080,,,,,,,,,,,,,,,,,2,,,,,,,,,,,,,,,,,,,,,,,,,,,722.81976,119,right,1.310865,scarf         ,3,6,-5,0,3,722.852145,722.852145,725.35051,0,41,41,41,1,119,8,3,slipper     ,scarf         ,html/resources/sequences_IDs/B/08_slipper.jpg,html/resources/sequences_IDs/A/06_scarf.jpg,8,6,3,2,3,2,7,5,0,80,,,,,,,,,,,,,,,,,,,,
,,,,,80,2020-07-04_19h39.56.987,retriever_ti,2020.1.3,Win32,60,Chrome,1920,1080,,,,,,,,,,,,,,,,,2,,,,,,,,,,,,,,,,,,,,,,,,,,,725.951025,120,right,1.09386,slipper     ,8,8,5,1,3,725.967895,725.967895,728.46739,0,42,42,42,1,120,3,8,scarf         ,slipper     ,html/resources/sequences_IDs/A/06_scarf.jpg,html/resources/sequences_IDs/B/08_slipper.jpg,6,8,3,2,3,2,5,7,0,80,,,,,,,,,,,,,,,,,,,,
,,,,,80,2020-07-04_19h39.56.987,retriever_ti,2020.1.3,Win32,60,Chrome,1920,1080,,,,,,,,,,,,,,,,,2,,,,,,,,,,,,,,,,,,,,,,,,,,,729.084865,121,left,1.24152,peacock       ,5,5,-2,0,3,729.10135,729.10135,731.60076,0,43,43,43,1,121,5,7,peacock       ,satellite_dish,html/resources/sequences_IDs/A/05_peacock.jpg,html/resources/sequences_IDs/A/10_satellite_dish.jpg,5,10,2,1,4,2,4,8,0,80,,,,,,,,,,,,,,,,,,,,
,,,,,80,2020-07-04_19h39.56.987,retriever_ti,2020.1.3,Win32,60,Chrome,1920,1080,,,,,,,,,,,,,,,,,2,,,,,,,,,,,,,,,,,,,,,,,,,,,732.21803,122,left,0.899125,satellite_dish,7,10,-1,0,0,732.251275,732.251275,734.750855,0,44,44,44,1,122,7,8,satellite_dish,slipper     ,html/resources/sequences_IDs/A/10_satellite_dish.jpg,html/resources/sequences_IDs/B/08_slipper.jpg,10,8,4,2,3,2,8,7,0,80,,,,,,,,,,,,,,,,,,,,
,,,,,80,2020-07-04_19h39.56.987,retriever_ti,2020.1.3,Win32,60,Chrome,1920,1080,,,,,,,,,,,,,,,,,2,,,,,,,,,,,,,,,,,,,,,,,,,,,735.851085,123,right,0.892385,wolf          ,1,1,-7,0,3,735.884885,735.884885,738.384285,0,45,45,45,1,123,8,1,slipper     ,wolf          ,html/resources/sequences_IDs/B/08_slipper.jpg,html/resources/sequences_IDs/A/01_wolf.jpg,8,1,3,2,1,1,7,1,0,80,,,,,,,,,,,,,,,,,,,,
,,,,,80,2020-07-04_19h39.56.987,retriever_ti,2020.1.3,Win32,60,Chrome,1920,1080,,,,,,,,,,,,,,,,,2,,,,,,,,,,,,,,,,,,,,,,,,,,,739.00141,124,right,1.414755,wolf          ,1,1,-6,0,3,739.034795,739.034795,741.534345,0,46,46,46,1,124,7,1,satellite_dish,wolf          ,html/resources/sequences_IDs/A/10_satellite_dish.jpg,html/resources/sequences_IDs/A/01_wolf.jpg,10,1,4,2,1,1,8,1,0,80,,,,,,,,,,,,,,,,,,,,
,,,,,80,2020-07-04_19h39.56.987,retriever_ti,2020.1.3,Win32,60,Chrome,1920,1080,,,,,,,,,,,,,,,,,2,,,,,,,,,,,,,,,,,,,,,,,,,,,742.151265,125,right,1.258375,slipper     ,8,8,2,1,3,742.18493,742.18493,744.684275,0,47,47,47,1,125,6,8,holdfast    ,slipper     ,html/resources/sequences_IDs/B/04_holdfast.jpg,html/resources/sequences_IDs/B/08_slipper.jpg,4,8,2,1,3,2,3,7,0,80,,,,,,,,,,,,,,,,,,,,
,,,,,80,2020-07-04_19h39.56.987,retriever_ti,2020.1.3,Win32,60,Chrome,1920,1080,,,,,,,,,,,,,,,,,2,,,,,,,,,,,,,,,,,,,,,,,,,,,745.284635,126,left,1.127465,peacock       ,5,5,1,1,1,745.30158,745.30158,747.801045,0,48,48,48,1,126,5,4,peacock       ,sport_tshirt,html/resources/sequences_IDs/A/05_peacock.jpg,html/resources/sequences_IDs/B/07_sport_tshirt.jpg,5,7,2,1,3,2,4,6,0,80,,,,,,,,,,,,,,,,,,,,
,,,,,80,2020-07-04_19h39.56.987,retriever_ti,2020.1.3,Win32,60,Chrome,1920,1080,,,,,,,,,,,,,,,,,2,,,,,,,,,,,,,,,,,,,,,,,,,,,748.90156,127,left,1.1291,wolf          ,1,1,-4,0,3,748.91829,748.91829,751.41786,0,49,49,49,1,127,1,5,wolf          ,peacock       ,html/resources/sequences_IDs/A/01_wolf.jpg,html/resources/sequences_IDs/A/05_peacock.jpg,1,5,1,1,2,1,1,4,0,80,,,,,,,,,,,,,,,,,,,,
,,,,,80,2020-07-04_19h39.56.987,retriever_ti,2020.1.3,Win32,60,Chrome,1920,1080,,,,,,,,,,,,,,,,,2,,,,,,,,,,,,,,,,,,,,,,,,,,,752.03475,128,left,0.635975,sport_tshirt,4,7,-1,0,0,752.051625,752.051625,754.551175,0,50,50,50,1,128,4,5,sport_tshirt,peacock       ,html/resources/sequences_IDs/B/07_sport_tshirt.jpg,html/resources/sequences_IDs/A/05_peacock.jpg,7,5,3,2,2,1,6,4,0,80,,,,,,,,,,,,,,,,,,,,
,,,,,80,2020-07-04_19h39.56.987,retriever_ti,2020.1.3,Win32,60,Chrome,1920,1080,,,,,,,,,,,,,,,,,2,,,,,,,,,,,,,,,,,,,,,,,,,,,755.65176,129,right,0.87998,dolphin     ,2,2,-1,0,0,755.66839,755.66839,758.167955,0,51,51,51,1,129,3,2,scarf         ,dolphin     ,html/resources/sequences_IDs/A/06_scarf.jpg,html/resources/sequences_IDs/B/02_dolphin.jpg,6,2,3,2,1,1,5,2,0,80,,,,,,,,,,,,,,,,,,,,
,,,,,80,2020-07-04_19h39.56.987,retriever_ti,2020.1.3,Win32,60,Chrome,1920,1080,,,,,,,,,,,,,,,,,2,,,,,,,,,,,,,,,,,,,,,,,,,,,759.268415,130,left,1.626195,peacock       ,5,5,1,1,1,759.285095,759.285095,761.784565,0,52,52,52,1,130,5,4,peacock       ,sport_tshirt,html/resources/sequences_IDs/A/05_peacock.jpg,html/resources/sequences_IDs/B/07_sport_tshirt.jpg,5,7,2,1,3,2,4,6,0,80,,,,,,,,,,,,,,,,,,,,
,,,,,80,2020-07-04_19h39.56.987,retriever_ti,2020.1.3,Win32,60,Chrome,1920,1080,,,,,,,,,,,,,,,,,2,,,,,,,,,,,,,,,,,,,,,,,,,,,762.8851,131,left,1.17596,dolphin     ,2,2,-2,0,3,762.91849,762.91849,765.418095,0,53,53,53,1,131,2,4,dolphin     ,sport_tshirt,html/resources/sequences_IDs/B/02_dolphin.jpg,html/resources/sequences_IDs/B/07_sport_tshirt.jpg,2,7,1,1,3,2,2,6,0,80,,,,,,,,,,,,,,,,,,,,
,,,,,80,2020-07-04_19h39.56.987,retriever_ti,2020.1.3,Win32,60,Chrome,1920,1080,,,,,,,,,,,,,,,,,2,,,,,,,,,,,,,,,,,,,,,,,,,,,766.034855,132,right,0.72793,dolphin     ,2,2,1,1,1,766.068685,766.068685,768.56798,0,54,54,54,1,132,1,2,wolf          ,dolphin     ,html/resources/sequences_IDs/A/01_wolf.jpg,html/resources/sequences_IDs/B/02_dolphin.jpg,1,2,1,1,1,1,1,2,0,80,,,,,,,,,,,,,,,,,,,,
,,,,,80,2020-07-04_19h39.56.987,retriever_ti,2020.1.3,Win32,60,Chrome,1920,1080,,,,,,,,,,,,,,,,,2,,,,,,,,,,,,,,,,,,,,,,,,,,,769.668605,133,right,1.312505,satellite_dish,7,10,6,1,3,769.70183,769.70183,772.201315,0,55,55,55,1,133,1,7,wolf          ,satellite_dish,html/resources/sequences_IDs/A/01_wolf.jpg,html/resources/sequences_IDs/A/10_satellite_dish.jpg,1,10,1,1,4,2,1,8,0,80,,,,,,,,,,,,,,,,,,,,
,,,,,80,2020-07-04_19h39.56.987,retriever_ti,2020.1.3,Win32,60,Chrome,1920,1080,,,,,,,,,,,,,,,,,2,,,,,,,,,,,,,,,,,,,,,,,,,,,772.80196,134,left,0.83265,scarf         ,3,6,-3,0,3,772.818615,772.818615,775.31799,0,56,56,56,1,134,3,6,scarf         ,holdfast    ,html/resources/sequences_IDs/A/06_scarf.jpg,html/resources/sequences_IDs/B/04_holdfast.jpg,6,4,3,2,2,1,5,3,0,80,,,,,,,,,,,,,,,,,,,,
,,,,,80,2020-07-04_19h39.56.987,retriever_ti,2020.1.3,Win32,60,Chrome,1920,1080,,,,,,,,,,,,,,,,,2,,,,,,,,,,,,,,,,,,,,,,,,,,,775.918375,135,right,0.58051,dolphin     ,2,2,1,1,0,775.935415,775.935415,778.43485,0,57,57,57,1,135,1,2,wolf          ,dolphin     ,html/resources/sequences_IDs/A/01_wolf.jpg,html/resources/sequences_IDs/B/02_dolphin.jpg,1,2,1,1,1,1,1,2,1,80,,,,,,,,,,,,,,,,,,,,
,,,,,80,2020-07-04_19h39.56.987,retriever_ti,2020.1.3,Win32,60,Chrome,1920,1080,,,,,,,,,,,,,,,,,2,,,,,,,,,,,,,,,,,,,,,,,,,,,779.5354,136,right,0.759885,peacock       ,5,5,-1,0,1,779.56865,779.56865,782.068155,0,58,58,58,1,136,6,5,holdfast    ,peacock       ,html/resources/sequences_IDs/B/04_holdfast.jpg,html/resources/sequences_IDs/A/05_peacock.jpg,4,5,2,1,2,1,3,4,1,80,,,,,,,,,,,,,,,,,,,,
,,,,,80,2020-07-04_19h39.56.987,retriever_ti,2020.1.3,Win32,60,Chrome,1920,1080,,,,,,,,,,,,,,,,,2,,,,,,,,,,,,,,,,,,,,,,,,,,,783.16874,137,left,0.943745,peacock       ,5,5,3,1,3,783.1855,783.1855,785.68485,0,59,59,59,1,137,5,2,peacock       ,dolphin     ,html/resources/sequences_IDs/A/05_peacock.jpg,html/resources/sequences_IDs/B/02_dolphin.jpg,5,2,2,1,1,1,4,2,0,80,,,,,,,,,,,,,,,,,,,,
,,,,,80,2020-07-04_19h39.56.987,retriever_ti,2020.1.3,Win32,60,Chrome,1920,1080,,,,,,,,,,,,,,,,,2,,,,,,,,,,,,,,,,,,,,,,,,,,,786.285495,138,right,1.213415,sport_tshirt,4,7,1,1,1,786.302365,786.302365,788.801625,0,60,60,60,1,138,3,4,scarf         ,sport_tshirt,html/resources/sequences_IDs/A/06_scarf.jpg,html/resources/sequences_IDs/B/07_sport_tshirt.jpg,6,7,3,2,3,2,5,6,0,80,,,,,,,,,,,,,,,,,,,,
,,,,,80,2020-07-04_19h39.56.987,retriever_ti,2020.1.3,Win32,60,Chrome,1920,1080,,,,,,,,,,,,,,,,,2,,,,,,,,,,,,,,,,,,,,,,,,,,,789.90198,139,right,0.713375,peacock       ,5,5,2,1,3,789.919175,789.919175,792.418495,0,61,61,61,1,139,3,5,scarf         ,peacock       ,html/resources/sequences_IDs/A/06_scarf.jpg,html/resources/sequences_IDs/A/05_peacock.jpg,6,5,3,2,2,1,5,4,0,80,,,,,,,,,,,,,,,,,,,,
,,,,,80,2020-07-04_19h39.56.987,retriever_ti,2020.1.3,Win32,60,Chrome,1920,1080,,,,,,,,,,,,,,,,,2,,,,,,,,,,,,,,,,,,,,,,,,,,,793.035615,140,right,1.35143,sport_tshirt,4,7,-3,0,3,793.06902,793.06902,795.568265,0,62,62,62,1,140,7,4,satellite_dish,sport_tshirt,html/resources/sequences_IDs/A/10_satellite_dish.jpg,html/resources/sequences_IDs/B/07_sport_tshirt.jpg,10,7,4,2,3,2,8,6,0,80,,,,,,,,,,,,,,,,,,,,
,,,,,80,2020-07-04_19h39.56.987,retriever_ti,2020.1.3,Win32,60,Chrome,1920,1080,,,,,,,,,,,,,,,,,2,,,,,,,,,,,,,,,,,,,,,,,,,,,796.185385,141,left,1.08902,peacock       ,5,5,2,1,3,796.20227,796.20227,798.701805,0,63,63,63,1,141,5,3,peacock       ,scarf         ,html/resources/sequences_IDs/A/05_peacock.jpg,html/resources/sequences_IDs/A/06_scarf.jpg,5,6,2,1,3,2,4,5,0,80,,,,,,,,,,,,,,,,,,,,
,,,,,80,2020-07-04_19h39.56.987,retriever_ti,2020.1.3,Win32,60,Chrome,1920,1080,,,,,,,,,,,,,,,,,2,,,,,,,,,,,,,,,,,,,,,,,,,,,799.319,142,right,0.796025,peacock       ,5,5,-3,0,3,799.335805,799.335805,801.835075,0,64,64,64,1,142,8,5,slipper     ,peacock       ,html/resources/sequences_IDs/B/08_slipper.jpg,html/resources/sequences_IDs/A/05_peacock.jpg,8,5,3,2,2,1,7,4,0,80,,,,,,,,,,,,,,,,,,,,
,,,,,80,2020-07-04_19h39.56.987,retriever_ti,2020.1.3,Win32,60,Chrome,1920,1080,,,,,,,,,,,,,,,,,2,,,,,,,,,,,,,,,,,,,,,,,,,,,802.452445,143,right,0.552815,peacock       ,5,5,1,1,1,802.468965,802.468965,804.96848,0,65,65,65,1,143,4,5,sport_tshirt,peacock       ,html/resources/sequences_IDs/B/07_sport_tshirt.jpg,html/resources/sequences_IDs/A/05_peacock.jpg,7,5,3,2,2,1,6,4,0,80,,,,,,,,,,,,,,,,,,,,
,,,,,80,2020-07-04_19h39.56.987,retriever_ti,2020.1.3,Win32,60,Chrome,1920,1080,,,,,,,,,,,,,,,,,2,,,,,,,,,,,,,,,,,,,,,,,,,,,806.0688,144,left,0.978435,dolphin     ,2,2,-4,0,3,806.08589,806.08589,808.585235,0,66,66,66,1,144,2,6,dolphin     ,holdfast    ,html/resources/sequences_IDs/B/02_dolphin.jpg,html/resources/sequences_IDs/B/04_holdfast.jpg,2,4,1,1,2,1,2,3,0,80,,,,,,,,,,,,,,,,,,,,
,,,,,80,2020-07-04_19h39.56.987,retriever_ti,2020.1.3,Win32,60,Chrome,1920,1080,,,,,,,,,,,,,,,,,2,,,,,,,,,,,,,,,,,,,,,,,,,,,809.2024,145,left,1.479795,satellite_dish,7,10,4,1,3,809.235885,809.235885,811.73533,0,67,67,67,1,145,7,3,satellite_dish,scarf         ,html/resources/sequences_IDs/A/10_satellite_dish.jpg,html/resources/sequences_IDs/A/06_scarf.jpg,10,6,4,2,3,2,8,5,0,80,,,,,,,,,,,,,,,,,,,,
,,,,,80,2020-07-04_19h39.56.987,retriever_ti,2020.1.3,Win32,60,Chrome,1920,1080,,,,,,,,,,,,,,,,,2,,,,,,,,,,,,,,,,,,,,,,,,,,,812.352555,146,left,0.97353,wolf          ,1,1,-2,0,3,812.385975,812.385975,814.885375,0,68,68,68,1,146,1,3,wolf          ,scarf         ,html/resources/sequences_IDs/A/01_wolf.jpg,html/resources/sequences_IDs/A/06_scarf.jpg,1,6,1,1,3,2,1,5,0,80,,,,,,,,,,,,,,,,,,,,
,,,,,80,2020-07-04_19h39.56.987,retriever_ti,2020.1.3,Win32,60,Chrome,1920,1080,,,,,,,,,,,,,,,,,2,,,,,,,,,,,,,,,,,,,,,,,,,,,815.50222,147,right,0.856545,wolf          ,1,1,-2,0,3,815.535985,815.535985,818.03537,0,69,69,69,1,147,3,1,scarf         ,wolf          ,html/resources/sequences_IDs/A/06_scarf.jpg,html/resources/sequences_IDs/A/01_wolf.jpg,6,1,3,2,1,1,5,1,0,80,,,,,,,,,,,,,,,,,,,,
,,,,,80,2020-07-04_19h39.56.987,retriever_ti,2020.1.3,Win32,60,Chrome,1920,1080,,,,,,,,,,,,,,,,,2,,,,,,,,,,,,,,,,,,,,,,,,,,,818.65275,148,right,0.89111,sport_tshirt,4,7,1,1,0,818.68593,818.68593,821.18546,0,70,70,70,1,148,3,4,scarf         ,sport_tshirt,html/resources/sequences_IDs/A/06_scarf.jpg,html/resources/sequences_IDs/B/07_sport_tshirt.jpg,6,7,3,2,3,2,5,6,1,80,,,,,,,,,,,,,,,,,,,,
,,,,,80,2020-07-04_19h39.56.987,retriever_ti,2020.1.3,Win32,60,Chrome,1920,1080,,,,,,,,,,,,,,,,,2,,,,,,,,,,,,,,,,,,,,,,,,,,,822.28586,149,left,0.746005,dolphin     ,2,2,-1,0,0,822.319465,822.319465,824.81896,0,71,71,71,1,149,2,3,dolphin     ,scarf         ,html/resources/sequences_IDs/B/02_dolphin.jpg,html/resources/sequences_IDs/A/06_scarf.jpg,2,6,1,1,3,2,2,5,0,80,,,,,,,,,,,,,,,,,,,,
,,,,,80,2020-07-04_19h39.56.987,retriever_ti,2020.1.3,Win32,60,Chrome,1920,1080,,,,,,,,,,,,,,,,,2,,,,,,,,,,,,,,,,,,,,,,,,,,,825.919105,150,left,1.040125,dolphin     ,2,2,-5,0,3,825.93614,825.93614,828.435515,0,72,72,72,1,150,2,7,dolphin     ,satellite_dish,html/resources/sequences_IDs/B/02_dolphin.jpg,html/resources/sequences_IDs/A/10_satellite_dish.jpg,2,10,1,1,4,2,2,8,0,80,,,,,,,,,,,,,,,,,,,,
,,,,,80,2020-07-04_19h39.56.987,retriever_ti,2020.1.3,Win32,60,Chrome,1920,1080,,,,,,,,,,,,,,,,,2,,,,,,,,,,,,,,,,,,,,,,,,,,,829.05273,151,left,0.82793,sport_tshirt,4,7,-2,0,3,829.069565,829.069565,831.56896,0,73,73,73,1,151,4,6,sport_tshirt,holdfast    ,html/resources/sequences_IDs/B/07_sport_tshirt.jpg,html/resources/sequences_IDs/B/04_holdfast.jpg,7,4,3,2,2,1,6,3,0,80,,,,,,,,,,,,,,,,,,,,
,,,,,80,2020-07-04_19h39.56.987,retriever_ti,2020.1.3,Win32,60,Chrome,1920,1080,,,,,,,,,,,,,,,,,2,,,,,,,,,,,,,,,,,,,,,,,,,,,832.169275,152,right,0.835805,peacock       ,5,5,-2,0,3,832.202845,832.202845,834.70214,0,74,74,74,1,152,7,5,satellite_dish,peacock       ,html/resources/sequences_IDs/A/10_satellite_dish.jpg,html/resources/sequences_IDs/A/05_peacock.jpg,10,5,4,2,2,1,8,4,0,80,,,,,,,,,,,,,,,,,,,,
,,,,,80,2020-07-04_19h39.56.987,retriever_ti,2020.1.3,Win32,60,Chrome,1920,1080,,,,,,,,,,,,,,,,,2,,,,,,,,,,,,,,,,,,,,,,,,,,,835.319555,153,right,0.91604,dolphin     ,2,2,1,1,1,835.35304,835.35304,837.852385,0,75,75,75,1,153,1,2,wolf          ,dolphin     ,html/resources/sequences_IDs/A/01_wolf.jpg,html/resources/sequences_IDs/B/02_dolphin.jpg,1,2,1,1,1,1,1,2,0,80,,,,,,,,,,,,,,,,,,,,
,,,,,80,2020-07-04_19h39.56.987,retriever_ti,2020.1.3,Win32,60,Chrome,1920,1080,,,,,,,,,,,,,,,,,2,,,,,,,,,,,,,,,,,,,,,,,,,,,838.952845,154,right,0.798915,dolphin     ,2,2,-5,0,3,838.986275,838.986275,841.48579,0,76,76,76,1,154,7,2,satellite_dish,dolphin     ,html/resources/sequences_IDs/A/10_satellite_dish.jpg,html/resources/sequences_IDs/B/02_dolphin.jpg,10,2,4,2,1,1,8,2,0,80,,,,,,,,,,,,,,,,,,,,
,,,,,80,2020-07-04_19h39.56.987,retriever_ti,2020.1.3,Win32,60,Chrome,1920,1080,,,,,,,,,,,,,,,,,,,,,,,,,,,,,,,,,,,,,0,1.53941,,,,,,,,,,,,,,,,,,,,,,,,,,,,,,,,,,,,,,,,,1,0,1,0,1,,,,,,,,,,,,,,,
,,,,,80,2020-07-04_19h39.56.987,retriever_ti,2020.1.3,Win32,60,Chrome,1920,1080,,,,,,,,,,,,,,,,,3,,,,,,,,,,,,,,,,,,,,,,,,,,,851.465015,155,left,1.12431,peacock       ,5,5,1,1,1,851.469925,851.469925,853.96931,0,0,0,0,1,155,5,4,peacock       ,sport_tshirt,html/resources/sequences_IDs/A/05_peacock.jpg,html/resources/sequences_IDs/B/07_sport_tshirt.jpg,5,7,2,1,3,2,4,6,0,80,,,,,,,,,,,,,,,,,,,,
,,,,,80,2020-07-04_19h39.56.987,retriever_ti,2020.1.3,Win32,60,Chrome,1920,1080,,,,,,,,,,,,,,,,,3,,,,,,,,,,,,,,,,,,,,,,,,,,,855.069845,156,left,0.909205,wolf          ,1,1,-6,0,3,855.08698,855.08698,857.58598,0,1,1,1,1,156,1,7,wolf          ,satellite_dish,html/resources/sequences_IDs/A/01_wolf.jpg,html/resources/sequences_IDs/A/10_satellite_dish.jpg,1,10,1,1,4,2,1,8,0,80,,,,,,,,,,,,,,,,,,,,
,,,,,80,2020-07-04_19h39.56.987,retriever_ti,2020.1.3,Win32,60,Chrome,1920,1080,,,,,,,,,,,,,,,,,3,,,,,,,,,,,,,,,,,,,,,,,,,,,858.203225,157,right,0.587565,scarf         ,3,6,1,1,1,858.219965,858.219965,860.719325,0,2,2,2,1,157,2,3,dolphin     ,scarf         ,html/resources/sequences_IDs/B/02_dolphin.jpg,html/resources/sequences_IDs/A/06_scarf.jpg,2,6,1,1,3,2,2,5,0,80,,,,,,,,,,,,,,,,,,,,
,,,,,80,2020-07-04_19h39.56.987,retriever_ti,2020.1.3,Win32,60,Chrome,1920,1080,,,,,,,,,,,,,,,,,3,,,,,,,,,,,,,,,,,,,,,,,,,,,861.81991,158,right,1.378705,holdfast    ,6,4,-1,0,0,861.853345,861.853345,864.35273,0,3,3,3,1,158,7,6,satellite_dish,holdfast    ,html/resources/sequences_IDs/A/10_satellite_dish.jpg,html/resources/sequences_IDs/B/04_holdfast.jpg,10,4,4,2,2,1,8,3,0,80,,,,,,,,,,,,,,,,,,,,
,,,,,80,2020-07-04_19h39.56.987,retriever_ti,2020.1.3,Win32,60,Chrome,1920,1080,,,,,,,,,,,,,,,,,3,,,,,,,,,,,,,,,,,,,,,,,,,,,865.453425,159,right,1.129035,scarf         ,3,6,-3,0,3,865.47015,865.47015,867.969395,0,4,4,4,1,159,6,3,holdfast    ,scarf         ,html/resources/sequences_IDs/B/04_holdfast.jpg,html/resources/sequences_IDs/A/06_scarf.jpg,4,6,2,1,3,2,3,5,0,80,,,,,,,,,,,,,,,,,,,,
,,,,,80,2020-07-04_19h39.56.987,retriever_ti,2020.1.3,Win32,60,Chrome,1920,1080,,,,,,,,,,,,,,,,,3,,,,,,,,,,,,,,,,,,,,,,,,,,,868.58665,160,right,0.72871,dolphin     ,2,2,-2,0,3,868.62008,868.62008,871.119435,0,5,5,5,1,160,4,2,sport_tshirt,dolphin     ,html/resources/sequences_IDs/B/07_sport_tshirt.jpg,html/resources/sequences_IDs/B/02_dolphin.jpg,7,2,3,2,1,1,6,2,0,80,,,,,,,,,,,,,,,,,,,,
,,,,,80,2020-07-04_19h39.56.987,retriever_ti,2020.1.3,Win32,60,Chrome,1920,1080,,,,,,,,,,,,,,,,,3,,,,,,,,,,,,,,,,,,,,,,,,,,,871.719805,161,right,0.77216,dolphin     ,2,2,-5,0,3,871.736675,871.736675,874.236185,0,6,6,6,1,161,7,2,satellite_dish,dolphin     ,html/resources/sequences_IDs/A/10_satellite_dish.jpg,html/resources/sequences_IDs/B/02_dolphin.jpg,10,2,4,2,1,1,8,2,0,80,,,,,,,,,,,,,,,,,,,,
,,,,,80,2020-07-04_19h39.56.987,retriever_ti,2020.1.3,Win32,60,Chrome,1920,1080,,,,,,,,,,,,,,,,,3,,,,,,,,,,,,,,,,,,,,,,,,,,,874.85342,162,left,0.6443,scarf         ,3,6,-3,0,3,874.88708,874.88708,877.386285,0,7,7,7,1,162,3,6,scarf         ,holdfast    ,html/resources/sequences_IDs/A/06_scarf.jpg,html/resources/sequences_IDs/B/04_holdfast.jpg,6,4,3,2,2,1,5,3,0,80,,,,,,,,,,,,,,,,,,,,
,,,,,80,2020-07-04_19h39.56.987,retriever_ti,2020.1.3,Win32,60,Chrome,1920,1080,,,,,,,,,,,,,,,,,3,,,,,,,,,,,,,,,,,,,,,,,,,,,878.00349,163,left,0.50571,scarf         ,3,6,-2,0,3,878.037,878.037,880.536255,0,8,8,8,1,163,3,5,scarf         ,peacock       ,html/resources/sequences_IDs/A/06_scarf.jpg,html/resources/sequences_IDs/A/05_peacock.jpg,6,5,3,2,2,1,5,4,0,80,,,,,,,,,,,,,,,,,,,,
,,,,,80,2020-07-04_19h39.56.987,retriever_ti,2020.1.3,Win32,60,Chrome,1920,1080,,,,,,,,,,,,,,,,,3,,,,,,,,,,,,,,,,,,,,,,,,,,,881.153235,164,right,1.57848,slipper     ,8,8,1,1,1,881.18718,881.18718,883.68641,0,9,9,9,1,164,7,8,satellite_dish,slipper     ,html/resources/sequences_IDs/A/10_satellite_dish.jpg,html/resources/sequences_IDs/B/08_slipper.jpg,10,8,4,2,3,2,8,7,0,80,,,,,,,,,,,,,,,,,,,,
,,,,,80,2020-07-04_19h39.56.987,retriever_ti,2020.1.3,Win32,60,Chrome,1920,1080,,,,,,,,,,,,,,,,,3,,,,,,,,,,,,,,,,,,,,,,,,,,,884.787285,165,left,1.816155,wolf          ,1,1,-5,0,3,884.803605,884.803605,887.303135,0,10,10,10,1,165,1,6,wolf          ,holdfast    ,html/resources/sequences_IDs/A/01_wolf.jpg,html/resources/sequences_IDs/B/04_holdfast.jpg,1,4,1,1,2,1,1,3,0,80,,,,,,,,,,,,,,,,,,,,
,,,,,80,2020-07-04_19h39.56.987,retriever_ti,2020.1.3,Win32,60,Chrome,1920,1080,,,,,,,,,,,,,,,,,3,,,,,,,,,,,,,,,,,,,,,,,,,,,887.920055,166,left,1.22825,peacock       ,5,5,1,1,0,887.93703,887.93703,890.436495,0,11,11,11,1,166,5,4,peacock       ,sport_tshirt,html/resources/sequences_IDs/A/05_peacock.jpg,html/resources/sequences_IDs/B/07_sport_tshirt.jpg,5,7,2,1,3,2,4,6,1,80,,,,,,,,,,,,,,,,,,,,
,,,,,80,2020-07-04_19h39.56.987,retriever_ti,2020.1.3,Win32,60,Chrome,1920,1080,,,,,,,,,,,,,,,,,3,,,,,,,,,,,,,,,,,,,,,,,,,,,891.53687,167,left,1.19084,wolf          ,1,1,-7,0,3,891.5538,891.5538,894.053215,0,12,12,12,1,167,1,8,wolf          ,slipper     ,html/resources/sequences_IDs/A/01_wolf.jpg,html/resources/sequences_IDs/B/08_slipper.jpg,1,8,1,1,3,2,1,7,0,80,,,,,,,,,,,,,,,,,,,,
,,,,,80,2020-07-04_19h39.56.987,retriever_ti,2020.1.3,Win32,60,Chrome,1920,1080,,,,,,,,,,,,,,,,,3,,,,,,,,,,,,,,,,,,,,,,,,,,,894.67047,168,left,0.71891,slipper     ,8,8,1,1,1,894.68739,894.68739,897.18671,0,13,13,13,1,168,8,7,slipper     ,satellite_dish,html/resources/sequences_IDs/B/08_slipper.jpg,html/resources/sequences_IDs/A/10_satellite_dish.jpg,8,10,3,2,4,2,7,8,0,80,,,,,,,,,,,,,,,,,,,,
,,,,,80,2020-07-04_19h39.56.987,retriever_ti,2020.1.3,Win32,60,Chrome,1920,1080,,,,,,,,,,,,,,,,,3,,,,,,,,,,,,,,,,,,,,,,,,,,,898.28706,169,right,1.144015,dolphin     ,2,2,1,1,1,898.320485,898.320485,900.819935,0,14,14,14,1,169,1,2,wolf          ,dolphin     ,html/resources/sequences_IDs/A/01_wolf.jpg,html/resources/sequences_IDs/B/02_dolphin.jpg,1,2,1,1,1,1,1,2,0,80,,,,,,,,,,,,,,,,,,,,
,,,,,80,2020-07-04_19h39.56.987,retriever_ti,2020.1.3,Win32,60,Chrome,1920,1080,,,,,,,,,,,,,,,,,3,,,,,,,,,,,,,,,,,,,,,,,,,,,901.92028,170,left,0.602695,scarf         ,3,6,-5,0,3,901.93724,901.93724,904.4367,0,15,15,15,1,170,3,8,scarf         ,slipper     ,html/resources/sequences_IDs/A/06_scarf.jpg,html/resources/sequences_IDs/B/08_slipper.jpg,6,8,3,2,3,2,5,7,0,80,,,,,,,,,,,,,,,,,,,,
,,,,,80,2020-07-04_19h39.56.987,retriever_ti,2020.1.3,Win32,60,Chrome,1920,1080,,,,,,,,,,,,,,,,,3,,,,,,,,,,,,,,,,,,,,,,,,,,,905.053555,171,left,1.3543,sport_tshirt,4,7,-3,0,3,905.07049,905.07049,907.570005,0,16,16,16,1,171,4,7,sport_tshirt,satellite_dish,html/resources/sequences_IDs/B/07_sport_tshirt.jpg,html/resources/sequences_IDs/A/10_satellite_dish.jpg,7,10,3,2,4,2,6,8,0,80,,,,,,,,,,,,,,,,,,,,
,,,,,80,2020-07-04_19h39.56.987,retriever_ti,2020.1.3,Win32,60,Chrome,1920,1080,,,,,,,,,,,,,,,,,3,,,,,,,,,,,,,,,,,,,,,,,,,,,908.18726,172,left,1.29629,peacock       ,5,5,4,1,3,908.203955,908.203955,910.70333,0,17,17,17,1,172,5,1,peacock       ,wolf          ,html/resources/sequences_IDs/A/05_peacock.jpg,html/resources/sequences_IDs/A/01_wolf.jpg,5,1,2,1,1,1,4,1,0,80,,,,,,,,,,,,,,,,,,,,
,,,,,80,2020-07-04_19h39.56.987,retriever_ti,2020.1.3,Win32,60,Chrome,1920,1080,,,,,,,,,,,,,,,,,3,,,,,,,,,,,,,,,,,,,,,,,,,,,911.320395,173,right,0.9499,peacock       ,5,5,4,1,3,911.354055,911.354055,913.853585,0,18,18,18,1,173,1,5,wolf          ,peacock       ,html/resources/sequences_IDs/A/01_wolf.jpg,html/resources/sequences_IDs/A/05_peacock.jpg,1,5,1,1,2,1,1,4,0,80,,,,,,,,,,,,,,,,,,,,
,,,,,80,2020-07-04_19h39.56.987,retriever_ti,2020.1.3,Win32,60,Chrome,1920,1080,,,,,,,,,,,,,,,,,3,,,,,,,,,,,,,,,,,,,,,,,,,,,914.470685,174,left,0.56459,dolphin     ,2,2,-3,0,3,914.504215,914.504215,917.00365,0,19,19,19,1,174,2,5,dolphin     ,peacock       ,html/resources/sequences_IDs/B/02_dolphin.jpg,html/resources/sequences_IDs/A/05_peacock.jpg,2,5,1,1,2,1,2,4,0,80,,,,,,,,,,,,,,,,,,,,
,,,,,80,2020-07-04_19h39.56.987,retriever_ti,2020.1.3,Win32,60,Chrome,1920,1080,,,,,,,,,,,,,,,,,3,,,,,,,,,,,,,,,,,,,,,,,,,,,917.62061,175,right,1.737795,holdfast    ,6,4,-1,0,0,917.63758,917.63758,920.137105,0,20,20,20,1,175,7,6,satellite_dish,holdfast    ,html/resources/sequences_IDs/A/10_satellite_dish.jpg,html/resources/sequences_IDs/B/04_holdfast.jpg,10,4,4,2,2,1,8,3,0,80,,,,,,,,,,,,,,,,,,,,
,,,,,80,2020-07-04_19h39.56.987,retriever_ti,2020.1.3,Win32,60,Chrome,1920,1080,,,,,,,,,,,,,,,,,3,,,,,,,,,,,,,,,,,,,,,,,,,,,921.237415,176,left,1.257575,peacock       ,5,5,1,1,1,921.254215,921.254215,923.75366,0,21,21,21,1,176,5,4,peacock       ,sport_tshirt,html/resources/sequences_IDs/A/05_peacock.jpg,html/resources/sequences_IDs/B/07_sport_tshirt.jpg,5,7,2,1,3,2,4,6,0,80,,,,,,,,,,,,,,,,,,,,
,,,,,80,2020-07-04_19h39.56.987,retriever_ti,2020.1.3,Win32,60,Chrome,1920,1080,,,,,,,,,,,,,,,,,3,,,,,,,,,,,,,,,,,,,,,,,,,,,924.854125,177,right,0.82021,scarf         ,3,6,2,1,3,924.870935,924.870935,927.370285,0,22,22,22,1,177,1,3,wolf          ,scarf         ,html/resources/sequences_IDs/A/01_wolf.jpg,html/resources/sequences_IDs/A/06_scarf.jpg,1,6,1,1,3,2,1,5,0,80,,,,,,,,,,,,,,,,,,,,
,,,,,80,2020-07-04_19h39.56.987,retriever_ti,2020.1.3,Win32,60,Chrome,1920,1080,,,,,,,,,,,,,,,,,3,,,,,,,,,,,,,,,,,,,,,,,,,,,927.97088,178,right,0.88085,peacock       ,5,5,-1,0,1,927.987625,927.987625,930.48695,0,23,23,23,1,178,6,5,holdfast    ,peacock       ,html/resources/sequences_IDs/B/04_holdfast.jpg,html/resources/sequences_IDs/A/05_peacock.jpg,4,5,2,1,2,1,3,4,1,80,,,,,,,,,,,,,,,,,,,,
,,,,,80,2020-07-04_19h39.56.987,retriever_ti,2020.1.3,Win32,60,Chrome,1920,1080,,,,,,,,,,,,,,,,,3,,,,,,,,,,,,,,,,,,,,,,,,,,,931.587495,179,left,1.84037,slipper     ,8,8,2,1,3,931.60429,931.60429,934.10376,0,24,24,24,1,179,8,6,slipper     ,holdfast    ,html/resources/sequences_IDs/B/08_slipper.jpg,html/resources/sequences_IDs/B/04_holdfast.jpg,8,4,3,2,2,1,7,3,0,80,,,,,,,,,,,,,,,,,,,,
,,,,,80,2020-07-04_19h39.56.987,retriever_ti,2020.1.3,Win32,60,Chrome,1920,1080,,,,,,,,,,,,,,,,,3,,,,,,,,,,,,,,,,,,,,,,,,,,,934.72095,180,left,0.912365,scarf         ,3,6,1,1,1,934.737855,934.737855,937.237195,0,25,25,25,1,180,3,2,scarf         ,dolphin     ,html/resources/sequences_IDs/A/06_scarf.jpg,html/resources/sequences_IDs/B/02_dolphin.jpg,6,2,3,2,1,1,5,2,0,80,,,,,,,,,,,,,,,,,,,,
,,,,,80,2020-07-04_19h39.56.987,retriever_ti,2020.1.3,Win32,60,Chrome,1920,1080,,,,,,,,,,,,,,,,,3,,,,,,,,,,,,,,,,,,,,,,,,,,,938.33775,181,right,0.684295,dolphin     ,2,2,-6,0,3,938.3712,938.3712,940.870495,0,26,26,26,1,181,8,2,slipper     ,dolphin     ,html/resources/sequences_IDs/B/08_slipper.jpg,html/resources/sequences_IDs/B/02_dolphin.jpg,8,2,3,2,1,1,7,2,0,80,,,,,,,,,,,,,,,,,,,,
,,,,,80,2020-07-04_19h39.56.987,retriever_ti,2020.1.3,Win32,60,Chrome,1920,1080,,,,,,,,,,,,,,,,,3,,,,,,,,,,,,,,,,,,,,,,,,,,,941.48739,182,left,0.585325,peacock       ,5,5,-1,0,0,941.504395,941.504395,944.00389,0,27,27,27,1,182,5,6,peacock       ,holdfast    ,html/resources/sequences_IDs/A/05_peacock.jpg,html/resources/sequences_IDs/B/04_holdfast.jpg,5,4,2,1,2,1,4,3,0,80,,,,,,,,,,,,,,,,,,,,
,,,,,80,2020-07-04_19h39.56.987,retriever_ti,2020.1.3,Win32,60,Chrome,1920,1080,,,,,,,,,,,,,,,,,3,,,,,,,,,,,,,,,,,,,,,,,,,,,945.10452,183,left,0.83989,dolphin     ,2,2,-2,0,3,945.137795,945.137795,947.6373,0,28,28,28,1,183,2,4,dolphin     ,sport_tshirt,html/resources/sequences_IDs/B/02_dolphin.jpg,html/resources/sequences_IDs/B/07_sport_tshirt.jpg,2,7,1,1,3,2,2,6,0,80,,,,,,,,,,,,,,,,,,,,
,,,,,80,2020-07-04_19h39.56.987,retriever_ti,2020.1.3,Win32,60,Chrome,1920,1080,,,,,,,,,,,,,,,,,3,,,,,,,,,,,,,,,,,,,,,,,,,,,948.25458,184,left,0.90975,sport_tshirt,4,7,-2,0,3,948.28801,948.28801,950.787295,0,29,29,29,1,184,4,6,sport_tshirt,holdfast    ,html/resources/sequences_IDs/B/07_sport_tshirt.jpg,html/resources/sequences_IDs/B/04_holdfast.jpg,7,4,3,2,2,1,6,3,0,80,,,,,,,,,,,,,,,,,,,,
,,,,,80,2020-07-04_19h39.56.987,retriever_ti,2020.1.3,Win32,60,Chrome,1920,1080,,,,,,,,,,,,,,,,,3,,,,,,,,,,,,,,,,,,,,,,,,,,,951.4043,185,left,0.875995,peacock       ,5,5,-3,0,3,951.421395,951.421395,953.920695,0,30,30,30,1,185,5,8,peacock       ,slipper     ,html/resources/sequences_IDs/A/05_peacock.jpg,html/resources/sequences_IDs/B/08_slipper.jpg,5,8,2,1,3,2,4,7,0,80,,,,,,,,,,,,,,,,,,,,
,,,,,80,2020-07-04_19h39.56.987,retriever_ti,2020.1.3,Win32,60,Chrome,1920,1080,,,,,,,,,,,,,,,,,3,,,,,,,,,,,,,,,,,,,,,,,,,,,954.537895,186,right,0.71313,dolphin     ,2,2,1,1,0,954.554745,954.554745,957.05412,0,31,31,31,1,186,1,2,wolf          ,dolphin     ,html/resources/sequences_IDs/A/01_wolf.jpg,html/resources/sequences_IDs/B/02_dolphin.jpg,1,2,1,1,1,1,1,2,1,80,,,,,,,,,,,,,,,,,,,,
,,,,,80,2020-07-04_19h39.56.987,retriever_ti,2020.1.3,Win32,60,Chrome,1920,1080,,,,,,,,,,,,,,,,,3,,,,,,,,,,,,,,,,,,,,,,,,,,,958.15456,187,right,0.681245,sport_tshirt,4,7,-3,0,3,958.17132,958.17132,960.670935,0,32,32,32,1,187,7,4,satellite_dish,sport_tshirt,html/resources/sequences_IDs/A/10_satellite_dish.jpg,html/resources/sequences_IDs/B/07_sport_tshirt.jpg,10,7,4,2,3,2,8,6,0,80,,,,,,,,,,,,,,,,,,,,
,,,,,80,2020-07-04_19h39.56.987,retriever_ti,2020.1.3,Win32,60,Chrome,1920,1080,,,,,,,,,,,,,,,,,3,,,,,,,,,,,,,,,,,,,,,,,,,,,961.28778,188,left,0.736595,satellite_dish,7,10,-1,0,0,961.30482,961.30482,963.804185,0,33,33,33,1,188,7,8,satellite_dish,slipper     ,html/resources/sequences_IDs/A/10_satellite_dish.jpg,html/resources/sequences_IDs/B/08_slipper.jpg,10,8,4,2,3,2,8,7,0,80,,,,,,,,,,,,,,,,,,,,
,,,,,80,2020-07-04_19h39.56.987,retriever_ti,2020.1.3,Win32,60,Chrome,1920,1080,,,,,,,,,,,,,,,,,3,,,,,,,,,,,,,,,,,,,,,,,,,,,964.90475,189,right,1.279605,wolf          ,1,1,-7,0,3,964.938065,964.938065,967.43759,0,34,34,34,1,189,8,1,slipper     ,wolf          ,html/resources/sequences_IDs/B/08_slipper.jpg,html/resources/sequences_IDs/A/01_wolf.jpg,8,1,3,2,1,1,7,1,0,80,,,,,,,,,,,,,,,,,,,,
,,,,,80,2020-07-04_19h39.56.987,retriever_ti,2020.1.3,Win32,60,Chrome,1920,1080,,,,,,,,,,,,,,,,,3,,,,,,,,,,,,,,,,,,,,,,,,,,,968.05477,190,right,0.61319,peacock       ,5,5,1,1,1,968.07151,968.07151,970.571,0,35,35,35,1,190,4,5,sport_tshirt,peacock       ,html/resources/sequences_IDs/B/07_sport_tshirt.jpg,html/resources/sequences_IDs/A/05_peacock.jpg,7,5,3,2,2,1,6,4,0,80,,,,,,,,,,,,,,,,,,,,
,,,,,80,2020-07-04_19h39.56.987,retriever_ti,2020.1.3,Win32,60,Chrome,1920,1080,,,,,,,,,,,,,,,,,3,,,,,,,,,,,,,,,,,,,,,,,,,,,971.67115,191,right,0.876355,peacock       ,5,5,1,1,1,971.688245,971.688245,974.187755,0,36,36,36,1,191,4,5,sport_tshirt,peacock       ,html/resources/sequences_IDs/B/07_sport_tshirt.jpg,html/resources/sequences_IDs/A/05_peacock.jpg,7,5,3,2,2,1,6,4,0,80,,,,,,,,,,,,,,,,,,,,
,,,,,80,2020-07-04_19h39.56.987,retriever_ti,2020.1.3,Win32,60,Chrome,1920,1080,,,,,,,,,,,,,,,,,3,,,,,,,,,,,,,,,,,,,,,,,,,,,975.288305,192,left,1.15424,scarf         ,3,6,1,1,1,975.321575,975.321575,977.821045,0,37,37,37,1,192,3,2,scarf         ,dolphin     ,html/resources/sequences_IDs/A/06_scarf.jpg,html/resources/sequences_IDs/B/02_dolphin.jpg,6,2,3,2,1,1,5,2,0,80,,,,,,,,,,,,,,,,,,,,
,,,,,80,2020-07-04_19h39.56.987,retriever_ti,2020.1.3,Win32,60,Chrome,1920,1080,,,,,,,,,,,,,,,,,3,,,,,,,,,,,,,,,,,,,,,,,,,,,978.921615,193,left,1.082155,holdfast    ,6,4,-1,0,0,978.938435,978.938435,981.43777,0,38,38,38,1,193,6,7,holdfast    ,satellite_dish,html/resources/sequences_IDs/B/04_holdfast.jpg,html/resources/sequences_IDs/A/10_satellite_dish.jpg,4,10,2,1,4,2,3,8,0,80,,,,,,,,,,,,,,,,,,,,
,,,,,80,2020-07-04_19h39.56.987,retriever_ti,2020.1.3,Win32,60,Chrome,1920,1080,,,,,,,,,,,,,,,,,3,,,,,,,,,,,,,,,,,,,,,,,,,,,982.538325,194,left,0.66654,scarf         ,3,6,-1,0,0,982.55502,982.55502,985.05457,0,39,39,39,1,194,3,4,scarf         ,sport_tshirt,html/resources/sequences_IDs/A/06_scarf.jpg,html/resources/sequences_IDs/B/07_sport_tshirt.jpg,6,7,3,2,3,2,5,6,0,80,,,,,,,,,,,,,,,,,,,,
,,,,,80,2020-07-04_19h39.56.987,retriever_ti,2020.1.3,Win32,60,Chrome,1920,1080,,,,,,,,,,,,,,,,,3,,,,,,,,,,,,,,,,,,,,,,,,,,,986.15499,195,right,1.32297,scarf         ,3,6,1,1,0,986.188395,986.188395,988.688,0,40,40,40,1,195,2,3,dolphin     ,scarf         ,html/resources/sequences_IDs/B/02_dolphin.jpg,html/resources/sequences_IDs/A/06_scarf.jpg,2,6,1,1,3,2,2,5,1,80,,,,,,,,,,,,,,,,,,,,
,,,,,80,2020-07-04_19h39.56.987,retriever_ti,2020.1.3,Win32,60,Chrome,1920,1080,,,,,,,,,,,,,,,,,3,,,,,,,,,,,,,,,,,,,,,,,,,,,989.788195,196,left,1.30237,scarf         ,3,6,-1,0,1,989.822,989.822,992.321325,0,41,41,41,1,196,3,4,scarf         ,sport_tshirt,html/resources/sequences_IDs/A/06_scarf.jpg,html/resources/sequences_IDs/B/07_sport_tshirt.jpg,6,7,3,2,3,2,5,6,1,80,,,,,,,,,,,,,,,,,,,,
,,,,,80,2020-07-04_19h39.56.987,retriever_ti,2020.1.3,Win32,60,Chrome,1920,1080,,,,,,,,,,,,,,,,,3,,,,,,,,,,,,,,,,,,,,,,,,,,,993.421745,197,right,1.68503,wolf          ,1,1,-3,0,3,993.438655,993.438655,995.93796,0,42,42,42,1,197,4,1,sport_tshirt,wolf          ,html/resources/sequences_IDs/B/07_sport_tshirt.jpg,html/resources/sequences_IDs/A/01_wolf.jpg,7,1,3,2,1,1,6,1,0,80,,,,,,,,,,,,,,,,,,,,
,,,,,80,2020-07-04_19h39.56.987,retriever_ti,2020.1.3,Win32,60,Chrome,1920,1080,,,,,,,,,,,,,,,,,3,,,,,,,,,,,,,,,,,,,,,,,,,,,996.538585,198,left,1.452235,holdfast    ,6,4,2,1,3,996.555365,996.555365,999.05471,0,43,43,43,1,198,6,4,holdfast    ,sport_tshirt,html/resources/sequences_IDs/B/04_holdfast.jpg,html/resources/sequences_IDs/B/07_sport_tshirt.jpg,4,7,2,1,3,2,3,6,0,80,,,,,,,,,,,,,,,,,,,,
,,,,,80,2020-07-04_19h39.56.987,retriever_ti,2020.1.3,Win32,60,Chrome,1920,1080,,,,,,,,,,,,,,,,,3,,,,,,,,,,,,,,,,,,,,,,,,,,,999.67167,199,left,1.350925,holdfast    ,6,4,-1,0,1,999.68873,999.68873,1002.188135,0,44,44,44,1,199,6,7,holdfast    ,satellite_dish,html/resources/sequences_IDs/B/04_holdfast.jpg,html/resources/sequences_IDs/A/10_satellite_dish.jpg,4,10,2,1,4,2,3,8,1,80,,,,,,,,,,,,,,,,,,,,
,,,,,80,2020-07-04_19h39.56.987,retriever_ti,2020.1.3,Win32,60,Chrome,1920,1080,,,,,,,,,,,,,,,,,3,,,,,,,,,,,,,,,,,,,,,,,,,,,1003.288725,200,left,0.697935,scarf         ,3,6,2,1,3,1003.30535,1003.30535,1005.80481,0,45,45,45,1,200,3,1,scarf         ,wolf          ,html/resources/sequences_IDs/A/06_scarf.jpg,html/resources/sequences_IDs/A/01_wolf.jpg,6,1,3,2,1,1,5,1,0,80,,,,,,,,,,,,,,,,,,,,
,,,,,80,2020-07-04_19h39.56.987,retriever_ti,2020.1.3,Win32,60,Chrome,1920,1080,,,,,,,,,,,,,,,,,3,,,,,,,,,,,,,,,,,,,,,,,,,,,1006.422065,201,right,0.64262,peacock       ,5,5,-2,0,3,1006.43878,1006.43878,1008.938225,0,46,46,46,1,201,7,5,satellite_dish,peacock       ,html/resources/sequences_IDs/A/10_satellite_dish.jpg,html/resources/sequences_IDs/A/05_peacock.jpg,10,5,4,2,2,1,8,4,0,80,,,,,,,,,,,,,,,,,,,,
,,,,,80,2020-07-04_19h39.56.987,retriever_ti,2020.1.3,Win32,60,Chrome,1920,1080,,,,,,,,,,,,,,,,,3,,,,,,,,,,,,,,,,,,,,,,,,,,,1009.555225,202,right,0.76595,scarf         ,3,6,-1,0,0,1009.572085,1009.572085,1012.071615,0,47,47,47,1,202,4,3,sport_tshirt,scarf         ,html/resources/sequences_IDs/B/07_sport_tshirt.jpg,html/resources/sequences_IDs/A/06_scarf.jpg,7,6,3,2,3,2,6,5,0,80,,,,,,,,,,,,,,,,,,,,
,,,,,80,2020-07-04_19h39.56.987,retriever_ti,2020.1.3,Win32,60,Chrome,1920,1080,,,,,,,,,,,,,,,,,3,,,,,,,,,,,,,,,,,,,,,,,,,,,1013.172215,203,left,0.77698,dolphin     ,2,2,-4,0,3,1013.188865,1013.188865,1015.688505,0,48,48,48,1,203,2,6,dolphin     ,holdfast    ,html/resources/sequences_IDs/B/02_dolphin.jpg,html/resources/sequences_IDs/B/04_holdfast.jpg,2,4,1,1,2,1,2,3,0,80,,,,,,,,,,,,,,,,,,,,
,,,,,80,2020-07-04_19h39.56.987,retriever_ti,2020.1.3,Win32,60,Chrome,1920,1080,,,,,,,,,,,,,,,,,3,,,,,,,,,,,,,,,,,,,,,,,,,,,1016.30556,204,right,1.01075,peacock       ,5,5,-1,0,0,1016.338875,1016.338875,1018.83825,0,49,49,49,1,204,6,5,holdfast    ,peacock       ,html/resources/sequences_IDs/B/04_holdfast.jpg,html/resources/sequences_IDs/A/05_peacock.jpg,4,5,2,1,2,1,3,4,0,80,,,,,,,,,,,,,,,,,,,,
,,,,,80,2020-07-04_19h39.56.987,retriever_ti,2020.1.3,Win32,60,Chrome,1920,1080,,,,,,,,,,,,,,,,,3,,,,,,,,,,,,,,,,,,,,,,,,,,,1019.938495,205,left,1.214505,peacock       ,5,5,-1,0,0,1019.972305,1019.972305,1022.471755,0,50,50,50,1,205,5,6,peacock       ,holdfast    ,html/resources/sequences_IDs/A/05_peacock.jpg,html/resources/sequences_IDs/B/04_holdfast.jpg,5,4,2,1,2,1,4,3,0,80,,,,,,,,,,,,,,,,,,,,
,,,,,80,2020-07-04_19h39.56.987,retriever_ti,2020.1.3,Win32,60,Chrome,1920,1080,,,,,,,,,,,,,,,,,3,,,,,,,,,,,,,,,,,,,,,,,,,,,1023.572155,206,right,0.99302,scarf         ,3,6,-2,0,3,1023.588945,1023.588945,1026.088395,0,51,51,51,1,206,5,3,peacock       ,scarf         ,html/resources/sequences_IDs/A/05_peacock.jpg,html/resources/sequences_IDs/A/06_scarf.jpg,5,6,2,1,3,2,4,5,0,80,,,,,,,,,,,,,,,,,,,,
,,,,,80,2020-07-04_19h39.56.987,retriever_ti,2020.1.3,Win32,60,Chrome,1920,1080,,,,,,,,,,,,,,,,,3,,,,,,,,,,,,,,,,,,,,,,,,,,,1026.70558,207,right,0.685265,dolphin     ,2,2,1,1,1,1026.73914,1026.73914,1029.23844,0,52,52,52,1,207,1,2,wolf          ,dolphin     ,html/resources/sequences_IDs/A/01_wolf.jpg,html/resources/sequences_IDs/B/02_dolphin.jpg,1,2,1,1,1,1,1,2,0,80,,,,,,,,,,,,,,,,,,,,
,,,,,80,2020-07-04_19h39.56.987,retriever_ti,2020.1.3,Win32,60,Chrome,1920,1080,,,,,,,,,,,,,,,,,3,,,,,,,,,,,,,,,,,,,,,,,,,,,1030.33905,208,right,0.768175,peacock       ,5,5,-1,0,0,1030.372365,1030.372365,1032.871825,0,53,53,53,1,208,6,5,holdfast    ,peacock       ,html/resources/sequences_IDs/B/04_holdfast.jpg,html/resources/sequences_IDs/A/05_peacock.jpg,4,5,2,1,2,1,3,4,0,80,,,,,,,,,,,,,,,,,,,,
,,,,,80,2020-07-04_19h39.56.987,retriever_ti,2020.1.3,Win32,60,Chrome,1920,1080,,,,,,,,,,,,,,,,,3,,,,,,,,,,,,,,,,,,,,,,,,,,,1033.972075,209,right,1.5348,sport_tshirt,4,7,-4,0,3,1033.989195,1033.989195,1036.4887,0,54,54,54,1,209,8,4,slipper     ,sport_tshirt,html/resources/sequences_IDs/B/08_slipper.jpg,html/resources/sequences_IDs/B/07_sport_tshirt.jpg,8,7,3,2,3,2,7,6,0,80,,,,,,,,,,,,,,,,,,,,
,,,,,80,2020-07-04_19h39.56.987,retriever_ti,2020.1.3,Win32,60,Chrome,1920,1080,,,,,,,,,,,,,,,,,3,,,,,,,,,,,,,,,,,,,,,,,,,,,1037.105775,210,left,1.81623,wolf          ,1,1,-3,0,3,1037.122545,1037.122545,1039.622085,0,55,55,55,1,210,1,4,wolf          ,sport_tshirt,html/resources/sequences_IDs/A/01_wolf.jpg,html/resources/sequences_IDs/B/07_sport_tshirt.jpg,1,7,1,1,3,2,1,6,0,80,,,,,,,,,,,,,,,,,,,,
,,,,,80,2020-07-04_19h39.56.987,retriever_ti,2020.1.3,Win32,60,Chrome,1920,1080,,,,,,,,,,,,,,,,,3,,,,,,,,,,,,,,,,,,,,,,,,,,,1040.239185,211,left,1.383025,slipper     ,8,8,1,1,0,1040.256145,1040.256145,1042.75538,0,56,56,56,1,211,8,7,slipper     ,satellite_dish,html/resources/sequences_IDs/B/08_slipper.jpg,html/resources/sequences_IDs/A/10_satellite_dish.jpg,8,10,3,2,4,2,7,8,1,80,,,,,,,,,,,,,,,,,,,,
,,,,,80,2020-07-04_19h39.56.987,retriever_ti,2020.1.3,Win32,60,Chrome,1920,1080,,,,,,,,,,,,,,,,,3,,,,,,,,,,,,,,,,,,,,,,,,,,,1043.855705,212,right,1.132515,satellite_dish,7,10,-1,0,0,1043.889265,1043.889265,1046.38876,0,57,57,57,1,212,8,7,slipper     ,satellite_dish,html/resources/sequences_IDs/B/08_slipper.jpg,html/resources/sequences_IDs/A/10_satellite_dish.jpg,8,10,3,2,4,2,7,8,0,80,,,,,,,,,,,,,,,,,,,,
,,,,,80,2020-07-04_19h39.56.987,retriever_ti,2020.1.3,Win32,60,Chrome,1920,1080,,,,,,,,,,,,,,,,,3,,,,,,,,,,,,,,,,,,,,,,,,,,,1047.489275,213,right,1.394425,dolphin     ,2,2,-4,0,3,1047.506005,1047.506005,1050.005445,0,58,58,58,1,213,6,2,holdfast    ,dolphin     ,html/resources/sequences_IDs/B/04_holdfast.jpg,html/resources/sequences_IDs/B/02_dolphin.jpg,4,2,2,1,1,1,3,2,0,80,,,,,,,,,,,,,,,,,,,,
,,,,,80,2020-07-04_19h39.56.987,retriever_ti,2020.1.3,Win32,60,Chrome,1920,1080,,,,,,,,,,,,,,,,,3,,,,,,,,,,,,,,,,,,,,,,,,,,,1050.622685,214,right,1.171565,peacock       ,5,5,-3,0,3,1050.656135,1050.656135,1053.15565,0,59,59,59,1,214,8,5,slipper     ,peacock       ,html/resources/sequences_IDs/B/08_slipper.jpg,html/resources/sequences_IDs/A/05_peacock.jpg,8,5,3,2,2,1,7,4,0,80,,,,,,,,,,,,,,,,,,,,
,,,,,80,2020-07-04_19h39.56.987,retriever_ti,2020.1.3,Win32,60,Chrome,1920,1080,,,,,,,,,,,,,,,,,3,,,,,,,,,,,,,,,,,,,,,,,,,,,1053.77241,215,left,0.82891,dolphin     ,2,2,-5,0,3,1053.78946,1053.78946,1056.28892,0,60,60,60,1,215,2,7,dolphin     ,satellite_dish,html/resources/sequences_IDs/B/02_dolphin.jpg,html/resources/sequences_IDs/A/10_satellite_dish.jpg,2,10,1,1,4,2,2,8,0,80,,,,,,,,,,,,,,,,,,,,
,,,,,80,2020-07-04_19h39.56.987,retriever_ti,2020.1.3,Win32,60,Chrome,1920,1080,,,,,,,,,,,,,,,,,3,,,,,,,,,,,,,,,,,,,,,,,,,,,1056.90617,216,left,0.626915,dolphin     ,2,2,-6,0,3,1056.939465,1056.939465,1059.438985,0,61,61,61,1,216,2,8,dolphin     ,slipper     ,html/resources/sequences_IDs/B/02_dolphin.jpg,html/resources/sequences_IDs/B/08_slipper.jpg,2,8,1,1,3,2,2,7,0,80,,,,,,,,,,,,,,,,,,,,
,,,,,80,2020-07-04_19h39.56.987,retriever_ti,2020.1.3,Win32,60,Chrome,1920,1080,,,,,,,,,,,,,,,,,3,,,,,,,,,,,,,,,,,,,,,,,,,,,1060.056015,217,left,0.883065,peacock       ,5,5,-2,0,3,1060.08961,1060.08961,1062.58901,0,62,62,62,1,217,5,7,peacock       ,satellite_dish,html/resources/sequences_IDs/A/05_peacock.jpg,html/resources/sequences_IDs/A/10_satellite_dish.jpg,5,10,2,1,4,2,4,8,0,80,,,,,,,,,,,,,,,,,,,,
,,,,,80,2020-07-04_19h39.56.987,retriever_ti,2020.1.3,Win32,60,Chrome,1920,1080,,,,,,,,,,,,,,,,,3,,,,,,,,,,,,,,,,,,,,,,,,,,,1063.20587,218,left,1.02639,holdfast    ,6,4,-1,0,0,1063.23961,1063.23961,1065.73897,0,63,63,63,1,218,6,7,holdfast    ,satellite_dish,html/resources/sequences_IDs/B/04_holdfast.jpg,html/resources/sequences_IDs/A/10_satellite_dish.jpg,4,10,2,1,4,2,3,8,0,80,,,,,,,,,,,,,,,,,,,,
