instructionsLoop.thisRepN,instructionsLoop.thisTrialN,instructionsLoop.thisN,instructionsLoop.thisIndex,instructionsLoop.ran,participant,date,expName,psychopyVersion,OS,frameRate,browser,xResolution,yResolution,fix_onset,tprac,practiceKey.keys,practiceKey.rt,pracitem_chosen_name,acc_practice,P1_onsetPrac,P2_onsetPrac,onsetFeedbPrac,practiceTrials.thisRepN,practiceTrials.thisTrialN,practiceTrials.thisN,practiceTrials.thisIndex,practiceTrials.ran,P1,P2,Block,LocItem1,LocItem2,NameItem1,NameItem2,key_respAC_prac.keys,key_respAC_prac.corr,key_respAC_prac.rt,AC_acc,Attentions.thisRepN,Attentions.thisTrialN,Attentions.thisN,Attentions.thisIndex,Attentions.ran,Stim,Loc1,Loc2,Loc3,Loc4,CorrAns,keyDisturbed.keys,keyDisturbed.rt,repPractice.thisRepN,repPractice.thisTrialN,repPractice.thisN,repPractice.thisIndex,repPractice.ran,fixcross_onsetMain,trialNumber,key_resp.keys,key_resp.rt,item_chosen_name,item_chosen_value,item_chosen_ID,diff_chosen_minus_reject,acc_real,acc_feedback,P1_onset,P2_onset,feedb_onset,trials.thisRepN,trials.thisTrialN,trials.thisN,trials.thisIndex,trials.ran,Trial,ValueP1,ValueP2,P1name,P2name,P1Loc,P2Loc,P1id,P2id,Micro_categoryP1,Macro_categoryP1,Micro_categoryP2,Macro_categoryP2,ID_sequenceP1,ID_sequenceP2,InverseFb,pNumber,repBlocks.thisRepN,repBlocks.thisTrialN,repBlocks.thisN,repBlocks.thisIndex,repBlocks.ran,key_respAC.keys,key_respAC.corr,key_respAC.rt,trials_AC.thisRepN,trials_AC.thisTrialN,trials_AC.thisN,trials_AC.thisIndex,trials_AC.ran,Bonus,BonusLoop.thisRepN,BonusLoop.thisTrialN,BonusLoop.thisN,BonusLoop.thisIndex,BonusLoop.ran,comments
0,0,0,0,1,82,2020-07-04_19h49.08.937,retriever_ti,2020.1.3,Win32,60,Chrome,1920,1080,,,,,,,,,,,,,,,,,,,,,,,,,,,,,,,,,,,,,,,,,,,,,,,,,,,,,,,,,,,,,,,,,,,,,,,,,,,,,,,,,,,,,,,,,,,,,,,,,,
1,0,1,0,1,82,2020-07-04_19h49.08.937,retriever_ti,2020.1.3,Win32,60,Chrome,1920,1080,,,,,,,,,,,,,,,,,,,,,,,,,,,,,,,,,,,,,,,,,,,,,,,,,,,,,,,,,,,,,,,,,,,,,,,,,,,,,,,,,,,,,,,,,,,,,,,,,,
2,0,2,0,1,82,2020-07-04_19h49.08.937,retriever_ti,2020.1.3,Win32,60,Chrome,1920,1080,,,,,,,,,,,,,,,,,,,,,,,,,,,,,,,,,,,,,,,,,,,,,,,,,,,,,,,,,,,,,,,,,,,,,,,,,,,,,,,,,,,,,,,,,,,,,,,,,,
3,0,3,0,1,82,2020-07-04_19h49.08.937,retriever_ti,2020.1.3,Win32,60,Chrome,1920,1080,,,,,,,,,,,,,,,,,,,,,,,,,,,,,,,,,,,,,,,,,,,,,,,,,,,,,,,,,,,,,,,,,,,,,,,,,,,,,,,,,,,,,,,,,,,,,,,,,,
4,0,4,0,1,82,2020-07-04_19h49.08.937,retriever_ti,2020.1.3,Win32,60,Chrome,1920,1080,,,,,,,,,,,,,,,,,,,,,,,,,,,,,,,,,,,,,,,,,,,,,,,,,,,,,,,,,,,,,,,,,,,,,,,,,,,,,,,,,,,,,,,,,,,,,,,,,,
5,0,5,0,1,82,2020-07-04_19h49.08.937,retriever_ti,2020.1.3,Win32,60,Chrome,1920,1080,,,,,,,,,,,,,,,,,,,,,,,,,,,,,,,,,,,,,,,,,,,,,,,,,,,,,,,,,,,,,,,,,,,,,,,,,,,,,,,,,,,,,,,,,,,,,,,,,,
6,0,6,0,1,82,2020-07-04_19h49.08.937,retriever_ti,2020.1.3,Win32,60,Chrome,1920,1080,,,,,,,,,,,,,,,,,,,,,,,,,,,,,,,,,,,,,,,,,,,,,,,,,,,,,,,,,,,,,,,,,,,,,,,,,,,,,,,,,,,,,,,,,,,,,,,,,,
7,0,7,0,1,82,2020-07-04_19h49.08.937,retriever_ti,2020.1.3,Win32,60,Chrome,1920,1080,,,,,,,,,,,,,,,,,,,,,,,,,,,,,,,,,,,,,,,,,,,,,,,,,,,,,,,,,,,,,,,,,,,,,,,,,,,,,,,,,,,,,,,,,,,,,,,,,,
8,0,8,0,1,82,2020-07-04_19h49.08.937,retriever_ti,2020.1.3,Win32,60,Chrome,1920,1080,,,,,,,,,,,,,,,,,,,,,,,,,,,,,,,,,,,,,,,,,,,,,,,,,,,,,,,,,,,,,,,,,,,,,,,,,,,,,,,,,,,,,,,,,,,,,,,,,,
9,0,9,0,1,82,2020-07-04_19h49.08.937,retriever_ti,2020.1.3,Win32,60,Chrome,1920,1080,,,,,,,,,,,,,,,,,,,,,,,,,,,,,,,,,,,,,,,,,,,,,,,,,,,,,,,,,,,,,,,,,,,,,,,,,,,,,,,,,,,,,,,,,,,,,,,,,,
10,0,10,0,1,82,2020-07-04_19h49.08.937,retriever_ti,2020.1.3,Win32,60,Chrome,1920,1080,,,,,,,,,,,,,,,,,,,,,,,,,,,,,,,,,,,,,,,,,,,,,,,,,,,,,,,,,,,,,,,,,,,,,,,,,,,,,,,,,,,,,,,,,,,,,,,,,,
11,0,11,0,1,82,2020-07-04_19h49.08.937,retriever_ti,2020.1.3,Win32,60,Chrome,1920,1080,,,,,,,,,,,,,,,,,,,,,,,,,,,,,,,,,,,,,,,,,,,,,,,,,,,,,,,,,,,,,,,,,,,,,,,,,,,,,,,,,,,,,,,,,,,,,,,,,,
12,0,12,0,1,82,2020-07-04_19h49.08.937,retriever_ti,2020.1.3,Win32,60,Chrome,1920,1080,,,,,,,,,,,,,,,,,,,,,,,,,,,,,,,,,,,,,,,,,,,,,,,,,,,,,,,,,,,,,,,,,,,,,,,,,,,,,,,,,,,,,,,,,,,,,,,,,,
13,0,13,0,1,82,2020-07-04_19h49.08.937,retriever_ti,2020.1.3,Win32,60,Chrome,1920,1080,,,,,,,,,,,,,,,,,,,,,,,,,,,,,,,,,,,,,,,,,,,,,,,,,,,,,,,,,,,,,,,,,,,,,,,,,,,,,,,,,,,,,,,,,,,,,,,,,,
14,0,14,0,1,82,2020-07-04_19h49.08.937,retriever_ti,2020.1.3,Win32,60,Chrome,1920,1080,,,,,,,,,,,,,,,,,,,,,,,,,,,,,,,,,,,,,,,,,,,,,,,,,,,,,,,,,,,,,,,,,,,,,,,,,,,,,,,,,,,,,,,,,,,,,,,,,,
15,0,15,0,1,82,2020-07-04_19h49.08.937,retriever_ti,2020.1.3,Win32,60,Chrome,1920,1080,,,,,,,,,,,,,,,,,,,,,,,,,,,,,,,,,,,,,,,,,,,,,,,,,,,,,,,,,,,,,,,,,,,,,,,,,,,,,,,,,,,,,,,,,,,,,,,,,,
16,0,16,0,1,82,2020-07-04_19h49.08.937,retriever_ti,2020.1.3,Win32,60,Chrome,1920,1080,,,,,,,,,,,,,,,,,,,,,,,,,,,,,,,,,,,,,,,,,,,,,,,,,,,,,,,,,,,,,,,,,,,,,,,,,,,,,,,,,,,,,,,,,,,,,,,,,,
17,0,17,0,1,82,2020-07-04_19h49.08.937,retriever_ti,2020.1.3,Win32,60,Chrome,1920,1080,,,,,,,,,,,,,,,,,,,,,,,,,,,,,,,,,,,,,,,,,,,,,,,,,,,,,,,,,,,,,,,,,,,,,,,,,,,,,,,,,,,,,,,,,,,,,,,,,,
18,0,18,0,1,82,2020-07-04_19h49.08.937,retriever_ti,2020.1.3,Win32,60,Chrome,1920,1080,,,,,,,,,,,,,,,,,,,,,,,,,,,,,,,,,,,,,,,,,,,,,,,,,,,,,,,,,,,,,,,,,,,,,,,,,,,,,,,,,,,,,,,,,,,,,,,,,,
19,0,19,0,1,82,2020-07-04_19h49.08.937,retriever_ti,2020.1.3,Win32,60,Chrome,1920,1080,,,,,,,,,,,,,,,,,,,,,,,,,,,,,,,,,,,,,,,,,,,,,,,,,,,,,,,,,,,,,,,,,,,,,,,,,,,,,,,,,,,,,,,,,,,,,,,,,,
,,,,,82,2020-07-04_19h49.08.937,retriever_ti,2020.1.3,Win32,60,Chrome,1920,1080,829.839005,1,right,1.08887,canary,1,829.85856,829.85856,832.35032,0,0,0,0,1,2,5,1,html/resources/stimuli_practice_decision/04_beetle.jpg,html/resources/stimuli_practice_decision/02_canary.jpg,beetle,canary,,,,,,,,,,,,,,,,,,,,,,,,,,,,,,,,,,,,,,,,,,,,,,,,,,,,,,,,,,,,,,,,,,,,,,,,,,,,,
,,,,,82,2020-07-04_19h49.08.937,retriever_ti,2020.1.3,Win32,60,Chrome,1920,1080,832.876545,2,left,0.9431,rabbit,1,832.89359,832.89359,835.384715,0,1,1,1,1,4,3,1,html/resources/stimuli_practice_decision/01_rabbit.jpg,html/resources/stimuli_practice_decision/07_sock.jpg,rabbit,sock,,,,,,,,,,,,,,,,,,,,,,,,,,,,,,,,,,,,,,,,,,,,,,,,,,,,,,,,,,,,,,,,,,,,,,,,,,,,,
,,,,,82,2020-07-04_19h49.08.937,retriever_ti,2020.1.3,Win32,60,Chrome,1920,1080,836.378275,3,left,0.960255,pullover,1,836.38551,836.38551,838.87751,0,2,2,2,1,6,2,1,html/resources/stimuli_practice_decision/06_pullover.jpg,html/resources/stimuli_practice_decision/04_beetle.jpg,pullover,beetle,,,,,,,,,,,,,,,,,,,,,,,,,,,,,,,,,,,,,,,,,,,,,,,,,,,,,,,,,,,,,,,,,,,,,,,,,,,,,
,,,,,82,2020-07-04_19h49.08.937,retriever_ti,2020.1.3,Win32,60,Chrome,1920,1080,839.38459,4,right,1.764795,handmixer,0,839.39905,839.39905,841.891245,0,3,3,3,1,7,1,1,html/resources/stimuli_practice_decision/05_glasses.jpg,html/resources/stimuli_practice_decision/08_handmixer.jpg,glasses,handmixer,,,,,,,,,,,,,,,,,,,,,,,,,,,,,,,,,,,,,,,,,,,,,,,,,,,,,,,,,,,,,,,,,,,,,,,,,,,,,
,,,,,82,2020-07-04_19h49.08.937,retriever_ti,2020.1.3,Win32,60,Chrome,1920,1080,842.398605,5,left,1.682965,glasses,1,842.41267,842.41267,844.905035,0,4,4,4,1,7,6,1,html/resources/stimuli_practice_decision/05_glasses.jpg,html/resources/stimuli_practice_decision/06_pullover.jpg,glasses,pullover,,,,,,,,,,,,,,,,,,,,,,,,,,,,,,,,,,,,,,,,,,,,,,,,,,,,,,,,,,,,,,,,,,,,,,,,,,,,,
,,,,,82,2020-07-04_19h49.08.937,retriever_ti,2020.1.3,Win32,60,Chrome,1920,1080,845.926155,6,left,1.299505,rabbit,0,845.940805,845.940805,848.4326,0,5,5,5,1,4,7,1,html/resources/stimuli_practice_decision/01_rabbit.jpg,html/resources/stimuli_practice_decision/05_glasses.jpg,rabbit,glasses,,,,,,,,,,,,,,,,,,,,,,,,,,,,,,,,,,,,,,,,,,,,,,,,,,,,,,,,,,,,,,,,,,,,,,,,,,,,,
,,,,,82,2020-07-04_19h49.08.937,retriever_ti,2020.1.3,Win32,60,Chrome,1920,1080,848.94015,7,left,1.108655,handmixer,0,848.954365,848.954365,851.44636,0,6,6,6,1,1,2,1,html/resources/stimuli_practice_decision/08_handmixer.jpg,html/resources/stimuli_practice_decision/04_beetle.jpg,handmixer,beetle,,,,,,,,,,,,,,,,,,,,,,,,,,,,,,,,,,,,,,,,,,,,,,,,,,,,,,,,,,,,,,,,,,,,,,,,,,,,,
,,,,,82,2020-07-04_19h49.08.937,retriever_ti,2020.1.3,Win32,60,Chrome,1920,1080,852.43994,8,left,1.167045,rabbit,1,852.453975,852.453975,854.9463,0,7,7,7,1,4,3,1,html/resources/stimuli_practice_decision/01_rabbit.jpg,html/resources/stimuli_practice_decision/07_sock.jpg,rabbit,sock,,,,,,,,,,,,,,,,,,,,,,,,,,,,,,,,,,,,,,,,,,,,,,,,,,,,,,,,,,,,,,,,,,,,,,,,,,,,,
,,,,,82,2020-07-04_19h49.08.937,retriever_ti,2020.1.3,Win32,60,Chrome,1920,1080,,,,,,,,,,,,,,,,,,,,,,down,1,8.34426,1,0,0,0,1,1,html/resources/sequences_IDs/star.png,square ↑,circle →,star ↓,← triangle,down,,,,,,,,,,,,,,,,,,,,,,,,,,,,,,,,,,,,,,,,,,,,,,,,,,,,,,,,,,,,,,
,,,,,82,2020-07-04_19h49.08.937,retriever_ti,2020.1.3,Win32,60,Chrome,1920,1080,,,,,,,,,,,,,,,,,,,,,,up,1,1.5274,1,0,1,1,0,1,html/resources/sequences_IDs/circle.png,circle ↑,square →,triangle ↓,← star ,up,,,,,,,,,,,,,,,,,,,,,,,,,,,,,,,,,,,,,,,,,,,,,,,,,,,,,,,,,,,,,,
,,,,,82,2020-07-04_19h49.08.937,retriever_ti,2020.1.3,Win32,60,Chrome,1920,1080,,,,,,,,,,,,,,,,,,,,,,,0,,0,0,2,2,2,1,html/resources/sequences_IDs/square1.png,star ↑,triangle →,circle ↓,← square,left,,,,,,,,,,,,,,,,,,,,,,,,,,,,,,,,,,,,,,,,,,,,,,,,,,,,,,,,,,,,,,
,,,,,82,2020-07-04_19h49.08.937,retriever_ti,2020.1.3,Win32,60,Chrome,1920,1080,,,,,,,,,,,,,,,,,,,,,,down,1,4.148235,1,0,3,3,3,1,html/resources/sequences_IDs/triangle.png,star ↑,square →,triangle ↓,← circle,down,,,,,,,,,,,,,,,,,,,,,,,,,,,,,,,,,,,,,,,,,,,,,,,,,,,,,,,,,,,,,,
,,,,,82,2020-07-04_19h49.08.937,retriever_ti,2020.1.3,Win32,60,Chrome,1920,1080,,,,,,,,,,,,,,,,,,,,,,,,,,,,,,,,,,,,,1,17.708375,0,0,0,0,1,,,,,,,,,,,,,,,,,,,,,,,,,,,,,,,,,,,,,,,,,,,,,,,,,,,,,,,
,,,,,82,2020-07-04_19h49.08.937,retriever_ti,2020.1.3,Win32,60,Chrome,1920,1080,900.01018,9,left,1.315125,pullover,0,900.02363,900.02363,902.514265,0,0,0,0,1,6,7,1,html/resources/stimuli_practice_decision/06_pullover.jpg,html/resources/stimuli_practice_decision/05_glasses.jpg,pullover,glasses,,,,,,,,,,,,,,,,,,,,,,,,,,,,,,,,,,,,,,,,,,,,,,,,,,,,,,,,,,,,,,,,,,,,,,,,,,,,,
,,,,,82,2020-07-04_19h49.08.937,retriever_ti,2020.1.3,Win32,60,Chrome,1920,1080,903.507445,10,left,0.88573,pullover,1,903.52167,903.52167,906.014105,0,1,1,1,1,6,2,1,html/resources/stimuli_practice_decision/06_pullover.jpg,html/resources/stimuli_practice_decision/04_beetle.jpg,pullover,beetle,,,,,,,,,,,,,,,,,,,,,,,,,,,,,,,,,,,,,,,,,,,,,,,,,,,,,,,,,,,,,,,,,,,,,,,,,,,,,
,,,,,82,2020-07-04_19h49.08.937,retriever_ti,2020.1.3,Win32,60,Chrome,1920,1080,906.52156,11,left,1.857735,canary,0,906.535715,906.535715,909.027865,0,2,2,2,1,5,6,1,html/resources/stimuli_practice_decision/02_canary.jpg,html/resources/stimuli_practice_decision/06_pullover.jpg,canary,pullover,,,,,,,,,,,,,,,,,,,,,,,,,,,,,,,,,,,,,,,,,,,,,,,,,,,,,,,,,,,,,,,,,,,,,,,,,,,,,
,,,,,82,2020-07-04_19h49.08.937,retriever_ti,2020.1.3,Win32,60,Chrome,1920,1080,910.021475,12,right,1.68635,glasses,0,910.029205,910.029205,912.52076,0,3,3,3,1,8,7,1,html/resources/stimuli_practice_decision/03_squirrel.jpg,html/resources/stimuli_practice_decision/05_glasses.jpg,squirrel,glasses,,,,,,,,,,,,,,,,,,,,,,,,,,,,,,,,,,,,,,,,,,,,,,,,,,,,,,,,,,,,,,,,,,,,,,,,,,,,,
,,,,,82,2020-07-04_19h49.08.937,retriever_ti,2020.1.3,Win32,60,Chrome,1920,1080,913.51412,13,left,0.6934,canary,1,913.528815,913.528815,916.02082,0,4,4,4,1,5,3,1,html/resources/stimuli_practice_decision/02_canary.jpg,html/resources/stimuli_practice_decision/07_sock.jpg,canary,sock,,,,,,,,,,,,,,,,,,,,,,,,,,,,,,,,,,,,,,,,,,,,,,,,,,,,,,,,,,,,,,,,,,,,,,,,,,,,,
,,,,,82,2020-07-04_19h49.08.937,retriever_ti,2020.1.3,Win32,60,Chrome,1920,1080,916.52806,14,left,1.41917,glasses,0,916.54261,916.54261,919.03446,0,5,5,5,1,7,8,1,html/resources/stimuli_practice_decision/05_glasses.jpg,html/resources/stimuli_practice_decision/03_squirrel.jpg,glasses,squirrel,,,,,,,,,,,,,,,,,,,,,,,,,,,,,,,,,,,,,,,,,,,,,,,,,,,,,,,,,,,,,,,,,,,,,,,,,,,,,
,,,,,82,2020-07-04_19h49.08.937,retriever_ti,2020.1.3,Win32,60,Chrome,1920,1080,920.028115,15,right,2.252905,rabbit,0,920.03496,920.03496,922.52734,0,6,6,6,1,5,4,1,html/resources/stimuli_practice_decision/02_canary.jpg,html/resources/stimuli_practice_decision/01_rabbit.jpg,canary,rabbit,,,,,,,,,,,,,,,,,,,,,,,,,,,,,,,,,,,,,,,,,,,,,,,,,,,,,,,,,,,,,,,,,,,,,,,,,,,,,
,,,,,82,2020-07-04_19h49.08.937,retriever_ti,2020.1.3,Win32,60,Chrome,1920,1080,923.520825,16,left,1.998955,canary,1,923.535305,923.535305,926.027335,0,7,7,7,1,5,3,1,html/resources/stimuli_practice_decision/02_canary.jpg,html/resources/stimuli_practice_decision/07_sock.jpg,canary,sock,,,,,,,,,,,,,,,,,,,,,,,,,,,,,,,,,,,,,,,,,,,,,,,,,,,,,,,,,,,,,,,,,,,,,,,,,,,,,
,,,,,82,2020-07-04_19h49.08.937,retriever_ti,2020.1.3,Win32,60,Chrome,1920,1080,,,,,,,,,,,,,,,,,,,,,,right,0,2.39218,0,0,0,0,2,1,html/resources/sequences_IDs/square1.png,star ↑,triangle →,circle ↓,← square,left,,,,,,,,,,,,,,,,,,,,,,,,,,,,,,,,,,,,,,,,,,,,,,,,,,,,,,,,,,,,,,
,,,,,82,2020-07-04_19h49.08.937,retriever_ti,2020.1.3,Win32,60,Chrome,1920,1080,,,,,,,,,,,,,,,,,,,,,,up,1,1.788645,1,0,1,1,0,1,html/resources/sequences_IDs/circle.png,circle ↑,square →,triangle ↓,← star ,up,,,,,,,,,,,,,,,,,,,,,,,,,,,,,,,,,,,,,,,,,,,,,,,,,,,,,,,,,,,,,,
,,,,,82,2020-07-04_19h49.08.937,retriever_ti,2020.1.3,Win32,60,Chrome,1920,1080,,,,,,,,,,,,,,,,,,,,,,down,1,2.255725,1,0,2,2,3,1,html/resources/sequences_IDs/triangle.png,star ↑,square →,triangle ↓,← circle,down,,,,,,,,,,,,,,,,,,,,,,,,,,,,,,,,,,,,,,,,,,,,,,,,,,,,,,,,,,,,,,
,,,,,82,2020-07-04_19h49.08.937,retriever_ti,2020.1.3,Win32,60,Chrome,1920,1080,,,,,,,,,,,,,,,,,,,,,,down,1,1.65859,1,0,3,3,1,1,html/resources/sequences_IDs/star.png,square ↑,circle →,star ↓,← triangle,down,,,,,,,,,,,,,,,,,,,,,,,,,,,,,,,,,,,,,,,,,,,,,,,,,,,,,,,,,,,,,,
,,,,,82,2020-07-04_19h49.08.937,retriever_ti,2020.1.3,Win32,60,Chrome,1920,1080,,,,,,,,,,,,,,,,,,,,,,,,,,,,,,,,,,,,,0,30.61173,1,0,1,0,1,,,,,,,,,,,,,,,,,,,,,,,,,,,,,,,,,,,,,,,,,,,,,,,,,,,,,,,
,,,,,82,2020-07-04_19h49.08.937,retriever_ti,2020.1.3,Win32,60,Chrome,1920,1080,,,,,,,,,,,,,,,,,1,,,,,,,,,,,,,,,,,,,,,,,,,,,972.938515,1,right,1.10299,dress         ,6,7,1,1,1,972.95073,972.95073,975.44265,0,0,0,0,1,1,5,6,slipper     ,dress         ,html/resources/sequences_IDs/B/08_slipper.jpg,html/resources/sequences_IDs/A/07_dress.jpg,8,7,3,2,3,2,6,5,0,82,,,,,,,,,,,,,,,,,,,,
,,,,,82,2020-07-04_19h49.08.937,retriever_ti,2020.1.3,Win32,60,Chrome,1920,1080,,,,,,,,,,,,,,,,,1,,,,,,,,,,,,,,,,,,,,,,,,,,,976.53312,2,left,1.20901,clownfish     ,4,4,-1,0,0,976.540345,976.540345,979.0324,0,1,1,1,1,2,4,5,clownfish     ,slipper     ,html/resources/sequences_IDs/A/04_clownfish.jpg,html/resources/sequences_IDs/B/08_slipper.jpg,4,8,2,1,3,2,3,6,0,82,,,,,,,,,,,,,,,,,,,,
,,,,,82,2020-07-04_19h49.08.937,retriever_ti,2020.1.3,Win32,60,Chrome,1920,1080,,,,,,,,,,,,,,,,,1,,,,,,,,,,,,,,,,,,,,,,,,,,,980.123135,3,left,1.0441,satellite_dish,2,10,-1,0,0,980.130595,980.130595,982.622665,0,2,2,2,1,3,2,3,satellite_dish,parrot      ,html/resources/sequences_IDs/A/10_satellite_dish.jpg,html/resources/sequences_IDs/B/05_parrot.jpg,10,5,4,2,2,1,8,4,0,82,,,,,,,,,,,,,,,,,,,,
,,,,,82,2020-07-04_19h49.08.937,retriever_ti,2020.1.3,Win32,60,Chrome,1920,1080,,,,,,,,,,,,,,,,,1,,,,,,,,,,,,,,,,,,,,,,,,,,,983.71325,4,left,1.315825,seaturtle     ,8,2,5,1,3,983.727735,983.727735,986.219725,0,3,3,3,1,4,8,3,seaturtle     ,parrot      ,html/resources/sequences_IDs/A/02_seaturtle.jpg,html/resources/sequences_IDs/B/05_parrot.jpg,2,5,2,1,2,1,1,4,0,82,,,,,,,,,,,,,,,,,,,,
,,,,,82,2020-07-04_19h49.08.937,retriever_ti,2020.1.3,Win32,60,Chrome,1920,1080,,,,,,,,,,,,,,,,,1,,,,,,,,,,,,,,,,,,,,,,,,,,,986.824485,5,left,1.17213,giraffe     ,7,3,4,1,3,986.838635,986.838635,989.33072,0,4,4,4,1,5,7,3,giraffe     ,parrot      ,html/resources/sequences_IDs/B/03_giraffe.jpg,html/resources/sequences_IDs/B/05_parrot.jpg,3,5,1,1,2,1,2,4,0,82,,,,,,,,,,,,,,,,,,,,
,,,,,82,2020-07-04_19h49.08.937,retriever_ti,2020.1.3,Win32,60,Chrome,1920,1080,,,,,,,,,,,,,,,,,1,,,,,,,,,,,,,,,,,,,,,,,,,,,989.93509,6,left,1.24951,dress         ,6,7,2,1,3,989.94933,989.94933,992.441705,0,5,5,5,1,6,6,4,dress         ,clownfish     ,html/resources/sequences_IDs/A/07_dress.jpg,html/resources/sequences_IDs/A/04_clownfish.jpg,7,4,3,2,2,1,5,3,0,82,,,,,,,,,,,,,,,,,,,,
,,,,,82,2020-07-04_19h49.08.937,retriever_ti,2020.1.3,Win32,60,Chrome,1920,1080,,,,,,,,,,,,,,,,,1,,,,,,,,,,,,,,,,,,,,,,,,,,,993.046285,7,right,1.520135,dress         ,6,7,5,1,3,993.06036,993.06036,995.55266,0,6,6,6,1,7,1,6,phone       ,dress         ,html/resources/sequences_IDs/B/09_phone.jpg,html/resources/sequences_IDs/A/07_dress.jpg,9,7,4,2,3,2,7,5,0,82,,,,,,,,,,,,,,,,,,,,
,,,,,82,2020-07-04_19h49.08.937,retriever_ti,2020.1.3,Win32,60,Chrome,1920,1080,,,,,,,,,,,,,,,,,1,,,,,,,,,,,,,,,,,,,,,,,,,,,996.15742,8,left,1.0751,dress         ,6,7,1,1,1,996.165185,996.165185,998.65682,0,7,7,7,1,8,6,5,dress         ,slipper     ,html/resources/sequences_IDs/A/07_dress.jpg,html/resources/sequences_IDs/B/08_slipper.jpg,7,8,3,2,3,2,5,6,0,82,,,,,,,,,,,,,,,,,,,,
,,,,,82,2020-07-04_19h49.08.937,retriever_ti,2020.1.3,Win32,60,Chrome,1920,1080,,,,,,,,,,,,,,,,,1,,,,,,,,,,,,,,,,,,,,,,,,,,,999.74768,9,right,1.79748,seaturtle     ,8,2,2,1,3,999.75458,999.75458,1002.247105,0,8,8,8,1,9,6,8,dress         ,seaturtle     ,html/resources/sequences_IDs/A/07_dress.jpg,html/resources/sequences_IDs/A/02_seaturtle.jpg,7,2,3,2,2,1,5,1,0,82,,,,,,,,,,,,,,,,,,,,
,,,,,82,2020-07-04_19h49.08.937,retriever_ti,2020.1.3,Win32,60,Chrome,1920,1080,,,,,,,,,,,,,,,,,1,,,,,,,,,,,,,,,,,,,,,,,,,,,1002.85158,10,NaN,NaN,No_response,NaN,NaN,NaN,2,2,1002.865835,1002.865835,1005.35805,0,9,9,9,1,10,7,5,giraffe     ,slipper     ,html/resources/sequences_IDs/B/03_giraffe.jpg,html/resources/sequences_IDs/B/08_slipper.jpg,3,8,1,1,3,2,2,6,0,82,,,,,,,,,,,,,,,,,,,,
,,,,,82,2020-07-04_19h49.08.937,retriever_ti,2020.1.3,Win32,60,Chrome,1920,1080,,,,,,,,,,,,,,,,,1,,,,,,,,,,,,,,,,,,,,,,,,,,,1006.44852,11,right,1.0512,dress         ,6,7,1,1,1,1006.46271,1006.46271,1008.95496,0,10,10,10,1,11,5,6,slipper     ,dress         ,html/resources/sequences_IDs/B/08_slipper.jpg,html/resources/sequences_IDs/A/07_dress.jpg,8,7,3,2,3,2,6,5,0,82,,,,,,,,,,,,,,,,,,,,
,,,,,82,2020-07-04_19h49.08.937,retriever_ti,2020.1.3,Win32,60,Chrome,1920,1080,,,,,,,,,,,,,,,,,1,,,,,,,,,,,,,,,,,,,,,,,,,,,1010.045795,12,right,1.231955,satellite_dish,2,10,-1,0,1,1010.060185,1010.060185,1012.552385,0,11,11,11,1,12,3,2,parrot      ,satellite_dish,html/resources/sequences_IDs/B/05_parrot.jpg,html/resources/sequences_IDs/A/10_satellite_dish.jpg,5,10,2,1,4,2,4,8,1,82,,,,,,,,,,,,,,,,,,,,
,,,,,82,2020-07-04_19h49.08.937,retriever_ti,2020.1.3,Win32,60,Chrome,1920,1080,,,,,,,,,,,,,,,,,1,,,,,,,,,,,,,,,,,,,,,,,,,,,1013.64301,13,left,0.91882,phone       ,1,9,-4,0,3,1013.657815,1013.657815,1016.149275,0,12,12,12,1,13,1,5,phone       ,slipper     ,html/resources/sequences_IDs/B/09_phone.jpg,html/resources/sequences_IDs/B/08_slipper.jpg,9,8,4,2,3,2,7,6,0,82,,,,,,,,,,,,,,,,,,,,
,,,,,82,2020-07-04_19h49.08.937,retriever_ti,2020.1.3,Win32,60,Chrome,1920,1080,,,,,,,,,,,,,,,,,1,,,,,,,,,,,,,,,,,,,,,,,,,,,1016.75403,14,right,1.172665,dress         ,6,7,-1,0,0,1016.76091,1016.76091,1019.25332,0,13,13,13,1,14,7,6,giraffe     ,dress         ,html/resources/sequences_IDs/B/03_giraffe.jpg,html/resources/sequences_IDs/A/07_dress.jpg,3,7,1,1,3,2,2,5,0,82,,,,,,,,,,,,,,,,,,,,
,,,,,82,2020-07-04_19h49.08.937,retriever_ti,2020.1.3,Win32,60,Chrome,1920,1080,,,,,,,,,,,,,,,,,1,,,,,,,,,,,,,,,,,,,,,,,,,,,1020.34414,15,left,0.691745,giraffe     ,7,3,3,1,3,1020.359915,1020.359915,1022.85043,0,14,14,14,1,15,7,4,giraffe     ,clownfish     ,html/resources/sequences_IDs/B/03_giraffe.jpg,html/resources/sequences_IDs/A/04_clownfish.jpg,3,4,1,1,2,1,2,3,0,82,,,,,,,,,,,,,,,,,,,,
,,,,,82,2020-07-04_19h49.08.937,retriever_ti,2020.1.3,Win32,60,Chrome,1920,1080,,,,,,,,,,,,,,,,,1,,,,,,,,,,,,,,,,,,,,,,,,,,,1023.45538,16,left,0.768995,clownfish     ,4,4,1,1,1,1023.462115,1023.462115,1025.95446,0,15,15,15,1,16,4,3,clownfish     ,parrot      ,html/resources/sequences_IDs/A/04_clownfish.jpg,html/resources/sequences_IDs/B/05_parrot.jpg,4,5,2,1,2,1,3,4,0,82,,,,,,,,,,,,,,,,,,,,
,,,,,82,2020-07-04_19h49.08.937,retriever_ti,2020.1.3,Win32,60,Chrome,1920,1080,,,,,,,,,,,,,,,,,1,,,,,,,,,,,,,,,,,,,,,,,,,,,1027.04513,17,left,0.908645,giraffe     ,7,3,6,1,3,1027.05237,1027.05237,1029.544615,0,16,16,16,1,17,7,1,giraffe     ,phone       ,html/resources/sequences_IDs/B/03_giraffe.jpg,html/resources/sequences_IDs/B/09_phone.jpg,3,9,1,1,4,2,2,7,0,82,,,,,,,,,,,,,,,,,,,,
,,,,,82,2020-07-04_19h49.08.937,retriever_ti,2020.1.3,Win32,60,Chrome,1920,1080,,,,,,,,,,,,,,,,,1,,,,,,,,,,,,,,,,,,,,,,,,,,,1030.149,18,right,2.11367,giraffe     ,7,3,2,1,3,1030.163395,1030.163395,1032.6557,0,17,17,17,1,18,5,7,slipper     ,giraffe     ,html/resources/sequences_IDs/B/08_slipper.jpg,html/resources/sequences_IDs/B/03_giraffe.jpg,8,3,3,2,1,1,6,2,0,82,,,,,,,,,,,,,,,,,,,,
,,,,,82,2020-07-04_19h49.08.937,retriever_ti,2020.1.3,Win32,60,Chrome,1920,1080,,,,,,,,,,,,,,,,,1,,,,,,,,,,,,,,,,,,,,,,,,,,,1033.26038,19,right,2.31728,satellite_dish,2,10,-6,0,3,1033.26849,1033.26849,1035.75963,0,18,18,18,1,19,8,2,seaturtle     ,satellite_dish,html/resources/sequences_IDs/A/02_seaturtle.jpg,html/resources/sequences_IDs/A/10_satellite_dish.jpg,2,10,2,1,4,2,1,8,0,82,,,,,,,,,,,,,,,,,,,,
,,,,,82,2020-07-04_19h49.08.937,retriever_ti,2020.1.3,Win32,60,Chrome,1920,1080,,,,,,,,,,,,,,,,,1,,,,,,,,,,,,,,,,,,,,,,,,,,,1036.363955,20,left,1.213505,clownfish     ,4,4,-1,0,0,1036.37176,1036.37176,1038.86384,0,19,19,19,1,20,4,5,clownfish     ,slipper     ,html/resources/sequences_IDs/A/04_clownfish.jpg,html/resources/sequences_IDs/B/08_slipper.jpg,4,8,2,1,3,2,3,6,0,82,,,,,,,,,,,,,,,,,,,,
,,,,,82,2020-07-04_19h49.08.937,retriever_ti,2020.1.3,Win32,60,Chrome,1920,1080,,,,,,,,,,,,,,,,,1,,,,,,,,,,,,,,,,,,,,,,,,,,,1039.954675,21,right,1.187855,satellite_dish,2,10,-3,0,3,1039.96172,1039.96172,1042.45391,0,20,20,20,1,21,5,2,slipper     ,satellite_dish,html/resources/sequences_IDs/B/08_slipper.jpg,html/resources/sequences_IDs/A/10_satellite_dish.jpg,8,10,3,2,4,2,6,8,0,82,,,,,,,,,,,,,,,,,,,,
,,,,,82,2020-07-04_19h49.08.937,retriever_ti,2020.1.3,Win32,60,Chrome,1920,1080,,,,,,,,,,,,,,,,,1,,,,,,,,,,,,,,,,,,,,,,,,,,,1043.05884,22,left,1.134745,seaturtle     ,8,2,1,1,1,1043.072415,1043.072415,1045.564845,0,21,21,21,1,22,8,7,seaturtle     ,giraffe     ,html/resources/sequences_IDs/A/02_seaturtle.jpg,html/resources/sequences_IDs/B/03_giraffe.jpg,2,3,2,1,1,1,1,2,0,82,,,,,,,,,,,,,,,,,,,,
,,,,,82,2020-07-04_19h49.08.937,retriever_ti,2020.1.3,Win32,60,Chrome,1920,1080,,,,,,,,,,,,,,,,,1,,,,,,,,,,,,,,,,,,,,,,,,,,,1046.655705,23,left,1.04044,satellite_dish,2,10,1,1,1,1046.66289,1046.66289,1049.155,0,22,22,22,1,23,2,1,satellite_dish,phone       ,html/resources/sequences_IDs/A/10_satellite_dish.jpg,html/resources/sequences_IDs/B/09_phone.jpg,10,9,4,2,4,2,8,7,0,82,,,,,,,,,,,,,,,,,,,,
,,,,,82,2020-07-04_19h49.08.937,retriever_ti,2020.1.3,Win32,60,Chrome,1920,1080,,,,,,,,,,,,,,,,,1,,,,,,,,,,,,,,,,,,,,,,,,,,,1050.245745,24,left,0.87221,parrot      ,3,5,2,1,3,1050.252895,1050.252895,1052.74515,0,23,23,23,1,24,3,1,parrot      ,phone       ,html/resources/sequences_IDs/B/05_parrot.jpg,html/resources/sequences_IDs/B/09_phone.jpg,5,9,2,1,4,2,4,7,0,82,,,,,,,,,,,,,,,,,,,,
,,,,,82,2020-07-04_19h49.08.937,retriever_ti,2020.1.3,Win32,60,Chrome,1920,1080,,,,,,,,,,,,,,,,,1,,,,,,,,,,,,,,,,,,,,,,,,,,,1053.349755,25,right,1.180155,satellite_dish,2,10,1,1,1,1053.36388,1053.36388,1055.856125,0,24,24,24,1,25,1,2,phone       ,satellite_dish,html/resources/sequences_IDs/B/09_phone.jpg,html/resources/sequences_IDs/A/10_satellite_dish.jpg,9,10,4,2,4,2,7,8,0,82,,,,,,,,,,,,,,,,,,,,
,,,,,82,2020-07-04_19h49.08.937,retriever_ti,2020.1.3,Win32,60,Chrome,1920,1080,,,,,,,,,,,,,,,,,1,,,,,,,,,,,,,,,,,,,,,,,,,,,1056.94701,26,left,0.886335,satellite_dish,2,10,1,1,1,1056.96149,1056.96149,1059.45343,0,25,25,25,1,26,2,1,satellite_dish,phone       ,html/resources/sequences_IDs/A/10_satellite_dish.jpg,html/resources/sequences_IDs/B/09_phone.jpg,10,9,4,2,4,2,8,7,0,82,,,,,,,,,,,,,,,,,,,,
,,,,,82,2020-07-04_19h49.08.937,retriever_ti,2020.1.3,Win32,60,Chrome,1920,1080,,,,,,,,,,,,,,,,,1,,,,,,,,,,,,,,,,,,,,,,,,,,,1060.544005,27,NaN,NaN,No_response,NaN,NaN,NaN,2,2,1060.55111,1060.55111,1063.043465,0,26,26,26,1,27,5,1,slipper     ,phone       ,html/resources/sequences_IDs/B/08_slipper.jpg,html/resources/sequences_IDs/B/09_phone.jpg,8,9,3,2,4,2,6,7,0,82,,,,,,,,,,,,,,,,,,,,
,,,,,82,2020-07-04_19h49.08.937,retriever_ti,2020.1.3,Win32,60,Chrome,1920,1080,,,,,,,,,,,,,,,,,1,,,,,,,,,,,,,,,,,,,,,,,,,,,1064.133945,28,left,1.132925,seaturtle     ,8,2,3,1,3,1064.141215,1064.141215,1066.633575,0,27,27,27,1,28,8,5,seaturtle     ,slipper     ,html/resources/sequences_IDs/A/02_seaturtle.jpg,html/resources/sequences_IDs/B/08_slipper.jpg,2,8,2,1,3,2,1,6,0,82,,,,,,,,,,,,,,,,,,,,
,,,,,82,2020-07-04_19h49.08.937,retriever_ti,2020.1.3,Win32,60,Chrome,1920,1080,,,,,,,,,,,,,,,,,1,,,,,,,,,,,,,,,,,,,,,,,,,,,1067.23841,29,left,1.29986,seaturtle     ,8,2,4,1,3,1067.2454,1067.2454,1069.73768,0,28,28,28,1,29,8,4,seaturtle     ,clownfish     ,html/resources/sequences_IDs/A/02_seaturtle.jpg,html/resources/sequences_IDs/A/04_clownfish.jpg,2,4,2,1,2,1,1,3,0,82,,,,,,,,,,,,,,,,,,,,
,,,,,82,2020-07-04_19h49.08.937,retriever_ti,2020.1.3,Win32,60,Chrome,1920,1080,,,,,,,,,,,,,,,,,1,,,,,,,,,,,,,,,,,,,,,,,,,,,1070.342065,30,left,0.80945,dress         ,6,7,-1,0,0,1070.35642,1070.35642,1072.84867,0,29,29,29,1,30,6,7,dress         ,giraffe     ,html/resources/sequences_IDs/A/07_dress.jpg,html/resources/sequences_IDs/B/03_giraffe.jpg,7,3,3,2,1,1,5,2,0,82,,,,,,,,,,,,,,,,,,,,
,,,,,82,2020-07-04_19h49.08.937,retriever_ti,2020.1.3,Win32,60,Chrome,1920,1080,,,,,,,,,,,,,,,,,1,,,,,,,,,,,,,,,,,,,,,,,,,,,1073.93942,31,left,0.921855,satellite_dish,2,10,-2,0,3,1073.94647,1073.94647,1076.438925,0,30,30,30,1,31,2,4,satellite_dish,clownfish     ,html/resources/sequences_IDs/A/10_satellite_dish.jpg,html/resources/sequences_IDs/A/04_clownfish.jpg,10,4,4,2,2,1,8,3,0,82,,,,,,,,,,,,,,,,,,,,
,,,,,82,2020-07-04_19h49.08.937,retriever_ti,2020.1.3,Win32,60,Chrome,1920,1080,,,,,,,,,,,,,,,,,1,,,,,,,,,,,,,,,,,,,,,,,,,,,1077.0434,32,left,1.267185,slipper     ,5,8,-3,0,3,1077.050985,1077.050985,1079.542815,0,31,31,31,1,32,5,8,slipper     ,seaturtle     ,html/resources/sequences_IDs/B/08_slipper.jpg,html/resources/sequences_IDs/A/02_seaturtle.jpg,8,2,3,2,2,1,6,1,0,82,,,,,,,,,,,,,,,,,,,,
,,,,,82,2020-07-04_19h49.08.937,retriever_ti,2020.1.3,Win32,60,Chrome,1920,1080,,,,,,,,,,,,,,,,,1,,,,,,,,,,,,,,,,,,,,,,,,,,,1080.1473,33,left,0.87394,satellite_dish,2,10,-3,0,3,1080.154495,1080.154495,1082.646945,0,32,32,32,1,33,2,5,satellite_dish,slipper     ,html/resources/sequences_IDs/A/10_satellite_dish.jpg,html/resources/sequences_IDs/B/08_slipper.jpg,10,8,4,2,3,2,8,6,0,82,,,,,,,,,,,,,,,,,,,,
,,,,,82,2020-07-04_19h49.08.937,retriever_ti,2020.1.3,Win32,60,Chrome,1920,1080,,,,,,,,,,,,,,,,,1,,,,,,,,,,,,,,,,,,,,,,,,,,,1083.25163,34,NaN,NaN,No_response,NaN,NaN,NaN,2,2,1083.26629,1083.26629,1085.75801,0,33,33,33,1,34,7,6,giraffe     ,dress         ,html/resources/sequences_IDs/B/03_giraffe.jpg,html/resources/sequences_IDs/A/07_dress.jpg,3,7,1,1,3,2,2,5,0,82,,,,,,,,,,,,,,,,,,,,
,,,,,82,2020-07-04_19h49.08.937,retriever_ti,2020.1.3,Win32,60,Chrome,1920,1080,,,,,,,,,,,,,,,,,1,,,,,,,,,,,,,,,,,,,,,,,,,,,1086.848885,35,left,0.81811,clownfish     ,4,4,-1,0,1,1086.862895,1086.862895,1089.35494,0,34,34,34,1,35,4,5,clownfish     ,slipper     ,html/resources/sequences_IDs/A/04_clownfish.jpg,html/resources/sequences_IDs/B/08_slipper.jpg,4,8,2,1,3,2,3,6,1,82,,,,,,,,,,,,,,,,,,,,
,,,,,82,2020-07-04_19h49.08.937,retriever_ti,2020.1.3,Win32,60,Chrome,1920,1080,,,,,,,,,,,,,,,,,1,,,,,,,,,,,,,,,,,,,,,,,,,,,1090.445515,36,left,0.93049,satellite_dish,2,10,-1,0,0,1090.45993,1090.45993,1092.952105,0,35,35,35,1,36,2,3,satellite_dish,parrot      ,html/resources/sequences_IDs/A/10_satellite_dish.jpg,html/resources/sequences_IDs/B/05_parrot.jpg,10,5,4,2,2,1,8,4,0,82,,,,,,,,,,,,,,,,,,,,
,,,,,82,2020-07-04_19h49.08.937,retriever_ti,2020.1.3,Win32,60,Chrome,1920,1080,,,,,,,,,,,,,,,,,1,,,,,,,,,,,,,,,,,,,,,,,,,,,1094.043125,37,left,1.068255,satellite_dish,2,10,-6,0,3,1094.056805,1094.056805,1096.54918,0,36,36,36,1,37,2,8,satellite_dish,seaturtle     ,html/resources/sequences_IDs/A/10_satellite_dish.jpg,html/resources/sequences_IDs/A/02_seaturtle.jpg,10,2,4,2,2,1,8,1,0,82,,,,,,,,,,,,,,,,,,,,
,,,,,82,2020-07-04_19h49.08.937,retriever_ti,2020.1.3,Win32,60,Chrome,1920,1080,,,,,,,,,,,,,,,,,1,,,,,,,,,,,,,,,,,,,,,,,,,,,1097.15383,38,left,1.908275,parrot      ,3,5,-4,0,3,1097.16129,1097.16129,1099.653275,0,37,37,37,1,38,3,7,parrot      ,giraffe     ,html/resources/sequences_IDs/B/05_parrot.jpg,html/resources/sequences_IDs/B/03_giraffe.jpg,5,3,2,1,1,1,4,2,0,82,,,,,,,,,,,,,,,,,,,,
,,,,,82,2020-07-04_19h49.08.937,retriever_ti,2020.1.3,Win32,60,Chrome,1920,1080,,,,,,,,,,,,,,,,,1,,,,,,,,,,,,,,,,,,,,,,,,,,,1100.25826,39,right,1.09185,satellite_dish,2,10,-4,0,3,1100.265255,1100.265255,1102.75736,0,38,38,38,1,39,6,2,dress         ,satellite_dish,html/resources/sequences_IDs/A/07_dress.jpg,html/resources/sequences_IDs/A/10_satellite_dish.jpg,7,10,3,2,4,2,5,8,0,82,,,,,,,,,,,,,,,,,,,,
,,,,,82,2020-07-04_19h49.08.937,retriever_ti,2020.1.3,Win32,60,Chrome,1920,1080,,,,,,,,,,,,,,,,,1,,,,,,,,,,,,,,,,,,,,,,,,,,,1103.362115,40,right,0.797635,seaturtle     ,8,2,1,1,1,1103.369675,1103.369675,1105.8614,0,39,39,39,1,40,7,8,giraffe     ,seaturtle     ,html/resources/sequences_IDs/B/03_giraffe.jpg,html/resources/sequences_IDs/A/02_seaturtle.jpg,3,2,1,1,2,1,2,1,0,82,,,,,,,,,,,,,,,,,,,,
,,,,,82,2020-07-04_19h49.08.937,retriever_ti,2020.1.3,Win32,60,Chrome,1920,1080,,,,,,,,,,,,,,,,,1,,,,,,,,,,,,,,,,,,,,,,,,,,,1106.953965,41,right,0.995135,seaturtle     ,8,2,1,1,1,1106.959505,1106.959505,1109.451645,0,40,40,40,1,41,7,8,giraffe     ,seaturtle     ,html/resources/sequences_IDs/B/03_giraffe.jpg,html/resources/sequences_IDs/A/02_seaturtle.jpg,3,2,1,1,2,1,2,1,0,82,,,,,,,,,,,,,,,,,,,,
,,,,,82,2020-07-04_19h49.08.937,retriever_ti,2020.1.3,Win32,60,Chrome,1920,1080,,,,,,,,,,,,,,,,,1,,,,,,,,,,,,,,,,,,,,,,,,,,,1110.54201,42,left,0.979855,parrot      ,3,5,-2,0,3,1110.556205,1110.556205,1113.048665,0,41,41,41,1,42,3,5,parrot      ,slipper     ,html/resources/sequences_IDs/B/05_parrot.jpg,html/resources/sequences_IDs/B/08_slipper.jpg,5,8,2,1,3,2,4,6,0,82,,,,,,,,,,,,,,,,,,,,
,,,,,82,2020-07-04_19h49.08.937,retriever_ti,2020.1.3,Win32,60,Chrome,1920,1080,,,,,,,,,,,,,,,,,1,,,,,,,,,,,,,,,,,,,,,,,,,,,1113.65342,43,left,0.725055,seaturtle     ,8,2,1,1,0,1113.667365,1113.667365,1116.15977,0,42,42,42,1,43,8,7,seaturtle     ,giraffe     ,html/resources/sequences_IDs/A/02_seaturtle.jpg,html/resources/sequences_IDs/B/03_giraffe.jpg,2,3,2,1,1,1,1,2,1,82,,,,,,,,,,,,,,,,,,,,
,,,,,82,2020-07-04_19h49.08.937,retriever_ti,2020.1.3,Win32,60,Chrome,1920,1080,,,,,,,,,,,,,,,,,1,,,,,,,,,,,,,,,,,,,,,,,,,,,1117.2507,44,left,0.91551,dress         ,6,7,1,1,0,1117.25874,1117.25874,1119.749825,0,43,43,43,1,44,6,5,dress         ,slipper     ,html/resources/sequences_IDs/A/07_dress.jpg,html/resources/sequences_IDs/B/08_slipper.jpg,7,8,3,2,3,2,5,6,1,82,,,,,,,,,,,,,,,,,,,,
,,,,,82,2020-07-04_19h49.08.937,retriever_ti,2020.1.3,Win32,60,Chrome,1920,1080,,,,,,,,,,,,,,,,,1,,,,,,,,,,,,,,,,,,,,,,,,,,,1120.840635,45,left,0.76891,seaturtle     ,8,2,7,1,3,1120.854615,1120.854615,1123.347115,0,44,44,44,1,45,8,1,seaturtle     ,phone       ,html/resources/sequences_IDs/A/02_seaturtle.jpg,html/resources/sequences_IDs/B/09_phone.jpg,2,9,2,1,4,2,1,7,0,82,,,,,,,,,,,,,,,,,,,,
,,,,,82,2020-07-04_19h49.08.937,retriever_ti,2020.1.3,Win32,60,Chrome,1920,1080,,,,,,,,,,,,,,,,,1,,,,,,,,,,,,,,,,,,,,,,,,,,,1123.95179,46,right,1.501795,seaturtle     ,8,2,7,1,3,1123.96623,1123.96623,1126.45814,0,45,45,45,1,46,1,8,phone       ,seaturtle     ,html/resources/sequences_IDs/B/09_phone.jpg,html/resources/sequences_IDs/A/02_seaturtle.jpg,9,2,4,2,2,1,7,1,0,82,,,,,,,,,,,,,,,,,,,,
,,,,,82,2020-07-04_19h49.08.937,retriever_ti,2020.1.3,Win32,60,Chrome,1920,1080,,,,,,,,,,,,,,,,,1,,,,,,,,,,,,,,,,,,,,,,,,,,,1127.062605,47,left,1.996895,phone       ,1,9,-2,0,3,1127.076875,1127.076875,1129.569,0,46,46,46,1,47,1,3,phone       ,parrot      ,html/resources/sequences_IDs/B/09_phone.jpg,html/resources/sequences_IDs/B/05_parrot.jpg,9,5,4,2,2,1,7,4,0,82,,,,,,,,,,,,,,,,,,,,
,,,,,82,2020-07-04_19h49.08.937,retriever_ti,2020.1.3,Win32,60,Chrome,1920,1080,,,,,,,,,,,,,,,,,1,,,,,,,,,,,,,,,,,,,,,,,,,,,1130.173435,48,left,0.87171,seaturtle     ,8,2,2,1,3,1130.18827,1130.18827,1132.679935,0,47,47,47,1,48,8,6,seaturtle     ,dress         ,html/resources/sequences_IDs/A/02_seaturtle.jpg,html/resources/sequences_IDs/A/07_dress.jpg,2,7,2,1,3,2,1,5,0,82,,,,,,,,,,,,,,,,,,,,
,,,,,82,2020-07-04_19h49.08.937,retriever_ti,2020.1.3,Win32,60,Chrome,1920,1080,,,,,,,,,,,,,,,,,1,,,,,,,,,,,,,,,,,,,,,,,,,,,1133.28513,49,left,1.06746,phone       ,1,9,-6,0,3,1133.298745,1133.298745,1135.790865,0,48,48,48,1,49,1,7,phone       ,giraffe     ,html/resources/sequences_IDs/B/09_phone.jpg,html/resources/sequences_IDs/B/03_giraffe.jpg,9,3,4,2,1,1,7,2,0,82,,,,,,,,,,,,,,,,,,,,
,,,,,82,2020-07-04_19h49.08.937,retriever_ti,2020.1.3,Win32,60,Chrome,1920,1080,,,,,,,,,,,,,,,,,1,,,,,,,,,,,,,,,,,,,,,,,,,,,1136.39543,50,left,0.901855,seaturtle     ,8,2,1,1,1,1136.402785,1136.402785,1138.894985,0,49,49,49,1,50,8,7,seaturtle     ,giraffe     ,html/resources/sequences_IDs/A/02_seaturtle.jpg,html/resources/sequences_IDs/B/03_giraffe.jpg,2,3,2,1,1,1,1,2,0,82,,,,,,,,,,,,,,,,,,,,
,,,,,82,2020-07-04_19h49.08.937,retriever_ti,2020.1.3,Win32,60,Chrome,1920,1080,,,,,,,,,,,,,,,,,1,,,,,,,,,,,,,,,,,,,,,,,,,,,1139.986035,51,left,0.811435,parrot      ,3,5,-1,0,0,1139.99309,1139.99309,1142.485155,0,50,50,50,1,51,3,4,parrot      ,clownfish     ,html/resources/sequences_IDs/B/05_parrot.jpg,html/resources/sequences_IDs/A/04_clownfish.jpg,5,4,2,1,2,1,4,3,0,82,,,,,,,,,,,,,,,,,,,,
,,,,,82,2020-07-04_19h49.08.937,retriever_ti,2020.1.3,Win32,60,Chrome,1920,1080,,,,,,,,,,,,,,,,,1,,,,,,,,,,,,,,,,,,,,,,,,,,,1143.575935,52,left,0.97552,clownfish     ,4,4,1,1,0,1143.590075,1143.590075,1146.082255,0,51,51,51,1,52,4,3,clownfish     ,parrot      ,html/resources/sequences_IDs/A/04_clownfish.jpg,html/resources/sequences_IDs/B/05_parrot.jpg,4,5,2,1,2,1,3,4,1,82,,,,,,,,,,,,,,,,,,,,
,,,,,82,2020-07-04_19h49.08.937,retriever_ti,2020.1.3,Win32,60,Chrome,1920,1080,,,,,,,,,,,,,,,,,1,,,,,,,,,,,,,,,,,,,,,,,,,,,1147.17431,53,right,0.71849,clownfish     ,4,4,3,1,3,1147.187165,1147.187165,1149.679625,0,52,52,52,1,53,1,4,phone       ,clownfish     ,html/resources/sequences_IDs/B/09_phone.jpg,html/resources/sequences_IDs/A/04_clownfish.jpg,9,4,4,2,2,1,7,3,0,82,,,,,,,,,,,,,,,,,,,,
,,,,,82,2020-07-04_19h49.08.937,retriever_ti,2020.1.3,Win32,60,Chrome,1920,1080,,,,,,,,,,,,,,,,,1,,,,,,,,,,,,,,,,,,,,,,,,,,,1150.28386,54,left,0.90204,dress         ,6,7,1,1,1,1150.29931,1150.29931,1152.790455,0,53,53,53,1,54,6,5,dress         ,slipper     ,html/resources/sequences_IDs/A/07_dress.jpg,html/resources/sequences_IDs/B/08_slipper.jpg,7,8,3,2,3,2,5,6,0,82,,,,,,,,,,,,,,,,,,,,
,,,,,82,2020-07-04_19h49.08.937,retriever_ti,2020.1.3,Win32,60,Chrome,1920,1080,,,,,,,,,,,,,,,,,1,,,,,,,,,,,,,,,,,,,,,,,,,,,1153.881495,55,right,1.1456,satellite_dish,2,10,1,1,0,1153.895295,1153.895295,1156.387635,0,54,54,54,1,55,1,2,phone       ,satellite_dish,html/resources/sequences_IDs/B/09_phone.jpg,html/resources/sequences_IDs/A/10_satellite_dish.jpg,9,10,4,2,4,2,7,8,1,82,,,,,,,,,,,,,,,,,,,,
,,,,,82,2020-07-04_19h49.08.937,retriever_ti,2020.1.3,Win32,60,Chrome,1920,1080,,,,,,,,,,,,,,,,,1,,,,,,,,,,,,,,,,,,,,,,,,,,,1157.47851,56,left,0.861335,giraffe     ,7,3,1,1,0,1157.48566,1157.48566,1159.97801,0,55,55,55,1,56,7,6,giraffe     ,dress         ,html/resources/sequences_IDs/B/03_giraffe.jpg,html/resources/sequences_IDs/A/07_dress.jpg,3,7,1,1,3,2,2,5,1,82,,,,,,,,,,,,,,,,,,,,
,,,,,82,2020-07-04_19h49.08.937,retriever_ti,2020.1.3,Win32,60,Chrome,1920,1080,,,,,,,,,,,,,,,,,1,,,,,,,,,,,,,,,,,,,,,,,,,,,1161.068905,57,left,0.7439,clownfish     ,4,4,3,1,3,1161.08246,1161.08246,1163.574965,0,56,56,56,1,57,4,1,clownfish     ,phone       ,html/resources/sequences_IDs/A/04_clownfish.jpg,html/resources/sequences_IDs/B/09_phone.jpg,4,9,2,1,4,2,3,7,0,82,,,,,,,,,,,,,,,,,,,,
,,,,,82,2020-07-04_19h49.08.937,retriever_ti,2020.1.3,Win32,60,Chrome,1920,1080,,,,,,,,,,,,,,,,,1,,,,,,,,,,,,,,,,,,,,,,,,,,,1164.17926,58,left,1.622195,giraffe     ,7,3,5,1,3,1164.19402,1164.19402,1166.688045,0,57,57,57,1,58,7,2,giraffe     ,satellite_dish,html/resources/sequences_IDs/B/03_giraffe.jpg,html/resources/sequences_IDs/A/10_satellite_dish.jpg,3,10,1,1,4,2,2,8,0,82,,,,,,,,,,,,,,,,,,,,
,,,,,82,2020-07-04_19h49.08.937,retriever_ti,2020.1.3,Win32,60,Chrome,1920,1080,,,,,,,,,,,,,,,,,1,,,,,,,,,,,,,,,,,,,,,,,,,,,1167.29049,59,left,0.85153,dress         ,6,7,3,1,3,1167.298575,1167.298575,1169.78993,0,58,58,58,1,59,6,3,dress         ,parrot      ,html/resources/sequences_IDs/A/07_dress.jpg,html/resources/sequences_IDs/B/05_parrot.jpg,7,5,3,2,2,1,5,4,0,82,,,,,,,,,,,,,,,,,,,,
,,,,,82,2020-07-04_19h49.08.937,retriever_ti,2020.1.3,Win32,60,Chrome,1920,1080,,,,,,,,,,,,,,,,,1,,,,,,,,,,,,,,,,,,,,,,,,,,,1170.394525,60,right,0.690005,satellite_dish,2,10,-1,0,0,1170.40266,1170.40266,1172.89386,0,59,59,59,1,60,3,2,parrot      ,satellite_dish,html/resources/sequences_IDs/B/05_parrot.jpg,html/resources/sequences_IDs/A/10_satellite_dish.jpg,5,10,2,1,4,2,4,8,0,82,,,,,,,,,,,,,,,,,,,,
,,,,,82,2020-07-04_19h49.08.937,retriever_ti,2020.1.3,Win32,60,Chrome,1920,1080,,,,,,,,,,,,,,,,,1,,,,,,,,,,,,,,,,,,,,,,,,,,,1173.98472,61,right,1.13216,satellite_dish,2,10,1,1,1,1173.991915,1173.991915,1176.484105,0,60,60,60,1,61,1,2,phone       ,satellite_dish,html/resources/sequences_IDs/B/09_phone.jpg,html/resources/sequences_IDs/A/10_satellite_dish.jpg,9,10,4,2,4,2,7,8,0,82,,,,,,,,,,,,,,,,,,,,
,,,,,82,2020-07-04_19h49.08.937,retriever_ti,2020.1.3,Win32,60,Chrome,1920,1080,,,,,,,,,,,,,,,,,1,,,,,,,,,,,,,,,,,,,,,,,,,,,1177.57502,62,left,0.93383,clownfish     ,4,4,2,1,3,1177.588995,1177.588995,1180.081055,0,61,61,61,1,62,4,2,clownfish     ,satellite_dish,html/resources/sequences_IDs/A/04_clownfish.jpg,html/resources/sequences_IDs/A/10_satellite_dish.jpg,4,10,2,1,4,2,3,8,0,82,,,,,,,,,,,,,,,,,,,,
,,,,,82,2020-07-04_19h49.08.937,retriever_ti,2020.1.3,Win32,60,Chrome,1920,1080,,,,,,,,,,,,,,,,,1,,,,,,,,,,,,,,,,,,,,,,,,,,,1180.685725,63,right,1.092525,clownfish     ,4,4,-1,0,0,1180.70028,1180.70028,1183.192085,0,62,62,62,1,63,5,4,slipper     ,clownfish     ,html/resources/sequences_IDs/B/08_slipper.jpg,html/resources/sequences_IDs/A/04_clownfish.jpg,8,4,3,2,2,1,6,3,0,82,,,,,,,,,,,,,,,,,,,,
,,,,,82,2020-07-04_19h49.08.937,retriever_ti,2020.1.3,Win32,60,Chrome,1920,1080,,,,,,,,,,,,,,,,,1,,,,,,,,,,,,,,,,,,,,,,,,,,,1184.28263,64,right,1.06722,dress         ,6,7,4,1,3,1184.297185,1184.297185,1186.78926,0,63,63,63,1,64,2,6,satellite_dish,dress         ,html/resources/sequences_IDs/A/10_satellite_dish.jpg,html/resources/sequences_IDs/A/07_dress.jpg,10,7,4,2,3,2,8,5,0,82,,,,,,,,,,,,,,,,,,,,
,,,,,82,2020-07-04_19h49.08.937,retriever_ti,2020.1.3,Win32,60,Chrome,1920,1080,,,,,,,,,,,,,,,,,1,,,,,,,,,,,,,,,,,,,,,,,,,,,1187.39391,65,left,1.189985,clownfish     ,4,4,-4,0,3,1187.401535,1187.401535,1189.893235,0,64,64,64,1,65,4,8,clownfish     ,seaturtle     ,html/resources/sequences_IDs/A/04_clownfish.jpg,html/resources/sequences_IDs/A/02_seaturtle.jpg,4,2,2,1,2,1,3,1,0,82,,,,,,,,,,,,,,,,,,,,
,,,,,82,2020-07-04_19h49.08.937,retriever_ti,2020.1.3,Win32,60,Chrome,1920,1080,,,,,,,,,,,,,,,,,1,,,,,,,,,,,,,,,,,,,,,,,,,,,1190.497995,66,left,1.122005,clownfish     ,4,4,-3,0,3,1190.51201,1190.51201,1193.004315,0,65,65,65,1,66,4,7,clownfish     ,giraffe     ,html/resources/sequences_IDs/A/04_clownfish.jpg,html/resources/sequences_IDs/B/03_giraffe.jpg,4,3,2,1,1,1,3,2,0,82,,,,,,,,,,,,,,,,,,,,
,,,,,82,2020-07-04_19h49.08.937,retriever_ti,2020.1.3,Win32,60,Chrome,1920,1080,,,,,,,,,,,,,,,,,1,,,,,,,,,,,,,,,,,,,,,,,,,,,1193.608855,67,right,0.77884,satellite_dish,2,10,-1,0,0,1193.616245,1193.616245,1196.108505,0,66,66,66,1,67,3,2,parrot      ,satellite_dish,html/resources/sequences_IDs/B/05_parrot.jpg,html/resources/sequences_IDs/A/10_satellite_dish.jpg,5,10,2,1,4,2,4,8,0,82,,,,,,,,,,,,,,,,,,,,
,,,,,82,2020-07-04_19h49.08.937,retriever_ti,2020.1.3,Win32,60,Chrome,1920,1080,,,,,,,,,,,,,,,,,1,,,,,,,,,,,,,,,,,,,,,,,,,,,1197.1993,68,left,0.775065,dress         ,6,7,-1,0,0,1197.20658,1197.20658,1199.69855,0,67,67,67,1,68,6,7,dress         ,giraffe     ,html/resources/sequences_IDs/A/07_dress.jpg,html/resources/sequences_IDs/B/03_giraffe.jpg,7,3,3,2,1,1,5,2,0,82,,,,,,,,,,,,,,,,,,,,
,,,,,82,2020-07-04_19h49.08.937,retriever_ti,2020.1.3,Win32,60,Chrome,1920,1080,,,,,,,,,,,,,,,,,1,,,,,,,,,,,,,,,,,,,,,,,,,,,1200.789185,69,right,1.65788,clownfish     ,4,4,-1,0,0,1200.797565,1200.797565,1203.288695,0,68,68,68,1,69,5,4,slipper     ,clownfish     ,html/resources/sequences_IDs/B/08_slipper.jpg,html/resources/sequences_IDs/A/04_clownfish.jpg,8,4,3,2,2,1,6,3,0,82,,,,,,,,,,,,,,,,,,,,
,,,,,82,2020-07-04_19h49.08.937,retriever_ti,2020.1.3,Win32,60,Chrome,1920,1080,,,,,,,,,,,,,,,,,1,,,,,,,,,,,,,,,,,,,,,,,,,,,1204.37916,70,left,0.82103,satellite_dish,2,10,-5,0,3,1204.38673,1204.38673,1206.878835,0,69,69,69,1,70,2,7,satellite_dish,giraffe     ,html/resources/sequences_IDs/A/10_satellite_dish.jpg,html/resources/sequences_IDs/B/03_giraffe.jpg,10,3,4,2,1,1,8,2,0,82,,,,,,,,,,,,,,,,,,,,
,,,,,82,2020-07-04_19h49.08.937,retriever_ti,2020.1.3,Win32,60,Chrome,1920,1080,,,,,,,,,,,,,,,,,1,,,,,,,,,,,,,,,,,,,,,,,,,,,1207.48345,71,right,1.02606,dress         ,6,7,3,1,3,1207.497695,1207.497695,1209.989915,0,70,70,70,1,71,3,6,parrot      ,dress         ,html/resources/sequences_IDs/B/05_parrot.jpg,html/resources/sequences_IDs/A/07_dress.jpg,5,7,2,1,3,2,4,5,0,82,,,,,,,,,,,,,,,,,,,,
,,,,,82,2020-07-04_19h49.08.937,retriever_ti,2020.1.3,Win32,60,Chrome,1920,1080,,,,,,,,,,,,,,,,,1,,,,,,,,,,,,,,,,,,,,,,,,,,,1210.59444,72,left,0.81219,dress         ,6,7,5,1,3,1210.608465,1210.608465,1213.100775,0,71,71,71,1,72,6,1,dress         ,phone       ,html/resources/sequences_IDs/A/07_dress.jpg,html/resources/sequences_IDs/B/09_phone.jpg,7,9,3,2,4,2,5,7,0,82,,,,,,,,,,,,,,,,,,,,
,,,,,82,2020-07-04_19h49.08.937,retriever_ti,2020.1.3,Win32,60,Chrome,1920,1080,,,,,,,,,,,,,,,,,1,,,,,,,,,,,,,,,,,,,,,,,,,,,1213.705535,73,right,1.28503,parrot      ,3,5,-2,0,3,1213.71255,1213.71255,1216.204995,0,72,72,72,1,73,5,3,slipper     ,parrot      ,html/resources/sequences_IDs/B/08_slipper.jpg,html/resources/sequences_IDs/B/05_parrot.jpg,8,5,3,2,2,1,6,4,0,82,,,,,,,,,,,,,,,,,,,,
,,,,,82,2020-07-04_19h49.08.937,retriever_ti,2020.1.3,Win32,60,Chrome,1920,1080,,,,,,,,,,,,,,,,,1,,,,,,,,,,,,,,,,,,,,,,,,,,,1216.80981,74,left,0.976205,parrot      ,3,5,-5,0,3,1216.81686,1216.81686,1219.308875,0,73,73,73,1,74,3,8,parrot      ,seaturtle     ,html/resources/sequences_IDs/B/05_parrot.jpg,html/resources/sequences_IDs/A/02_seaturtle.jpg,5,2,2,1,2,1,4,1,0,82,,,,,,,,,,,,,,,,,,,,
,,,,,82,2020-07-04_19h49.08.937,retriever_ti,2020.1.3,Win32,60,Chrome,1920,1080,,,,,,,,,,,,,,,,,1,,,,,,,,,,,,,,,,,,,,,,,,,,,1219.91348,75,left,0.8901,clownfish     ,4,4,1,1,1,1219.92099,1219.92099,1222.41308,0,74,74,74,1,75,4,3,clownfish     ,parrot      ,html/resources/sequences_IDs/A/04_clownfish.jpg,html/resources/sequences_IDs/B/05_parrot.jpg,4,5,2,1,2,1,3,4,0,82,,,,,,,,,,,,,,,,,,,,
,,,,,82,2020-07-04_19h49.08.937,retriever_ti,2020.1.3,Win32,60,Chrome,1920,1080,,,,,,,,,,,,,,,,,1,,,,,,,,,,,,,,,,,,,,,,,,,,,1223.50382,76,left,1.632725,parrot      ,3,5,-1,0,0,1223.518465,1223.518465,1226.01036,0,75,75,75,1,76,3,4,parrot      ,clownfish     ,html/resources/sequences_IDs/B/05_parrot.jpg,html/resources/sequences_IDs/A/04_clownfish.jpg,5,4,2,1,2,1,4,3,0,82,,,,,,,,,,,,,,,,,,,,
,,,,,82,2020-07-04_19h49.08.937,retriever_ti,2020.1.3,Win32,60,Chrome,1920,1080,,,,,,,,,,,,,,,,,1,,,,,,,,,,,,,,,,,,,,,,,,,,,1227.100855,77,left,0.88961,clownfish     ,4,4,-2,0,3,1227.11503,1227.11503,1229.60727,0,76,76,76,1,77,4,6,clownfish     ,dress         ,html/resources/sequences_IDs/A/04_clownfish.jpg,html/resources/sequences_IDs/A/07_dress.jpg,4,7,2,1,3,2,3,5,0,82,,,,,,,,,,,,,,,,,,,,
,,,,,82,2020-07-04_19h49.08.937,retriever_ti,2020.1.3,Win32,60,Chrome,1920,1080,,,,,,,,,,,,,,,,,,,,,,,,,,,,,,,,,,,,,0,4.05326,,,,,,,,,,,,,,,,,,,,,,,,,,,,,,,,,,,,,,,,,0,0,0,0,1,,,,,,,,,,,,,,,
,,,,,82,2020-07-04_19h49.08.937,retriever_ti,2020.1.3,Win32,60,Chrome,1920,1080,,,,,,,,,,,,,,,,,2,,,,,,,,,,,,,,,,,,,,,,,,,,,1376.49488,78,left,1.238085,satellite_dish,2,10,-2,0,3,1376.506365,1376.506365,1378.99807,0,0,0,0,1,78,2,4,satellite_dish,clownfish     ,html/resources/sequences_IDs/A/10_satellite_dish.jpg,html/resources/sequences_IDs/A/04_clownfish.jpg,10,4,4,2,2,1,8,3,0,82,,,,,,,,,,,,,,,,,,,,
,,,,,82,2020-07-04_19h49.08.937,retriever_ti,2020.1.3,Win32,60,Chrome,1920,1080,,,,,,,,,,,,,,,,,2,,,,,,,,,,,,,,,,,,,,,,,,,,,1379.603515,79,right,0.915885,parrot      ,3,5,-5,0,3,1379.610845,1379.610845,1382.102,0,1,1,1,1,79,8,3,seaturtle     ,parrot      ,html/resources/sequences_IDs/A/02_seaturtle.jpg,html/resources/sequences_IDs/B/05_parrot.jpg,2,5,2,1,2,1,1,4,0,82,,,,,,,,,,,,,,,,,,,,
,,,,,82,2020-07-04_19h49.08.937,retriever_ti,2020.1.3,Win32,60,Chrome,1920,1080,,,,,,,,,,,,,,,,,2,,,,,,,,,,,,,,,,,,,,,,,,,,,1382.7064,80,left,1.069425,giraffe     ,7,3,1,1,1,1382.713695,1382.713695,1385.221445,0,2,2,2,1,80,7,6,giraffe     ,dress         ,html/resources/sequences_IDs/B/03_giraffe.jpg,html/resources/sequences_IDs/A/07_dress.jpg,3,7,1,1,3,2,2,5,0,82,,,,,,,,,,,,,,,,,,,,
,,,,,82,2020-07-04_19h49.08.937,retriever_ti,2020.1.3,Win32,60,Chrome,1920,1080,,,,,,,,,,,,,,,,,2,,,,,,,,,,,,,,,,,,,,,,,,,,,1386.311245,81,right,1.201625,phone       ,1,9,-7,0,3,1386.32531,1386.32531,1388.8172,0,3,3,3,1,81,8,1,seaturtle     ,phone       ,html/resources/sequences_IDs/A/02_seaturtle.jpg,html/resources/sequences_IDs/B/09_phone.jpg,2,9,2,1,4,2,1,7,0,82,,,,,,,,,,,,,,,,,,,,
,,,,,82,2020-07-04_19h49.08.937,retriever_ti,2020.1.3,Win32,60,Chrome,1920,1080,,,,,,,,,,,,,,,,,2,,,,,,,,,,,,,,,,,,,,,,,,,,,1389.421675,82,left,0.96154,dress         ,6,7,1,1,1,1389.429255,1389.429255,1391.92126,0,4,4,4,1,82,6,5,dress         ,slipper     ,html/resources/sequences_IDs/A/07_dress.jpg,html/resources/sequences_IDs/B/08_slipper.jpg,7,8,3,2,3,2,5,6,0,82,,,,,,,,,,,,,,,,,,,,
,,,,,82,2020-07-04_19h49.08.937,retriever_ti,2020.1.3,Win32,60,Chrome,1920,1080,,,,,,,,,,,,,,,,,2,,,,,,,,,,,,,,,,,,,,,,,,,,,1393.011675,83,right,1.026195,giraffe     ,7,3,3,1,3,1393.019285,1393.019285,1395.51132,0,5,5,5,1,83,4,7,clownfish     ,giraffe     ,html/resources/sequences_IDs/A/04_clownfish.jpg,html/resources/sequences_IDs/B/03_giraffe.jpg,4,3,2,1,1,1,3,2,0,82,,,,,,,,,,,,,,,,,,,,
,,,,,82,2020-07-04_19h49.08.937,retriever_ti,2020.1.3,Win32,60,Chrome,1920,1080,,,,,,,,,,,,,,,,,2,,,,,,,,,,,,,,,,,,,,,,,,,,,1396.11594,84,left,0.86539,giraffe     ,7,3,-1,0,0,1396.12335,1396.12335,1398.615375,0,6,6,6,1,84,7,8,giraffe     ,seaturtle     ,html/resources/sequences_IDs/B/03_giraffe.jpg,html/resources/sequences_IDs/A/02_seaturtle.jpg,3,2,1,1,2,1,2,1,0,82,,,,,,,,,,,,,,,,,,,,
,,,,,82,2020-07-04_19h49.08.937,retriever_ti,2020.1.3,Win32,60,Chrome,1920,1080,,,,,,,,,,,,,,,,,2,,,,,,,,,,,,,,,,,,,,,,,,,,,1399.706165,85,left,0.975195,phone       ,1,9,-4,0,3,1399.71338,1399.71338,1402.20597,0,7,7,7,1,85,1,5,phone       ,slipper     ,html/resources/sequences_IDs/B/09_phone.jpg,html/resources/sequences_IDs/B/08_slipper.jpg,9,8,4,2,3,2,7,6,0,82,,,,,,,,,,,,,,,,,,,,
,,,,,82,2020-07-04_19h49.08.937,retriever_ti,2020.1.3,Win32,60,Chrome,1920,1080,,,,,,,,,,,,,,,,,2,,,,,,,,,,,,,,,,,,,,,,,,,,,1402.809945,86,right,0.931625,satellite_dish,2,10,1,1,1,1402.817945,1402.817945,1405.309545,0,8,8,8,1,86,1,2,phone       ,satellite_dish,html/resources/sequences_IDs/B/09_phone.jpg,html/resources/sequences_IDs/A/10_satellite_dish.jpg,9,10,4,2,4,2,7,8,0,82,,,,,,,,,,,,,,,,,,,,
,,,,,82,2020-07-04_19h49.08.937,retriever_ti,2020.1.3,Win32,60,Chrome,1920,1080,,,,,,,,,,,,,,,,,2,,,,,,,,,,,,,,,,,,,,,,,,,,,1406.400565,87,right,1.531875,parrot      ,3,5,1,1,1,1406.41472,1406.41472,1408.90666,0,9,9,9,1,87,2,3,satellite_dish,parrot      ,html/resources/sequences_IDs/A/10_satellite_dish.jpg,html/resources/sequences_IDs/B/05_parrot.jpg,10,5,4,2,2,1,8,4,0,82,,,,,,,,,,,,,,,,,,,,
,,,,,82,2020-07-04_19h49.08.937,retriever_ti,2020.1.3,Win32,60,Chrome,1920,1080,,,,,,,,,,,,,,,,,2,,,,,,,,,,,,,,,,,,,,,,,,,,,1409.99751,88,NaN,NaN,No_response,NaN,NaN,NaN,2,2,1410.011535,1410.011535,1412.503855,0,10,10,10,1,88,8,7,seaturtle     ,giraffe     ,html/resources/sequences_IDs/A/02_seaturtle.jpg,html/resources/sequences_IDs/B/03_giraffe.jpg,2,3,2,1,1,1,1,2,0,82,,,,,,,,,,,,,,,,,,,,
,,,,,82,2020-07-04_19h49.08.937,retriever_ti,2020.1.3,Win32,60,Chrome,1920,1080,,,,,,,,,,,,,,,,,2,,,,,,,,,,,,,,,,,,,,,,,,,,,1413.594535,89,right,0.811075,dress         ,6,7,5,1,3,1413.6023,1413.6023,1416.09392,0,11,11,11,1,89,1,6,phone       ,dress         ,html/resources/sequences_IDs/B/09_phone.jpg,html/resources/sequences_IDs/A/07_dress.jpg,9,7,4,2,3,2,7,5,0,82,,,,,,,,,,,,,,,,,,,,
,,,,,82,2020-07-04_19h49.08.937,retriever_ti,2020.1.3,Win32,60,Chrome,1920,1080,,,,,,,,,,,,,,,,,2,,,,,,,,,,,,,,,,,,,,,,,,,,,1416.69835,90,left,0.777715,satellite_dish,2,10,-4,0,3,1416.71302,1416.71302,1419.20515,0,12,12,12,1,90,2,6,satellite_dish,dress         ,html/resources/sequences_IDs/A/10_satellite_dish.jpg,html/resources/sequences_IDs/A/07_dress.jpg,10,7,4,2,3,2,8,5,0,82,,,,,,,,,,,,,,,,,,,,
,,,,,82,2020-07-04_19h49.08.937,retriever_ti,2020.1.3,Win32,60,Chrome,1920,1080,,,,,,,,,,,,,,,,,2,,,,,,,,,,,,,,,,,,,,,,,,,,,1419.809625,91,left,1.107115,giraffe     ,7,3,1,1,1,1419.81673,1419.81673,1422.309125,0,13,13,13,1,91,7,6,giraffe     ,dress         ,html/resources/sequences_IDs/B/03_giraffe.jpg,html/resources/sequences_IDs/A/07_dress.jpg,3,7,1,1,3,2,2,5,0,82,,,,,,,,,,,,,,,,,,,,
,,,,,82,2020-07-04_19h49.08.937,retriever_ti,2020.1.3,Win32,60,Chrome,1920,1080,,,,,,,,,,,,,,,,,2,,,,,,,,,,,,,,,,,,,,,,,,,,,1423.39985,92,right,1.22165,parrot      ,3,5,-3,0,3,1423.4138,1423.4138,1425.906125,0,14,14,14,1,92,6,3,dress         ,parrot      ,html/resources/sequences_IDs/A/07_dress.jpg,html/resources/sequences_IDs/B/05_parrot.jpg,7,5,3,2,2,1,5,4,0,82,,,,,,,,,,,,,,,,,,,,
,,,,,82,2020-07-04_19h49.08.937,retriever_ti,2020.1.3,Win32,60,Chrome,1920,1080,,,,,,,,,,,,,,,,,2,,,,,,,,,,,,,,,,,,,,,,,,,,,1426.5268,93,left,0.786725,dress         ,6,7,1,1,1,1426.562115,1426.562115,1429.052515,0,15,15,15,1,93,6,5,dress         ,slipper     ,html/resources/sequences_IDs/A/07_dress.jpg,html/resources/sequences_IDs/B/08_slipper.jpg,7,8,3,2,3,2,5,6,0,82,,,,,,,,,,,,,,,,,,,,
,,,,,82,2020-07-04_19h49.08.937,retriever_ti,2020.1.3,Win32,60,Chrome,1920,1080,,,,,,,,,,,,,,,,,2,,,,,,,,,,,,,,,,,,,,,,,,,,,1430.1426,94,left,0.84701,giraffe     ,7,3,3,1,3,1430.156985,1430.156985,1432.64891,0,16,16,16,1,94,7,4,giraffe     ,clownfish     ,html/resources/sequences_IDs/B/03_giraffe.jpg,html/resources/sequences_IDs/A/04_clownfish.jpg,3,4,1,1,2,1,2,3,0,82,,,,,,,,,,,,,,,,,,,,
,,,,,82,2020-07-04_19h49.08.937,retriever_ti,2020.1.3,Win32,60,Chrome,1920,1080,,,,,,,,,,,,,,,,,2,,,,,,,,,,,,,,,,,,,,,,,,,,,1433.253815,95,left,0.75296,parrot      ,3,5,-5,0,3,1433.260925,1433.260925,1435.753025,0,17,17,17,1,95,3,8,parrot      ,seaturtle     ,html/resources/sequences_IDs/B/05_parrot.jpg,html/resources/sequences_IDs/A/02_seaturtle.jpg,5,2,2,1,2,1,4,1,0,82,,,,,,,,,,,,,,,,,,,,
,,,,,82,2020-07-04_19h49.08.937,retriever_ti,2020.1.3,Win32,60,Chrome,1920,1080,,,,,,,,,,,,,,,,,2,,,,,,,,,,,,,,,,,,,,,,,,,,,1436.35745,96,left,1.682065,parrot      ,3,5,-4,0,3,1436.371855,1436.371855,1438.863985,0,18,18,18,1,96,3,7,parrot      ,giraffe     ,html/resources/sequences_IDs/B/05_parrot.jpg,html/resources/sequences_IDs/B/03_giraffe.jpg,5,3,2,1,1,1,4,2,0,82,,,,,,,,,,,,,,,,,,,,
,,,,,82,2020-07-04_19h49.08.937,retriever_ti,2020.1.3,Win32,60,Chrome,1920,1080,,,,,,,,,,,,,,,,,2,,,,,,,,,,,,,,,,,,,,,,,,,,,1439.469105,97,left,1.46739,clownfish     ,4,4,-4,0,3,1439.48287,1439.48287,1441.974975,0,19,19,19,1,97,4,8,clownfish     ,seaturtle     ,html/resources/sequences_IDs/A/04_clownfish.jpg,html/resources/sequences_IDs/A/02_seaturtle.jpg,4,2,2,1,2,1,3,1,0,82,,,,,,,,,,,,,,,,,,,,
,,,,,82,2020-07-04_19h49.08.937,retriever_ti,2020.1.3,Win32,60,Chrome,1920,1080,,,,,,,,,,,,,,,,,2,,,,,,,,,,,,,,,,,,,,,,,,,,,1442.57944,98,right,1.64464,seaturtle     ,8,2,6,1,3,1442.593915,1442.593915,1445.086,0,20,20,20,1,98,2,8,satellite_dish,seaturtle     ,html/resources/sequences_IDs/A/10_satellite_dish.jpg,html/resources/sequences_IDs/A/02_seaturtle.jpg,10,2,4,2,2,1,8,1,0,82,,,,,,,,,,,,,,,,,,,,
,,,,,82,2020-07-04_19h49.08.937,retriever_ti,2020.1.3,Win32,60,Chrome,1920,1080,,,,,,,,,,,,,,,,,2,,,,,,,,,,,,,,,,,,,,,,,,,,,1445.690735,99,left,2.0186,clownfish     ,4,4,1,1,1,1445.70466,1445.70466,1448.197075,0,21,21,21,1,99,4,3,clownfish     ,parrot      ,html/resources/sequences_IDs/A/04_clownfish.jpg,html/resources/sequences_IDs/B/05_parrot.jpg,4,5,2,1,2,1,3,4,0,82,,,,,,,,,,,,,,,,,,,,
,,,,,82,2020-07-04_19h49.08.937,retriever_ti,2020.1.3,Win32,60,Chrome,1920,1080,,,,,,,,,,,,,,,,,2,,,,,,,,,,,,,,,,,,,,,,,,,,,1449.288055,100,right,2.187955,parrot      ,3,5,-2,0,3,1449.295345,1449.295345,1451.787115,0,22,22,22,1,100,5,3,slipper     ,parrot      ,html/resources/sequences_IDs/B/08_slipper.jpg,html/resources/sequences_IDs/B/05_parrot.jpg,8,5,3,2,2,1,6,4,0,82,,,,,,,,,,,,,,,,,,,,
,,,,,82,2020-07-04_19h49.08.937,retriever_ti,2020.1.3,Win32,60,Chrome,1920,1080,,,,,,,,,,,,,,,,,2,,,,,,,,,,,,,,,,,,,,,,,,,,,1452.391805,101,left,1.54693,seaturtle     ,8,2,4,1,3,1452.399,1452.399,1454.891135,0,23,23,23,1,101,8,4,seaturtle     ,clownfish     ,html/resources/sequences_IDs/A/02_seaturtle.jpg,html/resources/sequences_IDs/A/04_clownfish.jpg,2,4,2,1,2,1,1,3,0,82,,,,,,,,,,,,,,,,,,,,
,,,,,82,2020-07-04_19h49.08.937,retriever_ti,2020.1.3,Win32,60,Chrome,1920,1080,,,,,,,,,,,,,,,,,2,,,,,,,,,,,,,,,,,,,,,,,,,,,1455.496355,102,left,1.15348,clownfish     ,4,4,-1,0,0,1455.50291,1455.50291,1457.99536,0,24,24,24,1,102,4,5,clownfish     ,slipper     ,html/resources/sequences_IDs/A/04_clownfish.jpg,html/resources/sequences_IDs/B/08_slipper.jpg,4,8,2,1,3,2,3,6,0,82,,,,,,,,,,,,,,,,,,,,
,,,,,82,2020-07-04_19h49.08.937,retriever_ti,2020.1.3,Win32,60,Chrome,1920,1080,,,,,,,,,,,,,,,,,2,,,,,,,,,,,,,,,,,,,,,,,,,,,1459.085975,103,left,1.06096,slipper     ,5,8,4,1,3,1459.1001,1459.1001,1461.59229,0,25,25,25,1,103,5,1,slipper     ,phone       ,html/resources/sequences_IDs/B/08_slipper.jpg,html/resources/sequences_IDs/B/09_phone.jpg,8,9,3,2,4,2,6,7,0,82,,,,,,,,,,,,,,,,,,,,
,,,,,82,2020-07-04_19h49.08.937,retriever_ti,2020.1.3,Win32,60,Chrome,1920,1080,,,,,,,,,,,,,,,,,2,,,,,,,,,,,,,,,,,,,,,,,,,,,1462.19748,104,right,1.37798,slipper     ,5,8,3,1,3,1462.20399,1462.20399,1464.696525,0,26,26,26,1,104,2,5,satellite_dish,slipper     ,html/resources/sequences_IDs/A/10_satellite_dish.jpg,html/resources/sequences_IDs/B/08_slipper.jpg,10,8,4,2,3,2,8,6,0,82,,,,,,,,,,,,,,,,,,,,
,,,,,82,2020-07-04_19h49.08.937,retriever_ti,2020.1.3,Win32,60,Chrome,1920,1080,,,,,,,,,,,,,,,,,2,,,,,,,,,,,,,,,,,,,,,,,,,,,1465.30139,105,left,1.0002,parrot      ,3,5,-1,0,0,1465.308345,1465.308345,1467.80048,0,27,27,27,1,105,3,4,parrot      ,clownfish     ,html/resources/sequences_IDs/B/05_parrot.jpg,html/resources/sequences_IDs/A/04_clownfish.jpg,5,4,2,1,2,1,4,3,0,82,,,,,,,,,,,,,,,,,,,,
,,,,,82,2020-07-04_19h49.08.937,retriever_ti,2020.1.3,Win32,60,Chrome,1920,1080,,,,,,,,,,,,,,,,,2,,,,,,,,,,,,,,,,,,,,,,,,,,,1468.89108,106,right,1.05263,giraffe     ,7,3,6,1,3,1468.898535,1468.898535,1471.390675,0,28,28,28,1,106,1,7,phone       ,giraffe     ,html/resources/sequences_IDs/B/09_phone.jpg,html/resources/sequences_IDs/B/03_giraffe.jpg,9,3,4,2,1,1,7,2,0,82,,,,,,,,,,,,,,,,,,,,
,,,,,82,2020-07-04_19h49.08.937,retriever_ti,2020.1.3,Win32,60,Chrome,1920,1080,,,,,,,,,,,,,,,,,2,,,,,,,,,,,,,,,,,,,,,,,,,,,1471.99566,107,right,1.34861,dress         ,6,7,-2,0,3,1472.00999,1472.00999,1474.50175,0,29,29,29,1,107,8,6,seaturtle     ,dress         ,html/resources/sequences_IDs/A/02_seaturtle.jpg,html/resources/sequences_IDs/A/07_dress.jpg,2,7,2,1,3,2,1,5,0,82,,,,,,,,,,,,,,,,,,,,
,,,,,82,2020-07-04_19h49.08.937,retriever_ti,2020.1.3,Win32,60,Chrome,1920,1080,,,,,,,,,,,,,,,,,2,,,,,,,,,,,,,,,,,,,,,,,,,,,1475.106135,108,right,0.932715,giraffe     ,7,3,2,1,3,1475.113925,1475.113925,1477.60582,0,30,30,30,1,108,5,7,slipper     ,giraffe     ,html/resources/sequences_IDs/B/08_slipper.jpg,html/resources/sequences_IDs/B/03_giraffe.jpg,8,3,3,2,1,1,6,2,0,82,,,,,,,,,,,,,,,,,,,,
,,,,,82,2020-07-04_19h49.08.937,retriever_ti,2020.1.3,Win32,60,Chrome,1920,1080,,,,,,,,,,,,,,,,,2,,,,,,,,,,,,,,,,,,,,,,,,,,,1478.210825,109,left,0.995025,satellite_dish,2,10,1,1,1,1478.217985,1478.217985,1480.70978,0,31,31,31,1,109,2,1,satellite_dish,phone       ,html/resources/sequences_IDs/A/10_satellite_dish.jpg,html/resources/sequences_IDs/B/09_phone.jpg,10,9,4,2,4,2,8,7,0,82,,,,,,,,,,,,,,,,,,,,
,,,,,82,2020-07-04_19h49.08.937,retriever_ti,2020.1.3,Win32,60,Chrome,1920,1080,,,,,,,,,,,,,,,,,2,,,,,,,,,,,,,,,,,,,,,,,,,,,1481.8007,110,right,1.086725,giraffe     ,7,3,1,1,1,1481.807585,1481.807585,1484.300245,0,32,32,32,1,110,6,7,dress         ,giraffe     ,html/resources/sequences_IDs/A/07_dress.jpg,html/resources/sequences_IDs/B/03_giraffe.jpg,7,3,3,2,1,1,5,2,0,82,,,,,,,,,,,,,,,,,,,,
,,,,,82,2020-07-04_19h49.08.937,retriever_ti,2020.1.3,Win32,60,Chrome,1920,1080,,,,,,,,,,,,,,,,,2,,,,,,,,,,,,,,,,,,,,,,,,,,,1485.390715,111,right,0.858445,dress         ,6,7,1,1,1,1485.40494,1485.40494,1487.89708,0,33,33,33,1,111,5,6,slipper     ,dress         ,html/resources/sequences_IDs/B/08_slipper.jpg,html/resources/sequences_IDs/A/07_dress.jpg,8,7,3,2,3,2,6,5,0,82,,,,,,,,,,,,,,,,,,,,
,,,,,82,2020-07-04_19h49.08.937,retriever_ti,2020.1.3,Win32,60,Chrome,1920,1080,,,,,,,,,,,,,,,,,2,,,,,,,,,,,,,,,,,,,,,,,,,,,1488.987865,112,right,1.69537,clownfish     ,4,4,-1,0,1,1489.002185,1489.002185,1491.494255,0,34,34,34,1,112,5,4,slipper     ,clownfish     ,html/resources/sequences_IDs/B/08_slipper.jpg,html/resources/sequences_IDs/A/04_clownfish.jpg,8,4,3,2,2,1,6,3,1,82,,,,,,,,,,,,,,,,,,,,
,,,,,82,2020-07-04_19h49.08.937,retriever_ti,2020.1.3,Win32,60,Chrome,1920,1080,,,,,,,,,,,,,,,,,2,,,,,,,,,,,,,,,,,,,,,,,,,,,1492.58526,113,right,1.56927,clownfish     ,4,4,-1,0,0,1492.592145,1492.592145,1495.08425,0,35,35,35,1,113,5,4,slipper     ,clownfish     ,html/resources/sequences_IDs/B/08_slipper.jpg,html/resources/sequences_IDs/A/04_clownfish.jpg,8,4,3,2,2,1,6,3,0,82,,,,,,,,,,,,,,,,,,,,
,,,,,82,2020-07-04_19h49.08.937,retriever_ti,2020.1.3,Win32,60,Chrome,1920,1080,,,,,,,,,,,,,,,,,2,,,,,,,,,,,,,,,,,,,,,,,,,,,1496.175205,114,left,1.13505,seaturtle     ,8,2,6,1,3,1496.18204,1496.18204,1498.674675,0,36,36,36,1,114,8,2,seaturtle     ,satellite_dish,html/resources/sequences_IDs/A/02_seaturtle.jpg,html/resources/sequences_IDs/A/10_satellite_dish.jpg,2,10,2,1,4,2,1,8,0,82,,,,,,,,,,,,,,,,,,,,
,,,,,82,2020-07-04_19h49.08.937,retriever_ti,2020.1.3,Win32,60,Chrome,1920,1080,,,,,,,,,,,,,,,,,2,,,,,,,,,,,,,,,,,,,,,,,,,,,1499.27946,115,left,1.177675,giraffe     ,7,3,-1,0,0,1499.28697,1499.28697,1501.778475,0,37,37,37,1,115,7,8,giraffe     ,seaturtle     ,html/resources/sequences_IDs/B/03_giraffe.jpg,html/resources/sequences_IDs/A/02_seaturtle.jpg,3,2,1,1,2,1,2,1,0,82,,,,,,,,,,,,,,,,,,,,
,,,,,82,2020-07-04_19h49.08.937,retriever_ti,2020.1.3,Win32,60,Chrome,1920,1080,,,,,,,,,,,,,,,,,2,,,,,,,,,,,,,,,,,,,,,,,,,,,1502.869125,116,left,1.28747,giraffe     ,7,3,2,1,3,1502.87716,1502.87716,1505.36873,0,38,38,38,1,116,7,5,giraffe     ,slipper     ,html/resources/sequences_IDs/B/03_giraffe.jpg,html/resources/sequences_IDs/B/08_slipper.jpg,3,8,1,1,3,2,2,6,0,82,,,,,,,,,,,,,,,,,,,,
,,,,,82,2020-07-04_19h49.08.937,retriever_ti,2020.1.3,Win32,60,Chrome,1920,1080,,,,,,,,,,,,,,,,,2,,,,,,,,,,,,,,,,,,,,,,,,,,,1505.97331,117,left,1.61561,satellite_dish,2,10,-1,0,1,1505.98752,1505.98752,1508.479665,0,39,39,39,1,117,2,3,satellite_dish,parrot      ,html/resources/sequences_IDs/A/10_satellite_dish.jpg,html/resources/sequences_IDs/B/05_parrot.jpg,10,5,4,2,2,1,8,4,1,82,,,,,,,,,,,,,,,,,,,,
,,,,,82,2020-07-04_19h49.08.937,retriever_ti,2020.1.3,Win32,60,Chrome,1920,1080,,,,,,,,,,,,,,,,,2,,,,,,,,,,,,,,,,,,,,,,,,,,,1509.570345,118,left,1.292375,dress         ,6,7,-2,0,3,1509.585745,1509.585745,1512.07679,0,40,40,40,1,118,6,8,dress         ,seaturtle     ,html/resources/sequences_IDs/A/07_dress.jpg,html/resources/sequences_IDs/A/02_seaturtle.jpg,7,2,3,2,2,1,5,1,0,82,,,,,,,,,,,,,,,,,,,,
,,,,,82,2020-07-04_19h49.08.937,retriever_ti,2020.1.3,Win32,60,Chrome,1920,1080,,,,,,,,,,,,,,,,,2,,,,,,,,,,,,,,,,,,,,,,,,,,,1512.68122,119,left,1.56567,giraffe     ,7,3,5,1,3,1512.688665,1512.688665,1515.18087,0,41,41,41,1,119,7,2,giraffe     ,satellite_dish,html/resources/sequences_IDs/B/03_giraffe.jpg,html/resources/sequences_IDs/A/10_satellite_dish.jpg,3,10,1,1,4,2,2,8,0,82,,,,,,,,,,,,,,,,,,,,
,,,,,82,2020-07-04_19h49.08.937,retriever_ti,2020.1.3,Win32,60,Chrome,1920,1080,,,,,,,,,,,,,,,,,2,,,,,,,,,,,,,,,,,,,,,,,,,,,1515.785605,120,left,1.45148,dress         ,6,7,2,1,3,1515.79971,1515.79971,1518.29202,0,42,42,42,1,120,6,4,dress         ,clownfish     ,html/resources/sequences_IDs/A/07_dress.jpg,html/resources/sequences_IDs/A/04_clownfish.jpg,7,4,3,2,2,1,5,3,0,82,,,,,,,,,,,,,,,,,,,,
,,,,,82,2020-07-04_19h49.08.937,retriever_ti,2020.1.3,Win32,60,Chrome,1920,1080,,,,,,,,,,,,,,,,,2,,,,,,,,,,,,,,,,,,,,,,,,,,,1518.896465,121,left,1.235435,phone       ,1,9,-1,0,0,1518.910725,1518.910725,1521.40282,0,43,43,43,1,121,1,2,phone       ,satellite_dish,html/resources/sequences_IDs/B/09_phone.jpg,html/resources/sequences_IDs/A/10_satellite_dish.jpg,9,10,4,2,4,2,7,8,0,82,,,,,,,,,,,,,,,,,,,,
,,,,,82,2020-07-04_19h49.08.937,retriever_ti,2020.1.3,Win32,60,Chrome,1920,1080,,,,,,,,,,,,,,,,,2,,,,,,,,,,,,,,,,,,,,,,,,,,,1522.493625,122,right,1.124995,giraffe     ,7,3,1,1,1,1522.507905,1522.507905,1525.000045,0,44,44,44,1,122,6,7,dress         ,giraffe     ,html/resources/sequences_IDs/A/07_dress.jpg,html/resources/sequences_IDs/B/03_giraffe.jpg,7,3,3,2,1,1,5,2,0,82,,,,,,,,,,,,,,,,,,,,
,,,,,82,2020-07-04_19h49.08.937,retriever_ti,2020.1.3,Win32,60,Chrome,1920,1080,,,,,,,,,,,,,,,,,2,,,,,,,,,,,,,,,,,,,,,,,,,,,1526.09115,123,left,1.223165,dress         ,6,7,5,1,3,1526.10478,1526.10478,1528.597155,0,45,45,45,1,123,6,1,dress         ,phone       ,html/resources/sequences_IDs/A/07_dress.jpg,html/resources/sequences_IDs/B/09_phone.jpg,7,9,3,2,4,2,5,7,0,82,,,,,,,,,,,,,,,,,,,,
,,,,,82,2020-07-04_19h49.08.937,retriever_ti,2020.1.3,Win32,60,Chrome,1920,1080,,,,,,,,,,,,,,,,,2,,,,,,,,,,,,,,,,,,,,,,,,,,,1529.201405,124,right,0.70857,dress         ,6,7,1,1,0,1529.216585,1529.216585,1531.708025,0,46,46,46,1,124,5,6,slipper     ,dress         ,html/resources/sequences_IDs/B/08_slipper.jpg,html/resources/sequences_IDs/A/07_dress.jpg,8,7,3,2,3,2,6,5,1,82,,,,,,,,,,,,,,,,,,,,
,,,,,82,2020-07-04_19h49.08.937,retriever_ti,2020.1.3,Win32,60,Chrome,1920,1080,,,,,,,,,,,,,,,,,2,,,,,,,,,,,,,,,,,,,,,,,,,,,1532.799145,125,right,1.84352,satellite_dish,2,10,-4,0,3,1532.80627,1532.80627,1535.29821,0,47,47,47,1,125,6,2,dress         ,satellite_dish,html/resources/sequences_IDs/A/07_dress.jpg,html/resources/sequences_IDs/A/10_satellite_dish.jpg,7,10,3,2,4,2,5,8,0,82,,,,,,,,,,,,,,,,,,,,
,,,,,82,2020-07-04_19h49.08.937,retriever_ti,2020.1.3,Win32,60,Chrome,1920,1080,,,,,,,,,,,,,,,,,2,,,,,,,,,,,,,,,,,,,,,,,,,,,1535.90294,126,left,0.777825,satellite_dish,2,10,1,1,1,1535.917075,1535.917075,1538.409215,0,48,48,48,1,126,2,1,satellite_dish,phone       ,html/resources/sequences_IDs/A/10_satellite_dish.jpg,html/resources/sequences_IDs/B/09_phone.jpg,10,9,4,2,4,2,8,7,0,82,,,,,,,,,,,,,,,,,,,,
,,,,,82,2020-07-04_19h49.08.937,retriever_ti,2020.1.3,Win32,60,Chrome,1920,1080,,,,,,,,,,,,,,,,,2,,,,,,,,,,,,,,,,,,,,,,,,,,,1539.500595,127,right,1.819485,seaturtle     ,8,2,7,1,3,1539.514135,1539.514135,1542.0063,0,49,49,49,1,127,1,8,phone       ,seaturtle     ,html/resources/sequences_IDs/B/09_phone.jpg,html/resources/sequences_IDs/A/02_seaturtle.jpg,9,2,4,2,2,1,7,1,0,82,,,,,,,,,,,,,,,,,,,,
,,,,,82,2020-07-04_19h49.08.937,retriever_ti,2020.1.3,Win32,60,Chrome,1920,1080,,,,,,,,,,,,,,,,,2,,,,,,,,,,,,,,,,,,,,,,,,,,,1542.610925,128,left,1.015455,satellite_dish,2,10,1,1,0,1542.625015,1542.625015,1545.11738,0,50,50,50,1,128,2,1,satellite_dish,phone       ,html/resources/sequences_IDs/A/10_satellite_dish.jpg,html/resources/sequences_IDs/B/09_phone.jpg,10,9,4,2,4,2,8,7,1,82,,,,,,,,,,,,,,,,,,,,
,,,,,82,2020-07-04_19h49.08.937,retriever_ti,2020.1.3,Win32,60,Chrome,1920,1080,,,,,,,,,,,,,,,,,2,,,,,,,,,,,,,,,,,,,,,,,,,,,1546.20826,129,right,1.27832,clownfish     ,4,4,3,1,3,1546.21845,1546.21845,1548.707435,0,51,51,51,1,129,1,4,phone       ,clownfish     ,html/resources/sequences_IDs/B/09_phone.jpg,html/resources/sequences_IDs/A/04_clownfish.jpg,9,4,4,2,2,1,7,3,0,82,,,,,,,,,,,,,,,,,,,,
,,,,,82,2020-07-04_19h49.08.937,retriever_ti,2020.1.3,Win32,60,Chrome,1920,1080,,,,,,,,,,,,,,,,,2,,,,,,,,,,,,,,,,,,,,,,,,,,,1549.31213,130,left,0.642915,parrot      ,3,5,2,1,3,1549.31919,1549.31919,1551.811485,0,52,52,52,1,130,3,1,parrot      ,phone       ,html/resources/sequences_IDs/B/05_parrot.jpg,html/resources/sequences_IDs/B/09_phone.jpg,5,9,2,1,4,2,4,7,0,82,,,,,,,,,,,,,,,,,,,,
,,,,,82,2020-07-04_19h49.08.937,retriever_ti,2020.1.3,Win32,60,Chrome,1920,1080,,,,,,,,,,,,,,,,,2,,,,,,,,,,,,,,,,,,,,,,,,,,,1552.416185,131,left,0.804415,parrot      ,3,5,-2,0,3,1552.430805,1552.430805,1554.922495,0,53,53,53,1,131,3,5,parrot      ,slipper     ,html/resources/sequences_IDs/B/05_parrot.jpg,html/resources/sequences_IDs/B/08_slipper.jpg,5,8,2,1,3,2,4,6,0,82,,,,,,,,,,,,,,,,,,,,
,,,,,82,2020-07-04_19h49.08.937,retriever_ti,2020.1.3,Win32,60,Chrome,1920,1080,,,,,,,,,,,,,,,,,2,,,,,,,,,,,,,,,,,,,,,,,,,,,1555.527095,132,right,1.002935,clownfish     ,4,4,-1,0,0,1555.534435,1555.534435,1558.026625,0,54,54,54,1,132,5,4,slipper     ,clownfish     ,html/resources/sequences_IDs/B/08_slipper.jpg,html/resources/sequences_IDs/A/04_clownfish.jpg,8,4,3,2,2,1,6,3,0,82,,,,,,,,,,,,,,,,,,,,
,,,,,82,2020-07-04_19h49.08.937,retriever_ti,2020.1.3,Win32,60,Chrome,1920,1080,,,,,,,,,,,,,,,,,2,,,,,,,,,,,,,,,,,,,,,,,,,,,1559.117135,133,left,0.66664,clownfish     ,4,4,1,1,1,1559.124585,1559.124585,1561.616735,0,55,55,55,1,133,4,3,clownfish     ,parrot      ,html/resources/sequences_IDs/A/04_clownfish.jpg,html/resources/sequences_IDs/B/05_parrot.jpg,4,5,2,1,2,1,3,4,0,82,,,,,,,,,,,,,,,,,,,,
,,,,,82,2020-07-04_19h49.08.937,retriever_ti,2020.1.3,Win32,60,Chrome,1920,1080,,,,,,,,,,,,,,,,,2,,,,,,,,,,,,,,,,,,,,,,,,,,,1562.707415,134,right,0.87301,dress         ,6,7,1,1,1,1562.72163,1562.72163,1565.21386,0,56,56,56,1,134,5,6,slipper     ,dress         ,html/resources/sequences_IDs/B/08_slipper.jpg,html/resources/sequences_IDs/A/07_dress.jpg,8,7,3,2,3,2,6,5,0,82,,,,,,,,,,,,,,,,,,,,
,,,,,82,2020-07-04_19h49.08.937,retriever_ti,2020.1.3,Win32,60,Chrome,1920,1080,,,,,,,,,,,,,,,,,2,,,,,,,,,,,,,,,,,,,,,,,,,,,1566.305735,135,left,1.12488,parrot      ,3,5,-1,0,0,1566.31205,1566.31205,1568.803975,0,57,57,57,1,135,3,4,parrot      ,clownfish     ,html/resources/sequences_IDs/B/05_parrot.jpg,html/resources/sequences_IDs/A/04_clownfish.jpg,5,4,2,1,2,1,4,3,0,82,,,,,,,,,,,,,,,,,,,,
,,,,,82,2020-07-04_19h49.08.937,retriever_ti,2020.1.3,Win32,60,Chrome,1920,1080,,,,,,,,,,,,,,,,,2,,,,,,,,,,,,,,,,,,,,,,,,,,,1569.89494,136,left,0.66558,clownfish     ,4,4,3,1,3,1569.901765,1569.901765,1572.39414,0,58,58,58,1,136,4,1,clownfish     ,phone       ,html/resources/sequences_IDs/A/04_clownfish.jpg,html/resources/sequences_IDs/B/09_phone.jpg,4,9,2,1,4,2,3,7,0,82,,,,,,,,,,,,,,,,,,,,
,,,,,82,2020-07-04_19h49.08.937,retriever_ti,2020.1.3,Win32,60,Chrome,1920,1080,,,,,,,,,,,,,,,,,2,,,,,,,,,,,,,,,,,,,,,,,,,,,1572.99863,137,right,1.18556,satellite_dish,2,10,-2,0,3,1573.006255,1573.006255,1575.4982,0,59,59,59,1,137,4,2,clownfish     ,satellite_dish,html/resources/sequences_IDs/A/04_clownfish.jpg,html/resources/sequences_IDs/A/10_satellite_dish.jpg,4,10,2,1,4,2,3,8,0,82,,,,,,,,,,,,,,,,,,,,
,,,,,82,2020-07-04_19h49.08.937,retriever_ti,2020.1.3,Win32,60,Chrome,1920,1080,,,,,,,,,,,,,,,,,2,,,,,,,,,,,,,,,,,,,,,,,,,,,1576.10299,138,left,0.886285,parrot      ,3,5,-3,0,3,1576.116965,1576.116965,1578.609365,0,60,60,60,1,138,3,6,parrot      ,dress         ,html/resources/sequences_IDs/B/05_parrot.jpg,html/resources/sequences_IDs/A/07_dress.jpg,5,7,2,1,3,2,4,5,0,82,,,,,,,,,,,,,,,,,,,,
,,,,,82,2020-07-04_19h49.08.937,retriever_ti,2020.1.3,Win32,60,Chrome,1920,1080,,,,,,,,,,,,,,,,,2,,,,,,,,,,,,,,,,,,,,,,,,,,,1579.213645,139,left,0.949745,giraffe     ,7,3,4,1,3,1579.22791,1579.22791,1581.72039,0,61,61,61,1,139,7,3,giraffe     ,parrot      ,html/resources/sequences_IDs/B/03_giraffe.jpg,html/resources/sequences_IDs/B/05_parrot.jpg,3,5,1,1,2,1,2,4,0,82,,,,,,,,,,,,,,,,,,,,
,,,,,82,2020-07-04_19h49.08.937,retriever_ti,2020.1.3,Win32,60,Chrome,1920,1080,,,,,,,,,,,,,,,,,2,,,,,,,,,,,,,,,,,,,,,,,,,,,1582.325035,140,left,1.75731,clownfish     ,4,4,-2,0,3,1582.33913,1582.33913,1584.831165,0,62,62,62,1,140,4,6,clownfish     ,dress         ,html/resources/sequences_IDs/A/04_clownfish.jpg,html/resources/sequences_IDs/A/07_dress.jpg,4,7,2,1,3,2,3,5,0,82,,,,,,,,,,,,,,,,,,,,
,,,,,82,2020-07-04_19h49.08.937,retriever_ti,2020.1.3,Win32,60,Chrome,1920,1080,,,,,,,,,,,,,,,,,2,,,,,,,,,,,,,,,,,,,,,,,,,,,1585.436475,141,NaN,NaN,No_response,NaN,NaN,NaN,2,2,1585.443155,1585.443155,1587.93535,0,63,63,63,1,141,3,2,parrot      ,satellite_dish,html/resources/sequences_IDs/B/05_parrot.jpg,html/resources/sequences_IDs/A/10_satellite_dish.jpg,5,10,2,1,4,2,4,8,0,82,,,,,,,,,,,,,,,,,,,,
,,,,,82,2020-07-04_19h49.08.937,retriever_ti,2020.1.3,Win32,60,Chrome,1920,1080,,,,,,,,,,,,,,,,,2,,,,,,,,,,,,,,,,,,,,,,,,,,,1589.02607,142,right,1.004725,parrot      ,3,5,1,1,1,1589.03319,1589.03319,1591.525455,0,64,64,64,1,142,2,3,satellite_dish,parrot      ,html/resources/sequences_IDs/A/10_satellite_dish.jpg,html/resources/sequences_IDs/B/05_parrot.jpg,10,5,4,2,2,1,8,4,0,82,,,,,,,,,,,,,,,,,,,,
,,,,,82,2020-07-04_19h49.08.937,retriever_ti,2020.1.3,Win32,60,Chrome,1920,1080,,,,,,,,,,,,,,,,,2,,,,,,,,,,,,,,,,,,,,,,,,,,,1592.616475,143,right,1.736245,giraffe     ,7,3,-1,0,0,1592.63033,1592.63033,1595.12245,0,65,65,65,1,143,8,7,seaturtle     ,giraffe     ,html/resources/sequences_IDs/A/02_seaturtle.jpg,html/resources/sequences_IDs/B/03_giraffe.jpg,2,3,2,1,1,1,1,2,0,82,,,,,,,,,,,,,,,,,,,,
,,,,,82,2020-07-04_19h49.08.937,retriever_ti,2020.1.3,Win32,60,Chrome,1920,1080,,,,,,,,,,,,,,,,,2,,,,,,,,,,,,,,,,,,,,,,,,,,,1596.213925,144,left,0.65523,seaturtle     ,8,2,3,1,3,1596.227845,1596.227845,1598.719705,0,66,66,66,1,144,8,5,seaturtle     ,slipper     ,html/resources/sequences_IDs/A/02_seaturtle.jpg,html/resources/sequences_IDs/B/08_slipper.jpg,2,8,2,1,3,2,1,6,0,82,,,,,,,,,,,,,,,,,,,,
,,,,,82,2020-07-04_19h49.08.937,retriever_ti,2020.1.3,Win32,60,Chrome,1920,1080,,,,,,,,,,,,,,,,,2,,,,,,,,,,,,,,,,,,,,,,,,,,,1599.32424,145,left,0.90343,satellite_dish,2,10,-5,0,3,1599.331785,1599.331785,1601.823745,0,67,67,67,1,145,2,7,satellite_dish,giraffe     ,html/resources/sequences_IDs/A/10_satellite_dish.jpg,html/resources/sequences_IDs/B/03_giraffe.jpg,10,3,4,2,1,1,8,2,0,82,,,,,,,,,,,,,,,,,,,,
,,,,,82,2020-07-04_19h49.08.937,retriever_ti,2020.1.3,Win32,60,Chrome,1920,1080,,,,,,,,,,,,,,,,,2,,,,,,,,,,,,,,,,,,,,,,,,,,,1602.428165,146,left,1.621325,clownfish     ,4,4,-1,0,0,1602.43578,1602.43578,1604.927685,0,68,68,68,1,146,4,5,clownfish     ,slipper     ,html/resources/sequences_IDs/A/04_clownfish.jpg,html/resources/sequences_IDs/B/08_slipper.jpg,4,8,2,1,3,2,3,6,0,82,,,,,,,,,,,,,,,,,,,,
,,,,,82,2020-07-04_19h49.08.937,retriever_ti,2020.1.3,Win32,60,Chrome,1920,1080,,,,,,,,,,,,,,,,,2,,,,,,,,,,,,,,,,,,,,,,,,,,,1606.018745,147,left,1.094395,parrot      ,3,5,1,1,1,1606.0259,1606.0259,1608.51819,0,69,69,69,1,147,3,2,parrot      ,satellite_dish,html/resources/sequences_IDs/B/05_parrot.jpg,html/resources/sequences_IDs/A/10_satellite_dish.jpg,5,10,2,1,4,2,4,8,0,82,,,,,,,,,,,,,,,,,,,,
,,,,,82,2020-07-04_19h49.08.937,retriever_ti,2020.1.3,Win32,60,Chrome,1920,1080,,,,,,,,,,,,,,,,,2,,,,,,,,,,,,,,,,,,,,,,,,,,,1609.608705,148,left,0.715315,giraffe     ,7,3,6,1,3,1609.616375,1609.616375,1612.10805,0,70,70,70,1,148,7,1,giraffe     ,phone       ,html/resources/sequences_IDs/B/03_giraffe.jpg,html/resources/sequences_IDs/B/09_phone.jpg,3,9,1,1,4,2,2,7,0,82,,,,,,,,,,,,,,,,,,,,
,,,,,82,2020-07-04_19h49.08.937,retriever_ti,2020.1.3,Win32,60,Chrome,1920,1080,,,,,,,,,,,,,,,,,2,,,,,,,,,,,,,,,,,,,,,,,,,,,1612.71267,149,right,0.99755,satellite_dish,2,10,-3,0,3,1612.720135,1612.720135,1615.212255,0,71,71,71,1,149,5,2,slipper     ,satellite_dish,html/resources/sequences_IDs/B/08_slipper.jpg,html/resources/sequences_IDs/A/10_satellite_dish.jpg,8,10,3,2,4,2,6,8,0,82,,,,,,,,,,,,,,,,,,,,
,,,,,82,2020-07-04_19h49.08.937,retriever_ti,2020.1.3,Win32,60,Chrome,1920,1080,,,,,,,,,,,,,,,,,2,,,,,,,,,,,,,,,,,,,,,,,,,,,1615.817425,150,left,1.09302,parrot      ,3,5,-1,0,1,1615.831585,1615.831585,1618.323225,0,72,72,72,1,150,3,4,parrot      ,clownfish     ,html/resources/sequences_IDs/B/05_parrot.jpg,html/resources/sequences_IDs/A/04_clownfish.jpg,5,4,2,1,2,1,4,3,1,82,,,,,,,,,,,,,,,,,,,,
,,,,,82,2020-07-04_19h49.08.937,retriever_ti,2020.1.3,Win32,60,Chrome,1920,1080,,,,,,,,,,,,,,,,,2,,,,,,,,,,,,,,,,,,,,,,,,,,,1619.41406,151,left,1.19013,dress         ,6,7,-1,0,1,1619.42797,1619.42797,1621.920295,0,73,73,73,1,151,6,7,dress         ,giraffe     ,html/resources/sequences_IDs/A/07_dress.jpg,html/resources/sequences_IDs/B/03_giraffe.jpg,7,3,3,2,1,1,5,2,1,82,,,,,,,,,,,,,,,,,,,,
,,,,,82,2020-07-04_19h49.08.937,retriever_ti,2020.1.3,Win32,60,Chrome,1920,1080,,,,,,,,,,,,,,,,,2,,,,,,,,,,,,,,,,,,,,,,,,,,,1623.01086,152,right,1.249535,seaturtle     ,8,2,3,1,3,1623.018095,1623.018095,1625.510385,0,74,74,74,1,152,5,8,slipper     ,seaturtle     ,html/resources/sequences_IDs/B/08_slipper.jpg,html/resources/sequences_IDs/A/02_seaturtle.jpg,8,2,3,2,2,1,6,1,0,82,,,,,,,,,,,,,,,,,,,,
,,,,,82,2020-07-04_19h49.08.937,retriever_ti,2020.1.3,Win32,60,Chrome,1920,1080,,,,,,,,,,,,,,,,,2,,,,,,,,,,,,,,,,,,,,,,,,,,,1626.11534,153,right,0.863115,parrot      ,3,5,2,1,3,1626.12225,1626.12225,1628.61452,0,75,75,75,1,153,1,3,phone       ,parrot      ,html/resources/sequences_IDs/B/09_phone.jpg,html/resources/sequences_IDs/B/05_parrot.jpg,9,5,4,2,2,1,7,4,0,82,,,,,,,,,,,,,,,,,,,,
,,,,,82,2020-07-04_19h49.08.937,retriever_ti,2020.1.3,Win32,60,Chrome,1920,1080,,,,,,,,,,,,,,,,,2,,,,,,,,,,,,,,,,,,,,,,,,,,,1629.2192,154,right,0.989945,seaturtle     ,8,2,1,1,0,1629.233205,1629.233205,1631.725545,0,76,76,76,1,154,7,8,giraffe     ,seaturtle     ,html/resources/sequences_IDs/B/03_giraffe.jpg,html/resources/sequences_IDs/A/02_seaturtle.jpg,3,2,1,1,2,1,2,1,1,82,,,,,,,,,,,,,,,,,,,,
,,,,,82,2020-07-04_19h49.08.937,retriever_ti,2020.1.3,Win32,60,Chrome,1920,1080,,,,,,,,,,,,,,,,,,,,,,,,,,,,,,,,,,,,,0,1.30089,,,,,,,,,,,,,,,,,,,,,,,,,,,,,,,,,,,,,,,,,1,0,1,0,1,,,,,,,,,,,,,,,
,,,,,82,2020-07-04_19h49.08.937,retriever_ti,2020.1.3,Win32,60,Chrome,1920,1080,,,,,,,,,,,,,,,,,3,,,,,,,,,,,,,,,,,,,,,,,,,,,1693.490185,155,right,1.007735,giraffe     ,7,3,-1,0,0,1693.502255,1693.502255,1695.994255,0,0,0,0,1,155,8,7,seaturtle     ,giraffe     ,html/resources/sequences_IDs/A/02_seaturtle.jpg,html/resources/sequences_IDs/B/03_giraffe.jpg,2,3,2,1,1,1,1,2,0,82,,,,,,,,,,,,,,,,,,,,
,,,,,82,2020-07-04_19h49.08.937,retriever_ti,2020.1.3,Win32,60,Chrome,1920,1080,,,,,,,,,,,,,,,,,3,,,,,,,,,,,,,,,,,,,,,,,,,,,1697.085115,156,right,1.33021,dress         ,6,7,3,1,3,1697.09931,1697.09931,1699.591385,0,1,1,1,1,156,3,6,parrot      ,dress         ,html/resources/sequences_IDs/B/05_parrot.jpg,html/resources/sequences_IDs/A/07_dress.jpg,5,7,2,1,3,2,4,5,0,82,,,,,,,,,,,,,,,,,,,,
,,,,,82,2020-07-04_19h49.08.937,retriever_ti,2020.1.3,Win32,60,Chrome,1920,1080,,,,,,,,,,,,,,,,,3,,,,,,,,,,,,,,,,,,,,,,,,,,,1700.196125,157,right,1.02834,seaturtle     ,8,2,3,1,3,1700.21027,1700.21027,1702.702175,0,2,2,2,1,157,5,8,slipper     ,seaturtle     ,html/resources/sequences_IDs/B/08_slipper.jpg,html/resources/sequences_IDs/A/02_seaturtle.jpg,8,2,3,2,2,1,6,1,0,82,,,,,,,,,,,,,,,,,,,,
,,,,,82,2020-07-04_19h49.08.937,retriever_ti,2020.1.3,Win32,60,Chrome,1920,1080,,,,,,,,,,,,,,,,,3,,,,,,,,,,,,,,,,,,,,,,,,,,,1703.30702,158,right,1.803835,dress         ,6,7,1,1,1,1703.32103,1703.32103,1705.813375,0,3,3,3,1,158,5,6,slipper     ,dress         ,html/resources/sequences_IDs/B/08_slipper.jpg,html/resources/sequences_IDs/A/07_dress.jpg,8,7,3,2,3,2,6,5,0,82,,,,,,,,,,,,,,,,,,,,
,,,,,82,2020-07-04_19h49.08.937,retriever_ti,2020.1.3,Win32,60,Chrome,1920,1080,,,,,,,,,,,,,,,,,3,,,,,,,,,,,,,,,,,,,,,,,,,,,1706.90404,159,left,0.802115,giraffe     ,7,3,2,1,3,1706.91132,1706.91132,1709.40341,0,4,4,4,1,159,7,5,giraffe     ,slipper     ,html/resources/sequences_IDs/B/03_giraffe.jpg,html/resources/sequences_IDs/B/08_slipper.jpg,3,8,1,1,3,2,2,6,0,82,,,,,,,,,,,,,,,,,,,,
,,,,,82,2020-07-04_19h49.08.937,retriever_ti,2020.1.3,Win32,60,Chrome,1920,1080,,,,,,,,,,,,,,,,,3,,,,,,,,,,,,,,,,,,,,,,,,,,,1710.008125,160,right,1.04621,giraffe     ,7,3,5,1,3,1710.022185,1710.022185,1712.51454,0,5,5,5,1,160,2,7,satellite_dish,giraffe     ,html/resources/sequences_IDs/A/10_satellite_dish.jpg,html/resources/sequences_IDs/B/03_giraffe.jpg,10,3,4,2,1,1,8,2,0,82,,,,,,,,,,,,,,,,,,,,
,,,,,82,2020-07-04_19h49.08.937,retriever_ti,2020.1.3,Win32,60,Chrome,1920,1080,,,,,,,,,,,,,,,,,3,,,,,,,,,,,,,,,,,,,,,,,,,,,1713.1188,161,left,0.789265,giraffe     ,7,3,-1,0,0,1713.13341,1713.13341,1715.62568,0,6,6,6,1,161,7,8,giraffe     ,seaturtle     ,html/resources/sequences_IDs/B/03_giraffe.jpg,html/resources/sequences_IDs/A/02_seaturtle.jpg,3,2,1,1,2,1,2,1,0,82,,,,,,,,,,,,,,,,,,,,
,,,,,82,2020-07-04_19h49.08.937,retriever_ti,2020.1.3,Win32,60,Chrome,1920,1080,,,,,,,,,,,,,,,,,3,,,,,,,,,,,,,,,,,,,,,,,,,,,1716.71643,162,right,1.26039,clownfish     ,4,4,-1,0,0,1716.73033,1716.73033,1719.222575,0,7,7,7,1,162,5,4,slipper     ,clownfish     ,html/resources/sequences_IDs/B/08_slipper.jpg,html/resources/sequences_IDs/A/04_clownfish.jpg,8,4,3,2,2,1,6,3,0,82,,,,,,,,,,,,,,,,,,,,
,,,,,82,2020-07-04_19h49.08.937,retriever_ti,2020.1.3,Win32,60,Chrome,1920,1080,,,,,,,,,,,,,,,,,3,,,,,,,,,,,,,,,,,,,,,,,,,,,1720.313485,163,NaN,NaN,No_response,NaN,NaN,NaN,2,2,1720.32036,1720.32036,1722.81288,0,8,8,8,1,163,1,2,phone       ,satellite_dish,html/resources/sequences_IDs/B/09_phone.jpg,html/resources/sequences_IDs/A/10_satellite_dish.jpg,9,10,4,2,4,2,7,8,0,82,,,,,,,,,,,,,,,,,,,,
,,,,,82,2020-07-04_19h49.08.937,retriever_ti,2020.1.3,Win32,60,Chrome,1920,1080,,,,,,,,,,,,,,,,,3,,,,,,,,,,,,,,,,,,,,,,,,,,,1723.90343,164,right,0.58122,dress         ,6,7,1,1,1,1723.910925,1723.910925,1726.40289,0,9,9,9,1,164,5,6,slipper     ,dress         ,html/resources/sequences_IDs/B/08_slipper.jpg,html/resources/sequences_IDs/A/07_dress.jpg,8,7,3,2,3,2,6,5,0,82,,,,,,,,,,,,,,,,,,,,
,,,,,82,2020-07-04_19h49.08.937,retriever_ti,2020.1.3,Win32,60,Chrome,1920,1080,,,,,,,,,,,,,,,,,3,,,,,,,,,,,,,,,,,,,,,,,,,,,1727.515505,165,right,0.73264,phone       ,1,9,-1,0,0,1727.528845,1727.528845,1730.020705,0,10,10,10,1,165,2,1,satellite_dish,phone       ,html/resources/sequences_IDs/A/10_satellite_dish.jpg,html/resources/sequences_IDs/B/09_phone.jpg,10,9,4,2,4,2,8,7,0,82,,,,,,,,,,,,,,,,,,,,
,,,,,82,2020-07-04_19h49.08.937,retriever_ti,2020.1.3,Win32,60,Chrome,1920,1080,,,,,,,,,,,,,,,,,3,,,,,,,,,,,,,,,,,,,,,,,,,,,1731.111475,166,right,0.742765,dress         ,6,7,1,1,0,1731.11876,1731.11876,1733.6109,0,11,11,11,1,166,5,6,slipper     ,dress         ,html/resources/sequences_IDs/B/08_slipper.jpg,html/resources/sequences_IDs/A/07_dress.jpg,8,7,3,2,3,2,6,5,1,82,,,,,,,,,,,,,,,,,,,,
,,,,,82,2020-07-04_19h49.08.937,retriever_ti,2020.1.3,Win32,60,Chrome,1920,1080,,,,,,,,,,,,,,,,,3,,,,,,,,,,,,,,,,,,,,,,,,,,,1734.70205,167,left,0.982255,giraffe     ,7,3,5,1,3,1734.70871,1734.70871,1737.20119,0,12,12,12,1,167,7,2,giraffe     ,satellite_dish,html/resources/sequences_IDs/B/03_giraffe.jpg,html/resources/sequences_IDs/A/10_satellite_dish.jpg,3,10,1,1,4,2,2,8,0,82,,,,,,,,,,,,,,,,,,,,
,,,,,82,2020-07-04_19h49.08.937,retriever_ti,2020.1.3,Win32,60,Chrome,1920,1080,,,,,,,,,,,,,,,,,3,,,,,,,,,,,,,,,,,,,,,,,,,,,1737.806075,168,left,1.08719,dress         ,6,7,2,1,3,1737.813395,1737.813395,1740.305545,0,13,13,13,1,168,6,4,dress         ,clownfish     ,html/resources/sequences_IDs/A/07_dress.jpg,html/resources/sequences_IDs/A/04_clownfish.jpg,7,4,3,2,2,1,5,3,0,82,,,,,,,,,,,,,,,,,,,,
,,,,,82,2020-07-04_19h49.08.937,retriever_ti,2020.1.3,Win32,60,Chrome,1920,1080,,,,,,,,,,,,,,,,,3,,,,,,,,,,,,,,,,,,,,,,,,,,,1740.90977,169,right,1.08677,parrot      ,3,5,-1,0,0,1740.916935,1740.916935,1743.40931,0,14,14,14,1,169,4,3,clownfish     ,parrot      ,html/resources/sequences_IDs/A/04_clownfish.jpg,html/resources/sequences_IDs/B/05_parrot.jpg,4,5,2,1,2,1,3,4,0,82,,,,,,,,,,,,,,,,,,,,
,,,,,82,2020-07-04_19h49.08.937,retriever_ti,2020.1.3,Win32,60,Chrome,1920,1080,,,,,,,,,,,,,,,,,3,,,,,,,,,,,,,,,,,,,,,,,,,,,1744.50018,170,left,1.01527,giraffe     ,7,3,4,1,3,1744.50722,1744.50722,1746.999355,0,15,15,15,1,170,7,3,giraffe     ,parrot      ,html/resources/sequences_IDs/B/03_giraffe.jpg,html/resources/sequences_IDs/B/05_parrot.jpg,3,5,1,1,2,1,2,4,0,82,,,,,,,,,,,,,,,,,,,,
,,,,,82,2020-07-04_19h49.08.937,retriever_ti,2020.1.3,Win32,60,Chrome,1920,1080,,,,,,,,,,,,,,,,,3,,,,,,,,,,,,,,,,,,,,,,,,,,,1747.604,171,left,0.87029,seaturtle     ,8,2,2,1,3,1747.611125,1747.611125,1750.10335,0,16,16,16,1,171,8,6,seaturtle     ,dress         ,html/resources/sequences_IDs/A/02_seaturtle.jpg,html/resources/sequences_IDs/A/07_dress.jpg,2,7,2,1,3,2,1,5,0,82,,,,,,,,,,,,,,,,,,,,
,,,,,82,2020-07-04_19h49.08.937,retriever_ti,2020.1.3,Win32,60,Chrome,1920,1080,,,,,,,,,,,,,,,,,3,,,,,,,,,,,,,,,,,,,,,,,,,,,1750.708135,172,left,0.877965,phone       ,1,9,-1,0,0,1750.715985,1750.715985,1753.20756,0,17,17,17,1,172,1,2,phone       ,satellite_dish,html/resources/sequences_IDs/B/09_phone.jpg,html/resources/sequences_IDs/A/10_satellite_dish.jpg,9,10,4,2,4,2,7,8,0,82,,,,,,,,,,,,,,,,,,,,
,,,,,82,2020-07-04_19h49.08.937,retriever_ti,2020.1.3,Win32,60,Chrome,1920,1080,,,,,,,,,,,,,,,,,3,,,,,,,,,,,,,,,,,,,,,,,,,,,1754.29849,173,left,1.10465,parrot      ,3,5,1,1,1,1754.312745,1754.312745,1756.8048,0,18,18,18,1,173,3,2,parrot      ,satellite_dish,html/resources/sequences_IDs/B/05_parrot.jpg,html/resources/sequences_IDs/A/10_satellite_dish.jpg,5,10,2,1,4,2,4,8,0,82,,,,,,,,,,,,,,,,,,,,
,,,,,82,2020-07-04_19h49.08.937,retriever_ti,2020.1.3,Win32,60,Chrome,1920,1080,,,,,,,,,,,,,,,,,3,,,,,,,,,,,,,,,,,,,,,,,,,,,1757.89553,174,left,0.940365,seaturtle     ,8,2,4,1,3,1757.90969,1757.90969,1760.40179,0,19,19,19,1,174,8,4,seaturtle     ,clownfish     ,html/resources/sequences_IDs/A/02_seaturtle.jpg,html/resources/sequences_IDs/A/04_clownfish.jpg,2,4,2,1,2,1,1,3,0,82,,,,,,,,,,,,,,,,,,,,
,,,,,82,2020-07-04_19h49.08.937,retriever_ti,2020.1.3,Win32,60,Chrome,1920,1080,,,,,,,,,,,,,,,,,3,,,,,,,,,,,,,,,,,,,,,,,,,,,1761.00621,175,right,1.040015,parrot      ,3,5,-2,0,3,1761.020435,1761.020435,1763.5127,0,20,20,20,1,175,5,3,slipper     ,parrot      ,html/resources/sequences_IDs/B/08_slipper.jpg,html/resources/sequences_IDs/B/05_parrot.jpg,8,5,3,2,2,1,6,4,0,82,,,,,,,,,,,,,,,,,,,,
,,,,,82,2020-07-04_19h49.08.937,retriever_ti,2020.1.3,Win32,60,Chrome,1920,1080,,,,,,,,,,,,,,,,,3,,,,,,,,,,,,,,,,,,,,,,,,,,,1764.11754,176,left,0.939345,slipper     ,5,8,1,1,0,1764.12477,1764.12477,1766.616675,0,21,21,21,1,176,5,4,slipper     ,clownfish     ,html/resources/sequences_IDs/B/08_slipper.jpg,html/resources/sequences_IDs/A/04_clownfish.jpg,8,4,3,2,2,1,6,3,1,82,,,,,,,,,,,,,,,,,,,,
,,,,,82,2020-07-04_19h49.08.937,retriever_ti,2020.1.3,Win32,60,Chrome,1920,1080,,,,,,,,,,,,,,,,,3,,,,,,,,,,,,,,,,,,,,,,,,,,,1767.707745,177,left,1.301735,phone       ,1,9,-4,0,3,1767.714735,1767.714735,1770.206855,0,22,22,22,1,177,1,5,phone       ,slipper     ,html/resources/sequences_IDs/B/09_phone.jpg,html/resources/sequences_IDs/B/08_slipper.jpg,9,8,4,2,3,2,7,6,0,82,,,,,,,,,,,,,,,,,,,,
,,,,,82,2020-07-04_19h49.08.937,retriever_ti,2020.1.3,Win32,60,Chrome,1920,1080,,,,,,,,,,,,,,,,,3,,,,,,,,,,,,,,,,,,,,,,,,,,,1770.81139,178,left,1.36666,dress         ,6,7,1,1,1,1770.818755,1770.818755,1773.31101,0,23,23,23,1,178,6,5,dress         ,slipper     ,html/resources/sequences_IDs/A/07_dress.jpg,html/resources/sequences_IDs/B/08_slipper.jpg,7,8,3,2,3,2,5,6,0,82,,,,,,,,,,,,,,,,,,,,
,,,,,82,2020-07-04_19h49.08.937,retriever_ti,2020.1.3,Win32,60,Chrome,1920,1080,,,,,,,,,,,,,,,,,3,,,,,,,,,,,,,,,,,,,,,,,,,,,1774.40176,179,right,0.99826,seaturtle     ,8,2,4,1,3,1774.40875,1774.40875,1776.901105,0,24,24,24,1,179,4,8,clownfish     ,seaturtle     ,html/resources/sequences_IDs/A/04_clownfish.jpg,html/resources/sequences_IDs/A/02_seaturtle.jpg,4,2,2,1,2,1,3,1,0,82,,,,,,,,,,,,,,,,,,,,
,,,,,82,2020-07-04_19h49.08.937,retriever_ti,2020.1.3,Win32,60,Chrome,1920,1080,,,,,,,,,,,,,,,,,3,,,,,,,,,,,,,,,,,,,,,,,,,,,1777.505735,180,right,0.832945,giraffe     ,7,3,2,1,3,1777.5128,1777.5128,1780.00524,0,25,25,25,1,180,5,7,slipper     ,giraffe     ,html/resources/sequences_IDs/B/08_slipper.jpg,html/resources/sequences_IDs/B/03_giraffe.jpg,8,3,3,2,1,1,6,2,0,82,,,,,,,,,,,,,,,,,,,,
,,,,,82,2020-07-04_19h49.08.937,retriever_ti,2020.1.3,Win32,60,Chrome,1920,1080,,,,,,,,,,,,,,,,,3,,,,,,,,,,,,,,,,,,,,,,,,,,,1780.60968,181,left,0.806835,seaturtle     ,8,2,1,1,1,1780.61743,1780.61743,1783.109225,0,26,26,26,1,181,8,7,seaturtle     ,giraffe     ,html/resources/sequences_IDs/A/02_seaturtle.jpg,html/resources/sequences_IDs/B/03_giraffe.jpg,2,3,2,1,1,1,1,2,0,82,,,,,,,,,,,,,,,,,,,,
,,,,,82,2020-07-04_19h49.08.937,retriever_ti,2020.1.3,Win32,60,Chrome,1920,1080,,,,,,,,,,,,,,,,,3,,,,,,,,,,,,,,,,,,,,,,,,,,,1784.200095,182,left,1.05907,satellite_dish,2,10,-1,0,1,1784.20758,1784.20758,1786.699445,0,27,27,27,1,182,2,3,satellite_dish,parrot      ,html/resources/sequences_IDs/A/10_satellite_dish.jpg,html/resources/sequences_IDs/B/05_parrot.jpg,10,5,4,2,2,1,8,4,1,82,,,,,,,,,,,,,,,,,,,,
,,,,,82,2020-07-04_19h49.08.937,retriever_ti,2020.1.3,Win32,60,Chrome,1920,1080,,,,,,,,,,,,,,,,,3,,,,,,,,,,,,,,,,,,,,,,,,,,,1787.79007,183,left,0.88649,seaturtle     ,8,2,6,1,3,1787.797585,1787.797585,1790.28959,0,28,28,28,1,183,8,2,seaturtle     ,satellite_dish,html/resources/sequences_IDs/A/02_seaturtle.jpg,html/resources/sequences_IDs/A/10_satellite_dish.jpg,2,10,2,1,4,2,1,8,0,82,,,,,,,,,,,,,,,,,,,,
,,,,,82,2020-07-04_19h49.08.937,retriever_ti,2020.1.3,Win32,60,Chrome,1920,1080,,,,,,,,,,,,,,,,,3,,,,,,,,,,,,,,,,,,,,,,,,,,,1790.893965,184,right,0.95455,clownfish     ,4,4,-1,0,0,1790.90854,1790.90854,1793.400455,0,29,29,29,1,184,5,4,slipper     ,clownfish     ,html/resources/sequences_IDs/B/08_slipper.jpg,html/resources/sequences_IDs/A/04_clownfish.jpg,8,4,3,2,2,1,6,3,0,82,,,,,,,,,,,,,,,,,,,,
,,,,,82,2020-07-04_19h49.08.937,retriever_ti,2020.1.3,Win32,60,Chrome,1920,1080,,,,,,,,,,,,,,,,,3,,,,,,,,,,,,,,,,,,,,,,,,,,,1794.49128,185,right,0.8595,dress         ,6,7,5,1,3,1794.498515,1794.498515,1796.99059,0,30,30,30,1,185,1,6,phone       ,dress         ,html/resources/sequences_IDs/B/09_phone.jpg,html/resources/sequences_IDs/A/07_dress.jpg,9,7,4,2,3,2,7,5,0,82,,,,,,,,,,,,,,,,,,,,
,,,,,82,2020-07-04_19h49.08.937,retriever_ti,2020.1.3,Win32,60,Chrome,1920,1080,,,,,,,,,,,,,,,,,3,,,,,,,,,,,,,,,,,,,,,,,,,,,1797.59608,186,left,1.278895,clownfish     ,4,4,-3,0,3,1797.602425,1797.602425,1800.095155,0,31,31,31,1,186,4,7,clownfish     ,giraffe     ,html/resources/sequences_IDs/A/04_clownfish.jpg,html/resources/sequences_IDs/B/03_giraffe.jpg,4,3,2,1,1,1,3,2,0,82,,,,,,,,,,,,,,,,,,,,
,,,,,82,2020-07-04_19h49.08.937,retriever_ti,2020.1.3,Win32,60,Chrome,1920,1080,,,,,,,,,,,,,,,,,3,,,,,,,,,,,,,,,,,,,,,,,,,,,1800.699315,187,left,1.86844,giraffe     ,7,3,-1,0,0,1800.70669,1800.70669,1803.199005,0,32,32,32,1,187,7,8,giraffe     ,seaturtle     ,html/resources/sequences_IDs/B/03_giraffe.jpg,html/resources/sequences_IDs/A/02_seaturtle.jpg,3,2,1,1,2,1,2,1,0,82,,,,,,,,,,,,,,,,,,,,
,,,,,82,2020-07-04_19h49.08.937,retriever_ti,2020.1.3,Win32,60,Chrome,1920,1080,,,,,,,,,,,,,,,,,3,,,,,,,,,,,,,,,,,,,,,,,,,,,1804.289775,188,left,1.30569,parrot      ,3,5,-1,0,1,1804.30362,1804.30362,1806.795975,0,33,33,33,1,188,3,4,parrot      ,clownfish     ,html/resources/sequences_IDs/B/05_parrot.jpg,html/resources/sequences_IDs/A/04_clownfish.jpg,5,4,2,1,2,1,4,3,1,82,,,,,,,,,,,,,,,,,,,,
,,,,,82,2020-07-04_19h49.08.937,retriever_ti,2020.1.3,Win32,60,Chrome,1920,1080,,,,,,,,,,,,,,,,,3,,,,,,,,,,,,,,,,,,,,,,,,,,,1807.886915,189,left,0.88924,dress         ,6,7,-1,0,0,1807.89371,1807.89371,1810.38609,0,34,34,34,1,189,6,7,dress         ,giraffe     ,html/resources/sequences_IDs/A/07_dress.jpg,html/resources/sequences_IDs/B/03_giraffe.jpg,7,3,3,2,1,1,5,2,0,82,,,,,,,,,,,,,,,,,,,,
,,,,,82,2020-07-04_19h49.08.937,retriever_ti,2020.1.3,Win32,60,Chrome,1920,1080,,,,,,,,,,,,,,,,,3,,,,,,,,,,,,,,,,,,,,,,,,,,,1811.4771,190,left,2.27384,clownfish     ,4,4,3,1,3,1811.491075,1811.491075,1813.98317,0,35,35,35,1,190,4,1,clownfish     ,phone       ,html/resources/sequences_IDs/A/04_clownfish.jpg,html/resources/sequences_IDs/B/09_phone.jpg,4,9,2,1,4,2,3,7,0,82,,,,,,,,,,,,,,,,,,,,
,,,,,82,2020-07-04_19h49.08.937,retriever_ti,2020.1.3,Win32,60,Chrome,1920,1080,,,,,,,,,,,,,,,,,3,,,,,,,,,,,,,,,,,,,,,,,,,,,1814.58769,191,left,1.5702,dress         ,6,7,-1,0,0,1814.595315,1814.595315,1817.08725,0,36,36,36,1,191,6,7,dress         ,giraffe     ,html/resources/sequences_IDs/A/07_dress.jpg,html/resources/sequences_IDs/B/03_giraffe.jpg,7,3,3,2,1,1,5,2,0,82,,,,,,,,,,,,,,,,,,,,
,,,,,82,2020-07-04_19h49.08.937,retriever_ti,2020.1.3,Win32,60,Chrome,1920,1080,,,,,,,,,,,,,,,,,3,,,,,,,,,,,,,,,,,,,,,,,,,,,1818.177985,192,right,1.02181,phone       ,1,9,-4,0,3,1818.192125,1818.192125,1820.68433,0,37,37,37,1,192,5,1,slipper     ,phone       ,html/resources/sequences_IDs/B/08_slipper.jpg,html/resources/sequences_IDs/B/09_phone.jpg,8,9,3,2,4,2,6,7,0,82,,,,,,,,,,,,,,,,,,,,
,,,,,82,2020-07-04_19h49.08.937,retriever_ti,2020.1.3,Win32,60,Chrome,1920,1080,,,,,,,,,,,,,,,,,3,,,,,,,,,,,,,,,,,,,,,,,,,,,1821.29137,193,left,1.075885,dress         ,6,7,4,1,3,1821.29676,1821.29676,1823.788445,0,38,38,38,1,193,6,2,dress         ,satellite_dish,html/resources/sequences_IDs/A/07_dress.jpg,html/resources/sequences_IDs/A/10_satellite_dish.jpg,7,10,3,2,4,2,5,8,0,82,,,,,,,,,,,,,,,,,,,,
,,,,,82,2020-07-04_19h49.08.937,retriever_ti,2020.1.3,Win32,60,Chrome,1920,1080,,,,,,,,,,,,,,,,,3,,,,,,,,,,,,,,,,,,,,,,,,,,,1824.393055,194,left,0.879795,satellite_dish,2,10,-2,0,3,1824.407045,1824.407045,1826.899455,0,39,39,39,1,194,2,4,satellite_dish,clownfish     ,html/resources/sequences_IDs/A/10_satellite_dish.jpg,html/resources/sequences_IDs/A/04_clownfish.jpg,10,4,4,2,2,1,8,3,0,82,,,,,,,,,,,,,,,,,,,,
,,,,,82,2020-07-04_19h49.08.937,retriever_ti,2020.1.3,Win32,60,Chrome,1920,1080,,,,,,,,,,,,,,,,,3,,,,,,,,,,,,,,,,,,,,,,,,,,,1827.50443,195,left,0.76799,dress         ,6,7,-2,0,3,1827.51113,1827.51113,1830.003415,0,40,40,40,1,195,6,8,dress         ,seaturtle     ,html/resources/sequences_IDs/A/07_dress.jpg,html/resources/sequences_IDs/A/02_seaturtle.jpg,7,2,3,2,2,1,5,1,0,82,,,,,,,,,,,,,,,,,,,,
,,,,,82,2020-07-04_19h49.08.937,retriever_ti,2020.1.3,Win32,60,Chrome,1920,1080,,,,,,,,,,,,,,,,,3,,,,,,,,,,,,,,,,,,,,,,,,,,,1830.60811,196,right,0.703245,clownfish     ,4,4,3,1,3,1830.62248,1830.62248,1833.114995,0,41,41,41,1,196,1,4,phone       ,clownfish     ,html/resources/sequences_IDs/B/09_phone.jpg,html/resources/sequences_IDs/A/04_clownfish.jpg,9,4,4,2,2,1,7,3,0,82,,,,,,,,,,,,,,,,,,,,
,,,,,82,2020-07-04_19h49.08.937,retriever_ti,2020.1.3,Win32,60,Chrome,1920,1080,,,,,,,,,,,,,,,,,3,,,,,,,,,,,,,,,,,,,,,,,,,,,1833.719365,197,left,0.66057,dress         ,6,7,5,1,3,1833.726485,1833.726485,1836.218705,0,42,42,42,1,197,6,1,dress         ,phone       ,html/resources/sequences_IDs/A/07_dress.jpg,html/resources/sequences_IDs/B/09_phone.jpg,7,9,3,2,4,2,5,7,0,82,,,,,,,,,,,,,,,,,,,,
,,,,,82,2020-07-04_19h49.08.937,retriever_ti,2020.1.3,Win32,60,Chrome,1920,1080,,,,,,,,,,,,,,,,,3,,,,,,,,,,,,,,,,,,,,,,,,,,,1836.823135,198,left,0.938015,satellite_dish,2,10,-1,0,0,1836.83767,1836.83767,1839.3296,0,43,43,43,1,198,2,3,satellite_dish,parrot      ,html/resources/sequences_IDs/A/10_satellite_dish.jpg,html/resources/sequences_IDs/B/05_parrot.jpg,10,5,4,2,2,1,8,4,0,82,,,,,,,,,,,,,,,,,,,,
,,,,,82,2020-07-04_19h49.08.937,retriever_ti,2020.1.3,Win32,60,Chrome,1920,1080,,,,,,,,,,,,,,,,,3,,,,,,,,,,,,,,,,,,,,,,,,,,,1840.4204,199,right,0.861255,clownfish     ,4,4,1,1,1,1840.43442,1840.43442,1842.926615,0,44,44,44,1,199,3,4,parrot      ,clownfish     ,html/resources/sequences_IDs/B/05_parrot.jpg,html/resources/sequences_IDs/A/04_clownfish.jpg,5,4,2,1,2,1,4,3,0,82,,,,,,,,,,,,,,,,,,,,
,,,,,82,2020-07-04_19h49.08.937,retriever_ti,2020.1.3,Win32,60,Chrome,1920,1080,,,,,,,,,,,,,,,,,3,,,,,,,,,,,,,,,,,,,,,,,,,,,1844.017585,200,left,1.04419,giraffe     ,7,3,1,1,1,1844.02438,1844.02438,1846.51681,0,45,45,45,1,200,7,6,giraffe     ,dress         ,html/resources/sequences_IDs/B/03_giraffe.jpg,html/resources/sequences_IDs/A/07_dress.jpg,3,7,1,1,3,2,2,5,0,82,,,,,,,,,,,,,,,,,,,,
,,,,,82,2020-07-04_19h49.08.937,retriever_ti,2020.1.3,Win32,60,Chrome,1920,1080,,,,,,,,,,,,,,,,,3,,,,,,,,,,,,,,,,,,,,,,,,,,,1847.60779,201,left,1.034255,giraffe     ,7,3,-1,0,1,1847.622205,1847.622205,1850.113975,0,46,46,46,1,201,7,8,giraffe     ,seaturtle     ,html/resources/sequences_IDs/B/03_giraffe.jpg,html/resources/sequences_IDs/A/02_seaturtle.jpg,3,2,1,1,2,1,2,1,1,82,,,,,,,,,,,,,,,,,,,,
,,,,,82,2020-07-04_19h49.08.937,retriever_ti,2020.1.3,Win32,60,Chrome,1920,1080,,,,,,,,,,,,,,,,,3,,,,,,,,,,,,,,,,,,,,,,,,,,,1851.20443,202,right,1.145995,satellite_dish,2,10,-1,0,0,1851.212775,1851.212775,1853.704135,0,47,47,47,1,202,3,2,parrot      ,satellite_dish,html/resources/sequences_IDs/B/05_parrot.jpg,html/resources/sequences_IDs/A/10_satellite_dish.jpg,5,10,2,1,4,2,4,8,0,82,,,,,,,,,,,,,,,,,,,,
,,,,,82,2020-07-04_19h49.08.937,retriever_ti,2020.1.3,Win32,60,Chrome,1920,1080,,,,,,,,,,,,,,,,,3,,,,,,,,,,,,,,,,,,,,,,,,,,,1854.79517,203,left,0.444715,dress         ,6,7,-1,0,1,1854.80903,1854.80903,1857.30107,0,48,48,48,1,203,6,7,dress         ,giraffe     ,html/resources/sequences_IDs/A/07_dress.jpg,html/resources/sequences_IDs/B/03_giraffe.jpg,7,3,3,2,1,1,5,2,1,82,,,,,,,,,,,,,,,,,,,,
,,,,,82,2020-07-04_19h49.08.937,retriever_ti,2020.1.3,Win32,60,Chrome,1920,1080,,,,,,,,,,,,,,,,,3,,,,,,,,,,,,,,,,,,,,,,,,,,,1858.39228,204,left,1.075425,giraffe     ,7,3,3,1,3,1858.39943,1858.39943,1860.891285,0,49,49,49,1,204,7,4,giraffe     ,clownfish     ,html/resources/sequences_IDs/B/03_giraffe.jpg,html/resources/sequences_IDs/A/04_clownfish.jpg,3,4,1,1,2,1,2,3,0,82,,,,,,,,,,,,,,,,,,,,
,,,,,82,2020-07-04_19h49.08.937,retriever_ti,2020.1.3,Win32,60,Chrome,1920,1080,,,,,,,,,,,,,,,,,3,,,,,,,,,,,,,,,,,,,,,,,,,,,1861.49608,205,left,0.43436,giraffe     ,7,3,6,1,3,1861.510015,1861.510015,1864.00222,0,50,50,50,1,205,7,1,giraffe     ,phone       ,html/resources/sequences_IDs/B/03_giraffe.jpg,html/resources/sequences_IDs/B/09_phone.jpg,3,9,1,1,4,2,2,7,0,82,,,,,,,,,,,,,,,,,,,,
,,,,,82,2020-07-04_19h49.08.937,retriever_ti,2020.1.3,Win32,60,Chrome,1920,1080,,,,,,,,,,,,,,,,,3,,,,,,,,,,,,,,,,,,,,,,,,,,,1864.606795,206,left,0.81577,seaturtle     ,8,2,7,1,3,1864.61402,1864.61402,1867.10649,0,51,51,51,1,206,8,1,seaturtle     ,phone       ,html/resources/sequences_IDs/A/02_seaturtle.jpg,html/resources/sequences_IDs/B/09_phone.jpg,2,9,2,1,4,2,1,7,0,82,,,,,,,,,,,,,,,,,,,,
,,,,,82,2020-07-04_19h49.08.937,retriever_ti,2020.1.3,Win32,60,Chrome,1920,1080,,,,,,,,,,,,,,,,,3,,,,,,,,,,,,,,,,,,,,,,,,,,,1867.71115,207,left,0.718065,parrot      ,3,5,-1,0,0,1867.718245,1867.718245,1870.21088,0,52,52,52,1,207,3,4,parrot      ,clownfish     ,html/resources/sequences_IDs/B/05_parrot.jpg,html/resources/sequences_IDs/A/04_clownfish.jpg,5,4,2,1,2,1,4,3,0,82,,,,,,,,,,,,,,,,,,,,
,,,,,82,2020-07-04_19h49.08.937,retriever_ti,2020.1.3,Win32,60,Chrome,1920,1080,,,,,,,,,,,,,,,,,3,,,,,,,,,,,,,,,,,,,,,,,,,,,1871.30152,208,left,1.218985,parrot      ,3,5,-2,0,3,1871.30846,1871.30846,1873.800585,0,53,53,53,1,208,3,5,parrot      ,slipper     ,html/resources/sequences_IDs/B/05_parrot.jpg,html/resources/sequences_IDs/B/08_slipper.jpg,5,8,2,1,3,2,4,6,0,82,,,,,,,,,,,,,,,,,,,,
,,,,,82,2020-07-04_19h49.08.937,retriever_ti,2020.1.3,Win32,60,Chrome,1920,1080,,,,,,,,,,,,,,,,,3,,,,,,,,,,,,,,,,,,,,,,,,,,,1874.405695,209,right,0.740105,dress         ,6,7,4,1,3,1874.41981,1874.41981,1876.911645,0,54,54,54,1,209,2,6,satellite_dish,dress         ,html/resources/sequences_IDs/A/10_satellite_dish.jpg,html/resources/sequences_IDs/A/07_dress.jpg,10,7,4,2,3,2,8,5,0,82,,,,,,,,,,,,,,,,,,,,
,,,,,82,2020-07-04_19h49.08.937,retriever_ti,2020.1.3,Win32,60,Chrome,1920,1080,,,,,,,,,,,,,,,,,3,,,,,,,,,,,,,,,,,,,,,,,,,,,1877.516545,210,left,1.33924,parrot      ,3,5,-5,0,3,1877.523335,1877.523335,1880.015675,0,55,55,55,1,210,3,8,parrot      ,seaturtle     ,html/resources/sequences_IDs/B/05_parrot.jpg,html/resources/sequences_IDs/A/02_seaturtle.jpg,5,2,2,1,2,1,4,1,0,82,,,,,,,,,,,,,,,,,,,,
,,,,,82,2020-07-04_19h49.08.937,retriever_ti,2020.1.3,Win32,60,Chrome,1920,1080,,,,,,,,,,,,,,,,,3,,,,,,,,,,,,,,,,,,,,,,,,,,,1880.62016,211,right,1.675365,parrot      ,3,5,-1,0,0,1880.63481,1880.63481,1883.12671,0,56,56,56,1,211,4,3,clownfish     ,parrot      ,html/resources/sequences_IDs/A/04_clownfish.jpg,html/resources/sequences_IDs/B/05_parrot.jpg,4,5,2,1,2,1,3,4,0,82,,,,,,,,,,,,,,,,,,,,
,,,,,82,2020-07-04_19h49.08.937,retriever_ti,2020.1.3,Win32,60,Chrome,1920,1080,,,,,,,,,,,,,,,,,3,,,,,,,,,,,,,,,,,,,,,,,,,,,1884.21746,212,left,2.248775,parrot      ,3,5,2,1,3,1884.231735,1884.231735,1886.72368,0,57,57,57,1,212,3,1,parrot      ,phone       ,html/resources/sequences_IDs/B/05_parrot.jpg,html/resources/sequences_IDs/B/09_phone.jpg,5,9,2,1,4,2,4,7,0,82,,,,,,,,,,,,,,,,,,,,
,,,,,82,2020-07-04_19h49.08.937,retriever_ti,2020.1.3,Win32,60,Chrome,1920,1080,,,,,,,,,,,,,,,,,3,,,,,,,,,,,,,,,,,,,,,,,,,,,1887.328395,213,left,1.892185,satellite_dish,2,10,-3,0,3,1887.34236,1887.34236,1889.83474,0,58,58,58,1,213,2,5,satellite_dish,slipper     ,html/resources/sequences_IDs/A/10_satellite_dish.jpg,html/resources/sequences_IDs/B/08_slipper.jpg,10,8,4,2,3,2,8,6,0,82,,,,,,,,,,,,,,,,,,,,
,,,,,82,2020-07-04_19h49.08.937,retriever_ti,2020.1.3,Win32,60,Chrome,1920,1080,,,,,,,,,,,,,,,,,3,,,,,,,,,,,,,,,,,,,,,,,,,,,1890.439515,214,right,1.122325,seaturtle     ,8,2,6,1,3,1890.44665,1890.44665,1892.938875,0,59,59,59,1,214,2,8,satellite_dish,seaturtle     ,html/resources/sequences_IDs/A/10_satellite_dish.jpg,html/resources/sequences_IDs/A/02_seaturtle.jpg,10,2,4,2,2,1,8,1,0,82,,,,,,,,,,,,,,,,,,,,
,,,,,82,2020-07-04_19h49.08.937,retriever_ti,2020.1.3,Win32,60,Chrome,1920,1080,,,,,,,,,,,,,,,,,3,,,,,,,,,,,,,,,,,,,,,,,,,,,1893.54364,215,left,1.151405,clownfish     ,4,4,-1,0,0,1893.55082,1893.55082,1896.04292,0,60,60,60,1,215,4,5,clownfish     ,slipper     ,html/resources/sequences_IDs/A/04_clownfish.jpg,html/resources/sequences_IDs/B/08_slipper.jpg,4,8,2,1,3,2,3,6,0,82,,,,,,,,,,,,,,,,,,,,
,,,,,82,2020-07-04_19h49.08.937,retriever_ti,2020.1.3,Win32,60,Chrome,1920,1080,,,,,,,,,,,,,,,,,3,,,,,,,,,,,,,,,,,,,,,,,,,,,1897.133585,216,left,1.78041,slipper     ,5,8,3,1,3,1897.14823,1897.14823,1899.640175,0,61,61,61,1,216,5,2,slipper     ,satellite_dish,html/resources/sequences_IDs/B/08_slipper.jpg,html/resources/sequences_IDs/A/10_satellite_dish.jpg,8,10,3,2,4,2,6,8,0,82,,,,,,,,,,,,,,,,,,,,
,,,,,82,2020-07-04_19h49.08.937,retriever_ti,2020.1.3,Win32,60,Chrome,1920,1080,,,,,,,,,,,,,,,,,3,,,,,,,,,,,,,,,,,,,,,,,,,,,1900.24473,217,left,2.118765,seaturtle     ,8,2,5,1,3,1900.252085,1900.252085,1902.74409,0,62,62,62,1,217,8,3,seaturtle     ,parrot      ,html/resources/sequences_IDs/A/02_seaturtle.jpg,html/resources/sequences_IDs/B/05_parrot.jpg,2,5,2,1,2,1,1,4,0,82,,,,,,,,,,,,,,,,,,,,
