instructionsLoop.thisRepN,instructionsLoop.thisTrialN,instructionsLoop.thisN,instructionsLoop.thisIndex,instructionsLoop.ran,participant,date,expName,psychopyVersion,OS,frameRate,browser,xResolution,yResolution,fix_onset,tprac,practiceKey.keys,practiceKey.rt,pracitem_chosen_name,acc_practice,P1_onsetPrac,P2_onsetPrac,onsetFeedbPrac,practiceTrials.thisRepN,practiceTrials.thisTrialN,practiceTrials.thisN,practiceTrials.thisIndex,practiceTrials.ran,P1,P2,Block,LocItem1,LocItem2,NameItem1,NameItem2,key_respAC_prac.keys,key_respAC_prac.corr,key_respAC_prac.rt,AC_acc,Attentions.thisRepN,Attentions.thisTrialN,Attentions.thisN,Attentions.thisIndex,Attentions.ran,Stim,Loc1,Loc2,Loc3,Loc4,CorrAns,keyDisturbed.keys,keyDisturbed.rt,repPractice.thisRepN,repPractice.thisTrialN,repPractice.thisN,repPractice.thisIndex,repPractice.ran,fixcross_onsetMain,trialNumber,key_resp.keys,key_resp.rt,item_chosen_name,item_chosen_value,item_chosen_ID,diff_chosen_minus_reject,acc_real,acc_feedback,P1_onset,P2_onset,feedb_onset,trials.thisRepN,trials.thisTrialN,trials.thisN,trials.thisIndex,trials.ran,Trial,ValueP1,ValueP2,P1name,P2name,P1Loc,P2Loc,P1id,P2id,Micro_categoryP1,Macro_categoryP1,Micro_categoryP2,Macro_categoryP2,ID_sequenceP1,ID_sequenceP2,InverseFb,pNumber,repBlocks.thisRepN,repBlocks.thisTrialN,repBlocks.thisN,repBlocks.thisIndex,repBlocks.ran,key_respAC.keys,key_respAC.corr,key_respAC.rt,trials_AC.thisRepN,trials_AC.thisTrialN,trials_AC.thisN,trials_AC.thisIndex,trials_AC.ran,Bonus,BonusLoop.thisRepN,BonusLoop.thisTrialN,BonusLoop.thisN,BonusLoop.thisIndex,BonusLoop.ran,comments
0,0,0,0,1,82,2020-07-04_19h46.22.119,retriever_ti,2020.1.3,Win32,60,Firefox,1920,1080,,,,,,,,,,,,,,,,,,,,,,,,,,,,,,,,,,,,,,,,,,,,,,,,,,,,,,,,,,,,,,,,,,,,,,,,,,,,,,,,,,,,,,,,,,,,,,,,,,
1,0,1,0,1,82,2020-07-04_19h46.22.119,retriever_ti,2020.1.3,Win32,60,Firefox,1920,1080,,,,,,,,,,,,,,,,,,,,,,,,,,,,,,,,,,,,,,,,,,,,,,,,,,,,,,,,,,,,,,,,,,,,,,,,,,,,,,,,,,,,,,,,,,,,,,,,,,
2,0,2,0,1,82,2020-07-04_19h46.22.119,retriever_ti,2020.1.3,Win32,60,Firefox,1920,1080,,,,,,,,,,,,,,,,,,,,,,,,,,,,,,,,,,,,,,,,,,,,,,,,,,,,,,,,,,,,,,,,,,,,,,,,,,,,,,,,,,,,,,,,,,,,,,,,,,
3,0,3,0,1,82,2020-07-04_19h46.22.119,retriever_ti,2020.1.3,Win32,60,Firefox,1920,1080,,,,,,,,,,,,,,,,,,,,,,,,,,,,,,,,,,,,,,,,,,,,,,,,,,,,,,,,,,,,,,,,,,,,,,,,,,,,,,,,,,,,,,,,,,,,,,,,,,
4,0,4,0,1,82,2020-07-04_19h46.22.119,retriever_ti,2020.1.3,Win32,60,Firefox,1920,1080,,,,,,,,,,,,,,,,,,,,,,,,,,,,,,,,,,,,,,,,,,,,,,,,,,,,,,,,,,,,,,,,,,,,,,,,,,,,,,,,,,,,,,,,,,,,,,,,,,
5,0,5,0,1,82,2020-07-04_19h46.22.119,retriever_ti,2020.1.3,Win32,60,Firefox,1920,1080,,,,,,,,,,,,,,,,,,,,,,,,,,,,,,,,,,,,,,,,,,,,,,,,,,,,,,,,,,,,,,,,,,,,,,,,,,,,,,,,,,,,,,,,,,,,,,,,,,
6,0,6,0,1,82,2020-07-04_19h46.22.119,retriever_ti,2020.1.3,Win32,60,Firefox,1920,1080,,,,,,,,,,,,,,,,,,,,,,,,,,,,,,,,,,,,,,,,,,,,,,,,,,,,,,,,,,,,,,,,,,,,,,,,,,,,,,,,,,,,,,,,,,,,,,,,,,
7,0,7,0,1,82,2020-07-04_19h46.22.119,retriever_ti,2020.1.3,Win32,60,Firefox,1920,1080,,,,,,,,,,,,,,,,,,,,,,,,,,,,,,,,,,,,,,,,,,,,,,,,,,,,,,,,,,,,,,,,,,,,,,,,,,,,,,,,,,,,,,,,,,,,,,,,,,
8,0,8,0,1,82,2020-07-04_19h46.22.119,retriever_ti,2020.1.3,Win32,60,Firefox,1920,1080,,,,,,,,,,,,,,,,,,,,,,,,,,,,,,,,,,,,,,,,,,,,,,,,,,,,,,,,,,,,,,,,,,,,,,,,,,,,,,,,,,,,,,,,,,,,,,,,,,
9,0,9,0,1,82,2020-07-04_19h46.22.119,retriever_ti,2020.1.3,Win32,60,Firefox,1920,1080,,,,,,,,,,,,,,,,,,,,,,,,,,,,,,,,,,,,,,,,,,,,,,,,,,,,,,,,,,,,,,,,,,,,,,,,,,,,,,,,,,,,,,,,,,,,,,,,,,
10,0,10,0,1,82,2020-07-04_19h46.22.119,retriever_ti,2020.1.3,Win32,60,Firefox,1920,1080,,,,,,,,,,,,,,,,,,,,,,,,,,,,,,,,,,,,,,,,,,,,,,,,,,,,,,,,,,,,,,,,,,,,,,,,,,,,,,,,,,,,,,,,,,,,,,,,,,
11,0,11,0,1,82,2020-07-04_19h46.22.119,retriever_ti,2020.1.3,Win32,60,Firefox,1920,1080,,,,,,,,,,,,,,,,,,,,,,,,,,,,,,,,,,,,,,,,,,,,,,,,,,,,,,,,,,,,,,,,,,,,,,,,,,,,,,,,,,,,,,,,,,,,,,,,,,
12,0,12,0,1,82,2020-07-04_19h46.22.119,retriever_ti,2020.1.3,Win32,60,Firefox,1920,1080,,,,,,,,,,,,,,,,,,,,,,,,,,,,,,,,,,,,,,,,,,,,,,,,,,,,,,,,,,,,,,,,,,,,,,,,,,,,,,,,,,,,,,,,,,,,,,,,,,
13,0,13,0,1,82,2020-07-04_19h46.22.119,retriever_ti,2020.1.3,Win32,60,Firefox,1920,1080,,,,,,,,,,,,,,,,,,,,,,,,,,,,,,,,,,,,,,,,,,,,,,,,,,,,,,,,,,,,,,,,,,,,,,,,,,,,,,,,,,,,,,,,,,,,,,,,,,
14,0,14,0,1,82,2020-07-04_19h46.22.119,retriever_ti,2020.1.3,Win32,60,Firefox,1920,1080,,,,,,,,,,,,,,,,,,,,,,,,,,,,,,,,,,,,,,,,,,,,,,,,,,,,,,,,,,,,,,,,,,,,,,,,,,,,,,,,,,,,,,,,,,,,,,,,,,
,,,,,82,2020-07-04_19h46.22.119,retriever_ti,2020.1.3,Win32,60,Firefox,1920,1080,160.781,1,NaN,NaN,No_response,2,160.813,160.813,163.313,0,0,0,0,1,2,5,1,html/resources/stimuli_practice_decision/04_beetle.jpg,html/resources/stimuli_practice_decision/02_canary.jpg,beetle,canary,,,,,,,,,,,,,,,,,,,,,,,,,,,,,,,,,,,,,,,,,,,,,,,,,,,,,,,,,,,,,,,,,,,,,,,,,,,,,
,,,,,82,2020-07-04_19h46.22.119,retriever_ti,2020.1.3,Win32,60,Firefox,1920,1080,163.876,2,right,1.222,sock,0,163.896,163.896,166.396,0,1,1,1,1,4,3,1,html/resources/stimuli_practice_decision/01_rabbit.jpg,html/resources/stimuli_practice_decision/07_sock.jpg,rabbit,sock,,,,,,,,,,,,,,,,,,,,,,,,,,,,,,,,,,,,,,,,,,,,,,,,,,,,,,,,,,,,,,,,,,,,,,,,,,,,,
,,,,,82,2020-07-04_19h46.22.119,retriever_ti,2020.1.3,Win32,60,Firefox,1920,1080,167.396,3,left,0.73,pullover,1,167.414,167.414,169.912,0,2,2,2,1,6,2,1,html/resources/stimuli_practice_decision/06_pullover.jpg,html/resources/stimuli_practice_decision/04_beetle.jpg,pullover,beetle,,,,,,,,,,,,,,,,,,,,,,,,,,,,,,,,,,,,,,,,,,,,,,,,,,,,,,,,,,,,,,,,,,,,,,,,,,,,,
,,,,,82,2020-07-04_19h46.22.119,retriever_ti,2020.1.3,Win32,60,Firefox,1920,1080,170.413,4,left,1.453,glasses,1,170.431,170.431,172.929,0,3,3,3,1,7,1,1,html/resources/stimuli_practice_decision/05_glasses.jpg,html/resources/stimuli_practice_decision/08_handmixer.jpg,glasses,handmixer,,,,,,,,,,,,,,,,,,,,,,,,,,,,,,,,,,,,,,,,,,,,,,,,,,,,,,,,,,,,,,,,,,,,,,,,,,,,,
,,,,,82,2020-07-04_19h46.22.119,retriever_ti,2020.1.3,Win32,60,Firefox,1920,1080,173.43,5,right,0.864,pullover,0,173.463,173.463,175.962,0,4,4,4,1,7,6,1,html/resources/stimuli_practice_decision/05_glasses.jpg,html/resources/stimuli_practice_decision/06_pullover.jpg,glasses,pullover,,,,,,,,,,,,,,,,,,,,,,,,,,,,,,,,,,,,,,,,,,,,,,,,,,,,,,,,,,,,,,,,,,,,,,,,,,,,,
,,,,,82,2020-07-04_19h46.22.119,retriever_ti,2020.1.3,Win32,60,Firefox,1920,1080,176.962,6,right,1.946,glasses,1,176.996,176.996,179.496,0,5,5,5,1,4,7,1,html/resources/stimuli_practice_decision/01_rabbit.jpg,html/resources/stimuli_practice_decision/05_glasses.jpg,rabbit,glasses,,,,,,,,,,,,,,,,,,,,,,,,,,,,,,,,,,,,,,,,,,,,,,,,,,,,,,,,,,,,,,,,,,,,,,,,,,,,,
,,,,,82,2020-07-04_19h46.22.119,retriever_ti,2020.1.3,Win32,60,Firefox,1920,1080,179.996,7,left,1.178,handmixer,0,180.012,180.012,182.528,0,6,6,6,1,1,2,1,html/resources/stimuli_practice_decision/08_handmixer.jpg,html/resources/stimuli_practice_decision/04_beetle.jpg,handmixer,beetle,,,,,,,,,,,,,,,,,,,,,,,,,,,,,,,,,,,,,,,,,,,,,,,,,,,,,,,,,,,,,,,,,,,,,,,,,,,,,
,,,,,82,2020-07-04_19h46.22.119,retriever_ti,2020.1.3,Win32,60,Firefox,1920,1080,183.529,8,left,1.58,rabbit,1,183.546,183.546,186.046,0,7,7,7,1,4,3,1,html/resources/stimuli_practice_decision/01_rabbit.jpg,html/resources/stimuli_practice_decision/07_sock.jpg,rabbit,sock,,,,,,,,,,,,,,,,,,,,,,,,,,,,,,,,,,,,,,,,,,,,,,,,,,,,,,,,,,,,,,,,,,,,,,,,,,,,,
,,,,,82,2020-07-04_19h46.22.119,retriever_ti,2020.1.3,Win32,60,Firefox,1920,1080,,,,,,,,,,,,,,,,,,,,,,down,1,2.24,1,0,0,0,3,1,html/resources/sequences_IDs/triangle.png,star ↑,square →,triangle ↓,← circle,down,,,,,,,,,,,,,,,,,,,,,,,,,,,,,,,,,,,,,,,,,,,,,,,,,,,,,,,,,,,,,,
,,,,,82,2020-07-04_19h46.22.119,retriever_ti,2020.1.3,Win32,60,Firefox,1920,1080,,,,,,,,,,,,,,,,,,,,,,down,1,1.748,1,0,1,1,1,1,html/resources/sequences_IDs/star.png,square ↑,circle →,star ↓,← triangle,down,,,,,,,,,,,,,,,,,,,,,,,,,,,,,,,,,,,,,,,,,,,,,,,,,,,,,,,,,,,,,,
,,,,,82,2020-07-04_19h46.22.119,retriever_ti,2020.1.3,Win32,60,Firefox,1920,1080,,,,,,,,,,,,,,,,,,,,,,up,1,1.488,1,0,2,2,0,1,html/resources/sequences_IDs/circle.png,circle ↑,square →,triangle ↓,← star ,up,,,,,,,,,,,,,,,,,,,,,,,,,,,,,,,,,,,,,,,,,,,,,,,,,,,,,,,,,,,,,,
,,,,,82,2020-07-04_19h46.22.119,retriever_ti,2020.1.3,Win32,60,Firefox,1920,1080,,,,,,,,,,,,,,,,,,,,,,left,1,1.438,1,0,3,3,2,1,html/resources/sequences_IDs/square1.png,star ↑,triangle →,circle ↓,← square,left,,,,,,,,,,,,,,,,,,,,,,,,,,,,,,,,,,,,,,,,,,,,,,,,,,,,,,,,,,,,,,
,,,,,82,2020-07-04_19h46.22.119,retriever_ti,2020.1.3,Win32,60,Firefox,1920,1080,,,,,,,,,,,,,,,,,,,,,,,,,,,,,,,,,,,,,0,11.455,0,0,0,0,1,,,,,,,,,,,,,,,,,,,,,,,,,,,,,,,,,,,,,,,,,,,,,,,,,,,,,,,
,,,,,82,2020-07-04_19h46.22.119,retriever_ti,2020.1.3,Win32,60,Firefox,1920,1080,212.527,9,left,0.95,pullover,0,212.546,212.546,215.046,0,0,0,0,1,6,7,1,html/resources/stimuli_practice_decision/06_pullover.jpg,html/resources/stimuli_practice_decision/05_glasses.jpg,pullover,glasses,,,,,,,,,,,,,,,,,,,,,,,,,,,,,,,,,,,,,,,,,,,,,,,,,,,,,,,,,,,,,,,,,,,,,,,,,,,,,
,,,,,82,2020-07-04_19h46.22.119,retriever_ti,2020.1.3,Win32,60,Firefox,1920,1080,216.047,10,right,1.616,beetle,0,216.07,216.07,218.563,0,1,1,1,1,6,2,1,html/resources/stimuli_practice_decision/06_pullover.jpg,html/resources/stimuli_practice_decision/04_beetle.jpg,pullover,beetle,,,,,,,,,,,,,,,,,,,,,,,,,,,,,,,,,,,,,,,,,,,,,,,,,,,,,,,,,,,,,,,,,,,,,,,,,,,,,
,,,,,82,2020-07-04_19h46.22.119,retriever_ti,2020.1.3,Win32,60,Firefox,1920,1080,219.065,11,right,1.159,pullover,1,219.097,219.097,221.596,0,2,2,2,1,5,6,1,html/resources/stimuli_practice_decision/02_canary.jpg,html/resources/stimuli_practice_decision/06_pullover.jpg,canary,pullover,,,,,,,,,,,,,,,,,,,,,,,,,,,,,,,,,,,,,,,,,,,,,,,,,,,,,,,,,,,,,,,,,,,,,,,,,,,,,
,,,,,82,2020-07-04_19h46.22.119,retriever_ti,2020.1.3,Win32,60,Firefox,1920,1080,222.597,12,right,2.03,glasses,0,222.63,222.63,225.13,0,3,3,3,1,8,7,1,html/resources/stimuli_practice_decision/03_squirrel.jpg,html/resources/stimuli_practice_decision/05_glasses.jpg,squirrel,glasses,,,,,,,,,,,,,,,,,,,,,,,,,,,,,,,,,,,,,,,,,,,,,,,,,,,,,,,,,,,,,,,,,,,,,,,,,,,,,
,,,,,82,2020-07-04_19h46.22.119,retriever_ti,2020.1.3,Win32,60,Firefox,1920,1080,226.13,13,left,1.864,canary,1,226.148,226.148,228.662,0,4,4,4,1,5,3,1,html/resources/stimuli_practice_decision/02_canary.jpg,html/resources/stimuli_practice_decision/07_sock.jpg,canary,sock,,,,,,,,,,,,,,,,,,,,,,,,,,,,,,,,,,,,,,,,,,,,,,,,,,,,,,,,,,,,,,,,,,,,,,,,,,,,,
,,,,,82,2020-07-04_19h46.22.119,retriever_ti,2020.1.3,Win32,60,Firefox,1920,1080,229.194,14,left,1.201,glasses,0,229.254,229.254,231.746,0,5,5,5,1,7,8,1,html/resources/stimuli_practice_decision/05_glasses.jpg,html/resources/stimuli_practice_decision/03_squirrel.jpg,glasses,squirrel,,,,,,,,,,,,,,,,,,,,,,,,,,,,,,,,,,,,,,,,,,,,,,,,,,,,,,,,,,,,,,,,,,,,,,,,,,,,,
,,,,,82,2020-07-04_19h46.22.119,retriever_ti,2020.1.3,Win32,60,Firefox,1920,1080,232.747,15,left,2.093,canary,1,232.78,232.78,235.279,0,6,6,6,1,5,4,1,html/resources/stimuli_practice_decision/02_canary.jpg,html/resources/stimuli_practice_decision/01_rabbit.jpg,canary,rabbit,,,,,,,,,,,,,,,,,,,,,,,,,,,,,,,,,,,,,,,,,,,,,,,,,,,,,,,,,,,,,,,,,,,,,,,,,,,,,
,,,,,82,2020-07-04_19h46.22.119,retriever_ti,2020.1.3,Win32,60,Firefox,1920,1080,236.28,16,left,0.9,canary,1,236.314,236.314,238.813,0,7,7,7,1,5,3,1,html/resources/stimuli_practice_decision/02_canary.jpg,html/resources/stimuli_practice_decision/07_sock.jpg,canary,sock,,,,,,,,,,,,,,,,,,,,,,,,,,,,,,,,,,,,,,,,,,,,,,,,,,,,,,,,,,,,,,,,,,,,,,,,,,,,,
,,,,,82,2020-07-04_19h46.22.119,retriever_ti,2020.1.3,Win32,60,Firefox,1920,1080,,,,,,,,,,,,,,,,,,,,,,down,1,1.936,1,0,0,0,3,1,html/resources/sequences_IDs/triangle.png,star ↑,square →,triangle ↓,← circle,down,,,,,,,,,,,,,,,,,,,,,,,,,,,,,,,,,,,,,,,,,,,,,,,,,,,,,,,,,,,,,,
,,,,,82,2020-07-04_19h46.22.119,retriever_ti,2020.1.3,Win32,60,Firefox,1920,1080,,,,,,,,,,,,,,,,,,,,,,up,1,0.981,1,0,1,1,0,1,html/resources/sequences_IDs/circle.png,circle ↑,square →,triangle ↓,← star ,up,,,,,,,,,,,,,,,,,,,,,,,,,,,,,,,,,,,,,,,,,,,,,,,,,,,,,,,,,,,,,,
,,,,,82,2020-07-04_19h46.22.119,retriever_ti,2020.1.3,Win32,60,Firefox,1920,1080,,,,,,,,,,,,,,,,,,,,,,down,1,1.268,1,0,2,2,1,1,html/resources/sequences_IDs/star.png,square ↑,circle →,star ↓,← triangle,down,,,,,,,,,,,,,,,,,,,,,,,,,,,,,,,,,,,,,,,,,,,,,,,,,,,,,,,,,,,,,,
,,,,,82,2020-07-04_19h46.22.119,retriever_ti,2020.1.3,Win32,60,Firefox,1920,1080,,,,,,,,,,,,,,,,,,,,,,left,1,1.853,1,0,3,3,2,1,html/resources/sequences_IDs/square1.png,star ↑,triangle →,circle ↓,← square,left,,,,,,,,,,,,,,,,,,,,,,,,,,,,,,,,,,,,,,,,,,,,,,,,,,,,,,,,,,,,,,
,,,,,82,2020-07-04_19h46.22.119,retriever_ti,2020.1.3,Win32,60,Firefox,1920,1080,,,,,,,,,,,,,,,,,,,,,,,,,,,,,,,,,,,,,0,4.333,1,0,1,0,1,,,,,,,,,,,,,,,,,,,,,,,,,,,,,,,,,,,,,,,,,,,,,,,,,,,,,,,
,,,,,82,2020-07-04_19h46.22.119,retriever_ti,2020.1.3,Win32,60,Firefox,1920,1080,,,,,,,,,,,,,,,,,1,,,,,,,,,,,,,,,,,,,,,,,,,,,256.753,1,right,0.681,dress         ,6,7,1,1,1,256.781,256.781,259.28,0,0,0,0,1,1,5,6,slipper     ,dress         ,html/resources/sequences_IDs/B/08_slipper.jpg,html/resources/sequences_IDs/A/07_dress.jpg,8,7,3,2,3,2,6,5,0,82,,,,,,,,,,,,,,,,,,,,
,,,,,82,2020-07-04_19h46.22.119,retriever_ti,2020.1.3,Win32,60,Firefox,1920,1080,,,,,,,,,,,,,,,,,1,,,,,,,,,,,,,,,,,,,,,,,,,,,260.381,2,left,1.057,clownfish     ,4,4,-1,0,0,260.397,260.397,262.897,0,1,1,1,1,2,4,5,clownfish     ,slipper     ,html/resources/sequences_IDs/A/04_clownfish.jpg,html/resources/sequences_IDs/B/08_slipper.jpg,4,8,2,1,3,2,3,6,0,82,,,,,,,,,,,,,,,,,,,,
,,,,,82,2020-07-04_19h46.22.119,retriever_ti,2020.1.3,Win32,60,Firefox,1920,1080,,,,,,,,,,,,,,,,,1,,,,,,,,,,,,,,,,,,,,,,,,,,,264.03,3,right,0.975,parrot      ,3,5,1,1,1,264.065,264.065,266.563,0,2,2,2,1,3,2,3,satellite_dish,parrot      ,html/resources/sequences_IDs/A/10_satellite_dish.jpg,html/resources/sequences_IDs/B/05_parrot.jpg,10,5,4,2,2,1,8,4,0,82,,,,,,,,,,,,,,,,,,,,
,,,,,82,2020-07-04_19h46.22.119,retriever_ti,2020.1.3,Win32,60,Firefox,1920,1080,,,,,,,,,,,,,,,,,1,,,,,,,,,,,,,,,,,,,,,,,,,,,267.669,4,right,1.144,parrot      ,3,5,-5,0,3,267.699,267.699,270.197,0,3,3,3,1,4,8,3,seaturtle     ,parrot      ,html/resources/sequences_IDs/A/02_seaturtle.jpg,html/resources/sequences_IDs/B/05_parrot.jpg,2,5,2,1,2,1,1,4,0,82,,,,,,,,,,,,,,,,,,,,
,,,,,82,2020-07-04_19h46.22.119,retriever_ti,2020.1.3,Win32,60,Firefox,1920,1080,,,,,,,,,,,,,,,,,1,,,,,,,,,,,,,,,,,,,,,,,,,,,270.797,5,left,1.382,giraffe     ,7,3,4,1,3,270.831,270.831,273.33,0,4,4,4,1,5,7,3,giraffe     ,parrot      ,html/resources/sequences_IDs/B/03_giraffe.jpg,html/resources/sequences_IDs/B/05_parrot.jpg,3,5,1,1,2,1,2,4,0,82,,,,,,,,,,,,,,,,,,,,
,,,,,82,2020-07-04_19h46.22.119,retriever_ti,2020.1.3,Win32,60,Firefox,1920,1080,,,,,,,,,,,,,,,,,1,,,,,,,,,,,,,,,,,,,,,,,,,,,273.93,6,left,1.281,dress         ,6,7,2,1,3,273.964,273.964,276.472,0,5,5,5,1,6,6,4,dress         ,clownfish     ,html/resources/sequences_IDs/A/07_dress.jpg,html/resources/sequences_IDs/A/04_clownfish.jpg,7,4,3,2,2,1,5,3,0,82,,,,,,,,,,,,,,,,,,,,
,,,,,82,2020-07-04_19h46.22.119,retriever_ti,2020.1.3,Win32,60,Firefox,1920,1080,,,,,,,,,,,,,,,,,1,,,,,,,,,,,,,,,,,,,,,,,,,,,277.098,7,left,1.233,phone       ,1,9,-5,0,3,277.15,277.15,279.646,0,6,6,6,1,7,1,6,phone       ,dress         ,html/resources/sequences_IDs/B/09_phone.jpg,html/resources/sequences_IDs/A/07_dress.jpg,9,7,4,2,3,2,7,5,0,82,,,,,,,,,,,,,,,,,,,,
,,,,,82,2020-07-04_19h46.22.119,retriever_ti,2020.1.3,Win32,60,Firefox,1920,1080,,,,,,,,,,,,,,,,,1,,,,,,,,,,,,,,,,,,,,,,,,,,,280.265,8,left,1.299,dress         ,6,7,1,1,1,280.282,280.282,282.782,0,7,7,7,1,8,6,5,dress         ,slipper     ,html/resources/sequences_IDs/A/07_dress.jpg,html/resources/sequences_IDs/B/08_slipper.jpg,7,8,3,2,3,2,5,6,0,82,,,,,,,,,,,,,,,,,,,,
,,,,,82,2020-07-04_19h46.22.119,retriever_ti,2020.1.3,Win32,60,Firefox,1920,1080,,,,,,,,,,,,,,,,,1,,,,,,,,,,,,,,,,,,,,,,,,,,,283.881,9,left,1.489,dress         ,6,7,-2,0,3,283.9,283.9,286.397,0,8,8,8,1,9,6,8,dress         ,seaturtle     ,html/resources/sequences_IDs/A/07_dress.jpg,html/resources/sequences_IDs/A/02_seaturtle.jpg,7,2,3,2,2,1,5,1,0,82,,,,,,,,,,,,,,,,,,,,
,,,,,82,2020-07-04_19h46.22.119,retriever_ti,2020.1.3,Win32,60,Firefox,1920,1080,,,,,,,,,,,,,,,,,1,,,,,,,,,,,,,,,,,,,,,,,,,,,286.997,10,left,1.443,giraffe     ,7,3,2,1,3,287.031,287.031,289.523,0,9,9,9,1,10,7,5,giraffe     ,slipper     ,html/resources/sequences_IDs/B/03_giraffe.jpg,html/resources/sequences_IDs/B/08_slipper.jpg,3,8,1,1,3,2,2,6,0,82,,,,,,,,,,,,,,,,,,,,
,,,,,82,2020-07-04_19h46.22.119,retriever_ti,2020.1.3,Win32,60,Firefox,1920,1080,,,,,,,,,,,,,,,,,1,,,,,,,,,,,,,,,,,,,,,,,,,,,290.131,11,right,1.057,dress         ,6,7,1,1,1,290.147,290.147,292.647,0,10,10,10,1,11,5,6,slipper     ,dress         ,html/resources/sequences_IDs/B/08_slipper.jpg,html/resources/sequences_IDs/A/07_dress.jpg,8,7,3,2,3,2,6,5,0,82,,,,,,,,,,,,,,,,,,,,
,,,,,82,2020-07-04_19h46.22.119,retriever_ti,2020.1.3,Win32,60,Firefox,1920,1080,,,,,,,,,,,,,,,,,1,,,,,,,,,,,,,,,,,,,,,,,,,,,293.765,12,right,1.253,satellite_dish,2,10,-1,0,1,293.792,293.792,296.28,0,11,11,11,1,12,3,2,parrot      ,satellite_dish,html/resources/sequences_IDs/B/05_parrot.jpg,html/resources/sequences_IDs/A/10_satellite_dish.jpg,5,10,2,1,4,2,4,8,1,82,,,,,,,,,,,,,,,,,,,,
,,,,,82,2020-07-04_19h46.22.119,retriever_ti,2020.1.3,Win32,60,Firefox,1920,1080,,,,,,,,,,,,,,,,,1,,,,,,,,,,,,,,,,,,,,,,,,,,,297.381,13,left,1.675,phone       ,1,9,-4,0,3,297.397,297.397,299.897,0,12,12,12,1,13,1,5,phone       ,slipper     ,html/resources/sequences_IDs/B/09_phone.jpg,html/resources/sequences_IDs/B/08_slipper.jpg,9,8,4,2,3,2,7,6,0,82,,,,,,,,,,,,,,,,,,,,
,,,,,82,2020-07-04_19h46.22.119,retriever_ti,2020.1.3,Win32,60,Firefox,1920,1080,,,,,,,,,,,,,,,,,1,,,,,,,,,,,,,,,,,,,,,,,,,,,300.498,14,right,0.884,dress         ,6,7,-1,0,0,300.531,300.531,303.03,0,13,13,13,1,14,7,6,giraffe     ,dress         ,html/resources/sequences_IDs/B/03_giraffe.jpg,html/resources/sequences_IDs/A/07_dress.jpg,3,7,1,1,3,2,2,5,0,82,,,,,,,,,,,,,,,,,,,,
,,,,,82,2020-07-04_19h46.22.119,retriever_ti,2020.1.3,Win32,60,Firefox,1920,1080,,,,,,,,,,,,,,,,,1,,,,,,,,,,,,,,,,,,,,,,,,,,,304.131,15,left,0.89,giraffe     ,7,3,3,1,3,304.149,304.149,306.647,0,14,14,14,1,15,7,4,giraffe     ,clownfish     ,html/resources/sequences_IDs/B/03_giraffe.jpg,html/resources/sequences_IDs/A/04_clownfish.jpg,3,4,1,1,2,1,2,3,0,82,,,,,,,,,,,,,,,,,,,,
,,,,,82,2020-07-04_19h46.22.119,retriever_ti,2020.1.3,Win32,60,Firefox,1920,1080,,,,,,,,,,,,,,,,,1,,,,,,,,,,,,,,,,,,,,,,,,,,,307.247,16,right,1.754,parrot      ,3,5,-1,0,0,307.264,307.264,309.764,0,15,15,15,1,16,4,3,clownfish     ,parrot      ,html/resources/sequences_IDs/A/04_clownfish.jpg,html/resources/sequences_IDs/B/05_parrot.jpg,4,5,2,1,2,1,3,4,0,82,,,,,,,,,,,,,,,,,,,,
,,,,,82,2020-07-04_19h46.22.119,retriever_ti,2020.1.3,Win32,60,Firefox,1920,1080,,,,,,,,,,,,,,,,,1,,,,,,,,,,,,,,,,,,,,,,,,,,,310.865,17,left,1.721,giraffe     ,7,3,6,1,3,310.897,310.897,313.398,0,16,16,16,1,17,7,1,giraffe     ,phone       ,html/resources/sequences_IDs/B/03_giraffe.jpg,html/resources/sequences_IDs/B/09_phone.jpg,3,9,1,1,4,2,2,7,0,82,,,,,,,,,,,,,,,,,,,,
,,,,,82,2020-07-04_19h46.22.119,retriever_ti,2020.1.3,Win32,60,Firefox,1920,1080,,,,,,,,,,,,,,,,,1,,,,,,,,,,,,,,,,,,,,,,,,,,,314.015,18,right,1.326,giraffe     ,7,3,2,1,3,314.048,314.048,316.548,0,17,17,17,1,18,5,7,slipper     ,giraffe     ,html/resources/sequences_IDs/B/08_slipper.jpg,html/resources/sequences_IDs/B/03_giraffe.jpg,8,3,3,2,1,1,6,2,0,82,,,,,,,,,,,,,,,,,,,,
,,,,,82,2020-07-04_19h46.22.119,retriever_ti,2020.1.3,Win32,60,Firefox,1920,1080,,,,,,,,,,,,,,,,,1,,,,,,,,,,,,,,,,,,,,,,,,,,,317.164,19,right,1.929,satellite_dish,2,10,-6,0,3,317.181,317.181,319.681,0,18,18,18,1,19,8,2,seaturtle     ,satellite_dish,html/resources/sequences_IDs/A/02_seaturtle.jpg,html/resources/sequences_IDs/A/10_satellite_dish.jpg,2,10,2,1,4,2,1,8,0,82,,,,,,,,,,,,,,,,,,,,
,,,,,82,2020-07-04_19h46.22.119,retriever_ti,2020.1.3,Win32,60,Firefox,1920,1080,,,,,,,,,,,,,,,,,1,,,,,,,,,,,,,,,,,,,,,,,,,,,320.298,20,left,1.362,clownfish     ,4,4,-1,0,0,320.314,320.314,322.814,0,19,19,19,1,20,4,5,clownfish     ,slipper     ,html/resources/sequences_IDs/A/04_clownfish.jpg,html/resources/sequences_IDs/B/08_slipper.jpg,4,8,2,1,3,2,3,6,0,82,,,,,,,,,,,,,,,,,,,,
,,,,,82,2020-07-04_19h46.22.119,retriever_ti,2020.1.3,Win32,60,Firefox,1920,1080,,,,,,,,,,,,,,,,,1,,,,,,,,,,,,,,,,,,,,,,,,,,,323.917,21,right,0.821,satellite_dish,2,10,-3,0,3,323.931,323.931,326.431,0,20,20,20,1,21,5,2,slipper     ,satellite_dish,html/resources/sequences_IDs/B/08_slipper.jpg,html/resources/sequences_IDs/A/10_satellite_dish.jpg,8,10,3,2,4,2,6,8,0,82,,,,,,,,,,,,,,,,,,,,
,,,,,82,2020-07-04_19h46.22.119,retriever_ti,2020.1.3,Win32,60,Firefox,1920,1080,,,,,,,,,,,,,,,,,1,,,,,,,,,,,,,,,,,,,,,,,,,,,327.031,22,right,0.921,giraffe     ,7,3,-1,0,0,327.066,327.066,329.565,0,21,21,21,1,22,8,7,seaturtle     ,giraffe     ,html/resources/sequences_IDs/A/02_seaturtle.jpg,html/resources/sequences_IDs/B/03_giraffe.jpg,2,3,2,1,1,1,1,2,0,82,,,,,,,,,,,,,,,,,,,,
,,,,,82,2020-07-04_19h46.22.119,retriever_ti,2020.1.3,Win32,60,Firefox,1920,1080,,,,,,,,,,,,,,,,,1,,,,,,,,,,,,,,,,,,,,,,,,,,,330.665,23,left,1.178,satellite_dish,2,10,1,1,1,330.698,330.698,333.202,0,22,22,22,1,23,2,1,satellite_dish,phone       ,html/resources/sequences_IDs/A/10_satellite_dish.jpg,html/resources/sequences_IDs/B/09_phone.jpg,10,9,4,2,4,2,8,7,0,82,,,,,,,,,,,,,,,,,,,,
,,,,,82,2020-07-04_19h46.22.119,retriever_ti,2020.1.3,Win32,60,Firefox,1920,1080,,,,,,,,,,,,,,,,,1,,,,,,,,,,,,,,,,,,,,,,,,,,,334.298,24,left,1.166,parrot      ,3,5,2,1,3,334.331,334.331,336.863,0,23,23,23,1,24,3,1,parrot      ,phone       ,html/resources/sequences_IDs/B/05_parrot.jpg,html/resources/sequences_IDs/B/09_phone.jpg,5,9,2,1,4,2,4,7,0,82,,,,,,,,,,,,,,,,,,,,
,,,,,82,2020-07-04_19h46.22.119,retriever_ti,2020.1.3,Win32,60,Firefox,1920,1080,,,,,,,,,,,,,,,,,1,,,,,,,,,,,,,,,,,,,,,,,,,,,337.464,25,right,1.504,satellite_dish,2,10,1,1,1,337.5,337.5,339.998,0,24,24,24,1,25,1,2,phone       ,satellite_dish,html/resources/sequences_IDs/B/09_phone.jpg,html/resources/sequences_IDs/A/10_satellite_dish.jpg,9,10,4,2,4,2,7,8,0,82,,,,,,,,,,,,,,,,,,,,
,,,,,82,2020-07-04_19h46.22.119,retriever_ti,2020.1.3,Win32,60,Firefox,1920,1080,,,,,,,,,,,,,,,,,1,,,,,,,,,,,,,,,,,,,,,,,,,,,341.199,26,left,0.924,satellite_dish,2,10,1,1,1,341.214,341.214,343.714,0,25,25,25,1,26,2,1,satellite_dish,phone       ,html/resources/sequences_IDs/A/10_satellite_dish.jpg,html/resources/sequences_IDs/B/09_phone.jpg,10,9,4,2,4,2,8,7,0,82,,,,,,,,,,,,,,,,,,,,
,,,,,82,2020-07-04_19h46.22.119,retriever_ti,2020.1.3,Win32,60,Firefox,1920,1080,,,,,,,,,,,,,,,,,1,,,,,,,,,,,,,,,,,,,,,,,,,,,344.815,27,right,1.5,phone       ,1,9,-4,0,3,344.831,344.831,347.331,0,26,26,26,1,27,5,1,slipper     ,phone       ,html/resources/sequences_IDs/B/08_slipper.jpg,html/resources/sequences_IDs/B/09_phone.jpg,8,9,3,2,4,2,6,7,0,82,,,,,,,,,,,,,,,,,,,,
,,,,,82,2020-07-04_19h46.22.119,retriever_ti,2020.1.3,Win32,60,Firefox,1920,1080,,,,,,,,,,,,,,,,,1,,,,,,,,,,,,,,,,,,,,,,,,,,,347.948,28,left,1.092,seaturtle     ,8,2,3,1,3,347.964,347.964,350.464,0,27,27,27,1,28,8,5,seaturtle     ,slipper     ,html/resources/sequences_IDs/A/02_seaturtle.jpg,html/resources/sequences_IDs/B/08_slipper.jpg,2,8,2,1,3,2,1,6,0,82,,,,,,,,,,,,,,,,,,,,
,,,,,82,2020-07-04_19h46.22.119,retriever_ti,2020.1.3,Win32,60,Firefox,1920,1080,,,,,,,,,,,,,,,,,1,,,,,,,,,,,,,,,,,,,,,,,,,,,351.065,29,right,1.161,clownfish     ,4,4,-4,0,3,351.081,351.081,353.581,0,28,28,28,1,29,8,4,seaturtle     ,clownfish     ,html/resources/sequences_IDs/A/02_seaturtle.jpg,html/resources/sequences_IDs/A/04_clownfish.jpg,2,4,2,1,2,1,1,3,0,82,,,,,,,,,,,,,,,,,,,,
,,,,,82,2020-07-04_19h46.22.119,retriever_ti,2020.1.3,Win32,60,Firefox,1920,1080,,,,,,,,,,,,,,,,,1,,,,,,,,,,,,,,,,,,,,,,,,,,,354.183,30,left,0.828,dress         ,6,7,-1,0,0,354.198,354.198,356.698,0,29,29,29,1,30,6,7,dress         ,giraffe     ,html/resources/sequences_IDs/A/07_dress.jpg,html/resources/sequences_IDs/B/03_giraffe.jpg,7,3,3,2,1,1,5,2,0,82,,,,,,,,,,,,,,,,,,,,
,,,,,82,2020-07-04_19h46.22.119,retriever_ti,2020.1.3,Win32,60,Firefox,1920,1080,,,,,,,,,,,,,,,,,1,,,,,,,,,,,,,,,,,,,,,,,,,,,357.798,31,left,0.986,satellite_dish,2,10,-2,0,3,357.815,357.815,360.315,0,30,30,30,1,31,2,4,satellite_dish,clownfish     ,html/resources/sequences_IDs/A/10_satellite_dish.jpg,html/resources/sequences_IDs/A/04_clownfish.jpg,10,4,4,2,2,1,8,3,0,82,,,,,,,,,,,,,,,,,,,,
,,,,,82,2020-07-04_19h46.22.119,retriever_ti,2020.1.3,Win32,60,Firefox,1920,1080,,,,,,,,,,,,,,,,,1,,,,,,,,,,,,,,,,,,,,,,,,,,,360.932,32,right,0.816,seaturtle     ,8,2,3,1,3,360.965,360.965,363.464,0,31,31,31,1,32,5,8,slipper     ,seaturtle     ,html/resources/sequences_IDs/B/08_slipper.jpg,html/resources/sequences_IDs/A/02_seaturtle.jpg,8,2,3,2,2,1,6,1,0,82,,,,,,,,,,,,,,,,,,,,
,,,,,82,2020-07-04_19h46.22.119,retriever_ti,2020.1.3,Win32,60,Firefox,1920,1080,,,,,,,,,,,,,,,,,1,,,,,,,,,,,,,,,,,,,,,,,,,,,364.065,33,left,0.653,satellite_dish,2,10,-3,0,3,364.081,364.081,366.64,0,32,32,32,1,33,2,5,satellite_dish,slipper     ,html/resources/sequences_IDs/A/10_satellite_dish.jpg,html/resources/sequences_IDs/B/08_slipper.jpg,10,8,4,2,3,2,8,6,0,82,,,,,,,,,,,,,,,,,,,,
,,,,,82,2020-07-04_19h46.22.119,retriever_ti,2020.1.3,Win32,60,Firefox,1920,1080,,,,,,,,,,,,,,,,,1,,,,,,,,,,,,,,,,,,,,,,,,,,,367.248,34,right,0.639,dress         ,6,7,-1,0,0,367.282,367.282,369.781,0,33,33,33,1,34,7,6,giraffe     ,dress         ,html/resources/sequences_IDs/B/03_giraffe.jpg,html/resources/sequences_IDs/A/07_dress.jpg,3,7,1,1,3,2,2,5,0,82,,,,,,,,,,,,,,,,,,,,
,,,,,82,2020-07-04_19h46.22.119,retriever_ti,2020.1.3,Win32,60,Firefox,1920,1080,,,,,,,,,,,,,,,,,1,,,,,,,,,,,,,,,,,,,,,,,,,,,370.881,35,left,0.884,clownfish     ,4,4,-1,0,1,370.915,370.915,373.415,0,34,34,34,1,35,4,5,clownfish     ,slipper     ,html/resources/sequences_IDs/A/04_clownfish.jpg,html/resources/sequences_IDs/B/08_slipper.jpg,4,8,2,1,3,2,3,6,1,82,,,,,,,,,,,,,,,,,,,,
,,,,,82,2020-07-04_19h46.22.119,retriever_ti,2020.1.3,Win32,60,Firefox,1920,1080,,,,,,,,,,,,,,,,,1,,,,,,,,,,,,,,,,,,,,,,,,,,,374.515,36,right,1.108,parrot      ,3,5,1,1,1,374.532,374.532,377.032,0,35,35,35,1,36,2,3,satellite_dish,parrot      ,html/resources/sequences_IDs/A/10_satellite_dish.jpg,html/resources/sequences_IDs/B/05_parrot.jpg,10,5,4,2,2,1,8,4,0,82,,,,,,,,,,,,,,,,,,,,
,,,,,82,2020-07-04_19h46.22.119,retriever_ti,2020.1.3,Win32,60,Firefox,1920,1080,,,,,,,,,,,,,,,,,1,,,,,,,,,,,,,,,,,,,,,,,,,,,378.132,37,left,1.032,satellite_dish,2,10,-6,0,3,378.151,378.151,380.66,0,36,36,36,1,37,2,8,satellite_dish,seaturtle     ,html/resources/sequences_IDs/A/10_satellite_dish.jpg,html/resources/sequences_IDs/A/02_seaturtle.jpg,10,2,4,2,2,1,8,1,0,82,,,,,,,,,,,,,,,,,,,,
,,,,,82,2020-07-04_19h46.22.119,retriever_ti,2020.1.3,Win32,60,Firefox,1920,1080,,,,,,,,,,,,,,,,,1,,,,,,,,,,,,,,,,,,,,,,,,,,,381.265,38,right,1.299,giraffe     ,7,3,4,1,3,381.298,381.298,383.798,0,37,37,37,1,38,3,7,parrot      ,giraffe     ,html/resources/sequences_IDs/B/05_parrot.jpg,html/resources/sequences_IDs/B/03_giraffe.jpg,5,3,2,1,1,1,4,2,0,82,,,,,,,,,,,,,,,,,,,,
,,,,,82,2020-07-04_19h46.22.119,retriever_ti,2020.1.3,Win32,60,Firefox,1920,1080,,,,,,,,,,,,,,,,,1,,,,,,,,,,,,,,,,,,,,,,,,,,,384.398,39,right,1.59,satellite_dish,2,10,-4,0,3,384.418,384.418,386.914,0,38,38,38,1,39,6,2,dress         ,satellite_dish,html/resources/sequences_IDs/A/07_dress.jpg,html/resources/sequences_IDs/A/10_satellite_dish.jpg,7,10,3,2,4,2,5,8,0,82,,,,,,,,,,,,,,,,,,,,
,,,,,82,2020-07-04_19h46.22.119,retriever_ti,2020.1.3,Win32,60,Firefox,1920,1080,,,,,,,,,,,,,,,,,1,,,,,,,,,,,,,,,,,,,,,,,,,,,387.516,40,left,1.443,giraffe     ,7,3,-1,0,0,387.55,387.55,390.049,0,39,39,39,1,40,7,8,giraffe     ,seaturtle     ,html/resources/sequences_IDs/B/03_giraffe.jpg,html/resources/sequences_IDs/A/02_seaturtle.jpg,3,2,1,1,2,1,2,1,0,82,,,,,,,,,,,,,,,,,,,,
,,,,,82,2020-07-04_19h46.22.119,retriever_ti,2020.1.3,Win32,60,Firefox,1920,1080,,,,,,,,,,,,,,,,,1,,,,,,,,,,,,,,,,,,,,,,,,,,,391.149,41,right,0.698,seaturtle     ,8,2,1,1,1,391.183,391.183,393.682,0,40,40,40,1,41,7,8,giraffe     ,seaturtle     ,html/resources/sequences_IDs/B/03_giraffe.jpg,html/resources/sequences_IDs/A/02_seaturtle.jpg,3,2,1,1,2,1,2,1,0,82,,,,,,,,,,,,,,,,,,,,
,,,,,82,2020-07-04_19h46.22.119,retriever_ti,2020.1.3,Win32,60,Firefox,1920,1080,,,,,,,,,,,,,,,,,1,,,,,,,,,,,,,,,,,,,,,,,,,,,394.782,42,left,1.13,parrot      ,3,5,-2,0,3,394.798,394.798,397.374,0,41,41,41,1,42,3,5,parrot      ,slipper     ,html/resources/sequences_IDs/B/05_parrot.jpg,html/resources/sequences_IDs/B/08_slipper.jpg,5,8,2,1,3,2,4,6,0,82,,,,,,,,,,,,,,,,,,,,
,,,,,82,2020-07-04_19h46.22.119,retriever_ti,2020.1.3,Win32,60,Firefox,1920,1080,,,,,,,,,,,,,,,,,1,,,,,,,,,,,,,,,,,,,,,,,,,,,397.982,43,right,0.897,giraffe     ,7,3,-1,0,1,398.015,398.015,400.515,0,42,42,42,1,43,8,7,seaturtle     ,giraffe     ,html/resources/sequences_IDs/A/02_seaturtle.jpg,html/resources/sequences_IDs/B/03_giraffe.jpg,2,3,2,1,1,1,1,2,1,82,,,,,,,,,,,,,,,,,,,,
,,,,,82,2020-07-04_19h46.22.119,retriever_ti,2020.1.3,Win32,60,Firefox,1920,1080,,,,,,,,,,,,,,,,,1,,,,,,,,,,,,,,,,,,,,,,,,,,,401.605,44,left,1.26,dress         ,6,7,1,1,0,401.632,401.632,404.131,0,43,43,43,1,44,6,5,dress         ,slipper     ,html/resources/sequences_IDs/A/07_dress.jpg,html/resources/sequences_IDs/B/08_slipper.jpg,7,8,3,2,3,2,5,6,1,82,,,,,,,,,,,,,,,,,,,,
,,,,,82,2020-07-04_19h46.22.119,retriever_ti,2020.1.3,Win32,60,Firefox,1920,1080,,,,,,,,,,,,,,,,,1,,,,,,,,,,,,,,,,,,,,,,,,,,,405.232,45,right,1.255,phone       ,1,9,-7,0,3,405.265,405.265,407.765,0,44,44,44,1,45,8,1,seaturtle     ,phone       ,html/resources/sequences_IDs/A/02_seaturtle.jpg,html/resources/sequences_IDs/B/09_phone.jpg,2,9,2,1,4,2,1,7,0,82,,,,,,,,,,,,,,,,,,,,
,,,,,82,2020-07-04_19h46.22.119,retriever_ti,2020.1.3,Win32,60,Firefox,1920,1080,,,,,,,,,,,,,,,,,1,,,,,,,,,,,,,,,,,,,,,,,,,,,408.366,46,left,1.635,phone       ,1,9,-7,0,3,408.399,408.399,410.898,0,45,45,45,1,46,1,8,phone       ,seaturtle     ,html/resources/sequences_IDs/B/09_phone.jpg,html/resources/sequences_IDs/A/02_seaturtle.jpg,9,2,4,2,2,1,7,1,0,82,,,,,,,,,,,,,,,,,,,,
,,,,,82,2020-07-04_19h46.22.119,retriever_ti,2020.1.3,Win32,60,Firefox,1920,1080,,,,,,,,,,,,,,,,,1,,,,,,,,,,,,,,,,,,,,,,,,,,,411.515,47,right,0.822,parrot      ,3,5,2,1,3,411.55,411.55,414.049,0,46,46,46,1,47,1,3,phone       ,parrot      ,html/resources/sequences_IDs/B/09_phone.jpg,html/resources/sequences_IDs/B/05_parrot.jpg,9,5,4,2,2,1,7,4,0,82,,,,,,,,,,,,,,,,,,,,
,,,,,82,2020-07-04_19h46.22.119,retriever_ti,2020.1.3,Win32,60,Firefox,1920,1080,,,,,,,,,,,,,,,,,1,,,,,,,,,,,,,,,,,,,,,,,,,,,414.649,48,right,0.77,dress         ,6,7,-2,0,3,414.699,414.699,417.199,0,47,47,47,1,48,8,6,seaturtle     ,dress         ,html/resources/sequences_IDs/A/02_seaturtle.jpg,html/resources/sequences_IDs/A/07_dress.jpg,2,7,2,1,3,2,1,5,0,82,,,,,,,,,,,,,,,,,,,,
,,,,,82,2020-07-04_19h46.22.119,retriever_ti,2020.1.3,Win32,60,Firefox,1920,1080,,,,,,,,,,,,,,,,,1,,,,,,,,,,,,,,,,,,,,,,,,,,,417.816,49,right,0.934,giraffe     ,7,3,6,1,3,417.833,417.833,420.332,0,48,48,48,1,49,1,7,phone       ,giraffe     ,html/resources/sequences_IDs/B/09_phone.jpg,html/resources/sequences_IDs/B/03_giraffe.jpg,9,3,4,2,1,1,7,2,0,82,,,,,,,,,,,,,,,,,,,,
,,,,,82,2020-07-04_19h46.22.119,retriever_ti,2020.1.3,Win32,60,Firefox,1920,1080,,,,,,,,,,,,,,,,,1,,,,,,,,,,,,,,,,,,,,,,,,,,,420.949,50,right,0.522,giraffe     ,7,3,-1,0,0,420.985,420.985,423.482,0,49,49,49,1,50,8,7,seaturtle     ,giraffe     ,html/resources/sequences_IDs/A/02_seaturtle.jpg,html/resources/sequences_IDs/B/03_giraffe.jpg,2,3,2,1,1,1,1,2,0,82,,,,,,,,,,,,,,,,,,,,
,,,,,82,2020-07-04_19h46.22.119,retriever_ti,2020.1.3,Win32,60,Firefox,1920,1080,,,,,,,,,,,,,,,,,1,,,,,,,,,,,,,,,,,,,,,,,,,,,424.583,51,left,1.302,parrot      ,3,5,-1,0,0,424.598,424.598,427.098,0,50,50,50,1,51,3,4,parrot      ,clownfish     ,html/resources/sequences_IDs/B/05_parrot.jpg,html/resources/sequences_IDs/A/04_clownfish.jpg,5,4,2,1,2,1,4,3,0,82,,,,,,,,,,,,,,,,,,,,
,,,,,82,2020-07-04_19h46.22.119,retriever_ti,2020.1.3,Win32,60,Firefox,1920,1080,,,,,,,,,,,,,,,,,1,,,,,,,,,,,,,,,,,,,,,,,,,,,428.199,52,left,0.636,clownfish     ,4,4,1,1,0,428.215,428.215,430.715,0,51,51,51,1,52,4,3,clownfish     ,parrot      ,html/resources/sequences_IDs/A/04_clownfish.jpg,html/resources/sequences_IDs/B/05_parrot.jpg,4,5,2,1,2,1,3,4,1,82,,,,,,,,,,,,,,,,,,,,
,,,,,82,2020-07-04_19h46.22.119,retriever_ti,2020.1.3,Win32,60,Firefox,1920,1080,,,,,,,,,,,,,,,,,1,,,,,,,,,,,,,,,,,,,,,,,,,,,431.816,53,right,0.529,clownfish     ,4,4,3,1,3,431.834,431.834,434.332,0,52,52,52,1,53,1,4,phone       ,clownfish     ,html/resources/sequences_IDs/B/09_phone.jpg,html/resources/sequences_IDs/A/04_clownfish.jpg,9,4,4,2,2,1,7,3,0,82,,,,,,,,,,,,,,,,,,,,
,,,,,82,2020-07-04_19h46.22.119,retriever_ti,2020.1.3,Win32,60,Firefox,1920,1080,,,,,,,,,,,,,,,,,1,,,,,,,,,,,,,,,,,,,,,,,,,,,434.933,54,left,0.57,dress         ,6,7,1,1,1,434.967,434.967,437.465,0,53,53,53,1,54,6,5,dress         ,slipper     ,html/resources/sequences_IDs/A/07_dress.jpg,html/resources/sequences_IDs/B/08_slipper.jpg,7,8,3,2,3,2,5,6,0,82,,,,,,,,,,,,,,,,,,,,
,,,,,82,2020-07-04_19h46.22.119,retriever_ti,2020.1.3,Win32,60,Firefox,1920,1080,,,,,,,,,,,,,,,,,1,,,,,,,,,,,,,,,,,,,,,,,,,,,438.566,55,right,1.165,satellite_dish,2,10,1,1,0,438.599,438.599,441.092,0,54,54,54,1,55,1,2,phone       ,satellite_dish,html/resources/sequences_IDs/B/09_phone.jpg,html/resources/sequences_IDs/A/10_satellite_dish.jpg,9,10,4,2,4,2,7,8,1,82,,,,,,,,,,,,,,,,,,,,
,,,,,82,2020-07-04_19h46.22.119,retriever_ti,2020.1.3,Win32,60,Firefox,1920,1080,,,,,,,,,,,,,,,,,1,,,,,,,,,,,,,,,,,,,,,,,,,,,442.183,56,right,0.995,dress         ,6,7,-1,0,1,442.217,442.217,444.716,0,55,55,55,1,56,7,6,giraffe     ,dress         ,html/resources/sequences_IDs/B/03_giraffe.jpg,html/resources/sequences_IDs/A/07_dress.jpg,3,7,1,1,3,2,2,5,1,82,,,,,,,,,,,,,,,,,,,,
,,,,,82,2020-07-04_19h46.22.119,retriever_ti,2020.1.3,Win32,60,Firefox,1920,1080,,,,,,,,,,,,,,,,,1,,,,,,,,,,,,,,,,,,,,,,,,,,,445.816,57,right,1.877,phone       ,1,9,-3,0,3,445.833,445.833,448.333,0,56,56,56,1,57,4,1,clownfish     ,phone       ,html/resources/sequences_IDs/A/04_clownfish.jpg,html/resources/sequences_IDs/B/09_phone.jpg,4,9,2,1,4,2,3,7,0,82,,,,,,,,,,,,,,,,,,,,
,,,,,82,2020-07-04_19h46.22.119,retriever_ti,2020.1.3,Win32,60,Firefox,1920,1080,,,,,,,,,,,,,,,,,1,,,,,,,,,,,,,,,,,,,,,,,,,,,448.949,58,right,1.543,satellite_dish,2,10,-5,0,3,448.966,448.966,451.466,0,57,57,57,1,58,7,2,giraffe     ,satellite_dish,html/resources/sequences_IDs/B/03_giraffe.jpg,html/resources/sequences_IDs/A/10_satellite_dish.jpg,3,10,1,1,4,2,2,8,0,82,,,,,,,,,,,,,,,,,,,,
,,,,,82,2020-07-04_19h46.22.119,retriever_ti,2020.1.3,Win32,60,Firefox,1920,1080,,,,,,,,,,,,,,,,,1,,,,,,,,,,,,,,,,,,,,,,,,,,,452.083,59,left,0.806,dress         ,6,7,3,1,3,452.099,452.099,454.599,0,58,58,58,1,59,6,3,dress         ,parrot      ,html/resources/sequences_IDs/A/07_dress.jpg,html/resources/sequences_IDs/B/05_parrot.jpg,7,5,3,2,2,1,5,4,0,82,,,,,,,,,,,,,,,,,,,,
,,,,,82,2020-07-04_19h46.22.119,retriever_ti,2020.1.3,Win32,60,Firefox,1920,1080,,,,,,,,,,,,,,,,,1,,,,,,,,,,,,,,,,,,,,,,,,,,,455.199,60,right,1.42,satellite_dish,2,10,-1,0,0,455.216,455.216,457.743,0,59,59,59,1,60,3,2,parrot      ,satellite_dish,html/resources/sequences_IDs/B/05_parrot.jpg,html/resources/sequences_IDs/A/10_satellite_dish.jpg,5,10,2,1,4,2,4,8,0,82,,,,,,,,,,,,,,,,,,,,
,,,,,82,2020-07-04_19h46.22.119,retriever_ti,2020.1.3,Win32,60,Firefox,1920,1080,,,,,,,,,,,,,,,,,1,,,,,,,,,,,,,,,,,,,,,,,,,,,458.833,61,right,1.216,satellite_dish,2,10,1,1,1,458.853,458.853,461.349,0,60,60,60,1,61,1,2,phone       ,satellite_dish,html/resources/sequences_IDs/B/09_phone.jpg,html/resources/sequences_IDs/A/10_satellite_dish.jpg,9,10,4,2,4,2,7,8,0,82,,,,,,,,,,,,,,,,,,,,
,,,,,82,2020-07-04_19h46.22.119,retriever_ti,2020.1.3,Win32,60,Firefox,1920,1080,,,,,,,,,,,,,,,,,1,,,,,,,,,,,,,,,,,,,,,,,,,,,462.45,62,left,1.191,clownfish     ,4,4,2,1,3,462.501,462.501,464.999,0,61,61,61,1,62,4,2,clownfish     ,satellite_dish,html/resources/sequences_IDs/A/04_clownfish.jpg,html/resources/sequences_IDs/A/10_satellite_dish.jpg,4,10,2,1,4,2,3,8,0,82,,,,,,,,,,,,,,,,,,,,
,,,,,82,2020-07-04_19h46.22.119,retriever_ti,2020.1.3,Win32,60,Firefox,1920,1080,,,,,,,,,,,,,,,,,1,,,,,,,,,,,,,,,,,,,,,,,,,,,465.616,63,right,0.635,clownfish     ,4,4,-1,0,0,465.632,465.632,468.133,0,62,62,62,1,63,5,4,slipper     ,clownfish     ,html/resources/sequences_IDs/B/08_slipper.jpg,html/resources/sequences_IDs/A/04_clownfish.jpg,8,4,3,2,2,1,6,3,0,82,,,,,,,,,,,,,,,,,,,,
,,,,,82,2020-07-04_19h46.22.119,retriever_ti,2020.1.3,Win32,60,Firefox,1920,1080,,,,,,,,,,,,,,,,,1,,,,,,,,,,,,,,,,,,,,,,,,,,,469.233,64,left,1.819,satellite_dish,2,10,-4,0,3,469.249,469.249,471.75,0,63,63,63,1,64,2,6,satellite_dish,dress         ,html/resources/sequences_IDs/A/10_satellite_dish.jpg,html/resources/sequences_IDs/A/07_dress.jpg,10,7,4,2,3,2,8,5,0,82,,,,,,,,,,,,,,,,,,,,
,,,,,82,2020-07-04_19h46.22.119,retriever_ti,2020.1.3,Win32,60,Firefox,1920,1080,,,,,,,,,,,,,,,,,1,,,,,,,,,,,,,,,,,,,,,,,,,,,472.366,65,left,1.654,clownfish     ,4,4,-4,0,3,472.399,472.399,474.899,0,64,64,64,1,65,4,8,clownfish     ,seaturtle     ,html/resources/sequences_IDs/A/04_clownfish.jpg,html/resources/sequences_IDs/A/02_seaturtle.jpg,4,2,2,1,2,1,3,1,0,82,,,,,,,,,,,,,,,,,,,,
,,,,,82,2020-07-04_19h46.22.119,retriever_ti,2020.1.3,Win32,60,Firefox,1920,1080,,,,,,,,,,,,,,,,,1,,,,,,,,,,,,,,,,,,,,,,,,,,,475.5,66,right,0.775,giraffe     ,7,3,3,1,3,475.516,475.516,478.016,0,65,65,65,1,66,4,7,clownfish     ,giraffe     ,html/resources/sequences_IDs/A/04_clownfish.jpg,html/resources/sequences_IDs/B/03_giraffe.jpg,4,3,2,1,1,1,3,2,0,82,,,,,,,,,,,,,,,,,,,,
,,,,,82,2020-07-04_19h46.22.119,retriever_ti,2020.1.3,Win32,60,Firefox,1920,1080,,,,,,,,,,,,,,,,,1,,,,,,,,,,,,,,,,,,,,,,,,,,,478.616,67,right,1.785,satellite_dish,2,10,-1,0,0,478.65,478.65,481.149,0,66,66,66,1,67,3,2,parrot      ,satellite_dish,html/resources/sequences_IDs/B/05_parrot.jpg,html/resources/sequences_IDs/A/10_satellite_dish.jpg,5,10,2,1,4,2,4,8,0,82,,,,,,,,,,,,,,,,,,,,
,,,,,82,2020-07-04_19h46.22.119,retriever_ti,2020.1.3,Win32,60,Firefox,1920,1080,,,,,,,,,,,,,,,,,1,,,,,,,,,,,,,,,,,,,,,,,,,,,482.249,68,right,1.196,giraffe     ,7,3,1,1,1,482.268,482.268,484.766,0,67,67,67,1,68,6,7,dress         ,giraffe     ,html/resources/sequences_IDs/A/07_dress.jpg,html/resources/sequences_IDs/B/03_giraffe.jpg,7,3,3,2,1,1,5,2,0,82,,,,,,,,,,,,,,,,,,,,
,,,,,82,2020-07-04_19h46.22.119,retriever_ti,2020.1.3,Win32,60,Firefox,1920,1080,,,,,,,,,,,,,,,,,1,,,,,,,,,,,,,,,,,,,,,,,,,,,485.866,69,right,1.056,clownfish     ,4,4,-1,0,0,485.9,485.9,488.4,0,68,68,68,1,69,5,4,slipper     ,clownfish     ,html/resources/sequences_IDs/B/08_slipper.jpg,html/resources/sequences_IDs/A/04_clownfish.jpg,8,4,3,2,2,1,6,3,0,82,,,,,,,,,,,,,,,,,,,,
,,,,,82,2020-07-04_19h46.22.119,retriever_ti,2020.1.3,Win32,60,Firefox,1920,1080,,,,,,,,,,,,,,,,,1,,,,,,,,,,,,,,,,,,,,,,,,,,,489.499,70,NaN,NaN,No_response,NaN,NaN,NaN,2,2,489.534,489.534,492.057,0,69,69,69,1,70,2,7,satellite_dish,giraffe     ,html/resources/sequences_IDs/A/10_satellite_dish.jpg,html/resources/sequences_IDs/B/03_giraffe.jpg,10,3,4,2,1,1,8,2,0,82,,,,,,,,,,,,,,,,,,,,
,,,,,82,2020-07-04_19h46.22.119,retriever_ti,2020.1.3,Win32,60,Firefox,1920,1080,,,,,,,,,,,,,,,,,1,,,,,,,,,,,,,,,,,,,,,,,,,,,493.15,71,right,0.608,dress         ,6,7,3,1,3,493.166,493.166,495.668,0,70,70,70,1,71,3,6,parrot      ,dress         ,html/resources/sequences_IDs/B/05_parrot.jpg,html/resources/sequences_IDs/A/07_dress.jpg,5,7,2,1,3,2,4,5,0,82,,,,,,,,,,,,,,,,,,,,
,,,,,82,2020-07-04_19h46.22.119,retriever_ti,2020.1.3,Win32,60,Firefox,1920,1080,,,,,,,,,,,,,,,,,1,,,,,,,,,,,,,,,,,,,,,,,,,,,496.287,72,left,1.103,dress         ,6,7,5,1,3,496.333,496.333,498.832,0,71,71,71,1,72,6,1,dress         ,phone       ,html/resources/sequences_IDs/A/07_dress.jpg,html/resources/sequences_IDs/B/09_phone.jpg,7,9,3,2,4,2,5,7,0,82,,,,,,,,,,,,,,,,,,,,
,,,,,82,2020-07-04_19h46.22.119,retriever_ti,2020.1.3,Win32,60,Firefox,1920,1080,,,,,,,,,,,,,,,,,1,,,,,,,,,,,,,,,,,,,,,,,,,,,499.449,73,right,0.851,parrot      ,3,5,-2,0,3,499.466,499.466,501.967,0,72,72,72,1,73,5,3,slipper     ,parrot      ,html/resources/sequences_IDs/B/08_slipper.jpg,html/resources/sequences_IDs/B/05_parrot.jpg,8,5,3,2,2,1,6,4,0,82,,,,,,,,,,,,,,,,,,,,
,,,,,82,2020-07-04_19h46.22.119,retriever_ti,2020.1.3,Win32,60,Firefox,1920,1080,,,,,,,,,,,,,,,,,1,,,,,,,,,,,,,,,,,,,,,,,,,,,502.583,74,left,1.049,parrot      ,3,5,-5,0,3,502.618,502.618,505.197,0,73,73,73,1,74,3,8,parrot      ,seaturtle     ,html/resources/sequences_IDs/B/05_parrot.jpg,html/resources/sequences_IDs/A/02_seaturtle.jpg,5,2,2,1,2,1,4,1,0,82,,,,,,,,,,,,,,,,,,,,
,,,,,82,2020-07-04_19h46.22.119,retriever_ti,2020.1.3,Win32,60,Firefox,1920,1080,,,,,,,,,,,,,,,,,1,,,,,,,,,,,,,,,,,,,,,,,,,,,505.8,75,left,1.464,clownfish     ,4,4,1,1,1,505.818,505.818,508.316,0,74,74,74,1,75,4,3,clownfish     ,parrot      ,html/resources/sequences_IDs/A/04_clownfish.jpg,html/resources/sequences_IDs/B/05_parrot.jpg,4,5,2,1,2,1,3,4,0,82,,,,,,,,,,,,,,,,,,,,
,,,,,82,2020-07-04_19h46.22.119,retriever_ti,2020.1.3,Win32,60,Firefox,1920,1080,,,,,,,,,,,,,,,,,1,,,,,,,,,,,,,,,,,,,,,,,,,,,509.419,76,right,0.841,clownfish     ,4,4,1,1,1,509.433,509.433,511.933,0,75,75,75,1,76,3,4,parrot      ,clownfish     ,html/resources/sequences_IDs/B/05_parrot.jpg,html/resources/sequences_IDs/A/04_clownfish.jpg,5,4,2,1,2,1,4,3,0,82,,,,,,,,,,,,,,,,,,,,
,,,,,82,2020-07-04_19h46.22.119,retriever_ti,2020.1.3,Win32,60,Firefox,1920,1080,,,,,,,,,,,,,,,,,1,,,,,,,,,,,,,,,,,,,,,,,,,,,513.033,77,right,1.668,dress         ,6,7,2,1,3,513.067,513.067,515.566,0,76,76,76,1,77,4,6,clownfish     ,dress         ,html/resources/sequences_IDs/A/04_clownfish.jpg,html/resources/sequences_IDs/A/07_dress.jpg,4,7,2,1,3,2,3,5,0,82,,,,,,,,,,,,,,,,,,,,
,,,,,82,2020-07-04_19h46.22.119,retriever_ti,2020.1.3,Win32,60,Firefox,1920,1080,,,,,,,,,,,,,,,,,,,,,,,,,,,,,,,,,,,,,0,3.978,,,,,,,,,,,,,,,,,,,,,,,,,,,,,,,,,,,,,,,,,0,0,0,0,1,,,,,,,,,,,,,,,
,,,,,82,2020-07-04_19h46.22.119,retriever_ti,2020.1.3,Win32,60,Firefox,1920,1080,,,,,,,,,,,,,,,,,2,,,,,,,,,,,,,,,,,,,,,,,,,,,544.531,78,right,0.978,clownfish     ,4,4,2,1,3,544.552,544.552,547.05,0,0,0,0,1,78,2,4,satellite_dish,clownfish     ,html/resources/sequences_IDs/A/10_satellite_dish.jpg,html/resources/sequences_IDs/A/04_clownfish.jpg,10,4,4,2,2,1,8,3,0,82,,,,,,,,,,,,,,,,,,,,
,,,,,82,2020-07-04_19h46.22.119,retriever_ti,2020.1.3,Win32,60,Firefox,1920,1080,,,,,,,,,,,,,,,,,2,,,,,,,,,,,,,,,,,,,,,,,,,,,547.656,79,right,0.859,parrot      ,3,5,-5,0,3,547.668,547.668,550.167,0,1,1,1,1,79,8,3,seaturtle     ,parrot      ,html/resources/sequences_IDs/A/02_seaturtle.jpg,html/resources/sequences_IDs/B/05_parrot.jpg,2,5,2,1,2,1,1,4,0,82,,,,,,,,,,,,,,,,,,,,
,,,,,82,2020-07-04_19h46.22.119,retriever_ti,2020.1.3,Win32,60,Firefox,1920,1080,,,,,,,,,,,,,,,,,2,,,,,,,,,,,,,,,,,,,,,,,,,,,550.784,80,left,1.651,giraffe     ,7,3,1,1,1,550.818,550.818,553.316,0,2,2,2,1,80,7,6,giraffe     ,dress         ,html/resources/sequences_IDs/B/03_giraffe.jpg,html/resources/sequences_IDs/A/07_dress.jpg,3,7,1,1,3,2,2,5,0,82,,,,,,,,,,,,,,,,,,,,
,,,,,82,2020-07-04_19h46.22.119,retriever_ti,2020.1.3,Win32,60,Firefox,1920,1080,,,,,,,,,,,,,,,,,2,,,,,,,,,,,,,,,,,,,,,,,,,,,554.417,81,right,1.963,phone       ,1,9,-7,0,3,554.452,554.452,556.95,0,3,3,3,1,81,8,1,seaturtle     ,phone       ,html/resources/sequences_IDs/A/02_seaturtle.jpg,html/resources/sequences_IDs/B/09_phone.jpg,2,9,2,1,4,2,1,7,0,82,,,,,,,,,,,,,,,,,,,,
,,,,,82,2020-07-04_19h46.22.119,retriever_ti,2020.1.3,Win32,60,Firefox,1920,1080,,,,,,,,,,,,,,,,,2,,,,,,,,,,,,,,,,,,,,,,,,,,,557.55,82,left,1.013,dress         ,6,7,1,1,1,557.584,557.584,560.076,0,4,4,4,1,82,6,5,dress         ,slipper     ,html/resources/sequences_IDs/A/07_dress.jpg,html/resources/sequences_IDs/B/08_slipper.jpg,7,8,3,2,3,2,5,6,0,82,,,,,,,,,,,,,,,,,,,,
,,,,,82,2020-07-04_19h46.22.119,retriever_ti,2020.1.3,Win32,60,Firefox,1920,1080,,,,,,,,,,,,,,,,,2,,,,,,,,,,,,,,,,,,,,,,,,,,,561.284,83,right,1.584,giraffe     ,7,3,3,1,3,561.301,561.301,563.8,0,5,5,5,1,83,4,7,clownfish     ,giraffe     ,html/resources/sequences_IDs/A/04_clownfish.jpg,html/resources/sequences_IDs/B/03_giraffe.jpg,4,3,2,1,1,1,3,2,0,82,,,,,,,,,,,,,,,,,,,,
,,,,,82,2020-07-04_19h46.22.119,retriever_ti,2020.1.3,Win32,60,Firefox,1920,1080,,,,,,,,,,,,,,,,,2,,,,,,,,,,,,,,,,,,,,,,,,,,,564.4,84,left,1.108,giraffe     ,7,3,-1,0,0,564.433,564.433,566.933,0,6,6,6,1,84,7,8,giraffe     ,seaturtle     ,html/resources/sequences_IDs/B/03_giraffe.jpg,html/resources/sequences_IDs/A/02_seaturtle.jpg,3,2,1,1,2,1,2,1,0,82,,,,,,,,,,,,,,,,,,,,
,,,,,82,2020-07-04_19h46.22.119,retriever_ti,2020.1.3,Win32,60,Firefox,1920,1080,,,,,,,,,,,,,,,,,2,,,,,,,,,,,,,,,,,,,,,,,,,,,568.034,85,left,1.711,phone       ,1,9,-4,0,3,568.052,568.052,570.55,0,7,7,7,1,85,1,5,phone       ,slipper     ,html/resources/sequences_IDs/B/09_phone.jpg,html/resources/sequences_IDs/B/08_slipper.jpg,9,8,4,2,3,2,7,6,0,82,,,,,,,,,,,,,,,,,,,,
,,,,,82,2020-07-04_19h46.22.119,retriever_ti,2020.1.3,Win32,60,Firefox,1920,1080,,,,,,,,,,,,,,,,,2,,,,,,,,,,,,,,,,,,,,,,,,,,,571.151,86,right,0.698,satellite_dish,2,10,1,1,1,571.185,571.185,573.683,0,8,8,8,1,86,1,2,phone       ,satellite_dish,html/resources/sequences_IDs/B/09_phone.jpg,html/resources/sequences_IDs/A/10_satellite_dish.jpg,9,10,4,2,4,2,7,8,0,82,,,,,,,,,,,,,,,,,,,,
,,,,,82,2020-07-04_19h46.22.119,retriever_ti,2020.1.3,Win32,60,Firefox,1920,1080,,,,,,,,,,,,,,,,,2,,,,,,,,,,,,,,,,,,,,,,,,,,,574.784,87,left,0.841,satellite_dish,2,10,-1,0,0,574.801,574.801,577.3,0,9,9,9,1,87,2,3,satellite_dish,parrot      ,html/resources/sequences_IDs/A/10_satellite_dish.jpg,html/resources/sequences_IDs/B/05_parrot.jpg,10,5,4,2,2,1,8,4,0,82,,,,,,,,,,,,,,,,,,,,
,,,,,82,2020-07-04_19h46.22.119,retriever_ti,2020.1.3,Win32,60,Firefox,1920,1080,,,,,,,,,,,,,,,,,2,,,,,,,,,,,,,,,,,,,,,,,,,,,578.403,88,right,1.086,giraffe     ,7,3,-1,0,0,578.434,578.434,580.934,0,10,10,10,1,88,8,7,seaturtle     ,giraffe     ,html/resources/sequences_IDs/A/02_seaturtle.jpg,html/resources/sequences_IDs/B/03_giraffe.jpg,2,3,2,1,1,1,1,2,0,82,,,,,,,,,,,,,,,,,,,,
,,,,,82,2020-07-04_19h46.22.119,retriever_ti,2020.1.3,Win32,60,Firefox,1920,1080,,,,,,,,,,,,,,,,,2,,,,,,,,,,,,,,,,,,,,,,,,,,,582.022,89,right,1.318,dress         ,6,7,5,1,3,582.052,582.052,584.55,0,11,11,11,1,89,1,6,phone       ,dress         ,html/resources/sequences_IDs/B/09_phone.jpg,html/resources/sequences_IDs/A/07_dress.jpg,9,7,4,2,3,2,7,5,0,82,,,,,,,,,,,,,,,,,,,,
,,,,,82,2020-07-04_19h46.22.119,retriever_ti,2020.1.3,Win32,60,Firefox,1920,1080,,,,,,,,,,,,,,,,,2,,,,,,,,,,,,,,,,,,,,,,,,,,,585.151,90,right,1.106,dress         ,6,7,4,1,3,585.169,585.169,587.667,0,12,12,12,1,90,2,6,satellite_dish,dress         ,html/resources/sequences_IDs/A/10_satellite_dish.jpg,html/resources/sequences_IDs/A/07_dress.jpg,10,7,4,2,3,2,8,5,0,82,,,,,,,,,,,,,,,,,,,,
,,,,,82,2020-07-04_19h46.22.119,retriever_ti,2020.1.3,Win32,60,Firefox,1920,1080,,,,,,,,,,,,,,,,,2,,,,,,,,,,,,,,,,,,,,,,,,,,,588.284,91,left,0.866,giraffe     ,7,3,1,1,1,588.302,588.302,590.834,0,13,13,13,1,91,7,6,giraffe     ,dress         ,html/resources/sequences_IDs/B/03_giraffe.jpg,html/resources/sequences_IDs/A/07_dress.jpg,3,7,1,1,3,2,2,5,0,82,,,,,,,,,,,,,,,,,,,,
,,,,,82,2020-07-04_19h46.22.119,retriever_ti,2020.1.3,Win32,60,Firefox,1920,1080,,,,,,,,,,,,,,,,,2,,,,,,,,,,,,,,,,,,,,,,,,,,,591.934,92,left,1.452,dress         ,6,7,3,1,3,591.969,591.969,594.467,0,14,14,14,1,92,6,3,dress         ,parrot      ,html/resources/sequences_IDs/A/07_dress.jpg,html/resources/sequences_IDs/B/05_parrot.jpg,7,5,3,2,2,1,5,4,0,82,,,,,,,,,,,,,,,,,,,,
,,,,,82,2020-07-04_19h46.22.119,retriever_ti,2020.1.3,Win32,60,Firefox,1920,1080,,,,,,,,,,,,,,,,,2,,,,,,,,,,,,,,,,,,,,,,,,,,,595.192,93,left,1.055,dress         ,6,7,1,1,1,595.217,595.217,597.717,0,15,15,15,1,93,6,5,dress         ,slipper     ,html/resources/sequences_IDs/A/07_dress.jpg,html/resources/sequences_IDs/B/08_slipper.jpg,7,8,3,2,3,2,5,6,0,82,,,,,,,,,,,,,,,,,,,,
,,,,,82,2020-07-04_19h46.22.119,retriever_ti,2020.1.3,Win32,60,Firefox,1920,1080,,,,,,,,,,,,,,,,,2,,,,,,,,,,,,,,,,,,,,,,,,,,,598.817,94,left,2.246,giraffe     ,7,3,3,1,3,598.851,598.851,601.35,0,16,16,16,1,94,7,4,giraffe     ,clownfish     ,html/resources/sequences_IDs/B/03_giraffe.jpg,html/resources/sequences_IDs/A/04_clownfish.jpg,3,4,1,1,2,1,2,3,0,82,,,,,,,,,,,,,,,,,,,,
,,,,,82,2020-07-04_19h46.22.119,retriever_ti,2020.1.3,Win32,60,Firefox,1920,1080,,,,,,,,,,,,,,,,,2,,,,,,,,,,,,,,,,,,,,,,,,,,,601.951,95,right,1.081,seaturtle     ,8,2,5,1,3,601.985,601.985,604.484,0,17,17,17,1,95,3,8,parrot      ,seaturtle     ,html/resources/sequences_IDs/B/05_parrot.jpg,html/resources/sequences_IDs/A/02_seaturtle.jpg,5,2,2,1,2,1,4,1,0,82,,,,,,,,,,,,,,,,,,,,
,,,,,82,2020-07-04_19h46.22.119,retriever_ti,2020.1.3,Win32,60,Firefox,1920,1080,,,,,,,,,,,,,,,,,2,,,,,,,,,,,,,,,,,,,,,,,,,,,605.085,96,right,1.175,giraffe     ,7,3,4,1,3,605.119,605.119,607.617,0,18,18,18,1,96,3,7,parrot      ,giraffe     ,html/resources/sequences_IDs/B/05_parrot.jpg,html/resources/sequences_IDs/B/03_giraffe.jpg,5,3,2,1,1,1,4,2,0,82,,,,,,,,,,,,,,,,,,,,
,,,,,82,2020-07-04_19h46.22.119,retriever_ti,2020.1.3,Win32,60,Firefox,1920,1080,,,,,,,,,,,,,,,,,2,,,,,,,,,,,,,,,,,,,,,,,,,,,608.217,97,right,0.842,seaturtle     ,8,2,4,1,3,608.289,608.289,610.784,0,19,19,19,1,97,4,8,clownfish     ,seaturtle     ,html/resources/sequences_IDs/A/04_clownfish.jpg,html/resources/sequences_IDs/A/02_seaturtle.jpg,4,2,2,1,2,1,3,1,0,82,,,,,,,,,,,,,,,,,,,,
,,,,,82,2020-07-04_19h46.22.119,retriever_ti,2020.1.3,Win32,60,Firefox,1920,1080,,,,,,,,,,,,,,,,,2,,,,,,,,,,,,,,,,,,,,,,,,,,,611.401,98,left,1.585,satellite_dish,2,10,-6,0,3,611.419,611.419,613.917,0,20,20,20,1,98,2,8,satellite_dish,seaturtle     ,html/resources/sequences_IDs/A/10_satellite_dish.jpg,html/resources/sequences_IDs/A/02_seaturtle.jpg,10,2,4,2,2,1,8,1,0,82,,,,,,,,,,,,,,,,,,,,
,,,,,82,2020-07-04_19h46.22.119,retriever_ti,2020.1.3,Win32,60,Firefox,1920,1080,,,,,,,,,,,,,,,,,2,,,,,,,,,,,,,,,,,,,,,,,,,,,614.517,99,left,1.931,clownfish     ,4,4,1,1,1,614.536,614.536,617.034,0,21,21,21,1,99,4,3,clownfish     ,parrot      ,html/resources/sequences_IDs/A/04_clownfish.jpg,html/resources/sequences_IDs/B/05_parrot.jpg,4,5,2,1,2,1,3,4,0,82,,,,,,,,,,,,,,,,,,,,
,,,,,82,2020-07-04_19h46.22.119,retriever_ti,2020.1.3,Win32,60,Firefox,1920,1080,,,,,,,,,,,,,,,,,2,,,,,,,,,,,,,,,,,,,,,,,,,,,618.135,100,right,1.029,parrot      ,3,5,-2,0,3,618.169,618.169,620.668,0,22,22,22,1,100,5,3,slipper     ,parrot      ,html/resources/sequences_IDs/B/08_slipper.jpg,html/resources/sequences_IDs/B/05_parrot.jpg,8,5,3,2,2,1,6,4,0,82,,,,,,,,,,,,,,,,,,,,
,,,,,82,2020-07-04_19h46.22.119,retriever_ti,2020.1.3,Win32,60,Firefox,1920,1080,,,,,,,,,,,,,,,,,2,,,,,,,,,,,,,,,,,,,,,,,,,,,621.284,101,left,0.949,seaturtle     ,8,2,4,1,3,621.318,621.318,623.818,0,23,23,23,1,101,8,4,seaturtle     ,clownfish     ,html/resources/sequences_IDs/A/02_seaturtle.jpg,html/resources/sequences_IDs/A/04_clownfish.jpg,2,4,2,1,2,1,1,3,0,82,,,,,,,,,,,,,,,,,,,,
,,,,,82,2020-07-04_19h46.22.119,retriever_ti,2020.1.3,Win32,60,Firefox,1920,1080,,,,,,,,,,,,,,,,,2,,,,,,,,,,,,,,,,,,,,,,,,,,,624.435,102,left,1.073,clownfish     ,4,4,-1,0,0,624.451,624.451,626.951,0,24,24,24,1,102,4,5,clownfish     ,slipper     ,html/resources/sequences_IDs/A/04_clownfish.jpg,html/resources/sequences_IDs/B/08_slipper.jpg,4,8,2,1,3,2,3,6,0,82,,,,,,,,,,,,,,,,,,,,
,,,,,82,2020-07-04_19h46.22.119,retriever_ti,2020.1.3,Win32,60,Firefox,1920,1080,,,,,,,,,,,,,,,,,2,,,,,,,,,,,,,,,,,,,,,,,,,,,628.051,103,right,2.203,phone       ,1,9,-4,0,3,628.084,628.084,630.619,0,25,25,25,1,103,5,1,slipper     ,phone       ,html/resources/sequences_IDs/B/08_slipper.jpg,html/resources/sequences_IDs/B/09_phone.jpg,8,9,3,2,4,2,6,7,0,82,,,,,,,,,,,,,,,,,,,,
,,,,,82,2020-07-04_19h46.22.119,retriever_ti,2020.1.3,Win32,60,Firefox,1920,1080,,,,,,,,,,,,,,,,,2,,,,,,,,,,,,,,,,,,,,,,,,,,,631.234,104,left,0.933,satellite_dish,2,10,-3,0,3,631.269,631.269,633.768,0,26,26,26,1,104,2,5,satellite_dish,slipper     ,html/resources/sequences_IDs/A/10_satellite_dish.jpg,html/resources/sequences_IDs/B/08_slipper.jpg,10,8,4,2,3,2,8,6,0,82,,,,,,,,,,,,,,,,,,,,
,,,,,82,2020-07-04_19h46.22.119,retriever_ti,2020.1.3,Win32,60,Firefox,1920,1080,,,,,,,,,,,,,,,,,2,,,,,,,,,,,,,,,,,,,,,,,,,,,634.376,105,left,1.74,parrot      ,3,5,-1,0,0,634.385,634.385,636.885,0,27,27,27,1,105,3,4,parrot      ,clownfish     ,html/resources/sequences_IDs/B/05_parrot.jpg,html/resources/sequences_IDs/A/04_clownfish.jpg,5,4,2,1,2,1,4,3,0,82,,,,,,,,,,,,,,,,,,,,
,,,,,82,2020-07-04_19h46.22.119,retriever_ti,2020.1.3,Win32,60,Firefox,1920,1080,,,,,,,,,,,,,,,,,2,,,,,,,,,,,,,,,,,,,,,,,,,,,637.985,106,right,1.068,giraffe     ,7,3,6,1,3,638.018,638.018,640.517,0,28,28,28,1,106,1,7,phone       ,giraffe     ,html/resources/sequences_IDs/B/09_phone.jpg,html/resources/sequences_IDs/B/03_giraffe.jpg,9,3,4,2,1,1,7,2,0,82,,,,,,,,,,,,,,,,,,,,
,,,,,82,2020-07-04_19h46.22.119,retriever_ti,2020.1.3,Win32,60,Firefox,1920,1080,,,,,,,,,,,,,,,,,2,,,,,,,,,,,,,,,,,,,,,,,,,,,641.118,107,left,1.279,seaturtle     ,8,2,2,1,3,641.135,641.135,643.623,0,29,29,29,1,107,8,6,seaturtle     ,dress         ,html/resources/sequences_IDs/A/02_seaturtle.jpg,html/resources/sequences_IDs/A/07_dress.jpg,2,7,2,1,3,2,1,5,0,82,,,,,,,,,,,,,,,,,,,,
,,,,,82,2020-07-04_19h46.22.119,retriever_ti,2020.1.3,Win32,60,Firefox,1920,1080,,,,,,,,,,,,,,,,,2,,,,,,,,,,,,,,,,,,,,,,,,,,,644.235,108,right,1.435,giraffe     ,7,3,2,1,3,644.27,644.27,646.768,0,30,30,30,1,108,5,7,slipper     ,giraffe     ,html/resources/sequences_IDs/B/08_slipper.jpg,html/resources/sequences_IDs/B/03_giraffe.jpg,8,3,3,2,1,1,6,2,0,82,,,,,,,,,,,,,,,,,,,,
,,,,,82,2020-07-04_19h46.22.119,retriever_ti,2020.1.3,Win32,60,Firefox,1920,1080,,,,,,,,,,,,,,,,,2,,,,,,,,,,,,,,,,,,,,,,,,,,,647.385,109,left,1.04,satellite_dish,2,10,1,1,1,647.402,647.402,649.901,0,31,31,31,1,109,2,1,satellite_dish,phone       ,html/resources/sequences_IDs/A/10_satellite_dish.jpg,html/resources/sequences_IDs/B/09_phone.jpg,10,9,4,2,4,2,8,7,0,82,,,,,,,,,,,,,,,,,,,,
,,,,,82,2020-07-04_19h46.22.119,retriever_ti,2020.1.3,Win32,60,Firefox,1920,1080,,,,,,,,,,,,,,,,,2,,,,,,,,,,,,,,,,,,,,,,,,,,,651.001,110,right,0.829,giraffe     ,7,3,1,1,1,651.018,651.018,653.518,0,32,32,32,1,110,6,7,dress         ,giraffe     ,html/resources/sequences_IDs/A/07_dress.jpg,html/resources/sequences_IDs/B/03_giraffe.jpg,7,3,3,2,1,1,5,2,0,82,,,,,,,,,,,,,,,,,,,,
,,,,,82,2020-07-04_19h46.22.119,retriever_ti,2020.1.3,Win32,60,Firefox,1920,1080,,,,,,,,,,,,,,,,,2,,,,,,,,,,,,,,,,,,,,,,,,,,,654.618,111,right,1.083,dress         ,6,7,1,1,1,654.653,654.653,657.151,0,33,33,33,1,111,5,6,slipper     ,dress         ,html/resources/sequences_IDs/B/08_slipper.jpg,html/resources/sequences_IDs/A/07_dress.jpg,8,7,3,2,3,2,6,5,0,82,,,,,,,,,,,,,,,,,,,,
,,,,,82,2020-07-04_19h46.22.119,retriever_ti,2020.1.3,Win32,60,Firefox,1920,1080,,,,,,,,,,,,,,,,,2,,,,,,,,,,,,,,,,,,,,,,,,,,,658.252,112,right,1.196,clownfish     ,4,4,-1,0,1,658.286,658.286,660.785,0,34,34,34,1,112,5,4,slipper     ,clownfish     ,html/resources/sequences_IDs/B/08_slipper.jpg,html/resources/sequences_IDs/A/04_clownfish.jpg,8,4,3,2,2,1,6,3,1,82,,,,,,,,,,,,,,,,,,,,
,,,,,82,2020-07-04_19h46.22.119,retriever_ti,2020.1.3,Win32,60,Firefox,1920,1080,,,,,,,,,,,,,,,,,2,,,,,,,,,,,,,,,,,,,,,,,,,,,661.884,113,right,0.646,clownfish     ,4,4,-1,0,0,661.901,661.901,664.401,0,35,35,35,1,113,5,4,slipper     ,clownfish     ,html/resources/sequences_IDs/B/08_slipper.jpg,html/resources/sequences_IDs/A/04_clownfish.jpg,8,4,3,2,2,1,6,3,0,82,,,,,,,,,,,,,,,,,,,,
,,,,,82,2020-07-04_19h46.22.119,retriever_ti,2020.1.3,Win32,60,Firefox,1920,1080,,,,,,,,,,,,,,,,,2,,,,,,,,,,,,,,,,,,,,,,,,,,,665.502,114,left,2.435,seaturtle     ,8,2,6,1,3,665.537,665.537,668.035,0,36,36,36,1,114,8,2,seaturtle     ,satellite_dish,html/resources/sequences_IDs/A/02_seaturtle.jpg,html/resources/sequences_IDs/A/10_satellite_dish.jpg,2,10,2,1,4,2,1,8,0,82,,,,,,,,,,,,,,,,,,,,
,,,,,82,2020-07-04_19h46.22.119,retriever_ti,2020.1.3,Win32,60,Firefox,1920,1080,,,,,,,,,,,,,,,,,2,,,,,,,,,,,,,,,,,,,,,,,,,,,668.637,115,right,1.165,seaturtle     ,8,2,1,1,1,668.68,668.68,671.168,0,37,37,37,1,115,7,8,giraffe     ,seaturtle     ,html/resources/sequences_IDs/B/03_giraffe.jpg,html/resources/sequences_IDs/A/02_seaturtle.jpg,3,2,1,1,2,1,2,1,0,82,,,,,,,,,,,,,,,,,,,,
,,,,,82,2020-07-04_19h46.22.119,retriever_ti,2020.1.3,Win32,60,Firefox,1920,1080,,,,,,,,,,,,,,,,,2,,,,,,,,,,,,,,,,,,,,,,,,,,,672.268,116,left,1.175,giraffe     ,7,3,2,1,3,672.303,672.303,674.803,0,38,38,38,1,116,7,5,giraffe     ,slipper     ,html/resources/sequences_IDs/B/03_giraffe.jpg,html/resources/sequences_IDs/B/08_slipper.jpg,3,8,1,1,3,2,2,6,0,82,,,,,,,,,,,,,,,,,,,,
,,,,,82,2020-07-04_19h46.22.119,retriever_ti,2020.1.3,Win32,60,Firefox,1920,1080,,,,,,,,,,,,,,,,,2,,,,,,,,,,,,,,,,,,,,,,,,,,,675.401,117,left,1.605,satellite_dish,2,10,-1,0,1,675.436,675.436,677.935,0,39,39,39,1,117,2,3,satellite_dish,parrot      ,html/resources/sequences_IDs/A/10_satellite_dish.jpg,html/resources/sequences_IDs/B/05_parrot.jpg,10,5,4,2,2,1,8,4,1,82,,,,,,,,,,,,,,,,,,,,
,,,,,82,2020-07-04_19h46.22.119,retriever_ti,2020.1.3,Win32,60,Firefox,1920,1080,,,,,,,,,,,,,,,,,2,,,,,,,,,,,,,,,,,,,,,,,,,,,679.035,118,left,1.579,dress         ,6,7,-2,0,3,679.053,679.053,681.558,0,40,40,40,1,118,6,8,dress         ,seaturtle     ,html/resources/sequences_IDs/A/07_dress.jpg,html/resources/sequences_IDs/A/02_seaturtle.jpg,7,2,3,2,2,1,5,1,0,82,,,,,,,,,,,,,,,,,,,,
,,,,,82,2020-07-04_19h46.22.119,retriever_ti,2020.1.3,Win32,60,Firefox,1920,1080,,,,,,,,,,,,,,,,,2,,,,,,,,,,,,,,,,,,,,,,,,,,,682.169,119,right,1.317,satellite_dish,2,10,-5,0,3,682.187,682.187,684.685,0,41,41,41,1,119,7,2,giraffe     ,satellite_dish,html/resources/sequences_IDs/B/03_giraffe.jpg,html/resources/sequences_IDs/A/10_satellite_dish.jpg,3,10,1,1,4,2,2,8,0,82,,,,,,,,,,,,,,,,,,,,
,,,,,82,2020-07-04_19h46.22.119,retriever_ti,2020.1.3,Win32,60,Firefox,1920,1080,,,,,,,,,,,,,,,,,2,,,,,,,,,,,,,,,,,,,,,,,,,,,685.285,120,left,0.929,dress         ,6,7,2,1,3,685.343,685.343,687.835,0,42,42,42,1,120,6,4,dress         ,clownfish     ,html/resources/sequences_IDs/A/07_dress.jpg,html/resources/sequences_IDs/A/04_clownfish.jpg,7,4,3,2,2,1,5,3,0,82,,,,,,,,,,,,,,,,,,,,
,,,,,82,2020-07-04_19h46.22.119,retriever_ti,2020.1.3,Win32,60,Firefox,1920,1080,,,,,,,,,,,,,,,,,2,,,,,,,,,,,,,,,,,,,,,,,,,,,688.435,121,right,0.81,satellite_dish,2,10,1,1,1,688.47,688.47,690.968,0,43,43,43,1,121,1,2,phone       ,satellite_dish,html/resources/sequences_IDs/B/09_phone.jpg,html/resources/sequences_IDs/A/10_satellite_dish.jpg,9,10,4,2,4,2,7,8,0,82,,,,,,,,,,,,,,,,,,,,
,,,,,82,2020-07-04_19h46.22.119,retriever_ti,2020.1.3,Win32,60,Firefox,1920,1080,,,,,,,,,,,,,,,,,2,,,,,,,,,,,,,,,,,,,,,,,,,,,692.068,122,right,1.064,giraffe     ,7,3,1,1,1,692.085,692.085,694.585,0,44,44,44,1,122,6,7,dress         ,giraffe     ,html/resources/sequences_IDs/A/07_dress.jpg,html/resources/sequences_IDs/B/03_giraffe.jpg,7,3,3,2,1,1,5,2,0,82,,,,,,,,,,,,,,,,,,,,
,,,,,82,2020-07-04_19h46.22.119,retriever_ti,2020.1.3,Win32,60,Firefox,1920,1080,,,,,,,,,,,,,,,,,2,,,,,,,,,,,,,,,,,,,,,,,,,,,695.686,123,left,1.431,dress         ,6,7,5,1,3,695.72,695.72,698.218,0,45,45,45,1,123,6,1,dress         ,phone       ,html/resources/sequences_IDs/A/07_dress.jpg,html/resources/sequences_IDs/B/09_phone.jpg,7,9,3,2,4,2,5,7,0,82,,,,,,,,,,,,,,,,,,,,
,,,,,82,2020-07-04_19h46.22.119,retriever_ti,2020.1.3,Win32,60,Firefox,1920,1080,,,,,,,,,,,,,,,,,2,,,,,,,,,,,,,,,,,,,,,,,,,,,698.819,124,right,0.766,dress         ,6,7,1,1,0,698.837,698.837,701.335,0,46,46,46,1,124,5,6,slipper     ,dress         ,html/resources/sequences_IDs/B/08_slipper.jpg,html/resources/sequences_IDs/A/07_dress.jpg,8,7,3,2,3,2,6,5,1,82,,,,,,,,,,,,,,,,,,,,
,,,,,82,2020-07-04_19h46.22.119,retriever_ti,2020.1.3,Win32,60,Firefox,1920,1080,,,,,,,,,,,,,,,,,2,,,,,,,,,,,,,,,,,,,,,,,,,,,702.435,125,right,1.288,satellite_dish,2,10,-4,0,3,702.454,702.454,704.953,0,47,47,47,1,125,6,2,dress         ,satellite_dish,html/resources/sequences_IDs/A/07_dress.jpg,html/resources/sequences_IDs/A/10_satellite_dish.jpg,7,10,3,2,4,2,5,8,0,82,,,,,,,,,,,,,,,,,,,,
,,,,,82,2020-07-04_19h46.22.119,retriever_ti,2020.1.3,Win32,60,Firefox,1920,1080,,,,,,,,,,,,,,,,,2,,,,,,,,,,,,,,,,,,,,,,,,,,,705.569,126,left,0.976,satellite_dish,2,10,1,1,1,705.585,705.585,708.102,0,48,48,48,1,126,2,1,satellite_dish,phone       ,html/resources/sequences_IDs/A/10_satellite_dish.jpg,html/resources/sequences_IDs/B/09_phone.jpg,10,9,4,2,4,2,8,7,0,82,,,,,,,,,,,,,,,,,,,,
,,,,,82,2020-07-04_19h46.22.119,retriever_ti,2020.1.3,Win32,60,Firefox,1920,1080,,,,,,,,,,,,,,,,,2,,,,,,,,,,,,,,,,,,,,,,,,,,,709.202,127,right,0.806,seaturtle     ,8,2,7,1,3,709.235,709.235,711.744,0,49,49,49,1,127,1,8,phone       ,seaturtle     ,html/resources/sequences_IDs/B/09_phone.jpg,html/resources/sequences_IDs/A/02_seaturtle.jpg,9,2,4,2,2,1,7,1,0,82,,,,,,,,,,,,,,,,,,,,
,,,,,82,2020-07-04_19h46.22.119,retriever_ti,2020.1.3,Win32,60,Firefox,1920,1080,,,,,,,,,,,,,,,,,2,,,,,,,,,,,,,,,,,,,,,,,,,,,712.352,128,left,0.799,satellite_dish,2,10,1,1,0,712.396,712.396,714.885,0,50,50,50,1,128,2,1,satellite_dish,phone       ,html/resources/sequences_IDs/A/10_satellite_dish.jpg,html/resources/sequences_IDs/B/09_phone.jpg,10,9,4,2,4,2,8,7,1,82,,,,,,,,,,,,,,,,,,,,
,,,,,82,2020-07-04_19h46.22.119,retriever_ti,2020.1.3,Win32,60,Firefox,1920,1080,,,,,,,,,,,,,,,,,2,,,,,,,,,,,,,,,,,,,,,,,,,,,715.985,129,right,1.396,clownfish     ,4,4,3,1,3,716.019,716.019,718.518,0,51,51,51,1,129,1,4,phone       ,clownfish     ,html/resources/sequences_IDs/B/09_phone.jpg,html/resources/sequences_IDs/A/04_clownfish.jpg,9,4,4,2,2,1,7,3,0,82,,,,,,,,,,,,,,,,,,,,
,,,,,82,2020-07-04_19h46.22.119,retriever_ti,2020.1.3,Win32,60,Firefox,1920,1080,,,,,,,,,,,,,,,,,2,,,,,,,,,,,,,,,,,,,,,,,,,,,719.119,130,left,1.293,parrot      ,3,5,2,1,3,719.153,719.153,721.652,0,52,52,52,1,130,3,1,parrot      ,phone       ,html/resources/sequences_IDs/B/05_parrot.jpg,html/resources/sequences_IDs/B/09_phone.jpg,5,9,2,1,4,2,4,7,0,82,,,,,,,,,,,,,,,,,,,,
,,,,,82,2020-07-04_19h46.22.119,retriever_ti,2020.1.3,Win32,60,Firefox,1920,1080,,,,,,,,,,,,,,,,,2,,,,,,,,,,,,,,,,,,,,,,,,,,,722.269,131,left,0.814,parrot      ,3,5,-2,0,3,722.287,722.287,724.95,0,53,53,53,1,131,3,5,parrot      ,slipper     ,html/resources/sequences_IDs/B/05_parrot.jpg,html/resources/sequences_IDs/B/08_slipper.jpg,5,8,2,1,3,2,4,6,0,82,,,,,,,,,,,,,,,,,,,,
,,,,,82,2020-07-04_19h46.22.119,retriever_ti,2020.1.3,Win32,60,Firefox,1920,1080,,,,,,,,,,,,,,,,,2,,,,,,,,,,,,,,,,,,,,,,,,,,,725.552,132,right,0.935,clownfish     ,4,4,-1,0,0,725.588,725.588,728.087,0,54,54,54,1,132,5,4,slipper     ,clownfish     ,html/resources/sequences_IDs/B/08_slipper.jpg,html/resources/sequences_IDs/A/04_clownfish.jpg,8,4,3,2,2,1,6,3,0,82,,,,,,,,,,,,,,,,,,,,
,,,,,82,2020-07-04_19h46.22.119,retriever_ti,2020.1.3,Win32,60,Firefox,1920,1080,,,,,,,,,,,,,,,,,2,,,,,,,,,,,,,,,,,,,,,,,,,,,729.186,133,left,1.224,clownfish     ,4,4,1,1,1,729.202,729.202,731.702,0,55,55,55,1,133,4,3,clownfish     ,parrot      ,html/resources/sequences_IDs/A/04_clownfish.jpg,html/resources/sequences_IDs/B/05_parrot.jpg,4,5,2,1,2,1,3,4,0,82,,,,,,,,,,,,,,,,,,,,
,,,,,82,2020-07-04_19h46.22.119,retriever_ti,2020.1.3,Win32,60,Firefox,1920,1080,,,,,,,,,,,,,,,,,2,,,,,,,,,,,,,,,,,,,,,,,,,,,732.803,134,right,0.741,dress         ,6,7,1,1,1,732.836,732.836,735.336,0,56,56,56,1,134,5,6,slipper     ,dress         ,html/resources/sequences_IDs/B/08_slipper.jpg,html/resources/sequences_IDs/A/07_dress.jpg,8,7,3,2,3,2,6,5,0,82,,,,,,,,,,,,,,,,,,,,
,,,,,82,2020-07-04_19h46.22.119,retriever_ti,2020.1.3,Win32,60,Firefox,1920,1080,,,,,,,,,,,,,,,,,2,,,,,,,,,,,,,,,,,,,,,,,,,,,736.435,135,right,1.573,clownfish     ,4,4,1,1,1,736.469,736.469,738.969,0,57,57,57,1,135,3,4,parrot      ,clownfish     ,html/resources/sequences_IDs/B/05_parrot.jpg,html/resources/sequences_IDs/A/04_clownfish.jpg,5,4,2,1,2,1,4,3,0,82,,,,,,,,,,,,,,,,,,,,
,,,,,82,2020-07-04_19h46.22.119,retriever_ti,2020.1.3,Win32,60,Firefox,1920,1080,,,,,,,,,,,,,,,,,2,,,,,,,,,,,,,,,,,,,,,,,,,,,740.069,136,right,2.025,phone       ,1,9,-3,0,3,740.086,740.086,742.589,0,58,58,58,1,136,4,1,clownfish     ,phone       ,html/resources/sequences_IDs/A/04_clownfish.jpg,html/resources/sequences_IDs/B/09_phone.jpg,4,9,2,1,4,2,3,7,0,82,,,,,,,,,,,,,,,,,,,,
,,,,,82,2020-07-04_19h46.22.119,retriever_ti,2020.1.3,Win32,60,Firefox,1920,1080,,,,,,,,,,,,,,,,,2,,,,,,,,,,,,,,,,,,,,,,,,,,,743.204,137,right,0.663,satellite_dish,2,10,-2,0,3,743.219,743.219,745.718,0,59,59,59,1,137,4,2,clownfish     ,satellite_dish,html/resources/sequences_IDs/A/04_clownfish.jpg,html/resources/sequences_IDs/A/10_satellite_dish.jpg,4,10,2,1,4,2,3,8,0,82,,,,,,,,,,,,,,,,,,,,
,,,,,82,2020-07-04_19h46.22.119,retriever_ti,2020.1.3,Win32,60,Firefox,1920,1080,,,,,,,,,,,,,,,,,2,,,,,,,,,,,,,,,,,,,,,,,,,,,746.369,138,right,0.635,dress         ,6,7,3,1,3,746.385,746.385,748.886,0,60,60,60,1,138,3,6,parrot      ,dress         ,html/resources/sequences_IDs/B/05_parrot.jpg,html/resources/sequences_IDs/A/07_dress.jpg,5,7,2,1,3,2,4,5,0,82,,,,,,,,,,,,,,,,,,,,
,,,,,82,2020-07-04_19h46.22.119,retriever_ti,2020.1.3,Win32,60,Firefox,1920,1080,,,,,,,,,,,,,,,,,2,,,,,,,,,,,,,,,,,,,,,,,,,,,749.503,139,left,0.741,giraffe     ,7,3,4,1,3,749.536,749.536,752.036,0,61,61,61,1,139,7,3,giraffe     ,parrot      ,html/resources/sequences_IDs/B/03_giraffe.jpg,html/resources/sequences_IDs/B/05_parrot.jpg,3,5,1,1,2,1,2,4,0,82,,,,,,,,,,,,,,,,,,,,
,,,,,82,2020-07-04_19h46.22.119,retriever_ti,2020.1.3,Win32,60,Firefox,1920,1080,,,,,,,,,,,,,,,,,2,,,,,,,,,,,,,,,,,,,,,,,,,,,752.636,140,right,0.8,dress         ,6,7,2,1,3,752.669,752.669,755.166,0,62,62,62,1,140,4,6,clownfish     ,dress         ,html/resources/sequences_IDs/A/04_clownfish.jpg,html/resources/sequences_IDs/A/07_dress.jpg,4,7,2,1,3,2,3,5,0,82,,,,,,,,,,,,,,,,,,,,
,,,,,82,2020-07-04_19h46.22.119,retriever_ti,2020.1.3,Win32,60,Firefox,1920,1080,,,,,,,,,,,,,,,,,2,,,,,,,,,,,,,,,,,,,,,,,,,,,755.77,141,right,0.682,satellite_dish,2,10,-1,0,0,755.786,755.786,758.286,0,63,63,63,1,141,3,2,parrot      ,satellite_dish,html/resources/sequences_IDs/B/05_parrot.jpg,html/resources/sequences_IDs/A/10_satellite_dish.jpg,5,10,2,1,4,2,4,8,0,82,,,,,,,,,,,,,,,,,,,,
,,,,,82,2020-07-04_19h46.22.119,retriever_ti,2020.1.3,Win32,60,Firefox,1920,1080,,,,,,,,,,,,,,,,,2,,,,,,,,,,,,,,,,,,,,,,,,,,,759.42,142,left,0.789,satellite_dish,2,10,-1,0,0,759.436,759.436,761.936,0,64,64,64,1,142,2,3,satellite_dish,parrot      ,html/resources/sequences_IDs/A/10_satellite_dish.jpg,html/resources/sequences_IDs/B/05_parrot.jpg,10,5,4,2,2,1,8,4,0,82,,,,,,,,,,,,,,,,,,,,
,,,,,82,2020-07-04_19h46.22.119,retriever_ti,2020.1.3,Win32,60,Firefox,1920,1080,,,,,,,,,,,,,,,,,2,,,,,,,,,,,,,,,,,,,,,,,,,,,763.036,143,left,2.08,seaturtle     ,8,2,1,1,1,763.069,763.069,765.569,0,65,65,65,1,143,8,7,seaturtle     ,giraffe     ,html/resources/sequences_IDs/A/02_seaturtle.jpg,html/resources/sequences_IDs/B/03_giraffe.jpg,2,3,2,1,1,1,1,2,0,82,,,,,,,,,,,,,,,,,,,,
,,,,,82,2020-07-04_19h46.22.119,retriever_ti,2020.1.3,Win32,60,Firefox,1920,1080,,,,,,,,,,,,,,,,,2,,,,,,,,,,,,,,,,,,,,,,,,,,,766.669,144,left,1.14,seaturtle     ,8,2,3,1,3,766.686,766.686,769.186,0,66,66,66,1,144,8,5,seaturtle     ,slipper     ,html/resources/sequences_IDs/A/02_seaturtle.jpg,html/resources/sequences_IDs/B/08_slipper.jpg,2,8,2,1,3,2,1,6,0,82,,,,,,,,,,,,,,,,,,,,
,,,,,82,2020-07-04_19h46.22.119,retriever_ti,2020.1.3,Win32,60,Firefox,1920,1080,,,,,,,,,,,,,,,,,2,,,,,,,,,,,,,,,,,,,,,,,,,,,769.786,145,right,1.264,giraffe     ,7,3,5,1,3,769.82,769.82,772.319,0,67,67,67,1,145,2,7,satellite_dish,giraffe     ,html/resources/sequences_IDs/A/10_satellite_dish.jpg,html/resources/sequences_IDs/B/03_giraffe.jpg,10,3,4,2,1,1,8,2,0,82,,,,,,,,,,,,,,,,,,,,
,,,,,82,2020-07-04_19h46.22.119,retriever_ti,2020.1.3,Win32,60,Firefox,1920,1080,,,,,,,,,,,,,,,,,2,,,,,,,,,,,,,,,,,,,,,,,,,,,772.92,146,left,1.632,clownfish     ,4,4,-1,0,0,772.954,772.954,775.453,0,68,68,68,1,146,4,5,clownfish     ,slipper     ,html/resources/sequences_IDs/A/04_clownfish.jpg,html/resources/sequences_IDs/B/08_slipper.jpg,4,8,2,1,3,2,3,6,0,82,,,,,,,,,,,,,,,,,,,,
,,,,,82,2020-07-04_19h46.22.119,retriever_ti,2020.1.3,Win32,60,Firefox,1920,1080,,,,,,,,,,,,,,,,,2,,,,,,,,,,,,,,,,,,,,,,,,,,,776.56,147,right,1.633,satellite_dish,2,10,-1,0,0,776.596,776.596,779.086,0,69,69,69,1,147,3,2,parrot      ,satellite_dish,html/resources/sequences_IDs/B/05_parrot.jpg,html/resources/sequences_IDs/A/10_satellite_dish.jpg,5,10,2,1,4,2,4,8,0,82,,,,,,,,,,,,,,,,,,,,
,,,,,82,2020-07-04_19h46.22.119,retriever_ti,2020.1.3,Win32,60,Firefox,1920,1080,,,,,,,,,,,,,,,,,2,,,,,,,,,,,,,,,,,,,,,,,,,,,780.186,148,left,2.429,giraffe     ,7,3,6,1,3,780.204,780.204,782.703,0,70,70,70,1,148,7,1,giraffe     ,phone       ,html/resources/sequences_IDs/B/03_giraffe.jpg,html/resources/sequences_IDs/B/09_phone.jpg,3,9,1,1,4,2,2,7,0,82,,,,,,,,,,,,,,,,,,,,
,,,,,82,2020-07-04_19h46.22.119,retriever_ti,2020.1.3,Win32,60,Firefox,1920,1080,,,,,,,,,,,,,,,,,2,,,,,,,,,,,,,,,,,,,,,,,,,,,783.303,149,right,0.745,satellite_dish,2,10,-3,0,3,783.319,783.319,785.819,0,71,71,71,1,149,5,2,slipper     ,satellite_dish,html/resources/sequences_IDs/B/08_slipper.jpg,html/resources/sequences_IDs/A/10_satellite_dish.jpg,8,10,3,2,4,2,6,8,0,82,,,,,,,,,,,,,,,,,,,,
,,,,,82,2020-07-04_19h46.22.119,retriever_ti,2020.1.3,Win32,60,Firefox,1920,1080,,,,,,,,,,,,,,,,,2,,,,,,,,,,,,,,,,,,,,,,,,,,,786.42,150,left,1.262,parrot      ,3,5,-1,0,1,786.438,786.438,788.929,0,72,72,72,1,150,3,4,parrot      ,clownfish     ,html/resources/sequences_IDs/B/05_parrot.jpg,html/resources/sequences_IDs/A/04_clownfish.jpg,5,4,2,1,2,1,4,3,1,82,,,,,,,,,,,,,,,,,,,,
,,,,,82,2020-07-04_19h46.22.119,retriever_ti,2020.1.3,Win32,60,Firefox,1920,1080,,,,,,,,,,,,,,,,,2,,,,,,,,,,,,,,,,,,,,,,,,,,,790.019,151,right,1.072,giraffe     ,7,3,1,1,0,790.038,790.038,792.536,0,73,73,73,1,151,6,7,dress         ,giraffe     ,html/resources/sequences_IDs/A/07_dress.jpg,html/resources/sequences_IDs/B/03_giraffe.jpg,7,3,3,2,1,1,5,2,1,82,,,,,,,,,,,,,,,,,,,,
,,,,,82,2020-07-04_19h46.22.119,retriever_ti,2020.1.3,Win32,60,Firefox,1920,1080,,,,,,,,,,,,,,,,,2,,,,,,,,,,,,,,,,,,,,,,,,,,,793.636,152,right,0.721,seaturtle     ,8,2,3,1,3,793.653,793.653,796.153,0,74,74,74,1,152,5,8,slipper     ,seaturtle     ,html/resources/sequences_IDs/B/08_slipper.jpg,html/resources/sequences_IDs/A/02_seaturtle.jpg,8,2,3,2,2,1,6,1,0,82,,,,,,,,,,,,,,,,,,,,
,,,,,82,2020-07-04_19h46.22.119,retriever_ti,2020.1.3,Win32,60,Firefox,1920,1080,,,,,,,,,,,,,,,,,2,,,,,,,,,,,,,,,,,,,,,,,,,,,796.77,153,right,1.396,parrot      ,3,5,2,1,3,796.803,796.803,799.303,0,75,75,75,1,153,1,3,phone       ,parrot      ,html/resources/sequences_IDs/B/09_phone.jpg,html/resources/sequences_IDs/B/05_parrot.jpg,9,5,4,2,2,1,7,4,0,82,,,,,,,,,,,,,,,,,,,,
,,,,,82,2020-07-04_19h46.22.119,retriever_ti,2020.1.3,Win32,60,Firefox,1920,1080,,,,,,,,,,,,,,,,,2,,,,,,,,,,,,,,,,,,,,,,,,,,,799.92,154,right,0.767,seaturtle     ,8,2,1,1,0,799.953,799.953,802.453,0,76,76,76,1,154,7,8,giraffe     ,seaturtle     ,html/resources/sequences_IDs/B/03_giraffe.jpg,html/resources/sequences_IDs/A/02_seaturtle.jpg,3,2,1,1,2,1,2,1,1,82,,,,,,,,,,,,,,,,,,,,
,,,,,82,2020-07-04_19h46.22.119,retriever_ti,2020.1.3,Win32,60,Firefox,1920,1080,,,,,,,,,,,,,,,,,,,,,,,,,,,,,,,,,,,,,0,3.336,,,,,,,,,,,,,,,,,,,,,,,,,,,,,,,,,,,,,,,,,1,0,1,0,1,,,,,,,,,,,,,,,
,,,,,82,2020-07-04_19h46.22.119,retriever_ti,2020.1.3,Win32,60,Firefox,1920,1080,,,,,,,,,,,,,,,,,3,,,,,,,,,,,,,,,,,,,,,,,,,,,815.258,155,left,0.937,seaturtle     ,8,2,1,1,1,815.26,815.26,817.803,0,0,0,0,1,155,8,7,seaturtle     ,giraffe     ,html/resources/sequences_IDs/A/02_seaturtle.jpg,html/resources/sequences_IDs/B/03_giraffe.jpg,2,3,2,1,1,1,1,2,0,82,,,,,,,,,,,,,,,,,,,,
,,,,,82,2020-07-04_19h46.22.119,retriever_ti,2020.1.3,Win32,60,Firefox,1920,1080,,,,,,,,,,,,,,,,,3,,,,,,,,,,,,,,,,,,,,,,,,,,,818.903,156,left,1.533,parrot      ,3,5,-3,0,3,818.938,818.938,821.437,0,1,1,1,1,156,3,6,parrot      ,dress         ,html/resources/sequences_IDs/B/05_parrot.jpg,html/resources/sequences_IDs/A/07_dress.jpg,5,7,2,1,3,2,4,5,0,82,,,,,,,,,,,,,,,,,,,,
,,,,,82,2020-07-04_19h46.22.119,retriever_ti,2020.1.3,Win32,60,Firefox,1920,1080,,,,,,,,,,,,,,,,,3,,,,,,,,,,,,,,,,,,,,,,,,,,,822.053,157,right,0.627,seaturtle     ,8,2,3,1,3,822.073,822.073,824.594,0,2,2,2,1,157,5,8,slipper     ,seaturtle     ,html/resources/sequences_IDs/B/08_slipper.jpg,html/resources/sequences_IDs/A/02_seaturtle.jpg,8,2,3,2,2,1,6,1,0,82,,,,,,,,,,,,,,,,,,,,
,,,,,82,2020-07-04_19h46.22.119,retriever_ti,2020.1.3,Win32,60,Firefox,1920,1080,,,,,,,,,,,,,,,,,3,,,,,,,,,,,,,,,,,,,,,,,,,,,825.203,158,right,0.775,dress         ,6,7,1,1,1,825.22,825.22,827.72,0,3,3,3,1,158,5,6,slipper     ,dress         ,html/resources/sequences_IDs/B/08_slipper.jpg,html/resources/sequences_IDs/A/07_dress.jpg,8,7,3,2,3,2,6,5,0,82,,,,,,,,,,,,,,,,,,,,
,,,,,82,2020-07-04_19h46.22.119,retriever_ti,2020.1.3,Win32,60,Firefox,1920,1080,,,,,,,,,,,,,,,,,3,,,,,,,,,,,,,,,,,,,,,,,,,,,828.82,159,left,0.832,giraffe     ,7,3,2,1,3,828.836,828.836,831.337,0,4,4,4,1,159,7,5,giraffe     ,slipper     ,html/resources/sequences_IDs/B/03_giraffe.jpg,html/resources/sequences_IDs/B/08_slipper.jpg,3,8,1,1,3,2,2,6,0,82,,,,,,,,,,,,,,,,,,,,
,,,,,82,2020-07-04_19h46.22.119,retriever_ti,2020.1.3,Win32,60,Firefox,1920,1080,,,,,,,,,,,,,,,,,3,,,,,,,,,,,,,,,,,,,,,,,,,,,831.954,160,left,1.277,satellite_dish,2,10,-5,0,3,831.97,831.97,834.47,0,5,5,5,1,160,2,7,satellite_dish,giraffe     ,html/resources/sequences_IDs/A/10_satellite_dish.jpg,html/resources/sequences_IDs/B/03_giraffe.jpg,10,3,4,2,1,1,8,2,0,82,,,,,,,,,,,,,,,,,,,,
,,,,,82,2020-07-04_19h46.22.119,retriever_ti,2020.1.3,Win32,60,Firefox,1920,1080,,,,,,,,,,,,,,,,,3,,,,,,,,,,,,,,,,,,,,,,,,,,,835.087,161,right,0.957,seaturtle     ,8,2,1,1,1,835.103,835.103,837.604,0,6,6,6,1,161,7,8,giraffe     ,seaturtle     ,html/resources/sequences_IDs/B/03_giraffe.jpg,html/resources/sequences_IDs/A/02_seaturtle.jpg,3,2,1,1,2,1,2,1,0,82,,,,,,,,,,,,,,,,,,,,
,,,,,82,2020-07-04_19h46.22.119,retriever_ti,2020.1.3,Win32,60,Firefox,1920,1080,,,,,,,,,,,,,,,,,3,,,,,,,,,,,,,,,,,,,,,,,,,,,838.703,162,right,1.787,clownfish     ,4,4,-1,0,0,838.737,838.737,841.237,0,7,7,7,1,162,5,4,slipper     ,clownfish     ,html/resources/sequences_IDs/B/08_slipper.jpg,html/resources/sequences_IDs/A/04_clownfish.jpg,8,4,3,2,2,1,6,3,0,82,,,,,,,,,,,,,,,,,,,,
,,,,,82,2020-07-04_19h46.22.119,retriever_ti,2020.1.3,Win32,60,Firefox,1920,1080,,,,,,,,,,,,,,,,,3,,,,,,,,,,,,,,,,,,,,,,,,,,,842.337,163,right,1.359,satellite_dish,2,10,1,1,1,842.36,842.36,844.853,0,8,8,8,1,163,1,2,phone       ,satellite_dish,html/resources/sequences_IDs/B/09_phone.jpg,html/resources/sequences_IDs/A/10_satellite_dish.jpg,9,10,4,2,4,2,7,8,0,82,,,,,,,,,,,,,,,,,,,,
,,,,,82,2020-07-04_19h46.22.119,retriever_ti,2020.1.3,Win32,60,Firefox,1920,1080,,,,,,,,,,,,,,,,,3,,,,,,,,,,,,,,,,,,,,,,,,,,,845.954,164,right,0.974,dress         ,6,7,1,1,1,846.031,846.031,848.52,0,9,9,9,1,164,5,6,slipper     ,dress         ,html/resources/sequences_IDs/B/08_slipper.jpg,html/resources/sequences_IDs/A/07_dress.jpg,8,7,3,2,3,2,6,5,0,82,,,,,,,,,,,,,,,,,,,,
,,,,,82,2020-07-04_19h46.22.119,retriever_ti,2020.1.3,Win32,60,Firefox,1920,1080,,,,,,,,,,,,,,,,,3,,,,,,,,,,,,,,,,,,,,,,,,,,,849.62,165,left,1.113,satellite_dish,2,10,1,1,1,849.637,849.637,852.137,0,10,10,10,1,165,2,1,satellite_dish,phone       ,html/resources/sequences_IDs/A/10_satellite_dish.jpg,html/resources/sequences_IDs/B/09_phone.jpg,10,9,4,2,4,2,8,7,0,82,,,,,,,,,,,,,,,,,,,,
,,,,,82,2020-07-04_19h46.22.119,retriever_ti,2020.1.3,Win32,60,Firefox,1920,1080,,,,,,,,,,,,,,,,,3,,,,,,,,,,,,,,,,,,,,,,,,,,,853.237,166,right,0.778,dress         ,6,7,1,1,0,853.254,853.254,855.754,0,11,11,11,1,166,5,6,slipper     ,dress         ,html/resources/sequences_IDs/B/08_slipper.jpg,html/resources/sequences_IDs/A/07_dress.jpg,8,7,3,2,3,2,6,5,1,82,,,,,,,,,,,,,,,,,,,,
,,,,,82,2020-07-04_19h46.22.119,retriever_ti,2020.1.3,Win32,60,Firefox,1920,1080,,,,,,,,,,,,,,,,,3,,,,,,,,,,,,,,,,,,,,,,,,,,,856.854,167,right,1.905,satellite_dish,2,10,-5,0,3,856.887,856.887,859.386,0,12,12,12,1,167,7,2,giraffe     ,satellite_dish,html/resources/sequences_IDs/B/03_giraffe.jpg,html/resources/sequences_IDs/A/10_satellite_dish.jpg,3,10,1,1,4,2,2,8,0,82,,,,,,,,,,,,,,,,,,,,
,,,,,82,2020-07-04_19h46.22.119,retriever_ti,2020.1.3,Win32,60,Firefox,1920,1080,,,,,,,,,,,,,,,,,3,,,,,,,,,,,,,,,,,,,,,,,,,,,859.987,168,left,1.029,dress         ,6,7,2,1,3,860.021,860.021,862.521,0,13,13,13,1,168,6,4,dress         ,clownfish     ,html/resources/sequences_IDs/A/07_dress.jpg,html/resources/sequences_IDs/A/04_clownfish.jpg,7,4,3,2,2,1,5,3,0,82,,,,,,,,,,,,,,,,,,,,
,,,,,82,2020-07-04_19h46.22.119,retriever_ti,2020.1.3,Win32,60,Firefox,1920,1080,,,,,,,,,,,,,,,,,3,,,,,,,,,,,,,,,,,,,,,,,,,,,863.144,169,right,1.455,parrot      ,3,5,-1,0,0,863.171,863.171,865.671,0,14,14,14,1,169,4,3,clownfish     ,parrot      ,html/resources/sequences_IDs/A/04_clownfish.jpg,html/resources/sequences_IDs/B/05_parrot.jpg,4,5,2,1,2,1,3,4,0,82,,,,,,,,,,,,,,,,,,,,
,,,,,82,2020-07-04_19h46.22.119,retriever_ti,2020.1.3,Win32,60,Firefox,1920,1080,,,,,,,,,,,,,,,,,3,,,,,,,,,,,,,,,,,,,,,,,,,,,866.77,170,left,1.444,giraffe     ,7,3,4,1,3,866.787,866.787,869.287,0,15,15,15,1,170,7,3,giraffe     ,parrot      ,html/resources/sequences_IDs/B/03_giraffe.jpg,html/resources/sequences_IDs/B/05_parrot.jpg,3,5,1,1,2,1,2,4,0,82,,,,,,,,,,,,,,,,,,,,
,,,,,82,2020-07-04_19h46.22.119,retriever_ti,2020.1.3,Win32,60,Firefox,1920,1080,,,,,,,,,,,,,,,,,3,,,,,,,,,,,,,,,,,,,,,,,,,,,869.888,171,right,1.124,dress         ,6,7,-2,0,3,869.922,869.922,872.421,0,16,16,16,1,171,8,6,seaturtle     ,dress         ,html/resources/sequences_IDs/A/02_seaturtle.jpg,html/resources/sequences_IDs/A/07_dress.jpg,2,7,2,1,3,2,1,5,0,82,,,,,,,,,,,,,,,,,,,,
,,,,,82,2020-07-04_19h46.22.119,retriever_ti,2020.1.3,Win32,60,Firefox,1920,1080,,,,,,,,,,,,,,,,,3,,,,,,,,,,,,,,,,,,,,,,,,,,,873.021,172,right,0.81,satellite_dish,2,10,1,1,1,873.038,873.038,875.539,0,17,17,17,1,172,1,2,phone       ,satellite_dish,html/resources/sequences_IDs/B/09_phone.jpg,html/resources/sequences_IDs/A/10_satellite_dish.jpg,9,10,4,2,4,2,7,8,0,82,,,,,,,,,,,,,,,,,,,,
,,,,,82,2020-07-04_19h46.22.119,retriever_ti,2020.1.3,Win32,60,Firefox,1920,1080,,,,,,,,,,,,,,,,,3,,,,,,,,,,,,,,,,,,,,,,,,,,,876.637,173,right,1.319,satellite_dish,2,10,-1,0,0,876.672,876.672,879.171,0,18,18,18,1,173,3,2,parrot      ,satellite_dish,html/resources/sequences_IDs/B/05_parrot.jpg,html/resources/sequences_IDs/A/10_satellite_dish.jpg,5,10,2,1,4,2,4,8,0,82,,,,,,,,,,,,,,,,,,,,
,,,,,82,2020-07-04_19h46.22.119,retriever_ti,2020.1.3,Win32,60,Firefox,1920,1080,,,,,,,,,,,,,,,,,3,,,,,,,,,,,,,,,,,,,,,,,,,,,880.32,174,left,1.955,seaturtle     ,8,2,4,1,3,880.356,880.356,882.854,0,19,19,19,1,174,8,4,seaturtle     ,clownfish     ,html/resources/sequences_IDs/A/02_seaturtle.jpg,html/resources/sequences_IDs/A/04_clownfish.jpg,2,4,2,1,2,1,1,3,0,82,,,,,,,,,,,,,,,,,,,,
,,,,,82,2020-07-04_19h46.22.119,retriever_ti,2020.1.3,Win32,60,Firefox,1920,1080,,,,,,,,,,,,,,,,,3,,,,,,,,,,,,,,,,,,,,,,,,,,,883.454,175,right,1.11,parrot      ,3,5,-2,0,3,883.472,883.472,885.971,0,20,20,20,1,175,5,3,slipper     ,parrot      ,html/resources/sequences_IDs/B/08_slipper.jpg,html/resources/sequences_IDs/B/05_parrot.jpg,8,5,3,2,2,1,6,4,0,82,,,,,,,,,,,,,,,,,,,,
,,,,,82,2020-07-04_19h46.22.119,retriever_ti,2020.1.3,Win32,60,Firefox,1920,1080,,,,,,,,,,,,,,,,,3,,,,,,,,,,,,,,,,,,,,,,,,,,,886.587,176,left,1.399,slipper     ,5,8,1,1,0,886.621,886.621,889.121,0,21,21,21,1,176,5,4,slipper     ,clownfish     ,html/resources/sequences_IDs/B/08_slipper.jpg,html/resources/sequences_IDs/A/04_clownfish.jpg,8,4,3,2,2,1,6,3,1,82,,,,,,,,,,,,,,,,,,,,
,,,,,82,2020-07-04_19h46.22.119,retriever_ti,2020.1.3,Win32,60,Firefox,1920,1080,,,,,,,,,,,,,,,,,3,,,,,,,,,,,,,,,,,,,,,,,,,,,890.221,177,left,1.302,phone       ,1,9,-4,0,3,890.256,890.256,892.754,0,22,22,22,1,177,1,5,phone       ,slipper     ,html/resources/sequences_IDs/B/09_phone.jpg,html/resources/sequences_IDs/B/08_slipper.jpg,9,8,4,2,3,2,7,6,0,82,,,,,,,,,,,,,,,,,,,,
,,,,,82,2020-07-04_19h46.22.119,retriever_ti,2020.1.3,Win32,60,Firefox,1920,1080,,,,,,,,,,,,,,,,,3,,,,,,,,,,,,,,,,,,,,,,,,,,,893.354,178,left,1.326,dress         ,6,7,1,1,1,893.372,893.372,895.871,0,23,23,23,1,178,6,5,dress         ,slipper     ,html/resources/sequences_IDs/A/07_dress.jpg,html/resources/sequences_IDs/B/08_slipper.jpg,7,8,3,2,3,2,5,6,0,82,,,,,,,,,,,,,,,,,,,,
,,,,,82,2020-07-04_19h46.22.119,retriever_ti,2020.1.3,Win32,60,Firefox,1920,1080,,,,,,,,,,,,,,,,,3,,,,,,,,,,,,,,,,,,,,,,,,,,,896.972,179,right,0.908,seaturtle     ,8,2,4,1,3,897.004,897.004,899.504,0,24,24,24,1,179,4,8,clownfish     ,seaturtle     ,html/resources/sequences_IDs/A/04_clownfish.jpg,html/resources/sequences_IDs/A/02_seaturtle.jpg,4,2,2,1,2,1,3,1,0,82,,,,,,,,,,,,,,,,,,,,
,,,,,82,2020-07-04_19h46.22.119,retriever_ti,2020.1.3,Win32,60,Firefox,1920,1080,,,,,,,,,,,,,,,,,3,,,,,,,,,,,,,,,,,,,,,,,,,,,900.104,180,right,1.409,giraffe     ,7,3,2,1,3,900.122,900.122,902.621,0,25,25,25,1,180,5,7,slipper     ,giraffe     ,html/resources/sequences_IDs/B/08_slipper.jpg,html/resources/sequences_IDs/B/03_giraffe.jpg,8,3,3,2,1,1,6,2,0,82,,,,,,,,,,,,,,,,,,,,
,,,,,82,2020-07-04_19h46.22.119,retriever_ti,2020.1.3,Win32,60,Firefox,1920,1080,,,,,,,,,,,,,,,,,3,,,,,,,,,,,,,,,,,,,,,,,,,,,903.238,181,left,1.362,seaturtle     ,8,2,1,1,1,903.254,903.254,905.754,0,26,26,26,1,181,8,7,seaturtle     ,giraffe     ,html/resources/sequences_IDs/A/02_seaturtle.jpg,html/resources/sequences_IDs/B/03_giraffe.jpg,2,3,2,1,1,1,1,2,0,82,,,,,,,,,,,,,,,,,,,,
,,,,,82,2020-07-04_19h46.22.119,retriever_ti,2020.1.3,Win32,60,Firefox,1920,1080,,,,,,,,,,,,,,,,,3,,,,,,,,,,,,,,,,,,,,,,,,,,,906.854,182,left,1.317,satellite_dish,2,10,-1,0,1,906.874,906.874,909.371,0,27,27,27,1,182,2,3,satellite_dish,parrot      ,html/resources/sequences_IDs/A/10_satellite_dish.jpg,html/resources/sequences_IDs/B/05_parrot.jpg,10,5,4,2,2,1,8,4,1,82,,,,,,,,,,,,,,,,,,,,
,,,,,82,2020-07-04_19h46.22.119,retriever_ti,2020.1.3,Win32,60,Firefox,1920,1080,,,,,,,,,,,,,,,,,3,,,,,,,,,,,,,,,,,,,,,,,,,,,910.488,183,right,2.409,satellite_dish,2,10,-6,0,3,910.518,910.518,913.021,0,28,28,28,1,183,8,2,seaturtle     ,satellite_dish,html/resources/sequences_IDs/A/02_seaturtle.jpg,html/resources/sequences_IDs/A/10_satellite_dish.jpg,2,10,2,1,4,2,1,8,0,82,,,,,,,,,,,,,,,,,,,,
,,,,,82,2020-07-04_19h46.22.119,retriever_ti,2020.1.3,Win32,60,Firefox,1920,1080,,,,,,,,,,,,,,,,,3,,,,,,,,,,,,,,,,,,,,,,,,,,,913.638,184,left,1.479,slipper     ,5,8,1,1,1,913.654,913.654,916.154,0,29,29,29,1,184,5,4,slipper     ,clownfish     ,html/resources/sequences_IDs/B/08_slipper.jpg,html/resources/sequences_IDs/A/04_clownfish.jpg,8,4,3,2,2,1,6,3,0,82,,,,,,,,,,,,,,,,,,,,
,,,,,82,2020-07-04_19h46.22.119,retriever_ti,2020.1.3,Win32,60,Firefox,1920,1080,,,,,,,,,,,,,,,,,3,,,,,,,,,,,,,,,,,,,,,,,,,,,917.254,185,left,1.51,phone       ,1,9,-5,0,3,917.287,917.287,919.787,0,30,30,30,1,185,1,6,phone       ,dress         ,html/resources/sequences_IDs/B/09_phone.jpg,html/resources/sequences_IDs/A/07_dress.jpg,9,7,4,2,3,2,7,5,0,82,,,,,,,,,,,,,,,,,,,,
,,,,,82,2020-07-04_19h46.22.119,retriever_ti,2020.1.3,Win32,60,Firefox,1920,1080,,,,,,,,,,,,,,,,,3,,,,,,,,,,,,,,,,,,,,,,,,,,,920.388,186,right,0.954,giraffe     ,7,3,3,1,3,920.424,920.424,922.937,0,31,31,31,1,186,4,7,clownfish     ,giraffe     ,html/resources/sequences_IDs/A/04_clownfish.jpg,html/resources/sequences_IDs/B/03_giraffe.jpg,4,3,2,1,1,1,3,2,0,82,,,,,,,,,,,,,,,,,,,,
,,,,,82,2020-07-04_19h46.22.119,retriever_ti,2020.1.3,Win32,60,Firefox,1920,1080,,,,,,,,,,,,,,,,,3,,,,,,,,,,,,,,,,,,,,,,,,,,,923.538,187,right,0.633,seaturtle     ,8,2,1,1,1,923.573,923.573,926.071,0,32,32,32,1,187,7,8,giraffe     ,seaturtle     ,html/resources/sequences_IDs/B/03_giraffe.jpg,html/resources/sequences_IDs/A/02_seaturtle.jpg,3,2,1,1,2,1,2,1,0,82,,,,,,,,,,,,,,,,,,,,
,,,,,82,2020-07-04_19h46.22.119,retriever_ti,2020.1.3,Win32,60,Firefox,1920,1080,,,,,,,,,,,,,,,,,3,,,,,,,,,,,,,,,,,,,,,,,,,,,927.204,188,left,1.584,parrot      ,3,5,-1,0,1,927.238,927.238,929.737,0,33,33,33,1,188,3,4,parrot      ,clownfish     ,html/resources/sequences_IDs/B/05_parrot.jpg,html/resources/sequences_IDs/A/04_clownfish.jpg,5,4,2,1,2,1,4,3,1,82,,,,,,,,,,,,,,,,,,,,
,,,,,82,2020-07-04_19h46.22.119,retriever_ti,2020.1.3,Win32,60,Firefox,1920,1080,,,,,,,,,,,,,,,,,3,,,,,,,,,,,,,,,,,,,,,,,,,,,930.904,189,right,1.004,giraffe     ,7,3,1,1,1,930.939,930.939,933.438,0,34,34,34,1,189,6,7,dress         ,giraffe     ,html/resources/sequences_IDs/A/07_dress.jpg,html/resources/sequences_IDs/B/03_giraffe.jpg,7,3,3,2,1,1,5,2,0,82,,,,,,,,,,,,,,,,,,,,
,,,,,82,2020-07-04_19h46.22.119,retriever_ti,2020.1.3,Win32,60,Firefox,1920,1080,,,,,,,,,,,,,,,,,3,,,,,,,,,,,,,,,,,,,,,,,,,,,934.538,190,right,1.146,phone       ,1,9,-3,0,3,934.573,934.573,937.071,0,35,35,35,1,190,4,1,clownfish     ,phone       ,html/resources/sequences_IDs/A/04_clownfish.jpg,html/resources/sequences_IDs/B/09_phone.jpg,4,9,2,1,4,2,3,7,0,82,,,,,,,,,,,,,,,,,,,,
,,,,,82,2020-07-04_19h46.22.119,retriever_ti,2020.1.3,Win32,60,Firefox,1920,1080,,,,,,,,,,,,,,,,,3,,,,,,,,,,,,,,,,,,,,,,,,,,,937.671,191,right,0.984,giraffe     ,7,3,1,1,1,937.694,937.694,940.188,0,36,36,36,1,191,6,7,dress         ,giraffe     ,html/resources/sequences_IDs/A/07_dress.jpg,html/resources/sequences_IDs/B/03_giraffe.jpg,7,3,3,2,1,1,5,2,0,82,,,,,,,,,,,,,,,,,,,,
,,,,,82,2020-07-04_19h46.22.119,retriever_ti,2020.1.3,Win32,60,Firefox,1920,1080,,,,,,,,,,,,,,,,,3,,,,,,,,,,,,,,,,,,,,,,,,,,,941.288,192,right,1.267,phone       ,1,9,-4,0,3,941.305,941.305,943.82,0,37,37,37,1,192,5,1,slipper     ,phone       ,html/resources/sequences_IDs/B/08_slipper.jpg,html/resources/sequences_IDs/B/09_phone.jpg,8,9,3,2,4,2,6,7,0,82,,,,,,,,,,,,,,,,,,,,
,,,,,82,2020-07-04_19h46.22.119,retriever_ti,2020.1.3,Win32,60,Firefox,1920,1080,,,,,,,,,,,,,,,,,3,,,,,,,,,,,,,,,,,,,,,,,,,,,944.421,193,right,2.048,satellite_dish,2,10,-4,0,3,944.455,944.455,946.955,0,38,38,38,1,193,6,2,dress         ,satellite_dish,html/resources/sequences_IDs/A/07_dress.jpg,html/resources/sequences_IDs/A/10_satellite_dish.jpg,7,10,3,2,4,2,5,8,0,82,,,,,,,,,,,,,,,,,,,,
,,,,,82,2020-07-04_19h46.22.119,retriever_ti,2020.1.3,Win32,60,Firefox,1920,1080,,,,,,,,,,,,,,,,,3,,,,,,,,,,,,,,,,,,,,,,,,,,,947.605,194,left,0.728,satellite_dish,2,10,-2,0,3,947.621,947.621,950.122,0,39,39,39,1,194,2,4,satellite_dish,clownfish     ,html/resources/sequences_IDs/A/10_satellite_dish.jpg,html/resources/sequences_IDs/A/04_clownfish.jpg,10,4,4,2,2,1,8,3,0,82,,,,,,,,,,,,,,,,,,,,
,,,,,82,2020-07-04_19h46.22.119,retriever_ti,2020.1.3,Win32,60,Firefox,1920,1080,,,,,,,,,,,,,,,,,3,,,,,,,,,,,,,,,,,,,,,,,,,,,950.738,195,right,0.703,seaturtle     ,8,2,2,1,3,950.756,950.756,953.255,0,40,40,40,1,195,6,8,dress         ,seaturtle     ,html/resources/sequences_IDs/A/07_dress.jpg,html/resources/sequences_IDs/A/02_seaturtle.jpg,7,2,3,2,2,1,5,1,0,82,,,,,,,,,,,,,,,,,,,,
,,,,,82,2020-07-04_19h46.22.119,retriever_ti,2020.1.3,Win32,60,Firefox,1920,1080,,,,,,,,,,,,,,,,,3,,,,,,,,,,,,,,,,,,,,,,,,,,,953.873,196,right,1.981,clownfish     ,4,4,3,1,3,953.905,953.905,956.405,0,41,41,41,1,196,1,4,phone       ,clownfish     ,html/resources/sequences_IDs/B/09_phone.jpg,html/resources/sequences_IDs/A/04_clownfish.jpg,9,4,4,2,2,1,7,3,0,82,,,,,,,,,,,,,,,,,,,,
,,,,,82,2020-07-04_19h46.22.119,retriever_ti,2020.1.3,Win32,60,Firefox,1920,1080,,,,,,,,,,,,,,,,,3,,,,,,,,,,,,,,,,,,,,,,,,,,,957.022,197,left,0.758,dress         ,6,7,5,1,3,957.04,957.04,959.538,0,42,42,42,1,197,6,1,dress         ,phone       ,html/resources/sequences_IDs/A/07_dress.jpg,html/resources/sequences_IDs/B/09_phone.jpg,7,9,3,2,4,2,5,7,0,82,,,,,,,,,,,,,,,,,,,,
,,,,,82,2020-07-04_19h46.22.119,retriever_ti,2020.1.3,Win32,60,Firefox,1920,1080,,,,,,,,,,,,,,,,,3,,,,,,,,,,,,,,,,,,,,,,,,,,,960.138,198,left,1.31,satellite_dish,2,10,-1,0,0,960.155,960.155,962.655,0,43,43,43,1,198,2,3,satellite_dish,parrot      ,html/resources/sequences_IDs/A/10_satellite_dish.jpg,html/resources/sequences_IDs/B/05_parrot.jpg,10,5,4,2,2,1,8,4,0,82,,,,,,,,,,,,,,,,,,,,
,,,,,82,2020-07-04_19h46.22.119,retriever_ti,2020.1.3,Win32,60,Firefox,1920,1080,,,,,,,,,,,,,,,,,3,,,,,,,,,,,,,,,,,,,,,,,,,,,963.755,199,left,1.487,parrot      ,3,5,-1,0,0,963.789,963.789,966.288,0,44,44,44,1,199,3,4,parrot      ,clownfish     ,html/resources/sequences_IDs/B/05_parrot.jpg,html/resources/sequences_IDs/A/04_clownfish.jpg,5,4,2,1,2,1,4,3,0,82,,,,,,,,,,,,,,,,,,,,
,,,,,82,2020-07-04_19h46.22.119,retriever_ti,2020.1.3,Win32,60,Firefox,1920,1080,,,,,,,,,,,,,,,,,3,,,,,,,,,,,,,,,,,,,,,,,,,,,967.388,200,left,1.581,giraffe     ,7,3,1,1,1,967.421,967.421,969.921,0,45,45,45,1,200,7,6,giraffe     ,dress         ,html/resources/sequences_IDs/B/03_giraffe.jpg,html/resources/sequences_IDs/A/07_dress.jpg,3,7,1,1,3,2,2,5,0,82,,,,,,,,,,,,,,,,,,,,
,,,,,82,2020-07-04_19h46.22.119,retriever_ti,2020.1.3,Win32,60,Firefox,1920,1080,,,,,,,,,,,,,,,,,3,,,,,,,,,,,,,,,,,,,,,,,,,,,971.022,201,right,0.736,seaturtle     ,8,2,1,1,0,971.055,971.055,973.555,0,46,46,46,1,201,7,8,giraffe     ,seaturtle     ,html/resources/sequences_IDs/B/03_giraffe.jpg,html/resources/sequences_IDs/A/02_seaturtle.jpg,3,2,1,1,2,1,2,1,1,82,,,,,,,,,,,,,,,,,,,,
,,,,,82,2020-07-04_19h46.22.119,retriever_ti,2020.1.3,Win32,60,Firefox,1920,1080,,,,,,,,,,,,,,,,,3,,,,,,,,,,,,,,,,,,,,,,,,,,,974.655,202,left,1.287,parrot      ,3,5,1,1,1,974.672,974.672,977.171,0,47,47,47,1,202,3,2,parrot      ,satellite_dish,html/resources/sequences_IDs/B/05_parrot.jpg,html/resources/sequences_IDs/A/10_satellite_dish.jpg,5,10,2,1,4,2,4,8,0,82,,,,,,,,,,,,,,,,,,,,
,,,,,82,2020-07-04_19h46.22.119,retriever_ti,2020.1.3,Win32,60,Firefox,1920,1080,,,,,,,,,,,,,,,,,3,,,,,,,,,,,,,,,,,,,,,,,,,,,978.272,203,right,0.751,giraffe     ,7,3,1,1,0,978.305,978.305,980.805,0,48,48,48,1,203,6,7,dress         ,giraffe     ,html/resources/sequences_IDs/A/07_dress.jpg,html/resources/sequences_IDs/B/03_giraffe.jpg,7,3,3,2,1,1,5,2,1,82,,,,,,,,,,,,,,,,,,,,
,,,,,82,2020-07-04_19h46.22.119,retriever_ti,2020.1.3,Win32,60,Firefox,1920,1080,,,,,,,,,,,,,,,,,3,,,,,,,,,,,,,,,,,,,,,,,,,,,981.905,204,NaN,NaN,No_response,NaN,NaN,NaN,2,2,981.939,981.939,984.439,0,49,49,49,1,204,7,4,giraffe     ,clownfish     ,html/resources/sequences_IDs/B/03_giraffe.jpg,html/resources/sequences_IDs/A/04_clownfish.jpg,3,4,1,1,2,1,2,3,0,82,,,,,,,,,,,,,,,,,,,,
,,,,,82,2020-07-04_19h46.22.119,retriever_ti,2020.1.3,Win32,60,Firefox,1920,1080,,,,,,,,,,,,,,,,,3,,,,,,,,,,,,,,,,,,,,,,,,,,,985.539,205,left,0.872,giraffe     ,7,3,6,1,3,985.573,985.573,988.073,0,50,50,50,1,205,7,1,giraffe     ,phone       ,html/resources/sequences_IDs/B/03_giraffe.jpg,html/resources/sequences_IDs/B/09_phone.jpg,3,9,1,1,4,2,2,7,0,82,,,,,,,,,,,,,,,,,,,,
,,,,,82,2020-07-04_19h46.22.119,retriever_ti,2020.1.3,Win32,60,Firefox,1920,1080,,,,,,,,,,,,,,,,,3,,,,,,,,,,,,,,,,,,,,,,,,,,,988.689,206,left,0.882,seaturtle     ,8,2,7,1,3,988.707,988.707,991.205,0,51,51,51,1,206,8,1,seaturtle     ,phone       ,html/resources/sequences_IDs/A/02_seaturtle.jpg,html/resources/sequences_IDs/B/09_phone.jpg,2,9,2,1,4,2,1,7,0,82,,,,,,,,,,,,,,,,,,,,
,,,,,82,2020-07-04_19h46.22.119,retriever_ti,2020.1.3,Win32,60,Firefox,1920,1080,,,,,,,,,,,,,,,,,3,,,,,,,,,,,,,,,,,,,,,,,,,,,991.822,207,left,1.292,parrot      ,3,5,-1,0,0,991.839,991.839,994.339,0,52,52,52,1,207,3,4,parrot      ,clownfish     ,html/resources/sequences_IDs/B/05_parrot.jpg,html/resources/sequences_IDs/A/04_clownfish.jpg,5,4,2,1,2,1,4,3,0,82,,,,,,,,,,,,,,,,,,,,
,,,,,82,2020-07-04_19h46.22.119,retriever_ti,2020.1.3,Win32,60,Firefox,1920,1080,,,,,,,,,,,,,,,,,3,,,,,,,,,,,,,,,,,,,,,,,,,,,995.439,208,left,0.676,parrot      ,3,5,-2,0,3,995.455,995.455,997.955,0,53,53,53,1,208,3,5,parrot      ,slipper     ,html/resources/sequences_IDs/B/05_parrot.jpg,html/resources/sequences_IDs/B/08_slipper.jpg,5,8,2,1,3,2,4,6,0,82,,,,,,,,,,,,,,,,,,,,
,,,,,82,2020-07-04_19h46.22.119,retriever_ti,2020.1.3,Win32,60,Firefox,1920,1080,,,,,,,,,,,,,,,,,3,,,,,,,,,,,,,,,,,,,,,,,,,,,998.572,209,left,0.985,satellite_dish,2,10,-4,0,3,998.589,998.589,1001.105,0,54,54,54,1,209,2,6,satellite_dish,dress         ,html/resources/sequences_IDs/A/10_satellite_dish.jpg,html/resources/sequences_IDs/A/07_dress.jpg,10,7,4,2,3,2,8,5,0,82,,,,,,,,,,,,,,,,,,,,
,,,,,82,2020-07-04_19h46.22.119,retriever_ti,2020.1.3,Win32,60,Firefox,1920,1080,,,,,,,,,,,,,,,,,3,,,,,,,,,,,,,,,,,,,,,,,,,,,1001.722,210,right,0.827,seaturtle     ,8,2,5,1,3,1001.74,1001.74,1004.239,0,55,55,55,1,210,3,8,parrot      ,seaturtle     ,html/resources/sequences_IDs/B/05_parrot.jpg,html/resources/sequences_IDs/A/02_seaturtle.jpg,5,2,2,1,2,1,4,1,0,82,,,,,,,,,,,,,,,,,,,,
,,,,,82,2020-07-04_19h46.22.119,retriever_ti,2020.1.3,Win32,60,Firefox,1920,1080,,,,,,,,,,,,,,,,,3,,,,,,,,,,,,,,,,,,,,,,,,,,,1004.889,211,right,1.499,parrot      ,3,5,-1,0,0,1005.023,1005.023,1007.522,0,56,56,56,1,211,4,3,clownfish     ,parrot      ,html/resources/sequences_IDs/A/04_clownfish.jpg,html/resources/sequences_IDs/B/05_parrot.jpg,4,5,2,1,2,1,3,4,0,82,,,,,,,,,,,,,,,,,,,,
,,,,,82,2020-07-04_19h46.22.119,retriever_ti,2020.1.3,Win32,60,Firefox,1920,1080,,,,,,,,,,,,,,,,,3,,,,,,,,,,,,,,,,,,,,,,,,,,,1008.622,212,right,1.393,phone       ,1,9,-2,0,3,1008.655,1008.655,1011.156,0,57,57,57,1,212,3,1,parrot      ,phone       ,html/resources/sequences_IDs/B/05_parrot.jpg,html/resources/sequences_IDs/B/09_phone.jpg,5,9,2,1,4,2,4,7,0,82,,,,,,,,,,,,,,,,,,,,
,,,,,82,2020-07-04_19h46.22.119,retriever_ti,2020.1.3,Win32,60,Firefox,1920,1080,,,,,,,,,,,,,,,,,3,,,,,,,,,,,,,,,,,,,,,,,,,,,1011.772,213,left,0.739,satellite_dish,2,10,-3,0,3,1011.807,1011.807,1014.306,0,58,58,58,1,213,2,5,satellite_dish,slipper     ,html/resources/sequences_IDs/A/10_satellite_dish.jpg,html/resources/sequences_IDs/B/08_slipper.jpg,10,8,4,2,3,2,8,6,0,82,,,,,,,,,,,,,,,,,,,,
,,,,,82,2020-07-04_19h46.22.119,retriever_ti,2020.1.3,Win32,60,Firefox,1920,1080,,,,,,,,,,,,,,,,,3,,,,,,,,,,,,,,,,,,,,,,,,,,,1014.922,214,right,0.759,seaturtle     ,8,2,6,1,3,1014.957,1014.957,1017.455,0,59,59,59,1,214,2,8,satellite_dish,seaturtle     ,html/resources/sequences_IDs/A/10_satellite_dish.jpg,html/resources/sequences_IDs/A/02_seaturtle.jpg,10,2,4,2,2,1,8,1,0,82,,,,,,,,,,,,,,,,,,,,
,,,,,82,2020-07-04_19h46.22.119,retriever_ti,2020.1.3,Win32,60,Firefox,1920,1080,,,,,,,,,,,,,,,,,3,,,,,,,,,,,,,,,,,,,,,,,,,,,1018.359,215,left,0.693,clownfish     ,4,4,-1,0,0,1018.389,1018.389,1020.888,0,60,60,60,1,215,4,5,clownfish     ,slipper     ,html/resources/sequences_IDs/A/04_clownfish.jpg,html/resources/sequences_IDs/B/08_slipper.jpg,4,8,2,1,3,2,3,6,0,82,,,,,,,,,,,,,,,,,,,,
,,,,,82,2020-07-04_19h46.22.119,retriever_ti,2020.1.3,Win32,60,Firefox,1920,1080,,,,,,,,,,,,,,,,,3,,,,,,,,,,,,,,,,,,,,,,,,,,,1021.989,216,right,0.758,satellite_dish,2,10,-3,0,3,1022.022,1022.022,1024.523,0,61,61,61,1,216,5,2,slipper     ,satellite_dish,html/resources/sequences_IDs/B/08_slipper.jpg,html/resources/sequences_IDs/A/10_satellite_dish.jpg,8,10,3,2,4,2,6,8,0,82,,,,,,,,,,,,,,,,,,,,
,,,,,82,2020-07-04_19h46.22.119,retriever_ti,2020.1.3,Win32,60,Firefox,1920,1080,,,,,,,,,,,,,,,,,3,,,,,,,,,,,,,,,,,,,,,,,,,,,1025.139,217,left,0.745,seaturtle     ,8,2,5,1,3,1025.172,1025.172,1027.694,0,62,62,62,1,217,8,3,seaturtle     ,parrot      ,html/resources/sequences_IDs/A/02_seaturtle.jpg,html/resources/sequences_IDs/B/05_parrot.jpg,2,5,2,1,2,1,1,4,0,82,,,,,,,,,,,,,,,,,,,,
,,,,,82,2020-07-04_19h46.22.119,retriever_ti,2020.1.3,Win32,60,Firefox,1920,1080,,,,,,,,,,,,,,,,,3,,,,,,,,,,,,,,,,,,,,,,,,,,,1028.306,218,right,0.976,giraffe     ,7,3,6,1,3,1028.323,1028.323,1030.823,0,63,63,63,1,218,1,7,phone       ,giraffe     ,html/resources/sequences_IDs/B/09_phone.jpg,html/resources/sequences_IDs/B/03_giraffe.jpg,9,3,4,2,1,1,7,2,0,82,,,,,,,,,,,,,,,,,,,,
,,,,,82,2020-07-04_19h46.22.119,retriever_ti,2020.1.3,Win32,60,Firefox,1920,1080,,,,,,,,,,,,,,,,,3,,,,,,,,,,,,,,,,,,,,,,,,,,,1031.439,219,right,0.821,seaturtle     ,8,2,7,1,3,1031.472,1031.472,1033.973,0,64,64,64,1,219,1,8,phone       ,seaturtle     ,html/resources/sequences_IDs/B/09_phone.jpg,html/resources/sequences_IDs/A/02_seaturtle.jpg,9,2,4,2,2,1,7,1,0,82,,,,,,,,,,,,,,,,,,,,
,,,,,82,2020-07-04_19h46.22.119,retriever_ti,2020.1.3,Win32,60,Firefox,1920,1080,,,,,,,,,,,,,,,,,3,,,,,,,,,,,,,,,,,,,,,,,,,,,1034.589,220,right,1.008,parrot      ,3,5,2,1,3,1034.606,1034.606,1037.105,0,65,65,65,1,220,1,3,phone       ,parrot      ,html/resources/sequences_IDs/B/09_phone.jpg,html/resources/sequences_IDs/B/05_parrot.jpg,9,5,4,2,2,1,7,4,0,82,,,,,,,,,,,,,,,,,,,,
,,,,,82,2020-07-04_19h46.22.119,retriever_ti,2020.1.3,Win32,60,Firefox,1920,1080,,,,,,,,,,,,,,,,,3,,,,,,,,,,,,,,,,,,,,,,,,,,,1037.706,221,left,0.752,satellite_dish,2,10,1,1,0,1037.741,1037.741,1040.239,0,66,66,66,1,221,2,1,satellite_dish,phone       ,html/resources/sequences_IDs/A/10_satellite_dish.jpg,html/resources/sequences_IDs/B/09_phone.jpg,10,9,4,2,4,2,8,7,1,82,,,,,,,,,,,,,,,,,,,,
,,,,,82,2020-07-04_19h46.22.119,retriever_ti,2020.1.3,Win32,60,Firefox,1920,1080,,,,,,,,,,,,,,,,,3,,,,,,,,,,,,,,,,,,,,,,,,,,,1041.34,222,left,1.337,dress         ,6,7,3,1,3,1041.373,1041.373,1043.872,0,67,67,67,1,222,6,3,dress         ,parrot      ,html/resources/sequences_IDs/A/07_dress.jpg,html/resources/sequences_IDs/B/05_parrot.jpg,7,5,3,2,2,1,5,4,0,82,,,,,,,,,,,,,,,,,,,,
,,,,,82,2020-07-04_19h46.22.119,retriever_ti,2020.1.3,Win32,60,Firefox,1920,1080,,,,,,,,,,,,,,,,,3,,,,,,,,,,,,,,,,,,,,,,,,,,,1044.472,223,left,1.087,satellite_dish,2,10,-1,0,0,1044.491,1044.491,1046.989,0,68,68,68,1,223,2,3,satellite_dish,parrot      ,html/resources/sequences_IDs/A/10_satellite_dish.jpg,html/resources/sequences_IDs/B/05_parrot.jpg,10,5,4,2,2,1,8,4,0,82,,,,,,,,,,,,,,,,,,,,
,,,,,82,2020-07-04_19h46.22.119,retriever_ti,2020.1.3,Win32,60,Firefox,1920,1080,,,,,,,,,,,,,,,,,3,,,,,,,,,,,,,,,,,,,,,,,,,,,1048.08,224,left,0.915,dress         ,6,7,1,1,1,1048.157,1048.157,1050.656,0,69,69,69,1,224,6,5,dress         ,slipper     ,html/resources/sequences_IDs/A/07_dress.jpg,html/resources/sequences_IDs/B/08_slipper.jpg,7,8,3,2,3,2,5,6,0,82,,,,,,,,,,,,,,,,,,,,
,,,,,82,2020-07-04_19h46.22.119,retriever_ti,2020.1.3,Win32,60,Firefox,1920,1080,,,,,,,,,,,,,,,,,3,,,,,,,,,,,,,,,,,,,,,,,,,,,1051.756,225,left,1.235,parrot      ,3,5,-4,0,3,1051.789,1051.789,1054.289,0,70,70,70,1,225,3,7,parrot      ,giraffe     ,html/resources/sequences_IDs/B/05_parrot.jpg,html/resources/sequences_IDs/B/03_giraffe.jpg,5,3,2,1,1,1,4,2,0,82,,,,,,,,,,,,,,,,,,,,
,,,,,82,2020-07-04_19h46.22.119,retriever_ti,2020.1.3,Win32,60,Firefox,1920,1080,,,,,,,,,,,,,,,,,3,,,,,,,,,,,,,,,,,,,,,,,,,,,1054.908,226,left,0.763,giraffe     ,7,3,1,1,1,1054.923,1054.923,1057.423,0,71,71,71,1,226,7,6,giraffe     ,dress         ,html/resources/sequences_IDs/B/03_giraffe.jpg,html/resources/sequences_IDs/A/07_dress.jpg,3,7,1,1,3,2,2,5,0,82,,,,,,,,,,,,,,,,,,,,
,,,,,82,2020-07-04_19h46.22.119,retriever_ti,2020.1.3,Win32,60,Firefox,1920,1080,,,,,,,,,,,,,,,,,3,,,,,,,,,,,,,,,,,,,,,,,,,,,1058.523,227,left,1.042,clownfish     ,4,4,-1,0,0,1058.539,1058.539,1061.039,0,72,72,72,1,227,4,5,clownfish     ,slipper     ,html/resources/sequences_IDs/A/04_clownfish.jpg,html/resources/sequences_IDs/B/08_slipper.jpg,4,8,2,1,3,2,3,6,0,82,,,,,,,,,,,,,,,,,,,,
,,,,,82,2020-07-04_19h46.22.119,retriever_ti,2020.1.3,Win32,60,Firefox,1920,1080,,,,,,,,,,,,,,,,,3,,,,,,,,,,,,,,,,,,,,,,,,,,,1062.14,228,left,1.218,seaturtle     ,8,2,3,1,3,1062.158,1062.158,1064.649,0,73,73,73,1,228,8,5,seaturtle     ,slipper     ,html/resources/sequences_IDs/A/02_seaturtle.jpg,html/resources/sequences_IDs/B/08_slipper.jpg,2,8,2,1,3,2,1,6,0,82,,,,,,,,,,,,,,,,,,,,
