instructionsLoop.thisRepN,instructionsLoop.thisTrialN,instructionsLoop.thisN,instructionsLoop.thisIndex,instructionsLoop.ran,participant,date,expName,psychopyVersion,OS,frameRate,browser,xResolution,yResolution,fix_onset,tprac,practiceKey.keys,practiceKey.rt,pracitem_chosen_name,acc_practice,P1_onsetPrac,P2_onsetPrac,onsetFeedbPrac,practiceTrials.thisRepN,practiceTrials.thisTrialN,practiceTrials.thisN,practiceTrials.thisIndex,practiceTrials.ran,P1,P2,Block,LocItem1,LocItem2,NameItem1,NameItem2,key_respAC_prac.keys,key_respAC_prac.corr,key_respAC_prac.rt,AC_acc,Attentions.thisRepN,Attentions.thisTrialN,Attentions.thisN,Attentions.thisIndex,Attentions.ran,Stim,Loc1,Loc2,Loc3,Loc4,CorrAns,keyDisturbed.keys,keyDisturbed.rt,repPractice.thisRepN,repPractice.thisTrialN,repPractice.thisN,repPractice.thisIndex,repPractice.ran,fixcross_onsetMain,trialNumber,key_resp.keys,key_resp.rt,item_chosen_name,item_chosen_value,item_chosen_ID,diff_chosen_minus_reject,acc_real,acc_feedback,P1_onset,P2_onset,feedb_onset,trials.thisRepN,trials.thisTrialN,trials.thisN,trials.thisIndex,trials.ran,Trial,ValueP1,ValueP2,P1name,P2name,P1Loc,P2Loc,P1id,P2id,Micro_categoryP1,Macro_categoryP1,Micro_categoryP2,Macro_categoryP2,ID_sequenceP1,ID_sequenceP2,InverseFb,pNumber,repBlocks.thisRepN,repBlocks.thisTrialN,repBlocks.thisN,repBlocks.thisIndex,repBlocks.ran,key_respAC.keys,key_respAC.corr,key_respAC.rt,trials_AC.thisRepN,trials_AC.thisTrialN,trials_AC.thisN,trials_AC.thisIndex,trials_AC.ran,Bonus,BonusLoop.thisRepN,BonusLoop.thisTrialN,BonusLoop.thisN,BonusLoop.thisIndex,BonusLoop.ran,comments
0,0,0,0,1,84,2020-07-04_10h52.16.971,retriever_ti,2020.1.3,MacIntel,60,Safari,1440,900,,,,,,,,,,,,,,,,,,,,,,,,,,,,,,,,,,,,,,,,,,,,,,,,,,,,,,,,,,,,,,,,,,,,,,,,,,,,,,,,,,,,,,,,,,,,,,,,,,
1,0,1,0,1,84,2020-07-04_10h52.16.971,retriever_ti,2020.1.3,MacIntel,60,Safari,1440,900,,,,,,,,,,,,,,,,,,,,,,,,,,,,,,,,,,,,,,,,,,,,,,,,,,,,,,,,,,,,,,,,,,,,,,,,,,,,,,,,,,,,,,,,,,,,,,,,,,
2,0,2,0,1,84,2020-07-04_10h52.16.971,retriever_ti,2020.1.3,MacIntel,60,Safari,1440,900,,,,,,,,,,,,,,,,,,,,,,,,,,,,,,,,,,,,,,,,,,,,,,,,,,,,,,,,,,,,,,,,,,,,,,,,,,,,,,,,,,,,,,,,,,,,,,,,,,
3,0,3,0,1,84,2020-07-04_10h52.16.971,retriever_ti,2020.1.3,MacIntel,60,Safari,1440,900,,,,,,,,,,,,,,,,,,,,,,,,,,,,,,,,,,,,,,,,,,,,,,,,,,,,,,,,,,,,,,,,,,,,,,,,,,,,,,,,,,,,,,,,,,,,,,,,,,
4,0,4,0,1,84,2020-07-04_10h52.16.971,retriever_ti,2020.1.3,MacIntel,60,Safari,1440,900,,,,,,,,,,,,,,,,,,,,,,,,,,,,,,,,,,,,,,,,,,,,,,,,,,,,,,,,,,,,,,,,,,,,,,,,,,,,,,,,,,,,,,,,,,,,,,,,,,
5,0,5,0,1,84,2020-07-04_10h52.16.971,retriever_ti,2020.1.3,MacIntel,60,Safari,1440,900,,,,,,,,,,,,,,,,,,,,,,,,,,,,,,,,,,,,,,,,,,,,,,,,,,,,,,,,,,,,,,,,,,,,,,,,,,,,,,,,,,,,,,,,,,,,,,,,,,
6,0,6,0,1,84,2020-07-04_10h52.16.971,retriever_ti,2020.1.3,MacIntel,60,Safari,1440,900,,,,,,,,,,,,,,,,,,,,,,,,,,,,,,,,,,,,,,,,,,,,,,,,,,,,,,,,,,,,,,,,,,,,,,,,,,,,,,,,,,,,,,,,,,,,,,,,,,
7,0,7,0,1,84,2020-07-04_10h52.16.971,retriever_ti,2020.1.3,MacIntel,60,Safari,1440,900,,,,,,,,,,,,,,,,,,,,,,,,,,,,,,,,,,,,,,,,,,,,,,,,,,,,,,,,,,,,,,,,,,,,,,,,,,,,,,,,,,,,,,,,,,,,,,,,,,
8,0,8,0,1,84,2020-07-04_10h52.16.971,retriever_ti,2020.1.3,MacIntel,60,Safari,1440,900,,,,,,,,,,,,,,,,,,,,,,,,,,,,,,,,,,,,,,,,,,,,,,,,,,,,,,,,,,,,,,,,,,,,,,,,,,,,,,,,,,,,,,,,,,,,,,,,,,
9,0,9,0,1,84,2020-07-04_10h52.16.971,retriever_ti,2020.1.3,MacIntel,60,Safari,1440,900,,,,,,,,,,,,,,,,,,,,,,,,,,,,,,,,,,,,,,,,,,,,,,,,,,,,,,,,,,,,,,,,,,,,,,,,,,,,,,,,,,,,,,,,,,,,,,,,,,
10,0,10,0,1,84,2020-07-04_10h52.16.971,retriever_ti,2020.1.3,MacIntel,60,Safari,1440,900,,,,,,,,,,,,,,,,,,,,,,,,,,,,,,,,,,,,,,,,,,,,,,,,,,,,,,,,,,,,,,,,,,,,,,,,,,,,,,,,,,,,,,,,,,,,,,,,,,
11,0,11,0,1,84,2020-07-04_10h52.16.971,retriever_ti,2020.1.3,MacIntel,60,Safari,1440,900,,,,,,,,,,,,,,,,,,,,,,,,,,,,,,,,,,,,,,,,,,,,,,,,,,,,,,,,,,,,,,,,,,,,,,,,,,,,,,,,,,,,,,,,,,,,,,,,,,
12,0,12,0,1,84,2020-07-04_10h52.16.971,retriever_ti,2020.1.3,MacIntel,60,Safari,1440,900,,,,,,,,,,,,,,,,,,,,,,,,,,,,,,,,,,,,,,,,,,,,,,,,,,,,,,,,,,,,,,,,,,,,,,,,,,,,,,,,,,,,,,,,,,,,,,,,,,
13,0,13,0,1,84,2020-07-04_10h52.16.971,retriever_ti,2020.1.3,MacIntel,60,Safari,1440,900,,,,,,,,,,,,,,,,,,,,,,,,,,,,,,,,,,,,,,,,,,,,,,,,,,,,,,,,,,,,,,,,,,,,,,,,,,,,,,,,,,,,,,,,,,,,,,,,,,
14,0,14,0,1,84,2020-07-04_10h52.16.971,retriever_ti,2020.1.3,MacIntel,60,Safari,1440,900,,,,,,,,,,,,,,,,,,,,,,,,,,,,,,,,,,,,,,,,,,,,,,,,,,,,,,,,,,,,,,,,,,,,,,,,,,,,,,,,,,,,,,,,,,,,,,,,,,
,,,,,84,2020-07-04_10h52.16.971,retriever_ti,2020.1.3,MacIntel,60,Safari,1440,900,365.153,1,left,1.08,beetle,0,365.174,365.174,367.672,0,0,0,0,1,2,5,1,html/resources/stimuli_practice_decision/04_beetle.jpg,html/resources/stimuli_practice_decision/02_canary.jpg,beetle,canary,,,,,,,,,,,,,,,,,,,,,,,,,,,,,,,,,,,,,,,,,,,,,,,,,,,,,,,,,,,,,,,,,,,,,,,,,,,,,
,,,,,84,2020-07-04_10h52.16.971,retriever_ti,2020.1.3,MacIntel,60,Safari,1440,900,368.197,2,left,1.118,rabbit,1,368.237,368.237,370.737,0,1,1,1,1,4,3,1,html/resources/stimuli_practice_decision/01_rabbit.jpg,html/resources/stimuli_practice_decision/07_sock.jpg,rabbit,sock,,,,,,,,,,,,,,,,,,,,,,,,,,,,,,,,,,,,,,,,,,,,,,,,,,,,,,,,,,,,,,,,,,,,,,,,,,,,,
,,,,,84,2020-07-04_10h52.16.971,retriever_ti,2020.1.3,MacIntel,60,Safari,1440,900,371.738,3,right,1.215,beetle,0,371.771,371.771,374.271,0,2,2,2,1,6,2,1,html/resources/stimuli_practice_decision/06_pullover.jpg,html/resources/stimuli_practice_decision/04_beetle.jpg,pullover,beetle,,,,,,,,,,,,,,,,,,,,,,,,,,,,,,,,,,,,,,,,,,,,,,,,,,,,,,,,,,,,,,,,,,,,,,,,,,,,,
,,,,,84,2020-07-04_10h52.16.971,retriever_ti,2020.1.3,MacIntel,60,Safari,1440,900,374.788,4,right,0.935,handmixer,0,374.823,374.823,377.322,0,3,3,3,1,7,1,1,html/resources/stimuli_practice_decision/05_glasses.jpg,html/resources/stimuli_practice_decision/08_handmixer.jpg,glasses,handmixer,,,,,,,,,,,,,,,,,,,,,,,,,,,,,,,,,,,,,,,,,,,,,,,,,,,,,,,,,,,,,,,,,,,,,,,,,,,,,
,,,,,84,2020-07-04_10h52.16.971,retriever_ti,2020.1.3,MacIntel,60,Safari,1440,900,377.822,5,left,1.285,glasses,1,377.855,377.855,380.355,0,4,4,4,1,7,6,1,html/resources/stimuli_practice_decision/05_glasses.jpg,html/resources/stimuli_practice_decision/06_pullover.jpg,glasses,pullover,,,,,,,,,,,,,,,,,,,,,,,,,,,,,,,,,,,,,,,,,,,,,,,,,,,,,,,,,,,,,,,,,,,,,,,,,,,,,
,,,,,84,2020-07-04_10h52.16.971,retriever_ti,2020.1.3,MacIntel,60,Safari,1440,900,381.356,6,right,0.947,glasses,1,381.373,381.373,383.873,0,5,5,5,1,4,7,1,html/resources/stimuli_practice_decision/01_rabbit.jpg,html/resources/stimuli_practice_decision/05_glasses.jpg,rabbit,glasses,,,,,,,,,,,,,,,,,,,,,,,,,,,,,,,,,,,,,,,,,,,,,,,,,,,,,,,,,,,,,,,,,,,,,,,,,,,,,
,,,,,84,2020-07-04_10h52.16.971,retriever_ti,2020.1.3,MacIntel,60,Safari,1440,900,384.389,7,left,1.486,handmixer,0,384.423,384.423,386.923,0,6,6,6,1,1,2,1,html/resources/stimuli_practice_decision/08_handmixer.jpg,html/resources/stimuli_practice_decision/04_beetle.jpg,handmixer,beetle,,,,,,,,,,,,,,,,,,,,,,,,,,,,,,,,,,,,,,,,,,,,,,,,,,,,,,,,,,,,,,,,,,,,,,,,,,,,,
,,,,,84,2020-07-04_10h52.16.971,retriever_ti,2020.1.3,MacIntel,60,Safari,1440,900,387.924,8,left,1.445,rabbit,1,387.957,387.957,390.458,0,7,7,7,1,4,3,1,html/resources/stimuli_practice_decision/01_rabbit.jpg,html/resources/stimuli_practice_decision/07_sock.jpg,rabbit,sock,,,,,,,,,,,,,,,,,,,,,,,,,,,,,,,,,,,,,,,,,,,,,,,,,,,,,,,,,,,,,,,,,,,,,,,,,,,,,
,,,,,84,2020-07-04_10h52.16.971,retriever_ti,2020.1.3,MacIntel,60,Safari,1440,900,,,,,,,,,,,,,,,,,,,,,,down,1,2.926,1,0,0,0,3,1,html/resources/sequences_IDs/triangle.png,star ↑,square →,triangle ↓,← circle,down,,,,,,,,,,,,,,,,,,,,,,,,,,,,,,,,,,,,,,,,,,,,,,,,,,,,,,,,,,,,,,
,,,,,84,2020-07-04_10h52.16.971,retriever_ti,2020.1.3,MacIntel,60,Safari,1440,900,,,,,,,,,,,,,,,,,,,,,,up,1,2.614,1,0,1,1,0,1,html/resources/sequences_IDs/circle.png,circle ↑,square →,triangle ↓,← star ,up,,,,,,,,,,,,,,,,,,,,,,,,,,,,,,,,,,,,,,,,,,,,,,,,,,,,,,,,,,,,,,
,,,,,84,2020-07-04_10h52.16.971,retriever_ti,2020.1.3,MacIntel,60,Safari,1440,900,,,,,,,,,,,,,,,,,,,,,,down,1,2.622,1,0,2,2,1,1,html/resources/sequences_IDs/star.png,square ↑,circle →,star ↓,← triangle,down,,,,,,,,,,,,,,,,,,,,,,,,,,,,,,,,,,,,,,,,,,,,,,,,,,,,,,,,,,,,,,
,,,,,84,2020-07-04_10h52.16.971,retriever_ti,2020.1.3,MacIntel,60,Safari,1440,900,,,,,,,,,,,,,,,,,,,,,,left,1,2.686,1,0,3,3,2,1,html/resources/sequences_IDs/square1.png,star ↑,triangle →,circle ↓,← square,left,,,,,,,,,,,,,,,,,,,,,,,,,,,,,,,,,,,,,,,,,,,,,,,,,,,,,,,,,,,,,,
,,,,,84,2020-07-04_10h52.16.971,retriever_ti,2020.1.3,MacIntel,60,Safari,1440,900,,,,,,,,,,,,,,,,,,,,,,,,,,,,,,,,,,,,,0,11.166,0,0,0,0,1,,,,,,,,,,,,,,,,,,,,,,,,,,,,,,,,,,,,,,,,,,,,,,,,,,,,,,,
,,,,,84,2020-07-04_10h52.16.971,retriever_ti,2020.1.3,MacIntel,60,Safari,1440,900,423.242,9,right,1.085,glasses,1,423.267,423.267,425.763,0,0,0,0,1,6,7,1,html/resources/stimuli_practice_decision/06_pullover.jpg,html/resources/stimuli_practice_decision/05_glasses.jpg,pullover,glasses,,,,,,,,,,,,,,,,,,,,,,,,,,,,,,,,,,,,,,,,,,,,,,,,,,,,,,,,,,,,,,,,,,,,,,,,,,,,,
,,,,,84,2020-07-04_10h52.16.971,retriever_ti,2020.1.3,MacIntel,60,Safari,1440,900,426.763,10,left,0.724,pullover,1,426.781,426.781,429.279,0,1,1,1,1,6,2,1,html/resources/stimuli_practice_decision/06_pullover.jpg,html/resources/stimuli_practice_decision/04_beetle.jpg,pullover,beetle,,,,,,,,,,,,,,,,,,,,,,,,,,,,,,,,,,,,,,,,,,,,,,,,,,,,,,,,,,,,,,,,,,,,,,,,,,,,,
,,,,,84,2020-07-04_10h52.16.971,retriever_ti,2020.1.3,MacIntel,60,Safari,1440,900,429.781,11,left,0.793,canary,0,429.815,429.815,432.314,0,2,2,2,1,5,6,1,html/resources/stimuli_practice_decision/02_canary.jpg,html/resources/stimuli_practice_decision/06_pullover.jpg,canary,pullover,,,,,,,,,,,,,,,,,,,,,,,,,,,,,,,,,,,,,,,,,,,,,,,,,,,,,,,,,,,,,,,,,,,,,,,,,,,,,
,,,,,84,2020-07-04_10h52.16.971,retriever_ti,2020.1.3,MacIntel,60,Safari,1440,900,433.314,12,right,0.568,glasses,0,433.349,433.349,435.848,0,3,3,3,1,8,7,1,html/resources/stimuli_practice_decision/03_squirrel.jpg,html/resources/stimuli_practice_decision/05_glasses.jpg,squirrel,glasses,,,,,,,,,,,,,,,,,,,,,,,,,,,,,,,,,,,,,,,,,,,,,,,,,,,,,,,,,,,,,,,,,,,,,,,,,,,,,
,,,,,84,2020-07-04_10h52.16.971,retriever_ti,2020.1.3,MacIntel,60,Safari,1440,900,436.848,13,left,0.592,canary,1,436.865,436.865,439.366,0,4,4,4,1,5,3,1,html/resources/stimuli_practice_decision/02_canary.jpg,html/resources/stimuli_practice_decision/07_sock.jpg,canary,sock,,,,,,,,,,,,,,,,,,,,,,,,,,,,,,,,,,,,,,,,,,,,,,,,,,,,,,,,,,,,,,,,,,,,,,,,,,,,,
,,,,,84,2020-07-04_10h52.16.971,retriever_ti,2020.1.3,MacIntel,60,Safari,1440,900,439.883,14,left,0.687,glasses,0,439.918,439.918,442.416,0,5,5,5,1,7,8,1,html/resources/stimuli_practice_decision/05_glasses.jpg,html/resources/stimuli_practice_decision/03_squirrel.jpg,glasses,squirrel,,,,,,,,,,,,,,,,,,,,,,,,,,,,,,,,,,,,,,,,,,,,,,,,,,,,,,,,,,,,,,,,,,,,,,,,,,,,,
,,,,,84,2020-07-04_10h52.16.971,retriever_ti,2020.1.3,MacIntel,60,Safari,1440,900,443.416,15,right,0.616,rabbit,0,443.45,443.45,445.95,0,6,6,6,1,5,4,1,html/resources/stimuli_practice_decision/02_canary.jpg,html/resources/stimuli_practice_decision/01_rabbit.jpg,canary,rabbit,,,,,,,,,,,,,,,,,,,,,,,,,,,,,,,,,,,,,,,,,,,,,,,,,,,,,,,,,,,,,,,,,,,,,,,,,,,,,
,,,,,84,2020-07-04_10h52.16.971,retriever_ti,2020.1.3,MacIntel,60,Safari,1440,900,446.949,16,left,0.799,canary,1,446.985,446.985,449.483,0,7,7,7,1,5,3,1,html/resources/stimuli_practice_decision/02_canary.jpg,html/resources/stimuli_practice_decision/07_sock.jpg,canary,sock,,,,,,,,,,,,,,,,,,,,,,,,,,,,,,,,,,,,,,,,,,,,,,,,,,,,,,,,,,,,,,,,,,,,,,,,,,,,,
,,,,,84,2020-07-04_10h52.16.971,retriever_ti,2020.1.3,MacIntel,60,Safari,1440,900,,,,,,,,,,,,,,,,,,,,,,left,1,2.362,1,0,0,0,2,1,html/resources/sequences_IDs/square1.png,star ↑,triangle →,circle ↓,← square,left,,,,,,,,,,,,,,,,,,,,,,,,,,,,,,,,,,,,,,,,,,,,,,,,,,,,,,,,,,,,,,
,,,,,84,2020-07-04_10h52.16.971,retriever_ti,2020.1.3,MacIntel,60,Safari,1440,900,,,,,,,,,,,,,,,,,,,,,,down,1,1.844,1,0,1,1,1,1,html/resources/sequences_IDs/star.png,square ↑,circle →,star ↓,← triangle,down,,,,,,,,,,,,,,,,,,,,,,,,,,,,,,,,,,,,,,,,,,,,,,,,,,,,,,,,,,,,,,
,,,,,84,2020-07-04_10h52.16.971,retriever_ti,2020.1.3,MacIntel,60,Safari,1440,900,,,,,,,,,,,,,,,,,,,,,,down,1,6.119,1,0,2,2,3,1,html/resources/sequences_IDs/triangle.png,star ↑,square →,triangle ↓,← circle,down,,,,,,,,,,,,,,,,,,,,,,,,,,,,,,,,,,,,,,,,,,,,,,,,,,,,,,,,,,,,,,
,,,,,84,2020-07-04_10h52.16.971,retriever_ti,2020.1.3,MacIntel,60,Safari,1440,900,,,,,,,,,,,,,,,,,,,,,,up,1,1.731,1,0,3,3,0,1,html/resources/sequences_IDs/circle.png,circle ↑,square →,triangle ↓,← star ,up,,,,,,,,,,,,,,,,,,,,,,,,,,,,,,,,,,,,,,,,,,,,,,,,,,,,,,,,,,,,,,
,,,,,84,2020-07-04_10h52.16.971,retriever_ti,2020.1.3,MacIntel,60,Safari,1440,900,,,,,,,,,,,,,,,,,,,,,,,,,,,,,,,,,,,,,0,34.149,1,0,1,0,1,,,,,,,,,,,,,,,,,,,,,,,,,,,,,,,,,,,,,,,,,,,,,,,,,,,,,,,
,,,,,84,2020-07-04_10h52.16.971,retriever_ti,2020.1.3,MacIntel,60,Safari,1440,900,,,,,,,,,,,,,,,,,1,,,,,,,,,,,,,,,,,,,,,,,,,,,508.981,1,right,0.679,sport_tshirt,1,7,-1,0,0,509.028,509.028,511.528,0,0,0,0,1,1,2,1,hat           ,sport_tshirt,html/resources/sequences_IDs/A/08_hat.jpg,html/resources/sequences_IDs/B/07_sport_tshirt.jpg,8,7,3,2,3,2,7,6,0,84,,,,,,,,,,,,,,,,,,,,
,,,,,84,2020-07-04_10h52.16.971,retriever_ti,2020.1.3,MacIntel,60,Safari,1440,900,,,,,,,,,,,,,,,,,1,,,,,,,,,,,,,,,,,,,,,,,,,,,512.628,2,left,0.655,giraffe     ,3,3,-1,0,0,512.661,512.661,515.161,0,1,1,1,1,2,3,4,giraffe     ,wolf          ,html/resources/sequences_IDs/B/03_giraffe.jpg,html/resources/sequences_IDs/A/01_wolf.jpg,3,1,1,1,1,1,2,1,0,84,,,,,,,,,,,,,,,,,,,,
,,,,,84,2020-07-04_10h52.16.971,retriever_ti,2020.1.3,MacIntel,60,Safari,1440,900,,,,,,,,,,,,,,,,,1,,,,,,,,,,,,,,,,,,,,,,,,,,,516.262,3,right,0.867,hat           ,2,8,-2,0,3,516.296,516.296,518.796,0,2,2,2,1,3,4,2,wolf          ,hat           ,html/resources/sequences_IDs/A/01_wolf.jpg,html/resources/sequences_IDs/A/08_hat.jpg,1,8,1,1,3,2,1,7,0,84,,,,,,,,,,,,,,,,,,,,
,,,,,84,2020-07-04_10h52.16.971,retriever_ti,2020.1.3,MacIntel,60,Safari,1440,900,,,,,,,,,,,,,,,,,1,,,,,,,,,,,,,,,,,,,,,,,,,,,519.411,4,right,0.734,holdfast    ,7,4,1,1,1,519.445,519.445,521.945,0,3,3,3,1,4,6,7,peacock       ,holdfast    ,html/resources/sequences_IDs/A/05_peacock.jpg,html/resources/sequences_IDs/B/04_holdfast.jpg,5,4,2,1,2,1,4,3,0,84,,,,,,,,,,,,,,,,,,,,
,,,,,84,2020-07-04_10h52.16.971,retriever_ti,2020.1.3,MacIntel,60,Safari,1440,900,,,,,,,,,,,,,,,,,1,,,,,,,,,,,,,,,,,,,,,,,,,,,523.045,5,right,0.759,holdfast    ,7,4,1,1,1,523.079,523.079,525.579,0,4,4,4,1,5,6,7,peacock       ,holdfast    ,html/resources/sequences_IDs/A/05_peacock.jpg,html/resources/sequences_IDs/B/04_holdfast.jpg,5,4,2,1,2,1,4,3,0,84,,,,,,,,,,,,,,,,,,,,
,,,,,84,2020-07-04_10h52.16.971,retriever_ti,2020.1.3,MacIntel,60,Safari,1440,900,,,,,,,,,,,,,,,,,1,,,,,,,,,,,,,,,,,,,,,,,,,,,526.68,6,left,0.859,wolf          ,4,1,-2,0,3,526.712,526.712,529.213,0,5,5,5,1,6,4,6,wolf          ,peacock       ,html/resources/sequences_IDs/A/01_wolf.jpg,html/resources/sequences_IDs/A/05_peacock.jpg,1,5,1,1,2,1,1,4,0,84,,,,,,,,,,,,,,,,,,,,
,,,,,84,2020-07-04_10h52.16.971,retriever_ti,2020.1.3,MacIntel,60,Safari,1440,900,,,,,,,,,,,,,,,,,1,,,,,,,,,,,,,,,,,,,,,,,,,,,529.83,7,right,1.282,scarf         ,8,6,6,1,3,529.865,529.865,532.364,0,6,6,6,1,7,2,8,hat           ,scarf         ,html/resources/sequences_IDs/A/08_hat.jpg,html/resources/sequences_IDs/A/06_scarf.jpg,8,6,3,2,3,2,7,5,0,84,,,,,,,,,,,,,,,,,,,,
,,,,,84,2020-07-04_10h52.16.971,retriever_ti,2020.1.3,MacIntel,60,Safari,1440,900,,,,,,,,,,,,,,,,,1,,,,,,,,,,,,,,,,,,,,,,,,,,,532.964,8,right,0.99,wolf          ,4,1,1,1,1,532.981,532.981,535.482,0,7,7,7,1,8,3,4,giraffe     ,wolf          ,html/resources/sequences_IDs/B/03_giraffe.jpg,html/resources/sequences_IDs/A/01_wolf.jpg,3,1,1,1,1,1,2,1,0,84,,,,,,,,,,,,,,,,,,,,
,,,,,84,2020-07-04_10h52.16.971,retriever_ti,2020.1.3,MacIntel,60,Safari,1440,900,,,,,,,,,,,,,,,,,1,,,,,,,,,,,,,,,,,,,,,,,,,,,536.581,9,right,1.492,giraffe     ,3,3,1,1,1,536.619,536.619,539.114,0,8,8,8,1,9,2,3,hat           ,giraffe     ,html/resources/sequences_IDs/A/08_hat.jpg,html/resources/sequences_IDs/B/03_giraffe.jpg,8,3,3,2,1,1,7,2,0,84,,,,,,,,,,,,,,,,,,,,
,,,,,84,2020-07-04_10h52.16.971,retriever_ti,2020.1.3,MacIntel,60,Safari,1440,900,,,,,,,,,,,,,,,,,1,,,,,,,,,,,,,,,,,,,,,,,,,,,540.215,10,right,1.179,holdfast    ,7,4,4,1,3,540.233,540.233,542.731,0,9,9,9,1,10,3,7,giraffe     ,holdfast    ,html/resources/sequences_IDs/B/03_giraffe.jpg,html/resources/sequences_IDs/B/04_holdfast.jpg,3,4,1,1,2,1,2,3,0,84,,,,,,,,,,,,,,,,,,,,
,,,,,84,2020-07-04_10h52.16.971,retriever_ti,2020.1.3,MacIntel,60,Safari,1440,900,,,,,,,,,,,,,,,,,1,,,,,,,,,,,,,,,,,,,,,,,,,,,543.331,11,left,1.505,holdfast    ,7,4,4,1,3,543.367,543.367,545.866,0,10,10,10,1,11,7,3,holdfast    ,giraffe     ,html/resources/sequences_IDs/B/04_holdfast.jpg,html/resources/sequences_IDs/B/03_giraffe.jpg,4,3,2,1,1,1,3,2,0,84,,,,,,,,,,,,,,,,,,,,
,,,,,84,2020-07-04_10h52.16.971,retriever_ti,2020.1.3,MacIntel,60,Safari,1440,900,,,,,,,,,,,,,,,,,1,,,,,,,,,,,,,,,,,,,,,,,,,,,546.467,12,right,1.315,giraffe     ,3,3,-2,0,3,546.5,546.5,549,0,11,11,11,1,12,5,3,phone       ,giraffe     ,html/resources/sequences_IDs/B/09_phone.jpg,html/resources/sequences_IDs/B/03_giraffe.jpg,9,3,4,2,1,1,8,2,0,84,,,,,,,,,,,,,,,,,,,,
,,,,,84,2020-07-04_10h52.16.971,retriever_ti,2020.1.3,MacIntel,60,Safari,1440,900,,,,,,,,,,,,,,,,,1,,,,,,,,,,,,,,,,,,,,,,,,,,,549.601,13,left,0.828,holdfast    ,7,4,1,1,1,549.633,549.633,552.134,0,12,12,12,1,13,7,6,holdfast    ,peacock       ,html/resources/sequences_IDs/B/04_holdfast.jpg,html/resources/sequences_IDs/A/05_peacock.jpg,4,5,2,1,2,1,3,4,0,84,,,,,,,,,,,,,,,,,,,,
,,,,,84,2020-07-04_10h52.16.971,retriever_ti,2020.1.3,MacIntel,60,Safari,1440,900,,,,,,,,,,,,,,,,,1,,,,,,,,,,,,,,,,,,,,,,,,,,,553.234,14,right,0.826,holdfast    ,7,4,-1,0,0,553.251,553.251,555.751,0,13,13,13,1,14,8,7,scarf         ,holdfast    ,html/resources/sequences_IDs/A/06_scarf.jpg,html/resources/sequences_IDs/B/04_holdfast.jpg,6,4,3,2,2,1,5,3,0,84,,,,,,,,,,,,,,,,,,,,
,,,,,84,2020-07-04_10h52.16.971,retriever_ti,2020.1.3,MacIntel,60,Safari,1440,900,,,,,,,,,,,,,,,,,1,,,,,,,,,,,,,,,,,,,,,,,,,,,556.851,15,right,0.9,holdfast    ,7,4,5,1,3,556.884,556.884,559.384,0,14,14,14,1,15,2,7,hat           ,holdfast    ,html/resources/sequences_IDs/A/08_hat.jpg,html/resources/sequences_IDs/B/04_holdfast.jpg,8,4,3,2,2,1,7,3,0,84,,,,,,,,,,,,,,,,,,,,
,,,,,84,2020-07-04_10h52.16.971,retriever_ti,2020.1.3,MacIntel,60,Safari,1440,900,,,,,,,,,,,,,,,,,1,,,,,,,,,,,,,,,,,,,,,,,,,,,559.984,16,left,1.418,giraffe     ,3,3,1,1,1,560.001,560.001,562.502,0,15,15,15,1,16,3,2,giraffe     ,hat           ,html/resources/sequences_IDs/B/03_giraffe.jpg,html/resources/sequences_IDs/A/08_hat.jpg,3,8,1,1,3,2,2,7,0,84,,,,,,,,,,,,,,,,,,,,
,,,,,84,2020-07-04_10h52.16.971,retriever_ti,2020.1.3,MacIntel,60,Safari,1440,900,,,,,,,,,,,,,,,,,1,,,,,,,,,,,,,,,,,,,,,,,,,,,563.601,17,left,1.15,holdfast    ,7,4,2,1,3,563.635,563.635,566.135,0,16,16,16,1,17,7,5,holdfast    ,phone       ,html/resources/sequences_IDs/B/04_holdfast.jpg,html/resources/sequences_IDs/B/09_phone.jpg,4,9,2,1,4,2,3,8,0,84,,,,,,,,,,,,,,,,,,,,
,,,,,84,2020-07-04_10h52.16.971,retriever_ti,2020.1.3,MacIntel,60,Safari,1440,900,,,,,,,,,,,,,,,,,1,,,,,,,,,,,,,,,,,,,,,,,,,,,566.736,18,right,1.682,phone       ,5,9,-1,0,0,566.768,566.768,569.27,0,17,17,17,1,18,6,5,peacock       ,phone       ,html/resources/sequences_IDs/A/05_peacock.jpg,html/resources/sequences_IDs/B/09_phone.jpg,5,9,2,1,4,2,4,8,0,84,,,,,,,,,,,,,,,,,,,,
,,,,,84,2020-07-04_10h52.16.971,retriever_ti,2020.1.3,MacIntel,60,Safari,1440,900,,,,,,,,,,,,,,,,,1,,,,,,,,,,,,,,,,,,,,,,,,,,,570.369,19,left,0.683,holdfast    ,7,4,5,1,3,570.386,570.386,572.887,0,18,18,18,1,19,7,2,holdfast    ,hat           ,html/resources/sequences_IDs/B/04_holdfast.jpg,html/resources/sequences_IDs/A/08_hat.jpg,4,8,2,1,3,2,3,7,0,84,,,,,,,,,,,,,,,,,,,,
,,,,,84,2020-07-04_10h52.16.971,retriever_ti,2020.1.3,MacIntel,60,Safari,1440,900,,,,,,,,,,,,,,,,,1,,,,,,,,,,,,,,,,,,,,,,,,,,,573.487,20,left,1.292,scarf         ,8,6,3,1,3,573.504,573.504,576.004,0,19,19,19,1,20,8,5,scarf         ,phone       ,html/resources/sequences_IDs/A/06_scarf.jpg,html/resources/sequences_IDs/B/09_phone.jpg,6,9,3,2,4,2,5,8,0,84,,,,,,,,,,,,,,,,,,,,
,,,,,84,2020-07-04_10h52.16.971,retriever_ti,2020.1.3,MacIntel,60,Safari,1440,900,,,,,,,,,,,,,,,,,1,,,,,,,,,,,,,,,,,,,,,,,,,,,576.605,21,left,1.212,holdfast    ,7,4,6,1,3,576.638,576.638,579.138,0,20,20,20,1,21,7,1,holdfast    ,sport_tshirt,html/resources/sequences_IDs/B/04_holdfast.jpg,html/resources/sequences_IDs/B/07_sport_tshirt.jpg,4,7,2,1,3,2,3,6,0,84,,,,,,,,,,,,,,,,,,,,
,,,,,84,2020-07-04_10h52.16.971,retriever_ti,2020.1.3,MacIntel,60,Safari,1440,900,,,,,,,,,,,,,,,,,1,,,,,,,,,,,,,,,,,,,,,,,,,,,579.738,22,right,0.655,holdfast    ,7,4,6,1,3,579.773,579.773,582.272,0,21,21,21,1,22,1,7,sport_tshirt,holdfast    ,html/resources/sequences_IDs/B/07_sport_tshirt.jpg,html/resources/sequences_IDs/B/04_holdfast.jpg,7,4,3,2,2,1,6,3,0,84,,,,,,,,,,,,,,,,,,,,
,,,,,84,2020-07-04_10h52.16.971,retriever_ti,2020.1.3,MacIntel,60,Safari,1440,900,,,,,,,,,,,,,,,,,1,,,,,,,,,,,,,,,,,,,,,,,,,,,582.889,23,right,1.096,scarf         ,8,6,4,1,3,582.923,582.923,585.421,0,22,22,22,1,23,4,8,wolf          ,scarf         ,html/resources/sequences_IDs/A/01_wolf.jpg,html/resources/sequences_IDs/A/06_scarf.jpg,1,6,1,1,3,2,1,5,0,84,,,,,,,,,,,,,,,,,,,,
,,,,,84,2020-07-04_10h52.16.971,retriever_ti,2020.1.3,MacIntel,60,Safari,1440,900,,,,,,,,,,,,,,,,,1,,,,,,,,,,,,,,,,,,,,,,,,,,,586.023,24,right,1.374,giraffe     ,3,3,2,1,3,586.056,586.056,588.555,0,23,23,23,1,24,1,3,sport_tshirt,giraffe     ,html/resources/sequences_IDs/B/07_sport_tshirt.jpg,html/resources/sequences_IDs/B/03_giraffe.jpg,7,3,3,2,1,1,6,2,0,84,,,,,,,,,,,,,,,,,,,,
,,,,,84,2020-07-04_10h52.16.971,retriever_ti,2020.1.3,MacIntel,60,Safari,1440,900,,,,,,,,,,,,,,,,,1,,,,,,,,,,,,,,,,,,,,,,,,,,,589.157,25,left,0.789,scarf         ,8,6,2,1,3,589.173,589.173,591.674,0,24,24,24,1,25,8,6,scarf         ,peacock       ,html/resources/sequences_IDs/A/06_scarf.jpg,html/resources/sequences_IDs/A/05_peacock.jpg,6,5,3,2,2,1,5,4,0,84,,,,,,,,,,,,,,,,,,,,
,,,,,84,2020-07-04_10h52.16.971,retriever_ti,2020.1.3,MacIntel,60,Safari,1440,900,,,,,,,,,,,,,,,,,1,,,,,,,,,,,,,,,,,,,,,,,,,,,592.29,26,right,1.174,holdfast    ,7,4,1,1,0,592.307,592.307,594.807,0,25,25,25,1,26,6,7,peacock       ,holdfast    ,html/resources/sequences_IDs/A/05_peacock.jpg,html/resources/sequences_IDs/B/04_holdfast.jpg,5,4,2,1,2,1,4,3,1,84,,,,,,,,,,,,,,,,,,,,
,,,,,84,2020-07-04_10h52.16.971,retriever_ti,2020.1.3,MacIntel,60,Safari,1440,900,,,,,,,,,,,,,,,,,1,,,,,,,,,,,,,,,,,,,,,,,,,,,595.908,27,right,0.99,holdfast    ,7,4,3,1,3,595.941,595.941,598.44,0,26,26,26,1,27,4,7,wolf          ,holdfast    ,html/resources/sequences_IDs/A/01_wolf.jpg,html/resources/sequences_IDs/B/04_holdfast.jpg,1,4,1,1,2,1,1,3,0,84,,,,,,,,,,,,,,,,,,,,
,,,,,84,2020-07-04_10h52.16.971,retriever_ti,2020.1.3,MacIntel,60,Safari,1440,900,,,,,,,,,,,,,,,,,1,,,,,,,,,,,,,,,,,,,,,,,,,,,599.042,28,right,1.319,scarf         ,8,6,1,1,1,599.075,599.075,601.575,0,27,27,27,1,28,7,8,holdfast    ,scarf         ,html/resources/sequences_IDs/B/04_holdfast.jpg,html/resources/sequences_IDs/A/06_scarf.jpg,4,6,2,1,3,2,3,5,0,84,,,,,,,,,,,,,,,,,,,,
,,,,,84,2020-07-04_10h52.16.971,retriever_ti,2020.1.3,MacIntel,60,Safari,1440,900,,,,,,,,,,,,,,,,,1,,,,,,,,,,,,,,,,,,,,,,,,,,,602.675,29,left,1.036,peacock       ,6,5,1,1,1,602.691,602.691,605.193,0,28,28,28,1,29,6,5,peacock       ,phone       ,html/resources/sequences_IDs/A/05_peacock.jpg,html/resources/sequences_IDs/B/09_phone.jpg,5,9,2,1,4,2,4,8,0,84,,,,,,,,,,,,,,,,,,,,
,,,,,84,2020-07-04_10h52.16.971,retriever_ti,2020.1.3,MacIntel,60,Safari,1440,900,,,,,,,,,,,,,,,,,1,,,,,,,,,,,,,,,,,,,,,,,,,,,606.293,30,left,1.388,peacock       ,6,5,-2,0,3,606.327,606.327,608.826,0,29,29,29,1,30,6,8,peacock       ,scarf         ,html/resources/sequences_IDs/A/05_peacock.jpg,html/resources/sequences_IDs/A/06_scarf.jpg,5,6,2,1,3,2,4,5,0,84,,,,,,,,,,,,,,,,,,,,
,,,,,84,2020-07-04_10h52.16.971,retriever_ti,2020.1.3,MacIntel,60,Safari,1440,900,,,,,,,,,,,,,,,,,1,,,,,,,,,,,,,,,,,,,,,,,,,,,609.427,31,right,1.135,giraffe     ,3,3,-1,0,0,609.459,609.459,611.96,0,30,30,30,1,31,4,3,wolf          ,giraffe     ,html/resources/sequences_IDs/A/01_wolf.jpg,html/resources/sequences_IDs/B/03_giraffe.jpg,1,3,1,1,1,1,1,2,0,84,,,,,,,,,,,,,,,,,,,,
,,,,,84,2020-07-04_10h52.16.971,retriever_ti,2020.1.3,MacIntel,60,Safari,1440,900,,,,,,,,,,,,,,,,,1,,,,,,,,,,,,,,,,,,,,,,,,,,,613.061,32,right,1.83,giraffe     ,3,3,-3,0,3,613.079,613.079,615.577,0,31,31,31,1,32,6,3,peacock       ,giraffe     ,html/resources/sequences_IDs/A/05_peacock.jpg,html/resources/sequences_IDs/B/03_giraffe.jpg,5,3,2,1,1,1,4,2,0,84,,,,,,,,,,,,,,,,,,,,
,,,,,84,2020-07-04_10h52.16.971,retriever_ti,2020.1.3,MacIntel,60,Safari,1440,900,,,,,,,,,,,,,,,,,1,,,,,,,,,,,,,,,,,,,,,,,,,,,616.178,33,left,1.202,scarf         ,8,6,1,1,0,616.195,616.195,618.694,0,32,32,32,1,33,8,7,scarf         ,holdfast    ,html/resources/sequences_IDs/A/06_scarf.jpg,html/resources/sequences_IDs/B/04_holdfast.jpg,6,4,3,2,2,1,5,3,1,84,,,,,,,,,,,,,,,,,,,,
,,,,,84,2020-07-04_10h52.16.971,retriever_ti,2020.1.3,MacIntel,60,Safari,1440,900,,,,,,,,,,,,,,,,,1,,,,,,,,,,,,,,,,,,,,,,,,,,,619.795,34,right,1.443,phone       ,5,9,3,1,3,619.813,619.813,622.312,0,33,33,33,1,34,2,5,hat           ,phone       ,html/resources/sequences_IDs/A/08_hat.jpg,html/resources/sequences_IDs/B/09_phone.jpg,8,9,3,2,4,2,7,8,0,84,,,,,,,,,,,,,,,,,,,,
,,,,,84,2020-07-04_10h52.16.971,retriever_ti,2020.1.3,MacIntel,60,Safari,1440,900,,,,,,,,,,,,,,,,,1,,,,,,,,,,,,,,,,,,,,,,,,,,,622.929,35,right,1.804,wolf          ,4,1,-1,0,0,622.963,622.963,625.462,0,34,34,34,1,35,5,4,phone       ,wolf          ,html/resources/sequences_IDs/B/09_phone.jpg,html/resources/sequences_IDs/A/01_wolf.jpg,9,1,4,2,1,1,8,1,0,84,,,,,,,,,,,,,,,,,,,,
,,,,,84,2020-07-04_10h52.16.971,retriever_ti,2020.1.3,MacIntel,60,Safari,1440,900,,,,,,,,,,,,,,,,,1,,,,,,,,,,,,,,,,,,,,,,,,,,,626.571,36,right,1.397,giraffe     ,3,3,1,1,1,626.578,626.578,629.08,0,35,35,35,1,36,2,3,hat           ,giraffe     ,html/resources/sequences_IDs/A/08_hat.jpg,html/resources/sequences_IDs/B/03_giraffe.jpg,8,3,3,2,1,1,7,2,0,84,,,,,,,,,,,,,,,,,,,,
,,,,,84,2020-07-04_10h52.16.971,retriever_ti,2020.1.3,MacIntel,60,Safari,1440,900,,,,,,,,,,,,,,,,,1,,,,,,,,,,,,,,,,,,,,,,,,,,,630.179,37,left,1.36,scarf         ,8,6,1,1,1,630.213,630.213,632.713,0,36,36,36,1,37,8,7,scarf         ,holdfast    ,html/resources/sequences_IDs/A/06_scarf.jpg,html/resources/sequences_IDs/B/04_holdfast.jpg,6,4,3,2,2,1,5,3,0,84,,,,,,,,,,,,,,,,,,,,
,,,,,84,2020-07-04_10h52.16.971,retriever_ti,2020.1.3,MacIntel,60,Safari,1440,900,,,,,,,,,,,,,,,,,1,,,,,,,,,,,,,,,,,,,,,,,,,,,633.814,38,right,1.723,scarf         ,8,6,1,1,1,633.829,633.829,636.33,0,37,37,37,1,38,7,8,holdfast    ,scarf         ,html/resources/sequences_IDs/B/04_holdfast.jpg,html/resources/sequences_IDs/A/06_scarf.jpg,4,6,2,1,3,2,3,5,0,84,,,,,,,,,,,,,,,,,,,,
,,,,,84,2020-07-04_10h52.16.971,retriever_ti,2020.1.3,MacIntel,60,Safari,1440,900,,,,,,,,,,,,,,,,,1,,,,,,,,,,,,,,,,,,,,,,,,,,,637.436,39,right,1.797,wolf          ,4,1,-1,0,1,637.466,637.466,639.964,0,38,38,38,1,39,5,4,phone       ,wolf          ,html/resources/sequences_IDs/B/09_phone.jpg,html/resources/sequences_IDs/A/01_wolf.jpg,9,1,4,2,1,1,8,1,1,84,,,,,,,,,,,,,,,,,,,,
,,,,,84,2020-07-04_10h52.16.971,retriever_ti,2020.1.3,MacIntel,60,Safari,1440,900,,,,,,,,,,,,,,,,,1,,,,,,,,,,,,,,,,,,,,,,,,,,,641.064,40,left,1.025,phone       ,5,9,4,1,3,641.099,641.099,643.599,0,39,39,39,1,40,5,1,phone       ,sport_tshirt,html/resources/sequences_IDs/B/09_phone.jpg,html/resources/sequences_IDs/B/07_sport_tshirt.jpg,9,7,4,2,3,2,8,6,0,84,,,,,,,,,,,,,,,,,,,,
,,,,,84,2020-07-04_10h52.16.971,retriever_ti,2020.1.3,MacIntel,60,Safari,1440,900,,,,,,,,,,,,,,,,,1,,,,,,,,,,,,,,,,,,,,,,,,,,,644.216,41,right,1.717,phone       ,5,9,4,1,3,644.25,644.25,646.748,0,40,40,40,1,41,1,5,sport_tshirt,phone       ,html/resources/sequences_IDs/B/07_sport_tshirt.jpg,html/resources/sequences_IDs/B/09_phone.jpg,7,9,3,2,4,2,6,8,0,84,,,,,,,,,,,,,,,,,,,,
,,,,,84,2020-07-04_10h52.16.971,retriever_ti,2020.1.3,MacIntel,60,Safari,1440,900,,,,,,,,,,,,,,,,,1,,,,,,,,,,,,,,,,,,,,,,,,,,,647.35,42,left,1.028,wolf          ,4,1,3,1,3,647.366,647.366,649.865,0,41,41,41,1,42,4,1,wolf          ,sport_tshirt,html/resources/sequences_IDs/A/01_wolf.jpg,html/resources/sequences_IDs/B/07_sport_tshirt.jpg,1,7,1,1,3,2,1,6,0,84,,,,,,,,,,,,,,,,,,,,
,,,,,84,2020-07-04_10h52.16.971,retriever_ti,2020.1.3,MacIntel,60,Safari,1440,900,,,,,,,,,,,,,,,,,1,,,,,,,,,,,,,,,,,,,,,,,,,,,650.466,43,left,1.171,wolf          ,4,1,-1,0,0,650.499,650.499,653,0,42,42,42,1,43,4,5,wolf          ,phone       ,html/resources/sequences_IDs/A/01_wolf.jpg,html/resources/sequences_IDs/B/09_phone.jpg,1,9,1,1,4,2,1,8,0,84,,,,,,,,,,,,,,,,,,,,
,,,,,84,2020-07-04_10h52.16.971,retriever_ti,2020.1.3,MacIntel,60,Safari,1440,900,,,,,,,,,,,,,,,,,1,,,,,,,,,,,,,,,,,,,,,,,,,,,654.1,44,right,1.103,giraffe     ,3,3,-1,0,0,654.135,654.135,656.634,0,43,43,43,1,44,4,3,wolf          ,giraffe     ,html/resources/sequences_IDs/A/01_wolf.jpg,html/resources/sequences_IDs/B/03_giraffe.jpg,1,3,1,1,1,1,1,2,0,84,,,,,,,,,,,,,,,,,,,,
,,,,,84,2020-07-04_10h52.16.971,retriever_ti,2020.1.3,MacIntel,60,Safari,1440,900,,,,,,,,,,,,,,,,,1,,,,,,,,,,,,,,,,,,,,,,,,,,,657.734,45,left,1.47,giraffe     ,3,3,1,1,1,657.767,657.767,660.268,0,44,44,44,1,45,3,2,giraffe     ,hat           ,html/resources/sequences_IDs/B/03_giraffe.jpg,html/resources/sequences_IDs/A/08_hat.jpg,3,8,1,1,3,2,2,7,0,84,,,,,,,,,,,,,,,,,,,,
,,,,,84,2020-07-04_10h52.16.971,retriever_ti,2020.1.3,MacIntel,60,Safari,1440,900,,,,,,,,,,,,,,,,,1,,,,,,,,,,,,,,,,,,,,,,,,,,,661.368,46,left,1.61,phone       ,5,9,3,1,3,661.385,661.385,663.885,0,45,45,45,1,46,5,2,phone       ,hat           ,html/resources/sequences_IDs/B/09_phone.jpg,html/resources/sequences_IDs/A/08_hat.jpg,9,8,4,2,3,2,8,7,0,84,,,,,,,,,,,,,,,,,,,,
,,,,,84,2020-07-04_10h52.16.971,retriever_ti,2020.1.3,MacIntel,60,Safari,1440,900,,,,,,,,,,,,,,,,,1,,,,,,,,,,,,,,,,,,,,,,,,,,,664.502,47,left,0.958,scarf         ,8,6,6,1,3,664.535,664.535,667.035,0,46,46,46,1,47,8,2,scarf         ,hat           ,html/resources/sequences_IDs/A/06_scarf.jpg,html/resources/sequences_IDs/A/08_hat.jpg,6,8,3,2,3,2,5,7,0,84,,,,,,,,,,,,,,,,,,,,
,,,,,84,2020-07-04_10h52.16.971,retriever_ti,2020.1.3,MacIntel,60,Safari,1440,900,,,,,,,,,,,,,,,,,1,,,,,,,,,,,,,,,,,,,,,,,,,,,667.652,48,right,0.742,scarf         ,8,6,3,1,3,667.669,667.669,670.169,0,47,47,47,1,48,5,8,phone       ,scarf         ,html/resources/sequences_IDs/B/09_phone.jpg,html/resources/sequences_IDs/A/06_scarf.jpg,9,6,4,2,3,2,8,5,0,84,,,,,,,,,,,,,,,,,,,,
,,,,,84,2020-07-04_10h52.16.971,retriever_ti,2020.1.3,MacIntel,60,Safari,1440,900,,,,,,,,,,,,,,,,,1,,,,,,,,,,,,,,,,,,,,,,,,,,,670.787,49,right,1.037,peacock       ,6,5,5,1,3,670.803,670.803,673.303,0,48,48,48,1,49,1,6,sport_tshirt,peacock       ,html/resources/sequences_IDs/B/07_sport_tshirt.jpg,html/resources/sequences_IDs/A/05_peacock.jpg,7,5,3,2,2,1,6,4,0,84,,,,,,,,,,,,,,,,,,,,
,,,,,84,2020-07-04_10h52.16.971,retriever_ti,2020.1.3,MacIntel,60,Safari,1440,900,,,,,,,,,,,,,,,,,1,,,,,,,,,,,,,,,,,,,,,,,,,,,673.92,50,left,1.169,peacock       ,6,5,2,1,3,673.955,673.955,676.454,0,49,49,49,1,50,6,4,peacock       ,wolf          ,html/resources/sequences_IDs/A/05_peacock.jpg,html/resources/sequences_IDs/A/01_wolf.jpg,5,1,2,1,1,1,4,1,0,84,,,,,,,,,,,,,,,,,,,,
,,,,,84,2020-07-04_10h52.16.971,retriever_ti,2020.1.3,MacIntel,60,Safari,1440,900,,,,,,,,,,,,,,,,,1,,,,,,,,,,,,,,,,,,,,,,,,,,,677.071,51,left,0.971,peacock       ,6,5,5,1,3,677.089,677.089,679.588,0,50,50,50,1,51,6,1,peacock       ,sport_tshirt,html/resources/sequences_IDs/A/05_peacock.jpg,html/resources/sequences_IDs/B/07_sport_tshirt.jpg,5,7,2,1,3,2,4,6,0,84,,,,,,,,,,,,,,,,,,,,
,,,,,84,2020-07-04_10h52.16.971,retriever_ti,2020.1.3,MacIntel,60,Safari,1440,900,,,,,,,,,,,,,,,,,1,,,,,,,,,,,,,,,,,,,,,,,,,,,680.205,52,right,0.675,peacock       ,6,5,1,1,0,680.221,680.221,682.722,0,51,51,51,1,52,5,6,phone       ,peacock       ,html/resources/sequences_IDs/B/09_phone.jpg,html/resources/sequences_IDs/A/05_peacock.jpg,9,5,4,2,2,1,8,4,1,84,,,,,,,,,,,,,,,,,,,,
,,,,,84,2020-07-04_10h52.16.971,retriever_ti,2020.1.3,MacIntel,60,Safari,1440,900,,,,,,,,,,,,,,,,,1,,,,,,,,,,,,,,,,,,,,,,,,,,,683.822,53,right,1.449,holdfast    ,7,4,2,1,3,683.856,683.856,686.356,0,52,52,52,1,53,5,7,phone       ,holdfast    ,html/resources/sequences_IDs/B/09_phone.jpg,html/resources/sequences_IDs/B/04_holdfast.jpg,9,4,4,2,2,1,8,3,0,84,,,,,,,,,,,,,,,,,,,,
,,,,,84,2020-07-04_10h52.16.971,retriever_ti,2020.1.3,MacIntel,60,Safari,1440,900,,,,,,,,,,,,,,,,,1,,,,,,,,,,,,,,,,,,,,,,,,,,,686.972,54,left,1.317,hat           ,2,8,1,1,0,687.006,687.006,689.506,0,53,53,53,1,54,2,1,hat           ,sport_tshirt,html/resources/sequences_IDs/A/08_hat.jpg,html/resources/sequences_IDs/B/07_sport_tshirt.jpg,8,7,3,2,3,2,7,6,1,84,,,,,,,,,,,,,,,,,,,,
,,,,,84,2020-07-04_10h52.16.971,retriever_ti,2020.1.3,MacIntel,60,Safari,1440,900,,,,,,,,,,,,,,,,,1,,,,,,,,,,,,,,,,,,,,,,,,,,,690.606,55,left,1.181,sport_tshirt,1,7,-1,0,0,690.64,690.64,693.14,0,54,54,54,1,55,1,2,sport_tshirt,hat           ,html/resources/sequences_IDs/B/07_sport_tshirt.jpg,html/resources/sequences_IDs/A/08_hat.jpg,7,8,3,2,3,2,6,7,0,84,,,,,,,,,,,,,,,,,,,,
,,,,,84,2020-07-04_10h52.16.971,retriever_ti,2020.1.3,MacIntel,60,Safari,1440,900,,,,,,,,,,,,,,,,,1,,,,,,,,,,,,,,,,,,,,,,,,,,,694.24,56,left,2.258,giraffe     ,3,3,-5,0,3,694.273,694.273,696.774,0,55,55,55,1,56,3,8,giraffe     ,scarf         ,html/resources/sequences_IDs/B/03_giraffe.jpg,html/resources/sequences_IDs/A/06_scarf.jpg,3,6,1,1,3,2,2,5,0,84,,,,,,,,,,,,,,,,,,,,
,,,,,84,2020-07-04_10h52.16.971,retriever_ti,2020.1.3,MacIntel,60,Safari,1440,900,,,,,,,,,,,,,,,,,1,,,,,,,,,,,,,,,,,,,,,,,,,,,697.375,57,right,1.001,wolf          ,4,1,-1,0,0,697.391,697.391,699.891,0,56,56,56,1,57,5,4,phone       ,wolf          ,html/resources/sequences_IDs/B/09_phone.jpg,html/resources/sequences_IDs/A/01_wolf.jpg,9,1,4,2,1,1,8,1,0,84,,,,,,,,,,,,,,,,,,,,
,,,,,84,2020-07-04_10h52.16.971,retriever_ti,2020.1.3,MacIntel,60,Safari,1440,900,,,,,,,,,,,,,,,,,1,,,,,,,,,,,,,,,,,,,,,,,,,,,700.991,58,left,0.821,holdfast    ,7,4,1,1,1,701.024,701.024,703.525,0,57,57,57,1,58,7,6,holdfast    ,peacock       ,html/resources/sequences_IDs/B/04_holdfast.jpg,html/resources/sequences_IDs/A/05_peacock.jpg,4,5,2,1,2,1,3,4,0,84,,,,,,,,,,,,,,,,,,,,
,,,,,84,2020-07-04_10h52.16.971,retriever_ti,2020.1.3,MacIntel,60,Safari,1440,900,,,,,,,,,,,,,,,,,1,,,,,,,,,,,,,,,,,,,,,,,,,,,704.625,59,right,1.667,giraffe     ,3,3,1,1,0,704.659,704.659,707.158,0,58,58,58,1,59,2,3,hat           ,giraffe     ,html/resources/sequences_IDs/A/08_hat.jpg,html/resources/sequences_IDs/B/03_giraffe.jpg,8,3,3,2,1,1,7,2,1,84,,,,,,,,,,,,,,,,,,,,
,,,,,84,2020-07-04_10h52.16.971,retriever_ti,2020.1.3,MacIntel,60,Safari,1440,900,,,,,,,,,,,,,,,,,1,,,,,,,,,,,,,,,,,,,,,,,,,,,708.259,60,right,1.303,wolf          ,4,1,3,1,3,708.276,708.276,710.776,0,59,59,59,1,60,1,4,sport_tshirt,wolf          ,html/resources/sequences_IDs/B/07_sport_tshirt.jpg,html/resources/sequences_IDs/A/01_wolf.jpg,7,1,3,2,1,1,6,1,0,84,,,,,,,,,,,,,,,,,,,,
,,,,,84,2020-07-04_10h52.16.971,retriever_ti,2020.1.3,MacIntel,60,Safari,1440,900,,,,,,,,,,,,,,,,,1,,,,,,,,,,,,,,,,,,,,,,,,,,,711.377,61,right,1.034,peacock       ,6,5,1,1,1,711.409,711.409,713.91,0,60,60,60,1,61,5,6,phone       ,peacock       ,html/resources/sequences_IDs/B/09_phone.jpg,html/resources/sequences_IDs/A/05_peacock.jpg,9,5,4,2,2,1,8,4,0,84,,,,,,,,,,,,,,,,,,,,
,,,,,84,2020-07-04_10h52.16.971,retriever_ti,2020.1.3,MacIntel,60,Safari,1440,900,,,,,,,,,,,,,,,,,1,,,,,,,,,,,,,,,,,,,,,,,,,,,715.01,62,left,1.044,hat           ,2,8,1,1,1,715.027,715.027,717.527,0,61,61,61,1,62,2,1,hat           ,sport_tshirt,html/resources/sequences_IDs/A/08_hat.jpg,html/resources/sequences_IDs/B/07_sport_tshirt.jpg,8,7,3,2,3,2,7,6,0,84,,,,,,,,,,,,,,,,,,,,
,,,,,84,2020-07-04_10h52.16.971,retriever_ti,2020.1.3,MacIntel,60,Safari,1440,900,,,,,,,,,,,,,,,,,1,,,,,,,,,,,,,,,,,,,,,,,,,,,718.628,63,right,1.121,scarf         ,8,6,7,1,3,718.66,718.66,721.161,0,62,62,62,1,63,1,8,sport_tshirt,scarf         ,html/resources/sequences_IDs/B/07_sport_tshirt.jpg,html/resources/sequences_IDs/A/06_scarf.jpg,7,6,3,2,3,2,6,5,0,84,,,,,,,,,,,,,,,,,,,,
,,,,,84,2020-07-04_10h52.16.971,retriever_ti,2020.1.3,MacIntel,60,Safari,1440,900,,,,,,,,,,,,,,,,,1,,,,,,,,,,,,,,,,,,,,,,,,,,,721.761,64,left,1.418,wolf          ,4,1,-1,0,0,721.795,721.795,724.295,0,63,63,63,1,64,4,5,wolf          ,phone       ,html/resources/sequences_IDs/A/01_wolf.jpg,html/resources/sequences_IDs/B/09_phone.jpg,1,9,1,1,4,2,1,8,0,84,,,,,,,,,,,,,,,,,,,,
,,,,,84,2020-07-04_10h52.16.971,retriever_ti,2020.1.3,MacIntel,60,Safari,1440,900,,,,,,,,,,,,,,,,,1,,,,,,,,,,,,,,,,,,,,,,,,,,,725.396,65,left,0.93,scarf         ,8,6,5,1,3,725.412,725.412,727.912,0,64,64,64,1,65,8,3,scarf         ,giraffe     ,html/resources/sequences_IDs/A/06_scarf.jpg,html/resources/sequences_IDs/B/03_giraffe.jpg,6,3,3,2,1,1,5,2,0,84,,,,,,,,,,,,,,,,,,,,
,,,,,84,2020-07-04_10h52.16.971,retriever_ti,2020.1.3,MacIntel,60,Safari,1440,900,,,,,,,,,,,,,,,,,1,,,,,,,,,,,,,,,,,,,,,,,,,,,728.513,66,left,0.862,giraffe     ,3,3,2,1,3,728.529,728.529,731.029,0,65,65,65,1,66,3,1,giraffe     ,sport_tshirt,html/resources/sequences_IDs/B/03_giraffe.jpg,html/resources/sequences_IDs/B/07_sport_tshirt.jpg,3,7,1,1,3,2,2,6,0,84,,,,,,,,,,,,,,,,,,,,
,,,,,84,2020-07-04_10h52.16.971,retriever_ti,2020.1.3,MacIntel,60,Safari,1440,900,,,,,,,,,,,,,,,,,1,,,,,,,,,,,,,,,,,,,,,,,,,,,731.629,67,right,1.104,peacock       ,6,5,4,1,3,731.646,731.646,734.147,0,66,66,66,1,67,2,6,hat           ,peacock       ,html/resources/sequences_IDs/A/08_hat.jpg,html/resources/sequences_IDs/A/05_peacock.jpg,8,5,3,2,2,1,7,4,0,84,,,,,,,,,,,,,,,,,,,,
,,,,,84,2020-07-04_10h52.16.971,retriever_ti,2020.1.3,MacIntel,60,Safari,1440,900,,,,,,,,,,,,,,,,,1,,,,,,,,,,,,,,,,,,,,,,,,,,,734.747,68,left,0.724,scarf         ,8,6,4,1,3,734.78,734.78,737.281,0,67,67,67,1,68,8,4,scarf         ,wolf          ,html/resources/sequences_IDs/A/06_scarf.jpg,html/resources/sequences_IDs/A/01_wolf.jpg,6,1,3,2,1,1,5,1,0,84,,,,,,,,,,,,,,,,,,,,
,,,,,84,2020-07-04_10h52.16.971,retriever_ti,2020.1.3,MacIntel,60,Safari,1440,900,,,,,,,,,,,,,,,,,1,,,,,,,,,,,,,,,,,,,,,,,,,,,737.897,69,right,1.269,peacock       ,6,5,3,1,3,737.914,737.914,740.414,0,68,68,68,1,69,3,6,giraffe     ,peacock       ,html/resources/sequences_IDs/B/03_giraffe.jpg,html/resources/sequences_IDs/A/05_peacock.jpg,3,5,1,1,2,1,2,4,0,84,,,,,,,,,,,,,,,,,,,,
,,,,,84,2020-07-04_10h52.16.971,retriever_ti,2020.1.3,MacIntel,60,Safari,1440,900,,,,,,,,,,,,,,,,,1,,,,,,,,,,,,,,,,,,,,,,,,,,,741.031,70,right,1.888,wolf          ,4,1,-3,0,3,741.047,741.047,743.548,0,69,69,69,1,70,7,4,holdfast    ,wolf          ,html/resources/sequences_IDs/B/04_holdfast.jpg,html/resources/sequences_IDs/A/01_wolf.jpg,4,1,2,1,1,1,3,1,0,84,,,,,,,,,,,,,,,,,,,,
,,,,,84,2020-07-04_10h52.16.971,retriever_ti,2020.1.3,MacIntel,60,Safari,1440,900,,,,,,,,,,,,,,,,,1,,,,,,,,,,,,,,,,,,,,,,,,,,,744.165,71,right,1.184,wolf          ,4,1,2,1,3,744.2,744.2,746.699,0,70,70,70,1,71,2,4,hat           ,wolf          ,html/resources/sequences_IDs/A/08_hat.jpg,html/resources/sequences_IDs/A/01_wolf.jpg,8,1,3,2,1,1,7,1,0,84,,,,,,,,,,,,,,,,,,,,
,,,,,84,2020-07-04_10h52.16.971,retriever_ti,2020.1.3,MacIntel,60,Safari,1440,900,,,,,,,,,,,,,,,,,1,,,,,,,,,,,,,,,,,,,,,,,,,,,747.315,72,left,0.785,giraffe     ,3,3,-2,0,3,747.349,747.349,749.849,0,71,71,71,1,72,3,5,giraffe     ,phone       ,html/resources/sequences_IDs/B/03_giraffe.jpg,html/resources/sequences_IDs/B/09_phone.jpg,3,9,1,1,4,2,2,8,0,84,,,,,,,,,,,,,,,,,,,,
,,,,,84,2020-07-04_10h52.16.971,retriever_ti,2020.1.3,MacIntel,60,Safari,1440,900,,,,,,,,,,,,,,,,,1,,,,,,,,,,,,,,,,,,,,,,,,,,,750.451,73,right,1.047,peacock       ,6,5,1,1,1,750.466,750.466,752.966,0,72,72,72,1,73,5,6,phone       ,peacock       ,html/resources/sequences_IDs/B/09_phone.jpg,html/resources/sequences_IDs/A/05_peacock.jpg,9,5,4,2,2,1,8,4,0,84,,,,,,,,,,,,,,,,,,,,
,,,,,84,2020-07-04_10h52.16.971,retriever_ti,2020.1.3,MacIntel,60,Safari,1440,900,,,,,,,,,,,,,,,,,1,,,,,,,,,,,,,,,,,,,,,,,,,,,754.067,74,right,0.871,hat           ,2,8,1,1,1,754.083,754.083,756.585,0,73,73,73,1,74,1,2,sport_tshirt,hat           ,html/resources/sequences_IDs/B/07_sport_tshirt.jpg,html/resources/sequences_IDs/A/08_hat.jpg,7,8,3,2,3,2,6,7,0,84,,,,,,,,,,,,,,,,,,,,
,,,,,84,2020-07-04_10h52.16.971,retriever_ti,2020.1.3,MacIntel,60,Safari,1440,900,,,,,,,,,,,,,,,,,1,,,,,,,,,,,,,,,,,,,,,,,,,,,757.684,75,left,0.834,scarf         ,8,6,7,1,3,757.702,757.702,760.201,0,74,74,74,1,75,8,1,scarf         ,sport_tshirt,html/resources/sequences_IDs/A/06_scarf.jpg,html/resources/sequences_IDs/B/07_sport_tshirt.jpg,6,7,3,2,3,2,5,6,0,84,,,,,,,,,,,,,,,,,,,,
,,,,,84,2020-07-04_10h52.16.971,retriever_ti,2020.1.3,MacIntel,60,Safari,1440,900,,,,,,,,,,,,,,,,,1,,,,,,,,,,,,,,,,,,,,,,,,,,,760.801,76,right,1.777,wolf          ,4,1,1,1,0,760.819,760.819,763.318,0,75,75,75,1,76,3,4,giraffe     ,wolf          ,html/resources/sequences_IDs/B/03_giraffe.jpg,html/resources/sequences_IDs/A/01_wolf.jpg,3,1,1,1,1,1,2,1,1,84,,,,,,,,,,,,,,,,,,,,
,,,,,84,2020-07-04_10h52.16.971,retriever_ti,2020.1.3,MacIntel,60,Safari,1440,900,,,,,,,,,,,,,,,,,1,,,,,,,,,,,,,,,,,,,,,,,,,,,764.419,77,left,0.848,peacock       ,6,5,4,1,3,764.435,764.435,766.935,0,76,76,76,1,77,6,2,peacock       ,hat           ,html/resources/sequences_IDs/A/05_peacock.jpg,html/resources/sequences_IDs/A/08_hat.jpg,5,8,2,1,3,2,4,7,0,84,,,,,,,,,,,,,,,,,,,,
,,,,,84,2020-07-04_10h52.16.971,retriever_ti,2020.1.3,MacIntel,60,Safari,1440,900,,,,,,,,,,,,,,,,,,,,,,,,,,,,,,,,,,,,,0,3.882,,,,,,,,,,,,,,,,,,,,,,,,,,,,,,,,,,,,,,,,,0,0,0,0,1,,,,,,,,,,,,,,,
,,,,,84,2020-07-04_10h52.16.971,retriever_ti,2020.1.3,MacIntel,60,Safari,1440,900,,,,,,,,,,,,,,,,,2,,,,,,,,,,,,,,,,,,,,,,,,,,,819.917,78,right,1.137,holdfast    ,7,4,4,1,3,819.943,819.943,822.444,0,0,0,0,1,78,3,7,giraffe     ,holdfast    ,html/resources/sequences_IDs/B/03_giraffe.jpg,html/resources/sequences_IDs/B/04_holdfast.jpg,3,4,1,1,2,1,2,3,0,84,,,,,,,,,,,,,,,,,,,,
,,,,,84,2020-07-04_10h52.16.971,retriever_ti,2020.1.3,MacIntel,60,Safari,1440,900,,,,,,,,,,,,,,,,,2,,,,,,,,,,,,,,,,,,,,,,,,,,,823.044,79,right,0.792,peacock       ,6,5,5,1,3,823.06,823.06,825.561,0,1,1,1,1,79,1,6,sport_tshirt,peacock       ,html/resources/sequences_IDs/B/07_sport_tshirt.jpg,html/resources/sequences_IDs/A/05_peacock.jpg,7,5,3,2,2,1,6,4,0,84,,,,,,,,,,,,,,,,,,,,
,,,,,84,2020-07-04_10h52.16.971,retriever_ti,2020.1.3,MacIntel,60,Safari,1440,900,,,,,,,,,,,,,,,,,2,,,,,,,,,,,,,,,,,,,,,,,,,,,826.162,80,left,1.289,peacock       ,6,5,3,1,3,826.195,826.195,828.695,0,2,2,2,1,80,6,3,peacock       ,giraffe     ,html/resources/sequences_IDs/A/05_peacock.jpg,html/resources/sequences_IDs/B/03_giraffe.jpg,5,3,2,1,1,1,4,2,0,84,,,,,,,,,,,,,,,,,,,,
,,,,,84,2020-07-04_10h52.16.971,retriever_ti,2020.1.3,MacIntel,60,Safari,1440,900,,,,,,,,,,,,,,,,,2,,,,,,,,,,,,,,,,,,,,,,,,,,,829.295,81,right,0.646,peacock       ,6,5,1,1,1,829.358,829.358,831.829,0,3,3,3,1,81,5,6,phone       ,peacock       ,html/resources/sequences_IDs/B/09_phone.jpg,html/resources/sequences_IDs/A/05_peacock.jpg,9,5,4,2,2,1,8,4,0,84,,,,,,,,,,,,,,,,,,,,
,,,,,84,2020-07-04_10h52.16.971,retriever_ti,2020.1.3,MacIntel,60,Safari,1440,900,,,,,,,,,,,,,,,,,2,,,,,,,,,,,,,,,,,,,,,,,,,,,832.93,82,right,1.142,wolf          ,4,1,-1,0,0,832.963,832.963,835.463,0,4,4,4,1,82,5,4,phone       ,wolf          ,html/resources/sequences_IDs/B/09_phone.jpg,html/resources/sequences_IDs/A/01_wolf.jpg,9,1,4,2,1,1,8,1,0,84,,,,,,,,,,,,,,,,,,,,
,,,,,84,2020-07-04_10h52.16.971,retriever_ti,2020.1.3,MacIntel,60,Safari,1440,900,,,,,,,,,,,,,,,,,2,,,,,,,,,,,,,,,,,,,,,,,,,,,836.563,83,left,0.779,hat           ,2,8,1,1,1,836.579,836.579,839.08,0,5,5,5,1,83,2,1,hat           ,sport_tshirt,html/resources/sequences_IDs/A/08_hat.jpg,html/resources/sequences_IDs/B/07_sport_tshirt.jpg,8,7,3,2,3,2,7,6,0,84,,,,,,,,,,,,,,,,,,,,
,,,,,84,2020-07-04_10h52.16.971,retriever_ti,2020.1.3,MacIntel,60,Safari,1440,900,,,,,,,,,,,,,,,,,2,,,,,,,,,,,,,,,,,,,,,,,,,,,840.18,84,right,0.752,giraffe     ,3,3,-2,0,3,840.197,840.197,842.697,0,6,6,6,1,84,5,3,phone       ,giraffe     ,html/resources/sequences_IDs/B/09_phone.jpg,html/resources/sequences_IDs/B/03_giraffe.jpg,9,3,4,2,1,1,8,2,0,84,,,,,,,,,,,,,,,,,,,,
,,,,,84,2020-07-04_10h52.16.971,retriever_ti,2020.1.3,MacIntel,60,Safari,1440,900,,,,,,,,,,,,,,,,,2,,,,,,,,,,,,,,,,,,,,,,,,,,,843.297,85,left,0.726,scarf         ,8,6,7,1,3,843.314,843.314,845.815,0,7,7,7,1,85,8,1,scarf         ,sport_tshirt,html/resources/sequences_IDs/A/06_scarf.jpg,html/resources/sequences_IDs/B/07_sport_tshirt.jpg,6,7,3,2,3,2,5,6,0,84,,,,,,,,,,,,,,,,,,,,
,,,,,84,2020-07-04_10h52.16.971,retriever_ti,2020.1.3,MacIntel,60,Safari,1440,900,,,,,,,,,,,,,,,,,2,,,,,,,,,,,,,,,,,,,,,,,,,,,846.431,86,left,1.384,hat           ,2,8,1,1,1,846.466,846.466,848.965,0,8,8,8,1,86,2,1,hat           ,sport_tshirt,html/resources/sequences_IDs/A/08_hat.jpg,html/resources/sequences_IDs/B/07_sport_tshirt.jpg,8,7,3,2,3,2,7,6,0,84,,,,,,,,,,,,,,,,,,,,
,,,,,84,2020-07-04_10h52.16.971,retriever_ti,2020.1.3,MacIntel,60,Safari,1440,900,,,,,,,,,,,,,,,,,2,,,,,,,,,,,,,,,,,,,,,,,,,,,850.066,87,left,1.158,holdfast    ,7,4,-1,0,0,850.084,850.084,852.583,0,9,9,9,1,87,7,8,holdfast    ,scarf         ,html/resources/sequences_IDs/B/04_holdfast.jpg,html/resources/sequences_IDs/A/06_scarf.jpg,4,6,2,1,3,2,3,5,0,84,,,,,,,,,,,,,,,,,,,,
,,,,,84,2020-07-04_10h52.16.971,retriever_ti,2020.1.3,MacIntel,60,Safari,1440,900,,,,,,,,,,,,,,,,,2,,,,,,,,,,,,,,,,,,,,,,,,,,,853.683,88,right,0.962,hat           ,2,8,1,1,1,853.716,853.716,856.217,0,10,10,10,1,88,1,2,sport_tshirt,hat           ,html/resources/sequences_IDs/B/07_sport_tshirt.jpg,html/resources/sequences_IDs/A/08_hat.jpg,7,8,3,2,3,2,6,7,0,84,,,,,,,,,,,,,,,,,,,,
,,,,,84,2020-07-04_10h52.16.971,retriever_ti,2020.1.3,MacIntel,60,Safari,1440,900,,,,,,,,,,,,,,,,,2,,,,,,,,,,,,,,,,,,,,,,,,,,,857.317,89,right,0.728,scarf         ,8,6,6,1,3,857.351,857.351,859.85,0,11,11,11,1,89,2,8,hat           ,scarf         ,html/resources/sequences_IDs/A/08_hat.jpg,html/resources/sequences_IDs/A/06_scarf.jpg,8,6,3,2,3,2,7,5,0,84,,,,,,,,,,,,,,,,,,,,
,,,,,84,2020-07-04_10h52.16.971,retriever_ti,2020.1.3,MacIntel,60,Safari,1440,900,,,,,,,,,,,,,,,,,2,,,,,,,,,,,,,,,,,,,,,,,,,,,860.451,90,right,0.792,peacock       ,6,5,1,1,1,860.468,860.468,862.967,0,12,12,12,1,90,5,6,phone       ,peacock       ,html/resources/sequences_IDs/B/09_phone.jpg,html/resources/sequences_IDs/A/05_peacock.jpg,9,5,4,2,2,1,8,4,0,84,,,,,,,,,,,,,,,,,,,,
,,,,,84,2020-07-04_10h52.16.971,retriever_ti,2020.1.3,MacIntel,60,Safari,1440,900,,,,,,,,,,,,,,,,,2,,,,,,,,,,,,,,,,,,,,,,,,,,,864.068,91,right,0.626,scarf         ,8,6,1,1,1,864.103,864.103,866.601,0,13,13,13,1,91,7,8,holdfast    ,scarf         ,html/resources/sequences_IDs/B/04_holdfast.jpg,html/resources/sequences_IDs/A/06_scarf.jpg,4,6,2,1,3,2,3,5,0,84,,,,,,,,,,,,,,,,,,,,
,,,,,84,2020-07-04_10h52.16.971,retriever_ti,2020.1.3,MacIntel,60,Safari,1440,900,,,,,,,,,,,,,,,,,2,,,,,,,,,,,,,,,,,,,,,,,,,,,867.702,92,left,1.186,holdfast    ,7,4,3,1,3,867.735,867.735,870.236,0,14,14,14,1,92,7,4,holdfast    ,wolf          ,html/resources/sequences_IDs/B/04_holdfast.jpg,html/resources/sequences_IDs/A/01_wolf.jpg,4,1,2,1,1,1,3,1,0,84,,,,,,,,,,,,,,,,,,,,
,,,,,84,2020-07-04_10h52.16.971,retriever_ti,2020.1.3,MacIntel,60,Safari,1440,900,,,,,,,,,,,,,,,,,2,,,,,,,,,,,,,,,,,,,,,,,,,,,870.852,93,right,1.18,giraffe     ,3,3,1,1,1,870.869,870.869,873.369,0,15,15,15,1,93,2,3,hat           ,giraffe     ,html/resources/sequences_IDs/A/08_hat.jpg,html/resources/sequences_IDs/B/03_giraffe.jpg,8,3,3,2,1,1,7,2,0,84,,,,,,,,,,,,,,,,,,,,
,,,,,84,2020-07-04_10h52.16.971,retriever_ti,2020.1.3,MacIntel,60,Safari,1440,900,,,,,,,,,,,,,,,,,2,,,,,,,,,,,,,,,,,,,,,,,,,,,874.47,94,left,1.545,giraffe     ,3,3,-1,0,0,874.486,874.486,876.987,0,16,16,16,1,94,3,4,giraffe     ,wolf          ,html/resources/sequences_IDs/B/03_giraffe.jpg,html/resources/sequences_IDs/A/01_wolf.jpg,3,1,1,1,1,1,2,1,0,84,,,,,,,,,,,,,,,,,,,,
,,,,,84,2020-07-04_10h52.16.971,retriever_ti,2020.1.3,MacIntel,60,Safari,1440,900,,,,,,,,,,,,,,,,,2,,,,,,,,,,,,,,,,,,,,,,,,,,,878.087,95,right,1.371,hat           ,2,8,1,1,0,878.105,878.105,880.604,0,17,17,17,1,95,1,2,sport_tshirt,hat           ,html/resources/sequences_IDs/B/07_sport_tshirt.jpg,html/resources/sequences_IDs/A/08_hat.jpg,7,8,3,2,3,2,6,7,1,84,,,,,,,,,,,,,,,,,,,,
,,,,,84,2020-07-04_10h52.16.971,retriever_ti,2020.1.3,MacIntel,60,Safari,1440,900,,,,,,,,,,,,,,,,,2,,,,,,,,,,,,,,,,,,,,,,,,,,,881.705,96,left,1.567,scarf         ,8,6,1,1,1,881.739,881.739,884.237,0,18,18,18,1,96,8,7,scarf         ,holdfast    ,html/resources/sequences_IDs/A/06_scarf.jpg,html/resources/sequences_IDs/B/04_holdfast.jpg,6,4,3,2,2,1,5,3,0,84,,,,,,,,,,,,,,,,,,,,
,,,,,84,2020-07-04_10h52.16.971,retriever_ti,2020.1.3,MacIntel,60,Safari,1440,900,,,,,,,,,,,,,,,,,2,,,,,,,,,,,,,,,,,,,,,,,,,,,885.339,97,left,1.223,peacock       ,6,5,4,1,3,885.372,885.372,887.872,0,19,19,19,1,97,6,2,peacock       ,hat           ,html/resources/sequences_IDs/A/05_peacock.jpg,html/resources/sequences_IDs/A/08_hat.jpg,5,8,2,1,3,2,4,7,0,84,,,,,,,,,,,,,,,,,,,,
,,,,,84,2020-07-04_10h52.16.971,retriever_ti,2020.1.3,MacIntel,60,Safari,1440,900,,,,,,,,,,,,,,,,,2,,,,,,,,,,,,,,,,,,,,,,,,,,,888.489,98,right,1.032,hat           ,2,8,-3,0,3,888.521,888.521,891.022,0,20,20,20,1,98,5,2,phone       ,hat           ,html/resources/sequences_IDs/B/09_phone.jpg,html/resources/sequences_IDs/A/08_hat.jpg,9,8,4,2,3,2,8,7,0,84,,,,,,,,,,,,,,,,,,,,
,,,,,84,2020-07-04_10h52.16.971,retriever_ti,2020.1.3,MacIntel,60,Safari,1440,900,,,,,,,,,,,,,,,,,2,,,,,,,,,,,,,,,,,,,,,,,,,,,891.622,99,right,1.458,holdfast    ,7,4,6,1,3,891.639,891.639,894.139,0,21,21,21,1,99,1,7,sport_tshirt,holdfast    ,html/resources/sequences_IDs/B/07_sport_tshirt.jpg,html/resources/sequences_IDs/B/04_holdfast.jpg,7,4,3,2,2,1,6,3,0,84,,,,,,,,,,,,,,,,,,,,
,,,,,84,2020-07-04_10h52.16.971,retriever_ti,2020.1.3,MacIntel,60,Safari,1440,900,,,,,,,,,,,,,,,,,2,,,,,,,,,,,,,,,,,,,,,,,,,,,894.74,100,left,0.798,scarf         ,8,6,4,1,3,894.772,894.772,897.273,0,22,22,22,1,100,8,4,scarf         ,wolf          ,html/resources/sequences_IDs/A/06_scarf.jpg,html/resources/sequences_IDs/A/01_wolf.jpg,6,1,3,2,1,1,5,1,0,84,,,,,,,,,,,,,,,,,,,,
,,,,,84,2020-07-04_10h52.16.971,retriever_ti,2020.1.3,MacIntel,60,Safari,1440,900,,,,,,,,,,,,,,,,,2,,,,,,,,,,,,,,,,,,,,,,,,,,,897.874,101,right,1.377,wolf          ,4,1,-1,0,0,897.89,897.89,900.39,0,23,23,23,1,101,5,4,phone       ,wolf          ,html/resources/sequences_IDs/B/09_phone.jpg,html/resources/sequences_IDs/A/01_wolf.jpg,9,1,4,2,1,1,8,1,0,84,,,,,,,,,,,,,,,,,,,,
,,,,,84,2020-07-04_10h52.16.971,retriever_ti,2020.1.3,MacIntel,60,Safari,1440,900,,,,,,,,,,,,,,,,,2,,,,,,,,,,,,,,,,,,,,,,,,,,,901.491,102,right,2.184,phone       ,5,9,1,1,1,901.524,901.524,904.024,0,24,24,24,1,102,4,5,wolf          ,phone       ,html/resources/sequences_IDs/A/01_wolf.jpg,html/resources/sequences_IDs/B/09_phone.jpg,1,9,1,1,4,2,1,8,0,84,,,,,,,,,,,,,,,,,,,,
,,,,,84,2020-07-04_10h52.16.971,retriever_ti,2020.1.3,MacIntel,60,Safari,1440,900,,,,,,,,,,,,,,,,,2,,,,,,,,,,,,,,,,,,,,,,,,,,,905.125,103,left,1.925,holdfast    ,7,4,1,1,0,905.141,905.141,907.64,0,25,25,25,1,103,7,6,holdfast    ,peacock       ,html/resources/sequences_IDs/B/04_holdfast.jpg,html/resources/sequences_IDs/A/05_peacock.jpg,4,5,2,1,2,1,3,4,1,84,,,,,,,,,,,,,,,,,,,,
,,,,,84,2020-07-04_10h52.16.971,retriever_ti,2020.1.3,MacIntel,60,Safari,1440,900,,,,,,,,,,,,,,,,,2,,,,,,,,,,,,,,,,,,,,,,,,,,,908.741,104,right,1.792,phone       ,5,9,4,1,3,908.76,908.76,911.259,0,26,26,26,1,104,1,5,sport_tshirt,phone       ,html/resources/sequences_IDs/B/07_sport_tshirt.jpg,html/resources/sequences_IDs/B/09_phone.jpg,7,9,3,2,4,2,6,8,0,84,,,,,,,,,,,,,,,,,,,,
,,,,,84,2020-07-04_10h52.16.971,retriever_ti,2020.1.3,MacIntel,60,Safari,1440,900,,,,,,,,,,,,,,,,,2,,,,,,,,,,,,,,,,,,,,,,,,,,,911.875,105,left,1.053,giraffe     ,3,3,2,1,3,911.91,911.91,914.409,0,27,27,27,1,105,3,1,giraffe     ,sport_tshirt,html/resources/sequences_IDs/B/03_giraffe.jpg,html/resources/sequences_IDs/B/07_sport_tshirt.jpg,3,7,1,1,3,2,2,6,0,84,,,,,,,,,,,,,,,,,,,,
,,,,,84,2020-07-04_10h52.16.971,retriever_ti,2020.1.3,MacIntel,60,Safari,1440,900,,,,,,,,,,,,,,,,,2,,,,,,,,,,,,,,,,,,,,,,,,,,,915.026,106,left,1.416,wolf          ,4,1,3,1,3,915.042,915.042,917.543,0,28,28,28,1,106,4,1,wolf          ,sport_tshirt,html/resources/sequences_IDs/A/01_wolf.jpg,html/resources/sequences_IDs/B/07_sport_tshirt.jpg,1,7,1,1,3,2,1,6,0,84,,,,,,,,,,,,,,,,,,,,
,,,,,84,2020-07-04_10h52.16.971,retriever_ti,2020.1.3,MacIntel,60,Safari,1440,900,,,,,,,,,,,,,,,,,2,,,,,,,,,,,,,,,,,,,,,,,,,,,918.16,107,left,1.012,scarf         ,8,6,3,1,3,918.176,918.176,920.677,0,29,29,29,1,107,8,5,scarf         ,phone       ,html/resources/sequences_IDs/A/06_scarf.jpg,html/resources/sequences_IDs/B/09_phone.jpg,6,9,3,2,4,2,5,8,0,84,,,,,,,,,,,,,,,,,,,,
,,,,,84,2020-07-04_10h52.16.971,retriever_ti,2020.1.3,MacIntel,60,Safari,1440,900,,,,,,,,,,,,,,,,,2,,,,,,,,,,,,,,,,,,,,,,,,,,,921.277,108,left,0.947,peacock       ,6,5,1,1,0,921.312,921.312,923.81,0,30,30,30,1,108,6,5,peacock       ,phone       ,html/resources/sequences_IDs/A/05_peacock.jpg,html/resources/sequences_IDs/B/09_phone.jpg,5,9,2,1,4,2,4,8,1,84,,,,,,,,,,,,,,,,,,,,
,,,,,84,2020-07-04_10h52.16.971,retriever_ti,2020.1.3,MacIntel,60,Safari,1440,900,,,,,,,,,,,,,,,,,2,,,,,,,,,,,,,,,,,,,,,,,,,,,924.912,109,right,1.729,giraffe     ,3,3,-1,0,1,924.927,924.927,927.428,0,31,31,31,1,109,4,3,wolf          ,giraffe     ,html/resources/sequences_IDs/A/01_wolf.jpg,html/resources/sequences_IDs/B/03_giraffe.jpg,1,3,1,1,1,1,1,2,1,84,,,,,,,,,,,,,,,,,,,,
,,,,,84,2020-07-04_10h52.16.971,retriever_ti,2020.1.3,MacIntel,60,Safari,1440,900,,,,,,,,,,,,,,,,,2,,,,,,,,,,,,,,,,,,,,,,,,,,,928.528,110,left,1.202,holdfast    ,7,4,1,1,1,928.562,928.562,931.062,0,32,32,32,1,110,7,6,holdfast    ,peacock       ,html/resources/sequences_IDs/B/04_holdfast.jpg,html/resources/sequences_IDs/A/05_peacock.jpg,4,5,2,1,2,1,3,4,0,84,,,,,,,,,,,,,,,,,,,,
,,,,,84,2020-07-04_10h52.16.971,retriever_ti,2020.1.3,MacIntel,60,Safari,1440,900,,,,,,,,,,,,,,,,,2,,,,,,,,,,,,,,,,,,,,,,,,,,,932.162,111,right,0.665,holdfast    ,7,4,3,1,3,932.197,932.197,934.696,0,33,33,33,1,111,4,7,wolf          ,holdfast    ,html/resources/sequences_IDs/A/01_wolf.jpg,html/resources/sequences_IDs/B/04_holdfast.jpg,1,4,1,1,2,1,1,3,0,84,,,,,,,,,,,,,,,,,,,,
,,,,,84,2020-07-04_10h52.16.971,retriever_ti,2020.1.3,MacIntel,60,Safari,1440,900,,,,,,,,,,,,,,,,,2,,,,,,,,,,,,,,,,,,,,,,,,,,,935.313,112,right,1.633,peacock       ,6,5,-1,0,0,935.329,935.329,937.83,0,34,34,34,1,112,7,6,holdfast    ,peacock       ,html/resources/sequences_IDs/B/04_holdfast.jpg,html/resources/sequences_IDs/A/05_peacock.jpg,4,5,2,1,2,1,3,4,0,84,,,,,,,,,,,,,,,,,,,,
,,,,,84,2020-07-04_10h52.16.971,retriever_ti,2020.1.3,MacIntel,60,Safari,1440,900,,,,,,,,,,,,,,,,,2,,,,,,,,,,,,,,,,,,,,,,,,,,,938.93,113,right,1.236,wolf          ,4,1,2,1,3,938.946,938.946,941.447,0,35,35,35,1,113,2,4,hat           ,wolf          ,html/resources/sequences_IDs/A/08_hat.jpg,html/resources/sequences_IDs/A/01_wolf.jpg,8,1,3,2,1,1,7,1,0,84,,,,,,,,,,,,,,,,,,,,
,,,,,84,2020-07-04_10h52.16.971,retriever_ti,2020.1.3,MacIntel,60,Safari,1440,900,,,,,,,,,,,,,,,,,2,,,,,,,,,,,,,,,,,,,,,,,,,,,942.064,114,right,1.907,peacock       ,6,5,3,1,3,942.08,942.08,944.58,0,36,36,36,1,114,3,6,giraffe     ,peacock       ,html/resources/sequences_IDs/B/03_giraffe.jpg,html/resources/sequences_IDs/A/05_peacock.jpg,3,5,1,1,2,1,2,4,0,84,,,,,,,,,,,,,,,,,,,,
,,,,,84,2020-07-04_10h52.16.971,retriever_ti,2020.1.3,MacIntel,60,Safari,1440,900,,,,,,,,,,,,,,,,,2,,,,,,,,,,,,,,,,,,,,,,,,,,,945.181,115,left,0.799,scarf         ,8,6,5,1,3,945.214,945.214,947.714,0,37,37,37,1,115,8,3,scarf         ,giraffe     ,html/resources/sequences_IDs/A/06_scarf.jpg,html/resources/sequences_IDs/B/03_giraffe.jpg,6,3,3,2,1,1,5,2,0,84,,,,,,,,,,,,,,,,,,,,
,,,,,84,2020-07-04_10h52.16.971,retriever_ti,2020.1.3,MacIntel,60,Safari,1440,900,,,,,,,,,,,,,,,,,2,,,,,,,,,,,,,,,,,,,,,,,,,,,948.315,116,left,1.106,holdfast    ,7,4,2,1,3,948.35,948.35,950.849,0,38,38,38,1,116,7,5,holdfast    ,phone       ,html/resources/sequences_IDs/B/04_holdfast.jpg,html/resources/sequences_IDs/B/09_phone.jpg,4,9,2,1,4,2,3,8,0,84,,,,,,,,,,,,,,,,,,,,
,,,,,84,2020-07-04_10h52.16.971,retriever_ti,2020.1.3,MacIntel,60,Safari,1440,900,,,,,,,,,,,,,,,,,2,,,,,,,,,,,,,,,,,,,,,,,,,,,951.466,117,left,1.397,peacock       ,6,5,5,1,3,951.482,951.482,953.981,0,39,39,39,1,117,6,1,peacock       ,sport_tshirt,html/resources/sequences_IDs/A/05_peacock.jpg,html/resources/sequences_IDs/B/07_sport_tshirt.jpg,5,7,2,1,3,2,4,6,0,84,,,,,,,,,,,,,,,,,,,,
,,,,,84,2020-07-04_10h52.16.971,retriever_ti,2020.1.3,MacIntel,60,Safari,1440,900,,,,,,,,,,,,,,,,,2,,,,,,,,,,,,,,,,,,,,,,,,,,,954.583,118,right,1.224,wolf          ,4,1,3,1,3,954.599,954.599,957.1,0,40,40,40,1,118,1,4,sport_tshirt,wolf          ,html/resources/sequences_IDs/B/07_sport_tshirt.jpg,html/resources/sequences_IDs/A/01_wolf.jpg,7,1,3,2,1,1,6,1,0,84,,,,,,,,,,,,,,,,,,,,
,,,,,84,2020-07-04_10h52.16.971,retriever_ti,2020.1.3,MacIntel,60,Safari,1440,900,,,,,,,,,,,,,,,,,2,,,,,,,,,,,,,,,,,,,,,,,,,,,957.717,119,left,1.173,giraffe     ,3,3,1,1,1,957.733,957.733,960.234,0,41,41,41,1,119,3,2,giraffe     ,hat           ,html/resources/sequences_IDs/B/03_giraffe.jpg,html/resources/sequences_IDs/A/08_hat.jpg,3,8,1,1,3,2,2,7,0,84,,,,,,,,,,,,,,,,,,,,
,,,,,84,2020-07-04_10h52.16.971,retriever_ti,2020.1.3,MacIntel,60,Safari,1440,900,,,,,,,,,,,,,,,,,2,,,,,,,,,,,,,,,,,,,,,,,,,,,961.333,120,right,0.691,scarf         ,8,6,3,1,3,961.352,961.352,963.851,0,42,42,42,1,120,5,8,phone       ,scarf         ,html/resources/sequences_IDs/B/09_phone.jpg,html/resources/sequences_IDs/A/06_scarf.jpg,9,6,4,2,3,2,8,5,0,84,,,,,,,,,,,,,,,,,,,,
,,,,,84,2020-07-04_10h52.16.971,retriever_ti,2020.1.3,MacIntel,60,Safari,1440,900,,,,,,,,,,,,,,,,,2,,,,,,,,,,,,,,,,,,,,,,,,,,,964.468,121,left,0.948,giraffe     ,3,3,1,1,0,964.501,964.501,967.004,0,43,43,43,1,121,3,2,giraffe     ,hat           ,html/resources/sequences_IDs/B/03_giraffe.jpg,html/resources/sequences_IDs/A/08_hat.jpg,3,8,1,1,3,2,2,7,1,84,,,,,,,,,,,,,,,,,,,,
,,,,,84,2020-07-04_10h52.16.971,retriever_ti,2020.1.3,MacIntel,60,Safari,1440,900,,,,,,,,,,,,,,,,,2,,,,,,,,,,,,,,,,,,,,,,,,,,,968.102,122,left,1.574,peacock       ,6,5,-1,0,0,968.136,968.136,970.635,0,44,44,44,1,122,6,7,peacock       ,holdfast    ,html/resources/sequences_IDs/A/05_peacock.jpg,html/resources/sequences_IDs/B/04_holdfast.jpg,5,4,2,1,2,1,4,3,0,84,,,,,,,,,,,,,,,,,,,,
,,,,,84,2020-07-04_10h52.16.971,retriever_ti,2020.1.3,MacIntel,60,Safari,1440,900,,,,,,,,,,,,,,,,,2,,,,,,,,,,,,,,,,,,,,,,,,,,,971.736,123,right,0.898,scarf         ,8,6,5,1,3,971.751,971.751,974.252,0,45,45,45,1,123,3,8,giraffe     ,scarf         ,html/resources/sequences_IDs/B/03_giraffe.jpg,html/resources/sequences_IDs/A/06_scarf.jpg,3,6,1,1,3,2,2,5,0,84,,,,,,,,,,,,,,,,,,,,
,,,,,84,2020-07-04_10h52.16.971,retriever_ti,2020.1.3,MacIntel,60,Safari,1440,900,,,,,,,,,,,,,,,,,2,,,,,,,,,,,,,,,,,,,,,,,,,,,974.853,124,right,0.614,scarf         ,8,6,2,1,3,974.871,974.871,977.37,0,46,46,46,1,124,6,8,peacock       ,scarf         ,html/resources/sequences_IDs/A/05_peacock.jpg,html/resources/sequences_IDs/A/06_scarf.jpg,5,6,2,1,3,2,4,5,0,84,,,,,,,,,,,,,,,,,,,,
,,,,,84,2020-07-04_10h52.16.971,retriever_ti,2020.1.3,MacIntel,60,Safari,1440,900,,,,,,,,,,,,,,,,,2,,,,,,,,,,,,,,,,,,,,,,,,,,,977.987,125,left,1.345,wolf          ,4,1,-1,0,1,978.005,978.005,980.504,0,47,47,47,1,125,4,5,wolf          ,phone       ,html/resources/sequences_IDs/A/01_wolf.jpg,html/resources/sequences_IDs/B/09_phone.jpg,1,9,1,1,4,2,1,8,1,84,,,,,,,,,,,,,,,,,,,,
,,,,,84,2020-07-04_10h52.16.971,retriever_ti,2020.1.3,MacIntel,60,Safari,1440,900,,,,,,,,,,,,,,,,,2,,,,,,,,,,,,,,,,,,,,,,,,,,,981.604,126,right,1.171,holdfast    ,7,4,5,1,3,981.621,981.621,984.12,0,48,48,48,1,126,2,7,hat           ,holdfast    ,html/resources/sequences_IDs/A/08_hat.jpg,html/resources/sequences_IDs/B/04_holdfast.jpg,8,4,3,2,2,1,7,3,0,84,,,,,,,,,,,,,,,,,,,,
,,,,,84,2020-07-04_10h52.16.971,retriever_ti,2020.1.3,MacIntel,60,Safari,1440,900,,,,,,,,,,,,,,,,,2,,,,,,,,,,,,,,,,,,,,,,,,,,,984.738,127,right,0.921,peacock       ,6,5,4,1,3,984.771,984.771,987.27,0,49,49,49,1,127,2,6,hat           ,peacock       ,html/resources/sequences_IDs/A/08_hat.jpg,html/resources/sequences_IDs/A/05_peacock.jpg,8,5,3,2,2,1,7,4,0,84,,,,,,,,,,,,,,,,,,,,
,,,,,84,2020-07-04_10h52.16.971,retriever_ti,2020.1.3,MacIntel,60,Safari,1440,900,,,,,,,,,,,,,,,,,2,,,,,,,,,,,,,,,,,,,,,,,,,,,987.871,128,left,1.298,giraffe     ,3,3,-1,0,0,987.888,987.888,990.389,0,50,50,50,1,128,3,4,giraffe     ,wolf          ,html/resources/sequences_IDs/B/03_giraffe.jpg,html/resources/sequences_IDs/A/01_wolf.jpg,3,1,1,1,1,1,2,1,0,84,,,,,,,,,,,,,,,,,,,,
,,,,,84,2020-07-04_10h52.16.971,retriever_ti,2020.1.3,MacIntel,60,Safari,1440,900,,,,,,,,,,,,,,,,,2,,,,,,,,,,,,,,,,,,,,,,,,,,,991.489,129,right,2.01,hat           ,2,8,1,1,1,991.507,991.507,994.005,0,51,51,51,1,129,1,2,sport_tshirt,hat           ,html/resources/sequences_IDs/B/07_sport_tshirt.jpg,html/resources/sequences_IDs/A/08_hat.jpg,7,8,3,2,3,2,6,7,0,84,,,,,,,,,,,,,,,,,,,,
,,,,,84,2020-07-04_10h52.16.971,retriever_ti,2020.1.3,MacIntel,60,Safari,1440,900,,,,,,,,,,,,,,,,,2,,,,,,,,,,,,,,,,,,,,,,,,,,,995.106,130,right,1.145,scarf         ,8,6,4,1,3,995.122,995.122,997.623,0,52,52,52,1,130,4,8,wolf          ,scarf         ,html/resources/sequences_IDs/A/01_wolf.jpg,html/resources/sequences_IDs/A/06_scarf.jpg,1,6,1,1,3,2,1,5,0,84,,,,,,,,,,,,,,,,,,,,
,,,,,84,2020-07-04_10h52.16.971,retriever_ti,2020.1.3,MacIntel,60,Safari,1440,900,,,,,,,,,,,,,,,,,2,,,,,,,,,,,,,,,,,,,,,,,,,,,998.24,131,left,1.647,wolf          ,4,1,1,1,1,998.273,998.273,1000.773,0,53,53,53,1,131,4,3,wolf          ,giraffe     ,html/resources/sequences_IDs/A/01_wolf.jpg,html/resources/sequences_IDs/B/03_giraffe.jpg,1,3,1,1,1,1,1,2,0,84,,,,,,,,,,,,,,,,,,,,
,,,,,84,2020-07-04_10h52.16.971,retriever_ti,2020.1.3,MacIntel,60,Safari,1440,900,,,,,,,,,,,,,,,,,2,,,,,,,,,,,,,,,,,,,,,,,,,,,1001.874,132,left,1.434,giraffe     ,3,3,-2,0,3,1001.89,1001.89,1004.391,0,54,54,54,1,132,3,5,giraffe     ,phone       ,html/resources/sequences_IDs/B/03_giraffe.jpg,html/resources/sequences_IDs/B/09_phone.jpg,3,9,1,1,4,2,2,8,0,84,,,,,,,,,,,,,,,,,,,,
,,,,,84,2020-07-04_10h52.16.971,retriever_ti,2020.1.3,MacIntel,60,Safari,1440,900,,,,,,,,,,,,,,,,,2,,,,,,,,,,,,,,,,,,,,,,,,,,,1005.008,133,right,1.442,giraffe     ,3,3,2,1,3,1005.024,1005.024,1007.525,0,55,55,55,1,133,1,3,sport_tshirt,giraffe     ,html/resources/sequences_IDs/B/07_sport_tshirt.jpg,html/resources/sequences_IDs/B/03_giraffe.jpg,7,3,3,2,1,1,6,2,0,84,,,,,,,,,,,,,,,,,,,,
,,,,,84,2020-07-04_10h52.16.971,retriever_ti,2020.1.3,MacIntel,60,Safari,1440,900,,,,,,,,,,,,,,,,,2,,,,,,,,,,,,,,,,,,,,,,,,,,,1008.142,134,left,1.136,scarf         ,8,6,1,1,1,1008.158,1008.158,1010.658,0,56,56,56,1,134,8,7,scarf         ,holdfast    ,html/resources/sequences_IDs/A/06_scarf.jpg,html/resources/sequences_IDs/B/04_holdfast.jpg,6,4,3,2,2,1,5,3,0,84,,,,,,,,,,,,,,,,,,,,
,,,,,84,2020-07-04_10h52.16.971,retriever_ti,2020.1.3,MacIntel,60,Safari,1440,900,,,,,,,,,,,,,,,,,2,,,,,,,,,,,,,,,,,,,,,,,,,,,1011.759,135,left,1.195,peacock       ,6,5,1,1,1,1011.775,1011.775,1014.275,0,57,57,57,1,135,6,5,peacock       ,phone       ,html/resources/sequences_IDs/A/05_peacock.jpg,html/resources/sequences_IDs/B/09_phone.jpg,5,9,2,1,4,2,4,8,0,84,,,,,,,,,,,,,,,,,,,,
,,,,,84,2020-07-04_10h52.16.971,retriever_ti,2020.1.3,MacIntel,60,Safari,1440,900,,,,,,,,,,,,,,,,,2,,,,,,,,,,,,,,,,,,,,,,,,,,,1015.376,136,right,1.784,sport_tshirt,1,7,-4,0,3,1015.409,1015.409,1017.91,0,58,58,58,1,136,5,1,phone       ,sport_tshirt,html/resources/sequences_IDs/B/09_phone.jpg,html/resources/sequences_IDs/B/07_sport_tshirt.jpg,9,7,4,2,3,2,8,6,0,84,,,,,,,,,,,,,,,,,,,,
,,,,,84,2020-07-04_10h52.16.971,retriever_ti,2020.1.3,MacIntel,60,Safari,1440,900,,,,,,,,,,,,,,,,,2,,,,,,,,,,,,,,,,,,,,,,,,,,,1018.526,137,right,1.221,scarf         ,8,6,1,1,0,1018.549,1018.549,1021.045,0,59,59,59,1,137,7,8,holdfast    ,scarf         ,html/resources/sequences_IDs/B/04_holdfast.jpg,html/resources/sequences_IDs/A/06_scarf.jpg,4,6,2,1,3,2,3,5,1,84,,,,,,,,,,,,,,,,,,,,
,,,,,84,2020-07-04_10h52.16.971,retriever_ti,2020.1.3,MacIntel,60,Safari,1440,900,,,,,,,,,,,,,,,,,2,,,,,,,,,,,,,,,,,,,,,,,,,,,1022.144,138,left,1.315,scarf         ,8,6,6,1,3,1022.176,1022.176,1024.677,0,60,60,60,1,138,8,2,scarf         ,hat           ,html/resources/sequences_IDs/A/06_scarf.jpg,html/resources/sequences_IDs/A/08_hat.jpg,6,8,3,2,3,2,5,7,0,84,,,,,,,,,,,,,,,,,,,,
,,,,,84,2020-07-04_10h52.16.971,retriever_ti,2020.1.3,MacIntel,60,Safari,1440,900,,,,,,,,,,,,,,,,,2,,,,,,,,,,,,,,,,,,,,,,,,,,,1025.295,139,left,1.407,wolf          ,4,1,2,1,3,1025.311,1025.311,1027.81,0,61,61,61,1,139,4,2,wolf          ,hat           ,html/resources/sequences_IDs/A/01_wolf.jpg,html/resources/sequences_IDs/A/08_hat.jpg,1,8,1,1,3,2,1,7,0,84,,,,,,,,,,,,,,,,,,,,
,,,,,84,2020-07-04_10h52.16.971,retriever_ti,2020.1.3,MacIntel,60,Safari,1440,900,,,,,,,,,,,,,,,,,2,,,,,,,,,,,,,,,,,,,,,,,,,,,1028.411,140,left,1.039,holdfast    ,7,4,5,1,3,1028.427,1028.427,1030.928,0,62,62,62,1,140,7,2,holdfast    ,hat           ,html/resources/sequences_IDs/B/04_holdfast.jpg,html/resources/sequences_IDs/A/08_hat.jpg,4,8,2,1,3,2,3,7,0,84,,,,,,,,,,,,,,,,,,,,
,,,,,84,2020-07-04_10h52.16.971,retriever_ti,2020.1.3,MacIntel,60,Safari,1440,900,,,,,,,,,,,,,,,,,2,,,,,,,,,,,,,,,,,,,,,,,,,,,1031.545,141,right,1.067,peacock       ,6,5,2,1,3,1031.562,1031.562,1034.061,0,63,63,63,1,141,4,6,wolf          ,peacock       ,html/resources/sequences_IDs/A/01_wolf.jpg,html/resources/sequences_IDs/A/05_peacock.jpg,1,5,1,1,2,1,1,4,0,84,,,,,,,,,,,,,,,,,,,,
,,,,,84,2020-07-04_10h52.16.971,retriever_ti,2020.1.3,MacIntel,60,Safari,1440,900,,,,,,,,,,,,,,,,,2,,,,,,,,,,,,,,,,,,,,,,,,,,,1034.663,142,right,1.513,peacock       ,6,5,-2,0,3,1034.696,1034.696,1037.196,0,64,64,64,1,142,8,6,scarf         ,peacock       ,html/resources/sequences_IDs/A/06_scarf.jpg,html/resources/sequences_IDs/A/05_peacock.jpg,6,5,3,2,2,1,5,4,0,84,,,,,,,,,,,,,,,,,,,,
,,,,,84,2020-07-04_10h52.16.971,retriever_ti,2020.1.3,MacIntel,60,Safari,1440,900,,,,,,,,,,,,,,,,,2,,,,,,,,,,,,,,,,,,,,,,,,,,,1037.813,143,left,0.95,holdfast    ,7,4,6,1,3,1037.846,1037.846,1040.346,0,65,65,65,1,143,7,1,holdfast    ,sport_tshirt,html/resources/sequences_IDs/B/04_holdfast.jpg,html/resources/sequences_IDs/B/07_sport_tshirt.jpg,4,7,2,1,3,2,3,6,0,84,,,,,,,,,,,,,,,,,,,,
,,,,,84,2020-07-04_10h52.16.971,retriever_ti,2020.1.3,MacIntel,60,Safari,1440,900,,,,,,,,,,,,,,,,,2,,,,,,,,,,,,,,,,,,,,,,,,,,,1040.946,144,left,1.647,peacock       ,6,5,2,1,3,1040.98,1040.98,1043.48,0,66,66,66,1,144,6,4,peacock       ,wolf          ,html/resources/sequences_IDs/A/05_peacock.jpg,html/resources/sequences_IDs/A/01_wolf.jpg,5,1,2,1,1,1,4,1,0,84,,,,,,,,,,,,,,,,,,,,
,,,,,84,2020-07-04_10h52.16.971,retriever_ti,2020.1.3,MacIntel,60,Safari,1440,900,,,,,,,,,,,,,,,,,2,,,,,,,,,,,,,,,,,,,,,,,,,,,1044.097,145,right,1.305,phone       ,5,9,3,1,3,1044.132,1044.132,1046.63,0,67,67,67,1,145,2,5,hat           ,phone       ,html/resources/sequences_IDs/A/08_hat.jpg,html/resources/sequences_IDs/B/09_phone.jpg,8,9,3,2,4,2,7,8,0,84,,,,,,,,,,,,,,,,,,,,
,,,,,84,2020-07-04_10h52.16.971,retriever_ti,2020.1.3,MacIntel,60,Safari,1440,900,,,,,,,,,,,,,,,,,2,,,,,,,,,,,,,,,,,,,,,,,,,,,1047.248,146,right,1.11,scarf         ,8,6,7,1,3,1047.281,1047.281,1049.781,0,68,68,68,1,146,1,8,sport_tshirt,scarf         ,html/resources/sequences_IDs/B/07_sport_tshirt.jpg,html/resources/sequences_IDs/A/06_scarf.jpg,7,6,3,2,3,2,6,5,0,84,,,,,,,,,,,,,,,,,,,,
,,,,,84,2020-07-04_10h52.16.971,retriever_ti,2020.1.3,MacIntel,60,Safari,1440,900,,,,,,,,,,,,,,,,,2,,,,,,,,,,,,,,,,,,,,,,,,,,,1050.382,147,left,1.409,giraffe     ,3,3,1,1,1,1050.414,1050.414,1052.915,0,69,69,69,1,147,3,2,giraffe     ,hat           ,html/resources/sequences_IDs/B/03_giraffe.jpg,html/resources/sequences_IDs/A/08_hat.jpg,3,8,1,1,3,2,2,7,0,84,,,,,,,,,,,,,,,,,,,,
,,,,,84,2020-07-04_10h52.16.971,retriever_ti,2020.1.3,MacIntel,60,Safari,1440,900,,,,,,,,,,,,,,,,,2,,,,,,,,,,,,,,,,,,,,,,,,,,,1054.016,148,right,0.699,giraffe     ,3,3,1,1,1,1054.033,1054.033,1056.533,0,70,70,70,1,148,2,3,hat           ,giraffe     ,html/resources/sequences_IDs/A/08_hat.jpg,html/resources/sequences_IDs/B/03_giraffe.jpg,8,3,3,2,1,1,7,2,0,84,,,,,,,,,,,,,,,,,,,,
,,,,,84,2020-07-04_10h52.16.971,retriever_ti,2020.1.3,MacIntel,60,Safari,1440,900,,,,,,,,,,,,,,,,,2,,,,,,,,,,,,,,,,,,,,,,,,,,,1057.633,149,left,1.05,wolf          ,4,1,-1,0,0,1057.665,1057.665,1060.166,0,71,71,71,1,149,4,5,wolf          ,phone       ,html/resources/sequences_IDs/A/01_wolf.jpg,html/resources/sequences_IDs/B/09_phone.jpg,1,9,1,1,4,2,1,8,0,84,,,,,,,,,,,,,,,,,,,,
,,,,,84,2020-07-04_10h52.16.971,retriever_ti,2020.1.3,MacIntel,60,Safari,1440,900,,,,,,,,,,,,,,,,,2,,,,,,,,,,,,,,,,,,,,,,,,,,,1061.267,150,left,1.08,holdfast    ,7,4,4,1,3,1061.299,1061.299,1063.8,0,72,72,72,1,150,7,3,holdfast    ,giraffe     ,html/resources/sequences_IDs/B/04_holdfast.jpg,html/resources/sequences_IDs/B/03_giraffe.jpg,4,3,2,1,1,1,3,2,0,84,,,,,,,,,,,,,,,,,,,,
,,,,,84,2020-07-04_10h52.16.971,retriever_ti,2020.1.3,MacIntel,60,Safari,1440,900,,,,,,,,,,,,,,,,,2,,,,,,,,,,,,,,,,,,,,,,,,,,,1064.401,151,right,1.18,holdfast    ,7,4,1,1,1,1064.434,1064.434,1066.934,0,73,73,73,1,151,6,7,peacock       ,holdfast    ,html/resources/sequences_IDs/A/05_peacock.jpg,html/resources/sequences_IDs/B/04_holdfast.jpg,5,4,2,1,2,1,4,3,0,84,,,,,,,,,,,,,,,,,,,,
,,,,,84,2020-07-04_10h52.16.971,retriever_ti,2020.1.3,MacIntel,60,Safari,1440,900,,,,,,,,,,,,,,,,,2,,,,,,,,,,,,,,,,,,,,,,,,,,,1068.035,152,left,0.988,peacock       ,6,5,1,1,1,1068.068,1068.068,1070.568,0,74,74,74,1,152,6,5,peacock       ,phone       ,html/resources/sequences_IDs/A/05_peacock.jpg,html/resources/sequences_IDs/B/09_phone.jpg,5,9,2,1,4,2,4,8,0,84,,,,,,,,,,,,,,,,,,,,
,,,,,84,2020-07-04_10h52.16.971,retriever_ti,2020.1.3,MacIntel,60,Safari,1440,900,,,,,,,,,,,,,,,,,2,,,,,,,,,,,,,,,,,,,,,,,,,,,1071.668,153,right,1.802,holdfast    ,7,4,2,1,3,1071.702,1071.702,1074.202,0,75,75,75,1,153,5,7,phone       ,holdfast    ,html/resources/sequences_IDs/B/09_phone.jpg,html/resources/sequences_IDs/B/04_holdfast.jpg,9,4,4,2,2,1,8,3,0,84,,,,,,,,,,,,,,,,,,,,
,,,,,84,2020-07-04_10h52.16.971,retriever_ti,2020.1.3,MacIntel,60,Safari,1440,900,,,,,,,,,,,,,,,,,2,,,,,,,,,,,,,,,,,,,,,,,,,,,1074.819,154,left,1.318,wolf          ,4,1,1,1,1,1074.836,1074.836,1077.337,0,76,76,76,1,154,4,3,wolf          ,giraffe     ,html/resources/sequences_IDs/A/01_wolf.jpg,html/resources/sequences_IDs/B/03_giraffe.jpg,1,3,1,1,1,1,1,2,0,84,,,,,,,,,,,,,,,,,,,,
,,,,,84,2020-07-04_10h52.16.971,retriever_ti,2020.1.3,MacIntel,60,Safari,1440,900,,,,,,,,,,,,,,,,,,,,,,,,,,,,,,,,,,,,,0,2.555,,,,,,,,,,,,,,,,,,,,,,,,,,,,,,,,,,,,,,,,,1,0,1,0,1,,,,,,,,,,,,,,,
,,,,,84,2020-07-04_10h52.16.971,retriever_ti,2020.1.3,MacIntel,60,Safari,1440,900,,,,,,,,,,,,,,,,,3,,,,,,,,,,,,,,,,,,,,,,,,,,,1098.535,155,left,0.919,wolf          ,4,1,3,1,3,1098.578,1098.578,1101.073,0,0,0,0,1,155,4,1,wolf          ,sport_tshirt,html/resources/sequences_IDs/A/01_wolf.jpg,html/resources/sequences_IDs/B/07_sport_tshirt.jpg,1,7,1,1,3,2,1,6,0,84,,,,,,,,,,,,,,,,,,,,
,,,,,84,2020-07-04_10h52.16.971,retriever_ti,2020.1.3,MacIntel,60,Safari,1440,900,,,,,,,,,,,,,,,,,3,,,,,,,,,,,,,,,,,,,,,,,,,,,1101.689,156,left,0.808,holdfast    ,7,4,2,1,3,1101.707,1101.707,1104.207,0,1,1,1,1,156,7,5,holdfast    ,phone       ,html/resources/sequences_IDs/B/04_holdfast.jpg,html/resources/sequences_IDs/B/09_phone.jpg,4,9,2,1,4,2,3,8,0,84,,,,,,,,,,,,,,,,,,,,
,,,,,84,2020-07-04_10h52.16.971,retriever_ti,2020.1.3,MacIntel,60,Safari,1440,900,,,,,,,,,,,,,,,,,3,,,,,,,,,,,,,,,,,,,,,,,,,,,1104.824,157,left,0.879,wolf          ,4,1,2,1,3,1104.84,1104.84,1107.34,0,2,2,2,1,157,4,2,wolf          ,hat           ,html/resources/sequences_IDs/A/01_wolf.jpg,html/resources/sequences_IDs/A/08_hat.jpg,1,8,1,1,3,2,1,7,0,84,,,,,,,,,,,,,,,,,,,,
,,,,,84,2020-07-04_10h52.16.971,retriever_ti,2020.1.3,MacIntel,60,Safari,1440,900,,,,,,,,,,,,,,,,,3,,,,,,,,,,,,,,,,,,,,,,,,,,,1107.941,158,right,0.806,peacock       ,6,5,4,1,3,1107.958,1107.958,1110.458,0,3,3,3,1,158,2,6,hat           ,peacock       ,html/resources/sequences_IDs/A/08_hat.jpg,html/resources/sequences_IDs/A/05_peacock.jpg,8,5,3,2,2,1,7,4,0,84,,,,,,,,,,,,,,,,,,,,
,,,,,84,2020-07-04_10h52.16.971,retriever_ti,2020.1.3,MacIntel,60,Safari,1440,900,,,,,,,,,,,,,,,,,3,,,,,,,,,,,,,,,,,,,,,,,,,,,1111.075,159,left,0.581,peacock       ,6,5,1,1,1,1111.109,1111.109,1113.61,0,4,4,4,1,159,6,5,peacock       ,phone       ,html/resources/sequences_IDs/A/05_peacock.jpg,html/resources/sequences_IDs/B/09_phone.jpg,5,9,2,1,4,2,4,8,0,84,,,,,,,,,,,,,,,,,,,,
,,,,,84,2020-07-04_10h52.16.971,retriever_ti,2020.1.3,MacIntel,60,Safari,1440,900,,,,,,,,,,,,,,,,,3,,,,,,,,,,,,,,,,,,,,,,,,,,,1114.709,160,right,0.812,giraffe     ,3,3,1,1,1,1114.742,1114.742,1117.242,0,5,5,5,1,160,2,3,hat           ,giraffe     ,html/resources/sequences_IDs/A/08_hat.jpg,html/resources/sequences_IDs/B/03_giraffe.jpg,8,3,3,2,1,1,7,2,0,84,,,,,,,,,,,,,,,,,,,,
,,,,,84,2020-07-04_10h52.16.971,retriever_ti,2020.1.3,MacIntel,60,Safari,1440,900,,,,,,,,,,,,,,,,,3,,,,,,,,,,,,,,,,,,,,,,,,,,,1118.342,161,left,0.958,scarf         ,8,6,1,1,1,1118.376,1118.376,1120.876,0,6,6,6,1,161,8,7,scarf         ,holdfast    ,html/resources/sequences_IDs/A/06_scarf.jpg,html/resources/sequences_IDs/B/04_holdfast.jpg,6,4,3,2,2,1,5,3,0,84,,,,,,,,,,,,,,,,,,,,
,,,,,84,2020-07-04_10h52.16.971,retriever_ti,2020.1.3,MacIntel,60,Safari,1440,900,,,,,,,,,,,,,,,,,3,,,,,,,,,,,,,,,,,,,,,,,,,,,1121.976,162,right,0.626,scarf         ,8,6,5,1,3,1122.01,1122.01,1124.51,0,7,7,7,1,162,3,8,giraffe     ,scarf         ,html/resources/sequences_IDs/B/03_giraffe.jpg,html/resources/sequences_IDs/A/06_scarf.jpg,3,6,1,1,3,2,2,5,0,84,,,,,,,,,,,,,,,,,,,,
,,,,,84,2020-07-04_10h52.16.971,retriever_ti,2020.1.3,MacIntel,60,Safari,1440,900,,,,,,,,,,,,,,,,,3,,,,,,,,,,,,,,,,,,,,,,,,,,,1125.127,163,left,1.425,holdfast    ,7,4,1,1,1,1125.16,1125.16,1127.661,0,8,8,8,1,163,7,6,holdfast    ,peacock       ,html/resources/sequences_IDs/B/04_holdfast.jpg,html/resources/sequences_IDs/A/05_peacock.jpg,4,5,2,1,2,1,3,4,0,84,,,,,,,,,,,,,,,,,,,,
,,,,,84,2020-07-04_10h52.16.971,retriever_ti,2020.1.3,MacIntel,60,Safari,1440,900,,,,,,,,,,,,,,,,,3,,,,,,,,,,,,,,,,,,,,,,,,,,,1128.761,164,left,0.649,scarf         ,8,6,4,1,3,1128.778,1128.778,1131.277,0,9,9,9,1,164,8,4,scarf         ,wolf          ,html/resources/sequences_IDs/A/06_scarf.jpg,html/resources/sequences_IDs/A/01_wolf.jpg,6,1,3,2,1,1,5,1,0,84,,,,,,,,,,,,,,,,,,,,
,,,,,84,2020-07-04_10h52.16.971,retriever_ti,2020.1.3,MacIntel,60,Safari,1440,900,,,,,,,,,,,,,,,,,3,,,,,,,,,,,,,,,,,,,,,,,,,,,1131.878,165,right,0.944,wolf          ,4,1,3,1,3,1131.894,1131.894,1134.395,0,10,10,10,1,165,1,4,sport_tshirt,wolf          ,html/resources/sequences_IDs/B/07_sport_tshirt.jpg,html/resources/sequences_IDs/A/01_wolf.jpg,7,1,3,2,1,1,6,1,0,84,,,,,,,,,,,,,,,,,,,,
,,,,,84,2020-07-04_10h52.16.971,retriever_ti,2020.1.3,MacIntel,60,Safari,1440,900,,,,,,,,,,,,,,,,,3,,,,,,,,,,,,,,,,,,,,,,,,,,,1134.996,166,left,1.453,giraffe     ,3,3,1,1,1,1135.013,1135.013,1137.512,0,11,11,11,1,166,3,2,giraffe     ,hat           ,html/resources/sequences_IDs/B/03_giraffe.jpg,html/resources/sequences_IDs/A/08_hat.jpg,3,8,1,1,3,2,2,7,0,84,,,,,,,,,,,,,,,,,,,,
,,,,,84,2020-07-04_10h52.16.971,retriever_ti,2020.1.3,MacIntel,60,Safari,1440,900,,,,,,,,,,,,,,,,,3,,,,,,,,,,,,,,,,,,,,,,,,,,,1138.612,167,right,1.265,peacock       ,6,5,1,1,1,1138.629,1138.629,1141.13,0,12,12,12,1,167,5,6,phone       ,peacock       ,html/resources/sequences_IDs/B/09_phone.jpg,html/resources/sequences_IDs/A/05_peacock.jpg,9,5,4,2,2,1,8,4,0,84,,,,,,,,,,,,,,,,,,,,
,,,,,84,2020-07-04_10h52.16.971,retriever_ti,2020.1.3,MacIntel,60,Safari,1440,900,,,,,,,,,,,,,,,,,3,,,,,,,,,,,,,,,,,,,,,,,,,,,1142.229,168,left,1.959,wolf          ,4,1,1,1,0,1142.246,1142.246,1144.747,0,13,13,13,1,168,4,3,wolf          ,giraffe     ,html/resources/sequences_IDs/A/01_wolf.jpg,html/resources/sequences_IDs/B/03_giraffe.jpg,1,3,1,1,1,1,1,2,1,84,,,,,,,,,,,,,,,,,,,,
,,,,,84,2020-07-04_10h52.16.971,retriever_ti,2020.1.3,MacIntel,60,Safari,1440,900,,,,,,,,,,,,,,,,,3,,,,,,,,,,,,,,,,,,,,,,,,,,,1145.847,169,left,0.759,wolf          ,4,1,1,1,1,1145.88,1145.88,1148.381,0,14,14,14,1,169,4,3,wolf          ,giraffe     ,html/resources/sequences_IDs/A/01_wolf.jpg,html/resources/sequences_IDs/B/03_giraffe.jpg,1,3,1,1,1,1,1,2,0,84,,,,,,,,,,,,,,,,,,,,
,,,,,84,2020-07-04_10h52.16.971,retriever_ti,2020.1.3,MacIntel,60,Safari,1440,900,,,,,,,,,,,,,,,,,3,,,,,,,,,,,,,,,,,,,,,,,,,,,1149.482,170,left,1.058,wolf          ,4,1,-1,0,0,1149.514,1149.514,1152.014,0,15,15,15,1,170,4,5,wolf          ,phone       ,html/resources/sequences_IDs/A/01_wolf.jpg,html/resources/sequences_IDs/B/09_phone.jpg,1,9,1,1,4,2,1,8,0,84,,,,,,,,,,,,,,,,,,,,
,,,,,84,2020-07-04_10h52.16.971,retriever_ti,2020.1.3,MacIntel,60,Safari,1440,900,,,,,,,,,,,,,,,,,3,,,,,,,,,,,,,,,,,,,,,,,,,,,1153.115,171,left,1.349,holdfast    ,7,4,3,1,3,1153.131,1153.131,1155.631,0,16,16,16,1,171,7,4,holdfast    ,wolf          ,html/resources/sequences_IDs/B/04_holdfast.jpg,html/resources/sequences_IDs/A/01_wolf.jpg,4,1,2,1,1,1,3,1,0,84,,,,,,,,,,,,,,,,,,,,
,,,,,84,2020-07-04_10h52.16.971,retriever_ti,2020.1.3,MacIntel,60,Safari,1440,900,,,,,,,,,,,,,,,,,3,,,,,,,,,,,,,,,,,,,,,,,,,,,1156.233,172,right,1.794,wolf          ,4,1,1,1,1,1156.248,1156.248,1158.749,0,17,17,17,1,172,3,4,giraffe     ,wolf          ,html/resources/sequences_IDs/B/03_giraffe.jpg,html/resources/sequences_IDs/A/01_wolf.jpg,3,1,1,1,1,1,2,1,0,84,,,,,,,,,,,,,,,,,,,,
,,,,,84,2020-07-04_10h52.16.971,retriever_ti,2020.1.3,MacIntel,60,Safari,1440,900,,,,,,,,,,,,,,,,,3,,,,,,,,,,,,,,,,,,,,,,,,,,,1159.849,173,left,0.989,wolf          ,4,1,1,1,1,1159.867,1159.867,1162.366,0,18,18,18,1,173,4,3,wolf          ,giraffe     ,html/resources/sequences_IDs/A/01_wolf.jpg,html/resources/sequences_IDs/B/03_giraffe.jpg,1,3,1,1,1,1,1,2,0,84,,,,,,,,,,,,,,,,,,,,
,,,,,84,2020-07-04_10h52.16.971,retriever_ti,2020.1.3,MacIntel,60,Safari,1440,900,,,,,,,,,,,,,,,,,3,,,,,,,,,,,,,,,,,,,,,,,,,,,1163.466,174,right,1.244,hat           ,2,8,1,1,1,1163.5,1163.5,1166,0,19,19,19,1,174,1,2,sport_tshirt,hat           ,html/resources/sequences_IDs/B/07_sport_tshirt.jpg,html/resources/sequences_IDs/A/08_hat.jpg,7,8,3,2,3,2,6,7,0,84,,,,,,,,,,,,,,,,,,,,
,,,,,84,2020-07-04_10h52.16.971,retriever_ti,2020.1.3,MacIntel,60,Safari,1440,900,,,,,,,,,,,,,,,,,3,,,,,,,,,,,,,,,,,,,,,,,,,,,1167.101,175,left,1.409,peacock       ,6,5,1,1,1,1167.118,1167.118,1169.618,0,20,20,20,1,175,6,5,peacock       ,phone       ,html/resources/sequences_IDs/A/05_peacock.jpg,html/resources/sequences_IDs/B/09_phone.jpg,5,9,2,1,4,2,4,8,0,84,,,,,,,,,,,,,,,,,,,,
,,,,,84,2020-07-04_10h52.16.971,retriever_ti,2020.1.3,MacIntel,60,Safari,1440,900,,,,,,,,,,,,,,,,,3,,,,,,,,,,,,,,,,,,,,,,,,,,,1170.718,176,right,1.462,holdfast    ,7,4,4,1,3,1170.751,1170.751,1173.251,0,21,21,21,1,176,3,7,giraffe     ,holdfast    ,html/resources/sequences_IDs/B/03_giraffe.jpg,html/resources/sequences_IDs/B/04_holdfast.jpg,3,4,1,1,2,1,2,3,0,84,,,,,,,,,,,,,,,,,,,,
,,,,,84,2020-07-04_10h52.16.971,retriever_ti,2020.1.3,MacIntel,60,Safari,1440,900,,,,,,,,,,,,,,,,,3,,,,,,,,,,,,,,,,,,,,,,,,,,,1173.852,177,right,1.407,hat           ,2,8,1,1,1,1173.868,1173.868,1176.368,0,22,22,22,1,177,1,2,sport_tshirt,hat           ,html/resources/sequences_IDs/B/07_sport_tshirt.jpg,html/resources/sequences_IDs/A/08_hat.jpg,7,8,3,2,3,2,6,7,0,84,,,,,,,,,,,,,,,,,,,,
,,,,,84,2020-07-04_10h52.16.971,retriever_ti,2020.1.3,MacIntel,60,Safari,1440,900,,,,,,,,,,,,,,,,,3,,,,,,,,,,,,,,,,,,,,,,,,,,,1177.469,178,left,1.437,giraffe     ,3,3,-2,0,3,1177.487,1177.487,1179.985,0,23,23,23,1,178,3,5,giraffe     ,phone       ,html/resources/sequences_IDs/B/03_giraffe.jpg,html/resources/sequences_IDs/B/09_phone.jpg,3,9,1,1,4,2,2,8,0,84,,,,,,,,,,,,,,,,,,,,
,,,,,84,2020-07-04_10h52.16.971,retriever_ti,2020.1.3,MacIntel,60,Safari,1440,900,,,,,,,,,,,,,,,,,3,,,,,,,,,,,,,,,,,,,,,,,,,,,1180.586,179,left,1.156,peacock       ,6,5,3,1,3,1180.604,1180.604,1183.103,0,24,24,24,1,179,6,3,peacock       ,giraffe     ,html/resources/sequences_IDs/A/05_peacock.jpg,html/resources/sequences_IDs/B/03_giraffe.jpg,5,3,2,1,1,1,4,2,0,84,,,,,,,,,,,,,,,,,,,,
,,,,,84,2020-07-04_10h52.16.971,retriever_ti,2020.1.3,MacIntel,60,Safari,1440,900,,,,,,,,,,,,,,,,,3,,,,,,,,,,,,,,,,,,,,,,,,,,,1183.719,180,right,1.622,holdfast    ,7,4,3,1,3,1183.754,1183.754,1186.254,0,25,25,25,1,180,4,7,wolf          ,holdfast    ,html/resources/sequences_IDs/A/01_wolf.jpg,html/resources/sequences_IDs/B/04_holdfast.jpg,1,4,1,1,2,1,1,3,0,84,,,,,,,,,,,,,,,,,,,,
,,,,,84,2020-07-04_10h52.16.971,retriever_ti,2020.1.3,MacIntel,60,Safari,1440,900,,,,,,,,,,,,,,,,,3,,,,,,,,,,,,,,,,,,,,,,,,,,,1186.871,181,right,1.882,wolf          ,4,1,-1,0,0,1186.904,1186.904,1189.405,0,26,26,26,1,181,5,4,phone       ,wolf          ,html/resources/sequences_IDs/B/09_phone.jpg,html/resources/sequences_IDs/A/01_wolf.jpg,9,1,4,2,1,1,8,1,0,84,,,,,,,,,,,,,,,,,,,,
,,,,,84,2020-07-04_10h52.16.971,retriever_ti,2020.1.3,MacIntel,60,Safari,1440,900,,,,,,,,,,,,,,,,,3,,,,,,,,,,,,,,,,,,,,,,,,,,,1190.509,182,right,0.994,scarf         ,8,6,4,1,3,1190.54,1190.54,1193.039,0,27,27,27,1,182,4,8,wolf          ,scarf         ,html/resources/sequences_IDs/A/01_wolf.jpg,html/resources/sequences_IDs/A/06_scarf.jpg,1,6,1,1,3,2,1,5,0,84,,,,,,,,,,,,,,,,,,,,
,,,,,84,2020-07-04_10h52.16.971,retriever_ti,2020.1.3,MacIntel,60,Safari,1440,900,,,,,,,,,,,,,,,,,3,,,,,,,,,,,,,,,,,,,,,,,,,,,1193.639,183,left,1.172,phone       ,5,9,4,1,3,1193.655,1193.655,1196.156,0,28,28,28,1,183,5,1,phone       ,sport_tshirt,html/resources/sequences_IDs/B/09_phone.jpg,html/resources/sequences_IDs/B/07_sport_tshirt.jpg,9,7,4,2,3,2,8,6,0,84,,,,,,,,,,,,,,,,,,,,
,,,,,84,2020-07-04_10h52.16.971,retriever_ti,2020.1.3,MacIntel,60,Safari,1440,900,,,,,,,,,,,,,,,,,3,,,,,,,,,,,,,,,,,,,,,,,,,,,1196.773,184,left,1.94,wolf          ,4,1,-1,0,1,1196.789,1196.789,1199.289,0,29,29,29,1,184,4,5,wolf          ,phone       ,html/resources/sequences_IDs/A/01_wolf.jpg,html/resources/sequences_IDs/B/09_phone.jpg,1,9,1,1,4,2,1,8,1,84,,,,,,,,,,,,,,,,,,,,
,,,,,84,2020-07-04_10h52.16.971,retriever_ti,2020.1.3,MacIntel,60,Safari,1440,900,,,,,,,,,,,,,,,,,3,,,,,,,,,,,,,,,,,,,,,,,,,,,1200.39,185,left,1.771,peacock       ,6,5,2,1,3,1200.406,1200.406,1202.906,0,30,30,30,1,185,6,4,peacock       ,wolf          ,html/resources/sequences_IDs/A/05_peacock.jpg,html/resources/sequences_IDs/A/01_wolf.jpg,5,1,2,1,1,1,4,1,0,84,,,,,,,,,,,,,,,,,,,,
,,,,,84,2020-07-04_10h52.16.971,retriever_ti,2020.1.3,MacIntel,60,Safari,1440,900,,,,,,,,,,,,,,,,,3,,,,,,,,,,,,,,,,,,,,,,,,,,,1203.507,186,left,2.216,hat           ,2,8,-3,0,3,1203.541,1203.541,1206.04,0,31,31,31,1,186,2,5,hat           ,phone       ,html/resources/sequences_IDs/A/08_hat.jpg,html/resources/sequences_IDs/B/09_phone.jpg,8,9,3,2,4,2,7,8,0,84,,,,,,,,,,,,,,,,,,,,
,,,,,84,2020-07-04_10h52.16.971,retriever_ti,2020.1.3,MacIntel,60,Safari,1440,900,,,,,,,,,,,,,,,,,3,,,,,,,,,,,,,,,,,,,,,,,,,,,1206.641,187,left,1.275,hat           ,2,8,1,1,1,1206.659,1206.659,1209.157,0,32,32,32,1,187,2,1,hat           ,sport_tshirt,html/resources/sequences_IDs/A/08_hat.jpg,html/resources/sequences_IDs/B/07_sport_tshirt.jpg,8,7,3,2,3,2,7,6,0,84,,,,,,,,,,,,,,,,,,,,
,,,,,84,2020-07-04_10h52.16.971,retriever_ti,2020.1.3,MacIntel,60,Safari,1440,900,,,,,,,,,,,,,,,,,3,,,,,,,,,,,,,,,,,,,,,,,,,,,1210.258,188,left,0.925,scarf         ,8,6,2,1,3,1210.276,1210.276,1212.774,0,33,33,33,1,188,8,6,scarf         ,peacock       ,html/resources/sequences_IDs/A/06_scarf.jpg,html/resources/sequences_IDs/A/05_peacock.jpg,6,5,3,2,2,1,5,4,0,84,,,,,,,,,,,,,,,,,,,,
,,,,,84,2020-07-04_10h52.16.971,retriever_ti,2020.1.3,MacIntel,60,Safari,1440,900,,,,,,,,,,,,,,,,,3,,,,,,,,,,,,,,,,,,,,,,,,,,,1213.392,189,right,1.918,wolf          ,4,1,-1,0,0,1213.425,1213.425,1215.925,0,34,34,34,1,189,5,4,phone       ,wolf          ,html/resources/sequences_IDs/B/09_phone.jpg,html/resources/sequences_IDs/A/01_wolf.jpg,9,1,4,2,1,1,8,1,0,84,,,,,,,,,,,,,,,,,,,,
,,,,,84,2020-07-04_10h52.16.971,retriever_ti,2020.1.3,MacIntel,60,Safari,1440,900,,,,,,,,,,,,,,,,,3,,,,,,,,,,,,,,,,,,,,,,,,,,,1217.025,190,right,0.872,holdfast    ,7,4,2,1,3,1217.041,1217.041,1219.542,0,35,35,35,1,190,5,7,phone       ,holdfast    ,html/resources/sequences_IDs/B/09_phone.jpg,html/resources/sequences_IDs/B/04_holdfast.jpg,9,4,4,2,2,1,8,3,0,84,,,,,,,,,,,,,,,,,,,,
,,,,,84,2020-07-04_10h52.16.971,retriever_ti,2020.1.3,MacIntel,60,Safari,1440,900,,,,,,,,,,,,,,,,,3,,,,,,,,,,,,,,,,,,,,,,,,,,,1220.143,191,left,1.316,peacock       ,6,5,-1,0,0,1220.16,1220.16,1222.659,0,36,36,36,1,191,6,7,peacock       ,holdfast    ,html/resources/sequences_IDs/A/05_peacock.jpg,html/resources/sequences_IDs/B/04_holdfast.jpg,5,4,2,1,2,1,4,3,0,84,,,,,,,,,,,,,,,,,,,,
,,,,,84,2020-07-04_10h52.16.971,retriever_ti,2020.1.3,MacIntel,60,Safari,1440,900,,,,,,,,,,,,,,,,,3,,,,,,,,,,,,,,,,,,,,,,,,,,,1223.761,192,right,1.258,scarf         ,8,6,1,1,0,1223.793,1223.793,1226.293,0,37,37,37,1,192,7,8,holdfast    ,scarf         ,html/resources/sequences_IDs/B/04_holdfast.jpg,html/resources/sequences_IDs/A/06_scarf.jpg,4,6,2,1,3,2,3,5,1,84,,,,,,,,,,,,,,,,,,,,
,,,,,84,2020-07-04_10h52.16.971,retriever_ti,2020.1.3,MacIntel,60,Safari,1440,900,,,,,,,,,,,,,,,,,3,,,,,,,,,,,,,,,,,,,,,,,,,,,1227.394,193,right,1.359,wolf          ,4,1,2,1,3,1227.428,1227.428,1229.927,0,38,38,38,1,193,2,4,hat           ,wolf          ,html/resources/sequences_IDs/A/08_hat.jpg,html/resources/sequences_IDs/A/01_wolf.jpg,8,1,3,2,1,1,7,1,0,84,,,,,,,,,,,,,,,,,,,,
,,,,,84,2020-07-04_10h52.16.971,retriever_ti,2020.1.3,MacIntel,60,Safari,1440,900,,,,,,,,,,,,,,,,,3,,,,,,,,,,,,,,,,,,,,,,,,,,,1230.544,194,left,1.937,giraffe     ,3,3,1,1,1,1230.579,1230.579,1233.078,0,39,39,39,1,194,3,2,giraffe     ,hat           ,html/resources/sequences_IDs/B/03_giraffe.jpg,html/resources/sequences_IDs/A/08_hat.jpg,3,8,1,1,3,2,2,7,0,84,,,,,,,,,,,,,,,,,,,,
,,,,,84,2020-07-04_10h52.16.971,retriever_ti,2020.1.3,MacIntel,60,Safari,1440,900,,,,,,,,,,,,,,,,,3,,,,,,,,,,,,,,,,,,,,,,,,,,,1234.179,195,right,0.93,holdfast    ,7,4,5,1,3,1234.212,1234.212,1236.712,0,40,40,40,1,195,2,7,hat           ,holdfast    ,html/resources/sequences_IDs/A/08_hat.jpg,html/resources/sequences_IDs/B/04_holdfast.jpg,8,4,3,2,2,1,7,3,0,84,,,,,,,,,,,,,,,,,,,,
,,,,,84,2020-07-04_10h52.16.971,retriever_ti,2020.1.3,MacIntel,60,Safari,1440,900,,,,,,,,,,,,,,,,,3,,,,,,,,,,,,,,,,,,,,,,,,,,,1237.313,196,left,0.841,scarf         ,8,6,5,1,3,1237.33,1237.33,1239.829,0,41,41,41,1,196,8,3,scarf         ,giraffe     ,html/resources/sequences_IDs/A/06_scarf.jpg,html/resources/sequences_IDs/B/03_giraffe.jpg,6,3,3,2,1,1,5,2,0,84,,,,,,,,,,,,,,,,,,,,
,,,,,84,2020-07-04_10h52.16.971,retriever_ti,2020.1.3,MacIntel,60,Safari,1440,900,,,,,,,,,,,,,,,,,3,,,,,,,,,,,,,,,,,,,,,,,,,,,1240.429,197,right,1.396,peacock       ,6,5,-1,0,0,1240.446,1240.446,1242.946,0,42,42,42,1,197,7,6,holdfast    ,peacock       ,html/resources/sequences_IDs/B/04_holdfast.jpg,html/resources/sequences_IDs/A/05_peacock.jpg,4,5,2,1,2,1,3,4,0,84,,,,,,,,,,,,,,,,,,,,
,,,,,84,2020-07-04_10h52.16.971,retriever_ti,2020.1.3,MacIntel,60,Safari,1440,900,,,,,,,,,,,,,,,,,3,,,,,,,,,,,,,,,,,,,,,,,,,,,1244.047,198,right,0.681,scarf         ,8,6,3,1,3,1244.063,1244.063,1246.564,0,43,43,43,1,198,5,8,phone       ,scarf         ,html/resources/sequences_IDs/B/09_phone.jpg,html/resources/sequences_IDs/A/06_scarf.jpg,9,6,4,2,3,2,8,5,0,84,,,,,,,,,,,,,,,,,,,,
,,,,,84,2020-07-04_10h52.16.971,retriever_ti,2020.1.3,MacIntel,60,Safari,1440,900,,,,,,,,,,,,,,,,,3,,,,,,,,,,,,,,,,,,,,,,,,,,,1247.181,199,left,1.076,hat           ,2,8,1,1,1,1247.213,1247.213,1249.716,0,44,44,44,1,199,2,1,hat           ,sport_tshirt,html/resources/sequences_IDs/A/08_hat.jpg,html/resources/sequences_IDs/B/07_sport_tshirt.jpg,8,7,3,2,3,2,7,6,0,84,,,,,,,,,,,,,,,,,,,,
,,,,,84,2020-07-04_10h52.16.971,retriever_ti,2020.1.3,MacIntel,60,Safari,1440,900,,,,,,,,,,,,,,,,,3,,,,,,,,,,,,,,,,,,,,,,,,,,,1250.816,200,left,1.502,wolf          ,4,1,-1,0,0,1250.831,1250.831,1253.332,0,45,45,45,1,200,4,5,wolf          ,phone       ,html/resources/sequences_IDs/A/01_wolf.jpg,html/resources/sequences_IDs/B/09_phone.jpg,1,9,1,1,4,2,1,8,0,84,,,,,,,,,,,,,,,,,,,,
,,,,,84,2020-07-04_10h52.16.971,retriever_ti,2020.1.3,MacIntel,60,Safari,1440,900,,,,,,,,,,,,,,,,,3,,,,,,,,,,,,,,,,,,,,,,,,,,,1254.431,201,right,0.926,giraffe     ,3,3,2,1,3,1254.448,1254.448,1256.949,0,46,46,46,1,201,1,3,sport_tshirt,giraffe     ,html/resources/sequences_IDs/B/07_sport_tshirt.jpg,html/resources/sequences_IDs/B/03_giraffe.jpg,7,3,3,2,1,1,6,2,0,84,,,,,,,,,,,,,,,,,,,,
,,,,,84,2020-07-04_10h52.16.971,retriever_ti,2020.1.3,MacIntel,60,Safari,1440,900,,,,,,,,,,,,,,,,,3,,,,,,,,,,,,,,,,,,,,,,,,,,,1257.566,202,left,1.095,giraffe     ,3,3,1,1,0,1257.598,1257.598,1260.099,0,47,47,47,1,202,3,2,giraffe     ,hat           ,html/resources/sequences_IDs/B/03_giraffe.jpg,html/resources/sequences_IDs/A/08_hat.jpg,3,8,1,1,3,2,2,7,1,84,,,,,,,,,,,,,,,,,,,,
,,,,,84,2020-07-04_10h52.16.971,retriever_ti,2020.1.3,MacIntel,60,Safari,1440,900,,,,,,,,,,,,,,,,,3,,,,,,,,,,,,,,,,,,,,,,,,,,,1261.199,203,left,0.812,peacock       ,6,5,4,1,3,1261.217,1261.217,1263.716,0,48,48,48,1,203,6,2,peacock       ,hat           ,html/resources/sequences_IDs/A/05_peacock.jpg,html/resources/sequences_IDs/A/08_hat.jpg,5,8,2,1,3,2,4,7,0,84,,,,,,,,,,,,,,,,,,,,
,,,,,84,2020-07-04_10h52.16.971,retriever_ti,2020.1.3,MacIntel,60,Safari,1440,900,,,,,,,,,,,,,,,,,3,,,,,,,,,,,,,,,,,,,,,,,,,,,1264.333,204,left,0.758,scarf         ,8,6,6,1,3,1264.367,1264.367,1266.867,0,49,49,49,1,204,8,2,scarf         ,hat           ,html/resources/sequences_IDs/A/06_scarf.jpg,html/resources/sequences_IDs/A/08_hat.jpg,6,8,3,2,3,2,5,7,0,84,,,,,,,,,,,,,,,,,,,,
,,,,,84,2020-07-04_10h52.16.971,retriever_ti,2020.1.3,MacIntel,60,Safari,1440,900,,,,,,,,,,,,,,,,,3,,,,,,,,,,,,,,,,,,,,,,,,,,,1267.467,205,right,0.976,holdfast    ,7,4,6,1,3,1267.485,1267.485,1269.984,0,50,50,50,1,205,1,7,sport_tshirt,holdfast    ,html/resources/sequences_IDs/B/07_sport_tshirt.jpg,html/resources/sequences_IDs/B/04_holdfast.jpg,7,4,3,2,2,1,6,3,0,84,,,,,,,,,,,,,,,,,,,,
,,,,,84,2020-07-04_10h52.16.971,retriever_ti,2020.1.3,MacIntel,60,Safari,1440,900,,,,,,,,,,,,,,,,,3,,,,,,,,,,,,,,,,,,,,,,,,,,,1270.601,206,left,0.844,holdfast    ,7,4,5,1,3,1270.619,1270.619,1273.118,0,51,51,51,1,206,7,2,holdfast    ,hat           ,html/resources/sequences_IDs/B/04_holdfast.jpg,html/resources/sequences_IDs/A/08_hat.jpg,4,8,2,1,3,2,3,7,0,84,,,,,,,,,,,,,,,,,,,,
,,,,,84,2020-07-04_10h52.16.971,retriever_ti,2020.1.3,MacIntel,60,Safari,1440,900,,,,,,,,,,,,,,,,,3,,,,,,,,,,,,,,,,,,,,,,,,,,,1273.735,207,left,1.053,peacock       ,6,5,1,1,0,1273.753,1273.753,1276.251,0,52,52,52,1,207,6,5,peacock       ,phone       ,html/resources/sequences_IDs/A/05_peacock.jpg,html/resources/sequences_IDs/B/09_phone.jpg,5,9,2,1,4,2,4,8,1,84,,,,,,,,,,,,,,,,,,,,
,,,,,84,2020-07-04_10h52.16.971,retriever_ti,2020.1.3,MacIntel,60,Safari,1440,900,,,,,,,,,,,,,,,,,3,,,,,,,,,,,,,,,,,,,,,,,,,,,1277.352,208,right,0.967,peacock       ,6,5,1,1,1,1277.368,1277.368,1279.869,0,53,53,53,1,208,5,6,phone       ,peacock       ,html/resources/sequences_IDs/B/09_phone.jpg,html/resources/sequences_IDs/A/05_peacock.jpg,9,5,4,2,2,1,8,4,0,84,,,,,,,,,,,,,,,,,,,,
,,,,,84,2020-07-04_10h52.16.971,retriever_ti,2020.1.3,MacIntel,60,Safari,1440,900,,,,,,,,,,,,,,,,,3,,,,,,,,,,,,,,,,,,,,,,,,,,,1280.97,209,right,1.136,scarf         ,8,6,7,1,3,1281.004,1281.004,1283.503,0,54,54,54,1,209,1,8,sport_tshirt,scarf         ,html/resources/sequences_IDs/B/07_sport_tshirt.jpg,html/resources/sequences_IDs/A/06_scarf.jpg,7,6,3,2,3,2,6,5,0,84,,,,,,,,,,,,,,,,,,,,
,,,,,84,2020-07-04_10h52.16.971,retriever_ti,2020.1.3,MacIntel,60,Safari,1440,900,,,,,,,,,,,,,,,,,3,,,,,,,,,,,,,,,,,,,,,,,,,,,1284.12,210,right,1.466,giraffe     ,3,3,-2,0,3,1284.136,1284.136,1286.636,0,55,55,55,1,210,5,3,phone       ,giraffe     ,html/resources/sequences_IDs/B/09_phone.jpg,html/resources/sequences_IDs/B/03_giraffe.jpg,9,3,4,2,1,1,8,2,0,84,,,,,,,,,,,,,,,,,,,,
,,,,,84,2020-07-04_10h52.16.971,retriever_ti,2020.1.3,MacIntel,60,Safari,1440,900,,,,,,,,,,,,,,,,,3,,,,,,,,,,,,,,,,,,,,,,,,,,,1287.237,211,right,1.444,hat           ,2,8,1,1,0,1287.271,1287.271,1289.771,0,56,56,56,1,211,1,2,sport_tshirt,hat           ,html/resources/sequences_IDs/B/07_sport_tshirt.jpg,html/resources/sequences_IDs/A/08_hat.jpg,7,8,3,2,3,2,6,7,1,84,,,,,,,,,,,,,,,,,,,,
,,,,,84,2020-07-04_10h52.16.971,retriever_ti,2020.1.3,MacIntel,60,Safari,1440,900,,,,,,,,,,,,,,,,,3,,,,,,,,,,,,,,,,,,,,,,,,,,,1290.871,212,right,0.826,peacock       ,6,5,5,1,3,1290.889,1290.889,1293.388,0,57,57,57,1,212,1,6,sport_tshirt,peacock       ,html/resources/sequences_IDs/B/07_sport_tshirt.jpg,html/resources/sequences_IDs/A/05_peacock.jpg,7,5,3,2,2,1,6,4,0,84,,,,,,,,,,,,,,,,,,,,
,,,,,84,2020-07-04_10h52.16.971,retriever_ti,2020.1.3,MacIntel,60,Safari,1440,900,,,,,,,,,,,,,,,,,3,,,,,,,,,,,,,,,,,,,,,,,,,,,1294.005,213,right,1.005,giraffe     ,3,3,1,1,1,1294.022,1294.022,1296.521,0,58,58,58,1,213,2,3,hat           ,giraffe     ,html/resources/sequences_IDs/A/08_hat.jpg,html/resources/sequences_IDs/B/03_giraffe.jpg,8,3,3,2,1,1,7,2,0,84,,,,,,,,,,,,,,,,,,,,
,,,,,84,2020-07-04_10h52.16.971,retriever_ti,2020.1.3,MacIntel,60,Safari,1440,900,,,,,,,,,,,,,,,,,3,,,,,,,,,,,,,,,,,,,,,,,,,,,1297.622,214,right,0.964,scarf         ,8,6,1,1,1,1297.639,1297.639,1300.139,0,59,59,59,1,214,7,8,holdfast    ,scarf         ,html/resources/sequences_IDs/B/04_holdfast.jpg,html/resources/sequences_IDs/A/06_scarf.jpg,4,6,2,1,3,2,3,5,0,84,,,,,,,,,,,,,,,,,,,,
,,,,,84,2020-07-04_10h52.16.971,retriever_ti,2020.1.3,MacIntel,60,Safari,1440,900,,,,,,,,,,,,,,,,,3,,,,,,,,,,,,,,,,,,,,,,,,,,,1301.24,215,right,0.978,phone       ,5,9,4,1,3,1301.255,1301.255,1303.755,0,60,60,60,1,215,1,5,sport_tshirt,phone       ,html/resources/sequences_IDs/B/07_sport_tshirt.jpg,html/resources/sequences_IDs/B/09_phone.jpg,7,9,3,2,4,2,6,8,0,84,,,,,,,,,,,,,,,,,,,,
,,,,,84,2020-07-04_10h52.16.971,retriever_ti,2020.1.3,MacIntel,60,Safari,1440,900,,,,,,,,,,,,,,,,,3,,,,,,,,,,,,,,,,,,,,,,,,,,,1304.373,216,left,0.637,scarf         ,8,6,3,1,3,1304.408,1304.408,1306.907,0,61,61,61,1,216,8,5,scarf         ,phone       ,html/resources/sequences_IDs/A/06_scarf.jpg,html/resources/sequences_IDs/B/09_phone.jpg,6,9,3,2,4,2,5,8,0,84,,,,,,,,,,,,,,,,,,,,
,,,,,84,2020-07-04_10h52.16.971,retriever_ti,2020.1.3,MacIntel,60,Safari,1440,900,,,,,,,,,,,,,,,,,3,,,,,,,,,,,,,,,,,,,,,,,,,,,1307.524,217,left,0.842,holdfast    ,7,4,6,1,3,1307.542,1307.542,1310.043,0,62,62,62,1,217,7,1,holdfast    ,sport_tshirt,html/resources/sequences_IDs/B/04_holdfast.jpg,html/resources/sequences_IDs/B/07_sport_tshirt.jpg,4,7,2,1,3,2,3,6,0,84,,,,,,,,,,,,,,,,,,,,
,,,,,84,2020-07-04_10h52.16.971,retriever_ti,2020.1.3,MacIntel,60,Safari,1440,900,,,,,,,,,,,,,,,,,3,,,,,,,,,,,,,,,,,,,,,,,,,,,1310.661,218,left,0.774,scarf         ,8,6,1,1,1,1310.692,1310.692,1313.19,0,63,63,63,1,218,8,7,scarf         ,holdfast    ,html/resources/sequences_IDs/A/06_scarf.jpg,html/resources/sequences_IDs/B/04_holdfast.jpg,6,4,3,2,2,1,5,3,0,84,,,,,,,,,,,,,,,,,,,,
,,,,,84,2020-07-04_10h52.16.971,retriever_ti,2020.1.3,MacIntel,60,Safari,1440,900,,,,,,,,,,,,,,,,,3,,,,,,,,,,,,,,,,,,,,,,,,,,,1314.292,219,left,0.733,giraffe     ,3,3,2,1,3,1314.309,1314.309,1316.808,0,64,64,64,1,219,3,1,giraffe     ,sport_tshirt,html/resources/sequences_IDs/B/03_giraffe.jpg,html/resources/sequences_IDs/B/07_sport_tshirt.jpg,3,7,1,1,3,2,2,6,0,84,,,,,,,,,,,,,,,,,,,,
,,,,,84,2020-07-04_10h52.16.971,retriever_ti,2020.1.3,MacIntel,60,Safari,1440,900,,,,,,,,,,,,,,,,,3,,,,,,,,,,,,,,,,,,,,,,,,,,,1317.426,220,right,0.951,hat           ,2,8,-3,0,3,1317.459,1317.459,1319.959,0,65,65,65,1,220,5,2,phone       ,hat           ,html/resources/sequences_IDs/B/09_phone.jpg,html/resources/sequences_IDs/A/08_hat.jpg,9,8,4,2,3,2,8,7,0,84,,,,,,,,,,,,,,,,,,,,
,,,,,84,2020-07-04_10h52.16.971,retriever_ti,2020.1.3,MacIntel,60,Safari,1440,900,,,,,,,,,,,,,,,,,3,,,,,,,,,,,,,,,,,,,,,,,,,,,1320.576,221,right,0.812,scarf         ,8,6,2,1,3,1320.593,1320.593,1323.093,0,66,66,66,1,221,6,8,peacock       ,scarf         ,html/resources/sequences_IDs/A/05_peacock.jpg,html/resources/sequences_IDs/A/06_scarf.jpg,5,6,2,1,3,2,4,5,0,84,,,,,,,,,,,,,,,,,,,,
,,,,,84,2020-07-04_10h52.16.971,retriever_ti,2020.1.3,MacIntel,60,Safari,1440,900,,,,,,,,,,,,,,,,,3,,,,,,,,,,,,,,,,,,,,,,,,,,,1323.709,222,right,1.351,holdfast    ,7,4,1,1,1,1323.726,1323.726,1326.226,0,67,67,67,1,222,6,7,peacock       ,holdfast    ,html/resources/sequences_IDs/A/05_peacock.jpg,html/resources/sequences_IDs/B/04_holdfast.jpg,5,4,2,1,2,1,4,3,0,84,,,,,,,,,,,,,,,,,,,,
,,,,,84,2020-07-04_10h52.16.971,retriever_ti,2020.1.3,MacIntel,60,Safari,1440,900,,,,,,,,,,,,,,,,,3,,,,,,,,,,,,,,,,,,,,,,,,,,,1327.327,223,right,0.825,scarf         ,8,6,6,1,3,1327.344,1327.344,1329.843,0,68,68,68,1,223,2,8,hat           ,scarf         ,html/resources/sequences_IDs/A/08_hat.jpg,html/resources/sequences_IDs/A/06_scarf.jpg,8,6,3,2,3,2,7,5,0,84,,,,,,,,,,,,,,,,,,,,
,,,,,84,2020-07-04_10h52.16.971,retriever_ti,2020.1.3,MacIntel,60,Safari,1440,900,,,,,,,,,,,,,,,,,3,,,,,,,,,,,,,,,,,,,,,,,,,,,1330.461,224,left,1.328,peacock       ,6,5,5,1,3,1330.494,1330.494,1332.994,0,69,69,69,1,224,6,1,peacock       ,sport_tshirt,html/resources/sequences_IDs/A/05_peacock.jpg,html/resources/sequences_IDs/B/07_sport_tshirt.jpg,5,7,2,1,3,2,4,6,0,84,,,,,,,,,,,,,,,,,,,,
,,,,,84,2020-07-04_10h52.16.971,retriever_ti,2020.1.3,MacIntel,60,Safari,1440,900,,,,,,,,,,,,,,,,,3,,,,,,,,,,,,,,,,,,,,,,,,,,,1333.611,225,left,0.722,scarf         ,8,6,7,1,3,1333.646,1333.646,1336.145,0,70,70,70,1,225,8,1,scarf         ,sport_tshirt,html/resources/sequences_IDs/A/06_scarf.jpg,html/resources/sequences_IDs/B/07_sport_tshirt.jpg,6,7,3,2,3,2,5,6,0,84,,,,,,,,,,,,,,,,,,,,
,,,,,84,2020-07-04_10h52.16.971,retriever_ti,2020.1.3,MacIntel,60,Safari,1440,900,,,,,,,,,,,,,,,,,3,,,,,,,,,,,,,,,,,,,,,,,,,,,1336.762,226,right,1.436,wolf          ,4,1,1,1,1,1336.795,1336.795,1339.295,0,71,71,71,1,226,3,4,giraffe     ,wolf          ,html/resources/sequences_IDs/B/03_giraffe.jpg,html/resources/sequences_IDs/A/01_wolf.jpg,3,1,1,1,1,1,2,1,0,84,,,,,,,,,,,,,,,,,,,,
,,,,,84,2020-07-04_10h52.16.971,retriever_ti,2020.1.3,MacIntel,60,Safari,1440,900,,,,,,,,,,,,,,,,,3,,,,,,,,,,,,,,,,,,,,,,,,,,,1340.395,227,right,0.843,scarf         ,8,6,1,1,1,1340.413,1340.413,1342.912,0,72,72,72,1,227,7,8,holdfast    ,scarf         ,html/resources/sequences_IDs/B/04_holdfast.jpg,html/resources/sequences_IDs/A/06_scarf.jpg,4,6,2,1,3,2,3,5,0,84,,,,,,,,,,,,,,,,,,,,
,,,,,84,2020-07-04_10h52.16.971,retriever_ti,2020.1.3,MacIntel,60,Safari,1440,900,,,,,,,,,,,,,,,,,3,,,,,,,,,,,,,,,,,,,,,,,,,,,1344.012,228,left,1.254,holdfast    ,7,4,4,1,3,1344.047,1344.047,1346.547,0,73,73,73,1,228,7,3,holdfast    ,giraffe     ,html/resources/sequences_IDs/B/04_holdfast.jpg,html/resources/sequences_IDs/B/03_giraffe.jpg,4,3,2,1,1,1,3,2,0,84,,,,,,,,,,,,,,,,,,,,
,,,,,84,2020-07-04_10h52.16.971,retriever_ti,2020.1.3,MacIntel,60,Safari,1440,900,,,,,,,,,,,,,,,,,3,,,,,,,,,,,,,,,,,,,,,,,,,,,1347.148,229,right,1.456,peacock       ,6,5,3,1,3,1347.163,1347.163,1349.664,0,74,74,74,1,229,3,6,giraffe     ,peacock       ,html/resources/sequences_IDs/B/03_giraffe.jpg,html/resources/sequences_IDs/A/05_peacock.jpg,3,5,1,1,2,1,2,4,0,84,,,,,,,,,,,,,,,,,,,,
