instructionsLoop.thisRepN,instructionsLoop.thisTrialN,instructionsLoop.thisN,instructionsLoop.thisIndex,instructionsLoop.ran,participant,date,expName,psychopyVersion,OS,frameRate,browser,xResolution,yResolution,fix_onset,tprac,practiceKey.keys,practiceKey.rt,pracitem_chosen_name,acc_practice,P1_onsetPrac,P2_onsetPrac,onsetFeedbPrac,practiceTrials.thisRepN,practiceTrials.thisTrialN,practiceTrials.thisN,practiceTrials.thisIndex,practiceTrials.ran,P1,P2,Block,LocItem1,LocItem2,NameItem1,NameItem2,key_respAC_prac.keys,key_respAC_prac.corr,key_respAC_prac.rt,AC_acc,Attentions.thisRepN,Attentions.thisTrialN,Attentions.thisN,Attentions.thisIndex,Attentions.ran,Stim,Loc1,Loc2,Loc3,Loc4,CorrAns,keyDisturbed.keys,keyDisturbed.rt,repPractice.thisRepN,repPractice.thisTrialN,repPractice.thisN,repPractice.thisIndex,repPractice.ran,fixcross_onsetMain,trialNumber,key_resp.keys,key_resp.rt,item_chosen_name,item_chosen_value,item_chosen_ID,diff_chosen_minus_reject,acc_real,acc_feedback,P1_onset,P2_onset,feedb_onset,trials.thisRepN,trials.thisTrialN,trials.thisN,trials.thisIndex,trials.ran,Trial,ValueP1,ValueP2,P1name,P2name,P1Loc,P2Loc,P1id,P2id,Micro_categoryP1,Macro_categoryP1,Micro_categoryP2,Macro_categoryP2,ID_sequenceP1,ID_sequenceP2,InverseFb,pNumber,repBlocks.thisRepN,repBlocks.thisTrialN,repBlocks.thisN,repBlocks.thisIndex,repBlocks.ran,key_respAC.keys,key_respAC.corr,key_respAC.rt,trials_AC.thisRepN,trials_AC.thisTrialN,trials_AC.thisN,trials_AC.thisIndex,trials_AC.ran,Bonus,BonusLoop.thisRepN,BonusLoop.thisTrialN,BonusLoop.thisN,BonusLoop.thisIndex,BonusLoop.ran,comments
0,0,0,0,1,86,2020-07-04_19h58.10.966,retriever_ti,2020.1.3,Win32,60,Chrome,1920,1080,,,,,,,,,,,,,,,,,,,,,,,,,,,,,,,,,,,,,,,,,,,,,,,,,,,,,,,,,,,,,,,,,,,,,,,,,,,,,,,,,,,,,,,,,,,,,,,,,,
1,0,1,0,1,86,2020-07-04_19h58.10.966,retriever_ti,2020.1.3,Win32,60,Chrome,1920,1080,,,,,,,,,,,,,,,,,,,,,,,,,,,,,,,,,,,,,,,,,,,,,,,,,,,,,,,,,,,,,,,,,,,,,,,,,,,,,,,,,,,,,,,,,,,,,,,,,,
2,0,2,0,1,86,2020-07-04_19h58.10.966,retriever_ti,2020.1.3,Win32,60,Chrome,1920,1080,,,,,,,,,,,,,,,,,,,,,,,,,,,,,,,,,,,,,,,,,,,,,,,,,,,,,,,,,,,,,,,,,,,,,,,,,,,,,,,,,,,,,,,,,,,,,,,,,,
3,0,3,0,1,86,2020-07-04_19h58.10.966,retriever_ti,2020.1.3,Win32,60,Chrome,1920,1080,,,,,,,,,,,,,,,,,,,,,,,,,,,,,,,,,,,,,,,,,,,,,,,,,,,,,,,,,,,,,,,,,,,,,,,,,,,,,,,,,,,,,,,,,,,,,,,,,,
4,0,4,0,1,86,2020-07-04_19h58.10.966,retriever_ti,2020.1.3,Win32,60,Chrome,1920,1080,,,,,,,,,,,,,,,,,,,,,,,,,,,,,,,,,,,,,,,,,,,,,,,,,,,,,,,,,,,,,,,,,,,,,,,,,,,,,,,,,,,,,,,,,,,,,,,,,,
5,0,5,0,1,86,2020-07-04_19h58.10.966,retriever_ti,2020.1.3,Win32,60,Chrome,1920,1080,,,,,,,,,,,,,,,,,,,,,,,,,,,,,,,,,,,,,,,,,,,,,,,,,,,,,,,,,,,,,,,,,,,,,,,,,,,,,,,,,,,,,,,,,,,,,,,,,,
6,0,6,0,1,86,2020-07-04_19h58.10.966,retriever_ti,2020.1.3,Win32,60,Chrome,1920,1080,,,,,,,,,,,,,,,,,,,,,,,,,,,,,,,,,,,,,,,,,,,,,,,,,,,,,,,,,,,,,,,,,,,,,,,,,,,,,,,,,,,,,,,,,,,,,,,,,,
7,0,7,0,1,86,2020-07-04_19h58.10.966,retriever_ti,2020.1.3,Win32,60,Chrome,1920,1080,,,,,,,,,,,,,,,,,,,,,,,,,,,,,,,,,,,,,,,,,,,,,,,,,,,,,,,,,,,,,,,,,,,,,,,,,,,,,,,,,,,,,,,,,,,,,,,,,,
8,0,8,0,1,86,2020-07-04_19h58.10.966,retriever_ti,2020.1.3,Win32,60,Chrome,1920,1080,,,,,,,,,,,,,,,,,,,,,,,,,,,,,,,,,,,,,,,,,,,,,,,,,,,,,,,,,,,,,,,,,,,,,,,,,,,,,,,,,,,,,,,,,,,,,,,,,,
9,0,9,0,1,86,2020-07-04_19h58.10.966,retriever_ti,2020.1.3,Win32,60,Chrome,1920,1080,,,,,,,,,,,,,,,,,,,,,,,,,,,,,,,,,,,,,,,,,,,,,,,,,,,,,,,,,,,,,,,,,,,,,,,,,,,,,,,,,,,,,,,,,,,,,,,,,,
10,0,10,0,1,86,2020-07-04_19h58.10.966,retriever_ti,2020.1.3,Win32,60,Chrome,1920,1080,,,,,,,,,,,,,,,,,,,,,,,,,,,,,,,,,,,,,,,,,,,,,,,,,,,,,,,,,,,,,,,,,,,,,,,,,,,,,,,,,,,,,,,,,,,,,,,,,,
11,0,11,0,1,86,2020-07-04_19h58.10.966,retriever_ti,2020.1.3,Win32,60,Chrome,1920,1080,,,,,,,,,,,,,,,,,,,,,,,,,,,,,,,,,,,,,,,,,,,,,,,,,,,,,,,,,,,,,,,,,,,,,,,,,,,,,,,,,,,,,,,,,,,,,,,,,,
12,0,12,0,1,86,2020-07-04_19h58.10.966,retriever_ti,2020.1.3,Win32,60,Chrome,1920,1080,,,,,,,,,,,,,,,,,,,,,,,,,,,,,,,,,,,,,,,,,,,,,,,,,,,,,,,,,,,,,,,,,,,,,,,,,,,,,,,,,,,,,,,,,,,,,,,,,,
13,0,13,0,1,86,2020-07-04_19h58.10.966,retriever_ti,2020.1.3,Win32,60,Chrome,1920,1080,,,,,,,,,,,,,,,,,,,,,,,,,,,,,,,,,,,,,,,,,,,,,,,,,,,,,,,,,,,,,,,,,,,,,,,,,,,,,,,,,,,,,,,,,,,,,,,,,,
14,0,14,0,1,86,2020-07-04_19h58.10.966,retriever_ti,2020.1.3,Win32,60,Chrome,1920,1080,,,,,,,,,,,,,,,,,,,,,,,,,,,,,,,,,,,,,,,,,,,,,,,,,,,,,,,,,,,,,,,,,,,,,,,,,,,,,,,,,,,,,,,,,,,,,,,,,,
15,0,15,0,1,86,2020-07-04_19h58.10.966,retriever_ti,2020.1.3,Win32,60,Chrome,1920,1080,,,,,,,,,,,,,,,,,,,,,,,,,,,,,,,,,,,,,,,,,,,,,,,,,,,,,,,,,,,,,,,,,,,,,,,,,,,,,,,,,,,,,,,,,,,,,,,,,,
16,0,16,0,1,86,2020-07-04_19h58.10.966,retriever_ti,2020.1.3,Win32,60,Chrome,1920,1080,,,,,,,,,,,,,,,,,,,,,,,,,,,,,,,,,,,,,,,,,,,,,,,,,,,,,,,,,,,,,,,,,,,,,,,,,,,,,,,,,,,,,,,,,,,,,,,,,,
17,0,17,0,1,86,2020-07-04_19h58.10.966,retriever_ti,2020.1.3,Win32,60,Chrome,1920,1080,,,,,,,,,,,,,,,,,,,,,,,,,,,,,,,,,,,,,,,,,,,,,,,,,,,,,,,,,,,,,,,,,,,,,,,,,,,,,,,,,,,,,,,,,,,,,,,,,,
,,,,,86,2020-07-04_19h58.10.966,retriever_ti,2020.1.3,Win32,60,Chrome,1920,1080,335.849625,1,left,1.69809,beetle,0,335.863895,335.863895,338.365445,0,0,0,0,1,2,5,1,html/resources/stimuli_practice_decision/04_beetle.jpg,html/resources/stimuli_practice_decision/02_canary.jpg,beetle,canary,,,,,,,,,,,,,,,,,,,,,,,,,,,,,,,,,,,,,,,,,,,,,,,,,,,,,,,,,,,,,,,,,,,,,,,,,,,,,
,,,,,86,2020-07-04_19h58.10.966,retriever_ti,2020.1.3,Win32,60,Chrome,1920,1080,338.939945,2,right,1.78523,sock,0,338.96442,338.96442,341.463645,0,1,1,1,1,4,3,1,html/resources/stimuli_practice_decision/01_rabbit.jpg,html/resources/stimuli_practice_decision/07_sock.jpg,rabbit,sock,,,,,,,,,,,,,,,,,,,,,,,,,,,,,,,,,,,,,,,,,,,,,,,,,,,,,,,,,,,,,,,,,,,,,,,,,,,,,
,,,,,86,2020-07-04_19h58.10.966,retriever_ti,2020.1.3,Win32,60,Chrome,1920,1080,342.4656,3,right,1.84702,beetle,0,342.48318,342.48318,344.980455,0,2,2,2,1,6,2,1,html/resources/stimuli_practice_decision/06_pullover.jpg,html/resources/stimuli_practice_decision/04_beetle.jpg,pullover,beetle,,,,,,,,,,,,,,,,,,,,,,,,,,,,,,,,,,,,,,,,,,,,,,,,,,,,,,,,,,,,,,,,,,,,,,,,,,,,,
,,,,,86,2020-07-04_19h58.10.966,retriever_ti,2020.1.3,Win32,60,Chrome,1920,1080,345.497715,4,right,1.42072,handmixer,0,345.51597,345.51597,348.01395,0,3,3,3,1,7,1,1,html/resources/stimuli_practice_decision/05_glasses.jpg,html/resources/stimuli_practice_decision/08_handmixer.jpg,glasses,handmixer,,,,,,,,,,,,,,,,,,,,,,,,,,,,,,,,,,,,,,,,,,,,,,,,,,,,,,,,,,,,,,,,,,,,,,,,,,,,,
,,,,,86,2020-07-04_19h58.10.966,retriever_ti,2020.1.3,Win32,60,Chrome,1920,1080,348.53246,5,right,2.09241,pullover,0,348.565925,348.565925,351.063865,0,4,4,4,1,7,6,1,html/resources/stimuli_practice_decision/05_glasses.jpg,html/resources/stimuli_practice_decision/06_pullover.jpg,glasses,pullover,,,,,,,,,,,,,,,,,,,,,,,,,,,,,,,,,,,,,,,,,,,,,,,,,,,,,,,,,,,,,,,,,,,,,,,,,,,,,
,,,,,86,2020-07-04_19h58.10.966,retriever_ti,2020.1.3,Win32,60,Chrome,1920,1080,352.066145,6,right,1.727215,glasses,1,352.099955,352.099955,354.597155,0,5,5,5,1,4,7,1,html/resources/stimuli_practice_decision/01_rabbit.jpg,html/resources/stimuli_practice_decision/05_glasses.jpg,rabbit,glasses,,,,,,,,,,,,,,,,,,,,,,,,,,,,,,,,,,,,,,,,,,,,,,,,,,,,,,,,,,,,,,,,,,,,,,,,,,,,,
,,,,,86,2020-07-04_19h58.10.966,retriever_ti,2020.1.3,Win32,60,Chrome,1920,1080,355.114605,7,right,1.738375,beetle,1,355.132865,355.132865,357.630595,0,6,6,6,1,1,2,1,html/resources/stimuli_practice_decision/08_handmixer.jpg,html/resources/stimuli_practice_decision/04_beetle.jpg,handmixer,beetle,,,,,,,,,,,,,,,,,,,,,,,,,,,,,,,,,,,,,,,,,,,,,,,,,,,,,,,,,,,,,,,,,,,,,,,,,,,,,
,,,,,86,2020-07-04_19h58.10.966,retriever_ti,2020.1.3,Win32,60,Chrome,1920,1080,358.632835,8,right,1.678295,sock,0,358.66702,358.66702,361.16398,0,7,7,7,1,4,3,1,html/resources/stimuli_practice_decision/01_rabbit.jpg,html/resources/stimuli_practice_decision/07_sock.jpg,rabbit,sock,,,,,,,,,,,,,,,,,,,,,,,,,,,,,,,,,,,,,,,,,,,,,,,,,,,,,,,,,,,,,,,,,,,,,,,,,,,,,
,,,,,86,2020-07-04_19h58.10.966,retriever_ti,2020.1.3,Win32,60,Chrome,1920,1080,,,,,,,,,,,,,,,,,,,,,,down,1,4.24478,1,0,0,0,1,1,html/resources/sequences_IDs/star.png,square ↑,circle →,star ↓,← triangle,down,,,,,,,,,,,,,,,,,,,,,,,,,,,,,,,,,,,,,,,,,,,,,,,,,,,,,,,,,,,,,,
,,,,,86,2020-07-04_19h58.10.966,retriever_ti,2020.1.3,Win32,60,Chrome,1920,1080,,,,,,,,,,,,,,,,,,,,,,left,1,2.309165,1,0,1,1,2,1,html/resources/sequences_IDs/square1.png,star ↑,triangle →,circle ↓,← square,left,,,,,,,,,,,,,,,,,,,,,,,,,,,,,,,,,,,,,,,,,,,,,,,,,,,,,,,,,,,,,,
,,,,,86,2020-07-04_19h58.10.966,retriever_ti,2020.1.3,Win32,60,Chrome,1920,1080,,,,,,,,,,,,,,,,,,,,,,down,1,1.78071,1,0,2,2,3,1,html/resources/sequences_IDs/triangle.png,star ↑,square →,triangle ↓,← circle,down,,,,,,,,,,,,,,,,,,,,,,,,,,,,,,,,,,,,,,,,,,,,,,,,,,,,,,,,,,,,,,
,,,,,86,2020-07-04_19h58.10.966,retriever_ti,2020.1.3,Win32,60,Chrome,1920,1080,,,,,,,,,,,,,,,,,,,,,,up,1,0.91866,1,0,3,3,0,1,html/resources/sequences_IDs/circle.png,circle ↑,square →,triangle ↓,← star ,up,,,,,,,,,,,,,,,,,,,,,,,,,,,,,,,,,,,,,,,,,,,,,,,,,,,,,,,,,,,,,,
,,,,,86,2020-07-04_19h58.10.966,retriever_ti,2020.1.3,Win32,60,Chrome,1920,1080,,,,,,,,,,,,,,,,,,,,,,,,,,,,,,,,,,,,,0,9.546565,0,0,0,0,1,,,,,,,,,,,,,,,,,,,,,,,,,,,,,,,,,,,,,,,,,,,,,,,,,,,,,,,
,,,,,86,2020-07-04_19h58.10.966,retriever_ti,2020.1.3,Win32,60,Chrome,1920,1080,387.763845,9,right,1.752925,glasses,1,387.79846,387.79846,390.297915,0,0,0,0,1,6,7,1,html/resources/stimuli_practice_decision/06_pullover.jpg,html/resources/stimuli_practice_decision/05_glasses.jpg,pullover,glasses,,,,,,,,,,,,,,,,,,,,,,,,,,,,,,,,,,,,,,,,,,,,,,,,,,,,,,,,,,,,,,,,,,,,,,,,,,,,,
,,,,,86,2020-07-04_19h58.10.966,retriever_ti,2020.1.3,Win32,60,Chrome,1920,1080,391.29873,10,right,2.27453,beetle,0,391.31723,391.31723,393.814555,0,1,1,1,1,6,2,1,html/resources/stimuli_practice_decision/06_pullover.jpg,html/resources/stimuli_practice_decision/04_beetle.jpg,pullover,beetle,,,,,,,,,,,,,,,,,,,,,,,,,,,,,,,,,,,,,,,,,,,,,,,,,,,,,,,,,,,,,,,,,,,,,,,,,,,,,
,,,,,86,2020-07-04_19h58.10.966,retriever_ti,2020.1.3,Win32,60,Chrome,1920,1080,394.333205,11,NaN,NaN,No_response,2,394.36678,394.36678,396.86429,0,2,2,2,1,5,6,1,html/resources/stimuli_practice_decision/02_canary.jpg,html/resources/stimuli_practice_decision/06_pullover.jpg,canary,pullover,,,,,,,,,,,,,,,,,,,,,,,,,,,,,,,,,,,,,,,,,,,,,,,,,,,,,,,,,,,,,,,,,,,,,,,,,,,,,
,,,,,86,2020-07-04_19h58.10.966,retriever_ti,2020.1.3,Win32,60,Chrome,1920,1080,397.36538,12,right,1.231315,glasses,0,397.383565,397.383565,399.88135,0,3,3,3,1,8,7,1,html/resources/stimuli_practice_decision/03_squirrel.jpg,html/resources/stimuli_practice_decision/05_glasses.jpg,squirrel,glasses,,,,,,,,,,,,,,,,,,,,,,,,,,,,,,,,,,,,,,,,,,,,,,,,,,,,,,,,,,,,,,,,,,,,,,,,,,,,,
,,,,,86,2020-07-04_19h58.10.966,retriever_ti,2020.1.3,Win32,60,Chrome,1920,1080,400.881435,13,right,1.20506,sock,0,400.898055,400.898055,403.39805,0,4,4,4,1,5,3,1,html/resources/stimuli_practice_decision/02_canary.jpg,html/resources/stimuli_practice_decision/07_sock.jpg,canary,sock,,,,,,,,,,,,,,,,,,,,,,,,,,,,,,,,,,,,,,,,,,,,,,,,,,,,,,,,,,,,,,,,,,,,,,,,,,,,,
,,,,,86,2020-07-04_19h58.10.966,retriever_ti,2020.1.3,Win32,60,Chrome,1920,1080,403.9167,14,left,0.88525,glasses,0,403.933605,403.933605,406.431515,0,5,5,5,1,7,8,1,html/resources/stimuli_practice_decision/05_glasses.jpg,html/resources/stimuli_practice_decision/03_squirrel.jpg,glasses,squirrel,,,,,,,,,,,,,,,,,,,,,,,,,,,,,,,,,,,,,,,,,,,,,,,,,,,,,,,,,,,,,,,,,,,,,,,,,,,,,
,,,,,86,2020-07-04_19h58.10.966,retriever_ti,2020.1.3,Win32,60,Chrome,1920,1080,407.43219,15,right,1.394165,rabbit,0,407.467035,407.467035,409.964495,0,6,6,6,1,5,4,1,html/resources/stimuli_practice_decision/02_canary.jpg,html/resources/stimuli_practice_decision/01_rabbit.jpg,canary,rabbit,,,,,,,,,,,,,,,,,,,,,,,,,,,,,,,,,,,,,,,,,,,,,,,,,,,,,,,,,,,,,,,,,,,,,,,,,,,,,
,,,,,86,2020-07-04_19h58.10.966,retriever_ti,2020.1.3,Win32,60,Chrome,1920,1080,410.96686,16,left,1.18843,canary,1,410.98434,410.98434,413.481655,0,7,7,7,1,5,3,1,html/resources/stimuli_practice_decision/02_canary.jpg,html/resources/stimuli_practice_decision/07_sock.jpg,canary,sock,,,,,,,,,,,,,,,,,,,,,,,,,,,,,,,,,,,,,,,,,,,,,,,,,,,,,,,,,,,,,,,,,,,,,,,,,,,,,
,,,,,86,2020-07-04_19h58.10.966,retriever_ti,2020.1.3,Win32,60,Chrome,1920,1080,,,,,,,,,,,,,,,,,,,,,,up,1,1.268765,1,0,0,0,0,1,html/resources/sequences_IDs/circle.png,circle ↑,square →,triangle ↓,← star ,up,,,,,,,,,,,,,,,,,,,,,,,,,,,,,,,,,,,,,,,,,,,,,,,,,,,,,,,,,,,,,,
,,,,,86,2020-07-04_19h58.10.966,retriever_ti,2020.1.3,Win32,60,Chrome,1920,1080,,,,,,,,,,,,,,,,,,,,,,down,1,2.40068,1,0,1,1,3,1,html/resources/sequences_IDs/triangle.png,star ↑,square →,triangle ↓,← circle,down,,,,,,,,,,,,,,,,,,,,,,,,,,,,,,,,,,,,,,,,,,,,,,,,,,,,,,,,,,,,,,
,,,,,86,2020-07-04_19h58.10.966,retriever_ti,2020.1.3,Win32,60,Chrome,1920,1080,,,,,,,,,,,,,,,,,,,,,,down,1,1.05295,1,0,2,2,1,1,html/resources/sequences_IDs/star.png,square ↑,circle →,star ↓,← triangle,down,,,,,,,,,,,,,,,,,,,,,,,,,,,,,,,,,,,,,,,,,,,,,,,,,,,,,,,,,,,,,,
,,,,,86,2020-07-04_19h58.10.966,retriever_ti,2020.1.3,Win32,60,Chrome,1920,1080,,,,,,,,,,,,,,,,,,,,,,left,1,1.35424,1,0,3,3,2,1,html/resources/sequences_IDs/square1.png,star ↑,triangle →,circle ↓,← square,left,,,,,,,,,,,,,,,,,,,,,,,,,,,,,,,,,,,,,,,,,,,,,,,,,,,,,,,,,,,,,,
,,,,,86,2020-07-04_19h58.10.966,retriever_ti,2020.1.3,Win32,60,Chrome,1920,1080,,,,,,,,,,,,,,,,,,,,,,,,,,,,,,,,,,,,,0,24.6909,1,0,1,0,1,,,,,,,,,,,,,,,,,,,,,,,,,,,,,,,,,,,,,,,,,,,,,,,,,,,,,,,
,,,,,86,2020-07-04_19h58.10.966,retriever_ti,2020.1.3,Win32,60,Chrome,1920,1080,,,,,,,,,,,,,,,,,1,,,,,,,,,,,,,,,,,,,,,,,,,,,455.494645,1,left,0.975895,parrot      ,1,5,-6,0,3,455.49965,455.49965,458.000755,0,0,0,0,1,1,1,7,parrot      ,phone       ,html/resources/sequences_IDs/B/05_parrot.jpg,html/resources/sequences_IDs/B/09_phone.jpg,5,9,2,1,4,2,4,7,0,86,,,,,,,,,,,,,,,,,,,,
,,,,,86,2020-07-04_19h58.10.966,retriever_ti,2020.1.3,Win32,60,Chrome,1920,1080,,,,,,,,,,,,,,,,,1,,,,,,,,,,,,,,,,,,,,,,,,,,,458.62017,2,right,1.181925,clownfish     ,6,4,3,1,3,458.634905,458.634905,461.13261,0,1,1,1,1,2,3,6,redfox      ,clownfish     ,html/resources/sequences_IDs/B/01_redfox.jpg,html/resources/sequences_IDs/A/04_clownfish.jpg,1,4,1,1,2,1,1,3,0,86,,,,,,,,,,,,,,,,,,,,
,,,,,86,2020-07-04_19h58.10.966,retriever_ti,2020.1.3,Win32,60,Chrome,1920,1080,,,,,,,,,,,,,,,,,1,,,,,,,,,,,,,,,,,,,,,,,,,,,461.750115,3,left,1.61755,sport_tshirt,5,7,2,1,3,461.768215,461.768215,464.26605,0,2,2,2,1,3,5,3,sport_tshirt,redfox      ,html/resources/sequences_IDs/B/07_sport_tshirt.jpg,html/resources/sequences_IDs/B/01_redfox.jpg,7,1,3,2,1,1,6,1,0,86,,,,,,,,,,,,,,,,,,,,
,,,,,86,2020-07-04_19h58.10.966,retriever_ti,2020.1.3,Win32,60,Chrome,1920,1080,,,,,,,,,,,,,,,,,1,,,,,,,,,,,,,,,,,,,,,,,,,,,464.88259,4,right,1.53489,redfox      ,3,1,2,1,3,464.90091,464.90091,467.399855,0,3,3,3,1,4,1,3,parrot      ,redfox      ,html/resources/sequences_IDs/B/05_parrot.jpg,html/resources/sequences_IDs/B/01_redfox.jpg,5,1,2,1,1,1,4,1,0,86,,,,,,,,,,,,,,,,,,,,
,,,,,86,2020-07-04_19h58.10.966,retriever_ti,2020.1.3,Win32,60,Chrome,1920,1080,,,,,,,,,,,,,,,,,1,,,,,,,,,,,,,,,,,,,,,,,,,,,468.0181,5,right,1.064635,clownfish     ,6,4,1,1,1,468.05158,468.05158,470.549695,0,4,4,4,1,5,5,6,sport_tshirt,clownfish     ,html/resources/sequences_IDs/B/07_sport_tshirt.jpg,html/resources/sequences_IDs/A/04_clownfish.jpg,7,4,3,2,2,1,6,3,0,86,,,,,,,,,,,,,,,,,,,,
,,,,,86,2020-07-04_19h58.10.966,retriever_ti,2020.1.3,Win32,60,Chrome,1920,1080,,,,,,,,,,,,,,,,,1,,,,,,,,,,,,,,,,,,,,,,,,,,,471.650905,6,left,1.671755,satellite_dish,4,10,1,1,1,471.668825,471.668825,474.166105,0,5,5,5,1,6,4,3,satellite_dish,redfox      ,html/resources/sequences_IDs/A/10_satellite_dish.jpg,html/resources/sequences_IDs/B/01_redfox.jpg,10,1,4,2,1,1,8,1,0,86,,,,,,,,,,,,,,,,,,,,
,,,,,86,2020-07-04_19h58.10.966,retriever_ti,2020.1.3,Win32,60,Chrome,1920,1080,,,,,,,,,,,,,,,,,1,,,,,,,,,,,,,,,,,,,,,,,,,,,475.268225,7,left,1.24375,clownfish     ,6,4,4,1,3,475.301855,475.301855,477.79949,0,6,6,6,1,7,6,2,clownfish     ,scarf         ,html/resources/sequences_IDs/A/04_clownfish.jpg,html/resources/sequences_IDs/A/06_scarf.jpg,4,6,2,1,3,2,3,5,0,86,,,,,,,,,,,,,,,,,,,,
,,,,,86,2020-07-04_19h58.10.966,retriever_ti,2020.1.3,Win32,60,Chrome,1920,1080,,,,,,,,,,,,,,,,,1,,,,,,,,,,,,,,,,,,,,,,,,,,,478.418215,8,left,1.18906,clownfish     ,6,4,-1,0,0,478.45173,478.45173,480.949525,0,7,7,7,1,8,6,7,clownfish     ,phone       ,html/resources/sequences_IDs/A/04_clownfish.jpg,html/resources/sequences_IDs/B/09_phone.jpg,4,9,2,1,4,2,3,7,0,86,,,,,,,,,,,,,,,,,,,,
,,,,,86,2020-07-04_19h58.10.966,retriever_ti,2020.1.3,Win32,60,Chrome,1920,1080,,,,,,,,,,,,,,,,,1,,,,,,,,,,,,,,,,,,,,,,,,,,,482.051445,9,right,1.797735,clownfish     ,6,4,2,1,3,482.068935,482.068935,484.566465,0,8,8,8,1,9,4,6,satellite_dish,clownfish     ,html/resources/sequences_IDs/A/10_satellite_dish.jpg,html/resources/sequences_IDs/A/04_clownfish.jpg,10,4,4,2,2,1,8,3,0,86,,,,,,,,,,,,,,,,,,,,
,,,,,86,2020-07-04_19h58.10.966,retriever_ti,2020.1.3,Win32,60,Chrome,1920,1080,,,,,,,,,,,,,,,,,1,,,,,,,,,,,,,,,,,,,,,,,,,,,485.18385,10,left,1.95248,phone       ,7,9,1,1,1,485.2018,485.2018,487.699685,0,9,9,9,1,10,7,6,phone       ,clownfish     ,html/resources/sequences_IDs/B/09_phone.jpg,html/resources/sequences_IDs/A/04_clownfish.jpg,9,4,4,2,2,1,7,3,0,86,,,,,,,,,,,,,,,,,,,,
,,,,,86,2020-07-04_19h58.10.966,retriever_ti,2020.1.3,Win32,60,Chrome,1920,1080,,,,,,,,,,,,,,,,,1,,,,,,,,,,,,,,,,,,,,,,,,,,,488.80171,11,left,1.807985,satellite_dish,4,10,-1,0,0,488.81877,488.81877,491.316385,0,10,10,10,1,11,4,5,satellite_dish,sport_tshirt,html/resources/sequences_IDs/A/10_satellite_dish.jpg,html/resources/sequences_IDs/B/07_sport_tshirt.jpg,10,7,4,2,3,2,8,6,0,86,,,,,,,,,,,,,,,,,,,,
,,,,,86,2020-07-04_19h58.10.966,retriever_ti,2020.1.3,Win32,60,Chrome,1920,1080,,,,,,,,,,,,,,,,,1,,,,,,,,,,,,,,,,,,,,,,,,,,,492.41739,12,left,1.758645,phone       ,7,9,-1,0,0,492.4508,492.4508,494.949845,0,11,11,11,1,12,7,8,phone       ,camel         ,html/resources/sequences_IDs/B/09_phone.jpg,html/resources/sequences_IDs/A/03_camel.jpg,9,3,4,2,1,1,7,2,0,86,,,,,,,,,,,,,,,,,,,,
,,,,,86,2020-07-04_19h58.10.966,retriever_ti,2020.1.3,Win32,60,Chrome,1920,1080,,,,,,,,,,,,,,,,,1,,,,,,,,,,,,,,,,,,,,,,,,,,,496.051765,13,left,1.32027,phone       ,7,9,4,1,3,496.085355,496.085355,498.58324,0,12,12,12,1,13,7,3,phone       ,redfox      ,html/resources/sequences_IDs/B/09_phone.jpg,html/resources/sequences_IDs/B/01_redfox.jpg,9,1,4,2,1,1,7,1,0,86,,,,,,,,,,,,,,,,,,,,
,,,,,86,2020-07-04_19h58.10.966,retriever_ti,2020.1.3,Win32,60,Chrome,1920,1080,,,,,,,,,,,,,,,,,1,,,,,,,,,,,,,,,,,,,,,,,,,,,499.20083,14,right,2.342885,sport_tshirt,5,7,1,1,1,499.235555,499.235555,501.7333,0,13,13,13,1,14,4,5,satellite_dish,sport_tshirt,html/resources/sequences_IDs/A/10_satellite_dish.jpg,html/resources/sequences_IDs/B/07_sport_tshirt.jpg,10,7,4,2,3,2,8,6,0,86,,,,,,,,,,,,,,,,,,,,
,,,,,86,2020-07-04_19h58.10.966,retriever_ti,2020.1.3,Win32,60,Chrome,1920,1080,,,,,,,,,,,,,,,,,1,,,,,,,,,,,,,,,,,,,,,,,,,,,502.83543,15,right,2.054225,redfox      ,3,1,-1,0,0,502.85214,502.85214,505.35001,0,14,14,14,1,15,4,3,satellite_dish,redfox      ,html/resources/sequences_IDs/A/10_satellite_dish.jpg,html/resources/sequences_IDs/B/01_redfox.jpg,10,1,4,2,1,1,8,1,0,86,,,,,,,,,,,,,,,,,,,,
,,,,,86,2020-07-04_19h58.10.966,retriever_ti,2020.1.3,Win32,60,Chrome,1920,1080,,,,,,,,,,,,,,,,,1,,,,,,,,,,,,,,,,,,,,,,,,,,,506.45204,16,left,0.967205,camel         ,8,3,5,1,3,506.485595,506.485595,508.983495,0,15,15,15,1,16,8,3,camel         ,redfox      ,html/resources/sequences_IDs/A/03_camel.jpg,html/resources/sequences_IDs/B/01_redfox.jpg,3,1,1,1,1,1,2,1,0,86,,,,,,,,,,,,,,,,,,,,
,,,,,86,2020-07-04_19h58.10.966,retriever_ti,2020.1.3,Win32,60,Chrome,1920,1080,,,,,,,,,,,,,,,,,1,,,,,,,,,,,,,,,,,,,,,,,,,,,509.601005,17,left,1.369175,redfox      ,3,1,1,1,1,509.63561,509.63561,512.13365,0,16,16,16,1,17,3,2,redfox      ,scarf         ,html/resources/sequences_IDs/B/01_redfox.jpg,html/resources/sequences_IDs/A/06_scarf.jpg,1,6,1,1,3,2,1,5,0,86,,,,,,,,,,,,,,,,,,,,
,,,,,86,2020-07-04_19h58.10.966,retriever_ti,2020.1.3,Win32,60,Chrome,1920,1080,,,,,,,,,,,,,,,,,1,,,,,,,,,,,,,,,,,,,,,,,,,,,513.235625,18,left,1.43072,camel         ,8,3,4,1,3,513.25241,513.25241,515.750215,0,17,17,17,1,18,8,4,camel         ,satellite_dish,html/resources/sequences_IDs/A/03_camel.jpg,html/resources/sequences_IDs/A/10_satellite_dish.jpg,3,10,1,1,4,2,2,8,0,86,,,,,,,,,,,,,,,,,,,,
,,,,,86,2020-07-04_19h58.10.966,retriever_ti,2020.1.3,Win32,60,Chrome,1920,1080,,,,,,,,,,,,,,,,,1,,,,,,,,,,,,,,,,,,,,,,,,,,,516.369005,19,right,1.56714,sport_tshirt,5,7,3,1,3,516.385945,516.385945,518.88358,0,18,18,18,1,19,2,5,scarf         ,sport_tshirt,html/resources/sequences_IDs/A/06_scarf.jpg,html/resources/sequences_IDs/B/07_sport_tshirt.jpg,6,7,3,2,3,2,5,6,0,86,,,,,,,,,,,,,,,,,,,,
,,,,,86,2020-07-04_19h58.10.966,retriever_ti,2020.1.3,Win32,60,Chrome,1920,1080,,,,,,,,,,,,,,,,,1,,,,,,,,,,,,,,,,,,,,,,,,,,,519.501155,20,right,1.47992,sport_tshirt,5,7,4,1,3,519.51942,519.51942,522.01699,0,19,19,19,1,20,1,5,parrot      ,sport_tshirt,html/resources/sequences_IDs/B/05_parrot.jpg,html/resources/sequences_IDs/B/07_sport_tshirt.jpg,5,7,2,1,3,2,4,6,0,86,,,,,,,,,,,,,,,,,,,,
,,,,,86,2020-07-04_19h58.10.966,retriever_ti,2020.1.3,Win32,60,Chrome,1920,1080,,,,,,,,,,,,,,,,,1,,,,,,,,,,,,,,,,,,,,,,,,,,,522.63582,21,left,0.69052,camel         ,8,3,1,1,1,522.66945,522.66945,525.167055,0,20,20,20,1,21,8,7,camel         ,phone       ,html/resources/sequences_IDs/A/03_camel.jpg,html/resources/sequences_IDs/B/09_phone.jpg,3,9,1,1,4,2,2,7,0,86,,,,,,,,,,,,,,,,,,,,
,,,,,86,2020-07-04_19h58.10.966,retriever_ti,2020.1.3,Win32,60,Chrome,1920,1080,,,,,,,,,,,,,,,,,1,,,,,,,,,,,,,,,,,,,,,,,,,,,526.269195,22,left,1.7238,redfox      ,3,1,1,1,1,526.302685,526.302685,528.800465,0,21,21,21,1,22,3,2,redfox      ,scarf         ,html/resources/sequences_IDs/B/01_redfox.jpg,html/resources/sequences_IDs/A/06_scarf.jpg,1,6,1,1,3,2,1,5,0,86,,,,,,,,,,,,,,,,,,,,
,,,,,86,2020-07-04_19h58.10.966,retriever_ti,2020.1.3,Win32,60,Chrome,1920,1080,,,,,,,,,,,,,,,,,1,,,,,,,,,,,,,,,,,,,,,,,,,,,529.90132,23,left,1.54564,phone       ,7,9,5,1,3,529.936215,529.936215,532.433525,0,22,22,22,1,23,7,2,phone       ,scarf         ,html/resources/sequences_IDs/B/09_phone.jpg,html/resources/sequences_IDs/A/06_scarf.jpg,9,6,4,2,3,2,7,5,0,86,,,,,,,,,,,,,,,,,,,,
,,,,,86,2020-07-04_19h58.10.966,retriever_ti,2020.1.3,Win32,60,Chrome,1920,1080,,,,,,,,,,,,,,,,,1,,,,,,,,,,,,,,,,,,,,,,,,,,,533.036075,24,right,1.844585,satellite_dish,4,10,1,1,1,533.05277,533.05277,535.55058,0,23,23,23,1,24,3,4,redfox      ,satellite_dish,html/resources/sequences_IDs/B/01_redfox.jpg,html/resources/sequences_IDs/A/10_satellite_dish.jpg,1,10,1,1,4,2,1,8,0,86,,,,,,,,,,,,,,,,,,,,
,,,,,86,2020-07-04_19h58.10.966,retriever_ti,2020.1.3,Win32,60,Chrome,1920,1080,,,,,,,,,,,,,,,,,1,,,,,,,,,,,,,,,,,,,,,,,,,,,536.65471,25,right,1.235935,phone       ,7,9,4,1,3,536.66993,536.66993,539.16733,0,24,24,24,1,25,3,7,redfox      ,phone       ,html/resources/sequences_IDs/B/01_redfox.jpg,html/resources/sequences_IDs/B/09_phone.jpg,1,9,1,1,4,2,1,7,0,86,,,,,,,,,,,,,,,,,,,,
,,,,,86,2020-07-04_19h58.10.966,retriever_ti,2020.1.3,Win32,60,Chrome,1920,1080,,,,,,,,,,,,,,,,,1,,,,,,,,,,,,,,,,,,,,,,,,,,,539.784875,26,right,1.70589,redfox      ,3,1,1,1,1,539.80293,539.80293,542.30073,0,25,25,25,1,26,2,3,scarf         ,redfox      ,html/resources/sequences_IDs/A/06_scarf.jpg,html/resources/sequences_IDs/B/01_redfox.jpg,6,1,3,2,1,1,5,1,0,86,,,,,,,,,,,,,,,,,,,,
,,,,,86,2020-07-04_19h58.10.966,retriever_ti,2020.1.3,Win32,60,Chrome,1920,1080,,,,,,,,,,,,,,,,,1,,,,,,,,,,,,,,,,,,,,,,,,,,,543.403765,27,left,0.94191,phone       ,7,9,6,1,3,543.43683,543.43683,545.93413,0,26,26,26,1,27,7,1,phone       ,parrot      ,html/resources/sequences_IDs/B/09_phone.jpg,html/resources/sequences_IDs/B/05_parrot.jpg,9,5,4,2,2,1,7,4,0,86,,,,,,,,,,,,,,,,,,,,
,,,,,86,2020-07-04_19h58.10.966,retriever_ti,2020.1.3,Win32,60,Chrome,1920,1080,,,,,,,,,,,,,,,,,1,,,,,,,,,,,,,,,,,,,,,,,,,,,546.553005,28,left,0.950655,camel         ,8,3,3,1,3,546.56973,546.56973,549.067515,0,27,27,27,1,28,8,5,camel         ,sport_tshirt,html/resources/sequences_IDs/A/03_camel.jpg,html/resources/sequences_IDs/B/07_sport_tshirt.jpg,3,7,1,1,3,2,2,6,0,86,,,,,,,,,,,,,,,,,,,,
,,,,,86,2020-07-04_19h58.10.966,retriever_ti,2020.1.3,Win32,60,Chrome,1920,1080,,,,,,,,,,,,,,,,,1,,,,,,,,,,,,,,,,,,,,,,,,,,,549.68511,29,right,0.75572,camel         ,8,3,1,1,0,549.72008,549.72008,552.2176,0,28,28,28,1,29,7,8,phone       ,camel         ,html/resources/sequences_IDs/B/09_phone.jpg,html/resources/sequences_IDs/A/03_camel.jpg,9,3,4,2,1,1,7,2,1,86,,,,,,,,,,,,,,,,,,,,
,,,,,86,2020-07-04_19h58.10.966,retriever_ti,2020.1.3,Win32,60,Chrome,1920,1080,,,,,,,,,,,,,,,,,1,,,,,,,,,,,,,,,,,,,,,,,,,,,553.31971,30,left,1.734015,clownfish     ,6,4,1,1,1,553.353175,553.353175,555.850965,0,29,29,29,1,30,6,5,clownfish     ,sport_tshirt,html/resources/sequences_IDs/A/04_clownfish.jpg,html/resources/sequences_IDs/B/07_sport_tshirt.jpg,4,7,2,1,3,2,3,6,0,86,,,,,,,,,,,,,,,,,,,,
,,,,,86,2020-07-04_19h58.10.966,retriever_ti,2020.1.3,Win32,60,Chrome,1920,1080,,,,,,,,,,,,,,,,,1,,,,,,,,,,,,,,,,,,,,,,,,,,,556.953125,31,left,0.78935,clownfish     ,6,4,1,1,1,556.97069,556.97069,559.467675,0,30,30,30,1,31,6,5,clownfish     ,sport_tshirt,html/resources/sequences_IDs/A/04_clownfish.jpg,html/resources/sequences_IDs/B/07_sport_tshirt.jpg,4,7,2,1,3,2,3,6,0,86,,,,,,,,,,,,,,,,,,,,
,,,,,86,2020-07-04_19h58.10.966,retriever_ti,2020.1.3,Win32,60,Chrome,1920,1080,,,,,,,,,,,,,,,,,1,,,,,,,,,,,,,,,,,,,,,,,,,,,560.56979,32,left,1.35905,phone       ,7,9,3,1,3,560.603295,560.603295,563.10112,0,31,31,31,1,32,7,4,phone       ,satellite_dish,html/resources/sequences_IDs/B/09_phone.jpg,html/resources/sequences_IDs/A/10_satellite_dish.jpg,9,10,4,2,4,2,7,8,0,86,,,,,,,,,,,,,,,,,,,,
,,,,,86,2020-07-04_19h58.10.966,retriever_ti,2020.1.3,Win32,60,Chrome,1920,1080,,,,,,,,,,,,,,,,,1,,,,,,,,,,,,,,,,,,,,,,,,,,,563.718615,33,left,1.50708,camel         ,8,3,7,1,3,563.7534,563.7534,566.251315,0,32,32,32,1,33,8,1,camel         ,parrot      ,html/resources/sequences_IDs/A/03_camel.jpg,html/resources/sequences_IDs/B/05_parrot.jpg,3,5,1,1,2,1,2,4,0,86,,,,,,,,,,,,,,,,,,,,
,,,,,86,2020-07-04_19h58.10.966,retriever_ti,2020.1.3,Win32,60,Chrome,1920,1080,,,,,,,,,,,,,,,,,1,,,,,,,,,,,,,,,,,,,,,,,,,,,566.870035,34,right,1.598165,parrot      ,1,5,-3,0,3,566.886735,566.886735,569.384525,0,33,33,33,1,34,4,1,satellite_dish,parrot      ,html/resources/sequences_IDs/A/10_satellite_dish.jpg,html/resources/sequences_IDs/B/05_parrot.jpg,10,5,4,2,2,1,8,4,0,86,,,,,,,,,,,,,,,,,,,,
,,,,,86,2020-07-04_19h58.10.966,retriever_ti,2020.1.3,Win32,60,Chrome,1920,1080,,,,,,,,,,,,,,,,,1,,,,,,,,,,,,,,,,,,,,,,,,,,,570.00205,35,right,1.03388,clownfish     ,6,4,1,1,0,570.02024,570.02024,572.517975,0,34,34,34,1,35,5,6,sport_tshirt,clownfish     ,html/resources/sequences_IDs/B/07_sport_tshirt.jpg,html/resources/sequences_IDs/A/04_clownfish.jpg,7,4,3,2,2,1,6,3,1,86,,,,,,,,,,,,,,,,,,,,
,,,,,86,2020-07-04_19h58.10.966,retriever_ti,2020.1.3,Win32,60,Chrome,1920,1080,,,,,,,,,,,,,,,,,1,,,,,,,,,,,,,,,,,,,,,,,,,,,573.620105,36,right,1.394055,phone       ,7,9,5,1,3,573.636935,573.636935,576.13476,0,35,35,35,1,36,2,7,scarf         ,phone       ,html/resources/sequences_IDs/A/06_scarf.jpg,html/resources/sequences_IDs/B/09_phone.jpg,6,9,3,2,4,2,5,7,0,86,,,,,,,,,,,,,,,,,,,,
,,,,,86,2020-07-04_19h58.10.966,retriever_ti,2020.1.3,Win32,60,Chrome,1920,1080,,,,,,,,,,,,,,,,,1,,,,,,,,,,,,,,,,,,,,,,,,,,,576.753465,37,NaN,NaN,No_response,NaN,NaN,NaN,2,2,576.77031,576.77031,579.26836,0,36,36,36,1,37,1,6,parrot      ,clownfish     ,html/resources/sequences_IDs/B/05_parrot.jpg,html/resources/sequences_IDs/A/04_clownfish.jpg,5,4,2,1,2,1,4,3,0,86,,,,,,,,,,,,,,,,,,,,
,,,,,86,2020-07-04_19h58.10.966,retriever_ti,2020.1.3,Win32,60,Chrome,1920,1080,,,,,,,,,,,,,,,,,1,,,,,,,,,,,,,,,,,,,,,,,,,,,580.37062,38,left,1.03972,camel         ,8,3,6,1,3,580.387745,580.387745,582.885035,0,37,37,37,1,38,8,2,camel         ,scarf         ,html/resources/sequences_IDs/A/03_camel.jpg,html/resources/sequences_IDs/A/06_scarf.jpg,3,6,1,1,3,2,2,5,0,86,,,,,,,,,,,,,,,,,,,,
,,,,,86,2020-07-04_19h58.10.966,retriever_ti,2020.1.3,Win32,60,Chrome,1920,1080,,,,,,,,,,,,,,,,,1,,,,,,,,,,,,,,,,,,,,,,,,,,,583.502325,39,right,0.72247,clownfish     ,6,4,4,1,3,583.537115,583.537115,586.034985,0,38,38,38,1,39,2,6,scarf         ,clownfish     ,html/resources/sequences_IDs/A/06_scarf.jpg,html/resources/sequences_IDs/A/04_clownfish.jpg,6,4,3,2,2,1,5,3,0,86,,,,,,,,,,,,,,,,,,,,
,,,,,86,2020-07-04_19h58.10.966,retriever_ti,2020.1.3,Win32,60,Chrome,1920,1080,,,,,,,,,,,,,,,,,1,,,,,,,,,,,,,,,,,,,,,,,,,,,586.653715,40,left,0.98341,phone       ,7,9,1,1,0,586.670545,586.670545,589.16841,0,39,39,39,1,40,7,6,phone       ,clownfish     ,html/resources/sequences_IDs/B/09_phone.jpg,html/resources/sequences_IDs/A/04_clownfish.jpg,9,4,4,2,2,1,7,3,1,86,,,,,,,,,,,,,,,,,,,,
,,,,,86,2020-07-04_19h58.10.966,retriever_ti,2020.1.3,Win32,60,Chrome,1920,1080,,,,,,,,,,,,,,,,,1,,,,,,,,,,,,,,,,,,,,,,,,,,,590.27037,41,left,1.272805,sport_tshirt,5,7,3,1,3,590.28722,590.28722,592.78509,0,40,40,40,1,41,5,2,sport_tshirt,scarf         ,html/resources/sequences_IDs/B/07_sport_tshirt.jpg,html/resources/sequences_IDs/A/06_scarf.jpg,7,6,3,2,3,2,6,5,0,86,,,,,,,,,,,,,,,,,,,,
,,,,,86,2020-07-04_19h58.10.966,retriever_ti,2020.1.3,Win32,60,Chrome,1920,1080,,,,,,,,,,,,,,,,,1,,,,,,,,,,,,,,,,,,,,,,,,,,,593.40258,42,right,0.77746,camel         ,8,3,4,1,3,593.43729,593.43729,595.93509,0,41,41,41,1,42,4,8,satellite_dish,camel         ,html/resources/sequences_IDs/A/10_satellite_dish.jpg,html/resources/sequences_IDs/A/03_camel.jpg,10,3,4,2,1,1,8,2,0,86,,,,,,,,,,,,,,,,,,,,
,,,,,86,2020-07-04_19h58.10.966,retriever_ti,2020.1.3,Win32,60,Chrome,1920,1080,,,,,,,,,,,,,,,,,1,,,,,,,,,,,,,,,,,,,,,,,,,,,596.553865,43,right,0.733075,camel         ,8,3,6,1,3,596.57083,596.57083,599.0685,0,42,42,42,1,43,2,8,scarf         ,camel         ,html/resources/sequences_IDs/A/06_scarf.jpg,html/resources/sequences_IDs/A/03_camel.jpg,6,3,3,2,1,1,5,2,0,86,,,,,,,,,,,,,,,,,,,,
,,,,,86,2020-07-04_19h58.10.966,retriever_ti,2020.1.3,Win32,60,Chrome,1920,1080,,,,,,,,,,,,,,,,,1,,,,,,,,,,,,,,,,,,,,,,,,,,,599.68609,44,right,1.57407,satellite_dish,4,10,3,1,3,599.704205,599.704205,602.20193,0,43,43,43,1,44,1,4,parrot      ,satellite_dish,html/resources/sequences_IDs/B/05_parrot.jpg,html/resources/sequences_IDs/A/10_satellite_dish.jpg,5,10,2,1,4,2,4,8,0,86,,,,,,,,,,,,,,,,,,,,
,,,,,86,2020-07-04_19h58.10.966,retriever_ti,2020.1.3,Win32,60,Chrome,1920,1080,,,,,,,,,,,,,,,,,1,,,,,,,,,,,,,,,,,,,,,,,,,,,602.82081,45,right,1.3655,satellite_dish,4,10,2,1,3,602.83739,602.83739,605.33531,0,44,44,44,1,45,2,4,scarf         ,satellite_dish,html/resources/sequences_IDs/A/06_scarf.jpg,html/resources/sequences_IDs/A/10_satellite_dish.jpg,6,10,3,2,4,2,5,8,0,86,,,,,,,,,,,,,,,,,,,,
,,,,,86,2020-07-04_19h58.10.966,retriever_ti,2020.1.3,Win32,60,Chrome,1920,1080,,,,,,,,,,,,,,,,,1,,,,,,,,,,,,,,,,,,,,,,,,,,,605.952855,46,right,1.258645,redfox      ,3,1,1,1,0,605.970855,605.970855,608.468635,0,45,45,45,1,46,2,3,scarf         ,redfox      ,html/resources/sequences_IDs/A/06_scarf.jpg,html/resources/sequences_IDs/B/01_redfox.jpg,6,1,3,2,1,1,5,1,1,86,,,,,,,,,,,,,,,,,,,,
,,,,,86,2020-07-04_19h58.10.966,retriever_ti,2020.1.3,Win32,60,Chrome,1920,1080,,,,,,,,,,,,,,,,,1,,,,,,,,,,,,,,,,,,,,,,,,,,,609.570835,47,right,1.21755,scarf         ,2,6,1,1,1,609.604255,609.604255,612.10213,0,46,46,46,1,47,1,2,parrot      ,scarf         ,html/resources/sequences_IDs/B/05_parrot.jpg,html/resources/sequences_IDs/A/06_scarf.jpg,5,6,2,1,3,2,4,5,0,86,,,,,,,,,,,,,,,,,,,,
,,,,,86,2020-07-04_19h58.10.966,retriever_ti,2020.1.3,Win32,60,Chrome,1920,1080,,,,,,,,,,,,,,,,,1,,,,,,,,,,,,,,,,,,,,,,,,,,,613.20425,48,right,1.07444,scarf         ,2,6,1,1,1,613.237795,613.237795,615.73568,0,47,47,47,1,48,1,2,parrot      ,scarf         ,html/resources/sequences_IDs/B/05_parrot.jpg,html/resources/sequences_IDs/A/06_scarf.jpg,5,6,2,1,3,2,4,5,0,86,,,,,,,,,,,,,,,,,,,,
,,,,,86,2020-07-04_19h58.10.966,retriever_ti,2020.1.3,Win32,60,Chrome,1920,1080,,,,,,,,,,,,,,,,,1,,,,,,,,,,,,,,,,,,,,,,,,,,,616.837935,49,right,1.38539,phone       ,7,9,1,1,1,616.87119,616.87119,619.36892,0,48,48,48,1,49,6,7,clownfish     ,phone       ,html/resources/sequences_IDs/A/04_clownfish.jpg,html/resources/sequences_IDs/B/09_phone.jpg,4,9,2,1,4,2,3,7,0,86,,,,,,,,,,,,,,,,,,,,
,,,,,86,2020-07-04_19h58.10.966,retriever_ti,2020.1.3,Win32,60,Chrome,1920,1080,,,,,,,,,,,,,,,,,1,,,,,,,,,,,,,,,,,,,,,,,,,,,620.47096,50,right,1.74427,redfox      ,3,1,1,1,1,620.488175,620.488175,622.9856,0,49,49,49,1,50,2,3,scarf         ,redfox      ,html/resources/sequences_IDs/A/06_scarf.jpg,html/resources/sequences_IDs/B/01_redfox.jpg,6,1,3,2,1,1,5,1,0,86,,,,,,,,,,,,,,,,,,,,
,,,,,86,2020-07-04_19h58.10.966,retriever_ti,2020.1.3,Win32,60,Chrome,1920,1080,,,,,,,,,,,,,,,,,1,,,,,,,,,,,,,,,,,,,,,,,,,,,624.08648,51,right,0.92507,camel         ,8,3,5,1,3,624.10464,624.10464,626.602405,0,50,50,50,1,51,3,8,redfox      ,camel         ,html/resources/sequences_IDs/B/01_redfox.jpg,html/resources/sequences_IDs/A/03_camel.jpg,1,3,1,1,1,1,1,2,0,86,,,,,,,,,,,,,,,,,,,,
,,,,,86,2020-07-04_19h58.10.966,retriever_ti,2020.1.3,Win32,60,Chrome,1920,1080,,,,,,,,,,,,,,,,,1,,,,,,,,,,,,,,,,,,,,,,,,,,,627.22118,52,left,1.853485,phone       ,7,9,2,1,3,627.23812,627.23812,629.73576,0,51,51,51,1,52,7,5,phone       ,sport_tshirt,html/resources/sequences_IDs/B/09_phone.jpg,html/resources/sequences_IDs/B/07_sport_tshirt.jpg,9,7,4,2,3,2,7,6,0,86,,,,,,,,,,,,,,,,,,,,
,,,,,86,2020-07-04_19h58.10.966,retriever_ti,2020.1.3,Win32,60,Chrome,1920,1080,,,,,,,,,,,,,,,,,1,,,,,,,,,,,,,,,,,,,,,,,,,,,630.354585,53,left,1.464825,redfox      ,3,1,-1,0,0,630.371705,630.371705,632.869245,0,52,52,52,1,53,3,4,redfox      ,satellite_dish,html/resources/sequences_IDs/B/01_redfox.jpg,html/resources/sequences_IDs/A/10_satellite_dish.jpg,1,10,1,1,4,2,1,8,0,86,,,,,,,,,,,,,,,,,,,,
,,,,,86,2020-07-04_19h58.10.966,retriever_ti,2020.1.3,Win32,60,Chrome,1920,1080,,,,,,,,,,,,,,,,,1,,,,,,,,,,,,,,,,,,,,,,,,,,,633.97013,54,right,0.923245,camel         ,8,3,1,1,1,633.98697,633.98697,636.485895,0,53,53,53,1,54,7,8,phone       ,camel         ,html/resources/sequences_IDs/B/09_phone.jpg,html/resources/sequences_IDs/A/03_camel.jpg,9,3,4,2,1,1,7,2,0,86,,,,,,,,,,,,,,,,,,,,
,,,,,86,2020-07-04_19h58.10.966,retriever_ti,2020.1.3,Win32,60,Chrome,1920,1080,,,,,,,,,,,,,,,,,1,,,,,,,,,,,,,,,,,,,,,,,,,,,637.588045,55,right,0.95388,sport_tshirt,5,7,2,1,3,637.62232,637.62232,640.119305,0,54,54,54,1,55,3,5,redfox      ,sport_tshirt,html/resources/sequences_IDs/B/01_redfox.jpg,html/resources/sequences_IDs/B/07_sport_tshirt.jpg,1,7,1,1,3,2,1,6,0,86,,,,,,,,,,,,,,,,,,,,
,,,,,86,2020-07-04_19h58.10.966,retriever_ti,2020.1.3,Win32,60,Chrome,1920,1080,,,,,,,,,,,,,,,,,1,,,,,,,,,,,,,,,,,,,,,,,,,,,640.73816,56,right,0.937495,phone       ,7,9,3,1,3,640.771815,640.771815,643.269355,0,55,55,55,1,56,4,7,satellite_dish,phone       ,html/resources/sequences_IDs/A/10_satellite_dish.jpg,html/resources/sequences_IDs/B/09_phone.jpg,10,9,4,2,4,2,8,7,0,86,,,,,,,,,,,,,,,,,,,,
,,,,,86,2020-07-04_19h58.10.966,retriever_ti,2020.1.3,Win32,60,Chrome,1920,1080,,,,,,,,,,,,,,,,,1,,,,,,,,,,,,,,,,,,,,,,,,,,,643.886915,57,left,1.205385,clownfish     ,6,4,3,1,3,643.92158,643.92158,646.41944,0,56,56,56,1,57,6,3,clownfish     ,redfox      ,html/resources/sequences_IDs/A/04_clownfish.jpg,html/resources/sequences_IDs/B/01_redfox.jpg,4,1,2,1,1,1,3,1,0,86,,,,,,,,,,,,,,,,,,,,
,,,,,86,2020-07-04_19h58.10.966,retriever_ti,2020.1.3,Win32,60,Chrome,1920,1080,,,,,,,,,,,,,,,,,1,,,,,,,,,,,,,,,,,,,,,,,,,,,647.038345,58,right,1.163255,parrot      ,1,5,-1,0,1,647.05511,647.05511,649.552825,0,57,57,57,1,58,2,1,scarf         ,parrot      ,html/resources/sequences_IDs/A/06_scarf.jpg,html/resources/sequences_IDs/B/05_parrot.jpg,6,5,3,2,2,1,5,4,1,86,,,,,,,,,,,,,,,,,,,,
,,,,,86,2020-07-04_19h58.10.966,retriever_ti,2020.1.3,Win32,60,Chrome,1920,1080,,,,,,,,,,,,,,,,,1,,,,,,,,,,,,,,,,,,,,,,,,,,,650.6551,59,right,0.82186,camel         ,8,3,3,1,3,650.67169,650.67169,653.16957,0,58,58,58,1,59,5,8,sport_tshirt,camel         ,html/resources/sequences_IDs/B/07_sport_tshirt.jpg,html/resources/sequences_IDs/A/03_camel.jpg,7,3,3,2,1,1,6,2,0,86,,,,,,,,,,,,,,,,,,,,
,,,,,86,2020-07-04_19h58.10.966,retriever_ti,2020.1.3,Win32,60,Chrome,1920,1080,,,,,,,,,,,,,,,,,1,,,,,,,,,,,,,,,,,,,,,,,,,,,653.78716,60,right,1.39767,parrot      ,1,5,-5,0,3,653.82195,653.82195,656.319625,0,59,59,59,1,60,6,1,clownfish     ,parrot      ,html/resources/sequences_IDs/A/04_clownfish.jpg,html/resources/sequences_IDs/B/05_parrot.jpg,4,5,2,1,2,1,3,4,0,86,,,,,,,,,,,,,,,,,,,,
,,,,,86,2020-07-04_19h58.10.966,retriever_ti,2020.1.3,Win32,60,Chrome,1920,1080,,,,,,,,,,,,,,,,,1,,,,,,,,,,,,,,,,,,,,,,,,,,,656.938785,61,left,0.834095,clownfish     ,6,4,2,1,3,656.975895,656.975895,659.46971,0,60,60,60,1,61,6,4,clownfish     ,satellite_dish,html/resources/sequences_IDs/A/04_clownfish.jpg,html/resources/sequences_IDs/A/10_satellite_dish.jpg,4,10,2,1,4,2,3,8,0,86,,,,,,,,,,,,,,,,,,,,
,,,,,86,2020-07-04_19h58.10.966,retriever_ti,2020.1.3,Win32,60,Chrome,1920,1080,,,,,,,,,,,,,,,,,1,,,,,,,,,,,,,,,,,,,,,,,,,,,660.08729,62,right,0.724775,camel         ,8,3,7,1,3,660.122355,660.122355,662.61978,0,61,61,61,1,62,1,8,parrot      ,camel         ,html/resources/sequences_IDs/B/05_parrot.jpg,html/resources/sequences_IDs/A/03_camel.jpg,5,3,2,1,1,1,4,2,0,86,,,,,,,,,,,,,,,,,,,,
,,,,,86,2020-07-04_19h58.10.966,retriever_ti,2020.1.3,Win32,60,Chrome,1920,1080,,,,,,,,,,,,,,,,,1,,,,,,,,,,,,,,,,,,,,,,,,,,,663.23891,63,right,1.209815,sport_tshirt,5,7,1,1,0,663.272465,663.272465,665.76981,0,62,62,62,1,63,4,5,satellite_dish,sport_tshirt,html/resources/sequences_IDs/A/10_satellite_dish.jpg,html/resources/sequences_IDs/B/07_sport_tshirt.jpg,10,7,4,2,3,2,8,6,1,86,,,,,,,,,,,,,,,,,,,,
,,,,,86,2020-07-04_19h58.10.966,retriever_ti,2020.1.3,Win32,60,Chrome,1920,1080,,,,,,,,,,,,,,,,,1,,,,,,,,,,,,,,,,,,,,,,,,,,,666.87192,64,right,1.13369,parrot      ,1,5,-1,0,0,666.90593,666.90593,669.403255,0,63,63,63,1,64,2,1,scarf         ,parrot      ,html/resources/sequences_IDs/A/06_scarf.jpg,html/resources/sequences_IDs/B/05_parrot.jpg,6,5,3,2,2,1,5,4,0,86,,,,,,,,,,,,,,,,,,,,
,,,,,86,2020-07-04_19h58.10.966,retriever_ti,2020.1.3,Win32,60,Chrome,1920,1080,,,,,,,,,,,,,,,,,1,,,,,,,,,,,,,,,,,,,,,,,,,,,670.50534,65,left,1.412535,sport_tshirt,5,7,1,1,1,670.52215,670.52215,673.02008,0,64,64,64,1,65,5,4,sport_tshirt,satellite_dish,html/resources/sequences_IDs/B/07_sport_tshirt.jpg,html/resources/sequences_IDs/A/10_satellite_dish.jpg,7,10,3,2,4,2,6,8,0,86,,,,,,,,,,,,,,,,,,,,
,,,,,86,2020-07-04_19h58.10.966,retriever_ti,2020.1.3,Win32,60,Chrome,1920,1080,,,,,,,,,,,,,,,,,1,,,,,,,,,,,,,,,,,,,,,,,,,,,674.12083,66,right,1.283035,phone       ,7,9,2,1,3,674.138825,674.138825,676.6367,0,65,65,65,1,66,5,7,sport_tshirt,phone       ,html/resources/sequences_IDs/B/07_sport_tshirt.jpg,html/resources/sequences_IDs/B/09_phone.jpg,7,9,3,2,4,2,6,7,0,86,,,,,,,,,,,,,,,,,,,,
,,,,,86,2020-07-04_19h58.10.966,retriever_ti,2020.1.3,Win32,60,Chrome,1920,1080,,,,,,,,,,,,,,,,,1,,,,,,,,,,,,,,,,,,,,,,,,,,,677.255575,67,right,0.66654,camel         ,8,3,2,1,3,677.28902,677.28902,679.78675,0,66,66,66,1,67,6,8,clownfish     ,camel         ,html/resources/sequences_IDs/A/04_clownfish.jpg,html/resources/sequences_IDs/A/03_camel.jpg,4,3,2,1,1,1,3,2,0,86,,,,,,,,,,,,,,,,,,,,
,,,,,86,2020-07-04_19h58.10.966,retriever_ti,2020.1.3,Win32,60,Chrome,1920,1080,,,,,,,,,,,,,,,,,1,,,,,,,,,,,,,,,,,,,,,,,,,,,680.405565,68,right,1.130375,parrot      ,1,5,-2,0,3,680.422305,680.422305,682.920145,0,67,67,67,1,68,3,1,redfox      ,parrot      ,html/resources/sequences_IDs/B/01_redfox.jpg,html/resources/sequences_IDs/B/05_parrot.jpg,1,5,1,1,2,1,1,4,0,86,,,,,,,,,,,,,,,,,,,,
,,,,,86,2020-07-04_19h58.10.966,retriever_ti,2020.1.3,Win32,60,Chrome,1920,1080,,,,,,,,,,,,,,,,,1,,,,,,,,,,,,,,,,,,,,,,,,,,,683.537675,69,right,1.39679,satellite_dish,4,10,-1,0,0,683.555815,683.555815,686.053825,0,68,68,68,1,69,5,4,sport_tshirt,satellite_dish,html/resources/sequences_IDs/B/07_sport_tshirt.jpg,html/resources/sequences_IDs/A/10_satellite_dish.jpg,7,10,3,2,4,2,6,8,0,86,,,,,,,,,,,,,,,,,,,,
,,,,,86,2020-07-04_19h58.10.966,retriever_ti,2020.1.3,Win32,60,Chrome,1920,1080,,,,,,,,,,,,,,,,,1,,,,,,,,,,,,,,,,,,,,,,,,,,,687.1561,70,left,1.06325,sport_tshirt,5,7,4,1,3,687.18931,687.18931,689.686975,0,69,69,69,1,70,5,1,sport_tshirt,parrot      ,html/resources/sequences_IDs/B/07_sport_tshirt.jpg,html/resources/sequences_IDs/B/05_parrot.jpg,7,5,3,2,2,1,6,4,0,86,,,,,,,,,,,,,,,,,,,,
,,,,,86,2020-07-04_19h58.10.966,retriever_ti,2020.1.3,Win32,60,Chrome,1920,1080,,,,,,,,,,,,,,,,,1,,,,,,,,,,,,,,,,,,,,,,,,,,,690.305565,71,right,1.44223,scarf         ,2,6,-2,0,3,690.32254,690.32254,692.820295,0,70,70,70,1,71,4,2,satellite_dish,scarf         ,html/resources/sequences_IDs/A/10_satellite_dish.jpg,html/resources/sequences_IDs/A/06_scarf.jpg,10,6,4,2,3,2,8,5,0,86,,,,,,,,,,,,,,,,,,,,
,,,,,86,2020-07-04_19h58.10.966,retriever_ti,2020.1.3,Win32,60,Chrome,1920,1080,,,,,,,,,,,,,,,,,1,,,,,,,,,,,,,,,,,,,,,,,,,,,693.43787,72,left,1.670755,phone       ,7,9,1,1,1,693.45594,693.45594,695.95376,0,71,71,71,1,72,7,6,phone       ,clownfish     ,html/resources/sequences_IDs/B/09_phone.jpg,html/resources/sequences_IDs/A/04_clownfish.jpg,9,4,4,2,2,1,7,3,0,86,,,,,,,,,,,,,,,,,,,,
,,,,,86,2020-07-04_19h58.10.966,retriever_ti,2020.1.3,Win32,60,Chrome,1920,1080,,,,,,,,,,,,,,,,,1,,,,,,,,,,,,,,,,,,,,,,,,,,,697.058165,73,right,1.470965,clownfish     ,6,4,1,1,1,697.073305,697.073305,699.570465,0,72,72,72,1,73,5,6,sport_tshirt,clownfish     ,html/resources/sequences_IDs/B/07_sport_tshirt.jpg,html/resources/sequences_IDs/A/04_clownfish.jpg,7,4,3,2,2,1,6,3,0,86,,,,,,,,,,,,,,,,,,,,
,,,,,86,2020-07-04_19h58.10.966,retriever_ti,2020.1.3,Win32,60,Chrome,1920,1080,,,,,,,,,,,,,,,,,1,,,,,,,,,,,,,,,,,,,,,,,,,,,700.672565,74,left,1.38543,camel         ,8,3,1,1,1,700.68956,700.68956,703.1872,0,73,73,73,1,74,8,7,camel         ,phone       ,html/resources/sequences_IDs/A/03_camel.jpg,html/resources/sequences_IDs/B/09_phone.jpg,3,9,1,1,4,2,2,7,0,86,,,,,,,,,,,,,,,,,,,,
,,,,,86,2020-07-04_19h58.10.966,retriever_ti,2020.1.3,Win32,60,Chrome,1920,1080,,,,,,,,,,,,,,,,,1,,,,,,,,,,,,,,,,,,,,,,,,,,,704.289375,75,right,1.315275,parrot      ,1,5,-1,0,0,704.305995,704.305995,706.80397,0,74,74,74,1,75,2,1,scarf         ,parrot      ,html/resources/sequences_IDs/A/06_scarf.jpg,html/resources/sequences_IDs/B/05_parrot.jpg,6,5,3,2,2,1,5,4,0,86,,,,,,,,,,,,,,,,,,,,
,,,,,86,2020-07-04_19h58.10.966,retriever_ti,2020.1.3,Win32,60,Chrome,1920,1080,,,,,,,,,,,,,,,,,1,,,,,,,,,,,,,,,,,,,,,,,,,,,707.905045,76,right,1.115015,redfox      ,3,1,-1,0,1,707.93958,707.93958,710.43737,0,75,75,75,1,76,4,3,satellite_dish,redfox      ,html/resources/sequences_IDs/A/10_satellite_dish.jpg,html/resources/sequences_IDs/B/01_redfox.jpg,10,1,4,2,1,1,8,1,1,86,,,,,,,,,,,,,,,,,,,,
,,,,,86,2020-07-04_19h58.10.966,retriever_ti,2020.1.3,Win32,60,Chrome,1920,1080,,,,,,,,,,,,,,,,,1,,,,,,,,,,,,,,,,,,,,,,,,,,,711.539445,77,left,1.149305,camel         ,8,3,2,1,3,711.572945,711.572945,714.070785,0,76,76,76,1,77,8,6,camel         ,clownfish     ,html/resources/sequences_IDs/A/03_camel.jpg,html/resources/sequences_IDs/A/04_clownfish.jpg,3,4,1,1,2,1,2,3,0,86,,,,,,,,,,,,,,,,,,,,
,,,,,86,2020-07-04_19h58.10.966,retriever_ti,2020.1.3,Win32,60,Chrome,1920,1080,,,,,,,,,,,,,,,,,,,,,,,,,,,,,,,,,,,,,0,4.598655,,,,,,,,,,,,,,,,,,,,,,,,,,,,,,,,,,,,,,,,,0,0,0,0,1,,,,,,,,,,,,,,,
,,,,,86,2020-07-04_19h58.10.966,retriever_ti,2020.1.3,Win32,60,Chrome,1920,1080,,,,,,,,,,,,,,,,,2,,,,,,,,,,,,,,,,,,,,,,,,,,,735.73026,78,left,1.50541,redfox      ,3,1,-2,0,3,735.73791,735.73791,738.237925,0,0,0,0,1,78,3,5,redfox      ,sport_tshirt,html/resources/sequences_IDs/B/01_redfox.jpg,html/resources/sequences_IDs/B/07_sport_tshirt.jpg,1,7,1,1,3,2,1,6,0,86,,,,,,,,,,,,,,,,,,,,
,,,,,86,2020-07-04_19h58.10.966,retriever_ti,2020.1.3,Win32,60,Chrome,1920,1080,,,,,,,,,,,,,,,,,2,,,,,,,,,,,,,,,,,,,,,,,,,,,738.856765,79,right,0.94355,redfox      ,3,1,-1,0,0,738.87343,738.87343,741.37146,0,1,1,1,1,79,4,3,satellite_dish,redfox      ,html/resources/sequences_IDs/A/10_satellite_dish.jpg,html/resources/sequences_IDs/B/01_redfox.jpg,10,1,4,2,1,1,8,1,0,86,,,,,,,,,,,,,,,,,,,,
,,,,,86,2020-07-04_19h58.10.966,retriever_ti,2020.1.3,Win32,60,Chrome,1920,1080,,,,,,,,,,,,,,,,,2,,,,,,,,,,,,,,,,,,,,,,,,,,,742.472185,80,right,1.03121,clownfish     ,6,4,-1,0,1,742.50538,742.50538,745.004765,0,2,2,2,1,80,7,6,phone       ,clownfish     ,html/resources/sequences_IDs/B/09_phone.jpg,html/resources/sequences_IDs/A/04_clownfish.jpg,9,4,4,2,2,1,7,3,1,86,,,,,,,,,,,,,,,,,,,,
,,,,,86,2020-07-04_19h58.10.966,retriever_ti,2020.1.3,Win32,60,Chrome,1920,1080,,,,,,,,,,,,,,,,,2,,,,,,,,,,,,,,,,,,,,,,,,,,,746.107035,81,right,0.97249,phone       ,7,9,5,1,3,746.14046,746.14046,748.638145,0,3,3,3,1,81,2,7,scarf         ,phone       ,html/resources/sequences_IDs/A/06_scarf.jpg,html/resources/sequences_IDs/B/09_phone.jpg,6,9,3,2,4,2,5,7,0,86,,,,,,,,,,,,,,,,,,,,
,,,,,86,2020-07-04_19h58.10.966,retriever_ti,2020.1.3,Win32,60,Chrome,1920,1080,,,,,,,,,,,,,,,,,2,,,,,,,,,,,,,,,,,,,,,,,,,,,749.255715,82,left,1.12248,camel         ,8,3,3,1,3,749.29038,749.29038,751.78817,0,4,4,4,1,82,8,5,camel         ,sport_tshirt,html/resources/sequences_IDs/A/03_camel.jpg,html/resources/sequences_IDs/B/07_sport_tshirt.jpg,3,7,1,1,3,2,2,6,0,86,,,,,,,,,,,,,,,,,,,,
,,,,,86,2020-07-04_19h58.10.966,retriever_ti,2020.1.3,Win32,60,Chrome,1920,1080,,,,,,,,,,,,,,,,,2,,,,,,,,,,,,,,,,,,,,,,,,,,,752.40697,83,right,0.918725,phone       ,7,9,2,1,3,752.44049,752.44049,754.938245,0,5,5,5,1,83,5,7,sport_tshirt,phone       ,html/resources/sequences_IDs/B/07_sport_tshirt.jpg,html/resources/sequences_IDs/B/09_phone.jpg,7,9,3,2,4,2,6,7,0,86,,,,,,,,,,,,,,,,,,,,
,,,,,86,2020-07-04_19h58.10.966,retriever_ti,2020.1.3,Win32,60,Chrome,1920,1080,,,,,,,,,,,,,,,,,2,,,,,,,,,,,,,,,,,,,,,,,,,,,755.555805,84,left,1.34186,clownfish     ,6,4,3,1,3,755.57387,755.57387,758.07165,0,6,6,6,1,84,6,3,clownfish     ,redfox      ,html/resources/sequences_IDs/A/04_clownfish.jpg,html/resources/sequences_IDs/B/01_redfox.jpg,4,1,2,1,1,1,3,1,0,86,,,,,,,,,,,,,,,,,,,,
,,,,,86,2020-07-04_19h58.10.966,retriever_ti,2020.1.3,Win32,60,Chrome,1920,1080,,,,,,,,,,,,,,,,,2,,,,,,,,,,,,,,,,,,,,,,,,,,,758.69075,85,right,0.746485,camel         ,8,3,5,1,3,758.72448,758.72448,761.221665,0,7,7,7,1,85,3,8,redfox      ,camel         ,html/resources/sequences_IDs/B/01_redfox.jpg,html/resources/sequences_IDs/A/03_camel.jpg,1,3,1,1,1,1,1,2,0,86,,,,,,,,,,,,,,,,,,,,
,,,,,86,2020-07-04_19h58.10.966,retriever_ti,2020.1.3,Win32,60,Chrome,1920,1080,,,,,,,,,,,,,,,,,2,,,,,,,,,,,,,,,,,,,,,,,,,,,761.841545,86,right,0.803015,phone       ,7,9,1,1,1,761.87394,761.87394,764.37179,0,8,8,8,1,86,6,7,clownfish     ,phone       ,html/resources/sequences_IDs/A/04_clownfish.jpg,html/resources/sequences_IDs/B/09_phone.jpg,4,9,2,1,4,2,3,7,0,86,,,,,,,,,,,,,,,,,,,,
,,,,,86,2020-07-04_19h58.10.966,retriever_ti,2020.1.3,Win32,60,Chrome,1920,1080,,,,,,,,,,,,,,,,,2,,,,,,,,,,,,,,,,,,,,,,,,,,,765.474145,87,left,1.242295,redfox      ,3,1,-1,0,0,765.507365,765.507365,768.00525,0,9,9,9,1,87,3,4,redfox      ,satellite_dish,html/resources/sequences_IDs/B/01_redfox.jpg,html/resources/sequences_IDs/A/10_satellite_dish.jpg,1,10,1,1,4,2,1,8,0,86,,,,,,,,,,,,,,,,,,,,
,,,,,86,2020-07-04_19h58.10.966,retriever_ti,2020.1.3,Win32,60,Chrome,1920,1080,,,,,,,,,,,,,,,,,2,,,,,,,,,,,,,,,,,,,,,,,,,,,769.10927,88,right,0.86386,clownfish     ,6,4,2,1,3,769.124565,769.124565,771.621975,0,10,10,10,1,88,4,6,satellite_dish,clownfish     ,html/resources/sequences_IDs/A/10_satellite_dish.jpg,html/resources/sequences_IDs/A/04_clownfish.jpg,10,4,4,2,2,1,8,3,0,86,,,,,,,,,,,,,,,,,,,,
,,,,,86,2020-07-04_19h58.10.966,retriever_ti,2020.1.3,Win32,60,Chrome,1920,1080,,,,,,,,,,,,,,,,,2,,,,,,,,,,,,,,,,,,,,,,,,,,,772.24076,89,right,0.656215,camel         ,8,3,7,1,3,772.25747,772.25747,774.75531,0,11,11,11,1,89,1,8,parrot      ,camel         ,html/resources/sequences_IDs/B/05_parrot.jpg,html/resources/sequences_IDs/A/03_camel.jpg,5,3,2,1,1,1,4,2,0,86,,,,,,,,,,,,,,,,,,,,
,,,,,86,2020-07-04_19h58.10.966,retriever_ti,2020.1.3,Win32,60,Chrome,1920,1080,,,,,,,,,,,,,,,,,2,,,,,,,,,,,,,,,,,,,,,,,,,,,775.37288,90,left,1.34643,scarf         ,2,6,-4,0,3,775.407495,775.407495,777.905395,0,12,12,12,1,90,2,6,scarf         ,clownfish     ,html/resources/sequences_IDs/A/06_scarf.jpg,html/resources/sequences_IDs/A/04_clownfish.jpg,6,4,3,2,2,1,5,3,0,86,,,,,,,,,,,,,,,,,,,,
,,,,,86,2020-07-04_19h58.10.966,retriever_ti,2020.1.3,Win32,60,Chrome,1920,1080,,,,,,,,,,,,,,,,,2,,,,,,,,,,,,,,,,,,,,,,,,,,,778.522085,91,left,0.965585,scarf         ,2,6,1,1,1,778.55557,778.55557,781.055475,0,13,13,13,1,91,2,1,scarf         ,parrot      ,html/resources/sequences_IDs/A/06_scarf.jpg,html/resources/sequences_IDs/B/05_parrot.jpg,6,5,3,2,2,1,5,4,0,86,,,,,,,,,,,,,,,,,,,,
,,,,,86,2020-07-04_19h58.10.966,retriever_ti,2020.1.3,Win32,60,Chrome,1920,1080,,,,,,,,,,,,,,,,,2,,,,,,,,,,,,,,,,,,,,,,,,,,,782.157625,92,left,0.99989,scarf         ,2,6,-1,0,0,782.17449,782.17449,784.67218,0,14,14,14,1,92,2,3,scarf         ,redfox      ,html/resources/sequences_IDs/A/06_scarf.jpg,html/resources/sequences_IDs/B/01_redfox.jpg,6,1,3,2,1,1,5,1,0,86,,,,,,,,,,,,,,,,,,,,
,,,,,86,2020-07-04_19h58.10.966,retriever_ti,2020.1.3,Win32,60,Chrome,1920,1080,,,,,,,,,,,,,,,,,2,,,,,,,,,,,,,,,,,,,,,,,,,,,785.773045,93,right,1.39666,redfox      ,3,1,1,1,0,785.791115,785.791115,788.28912,0,15,15,15,1,93,2,3,scarf         ,redfox      ,html/resources/sequences_IDs/A/06_scarf.jpg,html/resources/sequences_IDs/B/01_redfox.jpg,6,1,3,2,1,1,5,1,1,86,,,,,,,,,,,,,,,,,,,,
,,,,,86,2020-07-04_19h58.10.966,retriever_ti,2020.1.3,Win32,60,Chrome,1920,1080,,,,,,,,,,,,,,,,,2,,,,,,,,,,,,,,,,,,,,,,,,,,,789.391045,94,right,0.983475,camel         ,8,3,6,1,3,789.424595,789.424595,791.92423,0,16,16,16,1,94,2,8,scarf         ,camel         ,html/resources/sequences_IDs/A/06_scarf.jpg,html/resources/sequences_IDs/A/03_camel.jpg,6,3,3,2,1,1,5,2,0,86,,,,,,,,,,,,,,,,,,,,
,,,,,86,2020-07-04_19h58.10.966,retriever_ti,2020.1.3,Win32,60,Chrome,1920,1080,,,,,,,,,,,,,,,,,2,,,,,,,,,,,,,,,,,,,,,,,,,,,792.541095,95,right,1.74186,parrot      ,1,5,-1,0,0,792.55802,792.55802,795.055755,0,17,17,17,1,95,2,1,scarf         ,parrot      ,html/resources/sequences_IDs/A/06_scarf.jpg,html/resources/sequences_IDs/B/05_parrot.jpg,6,5,3,2,2,1,5,4,0,86,,,,,,,,,,,,,,,,,,,,
,,,,,86,2020-07-04_19h58.10.966,retriever_ti,2020.1.3,Win32,60,Chrome,1920,1080,,,,,,,,,,,,,,,,,2,,,,,,,,,,,,,,,,,,,,,,,,,,,796.160105,96,right,1.16041,parrot      ,1,5,-3,0,3,796.19201,796.19201,798.689145,0,18,18,18,1,96,4,1,satellite_dish,parrot      ,html/resources/sequences_IDs/A/10_satellite_dish.jpg,html/resources/sequences_IDs/B/05_parrot.jpg,10,5,4,2,2,1,8,4,0,86,,,,,,,,,,,,,,,,,,,,
,,,,,86,2020-07-04_19h58.10.966,retriever_ti,2020.1.3,Win32,60,Chrome,1920,1080,,,,,,,,,,,,,,,,,2,,,,,,,,,,,,,,,,,,,,,,,,,,,799.306555,97,right,1.13729,parrot      ,1,5,-4,0,3,799.341415,799.341415,801.83885,0,19,19,19,1,97,5,1,sport_tshirt,parrot      ,html/resources/sequences_IDs/B/07_sport_tshirt.jpg,html/resources/sequences_IDs/B/05_parrot.jpg,7,5,3,2,2,1,6,4,0,86,,,,,,,,,,,,,,,,,,,,
,,,,,86,2020-07-04_19h58.10.966,retriever_ti,2020.1.3,Win32,60,Chrome,1920,1080,,,,,,,,,,,,,,,,,2,,,,,,,,,,,,,,,,,,,,,,,,,,,802.44129,98,right,0.91388,camel         ,8,3,1,1,1,802.47487,802.47487,804.97251,0,20,20,20,1,98,7,8,phone       ,camel         ,html/resources/sequences_IDs/B/09_phone.jpg,html/resources/sequences_IDs/A/03_camel.jpg,9,3,4,2,1,1,7,2,0,86,,,,,,,,,,,,,,,,,,,,
,,,,,86,2020-07-04_19h58.10.966,retriever_ti,2020.1.3,Win32,60,Chrome,1920,1080,,,,,,,,,,,,,,,,,2,,,,,,,,,,,,,,,,,,,,,,,,,,,806.07445,99,left,0.98507,camel         ,8,3,4,1,3,806.10817,806.10817,808.606085,0,21,21,21,1,99,8,4,camel         ,satellite_dish,html/resources/sequences_IDs/A/03_camel.jpg,html/resources/sequences_IDs/A/10_satellite_dish.jpg,3,10,1,1,4,2,2,8,0,86,,,,,,,,,,,,,,,,,,,,
,,,,,86,2020-07-04_19h58.10.966,retriever_ti,2020.1.3,Win32,60,Chrome,1920,1080,,,,,,,,,,,,,,,,,2,,,,,,,,,,,,,,,,,,,,,,,,,,,809.223665,100,left,1.823495,sport_tshirt,5,7,1,1,1,809.25874,809.25874,811.75609,0,22,22,22,1,100,5,4,sport_tshirt,satellite_dish,html/resources/sequences_IDs/B/07_sport_tshirt.jpg,html/resources/sequences_IDs/A/10_satellite_dish.jpg,7,10,3,2,4,2,6,8,0,86,,,,,,,,,,,,,,,,,,,,
,,,,,86,2020-07-04_19h58.10.966,retriever_ti,2020.1.3,Win32,60,Chrome,1920,1080,,,,,,,,,,,,,,,,,2,,,,,,,,,,,,,,,,,,,,,,,,,,,812.858145,101,right,1.29383,phone       ,7,9,6,1,3,812.891555,812.891555,815.389355,0,23,23,23,1,101,1,7,parrot      ,phone       ,html/resources/sequences_IDs/B/05_parrot.jpg,html/resources/sequences_IDs/B/09_phone.jpg,5,9,2,1,4,2,4,7,0,86,,,,,,,,,,,,,,,,,,,,
,,,,,86,2020-07-04_19h58.10.966,retriever_ti,2020.1.3,Win32,60,Chrome,1920,1080,,,,,,,,,,,,,,,,,2,,,,,,,,,,,,,,,,,,,,,,,,,,,816.007085,102,left,1.053525,camel         ,8,3,2,1,3,816.04208,816.04208,818.539615,0,24,24,24,1,102,8,6,camel         ,clownfish     ,html/resources/sequences_IDs/A/03_camel.jpg,html/resources/sequences_IDs/A/04_clownfish.jpg,3,4,1,1,2,1,2,3,0,86,,,,,,,,,,,,,,,,,,,,
,,,,,86,2020-07-04_19h58.10.966,retriever_ti,2020.1.3,Win32,60,Chrome,1920,1080,,,,,,,,,,,,,,,,,2,,,,,,,,,,,,,,,,,,,,,,,,,,,819.157035,103,left,1.53928,camel         ,8,3,1,1,1,819.17509,819.17509,821.67293,0,25,25,25,1,103,8,7,camel         ,phone       ,html/resources/sequences_IDs/A/03_camel.jpg,html/resources/sequences_IDs/B/09_phone.jpg,3,9,1,1,4,2,2,7,0,86,,,,,,,,,,,,,,,,,,,,
,,,,,86,2020-07-04_19h58.10.966,retriever_ti,2020.1.3,Win32,60,Chrome,1920,1080,,,,,,,,,,,,,,,,,2,,,,,,,,,,,,,,,,,,,,,,,,,,,822.775455,104,right,1.14771,phone       ,7,9,4,1,3,822.80865,822.80865,825.306365,0,26,26,26,1,104,3,7,redfox      ,phone       ,html/resources/sequences_IDs/B/01_redfox.jpg,html/resources/sequences_IDs/B/09_phone.jpg,1,9,1,1,4,2,1,7,0,86,,,,,,,,,,,,,,,,,,,,
,,,,,86,2020-07-04_19h58.10.966,retriever_ti,2020.1.3,Win32,60,Chrome,1920,1080,,,,,,,,,,,,,,,,,2,,,,,,,,,,,,,,,,,,,,,,,,,,,825.923865,105,left,1.26698,phone       ,7,9,1,1,1,825.959,825.959,828.456405,0,27,27,27,1,105,7,6,phone       ,clownfish     ,html/resources/sequences_IDs/B/09_phone.jpg,html/resources/sequences_IDs/A/04_clownfish.jpg,9,4,4,2,2,1,7,3,0,86,,,,,,,,,,,,,,,,,,,,
,,,,,86,2020-07-04_19h58.10.966,retriever_ti,2020.1.3,Win32,60,Chrome,1920,1080,,,,,,,,,,,,,,,,,2,,,,,,,,,,,,,,,,,,,,,,,,,,,829.558435,106,left,1.331925,clownfish     ,6,4,5,1,3,829.57524,829.57524,832.07322,0,28,28,28,1,106,6,1,clownfish     ,parrot      ,html/resources/sequences_IDs/A/04_clownfish.jpg,html/resources/sequences_IDs/B/05_parrot.jpg,4,5,2,1,2,1,3,4,0,86,,,,,,,,,,,,,,,,,,,,
,,,,,86,2020-07-04_19h58.10.966,retriever_ti,2020.1.3,Win32,60,Chrome,1920,1080,,,,,,,,,,,,,,,,,2,,,,,,,,,,,,,,,,,,,,,,,,,,,832.69195,107,left,0.569055,clownfish     ,6,4,-2,0,3,832.708705,832.708705,835.206565,0,29,29,29,1,107,6,8,clownfish     ,camel         ,html/resources/sequences_IDs/A/04_clownfish.jpg,html/resources/sequences_IDs/A/03_camel.jpg,4,3,2,1,1,1,3,2,0,86,,,,,,,,,,,,,,,,,,,,
,,,,,86,2020-07-04_19h58.10.966,retriever_ti,2020.1.3,Win32,60,Chrome,1920,1080,,,,,,,,,,,,,,,,,2,,,,,,,,,,,,,,,,,,,,,,,,,,,835.82414,108,right,0.919015,phone       ,7,9,3,1,3,835.842215,835.842215,838.33995,0,30,30,30,1,108,4,7,satellite_dish,phone       ,html/resources/sequences_IDs/A/10_satellite_dish.jpg,html/resources/sequences_IDs/B/09_phone.jpg,10,9,4,2,4,2,8,7,0,86,,,,,,,,,,,,,,,,,,,,
,,,,,86,2020-07-04_19h58.10.966,retriever_ti,2020.1.3,Win32,60,Chrome,1920,1080,,,,,,,,,,,,,,,,,2,,,,,,,,,,,,,,,,,,,,,,,,,,,838.958775,109,right,1.100335,redfox      ,3,1,-1,0,0,838.97609,838.97609,841.4733,0,31,31,31,1,109,4,3,satellite_dish,redfox      ,html/resources/sequences_IDs/A/10_satellite_dish.jpg,html/resources/sequences_IDs/B/01_redfox.jpg,10,1,4,2,1,1,8,1,0,86,,,,,,,,,,,,,,,,,,,,
,,,,,86,2020-07-04_19h58.10.966,retriever_ti,2020.1.3,Win32,60,Chrome,1920,1080,,,,,,,,,,,,,,,,,2,,,,,,,,,,,,,,,,,,,,,,,,,,,842.575595,110,left,1.453835,parrot      ,1,5,-1,0,0,842.6089,842.6089,845.106055,0,32,32,32,1,110,1,2,parrot      ,scarf         ,html/resources/sequences_IDs/B/05_parrot.jpg,html/resources/sequences_IDs/A/06_scarf.jpg,5,6,2,1,3,2,4,5,0,86,,,,,,,,,,,,,,,,,,,,
,,,,,86,2020-07-04_19h58.10.966,retriever_ti,2020.1.3,Win32,60,Chrome,1920,1080,,,,,,,,,,,,,,,,,2,,,,,,,,,,,,,,,,,,,,,,,,,,,846.20878,111,left,1.431215,redfox      ,3,1,2,1,3,846.2257,846.2257,848.72346,0,33,33,33,1,111,3,1,redfox      ,parrot      ,html/resources/sequences_IDs/B/01_redfox.jpg,html/resources/sequences_IDs/B/05_parrot.jpg,1,5,1,1,2,1,1,4,0,86,,,,,,,,,,,,,,,,,,,,
,,,,,86,2020-07-04_19h58.10.966,retriever_ti,2020.1.3,Win32,60,Chrome,1920,1080,,,,,,,,,,,,,,,,,2,,,,,,,,,,,,,,,,,,,,,,,,,,,849.34101,112,left,1.454705,scarf         ,2,6,-3,0,3,849.37571,849.37571,851.8736,0,34,34,34,1,112,2,5,scarf         ,sport_tshirt,html/resources/sequences_IDs/A/06_scarf.jpg,html/resources/sequences_IDs/B/07_sport_tshirt.jpg,6,7,3,2,3,2,5,6,0,86,,,,,,,,,,,,,,,,,,,,
,,,,,86,2020-07-04_19h58.10.966,retriever_ti,2020.1.3,Win32,60,Chrome,1920,1080,,,,,,,,,,,,,,,,,2,,,,,,,,,,,,,,,,,,,,,,,,,,,852.49228,113,left,1.36095,satellite_dish,4,10,-1,0,1,852.509085,852.509085,855.006855,0,35,35,35,1,113,4,5,satellite_dish,sport_tshirt,html/resources/sequences_IDs/A/10_satellite_dish.jpg,html/resources/sequences_IDs/B/07_sport_tshirt.jpg,10,7,4,2,3,2,8,6,1,86,,,,,,,,,,,,,,,,,,,,
,,,,,86,2020-07-04_19h58.10.966,retriever_ti,2020.1.3,Win32,60,Chrome,1920,1080,,,,,,,,,,,,,,,,,2,,,,,,,,,,,,,,,,,,,,,,,,,,,856.10883,114,right,0.855495,camel         ,8,3,1,1,0,856.14249,856.14249,858.640325,0,36,36,36,1,114,7,8,phone       ,camel         ,html/resources/sequences_IDs/B/09_phone.jpg,html/resources/sequences_IDs/A/03_camel.jpg,9,3,4,2,1,1,7,2,1,86,,,,,,,,,,,,,,,,,,,,
,,,,,86,2020-07-04_19h58.10.966,retriever_ti,2020.1.3,Win32,60,Chrome,1920,1080,,,,,,,,,,,,,,,,,2,,,,,,,,,,,,,,,,,,,,,,,,,,,859.74116,115,right,1.25384,scarf         ,2,6,1,1,1,859.75941,859.75941,862.257145,0,37,37,37,1,115,1,2,parrot      ,scarf         ,html/resources/sequences_IDs/B/05_parrot.jpg,html/resources/sequences_IDs/A/06_scarf.jpg,5,6,2,1,3,2,4,5,0,86,,,,,,,,,,,,,,,,,,,,
,,,,,86,2020-07-04_19h58.10.966,retriever_ti,2020.1.3,Win32,60,Chrome,1920,1080,,,,,,,,,,,,,,,,,2,,,,,,,,,,,,,,,,,,,,,,,,,,,863.35916,116,left,1.314245,parrot      ,1,5,-4,0,3,863.39638,863.39638,865.890475,0,38,38,38,1,116,1,5,parrot      ,sport_tshirt,html/resources/sequences_IDs/B/05_parrot.jpg,html/resources/sequences_IDs/B/07_sport_tshirt.jpg,5,7,2,1,3,2,4,6,0,86,,,,,,,,,,,,,,,,,,,,
,,,,,86,2020-07-04_19h58.10.966,retriever_ti,2020.1.3,Win32,60,Chrome,1920,1080,,,,,,,,,,,,,,,,,2,,,,,,,,,,,,,,,,,,,,,,,,,,,866.509265,117,left,1.21662,redfox      ,3,1,1,1,1,866.54275,866.54275,869.04068,0,39,39,39,1,117,3,2,redfox      ,scarf         ,html/resources/sequences_IDs/B/01_redfox.jpg,html/resources/sequences_IDs/A/06_scarf.jpg,1,6,1,1,3,2,1,5,0,86,,,,,,,,,,,,,,,,,,,,
,,,,,86,2020-07-04_19h58.10.966,retriever_ti,2020.1.3,Win32,60,Chrome,1920,1080,,,,,,,,,,,,,,,,,2,,,,,,,,,,,,,,,,,,,,,,,,,,,870.140525,118,right,0.82515,sport_tshirt,5,7,1,1,1,870.17409,870.17409,872.67394,0,40,40,40,1,118,4,5,satellite_dish,sport_tshirt,html/resources/sequences_IDs/A/10_satellite_dish.jpg,html/resources/sequences_IDs/B/07_sport_tshirt.jpg,10,7,4,2,3,2,8,6,0,86,,,,,,,,,,,,,,,,,,,,
,,,,,86,2020-07-04_19h58.10.966,retriever_ti,2020.1.3,Win32,60,Chrome,1920,1080,,,,,,,,,,,,,,,,,2,,,,,,,,,,,,,,,,,,,,,,,,,,,873.774835,119,left,0.911915,clownfish     ,6,4,2,1,3,873.793,873.793,876.29071,0,41,41,41,1,119,6,4,clownfish     ,satellite_dish,html/resources/sequences_IDs/A/04_clownfish.jpg,html/resources/sequences_IDs/A/10_satellite_dish.jpg,4,10,2,1,4,2,3,8,0,86,,,,,,,,,,,,,,,,,,,,
,,,,,86,2020-07-04_19h58.10.966,retriever_ti,2020.1.3,Win32,60,Chrome,1920,1080,,,,,,,,,,,,,,,,,2,,,,,,,,,,,,,,,,,,,,,,,,,,,876.90952,120,right,0.70241,scarf         ,2,6,-3,0,3,876.926415,876.926415,879.42406,0,42,42,42,1,120,5,2,sport_tshirt,scarf         ,html/resources/sequences_IDs/B/07_sport_tshirt.jpg,html/resources/sequences_IDs/A/06_scarf.jpg,7,6,3,2,3,2,6,5,0,86,,,,,,,,,,,,,,,,,,,,
,,,,,86,2020-07-04_19h58.10.966,retriever_ti,2020.1.3,Win32,60,Chrome,1920,1080,,,,,,,,,,,,,,,,,2,,,,,,,,,,,,,,,,,,,,,,,,,,,880.04159,121,left,0.929505,parrot      ,1,5,-2,0,3,880.059805,880.059805,882.55707,0,43,43,43,1,121,1,3,parrot      ,redfox      ,html/resources/sequences_IDs/B/05_parrot.jpg,html/resources/sequences_IDs/B/01_redfox.jpg,5,1,2,1,1,1,4,1,0,86,,,,,,,,,,,,,,,,,,,,
,,,,,86,2020-07-04_19h58.10.966,retriever_ti,2020.1.3,Win32,60,Chrome,1920,1080,,,,,,,,,,,,,,,,,2,,,,,,,,,,,,,,,,,,,,,,,,,,,883.159595,122,right,0.99594,scarf         ,2,6,-1,0,0,883.176475,883.176475,885.67421,0,44,44,44,1,122,3,2,redfox      ,scarf         ,html/resources/sequences_IDs/B/01_redfox.jpg,html/resources/sequences_IDs/A/06_scarf.jpg,1,6,1,1,3,2,1,5,0,86,,,,,,,,,,,,,,,,,,,,
,,,,,86,2020-07-04_19h58.10.966,retriever_ti,2020.1.3,Win32,60,Chrome,1920,1080,,,,,,,,,,,,,,,,,2,,,,,,,,,,,,,,,,,,,,,,,,,,,886.77627,123,left,0.98204,camel         ,8,3,5,1,3,886.81011,886.81011,889.307595,0,45,45,45,1,123,8,3,camel         ,redfox      ,html/resources/sequences_IDs/A/03_camel.jpg,html/resources/sequences_IDs/B/01_redfox.jpg,3,1,1,1,1,1,2,1,0,86,,,,,,,,,,,,,,,,,,,,
,,,,,86,2020-07-04_19h58.10.966,retriever_ti,2020.1.3,Win32,60,Chrome,1920,1080,,,,,,,,,,,,,,,,,2,,,,,,,,,,,,,,,,,,,,,,,,,,,889.92505,124,left,0.725485,camel         ,8,3,1,1,1,889.95989,889.95989,892.457905,0,46,46,46,1,124,8,7,camel         ,phone       ,html/resources/sequences_IDs/A/03_camel.jpg,html/resources/sequences_IDs/B/09_phone.jpg,3,9,1,1,4,2,2,7,0,86,,,,,,,,,,,,,,,,,,,,
,,,,,86,2020-07-04_19h58.10.966,retriever_ti,2020.1.3,Win32,60,Chrome,1920,1080,,,,,,,,,,,,,,,,,2,,,,,,,,,,,,,,,,,,,,,,,,,,,893.55778,125,right,0.756335,clownfish     ,6,4,1,1,0,893.57519,893.57519,896.07442,0,47,47,47,1,125,5,6,sport_tshirt,clownfish     ,html/resources/sequences_IDs/B/07_sport_tshirt.jpg,html/resources/sequences_IDs/A/04_clownfish.jpg,7,4,3,2,2,1,6,3,1,86,,,,,,,,,,,,,,,,,,,,
,,,,,86,2020-07-04_19h58.10.966,retriever_ti,2020.1.3,Win32,60,Chrome,1920,1080,,,,,,,,,,,,,,,,,2,,,,,,,,,,,,,,,,,,,,,,,,,,,897.176395,126,left,1.105595,scarf         ,2,6,-2,0,3,897.193515,897.193515,899.69126,0,48,48,48,1,126,2,4,scarf         ,satellite_dish,html/resources/sequences_IDs/A/06_scarf.jpg,html/resources/sequences_IDs/A/10_satellite_dish.jpg,6,10,3,2,4,2,5,8,0,86,,,,,,,,,,,,,,,,,,,,
,,,,,86,2020-07-04_19h58.10.966,retriever_ti,2020.1.3,Win32,60,Chrome,1920,1080,,,,,,,,,,,,,,,,,2,,,,,,,,,,,,,,,,,,,,,,,,,,,900.30987,127,left,1.987825,sport_tshirt,5,7,-1,0,0,900.326775,900.326775,902.824565,0,49,49,49,1,127,5,6,sport_tshirt,clownfish     ,html/resources/sequences_IDs/B/07_sport_tshirt.jpg,html/resources/sequences_IDs/A/04_clownfish.jpg,7,4,3,2,2,1,6,3,0,86,,,,,,,,,,,,,,,,,,,,
,,,,,86,2020-07-04_19h58.10.966,retriever_ti,2020.1.3,Win32,60,Chrome,1920,1080,,,,,,,,,,,,,,,,,2,,,,,,,,,,,,,,,,,,,,,,,,,,,903.92536,128,right,0.836015,camel         ,8,3,4,1,3,903.96018,903.96018,906.457985,0,50,50,50,1,128,4,8,satellite_dish,camel         ,html/resources/sequences_IDs/A/10_satellite_dish.jpg,html/resources/sequences_IDs/A/03_camel.jpg,10,3,4,2,1,1,8,2,0,86,,,,,,,,,,,,,,,,,,,,
,,,,,86,2020-07-04_19h58.10.966,retriever_ti,2020.1.3,Win32,60,Chrome,1920,1080,,,,,,,,,,,,,,,,,2,,,,,,,,,,,,,,,,,,,,,,,,,,,907.07675,129,right,0.731315,clownfish     ,6,4,3,1,3,907.09376,907.09376,909.59141,0,51,51,51,1,129,3,6,redfox      ,clownfish     ,html/resources/sequences_IDs/B/01_redfox.jpg,html/resources/sequences_IDs/A/04_clownfish.jpg,1,4,1,1,2,1,1,3,0,86,,,,,,,,,,,,,,,,,,,,
,,,,,86,2020-07-04_19h58.10.966,retriever_ti,2020.1.3,Win32,60,Chrome,1920,1080,,,,,,,,,,,,,,,,,2,,,,,,,,,,,,,,,,,,,,,,,,,,,910.210075,130,left,1.181345,redfox      ,3,1,-1,0,0,910.226945,910.226945,912.724785,0,52,52,52,1,130,3,4,redfox      ,satellite_dish,html/resources/sequences_IDs/B/01_redfox.jpg,html/resources/sequences_IDs/A/10_satellite_dish.jpg,1,10,1,1,4,2,1,8,0,86,,,,,,,,,,,,,,,,,,,,
,,,,,86,2020-07-04_19h58.10.966,retriever_ti,2020.1.3,Win32,60,Chrome,1920,1080,,,,,,,,,,,,,,,,,2,,,,,,,,,,,,,,,,,,,,,,,,,,,913.825585,131,right,0.746975,camel         ,8,3,1,1,1,913.8438,913.8438,916.341495,0,53,53,53,1,131,7,8,phone       ,camel         ,html/resources/sequences_IDs/B/09_phone.jpg,html/resources/sequences_IDs/A/03_camel.jpg,9,3,4,2,1,1,7,2,0,86,,,,,,,,,,,,,,,,,,,,
,,,,,86,2020-07-04_19h58.10.966,retriever_ti,2020.1.3,Win32,60,Chrome,1920,1080,,,,,,,,,,,,,,,,,2,,,,,,,,,,,,,,,,,,,,,,,,,,,917.443675,132,right,1.49129,sport_tshirt,5,7,-1,0,0,917.46072,917.46072,919.95823,0,54,54,54,1,132,6,5,clownfish     ,sport_tshirt,html/resources/sequences_IDs/A/04_clownfish.jpg,html/resources/sequences_IDs/B/07_sport_tshirt.jpg,4,7,2,1,3,2,3,6,0,86,,,,,,,,,,,,,,,,,,,,
,,,,,86,2020-07-04_19h58.10.966,retriever_ti,2020.1.3,Win32,60,Chrome,1920,1080,,,,,,,,,,,,,,,,,2,,,,,,,,,,,,,,,,,,,,,,,,,,,921.06041,133,right,1.175405,clownfish     ,6,4,1,1,1,921.077265,921.077265,923.57496,0,55,55,55,1,133,5,6,sport_tshirt,clownfish     ,html/resources/sequences_IDs/B/07_sport_tshirt.jpg,html/resources/sequences_IDs/A/04_clownfish.jpg,7,4,3,2,2,1,6,3,0,86,,,,,,,,,,,,,,,,,,,,
,,,,,86,2020-07-04_19h58.10.966,retriever_ti,2020.1.3,Win32,60,Chrome,1920,1080,,,,,,,,,,,,,,,,,2,,,,,,,,,,,,,,,,,,,,,,,,,,,924.676975,134,left,0.87114,clownfish     ,6,4,1,1,1,924.694565,924.694565,927.191715,0,56,56,56,1,134,6,5,clownfish     ,sport_tshirt,html/resources/sequences_IDs/A/04_clownfish.jpg,html/resources/sequences_IDs/B/07_sport_tshirt.jpg,4,7,2,1,3,2,3,6,0,86,,,,,,,,,,,,,,,,,,,,
,,,,,86,2020-07-04_19h58.10.966,retriever_ti,2020.1.3,Win32,60,Chrome,1920,1080,,,,,,,,,,,,,,,,,2,,,,,,,,,,,,,,,,,,,,,,,,,,,928.293565,135,right,1.284345,sport_tshirt,5,7,1,1,1,928.310805,928.310805,930.808575,0,57,57,57,1,135,4,5,satellite_dish,sport_tshirt,html/resources/sequences_IDs/A/10_satellite_dish.jpg,html/resources/sequences_IDs/B/07_sport_tshirt.jpg,10,7,4,2,3,2,8,6,0,86,,,,,,,,,,,,,,,,,,,,
,,,,,86,2020-07-04_19h58.10.966,retriever_ti,2020.1.3,Win32,60,Chrome,1920,1080,,,,,,,,,,,,,,,,,2,,,,,,,,,,,,,,,,,,,,,,,,,,,931.90939,136,left,1.095355,camel         ,8,3,6,1,3,931.92754,931.92754,934.425265,0,58,58,58,1,136,8,2,camel         ,scarf         ,html/resources/sequences_IDs/A/03_camel.jpg,html/resources/sequences_IDs/A/06_scarf.jpg,3,6,1,1,3,2,2,5,0,86,,,,,,,,,,,,,,,,,,,,
,,,,,86,2020-07-04_19h58.10.966,retriever_ti,2020.1.3,Win32,60,Chrome,1920,1080,,,,,,,,,,,,,,,,,2,,,,,,,,,,,,,,,,,,,,,,,,,,,935.04395,137,right,1.47325,phone       ,7,9,1,1,1,935.060835,935.060835,937.55851,0,59,59,59,1,137,6,7,clownfish     ,phone       ,html/resources/sequences_IDs/A/04_clownfish.jpg,html/resources/sequences_IDs/B/09_phone.jpg,4,9,2,1,4,2,3,7,0,86,,,,,,,,,,,,,,,,,,,,
,,,,,86,2020-07-04_19h58.10.966,retriever_ti,2020.1.3,Win32,60,Chrome,1920,1080,,,,,,,,,,,,,,,,,2,,,,,,,,,,,,,,,,,,,,,,,,,,,938.66066,138,left,1.131635,phone       ,7,9,3,1,3,938.69476,938.69476,941.191995,0,60,60,60,1,138,7,4,phone       ,satellite_dish,html/resources/sequences_IDs/B/09_phone.jpg,html/resources/sequences_IDs/A/10_satellite_dish.jpg,9,10,4,2,4,2,7,8,0,86,,,,,,,,,,,,,,,,,,,,
,,,,,86,2020-07-04_19h58.10.966,retriever_ti,2020.1.3,Win32,60,Chrome,1920,1080,,,,,,,,,,,,,,,,,2,,,,,,,,,,,,,,,,,,,,,,,,,,,941.80962,139,left,1.55013,clownfish     ,6,4,4,1,3,941.827655,941.827655,944.3254,0,61,61,61,1,139,6,2,clownfish     ,scarf         ,html/resources/sequences_IDs/A/04_clownfish.jpg,html/resources/sequences_IDs/A/06_scarf.jpg,4,6,2,1,3,2,3,5,0,86,,,,,,,,,,,,,,,,,,,,
,,,,,86,2020-07-04_19h58.10.966,retriever_ti,2020.1.3,Win32,60,Chrome,1920,1080,,,,,,,,,,,,,,,,,2,,,,,,,,,,,,,,,,,,,,,,,,,,,944.94413,140,left,1.36014,phone       ,7,9,1,1,1,944.977935,944.977935,947.475595,0,62,62,62,1,140,7,6,phone       ,clownfish     ,html/resources/sequences_IDs/B/09_phone.jpg,html/resources/sequences_IDs/A/04_clownfish.jpg,9,4,4,2,2,1,7,3,0,86,,,,,,,,,,,,,,,,,,,,
,,,,,86,2020-07-04_19h58.10.966,retriever_ti,2020.1.3,Win32,60,Chrome,1920,1080,,,,,,,,,,,,,,,,,2,,,,,,,,,,,,,,,,,,,,,,,,,,,948.577595,141,left,1.74951,satellite_dish,4,10,1,1,0,948.61108,948.61108,951.10879,0,63,63,63,1,141,4,3,satellite_dish,redfox      ,html/resources/sequences_IDs/A/10_satellite_dish.jpg,html/resources/sequences_IDs/B/01_redfox.jpg,10,1,4,2,1,1,8,1,1,86,,,,,,,,,,,,,,,,,,,,
,,,,,86,2020-07-04_19h58.10.966,retriever_ti,2020.1.3,Win32,60,Chrome,1920,1080,,,,,,,,,,,,,,,,,2,,,,,,,,,,,,,,,,,,,,,,,,,,,952.21082,142,right,1.105095,clownfish     ,6,4,5,1,3,952.22811,952.22811,954.725625,0,64,64,64,1,142,1,6,parrot      ,clownfish     ,html/resources/sequences_IDs/B/05_parrot.jpg,html/resources/sequences_IDs/A/04_clownfish.jpg,5,4,2,1,2,1,4,3,0,86,,,,,,,,,,,,,,,,,,,,
,,,,,86,2020-07-04_19h58.10.966,retriever_ti,2020.1.3,Win32,60,Chrome,1920,1080,,,,,,,,,,,,,,,,,2,,,,,,,,,,,,,,,,,,,,,,,,,,,955.34319,143,left,1.411395,sport_tshirt,5,7,2,1,3,955.361155,955.361155,957.85907,0,65,65,65,1,143,5,3,sport_tshirt,redfox      ,html/resources/sequences_IDs/B/07_sport_tshirt.jpg,html/resources/sequences_IDs/B/01_redfox.jpg,7,1,3,2,1,1,6,1,0,86,,,,,,,,,,,,,,,,,,,,
,,,,,86,2020-07-04_19h58.10.966,retriever_ti,2020.1.3,Win32,60,Chrome,1920,1080,,,,,,,,,,,,,,,,,2,,,,,,,,,,,,,,,,,,,,,,,,,,,958.47776,144,left,1.13882,camel         ,8,3,7,1,3,958.494535,958.494535,960.992345,0,66,66,66,1,144,8,1,camel         ,parrot      ,html/resources/sequences_IDs/A/03_camel.jpg,html/resources/sequences_IDs/B/05_parrot.jpg,3,5,1,1,2,1,2,4,0,86,,,,,,,,,,,,,,,,,,,,
,,,,,86,2020-07-04_19h58.10.966,retriever_ti,2020.1.3,Win32,60,Chrome,1920,1080,,,,,,,,,,,,,,,,,2,,,,,,,,,,,,,,,,,,,,,,,,,,,961.609945,145,right,1.24556,camel         ,8,3,3,1,3,961.628025,961.628025,964.1258,0,67,67,67,1,145,5,8,sport_tshirt,camel         ,html/resources/sequences_IDs/B/07_sport_tshirt.jpg,html/resources/sequences_IDs/A/03_camel.jpg,7,3,3,2,1,1,6,2,0,86,,,,,,,,,,,,,,,,,,,,
,,,,,86,2020-07-04_19h58.10.966,retriever_ti,2020.1.3,Win32,60,Chrome,1920,1080,,,,,,,,,,,,,,,,,2,,,,,,,,,,,,,,,,,,,,,,,,,,,964.74469,146,left,1.65344,scarf         ,2,6,1,1,0,964.77813,964.77813,967.27613,0,68,68,68,1,146,2,1,scarf         ,parrot      ,html/resources/sequences_IDs/A/06_scarf.jpg,html/resources/sequences_IDs/B/05_parrot.jpg,6,5,3,2,2,1,5,4,1,86,,,,,,,,,,,,,,,,,,,,
,,,,,86,2020-07-04_19h58.10.966,retriever_ti,2020.1.3,Win32,60,Chrome,1920,1080,,,,,,,,,,,,,,,,,2,,,,,,,,,,,,,,,,,,,,,,,,,,,968.378105,147,right,1.283425,scarf         ,2,6,-2,0,3,968.39479,968.39479,970.892575,0,69,69,69,1,147,4,2,satellite_dish,scarf         ,html/resources/sequences_IDs/A/10_satellite_dish.jpg,html/resources/sequences_IDs/A/06_scarf.jpg,10,6,4,2,3,2,8,5,0,86,,,,,,,,,,,,,,,,,,,,
,,,,,86,2020-07-04_19h58.10.966,retriever_ti,2020.1.3,Win32,60,Chrome,1920,1080,,,,,,,,,,,,,,,,,2,,,,,,,,,,,,,,,,,,,,,,,,,,,971.5102,148,left,1.089965,phone       ,7,9,6,1,3,971.528315,971.528315,974.026025,0,70,70,70,1,148,7,1,phone       ,parrot      ,html/resources/sequences_IDs/B/09_phone.jpg,html/resources/sequences_IDs/B/05_parrot.jpg,9,5,4,2,2,1,7,4,0,86,,,,,,,,,,,,,,,,,,,,
,,,,,86,2020-07-04_19h58.10.966,retriever_ti,2020.1.3,Win32,60,Chrome,1920,1080,,,,,,,,,,,,,,,,,2,,,,,,,,,,,,,,,,,,,,,,,,,,,974.644885,149,right,1.642905,redfox      ,3,1,1,1,1,974.6782,974.6782,977.176155,0,71,71,71,1,149,2,3,scarf         ,redfox      ,html/resources/sequences_IDs/A/06_scarf.jpg,html/resources/sequences_IDs/B/01_redfox.jpg,6,1,3,2,1,1,5,1,0,86,,,,,,,,,,,,,,,,,,,,
,,,,,86,2020-07-04_19h58.10.966,retriever_ti,2020.1.3,Win32,60,Chrome,1920,1080,,,,,,,,,,,,,,,,,2,,,,,,,,,,,,,,,,,,,,,,,,,,,978.27816,150,left,1.43783,sport_tshirt,5,7,1,1,1,978.29501,978.29501,980.79283,0,72,72,72,1,150,5,4,sport_tshirt,satellite_dish,html/resources/sequences_IDs/B/07_sport_tshirt.jpg,html/resources/sequences_IDs/A/10_satellite_dish.jpg,7,10,3,2,4,2,6,8,0,86,,,,,,,,,,,,,,,,,,,,
,,,,,86,2020-07-04_19h58.10.966,retriever_ti,2020.1.3,Win32,60,Chrome,1920,1080,,,,,,,,,,,,,,,,,2,,,,,,,,,,,,,,,,,,,,,,,,,,,981.89363,151,left,1.38321,phone       ,7,9,2,1,3,981.928365,981.928365,984.426185,0,73,73,73,1,151,7,5,phone       ,sport_tshirt,html/resources/sequences_IDs/B/09_phone.jpg,html/resources/sequences_IDs/B/07_sport_tshirt.jpg,9,7,4,2,3,2,7,6,0,86,,,,,,,,,,,,,,,,,,,,
,,,,,86,2020-07-04_19h58.10.966,retriever_ti,2020.1.3,Win32,60,Chrome,1920,1080,,,,,,,,,,,,,,,,,2,,,,,,,,,,,,,,,,,,,,,,,,,,,985.04499,152,left,1.390365,phone       ,7,9,5,1,3,985.078435,985.078435,987.57623,0,74,74,74,1,152,7,2,phone       ,scarf         ,html/resources/sequences_IDs/B/09_phone.jpg,html/resources/sequences_IDs/A/06_scarf.jpg,9,6,4,2,3,2,7,5,0,86,,,,,,,,,,,,,,,,,,,,
,,,,,86,2020-07-04_19h58.10.966,retriever_ti,2020.1.3,Win32,60,Chrome,1920,1080,,,,,,,,,,,,,,,,,2,,,,,,,,,,,,,,,,,,,,,,,,,,,988.19381,153,left,1.025005,phone       ,7,9,4,1,3,988.2118,988.2118,990.7096,0,75,75,75,1,153,7,3,phone       ,redfox      ,html/resources/sequences_IDs/B/09_phone.jpg,html/resources/sequences_IDs/B/01_redfox.jpg,9,1,4,2,1,1,7,1,0,86,,,,,,,,,,,,,,,,,,,,
,,,,,86,2020-07-04_19h58.10.966,retriever_ti,2020.1.3,Win32,60,Chrome,1920,1080,,,,,,,,,,,,,,,,,2,,,,,,,,,,,,,,,,,,,,,,,,,,,991.32846,154,right,1.331915,satellite_dish,4,10,3,1,3,991.34562,991.34562,993.843025,0,76,76,76,1,154,1,4,parrot      ,satellite_dish,html/resources/sequences_IDs/B/05_parrot.jpg,html/resources/sequences_IDs/A/10_satellite_dish.jpg,5,10,2,1,4,2,4,8,0,86,,,,,,,,,,,,,,,,,,,,
,,,,,86,2020-07-04_19h58.10.966,retriever_ti,2020.1.3,Win32,60,Chrome,1920,1080,,,,,,,,,,,,,,,,,,,,,,,,,,,,,,,,,,,,,0,2.57349,,,,,,,,,,,,,,,,,,,,,,,,,,,,,,,,,,,,,,,,,1,0,1,0,1,,,,,,,,,,,,,,,
,,,,,86,2020-07-04_19h58.10.966,retriever_ti,2020.1.3,Win32,60,Chrome,1920,1080,,,,,,,,,,,,,,,,,3,,,,,,,,,,,,,,,,,,,,,,,,,,,1003.840385,155,left,0.917695,scarf         ,2,6,-2,0,3,1003.8599,1003.8599,1006.360075,0,0,0,0,1,155,2,4,scarf         ,satellite_dish,html/resources/sequences_IDs/A/06_scarf.jpg,html/resources/sequences_IDs/A/10_satellite_dish.jpg,6,10,3,2,4,2,5,8,0,86,,,,,,,,,,,,,,,,,,,,
,,,,,86,2020-07-04_19h58.10.966,retriever_ti,2020.1.3,Win32,60,Chrome,1920,1080,,,,,,,,,,,,,,,,,3,,,,,,,,,,,,,,,,,,,,,,,,,,,1006.977855,156,right,0.57059,camel         ,8,3,4,1,3,1006.9955,1006.9955,1009.493345,0,1,1,1,1,156,4,8,satellite_dish,camel         ,html/resources/sequences_IDs/A/10_satellite_dish.jpg,html/resources/sequences_IDs/A/03_camel.jpg,10,3,4,2,1,1,8,2,0,86,,,,,,,,,,,,,,,,,,,,
,,,,,86,2020-07-04_19h58.10.966,retriever_ti,2020.1.3,Win32,60,Chrome,1920,1080,,,,,,,,,,,,,,,,,3,,,,,,,,,,,,,,,,,,,,,,,,,,,1010.11208,157,left,0.96923,camel         ,8,3,1,1,1,1010.145585,1010.145585,1012.643405,0,2,2,2,1,157,8,7,camel         ,phone       ,html/resources/sequences_IDs/A/03_camel.jpg,html/resources/sequences_IDs/B/09_phone.jpg,3,9,1,1,4,2,2,7,0,86,,,,,,,,,,,,,,,,,,,,
,,,,,86,2020-07-04_19h58.10.966,retriever_ti,2020.1.3,Win32,60,Chrome,1920,1080,,,,,,,,,,,,,,,,,3,,,,,,,,,,,,,,,,,,,,,,,,,,,1013.745525,158,right,0.948955,phone       ,7,9,1,1,0,1013.762365,1013.762365,1016.261905,0,3,3,3,1,158,6,7,clownfish     ,phone       ,html/resources/sequences_IDs/A/04_clownfish.jpg,html/resources/sequences_IDs/B/09_phone.jpg,4,9,2,1,4,2,3,7,1,86,,,,,,,,,,,,,,,,,,,,
,,,,,86,2020-07-04_19h58.10.966,retriever_ti,2020.1.3,Win32,60,Chrome,1920,1080,,,,,,,,,,,,,,,,,3,,,,,,,,,,,,,,,,,,,,,,,,,,,1017.36248,159,right,1.673305,redfox      ,3,1,1,1,1,1017.379695,1017.379695,1019.87697,0,4,4,4,1,159,2,3,scarf         ,redfox      ,html/resources/sequences_IDs/A/06_scarf.jpg,html/resources/sequences_IDs/B/01_redfox.jpg,6,1,3,2,1,1,5,1,0,86,,,,,,,,,,,,,,,,,,,,
,,,,,86,2020-07-04_19h58.10.966,retriever_ti,2020.1.3,Win32,60,Chrome,1920,1080,,,,,,,,,,,,,,,,,3,,,,,,,,,,,,,,,,,,,,,,,,,,,1020.9778,160,left,1.048175,sport_tshirt,5,7,1,1,1,1020.99658,1020.99658,1023.49363,0,5,5,5,1,160,5,4,sport_tshirt,satellite_dish,html/resources/sequences_IDs/B/07_sport_tshirt.jpg,html/resources/sequences_IDs/A/10_satellite_dish.jpg,7,10,3,2,4,2,6,8,0,86,,,,,,,,,,,,,,,,,,,,
,,,,,86,2020-07-04_19h58.10.966,retriever_ti,2020.1.3,Win32,60,Chrome,1920,1080,,,,,,,,,,,,,,,,,3,,,,,,,,,,,,,,,,,,,,,,,,,,,1024.595735,161,left,1.327835,phone       ,7,9,1,1,1,1024.629375,1024.629375,1027.12708,0,6,6,6,1,161,7,6,phone       ,clownfish     ,html/resources/sequences_IDs/B/09_phone.jpg,html/resources/sequences_IDs/A/04_clownfish.jpg,9,4,4,2,2,1,7,3,0,86,,,,,,,,,,,,,,,,,,,,
,,,,,86,2020-07-04_19h58.10.966,retriever_ti,2020.1.3,Win32,60,Chrome,1920,1080,,,,,,,,,,,,,,,,,3,,,,,,,,,,,,,,,,,,,,,,,,,,,1028.22911,162,right,0.965345,sport_tshirt,5,7,4,1,3,1028.262985,1028.262985,1030.76049,0,7,7,7,1,162,1,5,parrot      ,sport_tshirt,html/resources/sequences_IDs/B/05_parrot.jpg,html/resources/sequences_IDs/B/07_sport_tshirt.jpg,5,7,2,1,3,2,4,6,0,86,,,,,,,,,,,,,,,,,,,,
,,,,,86,2020-07-04_19h58.10.966,retriever_ti,2020.1.3,Win32,60,Chrome,1920,1080,,,,,,,,,,,,,,,,,3,,,,,,,,,,,,,,,,,,,,,,,,,,,1031.379075,163,right,0.914635,sport_tshirt,5,7,1,1,1,1031.412735,1031.412735,1033.91052,0,8,8,8,1,163,4,5,satellite_dish,sport_tshirt,html/resources/sequences_IDs/A/10_satellite_dish.jpg,html/resources/sequences_IDs/B/07_sport_tshirt.jpg,10,7,4,2,3,2,8,6,0,86,,,,,,,,,,,,,,,,,,,,
,,,,,86,2020-07-04_19h58.10.966,retriever_ti,2020.1.3,Win32,60,Chrome,1920,1080,,,,,,,,,,,,,,,,,3,,,,,,,,,,,,,,,,,,,,,,,,,,,1035.01142,164,left,1.29941,redfox      ,3,1,1,1,0,1035.0294,1035.0294,1037.527295,0,9,9,9,1,164,3,2,redfox      ,scarf         ,html/resources/sequences_IDs/B/01_redfox.jpg,html/resources/sequences_IDs/A/06_scarf.jpg,1,6,1,1,3,2,1,5,1,86,,,,,,,,,,,,,,,,,,,,
,,,,,86,2020-07-04_19h58.10.966,retriever_ti,2020.1.3,Win32,60,Chrome,1920,1080,,,,,,,,,,,,,,,,,3,,,,,,,,,,,,,,,,,,,,,,,,,,,1038.62944,165,right,0.749165,camel         ,8,3,2,1,3,1038.663075,1038.663075,1041.16069,0,10,10,10,1,165,6,8,clownfish     ,camel         ,html/resources/sequences_IDs/A/04_clownfish.jpg,html/resources/sequences_IDs/A/03_camel.jpg,4,3,2,1,1,1,3,2,0,86,,,,,,,,,,,,,,,,,,,,
,,,,,86,2020-07-04_19h58.10.966,retriever_ti,2020.1.3,Win32,60,Chrome,1920,1080,,,,,,,,,,,,,,,,,3,,,,,,,,,,,,,,,,,,,,,,,,,,,1041.779455,166,left,0.71492,camel         ,8,3,1,1,1,1041.81296,1041.81296,1044.31072,0,11,11,11,1,166,8,7,camel         ,phone       ,html/resources/sequences_IDs/A/03_camel.jpg,html/resources/sequences_IDs/B/09_phone.jpg,3,9,1,1,4,2,2,7,0,86,,,,,,,,,,,,,,,,,,,,
,,,,,86,2020-07-04_19h58.10.966,retriever_ti,2020.1.3,Win32,60,Chrome,1920,1080,,,,,,,,,,,,,,,,,3,,,,,,,,,,,,,,,,,,,,,,,,,,,1045.41272,167,left,1.27046,parrot      ,1,5,-2,0,3,1045.429715,1045.429715,1047.92748,0,12,12,12,1,167,1,3,parrot      ,redfox      ,html/resources/sequences_IDs/B/05_parrot.jpg,html/resources/sequences_IDs/B/01_redfox.jpg,5,1,2,1,1,1,4,1,0,86,,,,,,,,,,,,,,,,,,,,
,,,,,86,2020-07-04_19h58.10.966,retriever_ti,2020.1.3,Win32,60,Chrome,1920,1080,,,,,,,,,,,,,,,,,3,,,,,,,,,,,,,,,,,,,,,,,,,,,1048.54498,168,right,1.31363,redfox      ,3,1,1,1,1,1048.579965,1048.579965,1051.07755,0,13,13,13,1,168,2,3,scarf         ,redfox      ,html/resources/sequences_IDs/A/06_scarf.jpg,html/resources/sequences_IDs/B/01_redfox.jpg,6,1,3,2,1,1,5,1,0,86,,,,,,,,,,,,,,,,,,,,
,,,,,86,2020-07-04_19h58.10.966,retriever_ti,2020.1.3,Win32,60,Chrome,1920,1080,,,,,,,,,,,,,,,,,3,,,,,,,,,,,,,,,,,,,,,,,,,,,1052.179645,169,right,1.120015,sport_tshirt,5,7,3,1,3,1052.19704,1052.19704,1054.69434,0,14,14,14,1,169,2,5,scarf         ,sport_tshirt,html/resources/sequences_IDs/A/06_scarf.jpg,html/resources/sequences_IDs/B/07_sport_tshirt.jpg,6,7,3,2,3,2,5,6,0,86,,,,,,,,,,,,,,,,,,,,
,,,,,86,2020-07-04_19h58.10.966,retriever_ti,2020.1.3,Win32,60,Chrome,1920,1080,,,,,,,,,,,,,,,,,3,,,,,,,,,,,,,,,,,,,,,,,,,,,1055.312815,170,left,1.60227,parrot      ,1,5,-3,0,3,1055.34656,1055.34656,1057.844305,0,15,15,15,1,170,1,4,parrot      ,satellite_dish,html/resources/sequences_IDs/B/05_parrot.jpg,html/resources/sequences_IDs/A/10_satellite_dish.jpg,5,10,2,1,4,2,4,8,0,86,,,,,,,,,,,,,,,,,,,,
,,,,,86,2020-07-04_19h58.10.966,retriever_ti,2020.1.3,Win32,60,Chrome,1920,1080,,,,,,,,,,,,,,,,,3,,,,,,,,,,,,,,,,,,,,,,,,,,,1058.46187,171,right,1.52196,phone       ,7,9,1,1,1,1058.47997,1058.47997,1060.97774,0,16,16,16,1,171,6,7,clownfish     ,phone       ,html/resources/sequences_IDs/A/04_clownfish.jpg,html/resources/sequences_IDs/B/09_phone.jpg,4,9,2,1,4,2,3,7,0,86,,,,,,,,,,,,,,,,,,,,
,,,,,86,2020-07-04_19h58.10.966,retriever_ti,2020.1.3,Win32,60,Chrome,1920,1080,,,,,,,,,,,,,,,,,3,,,,,,,,,,,,,,,,,,,,,,,,,,,1062.07985,172,left,1.857615,redfox      ,3,1,-1,0,0,1062.11334,1062.11334,1064.61116,0,17,17,17,1,172,3,4,redfox      ,satellite_dish,html/resources/sequences_IDs/B/01_redfox.jpg,html/resources/sequences_IDs/A/10_satellite_dish.jpg,1,10,1,1,4,2,1,8,0,86,,,,,,,,,,,,,,,,,,,,
,,,,,86,2020-07-04_19h58.10.966,retriever_ti,2020.1.3,Win32,60,Chrome,1920,1080,,,,,,,,,,,,,,,,,3,,,,,,,,,,,,,,,,,,,,,,,,,,,1065.713215,173,right,1.124365,parrot      ,1,5,-1,0,0,1065.730605,1065.730605,1068.227975,0,18,18,18,1,173,2,1,scarf         ,parrot      ,html/resources/sequences_IDs/A/06_scarf.jpg,html/resources/sequences_IDs/B/05_parrot.jpg,6,5,3,2,2,1,5,4,0,86,,,,,,,,,,,,,,,,,,,,
,,,,,86,2020-07-04_19h58.10.966,retriever_ti,2020.1.3,Win32,60,Chrome,1920,1080,,,,,,,,,,,,,,,,,3,,,,,,,,,,,,,,,,,,,,,,,,,,,1069.32981,174,left,1.411145,camel         ,8,3,6,1,3,1069.36348,1069.36348,1071.86134,0,19,19,19,1,174,8,2,camel         ,scarf         ,html/resources/sequences_IDs/A/03_camel.jpg,html/resources/sequences_IDs/A/06_scarf.jpg,3,6,1,1,3,2,2,5,0,86,,,,,,,,,,,,,,,,,,,,
,,,,,86,2020-07-04_19h58.10.966,retriever_ti,2020.1.3,Win32,60,Chrome,1920,1080,,,,,,,,,,,,,,,,,3,,,,,,,,,,,,,,,,,,,,,,,,,,,1072.47896,175,left,1.355915,sport_tshirt,5,7,4,1,3,1072.49546,1072.49546,1074.99471,0,20,20,20,1,175,5,1,sport_tshirt,parrot      ,html/resources/sequences_IDs/B/07_sport_tshirt.jpg,html/resources/sequences_IDs/B/05_parrot.jpg,7,5,3,2,2,1,6,4,0,86,,,,,,,,,,,,,,,,,,,,
,,,,,86,2020-07-04_19h58.10.966,retriever_ti,2020.1.3,Win32,60,Chrome,1920,1080,,,,,,,,,,,,,,,,,3,,,,,,,,,,,,,,,,,,,,,,,,,,,1075.61349,176,left,1.215725,satellite_dish,4,10,3,1,3,1075.64701,1075.64701,1078.1448,0,21,21,21,1,176,4,1,satellite_dish,parrot      ,html/resources/sequences_IDs/A/10_satellite_dish.jpg,html/resources/sequences_IDs/B/05_parrot.jpg,10,5,4,2,2,1,8,4,0,86,,,,,,,,,,,,,,,,,,,,
,,,,,86,2020-07-04_19h58.10.966,retriever_ti,2020.1.3,Win32,60,Chrome,1920,1080,,,,,,,,,,,,,,,,,3,,,,,,,,,,,,,,,,,,,,,,,,,,,1078.76232,177,right,1.186135,sport_tshirt,5,7,1,1,1,1078.780315,1078.780315,1081.27812,0,22,22,22,1,177,4,5,satellite_dish,sport_tshirt,html/resources/sequences_IDs/A/10_satellite_dish.jpg,html/resources/sequences_IDs/B/07_sport_tshirt.jpg,10,7,4,2,3,2,8,6,0,86,,,,,,,,,,,,,,,,,,,,
,,,,,86,2020-07-04_19h58.10.966,retriever_ti,2020.1.3,Win32,60,Chrome,1920,1080,,,,,,,,,,,,,,,,,3,,,,,,,,,,,,,,,,,,,,,,,,,,,1082.380265,178,right,0.89282,camel         ,8,3,5,1,3,1082.413745,1082.413745,1084.911555,0,23,23,23,1,178,3,8,redfox      ,camel         ,html/resources/sequences_IDs/B/01_redfox.jpg,html/resources/sequences_IDs/A/03_camel.jpg,1,3,1,1,1,1,1,2,0,86,,,,,,,,,,,,,,,,,,,,
,,,,,86,2020-07-04_19h58.10.966,retriever_ti,2020.1.3,Win32,60,Chrome,1920,1080,,,,,,,,,,,,,,,,,3,,,,,,,,,,,,,,,,,,,,,,,,,,,1085.53046,179,left,1.472495,phone       ,7,9,2,1,3,1085.56377,1085.56377,1088.061165,0,24,24,24,1,179,7,5,phone       ,sport_tshirt,html/resources/sequences_IDs/B/09_phone.jpg,html/resources/sequences_IDs/B/07_sport_tshirt.jpg,9,7,4,2,3,2,7,6,0,86,,,,,,,,,,,,,,,,,,,,
,,,,,86,2020-07-04_19h58.10.966,retriever_ti,2020.1.3,Win32,60,Chrome,1920,1080,,,,,,,,,,,,,,,,,3,,,,,,,,,,,,,,,,,,,,,,,,,,,1088.663055,180,right,1.44758,scarf         ,2,6,1,1,1,1088.69795,1088.69795,1091.19503,0,25,25,25,1,180,1,2,parrot      ,scarf         ,html/resources/sequences_IDs/B/05_parrot.jpg,html/resources/sequences_IDs/A/06_scarf.jpg,5,6,2,1,3,2,4,5,0,86,,,,,,,,,,,,,,,,,,,,
,,,,,86,2020-07-04_19h58.10.966,retriever_ti,2020.1.3,Win32,60,Chrome,1920,1080,,,,,,,,,,,,,,,,,3,,,,,,,,,,,,,,,,,,,,,,,,,,,1092.297365,181,right,0.999965,clownfish     ,6,4,3,1,3,1092.33064,1092.33064,1094.828425,0,26,26,26,1,181,3,6,redfox      ,clownfish     ,html/resources/sequences_IDs/B/01_redfox.jpg,html/resources/sequences_IDs/A/04_clownfish.jpg,1,4,1,1,2,1,1,3,0,86,,,,,,,,,,,,,,,,,,,,
,,,,,86,2020-07-04_19h58.10.966,retriever_ti,2020.1.3,Win32,60,Chrome,1920,1080,,,,,,,,,,,,,,,,,3,,,,,,,,,,,,,,,,,,,,,,,,,,,1095.447265,182,right,1.455525,phone       ,7,9,2,1,3,1095.464165,1095.464165,1097.961755,0,27,27,27,1,182,5,7,sport_tshirt,phone       ,html/resources/sequences_IDs/B/07_sport_tshirt.jpg,html/resources/sequences_IDs/B/09_phone.jpg,7,9,3,2,4,2,6,7,0,86,,,,,,,,,,,,,,,,,,,,
,,,,,86,2020-07-04_19h58.10.966,retriever_ti,2020.1.3,Win32,60,Chrome,1920,1080,,,,,,,,,,,,,,,,,3,,,,,,,,,,,,,,,,,,,,,,,,,,,1098.579395,183,left,1.39739,clownfish     ,6,4,4,1,3,1098.614045,1098.614045,1101.11211,0,28,28,28,1,183,6,2,clownfish     ,scarf         ,html/resources/sequences_IDs/A/04_clownfish.jpg,html/resources/sequences_IDs/A/06_scarf.jpg,4,6,2,1,3,2,3,5,0,86,,,,,,,,,,,,,,,,,,,,
,,,,,86,2020-07-04_19h58.10.966,retriever_ti,2020.1.3,Win32,60,Chrome,1920,1080,,,,,,,,,,,,,,,,,3,,,,,,,,,,,,,,,,,,,,,,,,,,,1101.730665,184,right,1.28194,phone       ,7,9,1,1,1,1101.747575,1101.747575,1104.24525,0,29,29,29,1,184,6,7,clownfish     ,phone       ,html/resources/sequences_IDs/A/04_clownfish.jpg,html/resources/sequences_IDs/B/09_phone.jpg,4,9,2,1,4,2,3,7,0,86,,,,,,,,,,,,,,,,,,,,
,,,,,86,2020-07-04_19h58.10.966,retriever_ti,2020.1.3,Win32,60,Chrome,1920,1080,,,,,,,,,,,,,,,,,3,,,,,,,,,,,,,,,,,,,,,,,,,,,1105.347185,185,right,1.489,clownfish     ,6,4,2,1,3,1105.38086,1105.38086,1107.878715,0,30,30,30,1,185,4,6,satellite_dish,clownfish     ,html/resources/sequences_IDs/A/10_satellite_dish.jpg,html/resources/sequences_IDs/A/04_clownfish.jpg,10,4,4,2,2,1,8,3,0,86,,,,,,,,,,,,,,,,,,,,
,,,,,86,2020-07-04_19h58.10.966,retriever_ti,2020.1.3,Win32,60,Chrome,1920,1080,,,,,,,,,,,,,,,,,3,,,,,,,,,,,,,,,,,,,,,,,,,,,1108.49624,186,right,1.60109,scarf         ,2,6,1,1,1,1108.531025,1108.531025,1111.0288,0,31,31,31,1,186,1,2,parrot      ,scarf         ,html/resources/sequences_IDs/B/05_parrot.jpg,html/resources/sequences_IDs/A/06_scarf.jpg,5,6,2,1,3,2,4,5,0,86,,,,,,,,,,,,,,,,,,,,
,,,,,86,2020-07-04_19h58.10.966,retriever_ti,2020.1.3,Win32,60,Chrome,1920,1080,,,,,,,,,,,,,,,,,3,,,,,,,,,,,,,,,,,,,,,,,,,,,1112.131005,187,left,1.390255,sport_tshirt,5,7,2,1,3,1112.16442,1112.16442,1114.66217,0,32,32,32,1,187,5,3,sport_tshirt,redfox      ,html/resources/sequences_IDs/B/07_sport_tshirt.jpg,html/resources/sequences_IDs/B/01_redfox.jpg,7,1,3,2,1,1,6,1,0,86,,,,,,,,,,,,,,,,,,,,
,,,,,86,2020-07-04_19h58.10.966,retriever_ti,2020.1.3,Win32,60,Chrome,1920,1080,,,,,,,,,,,,,,,,,3,,,,,,,,,,,,,,,,,,,,,,,,,,,1115.279765,188,left,0.910545,clownfish     ,6,4,3,1,3,1115.314425,1115.314425,1117.812265,0,33,33,33,1,188,6,3,clownfish     ,redfox      ,html/resources/sequences_IDs/A/04_clownfish.jpg,html/resources/sequences_IDs/B/01_redfox.jpg,4,1,2,1,1,1,3,1,0,86,,,,,,,,,,,,,,,,,,,,
,,,,,86,2020-07-04_19h58.10.966,retriever_ti,2020.1.3,Win32,60,Chrome,1920,1080,,,,,,,,,,,,,,,,,3,,,,,,,,,,,,,,,,,,,,,,,,,,,1118.431135,189,right,1.039005,scarf         ,2,6,1,1,0,1118.464525,1118.464525,1120.962405,0,34,34,34,1,189,1,2,parrot      ,scarf         ,html/resources/sequences_IDs/B/05_parrot.jpg,html/resources/sequences_IDs/A/06_scarf.jpg,5,6,2,1,3,2,4,5,1,86,,,,,,,,,,,,,,,,,,,,
,,,,,86,2020-07-04_19h58.10.966,retriever_ti,2020.1.3,Win32,60,Chrome,1920,1080,,,,,,,,,,,,,,,,,3,,,,,,,,,,,,,,,,,,,,,,,,,,,1122.0644,190,right,1.07435,clownfish     ,6,4,1,1,1,1122.08133,1122.08133,1124.579035,0,35,35,35,1,190,5,6,sport_tshirt,clownfish     ,html/resources/sequences_IDs/B/07_sport_tshirt.jpg,html/resources/sequences_IDs/A/04_clownfish.jpg,7,4,3,2,2,1,6,3,0,86,,,,,,,,,,,,,,,,,,,,
,,,,,86,2020-07-04_19h58.10.966,retriever_ti,2020.1.3,Win32,60,Chrome,1920,1080,,,,,,,,,,,,,,,,,3,,,,,,,,,,,,,,,,,,,,,,,,,,,1125.681115,191,right,0.86755,camel         ,8,3,6,1,3,1125.71465,1125.71465,1128.21254,0,36,36,36,1,191,2,8,scarf         ,camel         ,html/resources/sequences_IDs/A/06_scarf.jpg,html/resources/sequences_IDs/A/03_camel.jpg,6,3,3,2,1,1,5,2,0,86,,,,,,,,,,,,,,,,,,,,
,,,,,86,2020-07-04_19h58.10.966,retriever_ti,2020.1.3,Win32,60,Chrome,1920,1080,,,,,,,,,,,,,,,,,3,,,,,,,,,,,,,,,,,,,,,,,,,,,1128.830015,192,right,1.29401,clownfish     ,6,4,1,1,1,1128.86468,1128.86468,1131.36264,0,37,37,37,1,192,5,6,sport_tshirt,clownfish     ,html/resources/sequences_IDs/B/07_sport_tshirt.jpg,html/resources/sequences_IDs/A/04_clownfish.jpg,7,4,3,2,2,1,6,3,0,86,,,,,,,,,,,,,,,,,,,,
,,,,,86,2020-07-04_19h58.10.966,retriever_ti,2020.1.3,Win32,60,Chrome,1920,1080,,,,,,,,,,,,,,,,,3,,,,,,,,,,,,,,,,,,,,,,,,,,,1132.46458,193,left,0.613495,camel         ,8,3,4,1,3,1132.49667,1132.49667,1134.99592,0,38,38,38,1,193,8,4,camel         ,satellite_dish,html/resources/sequences_IDs/A/03_camel.jpg,html/resources/sequences_IDs/A/10_satellite_dish.jpg,3,10,1,1,4,2,2,8,0,86,,,,,,,,,,,,,,,,,,,,
,,,,,86,2020-07-04_19h58.10.966,retriever_ti,2020.1.3,Win32,60,Chrome,1920,1080,,,,,,,,,,,,,,,,,3,,,,,,,,,,,,,,,,,,,,,,,,,,,1135.614845,194,left,1.214565,sport_tshirt,5,7,3,1,3,1135.648175,1135.648175,1138.14599,0,39,39,39,1,194,5,2,sport_tshirt,scarf         ,html/resources/sequences_IDs/B/07_sport_tshirt.jpg,html/resources/sequences_IDs/A/06_scarf.jpg,7,6,3,2,3,2,6,5,0,86,,,,,,,,,,,,,,,,,,,,
,,,,,86,2020-07-04_19h58.10.966,retriever_ti,2020.1.3,Win32,60,Chrome,1920,1080,,,,,,,,,,,,,,,,,3,,,,,,,,,,,,,,,,,,,,,,,,,,,1138.763605,195,left,1.118995,clownfish     ,6,4,1,1,1,1138.781595,1138.781595,1141.279435,0,40,40,40,1,195,6,5,clownfish     ,sport_tshirt,html/resources/sequences_IDs/A/04_clownfish.jpg,html/resources/sequences_IDs/B/07_sport_tshirt.jpg,4,7,2,1,3,2,3,6,0,86,,,,,,,,,,,,,,,,,,,,
,,,,,86,2020-07-04_19h58.10.966,retriever_ti,2020.1.3,Win32,60,Chrome,1920,1080,,,,,,,,,,,,,,,,,3,,,,,,,,,,,,,,,,,,,,,,,,,,,1142.381795,196,left,1.36457,satellite_dish,4,10,1,1,1,1142.41562,1142.41562,1144.91278,0,41,41,41,1,196,4,3,satellite_dish,redfox      ,html/resources/sequences_IDs/A/10_satellite_dish.jpg,html/resources/sequences_IDs/B/01_redfox.jpg,10,1,4,2,1,1,8,1,0,86,,,,,,,,,,,,,,,,,,,,
,,,,,86,2020-07-04_19h58.10.966,retriever_ti,2020.1.3,Win32,60,Chrome,1920,1080,,,,,,,,,,,,,,,,,3,,,,,,,,,,,,,,,,,,,,,,,,,,,1146.012875,197,left,0.954965,phone       ,7,9,3,1,3,1146.03172,1146.03172,1148.529515,0,42,42,42,1,197,7,4,phone       ,satellite_dish,html/resources/sequences_IDs/B/09_phone.jpg,html/resources/sequences_IDs/A/10_satellite_dish.jpg,9,10,4,2,4,2,7,8,0,86,,,,,,,,,,,,,,,,,,,,
,,,,,86,2020-07-04_19h58.10.966,retriever_ti,2020.1.3,Win32,60,Chrome,1920,1080,,,,,,,,,,,,,,,,,3,,,,,,,,,,,,,,,,,,,,,,,,,,,1149.14705,198,left,1.042275,phone       ,7,9,1,1,1,1149.181795,1149.181795,1151.679585,0,43,43,43,1,198,7,6,phone       ,clownfish     ,html/resources/sequences_IDs/B/09_phone.jpg,html/resources/sequences_IDs/A/04_clownfish.jpg,9,4,4,2,2,1,7,3,0,86,,,,,,,,,,,,,,,,,,,,
,,,,,86,2020-07-04_19h58.10.966,retriever_ti,2020.1.3,Win32,60,Chrome,1920,1080,,,,,,,,,,,,,,,,,3,,,,,,,,,,,,,,,,,,,,,,,,,,,1152.781965,199,left,1.08915,camel         ,8,3,1,1,0,1152.799475,1152.799475,1155.296305,0,44,44,44,1,199,8,7,camel         ,phone       ,html/resources/sequences_IDs/A/03_camel.jpg,html/resources/sequences_IDs/B/09_phone.jpg,3,9,1,1,4,2,2,7,1,86,,,,,,,,,,,,,,,,,,,,
,,,,,86,2020-07-04_19h58.10.966,retriever_ti,2020.1.3,Win32,60,Chrome,1920,1080,,,,,,,,,,,,,,,,,3,,,,,,,,,,,,,,,,,,,,,,,,,,,1156.398475,200,right,0.67457,camel         ,8,3,1,1,1,1156.41533,1156.41533,1158.91308,0,45,45,45,1,200,7,8,phone       ,camel         ,html/resources/sequences_IDs/B/09_phone.jpg,html/resources/sequences_IDs/A/03_camel.jpg,9,3,4,2,1,1,7,2,0,86,,,,,,,,,,,,,,,,,,,,
,,,,,86,2020-07-04_19h58.10.966,retriever_ti,2020.1.3,Win32,60,Chrome,1920,1080,,,,,,,,,,,,,,,,,3,,,,,,,,,,,,,,,,,,,,,,,,,,,1160.01563,201,right,1.243815,phone       ,7,9,3,1,3,1160.049505,1160.049505,1162.545975,0,46,46,46,1,201,4,7,satellite_dish,phone       ,html/resources/sequences_IDs/A/10_satellite_dish.jpg,html/resources/sequences_IDs/B/09_phone.jpg,10,9,4,2,4,2,8,7,0,86,,,,,,,,,,,,,,,,,,,,
,,,,,86,2020-07-04_19h58.10.966,retriever_ti,2020.1.3,Win32,60,Chrome,1920,1080,,,,,,,,,,,,,,,,,3,,,,,,,,,,,,,,,,,,,,,,,,,,,1163.14751,202,right,1.51818,satellite_dish,4,10,1,1,0,1163.18204,1163.18204,1165.679965,0,47,47,47,1,202,3,4,redfox      ,satellite_dish,html/resources/sequences_IDs/B/01_redfox.jpg,html/resources/sequences_IDs/A/10_satellite_dish.jpg,1,10,1,1,4,2,1,8,1,86,,,,,,,,,,,,,,,,,,,,
,,,,,86,2020-07-04_19h58.10.966,retriever_ti,2020.1.3,Win32,60,Chrome,1920,1080,,,,,,,,,,,,,,,,,3,,,,,,,,,,,,,,,,,,,,,,,,,,,1166.78191,203,right,0.80566,clownfish     ,6,4,-2,0,3,1166.815685,1166.815685,1169.313255,0,48,48,48,1,203,8,6,camel         ,clownfish     ,html/resources/sequences_IDs/A/03_camel.jpg,html/resources/sequences_IDs/A/04_clownfish.jpg,3,4,1,1,2,1,2,3,0,86,,,,,,,,,,,,,,,,,,,,
,,,,,86,2020-07-04_19h58.10.966,retriever_ti,2020.1.3,Win32,60,Chrome,1920,1080,,,,,,,,,,,,,,,,,3,,,,,,,,,,,,,,,,,,,,,,,,,,,1169.93208,204,right,1.3364,clownfish     ,6,4,5,1,3,1169.948845,1169.948845,1172.446835,0,49,49,49,1,204,1,6,parrot      ,clownfish     ,html/resources/sequences_IDs/B/05_parrot.jpg,html/resources/sequences_IDs/A/04_clownfish.jpg,5,4,2,1,2,1,4,3,0,86,,,,,,,,,,,,,,,,,,,,
,,,,,86,2020-07-04_19h58.10.966,retriever_ti,2020.1.3,Win32,60,Chrome,1920,1080,,,,,,,,,,,,,,,,,3,,,,,,,,,,,,,,,,,,,,,,,,,,,1173.0642,205,left,0.985875,camel         ,8,3,5,1,3,1173.08254,1173.08254,1175.58008,0,50,50,50,1,205,8,3,camel         ,redfox      ,html/resources/sequences_IDs/A/03_camel.jpg,html/resources/sequences_IDs/B/01_redfox.jpg,3,1,1,1,1,1,2,1,0,86,,,,,,,,,,,,,,,,,,,,
,,,,,86,2020-07-04_19h58.10.966,retriever_ti,2020.1.3,Win32,60,Chrome,1920,1080,,,,,,,,,,,,,,,,,3,,,,,,,,,,,,,,,,,,,,,,,,,,,1176.197485,206,right,0.67882,clownfish     ,6,4,4,1,3,1176.21415,1176.21415,1178.71352,0,51,51,51,1,206,2,6,scarf         ,clownfish     ,html/resources/sequences_IDs/A/06_scarf.jpg,html/resources/sequences_IDs/A/04_clownfish.jpg,6,4,3,2,2,1,5,3,0,86,,,,,,,,,,,,,,,,,,,,
,,,,,86,2020-07-04_19h58.10.966,retriever_ti,2020.1.3,Win32,60,Chrome,1920,1080,,,,,,,,,,,,,,,,,3,,,,,,,,,,,,,,,,,,,,,,,,,,,1179.33104,207,left,1.059945,phone       ,7,9,4,1,3,1179.365755,1179.365755,1181.86348,0,52,52,52,1,207,7,3,phone       ,redfox      ,html/resources/sequences_IDs/B/09_phone.jpg,html/resources/sequences_IDs/B/01_redfox.jpg,9,1,4,2,1,1,7,1,0,86,,,,,,,,,,,,,,,,,,,,
,,,,,86,2020-07-04_19h58.10.966,retriever_ti,2020.1.3,Win32,60,Chrome,1920,1080,,,,,,,,,,,,,,,,,3,,,,,,,,,,,,,,,,,,,,,,,,,,,1182.48251,208,right,0.84931,phone       ,7,9,4,1,3,1182.49991,1182.49991,1184.99694,0,53,53,53,1,208,3,7,redfox      ,phone       ,html/resources/sequences_IDs/B/01_redfox.jpg,html/resources/sequences_IDs/B/09_phone.jpg,1,9,1,1,4,2,1,7,0,86,,,,,,,,,,,,,,,,,,,,
,,,,,86,2020-07-04_19h58.10.966,retriever_ti,2020.1.3,Win32,60,Chrome,1920,1080,,,,,,,,,,,,,,,,,3,,,,,,,,,,,,,,,,,,,,,,,,,,,1185.61573,209,right,0.750425,camel         ,8,3,7,1,3,1185.632585,1185.632585,1188.129875,0,54,54,54,1,209,1,8,parrot      ,camel         ,html/resources/sequences_IDs/B/05_parrot.jpg,html/resources/sequences_IDs/A/03_camel.jpg,5,3,2,1,1,1,4,2,0,86,,,,,,,,,,,,,,,,,,,,
,,,,,86,2020-07-04_19h58.10.966,retriever_ti,2020.1.3,Win32,60,Chrome,1920,1080,,,,,,,,,,,,,,,,,3,,,,,,,,,,,,,,,,,,,,,,,,,,,1188.731205,210,left,0.95637,clownfish     ,6,4,1,1,1,1188.76595,1188.76595,1191.26365,0,55,55,55,1,210,6,5,clownfish     ,sport_tshirt,html/resources/sequences_IDs/A/04_clownfish.jpg,html/resources/sequences_IDs/B/07_sport_tshirt.jpg,4,7,2,1,3,2,3,6,0,86,,,,,,,,,,,,,,,,,,,,
,,,,,86,2020-07-04_19h58.10.966,retriever_ti,2020.1.3,Win32,60,Chrome,1920,1080,,,,,,,,,,,,,,,,,3,,,,,,,,,,,,,,,,,,,,,,,,,,,1192.365885,211,left,1.01761,satellite_dish,4,10,2,1,3,1192.399415,1192.399415,1194.89713,0,56,56,56,1,211,4,2,satellite_dish,scarf         ,html/resources/sequences_IDs/A/10_satellite_dish.jpg,html/resources/sequences_IDs/A/06_scarf.jpg,10,6,4,2,3,2,8,5,0,86,,,,,,,,,,,,,,,,,,,,
,,,,,86,2020-07-04_19h58.10.966,retriever_ti,2020.1.3,Win32,60,Chrome,1920,1080,,,,,,,,,,,,,,,,,3,,,,,,,,,,,,,,,,,,,,,,,,,,,1195.51604,212,right,0.53983,camel         ,8,3,1,1,1,1195.549955,1195.549955,1198.047165,0,57,57,57,1,212,7,8,phone       ,camel         ,html/resources/sequences_IDs/B/09_phone.jpg,html/resources/sequences_IDs/A/03_camel.jpg,9,3,4,2,1,1,7,2,0,86,,,,,,,,,,,,,,,,,,,,
,,,,,86,2020-07-04_19h58.10.966,retriever_ti,2020.1.3,Win32,60,Chrome,1920,1080,,,,,,,,,,,,,,,,,3,,,,,,,,,,,,,,,,,,,,,,,,,,,1199.148055,213,right,1.312125,scarf         ,2,6,-1,0,0,1199.182885,1199.182885,1201.680575,0,58,58,58,1,213,3,2,redfox      ,scarf         ,html/resources/sequences_IDs/B/01_redfox.jpg,html/resources/sequences_IDs/A/06_scarf.jpg,1,6,1,1,3,2,1,5,0,86,,,,,,,,,,,,,,,,,,,,
,,,,,86,2020-07-04_19h58.10.966,retriever_ti,2020.1.3,Win32,60,Chrome,1920,1080,,,,,,,,,,,,,,,,,3,,,,,,,,,,,,,,,,,,,,,,,,,,,1202.782705,214,right,0.92863,satellite_dish,4,10,-1,0,1,1202.799665,1202.799665,1205.29737,0,59,59,59,1,214,5,4,sport_tshirt,satellite_dish,html/resources/sequences_IDs/B/07_sport_tshirt.jpg,html/resources/sequences_IDs/A/10_satellite_dish.jpg,7,10,3,2,4,2,6,8,1,86,,,,,,,,,,,,,,,,,,,,
,,,,,86,2020-07-04_19h58.10.966,retriever_ti,2020.1.3,Win32,60,Chrome,1920,1080,,,,,,,,,,,,,,,,,3,,,,,,,,,,,,,,,,,,,,,,,,,,,1206.399525,215,left,0.754075,camel         ,8,3,7,1,3,1206.433035,1206.433035,1208.930765,0,60,60,60,1,215,8,1,camel         ,parrot      ,html/resources/sequences_IDs/A/03_camel.jpg,html/resources/sequences_IDs/B/05_parrot.jpg,3,5,1,1,2,1,2,4,0,86,,,,,,,,,,,,,,,,,,,,
,,,,,86,2020-07-04_19h58.10.966,retriever_ti,2020.1.3,Win32,60,Chrome,1920,1080,,,,,,,,,,,,,,,,,3,,,,,,,,,,,,,,,,,,,,,,,,,,,1209.549325,216,right,1.0332,phone       ,7,9,6,1,3,1209.583085,1209.583085,1212.080525,0,61,61,61,1,216,1,7,parrot      ,phone       ,html/resources/sequences_IDs/B/05_parrot.jpg,html/resources/sequences_IDs/B/09_phone.jpg,5,9,2,1,4,2,4,7,0,86,,,,,,,,,,,,,,,,,,,,
,,,,,86,2020-07-04_19h58.10.966,retriever_ti,2020.1.3,Win32,60,Chrome,1920,1080,,,,,,,,,,,,,,,,,3,,,,,,,,,,,,,,,,,,,,,,,,,,,1212.681745,217,right,0.59733,camel         ,8,3,3,1,3,1212.71646,1212.71646,1215.214335,0,62,62,62,1,217,5,8,sport_tshirt,camel         ,html/resources/sequences_IDs/B/07_sport_tshirt.jpg,html/resources/sequences_IDs/A/03_camel.jpg,7,3,3,2,1,1,6,2,0,86,,,,,,,,,,,,,,,,,,,,
,,,,,86,2020-07-04_19h58.10.966,retriever_ti,2020.1.3,Win32,60,Chrome,1920,1080,,,,,,,,,,,,,,,,,3,,,,,,,,,,,,,,,,,,,,,,,,,,,1215.83303,218,left,0.558235,camel         ,8,3,3,1,3,1215.853365,1215.853365,1218.34766,0,63,63,63,1,218,8,5,camel         ,sport_tshirt,html/resources/sequences_IDs/A/03_camel.jpg,html/resources/sequences_IDs/B/07_sport_tshirt.jpg,3,7,1,1,3,2,2,6,0,86,,,,,,,,,,,,,,,,,,,,
,,,,,86,2020-07-04_19h58.10.966,retriever_ti,2020.1.3,Win32,60,Chrome,1920,1080,,,,,,,,,,,,,,,,,3,,,,,,,,,,,,,,,,,,,,,,,,,,,1218.965145,219,right,0.698015,phone       ,7,9,5,1,3,1218.983515,1218.983515,1221.480985,0,64,64,64,1,219,2,7,scarf         ,phone       ,html/resources/sequences_IDs/A/06_scarf.jpg,html/resources/sequences_IDs/B/09_phone.jpg,6,9,3,2,4,2,5,7,0,86,,,,,,,,,,,,,,,,,,,,
,,,,,86,2020-07-04_19h58.10.966,retriever_ti,2020.1.3,Win32,60,Chrome,1920,1080,,,,,,,,,,,,,,,,,3,,,,,,,,,,,,,,,,,,,,,,,,,,,1222.099765,220,left,1.770165,scarf         ,2,6,1,1,1,1222.116635,1222.116635,1224.614525,0,65,65,65,1,220,2,1,scarf         ,parrot      ,html/resources/sequences_IDs/A/06_scarf.jpg,html/resources/sequences_IDs/B/05_parrot.jpg,6,5,3,2,2,1,5,4,0,86,,,,,,,,,,,,,,,,,,,,
