instructionsLoop.thisRepN,instructionsLoop.thisTrialN,instructionsLoop.thisN,instructionsLoop.thisIndex,instructionsLoop.ran,participant,date,expName,psychopyVersion,OS,frameRate,browser,xResolution,yResolution,fix_onset,tprac,practiceKey.keys,practiceKey.rt,pracitem_chosen_name,acc_practice,P1_onsetPrac,P2_onsetPrac,onsetFeedbPrac,practiceTrials.thisRepN,practiceTrials.thisTrialN,practiceTrials.thisN,practiceTrials.thisIndex,practiceTrials.ran,P1,P2,Block,LocItem1,LocItem2,NameItem1,NameItem2,key_respAC_prac.keys,key_respAC_prac.corr,key_respAC_prac.rt,AC_acc,Attentions.thisRepN,Attentions.thisTrialN,Attentions.thisN,Attentions.thisIndex,Attentions.ran,Stim,Loc1,Loc2,Loc3,Loc4,CorrAns,keyDisturbed.keys,keyDisturbed.rt,repPractice.thisRepN,repPractice.thisTrialN,repPractice.thisN,repPractice.thisIndex,repPractice.ran,fixcross_onsetMain,trialNumber,key_resp.keys,key_resp.rt,item_chosen_name,item_chosen_value,item_chosen_ID,diff_chosen_minus_reject,acc_real,acc_feedback,P1_onset,P2_onset,feedb_onset,trials.thisRepN,trials.thisTrialN,trials.thisN,trials.thisIndex,trials.ran,Trial,ValueP1,ValueP2,P1name,P2name,P1Loc,P2Loc,P1id,P2id,Micro_categoryP1,Macro_categoryP1,Micro_categoryP2,Macro_categoryP2,ID_sequenceP1,ID_sequenceP2,InverseFb,pNumber,repBlocks.thisRepN,repBlocks.thisTrialN,repBlocks.thisN,repBlocks.thisIndex,repBlocks.ran,key_respAC.keys,key_respAC.corr,key_respAC.rt,trials_AC.thisRepN,trials_AC.thisTrialN,trials_AC.thisN,trials_AC.thisIndex,trials_AC.ran,Bonus,BonusLoop.thisRepN,BonusLoop.thisTrialN,BonusLoop.thisN,BonusLoop.thisIndex,BonusLoop.ran,comments
0,0,0,0,1,90,2020-07-04_11h08.23.724,retriever_ti,2020.1.3,MacIntel,60,Chrome,1280,800,,,,,,,,,,,,,,,,,,,,,,,,,,,,,,,,,,,,,,,,,,,,,,,,,,,,,,,,,,,,,,,,,,,,,,,,,,,,,,,,,,,,,,,,,,,,,,,,,,
1,0,1,0,1,90,2020-07-04_11h08.23.724,retriever_ti,2020.1.3,MacIntel,60,Chrome,1280,800,,,,,,,,,,,,,,,,,,,,,,,,,,,,,,,,,,,,,,,,,,,,,,,,,,,,,,,,,,,,,,,,,,,,,,,,,,,,,,,,,,,,,,,,,,,,,,,,,,
2,0,2,0,1,90,2020-07-04_11h08.23.724,retriever_ti,2020.1.3,MacIntel,60,Chrome,1280,800,,,,,,,,,,,,,,,,,,,,,,,,,,,,,,,,,,,,,,,,,,,,,,,,,,,,,,,,,,,,,,,,,,,,,,,,,,,,,,,,,,,,,,,,,,,,,,,,,,
3,0,3,0,1,90,2020-07-04_11h08.23.724,retriever_ti,2020.1.3,MacIntel,60,Chrome,1280,800,,,,,,,,,,,,,,,,,,,,,,,,,,,,,,,,,,,,,,,,,,,,,,,,,,,,,,,,,,,,,,,,,,,,,,,,,,,,,,,,,,,,,,,,,,,,,,,,,,
4,0,4,0,1,90,2020-07-04_11h08.23.724,retriever_ti,2020.1.3,MacIntel,60,Chrome,1280,800,,,,,,,,,,,,,,,,,,,,,,,,,,,,,,,,,,,,,,,,,,,,,,,,,,,,,,,,,,,,,,,,,,,,,,,,,,,,,,,,,,,,,,,,,,,,,,,,,,
5,0,5,0,1,90,2020-07-04_11h08.23.724,retriever_ti,2020.1.3,MacIntel,60,Chrome,1280,800,,,,,,,,,,,,,,,,,,,,,,,,,,,,,,,,,,,,,,,,,,,,,,,,,,,,,,,,,,,,,,,,,,,,,,,,,,,,,,,,,,,,,,,,,,,,,,,,,,
6,0,6,0,1,90,2020-07-04_11h08.23.724,retriever_ti,2020.1.3,MacIntel,60,Chrome,1280,800,,,,,,,,,,,,,,,,,,,,,,,,,,,,,,,,,,,,,,,,,,,,,,,,,,,,,,,,,,,,,,,,,,,,,,,,,,,,,,,,,,,,,,,,,,,,,,,,,,
7,0,7,0,1,90,2020-07-04_11h08.23.724,retriever_ti,2020.1.3,MacIntel,60,Chrome,1280,800,,,,,,,,,,,,,,,,,,,,,,,,,,,,,,,,,,,,,,,,,,,,,,,,,,,,,,,,,,,,,,,,,,,,,,,,,,,,,,,,,,,,,,,,,,,,,,,,,,
8,0,8,0,1,90,2020-07-04_11h08.23.724,retriever_ti,2020.1.3,MacIntel,60,Chrome,1280,800,,,,,,,,,,,,,,,,,,,,,,,,,,,,,,,,,,,,,,,,,,,,,,,,,,,,,,,,,,,,,,,,,,,,,,,,,,,,,,,,,,,,,,,,,,,,,,,,,,
9,0,9,0,1,90,2020-07-04_11h08.23.724,retriever_ti,2020.1.3,MacIntel,60,Chrome,1280,800,,,,,,,,,,,,,,,,,,,,,,,,,,,,,,,,,,,,,,,,,,,,,,,,,,,,,,,,,,,,,,,,,,,,,,,,,,,,,,,,,,,,,,,,,,,,,,,,,,
10,0,10,0,1,90,2020-07-04_11h08.23.724,retriever_ti,2020.1.3,MacIntel,60,Chrome,1280,800,,,,,,,,,,,,,,,,,,,,,,,,,,,,,,,,,,,,,,,,,,,,,,,,,,,,,,,,,,,,,,,,,,,,,,,,,,,,,,,,,,,,,,,,,,,,,,,,,,
11,0,11,0,1,90,2020-07-04_11h08.23.724,retriever_ti,2020.1.3,MacIntel,60,Chrome,1280,800,,,,,,,,,,,,,,,,,,,,,,,,,,,,,,,,,,,,,,,,,,,,,,,,,,,,,,,,,,,,,,,,,,,,,,,,,,,,,,,,,,,,,,,,,,,,,,,,,,
12,0,12,0,1,90,2020-07-04_11h08.23.724,retriever_ti,2020.1.3,MacIntel,60,Chrome,1280,800,,,,,,,,,,,,,,,,,,,,,,,,,,,,,,,,,,,,,,,,,,,,,,,,,,,,,,,,,,,,,,,,,,,,,,,,,,,,,,,,,,,,,,,,,,,,,,,,,,
13,0,13,0,1,90,2020-07-04_11h08.23.724,retriever_ti,2020.1.3,MacIntel,60,Chrome,1280,800,,,,,,,,,,,,,,,,,,,,,,,,,,,,,,,,,,,,,,,,,,,,,,,,,,,,,,,,,,,,,,,,,,,,,,,,,,,,,,,,,,,,,,,,,,,,,,,,,,
14,0,14,0,1,90,2020-07-04_11h08.23.724,retriever_ti,2020.1.3,MacIntel,60,Chrome,1280,800,,,,,,,,,,,,,,,,,,,,,,,,,,,,,,,,,,,,,,,,,,,,,,,,,,,,,,,,,,,,,,,,,,,,,,,,,,,,,,,,,,,,,,,,,,,,,,,,,,
15,0,15,0,1,90,2020-07-04_11h08.23.724,retriever_ti,2020.1.3,MacIntel,60,Chrome,1280,800,,,,,,,,,,,,,,,,,,,,,,,,,,,,,,,,,,,,,,,,,,,,,,,,,,,,,,,,,,,,,,,,,,,,,,,,,,,,,,,,,,,,,,,,,,,,,,,,,,
16,0,16,0,1,90,2020-07-04_11h08.23.724,retriever_ti,2020.1.3,MacIntel,60,Chrome,1280,800,,,,,,,,,,,,,,,,,,,,,,,,,,,,,,,,,,,,,,,,,,,,,,,,,,,,,,,,,,,,,,,,,,,,,,,,,,,,,,,,,,,,,,,,,,,,,,,,,,
17,0,17,0,1,90,2020-07-04_11h08.23.724,retriever_ti,2020.1.3,MacIntel,60,Chrome,1280,800,,,,,,,,,,,,,,,,,,,,,,,,,,,,,,,,,,,,,,,,,,,,,,,,,,,,,,,,,,,,,,,,,,,,,,,,,,,,,,,,,,,,,,,,,,,,,,,,,,
18,0,18,0,1,90,2020-07-04_11h08.23.724,retriever_ti,2020.1.3,MacIntel,60,Chrome,1280,800,,,,,,,,,,,,,,,,,,,,,,,,,,,,,,,,,,,,,,,,,,,,,,,,,,,,,,,,,,,,,,,,,,,,,,,,,,,,,,,,,,,,,,,,,,,,,,,,,,
,,,,,90,2020-07-04_11h08.23.724,retriever_ti,2020.1.3,MacIntel,60,Chrome,1280,800,147.40217,1,left,0.73829,beetle,0,147.461425,147.461425,149.955375,0,0,0,0,1,2,5,1,html/resources/stimuli_practice_decision/04_beetle.jpg,html/resources/stimuli_practice_decision/02_canary.jpg,beetle,canary,,,,,,,,,,,,,,,,,,,,,,,,,,,,,,,,,,,,,,,,,,,,,,,,,,,,,,,,,,,,,,,,,,,,,,,,,,,,,
,,,,,90,2020-07-04_11h08.23.724,retriever_ti,2020.1.3,MacIntel,60,Chrome,1280,800,150.48335,2,left,0.71264,rabbit,1,150.5074,150.5074,153.00581,0,1,1,1,1,4,3,1,html/resources/stimuli_practice_decision/01_rabbit.jpg,html/resources/stimuli_practice_decision/07_sock.jpg,rabbit,sock,,,,,,,,,,,,,,,,,,,,,,,,,,,,,,,,,,,,,,,,,,,,,,,,,,,,,,,,,,,,,,,,,,,,,,,,,,,,,
,,,,,90,2020-07-04_11h08.23.724,retriever_ti,2020.1.3,MacIntel,60,Chrome,1280,800,154.00671,3,right,0.541745,beetle,0,154.025395,154.025395,156.52322,0,2,2,2,1,6,2,1,html/resources/stimuli_practice_decision/06_pullover.jpg,html/resources/stimuli_practice_decision/04_beetle.jpg,pullover,beetle,,,,,,,,,,,,,,,,,,,,,,,,,,,,,,,,,,,,,,,,,,,,,,,,,,,,,,,,,,,,,,,,,,,,,,,,,,,,,
,,,,,90,2020-07-04_11h08.23.724,retriever_ti,2020.1.3,MacIntel,60,Chrome,1280,800,157.02633,4,left,0.516965,glasses,1,157.06055,157.06055,159.55926,0,3,3,3,1,7,1,1,html/resources/stimuli_practice_decision/05_glasses.jpg,html/resources/stimuli_practice_decision/08_handmixer.jpg,glasses,handmixer,,,,,,,,,,,,,,,,,,,,,,,,,,,,,,,,,,,,,,,,,,,,,,,,,,,,,,,,,,,,,,,,,,,,,,,,,,,,,
,,,,,90,2020-07-04_11h08.23.724,retriever_ti,2020.1.3,MacIntel,60,Chrome,1280,800,160.060255,5,left,0.914485,glasses,1,160.09472,160.09472,162.5938,0,4,4,4,1,7,6,1,html/resources/stimuli_practice_decision/05_glasses.jpg,html/resources/stimuli_practice_decision/06_pullover.jpg,glasses,pullover,,,,,,,,,,,,,,,,,,,,,,,,,,,,,,,,,,,,,,,,,,,,,,,,,,,,,,,,,,,,,,,,,,,,,,,,,,,,,
,,,,,90,2020-07-04_11h08.23.724,retriever_ti,2020.1.3,MacIntel,60,Chrome,1280,800,163.595255,6,right,0.63725,glasses,1,163.63032,163.63032,166.128195,0,5,5,5,1,4,7,1,html/resources/stimuli_practice_decision/01_rabbit.jpg,html/resources/stimuli_practice_decision/05_glasses.jpg,rabbit,glasses,,,,,,,,,,,,,,,,,,,,,,,,,,,,,,,,,,,,,,,,,,,,,,,,,,,,,,,,,,,,,,,,,,,,,,,,,,,,,
,,,,,90,2020-07-04_11h08.23.724,retriever_ti,2020.1.3,MacIntel,60,Chrome,1280,800,166.6294,7,left,0.79259,handmixer,0,166.66258,166.66258,169.163485,0,6,6,6,1,1,2,1,html/resources/stimuli_practice_decision/08_handmixer.jpg,html/resources/stimuli_practice_decision/04_beetle.jpg,handmixer,beetle,,,,,,,,,,,,,,,,,,,,,,,,,,,,,,,,,,,,,,,,,,,,,,,,,,,,,,,,,,,,,,,,,,,,,,,,,,,,,
,,,,,90,2020-07-04_11h08.23.724,retriever_ti,2020.1.3,MacIntel,60,Chrome,1280,800,170.16507,8,left,0.606795,rabbit,1,170.182105,170.182105,172.68184,0,7,7,7,1,4,3,1,html/resources/stimuli_practice_decision/01_rabbit.jpg,html/resources/stimuli_practice_decision/07_sock.jpg,rabbit,sock,,,,,,,,,,,,,,,,,,,,,,,,,,,,,,,,,,,,,,,,,,,,,,,,,,,,,,,,,,,,,,,,,,,,,,,,,,,,,
,,,,,90,2020-07-04_11h08.23.724,retriever_ti,2020.1.3,MacIntel,60,Chrome,1280,800,,,,,,,,,,,,,,,,,,,,,,up,1,1.536855,1,0,0,0,0,1,html/resources/sequences_IDs/circle.png,circle ↑,square →,triangle ↓,← star ,up,,,,,,,,,,,,,,,,,,,,,,,,,,,,,,,,,,,,,,,,,,,,,,,,,,,,,,,,,,,,,,
,,,,,90,2020-07-04_11h08.23.724,retriever_ti,2020.1.3,MacIntel,60,Chrome,1280,800,,,,,,,,,,,,,,,,,,,,,,down,1,1.45674,1,0,1,1,1,1,html/resources/sequences_IDs/star.png,square ↑,circle →,star ↓,← triangle,down,,,,,,,,,,,,,,,,,,,,,,,,,,,,,,,,,,,,,,,,,,,,,,,,,,,,,,,,,,,,,,
,,,,,90,2020-07-04_11h08.23.724,retriever_ti,2020.1.3,MacIntel,60,Chrome,1280,800,,,,,,,,,,,,,,,,,,,,,,left,1,1.234365,1,0,2,2,2,1,html/resources/sequences_IDs/square1.png,star ↑,triangle →,circle ↓,← square,left,,,,,,,,,,,,,,,,,,,,,,,,,,,,,,,,,,,,,,,,,,,,,,,,,,,,,,,,,,,,,,
,,,,,90,2020-07-04_11h08.23.724,retriever_ti,2020.1.3,MacIntel,60,Chrome,1280,800,,,,,,,,,,,,,,,,,,,,,,down,1,1.611585,1,0,3,3,3,1,html/resources/sequences_IDs/triangle.png,star ↑,square →,triangle ↓,← circle,down,,,,,,,,,,,,,,,,,,,,,,,,,,,,,,,,,,,,,,,,,,,,,,,,,,,,,,,,,,,,,,
,,,,,90,2020-07-04_11h08.23.724,retriever_ti,2020.1.3,MacIntel,60,Chrome,1280,800,,,,,,,,,,,,,,,,,,,,,,,,,,,,,,,,,,,,,0,11.162585,0,0,0,0,1,,,,,,,,,,,,,,,,,,,,,,,,,,,,,,,,,,,,,,,,,,,,,,,,,,,,,,,
,,,,,90,2020-07-04_11h08.23.724,retriever_ti,2020.1.3,MacIntel,60,Chrome,1280,800,195.839785,9,left,0.78746,pullover,0,195.86791,195.86791,198.35954,0,0,0,0,1,6,7,1,html/resources/stimuli_practice_decision/06_pullover.jpg,html/resources/stimuli_practice_decision/05_glasses.jpg,pullover,glasses,,,,,,,,,,,,,,,,,,,,,,,,,,,,,,,,,,,,,,,,,,,,,,,,,,,,,,,,,,,,,,,,,,,,,,,,,,,,,
,,,,,90,2020-07-04_11h08.23.724,retriever_ti,2020.1.3,MacIntel,60,Chrome,1280,800,199.36273,10,right,0.95031,beetle,0,199.39841,199.39841,201.89496,0,1,1,1,1,6,2,1,html/resources/stimuli_practice_decision/06_pullover.jpg,html/resources/stimuli_practice_decision/04_beetle.jpg,pullover,beetle,,,,,,,,,,,,,,,,,,,,,,,,,,,,,,,,,,,,,,,,,,,,,,,,,,,,,,,,,,,,,,,,,,,,,,,,,,,,,
,,,,,90,2020-07-04_11h08.23.724,retriever_ti,2020.1.3,MacIntel,60,Chrome,1280,800,202.39645,11,left,0.74764,canary,0,202.414595,202.414595,204.912715,0,2,2,2,1,5,6,1,html/resources/stimuli_practice_decision/02_canary.jpg,html/resources/stimuli_practice_decision/06_pullover.jpg,canary,pullover,,,,,,,,,,,,,,,,,,,,,,,,,,,,,,,,,,,,,,,,,,,,,,,,,,,,,,,,,,,,,,,,,,,,,,,,,,,,,
,,,,,90,2020-07-04_11h08.23.724,retriever_ti,2020.1.3,MacIntel,60,Chrome,1280,800,205.915525,12,right,0.884665,glasses,0,205.95016,205.95016,208.448555,0,3,3,3,1,8,7,1,html/resources/stimuli_practice_decision/03_squirrel.jpg,html/resources/stimuli_practice_decision/05_glasses.jpg,squirrel,glasses,,,,,,,,,,,,,,,,,,,,,,,,,,,,,,,,,,,,,,,,,,,,,,,,,,,,,,,,,,,,,,,,,,,,,,,,,,,,,
,,,,,90,2020-07-04_11h08.23.724,retriever_ti,2020.1.3,MacIntel,60,Chrome,1280,800,209.449665,13,left,1.050135,canary,1,209.48687,209.48687,211.98398,0,4,4,4,1,5,3,1,html/resources/stimuli_practice_decision/02_canary.jpg,html/resources/stimuli_practice_decision/07_sock.jpg,canary,sock,,,,,,,,,,,,,,,,,,,,,,,,,,,,,,,,,,,,,,,,,,,,,,,,,,,,,,,,,,,,,,,,,,,,,,,,,,,,,
,,,,,90,2020-07-04_11h08.23.724,retriever_ti,2020.1.3,MacIntel,60,Chrome,1280,800,212.50086,14,left,0.938165,glasses,0,212.519275,212.519275,215.01822,0,5,5,5,1,7,8,1,html/resources/stimuli_practice_decision/05_glasses.jpg,html/resources/stimuli_practice_decision/03_squirrel.jpg,glasses,squirrel,,,,,,,,,,,,,,,,,,,,,,,,,,,,,,,,,,,,,,,,,,,,,,,,,,,,,,,,,,,,,,,,,,,,,,,,,,,,,
,,,,,90,2020-07-04_11h08.23.724,retriever_ti,2020.1.3,MacIntel,60,Chrome,1280,800,216.020305,15,right,0.765755,rabbit,0,216.052785,216.052785,218.55318,0,6,6,6,1,5,4,1,html/resources/stimuli_practice_decision/02_canary.jpg,html/resources/stimuli_practice_decision/01_rabbit.jpg,canary,rabbit,,,,,,,,,,,,,,,,,,,,,,,,,,,,,,,,,,,,,,,,,,,,,,,,,,,,,,,,,,,,,,,,,,,,,,,,,,,,,
,,,,,90,2020-07-04_11h08.23.724,retriever_ti,2020.1.3,MacIntel,60,Chrome,1280,800,219.5545,16,left,0.6388,canary,1,219.572845,219.572845,222.071735,0,7,7,7,1,5,3,1,html/resources/stimuli_practice_decision/02_canary.jpg,html/resources/stimuli_practice_decision/07_sock.jpg,canary,sock,,,,,,,,,,,,,,,,,,,,,,,,,,,,,,,,,,,,,,,,,,,,,,,,,,,,,,,,,,,,,,,,,,,,,,,,,,,,,
,,,,,90,2020-07-04_11h08.23.724,retriever_ti,2020.1.3,MacIntel,60,Chrome,1280,800,,,,,,,,,,,,,,,,,,,,,,down,1,1.75266,1,0,0,0,1,1,html/resources/sequences_IDs/star.png,square ↑,circle →,star ↓,← triangle,down,,,,,,,,,,,,,,,,,,,,,,,,,,,,,,,,,,,,,,,,,,,,,,,,,,,,,,,,,,,,,,
,,,,,90,2020-07-04_11h08.23.724,retriever_ti,2020.1.3,MacIntel,60,Chrome,1280,800,,,,,,,,,,,,,,,,,,,,,,up,1,1.384905,1,0,1,1,0,1,html/resources/sequences_IDs/circle.png,circle ↑,square →,triangle ↓,← star ,up,,,,,,,,,,,,,,,,,,,,,,,,,,,,,,,,,,,,,,,,,,,,,,,,,,,,,,,,,,,,,,
,,,,,90,2020-07-04_11h08.23.724,retriever_ti,2020.1.3,MacIntel,60,Chrome,1280,800,,,,,,,,,,,,,,,,,,,,,,left,1,1.38818,1,0,2,2,2,1,html/resources/sequences_IDs/square1.png,star ↑,triangle →,circle ↓,← square,left,,,,,,,,,,,,,,,,,,,,,,,,,,,,,,,,,,,,,,,,,,,,,,,,,,,,,,,,,,,,,,
,,,,,90,2020-07-04_11h08.23.724,retriever_ti,2020.1.3,MacIntel,60,Chrome,1280,800,,,,,,,,,,,,,,,,,,,,,,down,1,1.31279,1,0,3,3,3,1,html/resources/sequences_IDs/triangle.png,star ↑,square →,triangle ↓,← circle,down,,,,,,,,,,,,,,,,,,,,,,,,,,,,,,,,,,,,,,,,,,,,,,,,,,,,,,,,,,,,,,
,,,,,90,2020-07-04_11h08.23.724,retriever_ti,2020.1.3,MacIntel,60,Chrome,1280,800,,,,,,,,,,,,,,,,,,,,,,,,,,,,,,,,,,,,,0,3.997235,1,0,1,0,1,,,,,,,,,,,,,,,,,,,,,,,,,,,,,,,,,,,,,,,,,,,,,,,,,,,,,,,
,,,,,90,2020-07-04_11h08.23.724,retriever_ti,2020.1.3,MacIntel,60,Chrome,1280,800,,,,,,,,,,,,,,,,,1,,,,,,,,,,,,,,,,,,,,,,,,,,,240.187345,1,left,0.43819,gloves      ,3,6,-1,0,0,240.237075,240.237075,242.73348,0,0,0,0,1,1,3,4,gloves      ,dress         ,html/resources/sequences_IDs/B/06_gloves.jpg,html/resources/sequences_IDs/A/07_dress.jpg,6,7,3,2,3,2,5,6,0,90,,,,,,,,,,,,,,,,,,,,
,,,,,90,2020-07-04_11h08.23.724,retriever_ti,2020.1.3,MacIntel,60,Chrome,1280,800,,,,,,,,,,,,,,,,,1,,,,,,,,,,,,,,,,,,,,,,,,,,,243.83271,2,right,0.72863,holdfast    ,5,4,-2,0,3,243.867405,243.867405,246.36579,0,1,1,1,1,2,7,5,slipper     ,holdfast    ,html/resources/sequences_IDs/B/08_slipper.jpg,html/resources/sequences_IDs/B/04_holdfast.jpg,8,4,3,2,2,1,7,3,0,90,,,,,,,,,,,,,,,,,,,,
,,,,,90,2020-07-04_11h08.23.724,retriever_ti,2020.1.3,MacIntel,60,Chrome,1280,800,,,,,,,,,,,,,,,,,1,,,,,,,,,,,,,,,,,,,,,,,,,,,246.967955,3,right,0.543805,redfox      ,1,1,-7,0,3,246.985525,246.985525,249.48502,0,2,2,2,1,3,8,1,peacock       ,redfox      ,html/resources/sequences_IDs/A/05_peacock.jpg,html/resources/sequences_IDs/B/01_redfox.jpg,5,1,2,1,1,1,4,1,0,90,,,,,,,,,,,,,,,,,,,,
,,,,,90,2020-07-04_11h08.23.724,retriever_ti,2020.1.3,MacIntel,60,Chrome,1280,800,,,,,,,,,,,,,,,,,1,,,,,,,,,,,,,,,,,,,,,,,,,,,250.10338,4,left,0.65381,calculator    ,6,9,-1,0,0,250.136845,250.136845,252.63648,0,3,3,3,1,4,6,7,calculator    ,slipper     ,html/resources/sequences_IDs/A/09_calculator.jpg,html/resources/sequences_IDs/B/08_slipper.jpg,9,8,4,2,3,2,8,7,0,90,,,,,,,,,,,,,,,,,,,,
,,,,,90,2020-07-04_11h08.23.724,retriever_ti,2020.1.3,MacIntel,60,Chrome,1280,800,,,,,,,,,,,,,,,,,1,,,,,,,,,,,,,,,,,,,,,,,,,,,253.73865,5,right,0.571695,dress         ,4,7,-1,0,0,253.755435,253.755435,256.2544,0,4,4,4,1,5,5,4,holdfast    ,dress         ,html/resources/sequences_IDs/B/04_holdfast.jpg,html/resources/sequences_IDs/A/07_dress.jpg,4,7,2,1,3,2,3,6,0,90,,,,,,,,,,,,,,,,,,,,
,,,,,90,2020-07-04_11h08.23.724,retriever_ti,2020.1.3,MacIntel,60,Chrome,1280,800,,,,,,,,,,,,,,,,,1,,,,,,,,,,,,,,,,,,,,,,,,,,,257.35548,6,left,0.794315,seaturtle     ,2,2,-6,0,3,257.373465,257.373465,259.87293,0,5,5,5,1,6,2,8,seaturtle     ,peacock       ,html/resources/sequences_IDs/A/02_seaturtle.jpg,html/resources/sequences_IDs/A/05_peacock.jpg,2,5,2,1,2,1,2,4,0,90,,,,,,,,,,,,,,,,,,,,
,,,,,90,2020-07-04_11h08.23.724,retriever_ti,2020.1.3,MacIntel,60,Chrome,1280,800,,,,,,,,,,,,,,,,,1,,,,,,,,,,,,,,,,,,,,,,,,,,,260.49044,7,right,0.675915,slipper     ,7,8,5,1,3,260.50764,260.50764,263.007735,0,6,6,6,1,7,2,7,seaturtle     ,slipper     ,html/resources/sequences_IDs/A/02_seaturtle.jpg,html/resources/sequences_IDs/B/08_slipper.jpg,2,8,2,1,3,2,2,7,0,90,,,,,,,,,,,,,,,,,,,,
,,,,,90,2020-07-04_11h08.23.724,retriever_ti,2020.1.3,MacIntel,60,Chrome,1280,800,,,,,,,,,,,,,,,,,1,,,,,,,,,,,,,,,,,,,,,,,,,,,263.626385,8,left,0.813635,holdfast    ,5,4,-1,0,0,263.661195,263.661195,266.15982,0,7,7,7,1,8,5,6,holdfast    ,calculator    ,html/resources/sequences_IDs/B/04_holdfast.jpg,html/resources/sequences_IDs/A/09_calculator.jpg,4,9,2,1,4,2,3,8,0,90,,,,,,,,,,,,,,,,,,,,
,,,,,90,2020-07-04_11h08.23.724,retriever_ti,2020.1.3,MacIntel,60,Chrome,1280,800,,,,,,,,,,,,,,,,,1,,,,,,,,,,,,,,,,,,,,,,,,,,,267.26136,9,right,0.709335,dress         ,4,7,1,1,1,267.29623,267.29623,269.79404,0,8,8,8,1,9,3,4,gloves      ,dress         ,html/resources/sequences_IDs/B/06_gloves.jpg,html/resources/sequences_IDs/A/07_dress.jpg,6,7,3,2,3,2,5,6,0,90,,,,,,,,,,,,,,,,,,,,
,,,,,90,2020-07-04_11h08.23.724,retriever_ti,2020.1.3,MacIntel,60,Chrome,1280,800,,,,,,,,,,,,,,,,,1,,,,,,,,,,,,,,,,,,,,,,,,,,,270.89452,10,right,0.86686,gloves      ,3,6,1,1,1,270.913065,270.913065,273.41166,0,9,9,9,1,10,2,3,seaturtle     ,gloves      ,html/resources/sequences_IDs/A/02_seaturtle.jpg,html/resources/sequences_IDs/B/06_gloves.jpg,2,6,2,1,3,2,2,5,0,90,,,,,,,,,,,,,,,,,,,,
,,,,,90,2020-07-04_11h08.23.724,retriever_ti,2020.1.3,MacIntel,60,Chrome,1280,800,,,,,,,,,,,,,,,,,1,,,,,,,,,,,,,,,,,,,,,,,,,,,274.51512,11,left,0.76219,peacock       ,8,5,6,1,3,274.53159,274.53159,277.03021,0,10,10,10,1,11,8,2,peacock       ,seaturtle     ,html/resources/sequences_IDs/A/05_peacock.jpg,html/resources/sequences_IDs/A/02_seaturtle.jpg,5,2,2,1,2,1,4,2,0,90,,,,,,,,,,,,,,,,,,,,
,,,,,90,2020-07-04_11h08.23.724,retriever_ti,2020.1.3,MacIntel,60,Chrome,1280,800,,,,,,,,,,,,,,,,,1,,,,,,,,,,,,,,,,,,,,,,,,,,,277.63334,12,left,0.96754,redfox      ,1,1,-6,0,3,277.65008,277.65008,280.1488,0,11,11,11,1,12,1,7,redfox      ,slipper     ,html/resources/sequences_IDs/B/01_redfox.jpg,html/resources/sequences_IDs/B/08_slipper.jpg,1,8,1,1,3,2,1,7,0,90,,,,,,,,,,,,,,,,,,,,
,,,,,90,2020-07-04_11h08.23.724,retriever_ti,2020.1.3,MacIntel,60,Chrome,1280,800,,,,,,,,,,,,,,,,,1,,,,,,,,,,,,,,,,,,,,,,,,,,,280.75067,13,right,0.715955,dress         ,4,7,3,1,3,280.78686,280.78686,283.28396,0,12,12,12,1,13,1,4,redfox      ,dress         ,html/resources/sequences_IDs/B/01_redfox.jpg,html/resources/sequences_IDs/A/07_dress.jpg,1,7,1,1,3,2,1,6,0,90,,,,,,,,,,,,,,,,,,,,
,,,,,90,2020-07-04_11h08.23.724,retriever_ti,2020.1.3,MacIntel,60,Chrome,1280,800,,,,,,,,,,,,,,,,,1,,,,,,,,,,,,,,,,,,,,,,,,,,,283.8859,14,left,0.88584,gloves      ,3,6,1,1,1,283.919485,283.919485,286.418545,0,13,13,13,1,14,3,2,gloves      ,seaturtle     ,html/resources/sequences_IDs/B/06_gloves.jpg,html/resources/sequences_IDs/A/02_seaturtle.jpg,6,2,3,2,2,1,5,2,0,90,,,,,,,,,,,,,,,,,,,,
,,,,,90,2020-07-04_11h08.23.724,retriever_ti,2020.1.3,MacIntel,60,Chrome,1280,800,,,,,,,,,,,,,,,,,1,,,,,,,,,,,,,,,,,,,,,,,,,,,287.520355,15,left,0.982155,dress         ,4,7,2,1,3,287.555705,287.555705,290.05352,0,14,14,14,1,15,4,2,dress         ,seaturtle     ,html/resources/sequences_IDs/A/07_dress.jpg,html/resources/sequences_IDs/A/02_seaturtle.jpg,7,2,3,2,2,1,6,2,0,90,,,,,,,,,,,,,,,,,,,,
,,,,,90,2020-07-04_11h08.23.724,retriever_ti,2020.1.3,MacIntel,60,Chrome,1280,800,,,,,,,,,,,,,,,,,1,,,,,,,,,,,,,,,,,,,,,,,,,,,290.655075,16,right,0.725525,dress         ,4,7,-4,0,3,290.672495,290.672495,293.171725,0,15,15,15,1,16,8,4,peacock       ,dress         ,html/resources/sequences_IDs/A/05_peacock.jpg,html/resources/sequences_IDs/A/07_dress.jpg,5,7,2,1,3,2,4,6,0,90,,,,,,,,,,,,,,,,,,,,
,,,,,90,2020-07-04_11h08.23.724,retriever_ti,2020.1.3,MacIntel,60,Chrome,1280,800,,,,,,,,,,,,,,,,,1,,,,,,,,,,,,,,,,,,,,,,,,,,,293.7742,17,right,0.833075,slipper     ,7,8,-1,0,0,293.791195,293.791195,296.29013,0,16,16,16,1,17,8,7,peacock       ,slipper     ,html/resources/sequences_IDs/A/05_peacock.jpg,html/resources/sequences_IDs/B/08_slipper.jpg,5,8,2,1,3,2,4,7,0,90,,,,,,,,,,,,,,,,,,,,
,,,,,90,2020-07-04_11h08.23.724,retriever_ti,2020.1.3,MacIntel,60,Chrome,1280,800,,,,,,,,,,,,,,,,,1,,,,,,,,,,,,,,,,,,,,,,,,,,,297.39088,18,left,0.58968,peacock       ,8,5,2,1,3,297.424875,297.424875,299.924905,0,17,17,17,1,18,8,6,peacock       ,calculator    ,html/resources/sequences_IDs/A/05_peacock.jpg,html/resources/sequences_IDs/A/09_calculator.jpg,5,9,2,1,4,2,4,8,0,90,,,,,,,,,,,,,,,,,,,,
,,,,,90,2020-07-04_11h08.23.724,retriever_ti,2020.1.3,MacIntel,60,Chrome,1280,800,,,,,,,,,,,,,,,,,1,,,,,,,,,,,,,,,,,,,,,,,,,,,300.52591,19,right,0.606395,dress         ,4,7,2,1,3,300.560295,300.560295,303.059935,0,18,18,18,1,19,2,4,seaturtle     ,dress         ,html/resources/sequences_IDs/A/02_seaturtle.jpg,html/resources/sequences_IDs/A/07_dress.jpg,2,7,2,1,3,2,2,6,0,90,,,,,,,,,,,,,,,,,,,,
,,,,,90,2020-07-04_11h08.23.724,retriever_ti,2020.1.3,MacIntel,60,Chrome,1280,800,,,,,,,,,,,,,,,,,1,,,,,,,,,,,,,,,,,,,,,,,,,,,303.66146,20,right,0.922185,gloves      ,3,6,-5,0,3,303.67924,303.67924,306.17735,0,19,19,19,1,20,8,3,peacock       ,gloves      ,html/resources/sequences_IDs/A/05_peacock.jpg,html/resources/sequences_IDs/B/06_gloves.jpg,5,6,2,1,3,2,4,5,0,90,,,,,,,,,,,,,,,,,,,,
,,,,,90,2020-07-04_11h08.23.724,retriever_ti,2020.1.3,MacIntel,60,Chrome,1280,800,,,,,,,,,,,,,,,,,1,,,,,,,,,,,,,,,,,,,,,,,,,,,306.77931,21,left,1.03959,slipper     ,7,8,1,1,1,306.795905,306.795905,309.29592,0,20,20,20,1,21,7,6,slipper     ,calculator    ,html/resources/sequences_IDs/B/08_slipper.jpg,html/resources/sequences_IDs/A/09_calculator.jpg,8,9,3,2,4,2,7,8,0,90,,,,,,,,,,,,,,,,,,,,
,,,,,90,2020-07-04_11h08.23.724,retriever_ti,2020.1.3,MacIntel,60,Chrome,1280,800,,,,,,,,,,,,,,,,,1,,,,,,,,,,,,,,,,,,,,,,,,,,,310.398955,22,right,1.1863,gloves      ,3,6,-3,0,3,310.415045,310.415045,312.915075,0,21,21,21,1,22,6,3,calculator    ,gloves      ,html/resources/sequences_IDs/A/09_calculator.jpg,html/resources/sequences_IDs/B/06_gloves.jpg,9,6,4,2,3,2,8,5,0,90,,,,,,,,,,,,,,,,,,,,
,,,,,90,2020-07-04_11h08.23.724,retriever_ti,2020.1.3,MacIntel,60,Chrome,1280,800,,,,,,,,,,,,,,,,,1,,,,,,,,,,,,,,,,,,,,,,,,,,,313.53336,23,left,0.928325,dress         ,4,7,1,1,1,313.56544,313.56544,316.06667,0,22,22,22,1,23,4,3,dress         ,gloves      ,html/resources/sequences_IDs/A/07_dress.jpg,html/resources/sequences_IDs/B/06_gloves.jpg,7,6,3,2,3,2,6,5,0,90,,,,,,,,,,,,,,,,,,,,
,,,,,90,2020-07-04_11h08.23.724,retriever_ti,2020.1.3,MacIntel,60,Chrome,1280,800,,,,,,,,,,,,,,,,,1,,,,,,,,,,,,,,,,,,,,,,,,,,,317.166455,24,right,0.937395,peacock       ,8,5,1,1,1,317.186025,317.186025,319.684625,0,23,23,23,1,24,7,8,slipper     ,peacock       ,html/resources/sequences_IDs/B/08_slipper.jpg,html/resources/sequences_IDs/A/05_peacock.jpg,8,5,3,2,2,1,7,4,0,90,,,,,,,,,,,,,,,,,,,,
,,,,,90,2020-07-04_11h08.23.724,retriever_ti,2020.1.3,MacIntel,60,Chrome,1280,800,,,,,,,,,,,,,,,,,1,,,,,,,,,,,,,,,,,,,,,,,,,,,320.78663,25,left,1.01665,gloves      ,3,6,-3,0,3,320.8201,320.8201,323.31934,0,24,24,24,1,25,3,6,gloves      ,calculator    ,html/resources/sequences_IDs/B/06_gloves.jpg,html/resources/sequences_IDs/A/09_calculator.jpg,6,9,3,2,4,2,5,8,0,90,,,,,,,,,,,,,,,,,,,,
,,,,,90,2020-07-04_11h08.23.724,retriever_ti,2020.1.3,MacIntel,60,Chrome,1280,800,,,,,,,,,,,,,,,,,1,,,,,,,,,,,,,,,,,,,,,,,,,,,323.921345,26,right,0.63507,dress         ,4,7,-2,0,3,323.953865,323.953865,326.454445,0,25,25,25,1,26,6,4,calculator    ,dress         ,html/resources/sequences_IDs/A/09_calculator.jpg,html/resources/sequences_IDs/A/07_dress.jpg,9,7,4,2,3,2,8,6,0,90,,,,,,,,,,,,,,,,,,,,
,,,,,90,2020-07-04_11h08.23.724,retriever_ti,2020.1.3,MacIntel,60,Chrome,1280,800,,,,,,,,,,,,,,,,,1,,,,,,,,,,,,,,,,,,,,,,,,,,,327.07245,27,left,0.866675,redfox      ,1,1,-1,0,0,327.089535,327.089535,329.590855,0,26,26,26,1,27,1,2,redfox      ,seaturtle     ,html/resources/sequences_IDs/B/01_redfox.jpg,html/resources/sequences_IDs/A/02_seaturtle.jpg,1,2,1,1,2,1,1,2,0,90,,,,,,,,,,,,,,,,,,,,
,,,,,90,2020-07-04_11h08.23.724,retriever_ti,2020.1.3,MacIntel,60,Chrome,1280,800,,,,,,,,,,,,,,,,,1,,,,,,,,,,,,,,,,,,,,,,,,,,,330.6917,28,right,0.78131,seaturtle     ,2,2,-5,0,3,330.725405,330.725405,333.22487,0,27,27,27,1,28,7,2,slipper     ,seaturtle     ,html/resources/sequences_IDs/B/08_slipper.jpg,html/resources/sequences_IDs/A/02_seaturtle.jpg,8,2,3,2,2,1,7,2,0,90,,,,,,,,,,,,,,,,,,,,
,,,,,90,2020-07-04_11h08.23.724,retriever_ti,2020.1.3,MacIntel,60,Chrome,1280,800,,,,,,,,,,,,,,,,,1,,,,,,,,,,,,,,,,,,,,,,,,,,,333.826885,29,right,0.906955,peacock       ,8,5,2,1,3,333.86106,333.86106,336.359165,0,28,28,28,1,29,6,8,calculator    ,peacock       ,html/resources/sequences_IDs/A/09_calculator.jpg,html/resources/sequences_IDs/A/05_peacock.jpg,9,5,4,2,2,1,8,4,0,90,,,,,,,,,,,,,,,,,,,,
,,,,,90,2020-07-04_11h08.23.724,retriever_ti,2020.1.3,MacIntel,60,Chrome,1280,800,,,,,,,,,,,,,,,,,1,,,,,,,,,,,,,,,,,,,,,,,,,,,336.976305,30,left,0.76981,gloves      ,3,6,-2,0,3,337.012145,337.012145,339.509885,0,29,29,29,1,30,3,5,gloves      ,holdfast    ,html/resources/sequences_IDs/B/06_gloves.jpg,html/resources/sequences_IDs/B/04_holdfast.jpg,6,4,3,2,2,1,5,3,0,90,,,,,,,,,,,,,,,,,,,,
,,,,,90,2020-07-04_11h08.23.724,retriever_ti,2020.1.3,MacIntel,60,Chrome,1280,800,,,,,,,,,,,,,,,,,1,,,,,,,,,,,,,,,,,,,,,,,,,,,340.110865,31,right,0.93406,redfox      ,1,1,-1,0,0,340.13165,340.13165,342.646005,0,30,30,30,1,31,2,1,seaturtle     ,redfox      ,html/resources/sequences_IDs/A/02_seaturtle.jpg,html/resources/sequences_IDs/B/01_redfox.jpg,2,1,2,1,1,1,2,1,0,90,,,,,,,,,,,,,,,,,,,,
,,,,,90,2020-07-04_11h08.23.724,retriever_ti,2020.1.3,MacIntel,60,Chrome,1280,800,,,,,,,,,,,,,,,,,1,,,,,,,,,,,,,,,,,,,,,,,,,,,343.74728,32,right,0.6626,seaturtle     ,2,2,-4,0,3,343.780955,343.780955,346.279695,0,31,31,31,1,32,6,2,calculator    ,seaturtle     ,html/resources/sequences_IDs/A/09_calculator.jpg,html/resources/sequences_IDs/A/02_seaturtle.jpg,9,2,4,2,2,1,8,2,0,90,,,,,,,,,,,,,,,,,,,,
,,,,,90,2020-07-04_11h08.23.724,retriever_ti,2020.1.3,MacIntel,60,Chrome,1280,800,,,,,,,,,,,,,,,,,1,,,,,,,,,,,,,,,,,,,,,,,,,,,346.881935,33,left,0.82634,dress         ,4,7,1,1,1,346.898025,346.898025,349.399115,0,32,32,32,1,33,4,3,dress         ,gloves      ,html/resources/sequences_IDs/A/07_dress.jpg,html/resources/sequences_IDs/B/06_gloves.jpg,7,6,3,2,3,2,6,5,0,90,,,,,,,,,,,,,,,,,,,,
,,,,,90,2020-07-04_11h08.23.724,retriever_ti,2020.1.3,MacIntel,60,Chrome,1280,800,,,,,,,,,,,,,,,,,1,,,,,,,,,,,,,,,,,,,,,,,,,,,350.500625,34,right,0.949425,peacock       ,8,5,1,1,0,350.53527,350.53527,353.03367,0,33,33,33,1,34,7,8,slipper     ,peacock       ,html/resources/sequences_IDs/B/08_slipper.jpg,html/resources/sequences_IDs/A/05_peacock.jpg,8,5,3,2,2,1,7,4,1,90,,,,,,,,,,,,,,,,,,,,
,,,,,90,2020-07-04_11h08.23.724,retriever_ti,2020.1.3,MacIntel,60,Chrome,1280,800,,,,,,,,,,,,,,,,,1,,,,,,,,,,,,,,,,,,,,,,,,,,,354.136135,35,right,0.79867,dress         ,4,7,-1,0,0,354.152365,354.152365,356.652325,0,34,34,34,1,35,5,4,holdfast    ,dress         ,html/resources/sequences_IDs/B/04_holdfast.jpg,html/resources/sequences_IDs/A/07_dress.jpg,4,7,2,1,3,2,3,6,0,90,,,,,,,,,,,,,,,,,,,,
,,,,,90,2020-07-04_11h08.23.724,retriever_ti,2020.1.3,MacIntel,60,Chrome,1280,800,,,,,,,,,,,,,,,,,1,,,,,,,,,,,,,,,,,,,,,,,,,,,357.75342,36,left,0.952465,redfox      ,1,1,-1,0,0,357.770915,357.770915,360.269965,0,35,35,35,1,36,1,2,redfox      ,seaturtle     ,html/resources/sequences_IDs/B/01_redfox.jpg,html/resources/sequences_IDs/A/02_seaturtle.jpg,1,2,1,1,2,1,1,2,0,90,,,,,,,,,,,,,,,,,,,,
,,,,,90,2020-07-04_11h08.23.724,retriever_ti,2020.1.3,MacIntel,60,Chrome,1280,800,,,,,,,,,,,,,,,,,1,,,,,,,,,,,,,,,,,,,,,,,,,,,361.37272,37,right,1.693505,gloves      ,3,6,2,1,3,361.387845,361.387845,363.88777,0,36,36,36,1,37,1,3,redfox      ,gloves      ,html/resources/sequences_IDs/B/01_redfox.jpg,html/resources/sequences_IDs/B/06_gloves.jpg,1,6,1,1,3,2,1,5,0,90,,,,,,,,,,,,,,,,,,,,
,,,,,90,2020-07-04_11h08.23.724,retriever_ti,2020.1.3,MacIntel,60,Chrome,1280,800,,,,,,,,,,,,,,,,,1,,,,,,,,,,,,,,,,,,,,,,,,,,,364.48984,38,right,1.04138,gloves      ,3,6,1,1,1,364.50618,364.50618,367.00671,0,37,37,37,1,38,2,3,seaturtle     ,gloves      ,html/resources/sequences_IDs/A/02_seaturtle.jpg,html/resources/sequences_IDs/B/06_gloves.jpg,2,6,2,1,3,2,2,5,0,90,,,,,,,,,,,,,,,,,,,,
,,,,,90,2020-07-04_11h08.23.724,retriever_ti,2020.1.3,MacIntel,60,Chrome,1280,800,,,,,,,,,,,,,,,,,1,,,,,,,,,,,,,,,,,,,,,,,,,,,368.10955,39,right,0.976625,calculator    ,6,9,5,1,3,368.1431,368.1431,370.64206,0,38,38,38,1,39,1,6,redfox      ,calculator    ,html/resources/sequences_IDs/B/01_redfox.jpg,html/resources/sequences_IDs/A/09_calculator.jpg,1,9,1,1,4,2,1,8,0,90,,,,,,,,,,,,,,,,,,,,
,,,,,90,2020-07-04_11h08.23.724,retriever_ti,2020.1.3,MacIntel,60,Chrome,1280,800,,,,,,,,,,,,,,,,,1,,,,,,,,,,,,,,,,,,,,,,,,,,,371.243315,40,left,0.551045,dress         ,4,7,3,1,3,371.26113,371.26113,373.760565,0,39,39,39,1,40,4,1,dress         ,redfox      ,html/resources/sequences_IDs/A/07_dress.jpg,html/resources/sequences_IDs/B/01_redfox.jpg,7,1,3,2,1,1,6,1,0,90,,,,,,,,,,,,,,,,,,,,
,,,,,90,2020-07-04_11h08.23.724,retriever_ti,2020.1.3,MacIntel,60,Chrome,1280,800,,,,,,,,,,,,,,,,,1,,,,,,,,,,,,,,,,,,,,,,,,,,,374.379635,41,left,0.754965,gloves      ,3,6,-5,0,3,374.3959,374.3959,376.89459,0,40,40,40,1,41,3,8,gloves      ,peacock       ,html/resources/sequences_IDs/B/06_gloves.jpg,html/resources/sequences_IDs/A/05_peacock.jpg,6,5,3,2,2,1,5,4,0,90,,,,,,,,,,,,,,,,,,,,
,,,,,90,2020-07-04_11h08.23.724,retriever_ti,2020.1.3,MacIntel,60,Chrome,1280,800,,,,,,,,,,,,,,,,,1,,,,,,,,,,,,,,,,,,,,,,,,,,,377.496845,42,left,0.54224,dress         ,4,7,-2,0,3,377.51407,377.51407,380.047315,0,41,41,41,1,42,4,6,dress         ,calculator    ,html/resources/sequences_IDs/A/07_dress.jpg,html/resources/sequences_IDs/A/09_calculator.jpg,7,9,3,2,4,2,6,8,0,90,,,,,,,,,,,,,,,,,,,,
,,,,,90,2020-07-04_11h08.23.724,retriever_ti,2020.1.3,MacIntel,60,Chrome,1280,800,,,,,,,,,,,,,,,,,1,,,,,,,,,,,,,,,,,,,,,,,,,,,380.668,43,left,0.556395,dress         ,4,7,-1,0,0,380.715305,380.715305,383.21405,0,42,42,42,1,43,4,5,dress         ,holdfast    ,html/resources/sequences_IDs/A/07_dress.jpg,html/resources/sequences_IDs/B/04_holdfast.jpg,7,4,3,2,2,1,6,3,0,90,,,,,,,,,,,,,,,,,,,,
,,,,,90,2020-07-04_11h08.23.724,retriever_ti,2020.1.3,MacIntel,60,Chrome,1280,800,,,,,,,,,,,,,,,,,1,,,,,,,,,,,,,,,,,,,,,,,,,,,384.31677,44,left,0.66694,redfox      ,1,1,-4,0,3,384.35142,384.35142,386.849755,0,43,43,43,1,44,1,5,redfox      ,holdfast    ,html/resources/sequences_IDs/B/01_redfox.jpg,html/resources/sequences_IDs/B/04_holdfast.jpg,1,4,1,1,2,1,1,3,0,90,,,,,,,,,,,,,,,,,,,,
,,,,,90,2020-07-04_11h08.23.724,retriever_ti,2020.1.3,MacIntel,60,Chrome,1280,800,,,,,,,,,,,,,,,,,1,,,,,,,,,,,,,,,,,,,,,,,,,,,387.45235,45,right,0.618005,gloves      ,3,6,-4,0,3,387.487105,387.487105,389.9839,0,44,44,44,1,45,7,3,slipper     ,gloves      ,html/resources/sequences_IDs/B/08_slipper.jpg,html/resources/sequences_IDs/B/06_gloves.jpg,8,6,3,2,3,2,7,5,0,90,,,,,,,,,,,,,,,,,,,,
,,,,,90,2020-07-04_11h08.23.724,retriever_ti,2020.1.3,MacIntel,60,Chrome,1280,800,,,,,,,,,,,,,,,,,1,,,,,,,,,,,,,,,,,,,,,,,,,,,390.58464,46,left,0.496895,gloves      ,3,6,1,1,1,390.605695,390.605695,393.102785,0,45,45,45,1,46,3,2,gloves      ,seaturtle     ,html/resources/sequences_IDs/B/06_gloves.jpg,html/resources/sequences_IDs/A/02_seaturtle.jpg,6,2,3,2,2,1,5,2,0,90,,,,,,,,,,,,,,,,,,,,
,,,,,90,2020-07-04_11h08.23.724,retriever_ti,2020.1.3,MacIntel,60,Chrome,1280,800,,,,,,,,,,,,,,,,,1,,,,,,,,,,,,,,,,,,,,,,,,,,,394.20364,47,left,0.9,holdfast    ,5,4,4,1,3,394.22237,394.22237,396.72053,0,46,46,46,1,47,5,1,holdfast    ,redfox      ,html/resources/sequences_IDs/B/04_holdfast.jpg,html/resources/sequences_IDs/B/01_redfox.jpg,4,1,2,1,1,1,3,1,0,90,,,,,,,,,,,,,,,,,,,,
,,,,,90,2020-07-04_11h08.23.724,retriever_ti,2020.1.3,MacIntel,60,Chrome,1280,800,,,,,,,,,,,,,,,,,1,,,,,,,,,,,,,,,,,,,,,,,,,,,397.322345,48,right,0.633,holdfast    ,5,4,-1,0,0,397.34038,397.34038,399.839525,0,47,47,47,1,48,6,5,calculator    ,holdfast    ,html/resources/sequences_IDs/A/09_calculator.jpg,html/resources/sequences_IDs/B/04_holdfast.jpg,9,4,4,2,2,1,8,3,0,90,,,,,,,,,,,,,,,,,,,,
,,,,,90,2020-07-04_11h08.23.724,retriever_ti,2020.1.3,MacIntel,60,Chrome,1280,800,,,,,,,,,,,,,,,,,1,,,,,,,,,,,,,,,,,,,,,,,,,,,400.94303,49,left,1.1735,seaturtle     ,2,2,-4,0,3,400.957215,400.957215,403.45745,0,48,48,48,1,49,2,6,seaturtle     ,calculator    ,html/resources/sequences_IDs/A/02_seaturtle.jpg,html/resources/sequences_IDs/A/09_calculator.jpg,2,9,2,1,4,2,2,8,0,90,,,,,,,,,,,,,,,,,,,,
,,,,,90,2020-07-04_11h08.23.724,retriever_ti,2020.1.3,MacIntel,60,Chrome,1280,800,,,,,,,,,,,,,,,,,1,,,,,,,,,,,,,,,,,,,,,,,,,,,404.05958,50,left,0.794945,gloves      ,3,6,2,1,3,404.07718,404.07718,406.57525,0,49,49,49,1,50,3,1,gloves      ,redfox      ,html/resources/sequences_IDs/B/06_gloves.jpg,html/resources/sequences_IDs/B/01_redfox.jpg,6,1,3,2,1,1,5,1,0,90,,,,,,,,,,,,,,,,,,,,
,,,,,90,2020-07-04_11h08.23.724,retriever_ti,2020.1.3,MacIntel,60,Chrome,1280,800,,,,,,,,,,,,,,,,,1,,,,,,,,,,,,,,,,,,,,,,,,,,,407.19298,51,left,0.603955,dress         ,4,7,1,1,0,407.210025,407.210025,409.710545,0,50,50,50,1,51,4,3,dress         ,gloves      ,html/resources/sequences_IDs/A/07_dress.jpg,html/resources/sequences_IDs/B/06_gloves.jpg,7,6,3,2,3,2,6,5,1,90,,,,,,,,,,,,,,,,,,,,
,,,,,90,2020-07-04_11h08.23.724,retriever_ti,2020.1.3,MacIntel,60,Chrome,1280,800,,,,,,,,,,,,,,,,,1,,,,,,,,,,,,,,,,,,,,,,,,,,,410.811615,52,right,0.850465,peacock       ,8,5,3,1,3,410.830285,410.830285,413.3291,0,51,51,51,1,52,5,8,holdfast    ,peacock       ,html/resources/sequences_IDs/B/04_holdfast.jpg,html/resources/sequences_IDs/A/05_peacock.jpg,4,5,2,1,2,1,3,4,0,90,,,,,,,,,,,,,,,,,,,,
,,,,,90,2020-07-04_11h08.23.724,retriever_ti,2020.1.3,MacIntel,60,Chrome,1280,800,,,,,,,,,,,,,,,,,1,,,,,,,,,,,,,,,,,,,,,,,,,,,413.94624,53,left,0.57887,slipper     ,7,8,-1,0,0,413.9816,413.9816,416.48057,0,52,52,52,1,53,7,8,slipper     ,peacock       ,html/resources/sequences_IDs/B/08_slipper.jpg,html/resources/sequences_IDs/A/05_peacock.jpg,8,5,3,2,2,1,7,4,0,90,,,,,,,,,,,,,,,,,,,,
,,,,,90,2020-07-04_11h08.23.724,retriever_ti,2020.1.3,MacIntel,60,Chrome,1280,800,,,,,,,,,,,,,,,,,1,,,,,,,,,,,,,,,,,,,,,,,,,,,417.580655,54,right,0.814045,slipper     ,7,8,1,1,1,417.616755,417.616755,420.11582,0,53,53,53,1,54,6,7,calculator    ,slipper     ,html/resources/sequences_IDs/A/09_calculator.jpg,html/resources/sequences_IDs/B/08_slipper.jpg,9,8,4,2,3,2,8,7,0,90,,,,,,,,,,,,,,,,,,,,
,,,,,90,2020-07-04_11h08.23.724,retriever_ti,2020.1.3,MacIntel,60,Chrome,1280,800,,,,,,,,,,,,,,,,,1,,,,,,,,,,,,,,,,,,,,,,,,,,,421.216655,55,right,0.657655,redfox      ,1,1,-5,0,3,421.2345,421.2345,423.733365,0,54,54,54,1,55,6,1,calculator    ,redfox      ,html/resources/sequences_IDs/A/09_calculator.jpg,html/resources/sequences_IDs/B/01_redfox.jpg,9,1,4,2,1,1,8,1,0,90,,,,,,,,,,,,,,,,,,,,
,,,,,90,2020-07-04_11h08.23.724,retriever_ti,2020.1.3,MacIntel,60,Chrome,1280,800,,,,,,,,,,,,,,,,,1,,,,,,,,,,,,,,,,,,,,,,,,,,,424.33464,56,right,0.649265,slipper     ,7,8,2,1,3,424.35311,424.35311,426.851915,0,55,55,55,1,56,5,7,holdfast    ,slipper     ,html/resources/sequences_IDs/B/04_holdfast.jpg,html/resources/sequences_IDs/B/08_slipper.jpg,4,8,2,1,3,2,3,7,0,90,,,,,,,,,,,,,,,,,,,,
,,,,,90,2020-07-04_11h08.23.724,retriever_ti,2020.1.3,MacIntel,60,Chrome,1280,800,,,,,,,,,,,,,,,,,1,,,,,,,,,,,,,,,,,,,,,,,,,,,427.470175,57,right,0.971645,calculator    ,6,9,1,1,1,427.50409,427.50409,430.00279,0,56,56,56,1,57,5,6,holdfast    ,calculator    ,html/resources/sequences_IDs/B/04_holdfast.jpg,html/resources/sequences_IDs/A/09_calculator.jpg,4,9,2,1,4,2,3,8,0,90,,,,,,,,,,,,,,,,,,,,
,,,,,90,2020-07-04_11h08.23.724,retriever_ti,2020.1.3,MacIntel,60,Chrome,1280,800,,,,,,,,,,,,,,,,,1,,,,,,,,,,,,,,,,,,,,,,,,,,,431.10452,58,right,0.722715,dress         ,4,7,-3,0,3,431.139545,431.139545,433.638375,0,57,57,57,1,58,7,4,slipper     ,dress         ,html/resources/sequences_IDs/B/08_slipper.jpg,html/resources/sequences_IDs/A/07_dress.jpg,8,7,3,2,3,2,7,6,0,90,,,,,,,,,,,,,,,,,,,,
,,,,,90,2020-07-04_11h08.23.724,retriever_ti,2020.1.3,MacIntel,60,Chrome,1280,800,,,,,,,,,,,,,,,,,1,,,,,,,,,,,,,,,,,,,,,,,,,,,434.2409,59,left,1.249585,calculator    ,6,9,1,1,1,434.25695,434.25695,436.75689,0,58,58,58,1,59,6,5,calculator    ,holdfast    ,html/resources/sequences_IDs/A/09_calculator.jpg,html/resources/sequences_IDs/B/04_holdfast.jpg,9,4,4,2,2,1,8,3,0,90,,,,,,,,,,,,,,,,,,,,
,,,,,90,2020-07-04_11h08.23.724,retriever_ti,2020.1.3,MacIntel,60,Chrome,1280,800,,,,,,,,,,,,,,,,,1,,,,,,,,,,,,,,,,,,,,,,,,,,,437.85852,60,left,1.0133,redfox      ,1,1,-7,0,3,437.876945,437.876945,440.37437,0,59,59,59,1,60,1,8,redfox      ,peacock       ,html/resources/sequences_IDs/B/01_redfox.jpg,html/resources/sequences_IDs/A/05_peacock.jpg,1,5,1,1,2,1,1,4,0,90,,,,,,,,,,,,,,,,,,,,
,,,,,90,2020-07-04_11h08.23.724,retriever_ti,2020.1.3,MacIntel,60,Chrome,1280,800,,,,,,,,,,,,,,,,,1,,,,,,,,,,,,,,,,,,,,,,,,,,,440.976805,61,left,0.73376,slipper     ,7,8,1,1,1,440.99418,440.99418,443.49374,0,60,60,60,1,61,7,6,slipper     ,calculator    ,html/resources/sequences_IDs/B/08_slipper.jpg,html/resources/sequences_IDs/A/09_calculator.jpg,8,9,3,2,4,2,7,8,0,90,,,,,,,,,,,,,,,,,,,,
,,,,,90,2020-07-04_11h08.23.724,retriever_ti,2020.1.3,MacIntel,60,Chrome,1280,800,,,,,,,,,,,,,,,,,1,,,,,,,,,,,,,,,,,,,,,,,,,,,444.59567,62,right,0.6988,holdfast    ,5,4,-1,0,1,444.63027,444.63027,447.12921,0,61,61,61,1,62,6,5,calculator    ,holdfast    ,html/resources/sequences_IDs/A/09_calculator.jpg,html/resources/sequences_IDs/B/04_holdfast.jpg,9,4,4,2,2,1,8,3,1,90,,,,,,,,,,,,,,,,,,,,
,,,,,90,2020-07-04_11h08.23.724,retriever_ti,2020.1.3,MacIntel,60,Chrome,1280,800,,,,,,,,,,,,,,,,,1,,,,,,,,,,,,,,,,,,,,,,,,,,,448.23029,63,left,0.348165,dress         ,4,7,-1,0,1,448.248185,448.248185,450.74641,0,62,62,62,1,63,4,5,dress         ,holdfast    ,html/resources/sequences_IDs/A/07_dress.jpg,html/resources/sequences_IDs/B/04_holdfast.jpg,7,4,3,2,2,1,6,3,1,90,,,,,,,,,,,,,,,,,,,,
,,,,,90,2020-07-04_11h08.23.724,retriever_ti,2020.1.3,MacIntel,60,Chrome,1280,800,,,,,,,,,,,,,,,,,1,,,,,,,,,,,,,,,,,,,,,,,,,,,451.848855,64,left,0.74194,peacock       ,8,5,3,1,3,451.882425,451.882425,454.381775,0,63,63,63,1,64,8,5,peacock       ,holdfast    ,html/resources/sequences_IDs/A/05_peacock.jpg,html/resources/sequences_IDs/B/04_holdfast.jpg,5,4,2,1,2,1,4,3,0,90,,,,,,,,,,,,,,,,,,,,
,,,,,90,2020-07-04_11h08.23.724,retriever_ti,2020.1.3,MacIntel,60,Chrome,1280,800,,,,,,,,,,,,,,,,,1,,,,,,,,,,,,,,,,,,,,,,,,,,,454.98323,65,left,1.29935,holdfast    ,5,4,2,1,3,454.99996,454.99996,457.4994,0,64,64,64,1,65,5,3,holdfast    ,gloves      ,html/resources/sequences_IDs/B/04_holdfast.jpg,html/resources/sequences_IDs/B/06_gloves.jpg,4,6,2,1,3,2,3,5,0,90,,,,,,,,,,,,,,,,,,,,
,,,,,90,2020-07-04_11h08.23.724,retriever_ti,2020.1.3,MacIntel,60,Chrome,1280,800,,,,,,,,,,,,,,,,,1,,,,,,,,,,,,,,,,,,,,,,,,,,,458.10163,66,left,0.747865,holdfast    ,5,4,3,1,3,458.117695,458.117695,460.618135,0,65,65,65,1,66,5,2,holdfast    ,seaturtle     ,html/resources/sequences_IDs/B/04_holdfast.jpg,html/resources/sequences_IDs/A/02_seaturtle.jpg,4,2,2,1,2,1,3,2,0,90,,,,,,,,,,,,,,,,,,,,
,,,,,90,2020-07-04_11h08.23.724,retriever_ti,2020.1.3,MacIntel,60,Chrome,1280,800,,,,,,,,,,,,,,,,,1,,,,,,,,,,,,,,,,,,,,,,,,,,,461.23675,67,right,0.63818,redfox      ,1,1,-1,0,0,461.25604,461.25604,463.753215,0,66,66,66,1,67,2,1,seaturtle     ,redfox      ,html/resources/sequences_IDs/A/02_seaturtle.jpg,html/resources/sequences_IDs/B/01_redfox.jpg,2,1,2,1,1,1,2,1,0,90,,,,,,,,,,,,,,,,,,,,
,,,,,90,2020-07-04_11h08.23.724,retriever_ti,2020.1.3,MacIntel,60,Chrome,1280,800,,,,,,,,,,,,,,,,,1,,,,,,,,,,,,,,,,,,,,,,,,,,,464.85468,68,left,0.85046,dress         ,4,7,-3,0,3,464.870835,464.870835,467.370645,0,67,67,67,1,68,4,7,dress         ,slipper     ,html/resources/sequences_IDs/A/07_dress.jpg,html/resources/sequences_IDs/B/08_slipper.jpg,7,8,3,2,3,2,6,7,0,90,,,,,,,,,,,,,,,,,,,,
,,,,,90,2020-07-04_11h08.23.724,retriever_ti,2020.1.3,MacIntel,60,Chrome,1280,800,,,,,,,,,,,,,,,,,1,,,,,,,,,,,,,,,,,,,,,,,,,,,467.973155,69,left,0.77492,gloves      ,3,6,1,1,0,467.98989,467.98989,470.48979,0,68,68,68,1,69,3,2,gloves      ,seaturtle     ,html/resources/sequences_IDs/B/06_gloves.jpg,html/resources/sequences_IDs/A/02_seaturtle.jpg,6,2,3,2,2,1,5,2,1,90,,,,,,,,,,,,,,,,,,,,
,,,,,90,2020-07-04_11h08.23.724,retriever_ti,2020.1.3,MacIntel,60,Chrome,1280,800,,,,,,,,,,,,,,,,,1,,,,,,,,,,,,,,,,,,,,,,,,,,,471.593945,70,left,0.722085,gloves      ,3,6,-4,0,3,471.62475,471.62475,474.123635,0,69,69,69,1,70,3,7,gloves      ,slipper     ,html/resources/sequences_IDs/B/06_gloves.jpg,html/resources/sequences_IDs/B/08_slipper.jpg,6,8,3,2,3,2,5,7,0,90,,,,,,,,,,,,,,,,,,,,
,,,,,90,2020-07-04_11h08.23.724,retriever_ti,2020.1.3,MacIntel,60,Chrome,1280,800,,,,,,,,,,,,,,,,,1,,,,,,,,,,,,,,,,,,,,,,,,,,,474.724455,71,left,0.788825,dress         ,4,7,-1,0,0,474.759725,474.759725,477.25917,0,70,70,70,1,71,4,5,dress         ,holdfast    ,html/resources/sequences_IDs/A/07_dress.jpg,html/resources/sequences_IDs/B/04_holdfast.jpg,7,4,3,2,2,1,6,3,0,90,,,,,,,,,,,,,,,,,,,,
,,,,,90,2020-07-04_11h08.23.724,retriever_ti,2020.1.3,MacIntel,60,Chrome,1280,800,,,,,,,,,,,,,,,,,1,,,,,,,,,,,,,,,,,,,,,,,,,,,478.361365,72,left,0.697655,seaturtle     ,2,2,-3,0,3,478.3938,478.3938,480.89403,0,71,71,71,1,72,2,5,seaturtle     ,holdfast    ,html/resources/sequences_IDs/A/02_seaturtle.jpg,html/resources/sequences_IDs/B/04_holdfast.jpg,2,4,2,1,2,1,2,3,0,90,,,,,,,,,,,,,,,,,,,,
,,,,,90,2020-07-04_11h08.23.724,retriever_ti,2020.1.3,MacIntel,60,Chrome,1280,800,,,,,,,,,,,,,,,,,1,,,,,,,,,,,,,,,,,,,,,,,,,,,481.49592,73,right,0.74514,slipper     ,7,8,-1,0,0,481.530805,481.530805,484.02892,0,72,72,72,1,73,8,7,peacock       ,slipper     ,html/resources/sequences_IDs/A/05_peacock.jpg,html/resources/sequences_IDs/B/08_slipper.jpg,5,8,2,1,3,2,4,7,0,90,,,,,,,,,,,,,,,,,,,,
,,,,,90,2020-07-04_11h08.23.724,retriever_ti,2020.1.3,MacIntel,60,Chrome,1280,800,,,,,,,,,,,,,,,,,1,,,,,,,,,,,,,,,,,,,,,,,,,,,485.129835,74,left,1.04438,calculator    ,6,9,-1,0,1,485.1653,485.1653,487.664055,0,73,73,73,1,74,6,7,calculator    ,slipper     ,html/resources/sequences_IDs/A/09_calculator.jpg,html/resources/sequences_IDs/B/08_slipper.jpg,9,8,4,2,3,2,8,7,1,90,,,,,,,,,,,,,,,,,,,,
,,,,,90,2020-07-04_11h08.23.724,retriever_ti,2020.1.3,MacIntel,60,Chrome,1280,800,,,,,,,,,,,,,,,,,1,,,,,,,,,,,,,,,,,,,,,,,,,,,488.76594,75,left,0.69454,dress         ,4,7,-4,0,3,488.78308,488.78308,491.282265,0,74,74,74,1,75,4,8,dress         ,peacock       ,html/resources/sequences_IDs/A/07_dress.jpg,html/resources/sequences_IDs/A/05_peacock.jpg,7,5,3,2,2,1,6,4,0,90,,,,,,,,,,,,,,,,,,,,
,,,,,90,2020-07-04_11h08.23.724,retriever_ti,2020.1.3,MacIntel,60,Chrome,1280,800,,,,,,,,,,,,,,,,,1,,,,,,,,,,,,,,,,,,,,,,,,,,,491.884785,76,left,1.13261,slipper     ,7,8,6,1,3,491.90246,491.90246,494.401145,0,75,75,75,1,76,7,1,slipper     ,redfox      ,html/resources/sequences_IDs/B/08_slipper.jpg,html/resources/sequences_IDs/B/01_redfox.jpg,8,1,3,2,1,1,7,1,0,90,,,,,,,,,,,,,,,,,,,,
,,,,,90,2020-07-04_11h08.23.724,retriever_ti,2020.1.3,MacIntel,60,Chrome,1280,800,,,,,,,,,,,,,,,,,1,,,,,,,,,,,,,,,,,,,,,,,,,,,495.01832,77,right,0.86091,redfox      ,1,1,-1,0,1,495.05218,495.05218,497.55204,0,76,76,76,1,77,2,1,seaturtle     ,redfox      ,html/resources/sequences_IDs/A/02_seaturtle.jpg,html/resources/sequences_IDs/B/01_redfox.jpg,2,1,2,1,1,1,2,1,1,90,,,,,,,,,,,,,,,,,,,,
,,,,,90,2020-07-04_11h08.23.724,retriever_ti,2020.1.3,MacIntel,60,Chrome,1280,800,,,,,,,,,,,,,,,,,,,,,,,,,,,,,,,,,,,,,0,202.608295,,,,,,,,,,,,,,,,,,,,,,,,,,,,,,,,,,,,,,,,,0,0,0,0,1,,,,,,,,,,,,,,,
,,,,,90,2020-07-04_11h08.23.724,retriever_ti,2020.1.3,MacIntel,60,Chrome,1280,800,,,,,,,,,,,,,,,,,2,,,,,,,,,,,,,,,,,,,,,,,,,,,720.19049,78,right,0.92848,dress         ,4,7,-2,0,3,720.211205,720.211205,722.70874,0,0,0,0,1,78,6,4,calculator    ,dress         ,html/resources/sequences_IDs/A/09_calculator.jpg,html/resources/sequences_IDs/A/07_dress.jpg,9,7,4,2,3,2,8,6,0,90,,,,,,,,,,,,,,,,,,,,
,,,,,90,2020-07-04_11h08.23.724,retriever_ti,2020.1.3,MacIntel,60,Chrome,1280,800,,,,,,,,,,,,,,,,,2,,,,,,,,,,,,,,,,,,,,,,,,,,,723.31011,79,right,0.821015,dress         ,4,7,1,1,1,723.343855,723.343855,725.84341,0,1,1,1,1,79,3,4,gloves      ,dress         ,html/resources/sequences_IDs/B/06_gloves.jpg,html/resources/sequences_IDs/A/07_dress.jpg,6,7,3,2,3,2,5,6,0,90,,,,,,,,,,,,,,,,,,,,
,,,,,90,2020-07-04_11h08.23.724,retriever_ti,2020.1.3,MacIntel,60,Chrome,1280,800,,,,,,,,,,,,,,,,,2,,,,,,,,,,,,,,,,,,,,,,,,,,,726.946345,80,left,0.9879,redfox      ,1,1,-4,0,3,726.97833,726.97833,729.479015,0,2,2,2,1,80,1,5,redfox      ,holdfast    ,html/resources/sequences_IDs/B/01_redfox.jpg,html/resources/sequences_IDs/B/04_holdfast.jpg,1,4,1,1,2,1,1,3,0,90,,,,,,,,,,,,,,,,,,,,
,,,,,90,2020-07-04_11h08.23.724,retriever_ti,2020.1.3,MacIntel,60,Chrome,1280,800,,,,,,,,,,,,,,,,,2,,,,,,,,,,,,,,,,,,,,,,,,,,,730.08044,81,right,0.877625,gloves      ,3,6,-3,0,3,730.11695,730.11695,732.61412,0,3,3,3,1,81,6,3,calculator    ,gloves      ,html/resources/sequences_IDs/A/09_calculator.jpg,html/resources/sequences_IDs/B/06_gloves.jpg,9,6,4,2,3,2,8,5,0,90,,,,,,,,,,,,,,,,,,,,
,,,,,90,2020-07-04_11h08.23.724,retriever_ti,2020.1.3,MacIntel,60,Chrome,1280,800,,,,,,,,,,,,,,,,,2,,,,,,,,,,,,,,,,,,,,,,,,,,,733.232565,82,left,1.09345,seaturtle     ,2,2,-3,0,3,733.264395,733.264395,735.7641,0,4,4,4,1,82,2,5,seaturtle     ,holdfast    ,html/resources/sequences_IDs/A/02_seaturtle.jpg,html/resources/sequences_IDs/B/04_holdfast.jpg,2,4,2,1,2,1,2,3,0,90,,,,,,,,,,,,,,,,,,,,
,,,,,90,2020-07-04_11h08.23.724,retriever_ti,2020.1.3,MacIntel,60,Chrome,1280,800,,,,,,,,,,,,,,,,,2,,,,,,,,,,,,,,,,,,,,,,,,,,,736.3659,83,left,0.823655,peacock       ,8,5,7,1,3,736.401525,736.401525,738.89953,0,5,5,5,1,83,8,1,peacock       ,redfox      ,html/resources/sequences_IDs/A/05_peacock.jpg,html/resources/sequences_IDs/B/01_redfox.jpg,5,1,2,1,1,1,4,1,0,90,,,,,,,,,,,,,,,,,,,,
,,,,,90,2020-07-04_11h08.23.724,retriever_ti,2020.1.3,MacIntel,60,Chrome,1280,800,,,,,,,,,,,,,,,,,2,,,,,,,,,,,,,,,,,,,,,,,,,,,739.50097,84,left,0.93665,holdfast    ,5,4,-1,0,1,739.51969,739.51969,742.01732,0,6,6,6,1,84,5,6,holdfast    ,calculator    ,html/resources/sequences_IDs/B/04_holdfast.jpg,html/resources/sequences_IDs/A/09_calculator.jpg,4,9,2,1,4,2,3,8,1,90,,,,,,,,,,,,,,,,,,,,
,,,,,90,2020-07-04_11h08.23.724,retriever_ti,2020.1.3,MacIntel,60,Chrome,1280,800,,,,,,,,,,,,,,,,,2,,,,,,,,,,,,,,,,,,,,,,,,,,,743.120145,85,left,1.63313,dress         ,4,7,-3,0,3,743.13775,743.13775,745.636375,0,7,7,7,1,85,4,7,dress         ,slipper     ,html/resources/sequences_IDs/A/07_dress.jpg,html/resources/sequences_IDs/B/08_slipper.jpg,7,8,3,2,3,2,6,7,0,90,,,,,,,,,,,,,,,,,,,,
,,,,,90,2020-07-04_11h08.23.724,retriever_ti,2020.1.3,MacIntel,60,Chrome,1280,800,,,,,,,,,,,,,,,,,2,,,,,,,,,,,,,,,,,,,,,,,,,,,746.2558,86,right,1.18673,gloves      ,3,6,-2,0,3,746.287675,746.287675,748.787235,0,8,8,8,1,86,5,3,holdfast    ,gloves      ,html/resources/sequences_IDs/B/04_holdfast.jpg,html/resources/sequences_IDs/B/06_gloves.jpg,4,6,2,1,3,2,3,5,0,90,,,,,,,,,,,,,,,,,,,,
,,,,,90,2020-07-04_11h08.23.724,retriever_ti,2020.1.3,MacIntel,60,Chrome,1280,800,,,,,,,,,,,,,,,,,2,,,,,,,,,,,,,,,,,,,,,,,,,,,749.388005,87,left,1.14782,seaturtle     ,2,2,-1,0,1,749.423265,749.423265,751.922605,0,9,9,9,1,87,2,3,seaturtle     ,gloves      ,html/resources/sequences_IDs/A/02_seaturtle.jpg,html/resources/sequences_IDs/B/06_gloves.jpg,2,6,2,1,3,2,2,5,1,90,,,,,,,,,,,,,,,,,,,,
,,,,,90,2020-07-04_11h08.23.724,retriever_ti,2020.1.3,MacIntel,60,Chrome,1280,800,,,,,,,,,,,,,,,,,2,,,,,,,,,,,,,,,,,,,,,,,,,,,753.02528,88,left,0.895405,seaturtle     ,2,2,-6,0,3,753.041565,753.041565,755.54145,0,10,10,10,1,88,2,8,seaturtle     ,peacock       ,html/resources/sequences_IDs/A/02_seaturtle.jpg,html/resources/sequences_IDs/A/05_peacock.jpg,2,5,2,1,2,1,2,4,0,90,,,,,,,,,,,,,,,,,,,,
,,,,,90,2020-07-04_11h08.23.724,retriever_ti,2020.1.3,MacIntel,60,Chrome,1280,800,,,,,,,,,,,,,,,,,2,,,,,,,,,,,,,,,,,,,,,,,,,,,756.158955,89,left,1.176965,holdfast    ,5,4,-1,0,0,756.19326,756.19326,758.69249,0,11,11,11,1,89,5,6,holdfast    ,calculator    ,html/resources/sequences_IDs/B/04_holdfast.jpg,html/resources/sequences_IDs/A/09_calculator.jpg,4,9,2,1,4,2,3,8,0,90,,,,,,,,,,,,,,,,,,,,
,,,,,90,2020-07-04_11h08.23.724,retriever_ti,2020.1.3,MacIntel,60,Chrome,1280,800,,,,,,,,,,,,,,,,,2,,,,,,,,,,,,,,,,,,,,,,,,,,,759.793565,90,right,0.897355,dress         ,4,7,1,1,1,759.828995,759.828995,762.32798,0,12,12,12,1,90,3,4,gloves      ,dress         ,html/resources/sequences_IDs/B/06_gloves.jpg,html/resources/sequences_IDs/A/07_dress.jpg,6,7,3,2,3,2,5,6,0,90,,,,,,,,,,,,,,,,,,,,
,,,,,90,2020-07-04_11h08.23.724,retriever_ti,2020.1.3,MacIntel,60,Chrome,1280,800,,,,,,,,,,,,,,,,,2,,,,,,,,,,,,,,,,,,,,,,,,,,,763.4297,91,right,1.77144,redfox      ,1,1,-5,0,3,763.446675,763.446675,765.94647,0,13,13,13,1,91,6,1,calculator    ,redfox      ,html/resources/sequences_IDs/A/09_calculator.jpg,html/resources/sequences_IDs/B/01_redfox.jpg,9,1,4,2,1,1,8,1,0,90,,,,,,,,,,,,,,,,,,,,
,,,,,90,2020-07-04_11h08.23.724,retriever_ti,2020.1.3,MacIntel,60,Chrome,1280,800,,,,,,,,,,,,,,,,,2,,,,,,,,,,,,,,,,,,,,,,,,,,,766.549945,92,right,1.278205,redfox      ,1,1,-4,0,3,766.580005,766.580005,769.081165,0,14,14,14,1,92,5,1,holdfast    ,redfox      ,html/resources/sequences_IDs/B/04_holdfast.jpg,html/resources/sequences_IDs/B/01_redfox.jpg,4,1,2,1,1,1,3,1,0,90,,,,,,,,,,,,,,,,,,,,
,,,,,90,2020-07-04_11h08.23.724,retriever_ti,2020.1.3,MacIntel,60,Chrome,1280,800,,,,,,,,,,,,,,,,,2,,,,,,,,,,,,,,,,,,,,,,,,,,,769.68632,93,left,0.77891,dress         ,4,7,-1,0,0,769.715285,769.715285,772.215985,0,15,15,15,1,93,4,5,dress         ,holdfast    ,html/resources/sequences_IDs/A/07_dress.jpg,html/resources/sequences_IDs/B/04_holdfast.jpg,7,4,3,2,2,1,6,3,0,90,,,,,,,,,,,,,,,,,,,,
,,,,,90,2020-07-04_11h08.23.724,retriever_ti,2020.1.3,MacIntel,60,Chrome,1280,800,,,,,,,,,,,,,,,,,2,,,,,,,,,,,,,,,,,,,,,,,,,,,773.31688,94,left,1.012515,slipper     ,7,8,5,1,3,773.336025,773.336025,775.83352,0,16,16,16,1,94,7,2,slipper     ,seaturtle     ,html/resources/sequences_IDs/B/08_slipper.jpg,html/resources/sequences_IDs/A/02_seaturtle.jpg,8,2,3,2,2,1,7,2,0,90,,,,,,,,,,,,,,,,,,,,
,,,,,90,2020-07-04_11h08.23.724,retriever_ti,2020.1.3,MacIntel,60,Chrome,1280,800,,,,,,,,,,,,,,,,,2,,,,,,,,,,,,,,,,,,,,,,,,,,,776.43606,95,right,0.84403,seaturtle     ,2,2,1,1,1,776.46946,776.46946,778.969175,0,17,17,17,1,95,1,2,redfox      ,seaturtle     ,html/resources/sequences_IDs/B/01_redfox.jpg,html/resources/sequences_IDs/A/02_seaturtle.jpg,1,2,1,1,2,1,1,2,0,90,,,,,,,,,,,,,,,,,,,,
,,,,,90,2020-07-04_11h08.23.724,retriever_ti,2020.1.3,MacIntel,60,Chrome,1280,800,,,,,,,,,,,,,,,,,2,,,,,,,,,,,,,,,,,,,,,,,,,,,780.069925,96,right,0.818795,seaturtle     ,2,2,1,1,0,780.10458,780.10458,782.606225,0,18,18,18,1,96,1,2,redfox      ,seaturtle     ,html/resources/sequences_IDs/B/01_redfox.jpg,html/resources/sequences_IDs/A/02_seaturtle.jpg,1,2,1,1,2,1,1,2,1,90,,,,,,,,,,,,,,,,,,,,
,,,,,90,2020-07-04_11h08.23.724,retriever_ti,2020.1.3,MacIntel,60,Chrome,1280,800,,,,,,,,,,,,,,,,,2,,,,,,,,,,,,,,,,,,,,,,,,,,,783.70653,97,left,0.71114,seaturtle     ,2,2,-4,0,3,783.7239,783.7239,786.22158,0,19,19,19,1,97,2,6,seaturtle     ,calculator    ,html/resources/sequences_IDs/A/02_seaturtle.jpg,html/resources/sequences_IDs/A/09_calculator.jpg,2,9,2,1,4,2,2,8,0,90,,,,,,,,,,,,,,,,,,,,
,,,,,90,2020-07-04_11h08.23.724,retriever_ti,2020.1.3,MacIntel,60,Chrome,1280,800,,,,,,,,,,,,,,,,,2,,,,,,,,,,,,,,,,,,,,,,,,,,,786.8234,98,right,0.76383,gloves      ,3,6,1,1,1,786.858015,786.858015,789.356985,0,20,20,20,1,98,2,3,seaturtle     ,gloves      ,html/resources/sequences_IDs/A/02_seaturtle.jpg,html/resources/sequences_IDs/B/06_gloves.jpg,2,6,2,1,3,2,2,5,0,90,,,,,,,,,,,,,,,,,,,,
,,,,,90,2020-07-04_11h08.23.724,retriever_ti,2020.1.3,MacIntel,60,Chrome,1280,800,,,,,,,,,,,,,,,,,2,,,,,,,,,,,,,,,,,,,,,,,,,,,790.459125,99,right,0.680935,gloves      ,3,6,2,1,3,790.492455,790.492455,792.992455,0,21,21,21,1,99,1,3,redfox      ,gloves      ,html/resources/sequences_IDs/B/01_redfox.jpg,html/resources/sequences_IDs/B/06_gloves.jpg,1,6,1,1,3,2,1,5,0,90,,,,,,,,,,,,,,,,,,,,
,,,,,90,2020-07-04_11h08.23.724,retriever_ti,2020.1.3,MacIntel,60,Chrome,1280,800,,,,,,,,,,,,,,,,,2,,,,,,,,,,,,,,,,,,,,,,,,,,,793.60971,100,right,1.15809,seaturtle     ,2,2,-4,0,3,793.6273,793.6273,796.127095,0,22,22,22,1,100,6,2,calculator    ,seaturtle     ,html/resources/sequences_IDs/A/09_calculator.jpg,html/resources/sequences_IDs/A/02_seaturtle.jpg,9,2,4,2,2,1,8,2,0,90,,,,,,,,,,,,,,,,,,,,
,,,,,90,2020-07-04_11h08.23.724,retriever_ti,2020.1.3,MacIntel,60,Chrome,1280,800,,,,,,,,,,,,,,,,,2,,,,,,,,,,,,,,,,,,,,,,,,,,,796.72939,101,left,0.78148,peacock       ,8,5,6,1,3,796.746185,796.746185,799.245185,0,23,23,23,1,101,8,2,peacock       ,seaturtle     ,html/resources/sequences_IDs/A/05_peacock.jpg,html/resources/sequences_IDs/A/02_seaturtle.jpg,5,2,2,1,2,1,4,2,0,90,,,,,,,,,,,,,,,,,,,,
,,,,,90,2020-07-04_11h08.23.724,retriever_ti,2020.1.3,MacIntel,60,Chrome,1280,800,,,,,,,,,,,,,,,,,2,,,,,,,,,,,,,,,,,,,,,,,,,,,799.846405,102,left,0.811455,gloves      ,3,6,1,1,1,799.863225,799.863225,802.36334,0,24,24,24,1,102,3,2,gloves      ,seaturtle     ,html/resources/sequences_IDs/B/06_gloves.jpg,html/resources/sequences_IDs/A/02_seaturtle.jpg,6,2,3,2,2,1,5,2,0,90,,,,,,,,,,,,,,,,,,,,
,,,,,90,2020-07-04_11h08.23.724,retriever_ti,2020.1.3,MacIntel,60,Chrome,1280,800,,,,,,,,,,,,,,,,,2,,,,,,,,,,,,,,,,,,,,,,,,,,,803.46594,103,right,1.179705,seaturtle     ,2,2,-1,0,0,803.500575,803.500575,805.997545,0,25,25,25,1,103,3,2,gloves      ,seaturtle     ,html/resources/sequences_IDs/B/06_gloves.jpg,html/resources/sequences_IDs/A/02_seaturtle.jpg,6,2,3,2,2,1,5,2,0,90,,,,,,,,,,,,,,,,,,,,
,,,,,90,2020-07-04_11h08.23.724,retriever_ti,2020.1.3,MacIntel,60,Chrome,1280,800,,,,,,,,,,,,,,,,,2,,,,,,,,,,,,,,,,,,,,,,,,,,,807.100755,104,left,1.461965,holdfast    ,5,4,-3,0,3,807.118,807.118,809.616095,0,26,26,26,1,104,5,8,holdfast    ,peacock       ,html/resources/sequences_IDs/B/04_holdfast.jpg,html/resources/sequences_IDs/A/05_peacock.jpg,4,5,2,1,2,1,3,4,0,90,,,,,,,,,,,,,,,,,,,,
,,,,,90,2020-07-04_11h08.23.724,retriever_ti,2020.1.3,MacIntel,60,Chrome,1280,800,,,,,,,,,,,,,,,,,2,,,,,,,,,,,,,,,,,,,,,,,,,,,810.2179,105,right,0.83343,holdfast    ,5,4,-1,0,0,810.23825,810.23825,812.73501,0,27,27,27,1,105,6,5,calculator    ,holdfast    ,html/resources/sequences_IDs/A/09_calculator.jpg,html/resources/sequences_IDs/B/04_holdfast.jpg,9,4,4,2,2,1,8,3,0,90,,,,,,,,,,,,,,,,,,,,
,,,,,90,2020-07-04_11h08.23.724,retriever_ti,2020.1.3,MacIntel,60,Chrome,1280,800,,,,,,,,,,,,,,,,,2,,,,,,,,,,,,,,,,,,,,,,,,,,,813.837335,106,left,0.754335,peacock       ,8,5,1,1,1,813.86958,813.86958,816.36984,0,28,28,28,1,106,8,7,peacock       ,slipper     ,html/resources/sequences_IDs/A/05_peacock.jpg,html/resources/sequences_IDs/B/08_slipper.jpg,5,8,2,1,3,2,4,7,0,90,,,,,,,,,,,,,,,,,,,,
,,,,,90,2020-07-04_11h08.23.724,retriever_ti,2020.1.3,MacIntel,60,Chrome,1280,800,,,,,,,,,,,,,,,,,2,,,,,,,,,,,,,,,,,,,,,,,,,,,817.472415,107,left,0.714935,gloves      ,3,6,-5,0,3,817.50667,817.50667,820.004255,0,29,29,29,1,107,3,8,gloves      ,peacock       ,html/resources/sequences_IDs/B/06_gloves.jpg,html/resources/sequences_IDs/A/05_peacock.jpg,6,5,3,2,2,1,5,4,0,90,,,,,,,,,,,,,,,,,,,,
,,,,,90,2020-07-04_11h08.23.724,retriever_ti,2020.1.3,MacIntel,60,Chrome,1280,800,,,,,,,,,,,,,,,,,2,,,,,,,,,,,,,,,,,,,,,,,,,,,820.60756,108,left,1.042995,seaturtle     ,2,2,1,1,1,820.64212,820.64212,823.14014,0,30,30,30,1,108,2,1,seaturtle     ,redfox      ,html/resources/sequences_IDs/A/02_seaturtle.jpg,html/resources/sequences_IDs/B/01_redfox.jpg,2,1,2,1,1,1,2,1,0,90,,,,,,,,,,,,,,,,,,,,
,,,,,90,2020-07-04_11h08.23.724,retriever_ti,2020.1.3,MacIntel,60,Chrome,1280,800,,,,,,,,,,,,,,,,,2,,,,,,,,,,,,,,,,,,,,,,,,,,,824.241795,109,right,0.73277,slipper     ,7,8,2,1,3,824.276735,824.276735,826.77478,0,31,31,31,1,109,5,7,holdfast    ,slipper     ,html/resources/sequences_IDs/B/04_holdfast.jpg,html/resources/sequences_IDs/B/08_slipper.jpg,4,8,2,1,3,2,3,7,0,90,,,,,,,,,,,,,,,,,,,,
,,,,,90,2020-07-04_11h08.23.724,retriever_ti,2020.1.3,MacIntel,60,Chrome,1280,800,,,,,,,,,,,,,,,,,2,,,,,,,,,,,,,,,,,,,,,,,,,,,827.377085,110,right,0.82855,peacock       ,8,5,2,1,3,827.41015,827.41015,829.90957,0,32,32,32,1,110,6,8,calculator    ,peacock       ,html/resources/sequences_IDs/A/09_calculator.jpg,html/resources/sequences_IDs/A/05_peacock.jpg,9,5,4,2,2,1,8,4,0,90,,,,,,,,,,,,,,,,,,,,
,,,,,90,2020-07-04_11h08.23.724,retriever_ti,2020.1.3,MacIntel,60,Chrome,1280,800,,,,,,,,,,,,,,,,,2,,,,,,,,,,,,,,,,,,,,,,,,,,,830.51176,111,left,1.07637,redfox      ,1,1,-6,0,3,830.546245,830.546245,833.044925,0,33,33,33,1,111,1,7,redfox      ,slipper     ,html/resources/sequences_IDs/B/01_redfox.jpg,html/resources/sequences_IDs/B/08_slipper.jpg,1,8,1,1,3,2,1,7,0,90,,,,,,,,,,,,,,,,,,,,
,,,,,90,2020-07-04_11h08.23.724,retriever_ti,2020.1.3,MacIntel,60,Chrome,1280,800,,,,,,,,,,,,,,,,,2,,,,,,,,,,,,,,,,,,,,,,,,,,,833.662775,112,left,1.0538,holdfast    ,5,4,3,1,3,833.69552,833.69552,836.195955,0,34,34,34,1,112,5,2,holdfast    ,seaturtle     ,html/resources/sequences_IDs/B/04_holdfast.jpg,html/resources/sequences_IDs/A/02_seaturtle.jpg,4,2,2,1,2,1,3,2,0,90,,,,,,,,,,,,,,,,,,,,
,,,,,90,2020-07-04_11h08.23.724,retriever_ti,2020.1.3,MacIntel,60,Chrome,1280,800,,,,,,,,,,,,,,,,,2,,,,,,,,,,,,,,,,,,,,,,,,,,,836.798725,113,right,0.669975,holdfast    ,5,4,-2,0,3,836.814635,836.814635,839.31404,0,35,35,35,1,113,7,5,slipper     ,holdfast    ,html/resources/sequences_IDs/B/08_slipper.jpg,html/resources/sequences_IDs/B/04_holdfast.jpg,8,4,3,2,2,1,7,3,0,90,,,,,,,,,,,,,,,,,,,,
,,,,,90,2020-07-04_11h08.23.724,retriever_ti,2020.1.3,MacIntel,60,Chrome,1280,800,,,,,,,,,,,,,,,,,2,,,,,,,,,,,,,,,,,,,,,,,,,,,839.93237,114,left,0.917205,peacock       ,8,5,3,1,3,839.96593,839.96593,842.466175,0,36,36,36,1,114,8,5,peacock       ,holdfast    ,html/resources/sequences_IDs/A/05_peacock.jpg,html/resources/sequences_IDs/B/04_holdfast.jpg,5,4,2,1,2,1,4,3,0,90,,,,,,,,,,,,,,,,,,,,
,,,,,90,2020-07-04_11h08.23.724,retriever_ti,2020.1.3,MacIntel,60,Chrome,1280,800,,,,,,,,,,,,,,,,,2,,,,,,,,,,,,,,,,,,,,,,,,,,,843.084685,115,right,0.71912,dress         ,4,7,-1,0,1,843.100965,843.100965,845.60038,0,37,37,37,1,115,5,4,holdfast    ,dress         ,html/resources/sequences_IDs/B/04_holdfast.jpg,html/resources/sequences_IDs/A/07_dress.jpg,4,7,2,1,3,2,3,6,1,90,,,,,,,,,,,,,,,,,,,,
,,,,,90,2020-07-04_11h08.23.724,retriever_ti,2020.1.3,MacIntel,60,Chrome,1280,800,,,,,,,,,,,,,,,,,2,,,,,,,,,,,,,,,,,,,,,,,,,,,846.702465,116,left,0.7729,slipper     ,7,8,1,1,1,846.720455,846.720455,849.218205,0,38,38,38,1,116,7,6,slipper     ,calculator    ,html/resources/sequences_IDs/B/08_slipper.jpg,html/resources/sequences_IDs/A/09_calculator.jpg,8,9,3,2,4,2,7,8,0,90,,,,,,,,,,,,,,,,,,,,
,,,,,90,2020-07-04_11h08.23.724,retriever_ti,2020.1.3,MacIntel,60,Chrome,1280,800,,,,,,,,,,,,,,,,,2,,,,,,,,,,,,,,,,,,,,,,,,,,,850.32542,117,left,0.575695,redfox      ,1,1,-3,0,3,850.33904,850.33904,852.836845,0,39,39,39,1,117,1,4,redfox      ,dress         ,html/resources/sequences_IDs/B/01_redfox.jpg,html/resources/sequences_IDs/A/07_dress.jpg,1,7,1,1,3,2,1,6,0,90,,,,,,,,,,,,,,,,,,,,
,,,,,90,2020-07-04_11h08.23.724,retriever_ti,2020.1.3,MacIntel,60,Chrome,1280,800,,,,,,,,,,,,,,,,,2,,,,,,,,,,,,,,,,,,,,,,,,,,,853.439785,118,right,0.73616,slipper     ,7,8,1,1,1,853.475155,853.475155,855.971895,0,40,40,40,1,118,6,7,calculator    ,slipper     ,html/resources/sequences_IDs/A/09_calculator.jpg,html/resources/sequences_IDs/B/08_slipper.jpg,9,8,4,2,3,2,8,7,0,90,,,,,,,,,,,,,,,,,,,,
,,,,,90,2020-07-04_11h08.23.724,retriever_ti,2020.1.3,MacIntel,60,Chrome,1280,800,,,,,,,,,,,,,,,,,2,,,,,,,,,,,,,,,,,,,,,,,,,,,857.07317,119,left,0.607655,redfox      ,1,1,-1,0,0,857.09141,857.09141,859.590355,0,41,41,41,1,119,1,2,redfox      ,seaturtle     ,html/resources/sequences_IDs/B/01_redfox.jpg,html/resources/sequences_IDs/A/02_seaturtle.jpg,1,2,1,1,2,1,1,2,0,90,,,,,,,,,,,,,,,,,,,,
,,,,,90,2020-07-04_11h08.23.724,retriever_ti,2020.1.3,MacIntel,60,Chrome,1280,800,,,,,,,,,,,,,,,,,2,,,,,,,,,,,,,,,,,,,,,,,,,,,860.6929,120,left,0.54447,holdfast    ,5,4,1,1,1,860.709935,860.709935,863.209525,0,42,42,42,1,120,5,4,holdfast    ,dress         ,html/resources/sequences_IDs/B/04_holdfast.jpg,html/resources/sequences_IDs/A/07_dress.jpg,4,7,2,1,3,2,3,6,0,90,,,,,,,,,,,,,,,,,,,,
,,,,,90,2020-07-04_11h08.23.724,retriever_ti,2020.1.3,MacIntel,60,Chrome,1280,800,,,,,,,,,,,,,,,,,2,,,,,,,,,,,,,,,,,,,,,,,,,,,864.31048,121,left,0.955825,dress         ,4,7,-4,0,3,864.328635,864.328635,866.8277,0,43,43,43,1,121,4,8,dress         ,peacock       ,html/resources/sequences_IDs/A/07_dress.jpg,html/resources/sequences_IDs/A/05_peacock.jpg,7,5,3,2,2,1,6,4,0,90,,,,,,,,,,,,,,,,,,,,
,,,,,90,2020-07-04_11h08.23.724,retriever_ti,2020.1.3,MacIntel,60,Chrome,1280,800,,,,,,,,,,,,,,,,,2,,,,,,,,,,,,,,,,,,,,,,,,,,,867.4464,122,right,1.927615,seaturtle     ,2,2,-2,0,3,867.46225,867.46225,869.961805,0,44,44,44,1,122,4,2,dress         ,seaturtle     ,html/resources/sequences_IDs/A/07_dress.jpg,html/resources/sequences_IDs/A/02_seaturtle.jpg,7,2,3,2,2,1,6,2,0,90,,,,,,,,,,,,,,,,,,,,
,,,,,90,2020-07-04_11h08.23.724,retriever_ti,2020.1.3,MacIntel,60,Chrome,1280,800,,,,,,,,,,,,,,,,,2,,,,,,,,,,,,,,,,,,,,,,,,,,,870.581475,123,left,1.28831,gloves      ,3,6,-3,0,3,870.598085,870.598085,873.096835,0,45,45,45,1,123,3,6,gloves      ,calculator    ,html/resources/sequences_IDs/B/06_gloves.jpg,html/resources/sequences_IDs/A/09_calculator.jpg,6,9,3,2,4,2,5,8,0,90,,,,,,,,,,,,,,,,,,,,
,,,,,90,2020-07-04_11h08.23.724,retriever_ti,2020.1.3,MacIntel,60,Chrome,1280,800,,,,,,,,,,,,,,,,,2,,,,,,,,,,,,,,,,,,,,,,,,,,,873.69823,124,right,0.804145,dress         ,4,7,2,1,3,873.732135,873.732135,876.23171,0,46,46,46,1,124,2,4,seaturtle     ,dress         ,html/resources/sequences_IDs/A/02_seaturtle.jpg,html/resources/sequences_IDs/A/07_dress.jpg,2,7,2,1,3,2,2,6,0,90,,,,,,,,,,,,,,,,,,,,
,,,,,90,2020-07-04_11h08.23.724,retriever_ti,2020.1.3,MacIntel,60,Chrome,1280,800,,,,,,,,,,,,,,,,,2,,,,,,,,,,,,,,,,,,,,,,,,,,,876.83393,125,left,0.786525,dress         ,4,7,1,1,1,876.86764,876.86764,879.36649,0,47,47,47,1,125,4,3,dress         ,gloves      ,html/resources/sequences_IDs/A/07_dress.jpg,html/resources/sequences_IDs/B/06_gloves.jpg,7,6,3,2,3,2,6,5,0,90,,,,,,,,,,,,,,,,,,,,
,,,,,90,2020-07-04_11h08.23.724,retriever_ti,2020.1.3,MacIntel,60,Chrome,1280,800,,,,,,,,,,,,,,,,,2,,,,,,,,,,,,,,,,,,,,,,,,,,,880.467315,126,left,0.71568,dress         ,4,7,3,1,3,880.486565,880.486565,882.98507,0,48,48,48,1,126,4,1,dress         ,redfox      ,html/resources/sequences_IDs/A/07_dress.jpg,html/resources/sequences_IDs/B/01_redfox.jpg,7,1,3,2,1,1,6,1,0,90,,,,,,,,,,,,,,,,,,,,
,,,,,90,2020-07-04_11h08.23.724,retriever_ti,2020.1.3,MacIntel,60,Chrome,1280,800,,,,,,,,,,,,,,,,,2,,,,,,,,,,,,,,,,,,,,,,,,,,,883.5858,127,right,0.96093,calculator    ,6,9,5,1,3,883.619175,883.619175,886.119715,0,49,49,49,1,127,1,6,redfox      ,calculator    ,html/resources/sequences_IDs/B/01_redfox.jpg,html/resources/sequences_IDs/A/09_calculator.jpg,1,9,1,1,4,2,1,8,0,90,,,,,,,,,,,,,,,,,,,,
,,,,,90,2020-07-04_11h08.23.724,retriever_ti,2020.1.3,MacIntel,60,Chrome,1280,800,,,,,,,,,,,,,,,,,2,,,,,,,,,,,,,,,,,,,,,,,,,,,886.72178,128,left,1.288655,calculator    ,6,9,-1,0,0,886.75446,886.75446,889.25464,0,50,50,50,1,128,6,7,calculator    ,slipper     ,html/resources/sequences_IDs/A/09_calculator.jpg,html/resources/sequences_IDs/B/08_slipper.jpg,9,8,4,2,3,2,8,7,0,90,,,,,,,,,,,,,,,,,,,,
,,,,,90,2020-07-04_11h08.23.724,retriever_ti,2020.1.3,MacIntel,60,Chrome,1280,800,,,,,,,,,,,,,,,,,2,,,,,,,,,,,,,,,,,,,,,,,,,,,890.356195,129,right,0.7242,dress         ,4,7,-1,0,0,890.39157,890.39157,892.889505,0,51,51,51,1,129,5,4,holdfast    ,dress         ,html/resources/sequences_IDs/B/04_holdfast.jpg,html/resources/sequences_IDs/A/07_dress.jpg,4,7,2,1,3,2,3,6,0,90,,,,,,,,,,,,,,,,,,,,
,,,,,90,2020-07-04_11h08.23.724,retriever_ti,2020.1.3,MacIntel,60,Chrome,1280,800,,,,,,,,,,,,,,,,,2,,,,,,,,,,,,,,,,,,,,,,,,,,,893.991685,130,right,0.70296,peacock       ,8,5,1,1,1,894.02659,894.02659,896.52395,0,52,52,52,1,130,7,8,slipper     ,peacock       ,html/resources/sequences_IDs/B/08_slipper.jpg,html/resources/sequences_IDs/A/05_peacock.jpg,8,5,3,2,2,1,7,4,0,90,,,,,,,,,,,,,,,,,,,,
,,,,,90,2020-07-04_11h08.23.724,retriever_ti,2020.1.3,MacIntel,60,Chrome,1280,800,,,,,,,,,,,,,,,,,2,,,,,,,,,,,,,,,,,,,,,,,,,,,897.6269,131,left,0.696875,gloves      ,3,6,-2,0,3,897.661635,897.661635,900.159075,0,53,53,53,1,131,3,5,gloves      ,holdfast    ,html/resources/sequences_IDs/B/06_gloves.jpg,html/resources/sequences_IDs/B/04_holdfast.jpg,6,4,3,2,2,1,5,3,0,90,,,,,,,,,,,,,,,,,,,,
,,,,,90,2020-07-04_11h08.23.724,retriever_ti,2020.1.3,MacIntel,60,Chrome,1280,800,,,,,,,,,,,,,,,,,2,,,,,,,,,,,,,,,,,,,,,,,,,,,900.76195,132,right,0.726805,gloves      ,3,6,-5,0,3,900.77909,900.77909,903.278,0,54,54,54,1,132,8,3,peacock       ,gloves      ,html/resources/sequences_IDs/A/05_peacock.jpg,html/resources/sequences_IDs/B/06_gloves.jpg,5,6,2,1,3,2,4,5,0,90,,,,,,,,,,,,,,,,,,,,
,,,,,90,2020-07-04_11h08.23.724,retriever_ti,2020.1.3,MacIntel,60,Chrome,1280,800,,,,,,,,,,,,,,,,,2,,,,,,,,,,,,,,,,,,,,,,,,,,,903.87873,133,left,0.842135,redfox      ,1,1,-7,0,3,903.913935,903.913935,906.41173,0,55,55,55,1,133,1,8,redfox      ,peacock       ,html/resources/sequences_IDs/B/01_redfox.jpg,html/resources/sequences_IDs/A/05_peacock.jpg,1,5,1,1,2,1,1,4,0,90,,,,,,,,,,,,,,,,,,,,
,,,,,90,2020-07-04_11h08.23.724,retriever_ti,2020.1.3,MacIntel,60,Chrome,1280,800,,,,,,,,,,,,,,,,,2,,,,,,,,,,,,,,,,,,,,,,,,,,,907.01502,134,left,0.69173,peacock       ,8,5,1,1,1,907.03171,907.03171,909.530085,0,56,56,56,1,134,8,7,peacock       ,slipper     ,html/resources/sequences_IDs/A/05_peacock.jpg,html/resources/sequences_IDs/B/08_slipper.jpg,5,8,2,1,3,2,4,7,0,90,,,,,,,,,,,,,,,,,,,,
,,,,,90,2020-07-04_11h08.23.724,retriever_ti,2020.1.3,MacIntel,60,Chrome,1280,800,,,,,,,,,,,,,,,,,2,,,,,,,,,,,,,,,,,,,,,,,,,,,910.633345,135,right,0.94927,dress         ,4,7,-3,0,3,910.66819,910.66819,913.166135,0,57,57,57,1,135,7,4,slipper     ,dress         ,html/resources/sequences_IDs/B/08_slipper.jpg,html/resources/sequences_IDs/A/07_dress.jpg,8,7,3,2,3,2,7,6,0,90,,,,,,,,,,,,,,,,,,,,
,,,,,90,2020-07-04_11h08.23.724,retriever_ti,2020.1.3,MacIntel,60,Chrome,1280,800,,,,,,,,,,,,,,,,,2,,,,,,,,,,,,,,,,,,,,,,,,,,,913.76755,136,right,0.71823,dress         ,4,7,-4,0,3,913.785605,913.785605,916.2836,0,58,58,58,1,136,8,4,peacock       ,dress         ,html/resources/sequences_IDs/A/05_peacock.jpg,html/resources/sequences_IDs/A/07_dress.jpg,5,7,2,1,3,2,4,6,0,90,,,,,,,,,,,,,,,,,,,,
,,,,,90,2020-07-04_11h08.23.724,retriever_ti,2020.1.3,MacIntel,60,Chrome,1280,800,,,,,,,,,,,,,,,,,2,,,,,,,,,,,,,,,,,,,,,,,,,,,916.88598,137,right,0.96924,calculator    ,6,9,-2,0,3,916.9209,916.9209,919.41852,0,59,59,59,1,137,8,6,peacock       ,calculator    ,html/resources/sequences_IDs/A/05_peacock.jpg,html/resources/sequences_IDs/A/09_calculator.jpg,5,9,2,1,4,2,4,8,0,90,,,,,,,,,,,,,,,,,,,,
,,,,,90,2020-07-04_11h08.23.724,retriever_ti,2020.1.3,MacIntel,60,Chrome,1280,800,,,,,,,,,,,,,,,,,2,,,,,,,,,,,,,,,,,,,,,,,,,,,920.01948,138,left,0.96848,gloves      ,3,6,2,1,3,920.053525,920.053525,922.55407,0,60,60,60,1,138,3,1,gloves      ,redfox      ,html/resources/sequences_IDs/B/06_gloves.jpg,html/resources/sequences_IDs/B/01_redfox.jpg,6,1,3,2,1,1,5,1,0,90,,,,,,,,,,,,,,,,,,,,
,,,,,90,2020-07-04_11h08.23.724,retriever_ti,2020.1.3,MacIntel,60,Chrome,1280,800,,,,,,,,,,,,,,,,,2,,,,,,,,,,,,,,,,,,,,,,,,,,,923.15616,139,right,1.18685,calculator    ,6,9,-1,0,0,923.189335,923.189335,925.68838,0,61,61,61,1,139,7,6,slipper     ,calculator    ,html/resources/sequences_IDs/B/08_slipper.jpg,html/resources/sequences_IDs/A/09_calculator.jpg,8,9,3,2,4,2,7,8,0,90,,,,,,,,,,,,,,,,,,,,
,,,,,90,2020-07-04_11h08.23.724,retriever_ti,2020.1.3,MacIntel,60,Chrome,1280,800,,,,,,,,,,,,,,,,,2,,,,,,,,,,,,,,,,,,,,,,,,,,,926.79121,140,right,1.059775,gloves      ,3,6,-4,0,3,926.80889,926.80889,929.306505,0,62,62,62,1,140,7,3,slipper     ,gloves      ,html/resources/sequences_IDs/B/08_slipper.jpg,html/resources/sequences_IDs/B/06_gloves.jpg,8,6,3,2,3,2,7,5,0,90,,,,,,,,,,,,,,,,,,,,
,,,,,90,2020-07-04_11h08.23.724,retriever_ti,2020.1.3,MacIntel,60,Chrome,1280,800,,,,,,,,,,,,,,,,,2,,,,,,,,,,,,,,,,,,,,,,,,,,,929.90758,141,left,0.81449,seaturtle     ,2,2,-5,0,3,929.94288,929.94288,932.442135,0,63,63,63,1,141,2,7,seaturtle     ,slipper     ,html/resources/sequences_IDs/A/02_seaturtle.jpg,html/resources/sequences_IDs/B/08_slipper.jpg,2,8,2,1,3,2,2,7,0,90,,,,,,,,,,,,,,,,,,,,
,,,,,90,2020-07-04_11h08.23.724,retriever_ti,2020.1.3,MacIntel,60,Chrome,1280,800,,,,,,,,,,,,,,,,,2,,,,,,,,,,,,,,,,,,,,,,,,,,,933.0451,142,right,0.802305,dress         ,4,7,1,1,0,933.061975,933.061975,935.559935,0,64,64,64,1,142,3,4,gloves      ,dress         ,html/resources/sequences_IDs/B/06_gloves.jpg,html/resources/sequences_IDs/A/07_dress.jpg,6,7,3,2,3,2,5,6,1,90,,,,,,,,,,,,,,,,,,,,
,,,,,90,2020-07-04_11h08.23.724,retriever_ti,2020.1.3,MacIntel,60,Chrome,1280,800,,,,,,,,,,,,,,,,,2,,,,,,,,,,,,,,,,,,,,,,,,,,,936.66072,143,left,1.047835,dress         ,4,7,-2,0,3,936.69536,936.69536,939.19521,0,65,65,65,1,143,4,6,dress         ,calculator    ,html/resources/sequences_IDs/A/07_dress.jpg,html/resources/sequences_IDs/A/09_calculator.jpg,7,9,3,2,4,2,6,8,0,90,,,,,,,,,,,,,,,,,,,,
,,,,,90,2020-07-04_11h08.23.724,retriever_ti,2020.1.3,MacIntel,60,Chrome,1280,800,,,,,,,,,,,,,,,,,2,,,,,,,,,,,,,,,,,,,,,,,,,,,939.811925,144,right,0.775745,redfox      ,1,1,-1,0,0,939.830465,939.830465,942.33026,0,66,66,66,1,144,2,1,seaturtle     ,redfox      ,html/resources/sequences_IDs/A/02_seaturtle.jpg,html/resources/sequences_IDs/B/01_redfox.jpg,2,1,2,1,1,1,2,1,0,90,,,,,,,,,,,,,,,,,,,,
,,,,,90,2020-07-04_11h08.23.724,retriever_ti,2020.1.3,MacIntel,60,Chrome,1280,800,,,,,,,,,,,,,,,,,2,,,,,,,,,,,,,,,,,,,,,,,,,,,943.43246,145,right,0.85149,calculator    ,6,9,-1,0,1,943.46445,943.46445,945.964105,0,67,67,67,1,145,7,6,slipper     ,calculator    ,html/resources/sequences_IDs/B/08_slipper.jpg,html/resources/sequences_IDs/A/09_calculator.jpg,8,9,3,2,4,2,7,8,1,90,,,,,,,,,,,,,,,,,,,,
,,,,,90,2020-07-04_11h08.23.724,retriever_ti,2020.1.3,MacIntel,60,Chrome,1280,800,,,,,,,,,,,,,,,,,2,,,,,,,,,,,,,,,,,,,,,,,,,,,947.06717,146,left,0.62218,gloves      ,3,6,-4,0,3,947.10149,947.10149,949.59902,0,68,68,68,1,146,3,7,gloves      ,slipper     ,html/resources/sequences_IDs/B/06_gloves.jpg,html/resources/sequences_IDs/B/08_slipper.jpg,6,8,3,2,3,2,5,7,0,90,,,,,,,,,,,,,,,,,,,,
,,,,,90,2020-07-04_11h08.23.724,retriever_ti,2020.1.3,MacIntel,60,Chrome,1280,800,,,,,,,,,,,,,,,,,2,,,,,,,,,,,,,,,,,,,,,,,,,,,950.20096,147,left,0.57814,seaturtle     ,2,2,-1,0,0,950.234655,950.234655,952.7345,0,69,69,69,1,147,2,3,seaturtle     ,gloves      ,html/resources/sequences_IDs/A/02_seaturtle.jpg,html/resources/sequences_IDs/B/06_gloves.jpg,2,6,2,1,3,2,2,5,0,90,,,,,,,,,,,,,,,,,,,,
,,,,,90,2020-07-04_11h08.23.724,retriever_ti,2020.1.3,MacIntel,60,Chrome,1280,800,,,,,,,,,,,,,,,,,2,,,,,,,,,,,,,,,,,,,,,,,,,,,953.837545,148,left,0.502825,holdfast    ,5,4,-1,0,0,953.854305,953.854305,956.35349,0,70,70,70,1,148,5,6,holdfast    ,calculator    ,html/resources/sequences_IDs/B/04_holdfast.jpg,html/resources/sequences_IDs/A/09_calculator.jpg,4,9,2,1,4,2,3,8,0,90,,,,,,,,,,,,,,,,,,,,
,,,,,90,2020-07-04_11h08.23.724,retriever_ti,2020.1.3,MacIntel,60,Chrome,1280,800,,,,,,,,,,,,,,,,,2,,,,,,,,,,,,,,,,,,,,,,,,,,,957.456055,149,left,0.86318,dress         ,4,7,1,1,1,957.471575,957.471575,959.971835,0,71,71,71,1,149,4,3,dress         ,gloves      ,html/resources/sequences_IDs/A/07_dress.jpg,html/resources/sequences_IDs/B/06_gloves.jpg,7,6,3,2,3,2,6,5,0,90,,,,,,,,,,,,,,,,,,,,
,,,,,90,2020-07-04_11h08.23.724,retriever_ti,2020.1.3,MacIntel,60,Chrome,1280,800,,,,,,,,,,,,,,,,,2,,,,,,,,,,,,,,,,,,,,,,,,,,,961.074055,150,left,0.718395,peacock       ,8,5,1,1,0,961.09121,961.09121,963.5934,0,72,72,72,1,150,8,7,peacock       ,slipper     ,html/resources/sequences_IDs/A/05_peacock.jpg,html/resources/sequences_IDs/B/08_slipper.jpg,5,8,2,1,3,2,4,7,1,90,,,,,,,,,,,,,,,,,,,,
,,,,,90,2020-07-04_11h08.23.724,retriever_ti,2020.1.3,MacIntel,60,Chrome,1280,800,,,,,,,,,,,,,,,,,2,,,,,,,,,,,,,,,,,,,,,,,,,,,964.69213,151,right,0.585075,peacock       ,8,5,1,1,1,964.726155,964.726155,967.22407,0,73,73,73,1,151,7,8,slipper     ,peacock       ,html/resources/sequences_IDs/B/08_slipper.jpg,html/resources/sequences_IDs/A/05_peacock.jpg,8,5,3,2,2,1,7,4,0,90,,,,,,,,,,,,,,,,,,,,
,,,,,90,2020-07-04_11h08.23.724,retriever_ti,2020.1.3,MacIntel,60,Chrome,1280,800,,,,,,,,,,,,,,,,,2,,,,,,,,,,,,,,,,,,,,,,,,,,,968.325845,152,left,0.709585,dress         ,4,7,-1,0,0,968.34439,968.34439,970.8432,0,74,74,74,1,152,4,5,dress         ,holdfast    ,html/resources/sequences_IDs/A/07_dress.jpg,html/resources/sequences_IDs/B/04_holdfast.jpg,7,4,3,2,2,1,6,3,0,90,,,,,,,,,,,,,,,,,,,,
,,,,,90,2020-07-04_11h08.23.724,retriever_ti,2020.1.3,MacIntel,60,Chrome,1280,800,,,,,,,,,,,,,,,,,2,,,,,,,,,,,,,,,,,,,,,,,,,,,971.94554,153,left,1.00198,calculator    ,6,9,1,1,1,971.96339,971.96339,974.460855,0,75,75,75,1,153,6,5,calculator    ,holdfast    ,html/resources/sequences_IDs/A/09_calculator.jpg,html/resources/sequences_IDs/B/04_holdfast.jpg,9,4,4,2,2,1,8,3,0,90,,,,,,,,,,,,,,,,,,,,
,,,,,90,2020-07-04_11h08.23.724,retriever_ti,2020.1.3,MacIntel,60,Chrome,1280,800,,,,,,,,,,,,,,,,,2,,,,,,,,,,,,,,,,,,,,,,,,,,,975.56323,154,left,1.13453,slipper     ,7,8,6,1,3,975.599435,975.599435,978.09704,0,76,76,76,1,154,7,1,slipper     ,redfox      ,html/resources/sequences_IDs/B/08_slipper.jpg,html/resources/sequences_IDs/B/01_redfox.jpg,8,1,3,2,1,1,7,1,0,90,,,,,,,,,,,,,,,,,,,,
,,,,,90,2020-07-04_11h08.23.724,retriever_ti,2020.1.3,MacIntel,60,Chrome,1280,800,,,,,,,,,,,,,,,,,,,,,,,,,,,,,,,,,,,,,0,273.61157,,,,,,,,,,,,,,,,,,,,,,,,,,,,,,,,,,,,,,,,,1,0,1,0,1,,,,,,,,,,,,,,,
,,,,,90,2020-07-04_11h08.23.724,retriever_ti,2020.1.3,MacIntel,60,Chrome,1280,800,,,,,,,,,,,,,,,,,3,,,,,,,,,,,,,,,,,,,,,,,,,,,1479.247435,155,right,0.716145,gloves      ,3,6,2,1,3,1479.27242,1479.27242,1481.77071,0,0,0,0,1,155,1,3,redfox      ,gloves      ,html/resources/sequences_IDs/B/01_redfox.jpg,html/resources/sequences_IDs/B/06_gloves.jpg,1,6,1,1,3,2,1,5,0,90,,,,,,,,,,,,,,,,,,,,
,,,,,90,2020-07-04_11h08.23.724,retriever_ti,2020.1.3,MacIntel,60,Chrome,1280,800,,,,,,,,,,,,,,,,,3,,,,,,,,,,,,,,,,,,,,,,,,,,,1482.388165,156,left,0.572165,dress         ,4,7,-1,0,0,1482.4235,1482.4235,1484.919895,0,1,1,1,1,156,4,5,dress         ,holdfast    ,html/resources/sequences_IDs/A/07_dress.jpg,html/resources/sequences_IDs/B/04_holdfast.jpg,7,4,3,2,2,1,6,3,0,90,,,,,,,,,,,,,,,,,,,,
,,,,,90,2020-07-04_11h08.23.724,retriever_ti,2020.1.3,MacIntel,60,Chrome,1280,800,,,,,,,,,,,,,,,,,3,,,,,,,,,,,,,,,,,,,,,,,,,,,1486.022825,157,left,0.5709,calculator    ,6,9,4,1,3,1486.04041,1486.04041,1488.538765,0,2,2,2,1,157,6,2,calculator    ,seaturtle     ,html/resources/sequences_IDs/A/09_calculator.jpg,html/resources/sequences_IDs/A/02_seaturtle.jpg,9,2,4,2,2,1,8,2,0,90,,,,,,,,,,,,,,,,,,,,
,,,,,90,2020-07-04_11h08.23.724,retriever_ti,2020.1.3,MacIntel,60,Chrome,1280,800,,,,,,,,,,,,,,,,,3,,,,,,,,,,,,,,,,,,,,,,,,,,,1489.15803,158,right,0.46663,dress         ,4,7,1,1,1,1489.17424,1489.17424,1491.673345,0,3,3,3,1,158,3,4,gloves      ,dress         ,html/resources/sequences_IDs/B/06_gloves.jpg,html/resources/sequences_IDs/A/07_dress.jpg,6,7,3,2,3,2,5,6,0,90,,,,,,,,,,,,,,,,,,,,
,,,,,90,2020-07-04_11h08.23.724,retriever_ti,2020.1.3,MacIntel,60,Chrome,1280,800,,,,,,,,,,,,,,,,,3,,,,,,,,,,,,,,,,,,,,,,,,,,,1492.77522,159,left,1.04391,peacock       ,8,5,1,1,0,1492.792125,1492.792125,1495.291455,0,4,4,4,1,159,8,7,peacock       ,slipper     ,html/resources/sequences_IDs/A/05_peacock.jpg,html/resources/sequences_IDs/B/08_slipper.jpg,5,8,2,1,3,2,4,7,1,90,,,,,,,,,,,,,,,,,,,,
,,,,,90,2020-07-04_11h08.23.724,retriever_ti,2020.1.3,MacIntel,60,Chrome,1280,800,,,,,,,,,,,,,,,,,3,,,,,,,,,,,,,,,,,,,,,,,,,,,1496.39454,160,right,0.58264,dress         ,4,7,-3,0,3,1496.41154,1496.41154,1498.9101,0,5,5,5,1,160,7,4,slipper     ,dress         ,html/resources/sequences_IDs/B/08_slipper.jpg,html/resources/sequences_IDs/A/07_dress.jpg,8,7,3,2,3,2,7,6,0,90,,,,,,,,,,,,,,,,,,,,
,,,,,90,2020-07-04_11h08.23.724,retriever_ti,2020.1.3,MacIntel,60,Chrome,1280,800,,,,,,,,,,,,,,,,,3,,,,,,,,,,,,,,,,,,,,,,,,,,,1499.51278,161,left,0.739505,peacock       ,8,5,5,1,3,1499.534475,1499.534475,1502.02855,0,6,6,6,1,161,8,3,peacock       ,gloves      ,html/resources/sequences_IDs/A/05_peacock.jpg,html/resources/sequences_IDs/B/06_gloves.jpg,5,6,2,1,3,2,4,5,0,90,,,,,,,,,,,,,,,,,,,,
,,,,,90,2020-07-04_11h08.23.724,retriever_ti,2020.1.3,MacIntel,60,Chrome,1280,800,,,,,,,,,,,,,,,,,3,,,,,,,,,,,,,,,,,,,,,,,,,,,1502.646075,162,right,0.55864,peacock       ,8,5,7,1,3,1502.662755,1502.662755,1505.16354,0,7,7,7,1,162,1,8,redfox      ,peacock       ,html/resources/sequences_IDs/B/01_redfox.jpg,html/resources/sequences_IDs/A/05_peacock.jpg,1,5,1,1,2,1,1,4,0,90,,,,,,,,,,,,,,,,,,,,
,,,,,90,2020-07-04_11h08.23.724,retriever_ti,2020.1.3,MacIntel,60,Chrome,1280,800,,,,,,,,,,,,,,,,,3,,,,,,,,,,,,,,,,,,,,,,,,,,,1505.78208,163,left,0.633315,dress         ,4,7,-1,0,0,1505.799875,1505.799875,1508.29818,0,8,8,8,1,163,4,5,dress         ,holdfast    ,html/resources/sequences_IDs/A/07_dress.jpg,html/resources/sequences_IDs/B/04_holdfast.jpg,7,4,3,2,2,1,6,3,0,90,,,,,,,,,,,,,,,,,,,,
,,,,,90,2020-07-04_11h08.23.724,retriever_ti,2020.1.3,MacIntel,60,Chrome,1280,800,,,,,,,,,,,,,,,,,3,,,,,,,,,,,,,,,,,,,,,,,,,,,1509.39993,164,left,0.78437,gloves      ,3,6,1,1,1,1509.416305,1509.416305,1511.91603,0,9,9,9,1,164,3,2,gloves      ,seaturtle     ,html/resources/sequences_IDs/B/06_gloves.jpg,html/resources/sequences_IDs/A/02_seaturtle.jpg,6,2,3,2,2,1,5,2,0,90,,,,,,,,,,,,,,,,,,,,
,,,,,90,2020-07-04_11h08.23.724,retriever_ti,2020.1.3,MacIntel,60,Chrome,1280,800,,,,,,,,,,,,,,,,,3,,,,,,,,,,,,,,,,,,,,,,,,,,,1513.01958,165,left,0.664555,calculator    ,6,9,5,1,3,1513.037125,1513.037125,1515.534915,0,10,10,10,1,165,6,1,calculator    ,redfox      ,html/resources/sequences_IDs/A/09_calculator.jpg,html/resources/sequences_IDs/B/01_redfox.jpg,9,1,4,2,1,1,8,1,0,90,,,,,,,,,,,,,,,,,,,,
,,,,,90,2020-07-04_11h08.23.724,retriever_ti,2020.1.3,MacIntel,60,Chrome,1280,800,,,,,,,,,,,,,,,,,3,,,,,,,,,,,,,,,,,,,,,,,,,,,1516.137095,166,left,0.802505,holdfast    ,5,4,2,1,3,1516.1517,1516.1517,1518.65226,0,11,11,11,1,166,5,3,holdfast    ,gloves      ,html/resources/sequences_IDs/B/04_holdfast.jpg,html/resources/sequences_IDs/B/06_gloves.jpg,4,6,2,1,3,2,3,5,0,90,,,,,,,,,,,,,,,,,,,,
,,,,,90,2020-07-04_11h08.23.724,retriever_ti,2020.1.3,MacIntel,60,Chrome,1280,800,,,,,,,,,,,,,,,,,3,,,,,,,,,,,,,,,,,,,,,,,,,,,1519.255585,167,left,0.997915,holdfast    ,5,4,1,1,1,1519.27217,1519.27217,1521.770785,0,12,12,12,1,167,5,4,holdfast    ,dress         ,html/resources/sequences_IDs/B/04_holdfast.jpg,html/resources/sequences_IDs/A/07_dress.jpg,4,7,2,1,3,2,3,6,0,90,,,,,,,,,,,,,,,,,,,,
,,,,,90,2020-07-04_11h08.23.724,retriever_ti,2020.1.3,MacIntel,60,Chrome,1280,800,,,,,,,,,,,,,,,,,3,,,,,,,,,,,,,,,,,,,,,,,,,,,1522.872535,168,left,0.802025,dress         ,4,7,-3,0,3,1522.890475,1522.890475,1525.390045,0,13,13,13,1,168,4,7,dress         ,slipper     ,html/resources/sequences_IDs/A/07_dress.jpg,html/resources/sequences_IDs/B/08_slipper.jpg,7,8,3,2,3,2,6,7,0,90,,,,,,,,,,,,,,,,,,,,
,,,,,90,2020-07-04_11h08.23.724,retriever_ti,2020.1.3,MacIntel,60,Chrome,1280,800,,,,,,,,,,,,,,,,,3,,,,,,,,,,,,,,,,,,,,,,,,,,,1526.008415,169,left,0.91206,redfox      ,1,1,-4,0,3,1526.040405,1526.040405,1528.540525,0,14,14,14,1,169,1,5,redfox      ,holdfast    ,html/resources/sequences_IDs/B/01_redfox.jpg,html/resources/sequences_IDs/B/04_holdfast.jpg,1,4,1,1,2,1,1,3,0,90,,,,,,,,,,,,,,,,,,,,
,,,,,90,2020-07-04_11h08.23.724,retriever_ti,2020.1.3,MacIntel,60,Chrome,1280,800,,,,,,,,,,,,,,,,,3,,,,,,,,,,,,,,,,,,,,,,,,,,,1529.159265,170,right,0.84465,dress         ,4,7,3,1,3,1529.194835,1529.194835,1531.691805,0,15,15,15,1,170,1,4,redfox      ,dress         ,html/resources/sequences_IDs/B/01_redfox.jpg,html/resources/sequences_IDs/A/07_dress.jpg,1,7,1,1,3,2,1,6,0,90,,,,,,,,,,,,,,,,,,,,
,,,,,90,2020-07-04_11h08.23.724,retriever_ti,2020.1.3,MacIntel,60,Chrome,1280,800,,,,,,,,,,,,,,,,,3,,,,,,,,,,,,,,,,,,,,,,,,,,,1532.296285,171,left,1.11991,seaturtle     ,2,2,-1,0,1,1532.312355,1532.312355,1534.810585,0,16,16,16,1,171,2,3,seaturtle     ,gloves      ,html/resources/sequences_IDs/A/02_seaturtle.jpg,html/resources/sequences_IDs/B/06_gloves.jpg,2,6,2,1,3,2,2,5,1,90,,,,,,,,,,,,,,,,,,,,
,,,,,90,2020-07-04_11h08.23.724,retriever_ti,2020.1.3,MacIntel,60,Chrome,1280,800,,,,,,,,,,,,,,,,,3,,,,,,,,,,,,,,,,,,,,,,,,,,,1535.91299,172,left,1.14027,gloves      ,3,6,2,1,3,1535.929865,1535.929865,1538.4296,0,17,17,17,1,172,3,1,gloves      ,redfox      ,html/resources/sequences_IDs/B/06_gloves.jpg,html/resources/sequences_IDs/B/01_redfox.jpg,6,1,3,2,1,1,5,1,0,90,,,,,,,,,,,,,,,,,,,,
,,,,,90,2020-07-04_11h08.23.724,retriever_ti,2020.1.3,MacIntel,60,Chrome,1280,800,,,,,,,,,,,,,,,,,3,,,,,,,,,,,,,,,,,,,,,,,,,,,1539.04525,173,left,0.664305,calculator    ,6,9,2,1,3,1539.06528,1539.06528,1541.564285,0,18,18,18,1,173,6,4,calculator    ,dress         ,html/resources/sequences_IDs/A/09_calculator.jpg,html/resources/sequences_IDs/A/07_dress.jpg,9,7,4,2,3,2,8,6,0,90,,,,,,,,,,,,,,,,,,,,
,,,,,90,2020-07-04_11h08.23.724,retriever_ti,2020.1.3,MacIntel,60,Chrome,1280,800,,,,,,,,,,,,,,,,,3,,,,,,,,,,,,,,,,,,,,,,,,,,,1542.182775,174,right,0.841565,holdfast    ,5,4,-2,0,3,1542.199475,1542.199475,1544.698725,0,19,19,19,1,174,7,5,slipper     ,holdfast    ,html/resources/sequences_IDs/B/08_slipper.jpg,html/resources/sequences_IDs/B/04_holdfast.jpg,8,4,3,2,2,1,7,3,0,90,,,,,,,,,,,,,,,,,,,,
,,,,,90,2020-07-04_11h08.23.724,retriever_ti,2020.1.3,MacIntel,60,Chrome,1280,800,,,,,,,,,,,,,,,,,3,,,,,,,,,,,,,,,,,,,,,,,,,,,1545.300205,175,right,1.093695,dress         ,4,7,1,1,1,1545.31799,1545.31799,1547.8159,0,20,20,20,1,175,3,4,gloves      ,dress         ,html/resources/sequences_IDs/B/06_gloves.jpg,html/resources/sequences_IDs/A/07_dress.jpg,6,7,3,2,3,2,5,6,0,90,,,,,,,,,,,,,,,,,,,,
,,,,,90,2020-07-04_11h08.23.724,retriever_ti,2020.1.3,MacIntel,60,Chrome,1280,800,,,,,,,,,,,,,,,,,3,,,,,,,,,,,,,,,,,,,,,,,,,,,1548.9187,176,right,1.23677,seaturtle     ,2,2,-6,0,3,1548.95214,1548.95214,1551.45186,0,21,21,21,1,176,8,2,peacock       ,seaturtle     ,html/resources/sequences_IDs/A/05_peacock.jpg,html/resources/sequences_IDs/A/02_seaturtle.jpg,5,2,2,1,2,1,4,2,0,90,,,,,,,,,,,,,,,,,,,,
,,,,,90,2020-07-04_11h08.23.724,retriever_ti,2020.1.3,MacIntel,60,Chrome,1280,800,,,,,,,,,,,,,,,,,3,,,,,,,,,,,,,,,,,,,,,,,,,,,1552.054065,177,left,0.676775,calculator    ,6,9,-1,0,0,1552.07104,1552.07104,1554.56986,0,22,22,22,1,177,6,7,calculator    ,slipper     ,html/resources/sequences_IDs/A/09_calculator.jpg,html/resources/sequences_IDs/B/08_slipper.jpg,9,8,4,2,3,2,8,7,0,90,,,,,,,,,,,,,,,,,,,,
,,,,,90,2020-07-04_11h08.23.724,retriever_ti,2020.1.3,MacIntel,60,Chrome,1280,800,,,,,,,,,,,,,,,,,3,,,,,,,,,,,,,,,,,,,,,,,,,,,1555.67245,178,left,1.436435,gloves      ,3,6,-5,0,3,1555.704525,1555.704525,1558.204355,0,23,23,23,1,178,3,8,gloves      ,peacock       ,html/resources/sequences_IDs/B/06_gloves.jpg,html/resources/sequences_IDs/A/05_peacock.jpg,6,5,3,2,2,1,5,4,0,90,,,,,,,,,,,,,,,,,,,,
,,,,,90,2020-07-04_11h08.23.724,retriever_ti,2020.1.3,MacIntel,60,Chrome,1280,800,,,,,,,,,,,,,,,,,3,,,,,,,,,,,,,,,,,,,,,,,,,,,1558.8061,179,right,0.585295,calculator    ,6,9,5,1,3,1558.822535,1558.822535,1561.32351,0,24,24,24,1,179,1,6,redfox      ,calculator    ,html/resources/sequences_IDs/B/01_redfox.jpg,html/resources/sequences_IDs/A/09_calculator.jpg,1,9,1,1,4,2,1,8,0,90,,,,,,,,,,,,,,,,,,,,
,,,,,90,2020-07-04_11h08.23.724,retriever_ti,2020.1.3,MacIntel,60,Chrome,1280,800,,,,,,,,,,,,,,,,,3,,,,,,,,,,,,,,,,,,,,,,,,,,,1561.925685,180,right,0.754705,dress         ,4,7,-1,0,0,1561.959335,1561.959335,1564.458215,0,25,25,25,1,180,5,4,holdfast    ,dress         ,html/resources/sequences_IDs/B/04_holdfast.jpg,html/resources/sequences_IDs/A/07_dress.jpg,4,7,2,1,3,2,3,6,0,90,,,,,,,,,,,,,,,,,,,,
,,,,,90,2020-07-04_11h08.23.724,retriever_ti,2020.1.3,MacIntel,60,Chrome,1280,800,,,,,,,,,,,,,,,,,3,,,,,,,,,,,,,,,,,,,,,,,,,,,1565.560495,181,right,0.96442,holdfast    ,5,4,-3,0,3,1565.594055,1565.594055,1568.09355,0,26,26,26,1,181,8,5,peacock       ,holdfast    ,html/resources/sequences_IDs/A/05_peacock.jpg,html/resources/sequences_IDs/B/04_holdfast.jpg,5,4,2,1,2,1,4,3,0,90,,,,,,,,,,,,,,,,,,,,
,,,,,90,2020-07-04_11h08.23.724,retriever_ti,2020.1.3,MacIntel,60,Chrome,1280,800,,,,,,,,,,,,,,,,,3,,,,,,,,,,,,,,,,,,,,,,,,,,,1568.71141,182,left,1.21398,dress         ,4,7,2,1,3,1568.74631,1568.74631,1571.24466,0,27,27,27,1,182,4,2,dress         ,seaturtle     ,html/resources/sequences_IDs/A/07_dress.jpg,html/resources/sequences_IDs/A/02_seaturtle.jpg,7,2,3,2,2,1,6,2,0,90,,,,,,,,,,,,,,,,,,,,
,,,,,90,2020-07-04_11h08.23.724,retriever_ti,2020.1.3,MacIntel,60,Chrome,1280,800,,,,,,,,,,,,,,,,,3,,,,,,,,,,,,,,,,,,,,,,,,,,,1571.863745,183,right,0.7976,seaturtle     ,2,2,1,1,1,1571.88091,1571.88091,1574.37935,0,28,28,28,1,183,1,2,redfox      ,seaturtle     ,html/resources/sequences_IDs/B/01_redfox.jpg,html/resources/sequences_IDs/A/02_seaturtle.jpg,1,2,1,1,2,1,1,2,0,90,,,,,,,,,,,,,,,,,,,,
,,,,,90,2020-07-04_11h08.23.724,retriever_ti,2020.1.3,MacIntel,60,Chrome,1280,800,,,,,,,,,,,,,,,,,3,,,,,,,,,,,,,,,,,,,,,,,,,,,1575.481365,184,left,0.915095,holdfast    ,5,4,4,1,3,1575.499845,1575.499845,1577.998105,0,29,29,29,1,184,5,1,holdfast    ,redfox      ,html/resources/sequences_IDs/B/04_holdfast.jpg,html/resources/sequences_IDs/B/01_redfox.jpg,4,1,2,1,1,1,3,1,0,90,,,,,,,,,,,,,,,,,,,,
,,,,,90,2020-07-04_11h08.23.724,retriever_ti,2020.1.3,MacIntel,60,Chrome,1280,800,,,,,,,,,,,,,,,,,3,,,,,,,,,,,,,,,,,,,,,,,,,,,1578.6155,185,left,0.695145,calculator    ,6,9,-2,0,3,1578.64867,1578.64867,1581.13647,0,30,30,30,1,185,6,8,calculator    ,peacock       ,html/resources/sequences_IDs/A/09_calculator.jpg,html/resources/sequences_IDs/A/05_peacock.jpg,9,5,4,2,2,1,8,4,0,90,,,,,,,,,,,,,,,,,,,,
,,,,,90,2020-07-04_11h08.23.724,retriever_ti,2020.1.3,MacIntel,60,Chrome,1280,800,,,,,,,,,,,,,,,,,3,,,,,,,,,,,,,,,,,,,,,,,,,,,1581.74998,186,right,0.54722,slipper     ,7,8,4,1,3,1581.77932,1581.77932,1584.267645,0,31,31,31,1,186,3,7,gloves      ,slipper     ,html/resources/sequences_IDs/B/06_gloves.jpg,html/resources/sequences_IDs/B/08_slipper.jpg,6,8,3,2,3,2,5,7,0,90,,,,,,,,,,,,,,,,,,,,
,,,,,90,2020-07-04_11h08.23.724,retriever_ti,2020.1.3,MacIntel,60,Chrome,1280,800,,,,,,,,,,,,,,,,,3,,,,,,,,,,,,,,,,,,,,,,,,,,,1584.885475,187,left,1.15342,seaturtle     ,2,2,1,1,1,1584.906325,1584.906325,1587.40274,0,32,32,32,1,187,2,1,seaturtle     ,redfox      ,html/resources/sequences_IDs/A/02_seaturtle.jpg,html/resources/sequences_IDs/B/01_redfox.jpg,2,1,2,1,1,1,2,1,0,90,,,,,,,,,,,,,,,,,,,,
,,,,,90,2020-07-04_11h08.23.724,retriever_ti,2020.1.3,MacIntel,60,Chrome,1280,800,,,,,,,,,,,,,,,,,3,,,,,,,,,,,,,,,,,,,,,,,,,,,1588.5047,188,right,1.05502,calculator    ,6,9,3,1,3,1588.5223,1588.5223,1591.020565,0,33,33,33,1,188,3,6,gloves      ,calculator    ,html/resources/sequences_IDs/B/06_gloves.jpg,html/resources/sequences_IDs/A/09_calculator.jpg,6,9,3,2,4,2,5,8,0,90,,,,,,,,,,,,,,,,,,,,
,,,,,90,2020-07-04_11h08.23.724,retriever_ti,2020.1.3,MacIntel,60,Chrome,1280,800,,,,,,,,,,,,,,,,,3,,,,,,,,,,,,,,,,,,,,,,,,,,,1591.639975,189,right,0.86002,slipper     ,7,8,5,1,3,1591.674065,1591.674065,1594.172475,0,34,34,34,1,189,2,7,seaturtle     ,slipper     ,html/resources/sequences_IDs/A/02_seaturtle.jpg,html/resources/sequences_IDs/B/08_slipper.jpg,2,8,2,1,3,2,2,7,0,90,,,,,,,,,,,,,,,,,,,,
,,,,,90,2020-07-04_11h08.23.724,retriever_ti,2020.1.3,MacIntel,60,Chrome,1280,800,,,,,,,,,,,,,,,,,3,,,,,,,,,,,,,,,,,,,,,,,,,,,1594.77372,190,right,0.65575,calculator    ,6,9,1,1,1,1594.80835,1594.80835,1597.31716,0,35,35,35,1,190,5,6,holdfast    ,calculator    ,html/resources/sequences_IDs/B/04_holdfast.jpg,html/resources/sequences_IDs/A/09_calculator.jpg,4,9,2,1,4,2,3,8,0,90,,,,,,,,,,,,,,,,,,,,
,,,,,90,2020-07-04_11h08.23.724,retriever_ti,2020.1.3,MacIntel,60,Chrome,1280,800,,,,,,,,,,,,,,,,,3,,,,,,,,,,,,,,,,,,,,,,,,,,,1598.409275,191,right,0.929655,calculator    ,6,9,4,1,3,1598.44437,1598.44437,1600.94136,0,36,36,36,1,191,2,6,seaturtle     ,calculator    ,html/resources/sequences_IDs/A/02_seaturtle.jpg,html/resources/sequences_IDs/A/09_calculator.jpg,2,9,2,1,4,2,2,8,0,90,,,,,,,,,,,,,,,,,,,,
,,,,,90,2020-07-04_11h08.23.724,retriever_ti,2020.1.3,MacIntel,60,Chrome,1280,800,,,,,,,,,,,,,,,,,3,,,,,,,,,,,,,,,,,,,,,,,,,,,1601.54408,192,left,0.7152,holdfast    ,5,4,3,1,3,1601.57672,1601.57672,1604.07697,0,37,37,37,1,192,5,2,holdfast    ,seaturtle     ,html/resources/sequences_IDs/B/04_holdfast.jpg,html/resources/sequences_IDs/A/02_seaturtle.jpg,4,2,2,1,2,1,3,2,0,90,,,,,,,,,,,,,,,,,,,,
,,,,,90,2020-07-04_11h08.23.724,retriever_ti,2020.1.3,MacIntel,60,Chrome,1280,800,,,,,,,,,,,,,,,,,3,,,,,,,,,,,,,,,,,,,,,,,,,,,1604.678075,193,left,1.36163,seaturtle     ,2,2,-1,0,0,1604.69588,1604.69588,1607.19522,0,38,38,38,1,193,2,3,seaturtle     ,gloves      ,html/resources/sequences_IDs/A/02_seaturtle.jpg,html/resources/sequences_IDs/B/06_gloves.jpg,2,6,2,1,3,2,2,5,0,90,,,,,,,,,,,,,,,,,,,,
,,,,,90,2020-07-04_11h08.23.724,retriever_ti,2020.1.3,MacIntel,60,Chrome,1280,800,,,,,,,,,,,,,,,,,3,,,,,,,,,,,,,,,,,,,,,,,,,,,1608.29728,194,right,1.28539,gloves      ,3,6,1,1,1,1608.33095,1608.33095,1610.829265,0,39,39,39,1,194,2,3,seaturtle     ,gloves      ,html/resources/sequences_IDs/A/02_seaturtle.jpg,html/resources/sequences_IDs/B/06_gloves.jpg,2,6,2,1,3,2,2,5,0,90,,,,,,,,,,,,,,,,,,,,
,,,,,90,2020-07-04_11h08.23.724,retriever_ti,2020.1.3,MacIntel,60,Chrome,1280,800,,,,,,,,,,,,,,,,,3,,,,,,,,,,,,,,,,,,,,,,,,,,,1611.93311,195,right,1.208405,seaturtle     ,2,2,1,1,1,1611.9493,1611.9493,1614.44839,0,40,40,40,1,195,1,2,redfox      ,seaturtle     ,html/resources/sequences_IDs/B/01_redfox.jpg,html/resources/sequences_IDs/A/02_seaturtle.jpg,1,2,1,1,2,1,1,2,0,90,,,,,,,,,,,,,,,,,,,,
,,,,,90,2020-07-04_11h08.23.724,retriever_ti,2020.1.3,MacIntel,60,Chrome,1280,800,,,,,,,,,,,,,,,,,3,,,,,,,,,,,,,,,,,,,,,,,,,,,1615.55055,196,left,0.98834,slipper     ,7,8,1,1,0,1615.58492,1615.58492,1618.083595,0,41,41,41,1,196,7,6,slipper     ,calculator    ,html/resources/sequences_IDs/B/08_slipper.jpg,html/resources/sequences_IDs/A/09_calculator.jpg,8,9,3,2,4,2,7,8,1,90,,,,,,,,,,,,,,,,,,,,
,,,,,90,2020-07-04_11h08.23.724,retriever_ti,2020.1.3,MacIntel,60,Chrome,1280,800,,,,,,,,,,,,,,,,,3,,,,,,,,,,,,,,,,,,,,,,,,,,,1619.18465,197,right,1.17785,seaturtle     ,2,2,-1,0,0,1619.20396,1619.20396,1621.70213,0,42,42,42,1,197,3,2,gloves      ,seaturtle     ,html/resources/sequences_IDs/B/06_gloves.jpg,html/resources/sequences_IDs/A/02_seaturtle.jpg,6,2,3,2,2,1,5,2,0,90,,,,,,,,,,,,,,,,,,,,
,,,,,90,2020-07-04_11h08.23.724,retriever_ti,2020.1.3,MacIntel,60,Chrome,1280,800,,,,,,,,,,,,,,,,,3,,,,,,,,,,,,,,,,,,,,,,,,,,,1622.804335,198,left,1.181825,seaturtle     ,2,2,-6,0,3,1622.838635,1622.838635,1625.336815,0,43,43,43,1,198,2,8,seaturtle     ,peacock       ,html/resources/sequences_IDs/A/02_seaturtle.jpg,html/resources/sequences_IDs/A/05_peacock.jpg,2,5,2,1,2,1,2,4,0,90,,,,,,,,,,,,,,,,,,,,
,,,,,90,2020-07-04_11h08.23.724,retriever_ti,2020.1.3,MacIntel,60,Chrome,1280,800,,,,,,,,,,,,,,,,,3,,,,,,,,,,,,,,,,,,,,,,,,,,,1625.939015,199,right,0.837425,gloves      ,3,6,-1,0,0,1625.97293,1625.97293,1628.471255,0,44,44,44,1,199,4,3,dress         ,gloves      ,html/resources/sequences_IDs/A/07_dress.jpg,html/resources/sequences_IDs/B/06_gloves.jpg,7,6,3,2,3,2,6,5,0,90,,,,,,,,,,,,,,,,,,,,
,,,,,90,2020-07-04_11h08.23.724,retriever_ti,2020.1.3,MacIntel,60,Chrome,1280,800,,,,,,,,,,,,,,,,,3,,,,,,,,,,,,,,,,,,,,,,,,,,,1629.57372,200,left,0.74767,dress         ,4,7,-4,0,3,1629.58979,1629.58979,1632.089485,0,45,45,45,1,200,4,8,dress         ,peacock       ,html/resources/sequences_IDs/A/07_dress.jpg,html/resources/sequences_IDs/A/05_peacock.jpg,7,5,3,2,2,1,6,4,0,90,,,,,,,,,,,,,,,,,,,,
,,,,,90,2020-07-04_11h08.23.724,retriever_ti,2020.1.3,MacIntel,60,Chrome,1280,800,,,,,,,,,,,,,,,,,3,,,,,,,,,,,,,,,,,,,,,,,,,,,1632.691155,201,left,1.58003,seaturtle     ,2,2,1,1,1,1632.711745,1632.711745,1635.20827,0,46,46,46,1,201,2,1,seaturtle     ,redfox      ,html/resources/sequences_IDs/A/02_seaturtle.jpg,html/resources/sequences_IDs/B/01_redfox.jpg,2,1,2,1,1,1,2,1,0,90,,,,,,,,,,,,,,,,,,,,
,,,,,90,2020-07-04_11h08.23.724,retriever_ti,2020.1.3,MacIntel,60,Chrome,1280,800,,,,,,,,,,,,,,,,,3,,,,,,,,,,,,,,,,,,,,,,,,,,,1636.310385,202,left,0.70996,slipper     ,7,8,-1,0,0,1636.326465,1636.326465,1638.82673,0,47,47,47,1,202,7,8,slipper     ,peacock       ,html/resources/sequences_IDs/B/08_slipper.jpg,html/resources/sequences_IDs/A/05_peacock.jpg,8,5,3,2,2,1,7,4,0,90,,,,,,,,,,,,,,,,,,,,
,,,,,90,2020-07-04_11h08.23.724,retriever_ti,2020.1.3,MacIntel,60,Chrome,1280,800,,,,,,,,,,,,,,,,,3,,,,,,,,,,,,,,,,,,,,,,,,,,,1639.92913,203,left,1.037595,slipper     ,7,8,5,1,3,1639.963955,1639.963955,1642.46123,0,48,48,48,1,203,7,2,slipper     ,seaturtle     ,html/resources/sequences_IDs/B/08_slipper.jpg,html/resources/sequences_IDs/A/02_seaturtle.jpg,8,2,3,2,2,1,7,2,0,90,,,,,,,,,,,,,,,,,,,,
,,,,,90,2020-07-04_11h08.23.724,retriever_ti,2020.1.3,MacIntel,60,Chrome,1280,800,,,,,,,,,,,,,,,,,3,,,,,,,,,,,,,,,,,,,,,,,,,,,1643.063295,204,right,1.791695,slipper     ,7,8,6,1,3,1643.097155,1643.097155,1645.595685,0,49,49,49,1,204,1,7,redfox      ,slipper     ,html/resources/sequences_IDs/B/01_redfox.jpg,html/resources/sequences_IDs/B/08_slipper.jpg,1,8,1,1,3,2,1,7,0,90,,,,,,,,,,,,,,,,,,,,
,,,,,90,2020-07-04_11h08.23.724,retriever_ti,2020.1.3,MacIntel,60,Chrome,1280,800,,,,,,,,,,,,,,,,,3,,,,,,,,,,,,,,,,,,,,,,,,,,,1646.198405,205,right,0.53717,slipper     ,7,8,1,1,1,1646.216055,1646.216055,1648.71469,0,50,50,50,1,205,6,7,calculator    ,slipper     ,html/resources/sequences_IDs/A/09_calculator.jpg,html/resources/sequences_IDs/B/08_slipper.jpg,9,8,4,2,3,2,8,7,0,90,,,,,,,,,,,,,,,,,,,,
,,,,,90,2020-07-04_11h08.23.724,retriever_ti,2020.1.3,MacIntel,60,Chrome,1280,800,,,,,,,,,,,,,,,,,3,,,,,,,,,,,,,,,,,,,,,,,,,,,1649.81713,206,left,0.719055,slipper     ,7,8,-1,0,0,1649.851075,1649.851075,1652.349735,0,51,51,51,1,206,7,8,slipper     ,peacock       ,html/resources/sequences_IDs/B/08_slipper.jpg,html/resources/sequences_IDs/A/05_peacock.jpg,8,5,3,2,2,1,7,4,0,90,,,,,,,,,,,,,,,,,,,,
,,,,,90,2020-07-04_11h08.23.724,retriever_ti,2020.1.3,MacIntel,60,Chrome,1280,800,,,,,,,,,,,,,,,,,3,,,,,,,,,,,,,,,,,,,,,,,,,,,1653.452935,207,NaN,NaN,No_response,NaN,NaN,NaN,2,2,1653.485125,1653.485125,1655.9847,0,52,52,52,1,207,5,4,holdfast    ,dress         ,html/resources/sequences_IDs/B/04_holdfast.jpg,html/resources/sequences_IDs/A/07_dress.jpg,4,7,2,1,3,2,3,6,1,90,,,,,,,,,,,,,,,,,,,,
,,,,,90,2020-07-04_11h08.23.724,retriever_ti,2020.1.3,MacIntel,60,Chrome,1280,800,,,,,,,,,,,,,,,,,3,,,,,,,,,,,,,,,,,,,,,,,,,,,1657.08761,208,right,0.78782,holdfast    ,5,4,-1,0,0,1657.12158,1657.12158,1659.62022,0,53,53,53,1,208,6,5,calculator    ,holdfast    ,html/resources/sequences_IDs/A/09_calculator.jpg,html/resources/sequences_IDs/B/04_holdfast.jpg,9,4,4,2,2,1,8,3,0,90,,,,,,,,,,,,,,,,,,,,
,,,,,90,2020-07-04_11h08.23.724,retriever_ti,2020.1.3,MacIntel,60,Chrome,1280,800,,,,,,,,,,,,,,,,,3,,,,,,,,,,,,,,,,,,,,,,,,,,,1660.722585,209,left,0.902375,slipper     ,7,8,1,1,1,1660.7396,1660.7396,1663.238675,0,54,54,54,1,209,7,6,slipper     ,calculator    ,html/resources/sequences_IDs/B/08_slipper.jpg,html/resources/sequences_IDs/A/09_calculator.jpg,8,9,3,2,4,2,7,8,0,90,,,,,,,,,,,,,,,,,,,,
,,,,,90,2020-07-04_11h08.23.724,retriever_ti,2020.1.3,MacIntel,60,Chrome,1280,800,,,,,,,,,,,,,,,,,3,,,,,,,,,,,,,,,,,,,,,,,,,,,1664.340195,210,right,0.730985,slipper     ,7,8,-1,0,0,1664.357935,1664.357935,1666.85594,0,55,55,55,1,210,8,7,peacock       ,slipper     ,html/resources/sequences_IDs/A/05_peacock.jpg,html/resources/sequences_IDs/B/08_slipper.jpg,5,8,2,1,3,2,4,7,0,90,,,,,,,,,,,,,,,,,,,,
,,,,,90,2020-07-04_11h08.23.724,retriever_ti,2020.1.3,MacIntel,60,Chrome,1280,800,,,,,,,,,,,,,,,,,3,,,,,,,,,,,,,,,,,,,,,,,,,,,1667.95771,211,left,1.262595,slipper     ,7,8,4,1,3,1667.97654,1667.97654,1670.46526,0,56,56,56,1,211,7,3,slipper     ,gloves      ,html/resources/sequences_IDs/B/08_slipper.jpg,html/resources/sequences_IDs/B/06_gloves.jpg,8,6,3,2,3,2,7,5,0,90,,,,,,,,,,,,,,,,,,,,
,,,,,90,2020-07-04_11h08.23.724,retriever_ti,2020.1.3,MacIntel,60,Chrome,1280,800,,,,,,,,,,,,,,,,,3,,,,,,,,,,,,,,,,,,,,,,,,,,,1671.07622,212,left,0.589035,holdfast    ,5,4,-3,0,3,1671.11087,1671.11087,1673.60997,0,57,57,57,1,212,5,8,holdfast    ,peacock       ,html/resources/sequences_IDs/B/04_holdfast.jpg,html/resources/sequences_IDs/A/05_peacock.jpg,4,5,2,1,2,1,3,4,0,90,,,,,,,,,,,,,,,,,,,,
,,,,,90,2020-07-04_11h08.23.724,retriever_ti,2020.1.3,MacIntel,60,Chrome,1280,800,,,,,,,,,,,,,,,,,3,,,,,,,,,,,,,,,,,,,,,,,,,,,1674.22871,213,right,0.95544,calculator    ,6,9,2,1,3,1674.24398,1674.24398,1676.74878,0,58,58,58,1,213,4,6,dress         ,calculator    ,html/resources/sequences_IDs/A/07_dress.jpg,html/resources/sequences_IDs/A/09_calculator.jpg,7,9,3,2,4,2,6,8,0,90,,,,,,,,,,,,,,,,,,,,
,,,,,90,2020-07-04_11h08.23.724,retriever_ti,2020.1.3,MacIntel,60,Chrome,1280,800,,,,,,,,,,,,,,,,,3,,,,,,,,,,,,,,,,,,,,,,,,,,,1677.363635,214,right,1.39645,redfox      ,1,1,-7,0,3,1677.39767,1677.39767,1679.89596,0,59,59,59,1,214,8,1,peacock       ,redfox      ,html/resources/sequences_IDs/A/05_peacock.jpg,html/resources/sequences_IDs/B/01_redfox.jpg,5,1,2,1,1,1,4,1,0,90,,,,,,,,,,,,,,,,,,,,
,,,,,90,2020-07-04_11h08.23.724,retriever_ti,2020.1.3,MacIntel,60,Chrome,1280,800,,,,,,,,,,,,,,,,,3,,,,,,,,,,,,,,,,,,,,,,,,,,,1680.51525,215,right,0.695735,calculator    ,6,9,-2,0,3,1680.54729,1680.54729,1683.048095,0,60,60,60,1,215,8,6,peacock       ,calculator    ,html/resources/sequences_IDs/A/05_peacock.jpg,html/resources/sequences_IDs/A/09_calculator.jpg,5,9,2,1,4,2,4,8,0,90,,,,,,,,,,,,,,,,,,,,
,,,,,90,2020-07-04_11h08.23.724,retriever_ti,2020.1.3,MacIntel,60,Chrome,1280,800,,,,,,,,,,,,,,,,,3,,,,,,,,,,,,,,,,,,,,,,,,,,,1683.651,216,right,0.907275,dress         ,4,7,2,1,3,1683.666615,1683.666615,1686.165875,0,61,61,61,1,216,2,4,seaturtle     ,dress         ,html/resources/sequences_IDs/A/02_seaturtle.jpg,html/resources/sequences_IDs/A/07_dress.jpg,2,7,2,1,3,2,2,6,0,90,,,,,,,,,,,,,,,,,,,,
,,,,,90,2020-07-04_11h08.23.724,retriever_ti,2020.1.3,MacIntel,60,Chrome,1280,800,,,,,,,,,,,,,,,,,3,,,,,,,,,,,,,,,,,,,,,,,,,,,1686.76705,217,left,1.32779,slipper     ,7,8,1,1,1,1686.785105,1686.785105,1689.28352,0,62,62,62,1,217,7,6,slipper     ,calculator    ,html/resources/sequences_IDs/B/08_slipper.jpg,html/resources/sequences_IDs/A/09_calculator.jpg,8,9,3,2,4,2,7,8,0,90,,,,,,,,,,,,,,,,,,,,
,,,,,90,2020-07-04_11h08.23.724,retriever_ti,2020.1.3,MacIntel,60,Chrome,1280,800,,,,,,,,,,,,,,,,,3,,,,,,,,,,,,,,,,,,,,,,,,,,,1690.384975,218,left,1.251245,calculator    ,6,9,3,1,3,1690.40341,1690.40341,1692.90262,0,63,63,63,1,218,6,3,calculator    ,gloves      ,html/resources/sequences_IDs/A/09_calculator.jpg,html/resources/sequences_IDs/B/06_gloves.jpg,9,6,4,2,3,2,8,5,0,90,,,,,,,,,,,,,,,,,,,,
,,,,,90,2020-07-04_11h08.23.724,retriever_ti,2020.1.3,MacIntel,60,Chrome,1280,800,,,,,,,,,,,,,,,,,3,,,,,,,,,,,,,,,,,,,,,,,,,,,1693.51978,219,right,1.248745,dress         ,4,7,-4,0,3,1693.539225,1693.539225,1696.037065,0,64,64,64,1,219,8,4,peacock       ,dress         ,html/resources/sequences_IDs/A/05_peacock.jpg,html/resources/sequences_IDs/A/07_dress.jpg,5,7,2,1,3,2,4,6,0,90,,,,,,,,,,,,,,,,,,,,
