instructionsLoop.thisRepN,instructionsLoop.thisTrialN,instructionsLoop.thisN,instructionsLoop.thisIndex,instructionsLoop.ran,participant,date,expName,psychopyVersion,OS,frameRate,fbclid,browser,xResolution,yResolution,fix_onset,tprac,practiceKey.keys,practiceKey.rt,pracitem_chosen_name,acc_practice,P1_onsetPrac,P2_onsetPrac,onsetFeedbPrac,practiceTrials.thisRepN,practiceTrials.thisTrialN,practiceTrials.thisN,practiceTrials.thisIndex,practiceTrials.ran,P1,P2,Block,LocItem1,LocItem2,NameItem1,NameItem2,key_respAC_prac.keys,key_respAC_prac.corr,key_respAC_prac.rt,AC_acc,Attentions.thisRepN,Attentions.thisTrialN,Attentions.thisN,Attentions.thisIndex,Attentions.ran,Stim,Loc1,Loc2,Loc3,Loc4,CorrAns,keyDisturbed.keys,keyDisturbed.rt,repPractice.thisRepN,repPractice.thisTrialN,repPractice.thisN,repPractice.thisIndex,repPractice.ran,fixcross_onsetMain,trialNumber,key_resp.keys,item_chosen_name,item_chosen_value,item_chosen_ID,diff_chosen_minus_reject,key_resp.rt,acc_real,acc_feedback,P1_onset,P2_onset,feedb_onset,trials.thisRepN,trials.thisTrialN,trials.thisN,trials.thisIndex,trials.ran,Trial,ValueP1,ValueP2,P1name,P2name,P1Loc,P2Loc,P1id,P2id,Micro_categoryP1,Macro_categoryP1,Micro_categoryP2,Macro_categoryP2,ID_sequenceP1,ID_sequenceP2,InverseFb,pNumber
0,0,0,0,1,92,2020-07-04_20h30.38.134,retriever_ti,2020.1.3,MacIntel,60,IwAR1ZKiydhZvjUAjBoglzHT1x_YqWxOendbJOsrdPXUiaJr37IoftP9U-6So,Chrome,1440,900,,,,,,,,,,,,,,,,,,,,,,,,,,,,,,,,,,,,,,,,,,,,,,,,,,,,,,,,,,,,,,,,,,,,,,,,,,,,,,
1,0,1,0,1,92,2020-07-04_20h30.38.134,retriever_ti,2020.1.3,MacIntel,60,IwAR1ZKiydhZvjUAjBoglzHT1x_YqWxOendbJOsrdPXUiaJr37IoftP9U-6So,Chrome,1440,900,,,,,,,,,,,,,,,,,,,,,,,,,,,,,,,,,,,,,,,,,,,,,,,,,,,,,,,,,,,,,,,,,,,,,,,,,,,,,,
2,0,2,0,1,92,2020-07-04_20h30.38.134,retriever_ti,2020.1.3,MacIntel,60,IwAR1ZKiydhZvjUAjBoglzHT1x_YqWxOendbJOsrdPXUiaJr37IoftP9U-6So,Chrome,1440,900,,,,,,,,,,,,,,,,,,,,,,,,,,,,,,,,,,,,,,,,,,,,,,,,,,,,,,,,,,,,,,,,,,,,,,,,,,,,,,
3,0,3,0,1,92,2020-07-04_20h30.38.134,retriever_ti,2020.1.3,MacIntel,60,IwAR1ZKiydhZvjUAjBoglzHT1x_YqWxOendbJOsrdPXUiaJr37IoftP9U-6So,Chrome,1440,900,,,,,,,,,,,,,,,,,,,,,,,,,,,,,,,,,,,,,,,,,,,,,,,,,,,,,,,,,,,,,,,,,,,,,,,,,,,,,,
4,0,4,0,1,92,2020-07-04_20h30.38.134,retriever_ti,2020.1.3,MacIntel,60,IwAR1ZKiydhZvjUAjBoglzHT1x_YqWxOendbJOsrdPXUiaJr37IoftP9U-6So,Chrome,1440,900,,,,,,,,,,,,,,,,,,,,,,,,,,,,,,,,,,,,,,,,,,,,,,,,,,,,,,,,,,,,,,,,,,,,,,,,,,,,,,
5,0,5,0,1,92,2020-07-04_20h30.38.134,retriever_ti,2020.1.3,MacIntel,60,IwAR1ZKiydhZvjUAjBoglzHT1x_YqWxOendbJOsrdPXUiaJr37IoftP9U-6So,Chrome,1440,900,,,,,,,,,,,,,,,,,,,,,,,,,,,,,,,,,,,,,,,,,,,,,,,,,,,,,,,,,,,,,,,,,,,,,,,,,,,,,,
6,0,6,0,1,92,2020-07-04_20h30.38.134,retriever_ti,2020.1.3,MacIntel,60,IwAR1ZKiydhZvjUAjBoglzHT1x_YqWxOendbJOsrdPXUiaJr37IoftP9U-6So,Chrome,1440,900,,,,,,,,,,,,,,,,,,,,,,,,,,,,,,,,,,,,,,,,,,,,,,,,,,,,,,,,,,,,,,,,,,,,,,,,,,,,,,
7,0,7,0,1,92,2020-07-04_20h30.38.134,retriever_ti,2020.1.3,MacIntel,60,IwAR1ZKiydhZvjUAjBoglzHT1x_YqWxOendbJOsrdPXUiaJr37IoftP9U-6So,Chrome,1440,900,,,,,,,,,,,,,,,,,,,,,,,,,,,,,,,,,,,,,,,,,,,,,,,,,,,,,,,,,,,,,,,,,,,,,,,,,,,,,,
8,0,8,0,1,92,2020-07-04_20h30.38.134,retriever_ti,2020.1.3,MacIntel,60,IwAR1ZKiydhZvjUAjBoglzHT1x_YqWxOendbJOsrdPXUiaJr37IoftP9U-6So,Chrome,1440,900,,,,,,,,,,,,,,,,,,,,,,,,,,,,,,,,,,,,,,,,,,,,,,,,,,,,,,,,,,,,,,,,,,,,,,,,,,,,,,
9,0,9,0,1,92,2020-07-04_20h30.38.134,retriever_ti,2020.1.3,MacIntel,60,IwAR1ZKiydhZvjUAjBoglzHT1x_YqWxOendbJOsrdPXUiaJr37IoftP9U-6So,Chrome,1440,900,,,,,,,,,,,,,,,,,,,,,,,,,,,,,,,,,,,,,,,,,,,,,,,,,,,,,,,,,,,,,,,,,,,,,,,,,,,,,,
10,0,10,0,1,92,2020-07-04_20h30.38.134,retriever_ti,2020.1.3,MacIntel,60,IwAR1ZKiydhZvjUAjBoglzHT1x_YqWxOendbJOsrdPXUiaJr37IoftP9U-6So,Chrome,1440,900,,,,,,,,,,,,,,,,,,,,,,,,,,,,,,,,,,,,,,,,,,,,,,,,,,,,,,,,,,,,,,,,,,,,,,,,,,,,,,
11,0,11,0,1,92,2020-07-04_20h30.38.134,retriever_ti,2020.1.3,MacIntel,60,IwAR1ZKiydhZvjUAjBoglzHT1x_YqWxOendbJOsrdPXUiaJr37IoftP9U-6So,Chrome,1440,900,,,,,,,,,,,,,,,,,,,,,,,,,,,,,,,,,,,,,,,,,,,,,,,,,,,,,,,,,,,,,,,,,,,,,,,,,,,,,,
12,0,12,0,1,92,2020-07-04_20h30.38.134,retriever_ti,2020.1.3,MacIntel,60,IwAR1ZKiydhZvjUAjBoglzHT1x_YqWxOendbJOsrdPXUiaJr37IoftP9U-6So,Chrome,1440,900,,,,,,,,,,,,,,,,,,,,,,,,,,,,,,,,,,,,,,,,,,,,,,,,,,,,,,,,,,,,,,,,,,,,,,,,,,,,,,
13,0,13,0,1,92,2020-07-04_20h30.38.134,retriever_ti,2020.1.3,MacIntel,60,IwAR1ZKiydhZvjUAjBoglzHT1x_YqWxOendbJOsrdPXUiaJr37IoftP9U-6So,Chrome,1440,900,,,,,,,,,,,,,,,,,,,,,,,,,,,,,,,,,,,,,,,,,,,,,,,,,,,,,,,,,,,,,,,,,,,,,,,,,,,,,,
14,0,14,0,1,92,2020-07-04_20h30.38.134,retriever_ti,2020.1.3,MacIntel,60,IwAR1ZKiydhZvjUAjBoglzHT1x_YqWxOendbJOsrdPXUiaJr37IoftP9U-6So,Chrome,1440,900,,,,,,,,,,,,,,,,,,,,,,,,,,,,,,,,,,,,,,,,,,,,,,,,,,,,,,,,,,,,,,,,,,,,,,,,,,,,,,
,,,,,92,2020-07-04_20h30.38.134,retriever_ti,2020.1.3,MacIntel,60,IwAR1ZKiydhZvjUAjBoglzHT1x_YqWxOendbJOsrdPXUiaJr37IoftP9U-6So,Chrome,1440,900,16.0213,1,NaN,NaN,No_response,2,16.0416,16.0416,18.5408,0,0,0,0,1,2,5,1,html/resources/stimuli_practice_decision/04_beetle.jpg,html/resources/stimuli_practice_decision/02_canary.jpg,beetle,canary,,,,,,,,,,,,,,,,,,,,,,,,,,,,,,,,,,,,,,,,,,,,,,,,,,,,,,,,,
,,,,,92,2020-07-04_20h30.38.134,retriever_ti,2020.1.3,MacIntel,60,IwAR1ZKiydhZvjUAjBoglzHT1x_YqWxOendbJOsrdPXUiaJr37IoftP9U-6So,Chrome,1440,900,19.0606,2,NaN,NaN,No_response,2,19.0909,19.0909,21.59,0,1,1,1,1,4,3,1,html/resources/stimuli_practice_decision/01_rabbit.jpg,html/resources/stimuli_practice_decision/07_sock.jpg,rabbit,sock,,,,,,,,,,,,,,,,,,,,,,,,,,,,,,,,,,,,,,,,,,,,,,,,,,,,,,,,,
,,,,,92,2020-07-04_20h30.38.134,retriever_ti,2020.1.3,MacIntel,60,IwAR1ZKiydhZvjUAjBoglzHT1x_YqWxOendbJOsrdPXUiaJr37IoftP9U-6So,Chrome,1440,900,22.0906,3,NaN,NaN,No_response,2,22.1073,22.1073,24.6069,0,2,2,2,1,6,2,1,html/resources/stimuli_practice_decision/06_pullover.jpg,html/resources/stimuli_practice_decision/04_beetle.jpg,pullover,beetle,,,,,,,,,,,,,,,,,,,,,,,,,,,,,,,,,,,,,,,,,,,,,,,,,,,,,,,,,
,,,,,92,2020-07-04_20h30.38.134,retriever_ti,2020.1.3,MacIntel,60,IwAR1ZKiydhZvjUAjBoglzHT1x_YqWxOendbJOsrdPXUiaJr37IoftP9U-6So,Chrome,1440,900,25.1237,4,right,0.8802,handmixer,0,25.1581,25.1581,27.6566,0,3,3,3,1,7,1,1,html/resources/stimuli_practice_decision/05_glasses.jpg,html/resources/stimuli_practice_decision/08_handmixer.jpg,glasses,handmixer,,,,,,,,,,,,,,,,,,,,,,,,,,,,,,,,,,,,,,,,,,,,,,,,,,,,,,,,,
,,,,,92,2020-07-04_20h30.38.134,retriever_ti,2020.1.3,MacIntel,60,IwAR1ZKiydhZvjUAjBoglzHT1x_YqWxOendbJOsrdPXUiaJr37IoftP9U-6So,Chrome,1440,900,28.157,5,right,1.4116,pullover,0,28.1743,28.1743,30.6732,0,4,4,4,1,7,6,1,html/resources/stimuli_practice_decision/05_glasses.jpg,html/resources/stimuli_practice_decision/06_pullover.jpg,glasses,pullover,,,,,,,,,,,,,,,,,,,,,,,,,,,,,,,,,,,,,,,,,,,,,,,,,,,,,,,,,
,,,,,92,2020-07-04_20h30.38.134,retriever_ti,2020.1.3,MacIntel,60,IwAR1ZKiydhZvjUAjBoglzHT1x_YqWxOendbJOsrdPXUiaJr37IoftP9U-6So,Chrome,1440,900,31.6736,6,right,0.0542,glasses,1,31.6904,31.6904,34.1896,0,5,5,5,1,4,7,1,html/resources/stimuli_practice_decision/01_rabbit.jpg,html/resources/stimuli_practice_decision/05_glasses.jpg,rabbit,glasses,,,,,,,,,,,,,,,,,,,,,,,,,,,,,,,,,,,,,,,,,,,,,,,,,,,,,,,,,
,,,,,92,2020-07-04_20h30.38.134,retriever_ti,2020.1.3,MacIntel,60,IwAR1ZKiydhZvjUAjBoglzHT1x_YqWxOendbJOsrdPXUiaJr37IoftP9U-6So,Chrome,1440,900,34.6901,7,NaN,NaN,No_response,2,34.707,34.707,37.2059,0,6,6,6,1,1,2,1,html/resources/stimuli_practice_decision/08_handmixer.jpg,html/resources/stimuli_practice_decision/04_beetle.jpg,handmixer,beetle,,,,,,,,,,,,,,,,,,,,,,,,,,,,,,,,,,,,,,,,,,,,,,,,,,,,,,,,,
,,,,,92,2020-07-04_20h30.38.134,retriever_ti,2020.1.3,MacIntel,60,IwAR1ZKiydhZvjUAjBoglzHT1x_YqWxOendbJOsrdPXUiaJr37IoftP9U-6So,Chrome,1440,900,37.7231,8,NaN,NaN,No_response,2,37.7568,37.7568,40.2555,0,7,7,7,1,4,3,1,html/resources/stimuli_practice_decision/01_rabbit.jpg,html/resources/stimuli_practice_decision/07_sock.jpg,rabbit,sock,,,,,,,,,,,,,,,,,,,,,,,,,,,,,,,,,,,,,,,,,,,,,,,,,,,,,,,,,
,,,,,92,2020-07-04_20h30.38.134,retriever_ti,2020.1.3,MacIntel,60,IwAR1ZKiydhZvjUAjBoglzHT1x_YqWxOendbJOsrdPXUiaJr37IoftP9U-6So,Chrome,1440,900,,,,,,,,,,,,,,,,,,,,,,up,1,3.453,1,0,0,0,0,1,html/resources/sequences_IDs/circle.png,circle ↑,square →,triangle ↓,← star ,up,,,,,,,,,,,,,,,,,,,,,,,,,,,,,,,,,,,,,,,,,,
,,,,,92,2020-07-04_20h30.38.134,retriever_ti,2020.1.3,MacIntel,60,IwAR1ZKiydhZvjUAjBoglzHT1x_YqWxOendbJOsrdPXUiaJr37IoftP9U-6So,Chrome,1440,900,,,,,,,,,,,,,,,,,,,,,,down,1,1.9285,1,0,1,1,1,1,html/resources/sequences_IDs/star.png,square ↑,circle →,star ↓,← triangle,down,,,,,,,,,,,,,,,,,,,,,,,,,,,,,,,,,,,,,,,,,,
,,,,,92,2020-07-04_20h30.38.134,retriever_ti,2020.1.3,MacIntel,60,IwAR1ZKiydhZvjUAjBoglzHT1x_YqWxOendbJOsrdPXUiaJr37IoftP9U-6So,Chrome,1440,900,,,,,,,,,,,,,,,,,,,,,,down,1,1.887,1,0,2,2,3,1,html/resources/sequences_IDs/triangle.png,star ↑,square →,triangle ↓,← circle,down,,,,,,,,,,,,,,,,,,,,,,,,,,,,,,,,,,,,,,,,,,
,,,,,92,2020-07-04_20h30.38.134,retriever_ti,2020.1.3,MacIntel,60,IwAR1ZKiydhZvjUAjBoglzHT1x_YqWxOendbJOsrdPXUiaJr37IoftP9U-6So,Chrome,1440,900,,,,,,,,,,,,,,,,,,,,,,left,1,1.2616,1,0,3,3,2,1,html/resources/sequences_IDs/square1.png,star ↑,triangle →,circle ↓,← square,left,,,,,,,,,,,,,,,,,,,,,,,,,,,,,,,,,,,,,,,,,,
,,,,,92,2020-07-04_20h30.38.134,retriever_ti,2020.1.3,MacIntel,60,IwAR1ZKiydhZvjUAjBoglzHT1x_YqWxOendbJOsrdPXUiaJr37IoftP9U-6So,Chrome,1440,900,,,,,,,,,,,,,,,,,,,,,,,,,,,,,,,,,,,,,1,3.2776,0,0,0,0,1,,,,,,,,,,,,,,,,,,,,,,,,,,,,,,,,,,,
,,,,,92,2020-07-04_20h30.38.134,retriever_ti,2020.1.3,MacIntel,60,IwAR1ZKiydhZvjUAjBoglzHT1x_YqWxOendbJOsrdPXUiaJr37IoftP9U-6So,Chrome,1440,900,57.1347,9,right,1.4755,glasses,1,57.1576,57.1576,59.6553,0,0,0,0,1,6,7,1,html/resources/stimuli_practice_decision/06_pullover.jpg,html/resources/stimuli_practice_decision/05_glasses.jpg,pullover,glasses,,,,,,,,,,,,,,,,,,,,,,,,,,,,,,,,,,,,,,,,,,,,,,,,,,,,,,,,,
,,,,,92,2020-07-04_20h30.38.134,retriever_ti,2020.1.3,MacIntel,60,IwAR1ZKiydhZvjUAjBoglzHT1x_YqWxOendbJOsrdPXUiaJr37IoftP9U-6So,Chrome,1440,900,60.6556,10,NaN,NaN,No_response,2,60.6898,60.6898,63.188,0,1,1,1,1,6,2,1,html/resources/stimuli_practice_decision/06_pullover.jpg,html/resources/stimuli_practice_decision/04_beetle.jpg,pullover,beetle,,,,,,,,,,,,,,,,,,,,,,,,,,,,,,,,,,,,,,,,,,,,,,,,,,,,,,,,,
,,,,,92,2020-07-04_20h30.38.134,retriever_ti,2020.1.3,MacIntel,60,IwAR1ZKiydhZvjUAjBoglzHT1x_YqWxOendbJOsrdPXUiaJr37IoftP9U-6So,Chrome,1440,900,64.189,11,right,0.9873,pullover,1,64.2235,64.2235,66.7216,0,2,2,2,1,5,6,1,html/resources/stimuli_practice_decision/02_canary.jpg,html/resources/stimuli_practice_decision/06_pullover.jpg,canary,pullover,,,,,,,,,,,,,,,,,,,,,,,,,,,,,,,,,,,,,,,,,,,,,,,,,,,,,,,,,
,,,,,92,2020-07-04_20h30.38.134,retriever_ti,2020.1.3,MacIntel,60,IwAR1ZKiydhZvjUAjBoglzHT1x_YqWxOendbJOsrdPXUiaJr37IoftP9U-6So,Chrome,1440,900,67.7221,12,right,1.4136,glasses,0,67.7564,67.7564,70.2546,0,3,3,3,1,8,7,1,html/resources/stimuli_practice_decision/03_squirrel.jpg,html/resources/stimuli_practice_decision/05_glasses.jpg,squirrel,glasses,,,,,,,,,,,,,,,,,,,,,,,,,,,,,,,,,,,,,,,,,,,,,,,,,,,,,,,,,
,,,,,92,2020-07-04_20h30.38.134,retriever_ti,2020.1.3,MacIntel,60,IwAR1ZKiydhZvjUAjBoglzHT1x_YqWxOendbJOsrdPXUiaJr37IoftP9U-6So,Chrome,1440,900,71.2552,13,left,0.9475,canary,1,71.2897,71.2897,73.7879,0,4,4,4,1,5,3,1,html/resources/stimuli_practice_decision/02_canary.jpg,html/resources/stimuli_practice_decision/07_sock.jpg,canary,sock,,,,,,,,,,,,,,,,,,,,,,,,,,,,,,,,,,,,,,,,,,,,,,,,,,,,,,,,,
,,,,,92,2020-07-04_20h30.38.134,retriever_ti,2020.1.3,MacIntel,60,IwAR1ZKiydhZvjUAjBoglzHT1x_YqWxOendbJOsrdPXUiaJr37IoftP9U-6So,Chrome,1440,900,74.3054,14,left,0.7586,glasses,0,74.3229,74.3229,76.8213,0,5,5,5,1,7,8,1,html/resources/stimuli_practice_decision/05_glasses.jpg,html/resources/stimuli_practice_decision/03_squirrel.jpg,glasses,squirrel,,,,,,,,,,,,,,,,,,,,,,,,,,,,,,,,,,,,,,,,,,,,,,,,,,,,,,,,,
,,,,,92,2020-07-04_20h30.38.134,retriever_ti,2020.1.3,MacIntel,60,IwAR1ZKiydhZvjUAjBoglzHT1x_YqWxOendbJOsrdPXUiaJr37IoftP9U-6So,Chrome,1440,900,77.8221,15,right,0.4511,rabbit,0,77.8561,77.8561,80.3555,0,6,6,6,1,5,4,1,html/resources/stimuli_practice_decision/02_canary.jpg,html/resources/stimuli_practice_decision/01_rabbit.jpg,canary,rabbit,,,,,,,,,,,,,,,,,,,,,,,,,,,,,,,,,,,,,,,,,,,,,,,,,,,,,,,,,
,,,,,92,2020-07-04_20h30.38.134,retriever_ti,2020.1.3,MacIntel,60,IwAR1ZKiydhZvjUAjBoglzHT1x_YqWxOendbJOsrdPXUiaJr37IoftP9U-6So,Chrome,1440,900,81.355,16,right,0.319,sock,0,81.3909,81.3909,83.8872,0,7,7,7,1,5,3,1,html/resources/stimuli_practice_decision/02_canary.jpg,html/resources/stimuli_practice_decision/07_sock.jpg,canary,sock,,,,,,,,,,,,,,,,,,,,,,,,,,,,,,,,,,,,,,,,,,,,,,,,,,,,,,,,,
,,,,,92,2020-07-04_20h30.38.134,retriever_ti,2020.1.3,MacIntel,60,IwAR1ZKiydhZvjUAjBoglzHT1x_YqWxOendbJOsrdPXUiaJr37IoftP9U-6So,Chrome,1440,900,,,,,,,,,,,,,,,,,,,,,,right,0,0.038,0,0,0,0,2,1,html/resources/sequences_IDs/square1.png,star ↑,triangle →,circle ↓,← square,left,,,,,,,,,,,,,,,,,,,,,,,,,,,,,,,,,,,,,,,,,,
,,,,,92,2020-07-04_20h30.38.134,retriever_ti,2020.1.3,MacIntel,60,IwAR1ZKiydhZvjUAjBoglzHT1x_YqWxOendbJOsrdPXUiaJr37IoftP9U-6So,Chrome,1440,900,,,,,,,,,,,,,,,,,,,,,,right,0,0.1429,0,0,1,1,0,1,html/resources/sequences_IDs/circle.png,circle ↑,square →,triangle ↓,← star ,up,,,,,,,,,,,,,,,,,,,,,,,,,,,,,,,,,,,,,,,,,,
,,,,,92,2020-07-04_20h30.38.134,retriever_ti,2020.1.3,MacIntel,60,IwAR1ZKiydhZvjUAjBoglzHT1x_YqWxOendbJOsrdPXUiaJr37IoftP9U-6So,Chrome,1440,900,,,,,,,,,,,,,,,,,,,,,,down,1,4.1585,1,0,2,2,3,1,html/resources/sequences_IDs/triangle.png,star ↑,square →,triangle ↓,← circle,down,,,,,,,,,,,,,,,,,,,,,,,,,,,,,,,,,,,,,,,,,,
,,,,,92,2020-07-04_20h30.38.134,retriever_ti,2020.1.3,MacIntel,60,IwAR1ZKiydhZvjUAjBoglzHT1x_YqWxOendbJOsrdPXUiaJr37IoftP9U-6So,Chrome,1440,900,,,,,,,,,,,,,,,,,,,,,,down,1,1.0486,1,0,3,3,1,1,html/resources/sequences_IDs/star.png,square ↑,circle →,star ↓,← triangle,down,,,,,,,,,,,,,,,,,,,,,,,,,,,,,,,,,,,,,,,,,,
,,,,,92,2020-07-04_20h30.38.134,retriever_ti,2020.1.3,MacIntel,60,IwAR1ZKiydhZvjUAjBoglzHT1x_YqWxOendbJOsrdPXUiaJr37IoftP9U-6So,Chrome,1440,900,,,,,,,,,,,,,,,,,,,,,,,,,,,,,,,,,,,,,1,1.4775,1,0,1,0,1,,,,,,,,,,,,,,,,,,,,,,,,,,,,,,,,,,,
,,,,,92,2020-07-04_20h30.38.134,retriever_ti,2020.1.3,MacIntel,60,IwAR1ZKiydhZvjUAjBoglzHT1x_YqWxOendbJOsrdPXUiaJr37IoftP9U-6So,Chrome,1440,900,,,,,,,,,,,,,,,,,1,,,,,,,,,,,,,,,,,,,,,,,,,,,101.3366,1,NaN,No_response,NaN,NaN,NaN,NaN,2,2,101.3558,101.3558,103.8541,0,0,0,0,1,1,8,1,redfox      ,calculator    ,html/resources/sequences_IDs/B/01_redfox.jpg,html/resources/sequences_IDs/A/09_calculator.jpg,1,9,1,1,4,2,1,7,0,92
,,,,,92,2020-07-04_20h30.38.134,retriever_ti,2020.1.3,MacIntel,60,IwAR1ZKiydhZvjUAjBoglzHT1x_YqWxOendbJOsrdPXUiaJr37IoftP9U-6So,Chrome,1440,900,,,,,,,,,,,,,,,,,1,,,,,,,,,,,,,,,,,,,,,,,,,,,104.9536,2,left,redfox      ,8,1,1,1.6376,1,1,104.9727,104.9727,107.4697,0,1,1,1,1,2,8,7,redfox      ,hat           ,html/resources/sequences_IDs/B/01_redfox.jpg,html/resources/sequences_IDs/A/08_hat.jpg,1,8,1,1,3,2,1,6,0,92
,,,,,92,2020-07-04_20h30.38.134,retriever_ti,2020.1.3,MacIntel,60,IwAR1ZKiydhZvjUAjBoglzHT1x_YqWxOendbJOsrdPXUiaJr37IoftP9U-6So,Chrome,1440,900,,,,,,,,,,,,,,,,,1,,,,,,,,,,,,,,,,,,,,,,,,,,,108.5708,3,right,redfox      ,8,1,6,0.6837,1,3,108.604,108.604,111.1024,0,2,2,2,1,3,2,8,radio       ,redfox      ,html/resources/sequences_IDs/B/10_radio.jpg,html/resources/sequences_IDs/B/01_redfox.jpg,10,1,4,2,1,1,8,1,0,92
,,,,,92,2020-07-04_20h30.38.134,retriever_ti,2020.1.3,MacIntel,60,IwAR1ZKiydhZvjUAjBoglzHT1x_YqWxOendbJOsrdPXUiaJr37IoftP9U-6So,Chrome,1440,900,,,,,,,,,,,,,,,,,1,,,,,,,,,,,,,,,,,,,,,,,,,,,111.7032,4,right,redfox      ,8,1,7,0.8027,1,3,111.7206,111.7206,114.2192,0,3,3,3,1,4,1,8,calculator    ,redfox      ,html/resources/sequences_IDs/A/09_calculator.jpg,html/resources/sequences_IDs/B/01_redfox.jpg,9,1,4,2,1,1,7,1,0,92
,,,,,92,2020-07-04_20h30.38.134,retriever_ti,2020.1.3,MacIntel,60,IwAR1ZKiydhZvjUAjBoglzHT1x_YqWxOendbJOsrdPXUiaJr37IoftP9U-6So,Chrome,1440,900,,,,,,,,,,,,,,,,,1,,,,,,,,,,,,,,,,,,,,,,,,,,,114.8364,5,left,parrot      ,4,5,1,1.1033,1,1,114.8539,114.8539,117.3524,0,4,4,4,1,5,4,3,parrot      ,clownfish     ,html/resources/sequences_IDs/B/05_parrot.jpg,html/resources/sequences_IDs/A/04_clownfish.jpg,5,4,2,1,2,1,4,3,0,92
,,,,,92,2020-07-04_20h30.38.134,retriever_ti,2020.1.3,MacIntel,60,IwAR1ZKiydhZvjUAjBoglzHT1x_YqWxOendbJOsrdPXUiaJr37IoftP9U-6So,Chrome,1440,900,,,,,,,,,,,,,,,,,1,,,,,,,,,,,,,,,,,,,,,,,,,,,118.4526,6,right,redfox      ,8,1,1,0.9635,1,1,118.4708,118.4708,120.969,0,5,5,5,1,6,7,8,hat           ,redfox      ,html/resources/sequences_IDs/A/08_hat.jpg,html/resources/sequences_IDs/B/01_redfox.jpg,8,1,3,2,1,1,6,1,0,92
,,,,,92,2020-07-04_20h30.38.134,retriever_ti,2020.1.3,MacIntel,60,IwAR1ZKiydhZvjUAjBoglzHT1x_YqWxOendbJOsrdPXUiaJr37IoftP9U-6So,Chrome,1440,900,,,,,,,,,,,,,,,,,1,,,,,,,,,,,,,,,,,,,,,,,,,,,122.0696,7,NaN,No_response,NaN,NaN,NaN,NaN,2,2,122.1036,122.1036,124.6024,0,6,6,6,1,7,1,7,calculator    ,hat           ,html/resources/sequences_IDs/A/09_calculator.jpg,html/resources/sequences_IDs/A/08_hat.jpg,9,8,4,2,3,2,7,6,0,92
,,,,,92,2020-07-04_20h30.38.134,retriever_ti,2020.1.3,MacIntel,60,IwAR1ZKiydhZvjUAjBoglzHT1x_YqWxOendbJOsrdPXUiaJr37IoftP9U-6So,Chrome,1440,900,,,,,,,,,,,,,,,,,1,,,,,,,,,,,,,,,,,,,,,,,,,,,125.7029,8,NaN,No_response,NaN,NaN,NaN,NaN,2,2,125.7385,125.7385,128.2351,0,7,7,7,1,8,2,3,radio       ,clownfish     ,html/resources/sequences_IDs/B/10_radio.jpg,html/resources/sequences_IDs/A/04_clownfish.jpg,10,4,4,2,2,1,8,3,0,92
,,,,,92,2020-07-04_20h30.38.134,retriever_ti,2020.1.3,MacIntel,60,IwAR1ZKiydhZvjUAjBoglzHT1x_YqWxOendbJOsrdPXUiaJr37IoftP9U-6So,Chrome,1440,900,,,,,,,,,,,,,,,,,1,,,,,,,,,,,,,,,,,,,,,,,,,,,129.3355,9,left,redfox      ,8,1,3,1.0854,1,3,129.3723,129.3723,131.8686,0,8,8,8,1,9,8,5,redfox      ,dress         ,html/resources/sequences_IDs/B/01_redfox.jpg,html/resources/sequences_IDs/A/07_dress.jpg,1,7,1,1,3,2,1,5,0,92
,,,,,92,2020-07-04_20h30.38.134,retriever_ti,2020.1.3,MacIntel,60,IwAR1ZKiydhZvjUAjBoglzHT1x_YqWxOendbJOsrdPXUiaJr37IoftP9U-6So,Chrome,1440,900,,,,,,,,,,,,,,,,,1,,,,,,,,,,,,,,,,,,,,,,,,,,,132.4692,10,right,dress         ,5,7,-1,0.9225,0,0,132.5028,132.5028,135.0018,0,9,9,9,1,10,6,5,giraffe     ,dress         ,html/resources/sequences_IDs/B/03_giraffe.jpg,html/resources/sequences_IDs/A/07_dress.jpg,3,7,1,1,3,2,2,5,0,92
,,,,,92,2020-07-04_20h30.38.134,retriever_ti,2020.1.3,MacIntel,60,IwAR1ZKiydhZvjUAjBoglzHT1x_YqWxOendbJOsrdPXUiaJr37IoftP9U-6So,Chrome,1440,900,,,,,,,,,,,,,,,,,1,,,,,,,,,,,,,,,,,,,,,,,,,,,136.102,11,right,giraffe     ,6,3,1,0.9191,1,1,136.1358,136.1358,138.6349,0,10,10,10,1,11,5,6,dress         ,giraffe     ,html/resources/sequences_IDs/A/07_dress.jpg,html/resources/sequences_IDs/B/03_giraffe.jpg,7,3,3,2,1,1,5,2,0,92
,,,,,92,2020-07-04_20h30.38.134,retriever_ti,2020.1.3,MacIntel,60,IwAR1ZKiydhZvjUAjBoglzHT1x_YqWxOendbJOsrdPXUiaJr37IoftP9U-6So,Chrome,1440,900,,,,,,,,,,,,,,,,,1,,,,,,,,,,,,,,,,,,,,,,,,,,,139.7355,12,left,hat           ,7,8,5,1.2493,1,3,139.7526,139.7526,142.2517,0,11,11,11,1,12,7,2,hat           ,radio       ,html/resources/sequences_IDs/A/08_hat.jpg,html/resources/sequences_IDs/B/10_radio.jpg,8,10,3,2,4,2,6,8,0,92
,,,,,92,2020-07-04_20h30.38.134,retriever_ti,2020.1.3,MacIntel,60,IwAR1ZKiydhZvjUAjBoglzHT1x_YqWxOendbJOsrdPXUiaJr37IoftP9U-6So,Chrome,1440,900,,,,,,,,,,,,,,,,,1,,,,,,,,,,,,,,,,,,,,,,,,,,,142.8689,13,left,radio       ,2,10,1,1.8326,1,1,142.9024,142.9024,145.4015,0,12,12,12,1,13,2,1,radio       ,calculator    ,html/resources/sequences_IDs/B/10_radio.jpg,html/resources/sequences_IDs/A/09_calculator.jpg,10,9,4,2,4,2,8,7,0,92
,,,,,92,2020-07-04_20h30.38.134,retriever_ti,2020.1.3,MacIntel,60,IwAR1ZKiydhZvjUAjBoglzHT1x_YqWxOendbJOsrdPXUiaJr37IoftP9U-6So,Chrome,1440,900,,,,,,,,,,,,,,,,,1,,,,,,,,,,,,,,,,,,,,,,,,,,,146.5018,14,left,giraffe     ,6,3,-1,1.3644,0,0,146.5361,146.5361,149.0347,0,13,13,13,1,14,6,7,giraffe     ,hat           ,html/resources/sequences_IDs/B/03_giraffe.jpg,html/resources/sequences_IDs/A/08_hat.jpg,3,8,1,1,3,2,2,6,0,92
,,,,,92,2020-07-04_20h30.38.134,retriever_ti,2020.1.3,MacIntel,60,IwAR1ZKiydhZvjUAjBoglzHT1x_YqWxOendbJOsrdPXUiaJr37IoftP9U-6So,Chrome,1440,900,,,,,,,,,,,,,,,,,1,,,,,,,,,,,,,,,,,,,,,,,,,,,150.1351,15,right,parrot      ,4,5,1,1.6289,1,1,150.1692,150.1692,152.6678,0,14,14,14,1,15,3,4,clownfish     ,parrot      ,html/resources/sequences_IDs/A/04_clownfish.jpg,html/resources/sequences_IDs/B/05_parrot.jpg,4,5,2,1,2,1,3,4,0,92
,,,,,92,2020-07-04_20h30.38.134,retriever_ti,2020.1.3,MacIntel,60,IwAR1ZKiydhZvjUAjBoglzHT1x_YqWxOendbJOsrdPXUiaJr37IoftP9U-6So,Chrome,1440,900,,,,,,,,,,,,,,,,,1,,,,,,,,,,,,,,,,,,,,,,,,,,,153.768,16,left,redfox      ,8,1,6,1.1289,1,3,153.7862,153.7862,156.2843,0,15,15,15,1,16,8,2,redfox      ,radio       ,html/resources/sequences_IDs/B/01_redfox.jpg,html/resources/sequences_IDs/B/10_radio.jpg,1,10,1,1,4,2,1,8,0,92
,,,,,92,2020-07-04_20h30.38.134,retriever_ti,2020.1.3,MacIntel,60,IwAR1ZKiydhZvjUAjBoglzHT1x_YqWxOendbJOsrdPXUiaJr37IoftP9U-6So,Chrome,1440,900,,,,,,,,,,,,,,,,,1,,,,,,,,,,,,,,,,,,,,,,,,,,,156.8854,17,NaN,No_response,NaN,NaN,NaN,NaN,2,2,156.9189,156.9189,159.4177,0,16,16,16,1,17,5,4,dress         ,parrot      ,html/resources/sequences_IDs/A/07_dress.jpg,html/resources/sequences_IDs/B/05_parrot.jpg,7,5,3,2,2,1,5,4,0,92
