instructionsLoop.thisRepN,instructionsLoop.thisTrialN,instructionsLoop.thisN,instructionsLoop.thisIndex,instructionsLoop.ran,participant,date,expName,psychopyVersion,OS,frameRate,browser,xResolution,yResolution,fix_onset,tprac,practiceKey.keys,practiceKey.rt,pracitem_chosen_name,acc_practice,P1_onsetPrac,P2_onsetPrac,onsetFeedbPrac,practiceTrials.thisRepN,practiceTrials.thisTrialN,practiceTrials.thisN,practiceTrials.thisIndex,practiceTrials.ran,P1,P2,Block,LocItem1,LocItem2,NameItem1,NameItem2,key_respAC_prac.keys,key_respAC_prac.corr,key_respAC_prac.rt,AC_acc,Attentions.thisRepN,Attentions.thisTrialN,Attentions.thisN,Attentions.thisIndex,Attentions.ran,Stim,Loc1,Loc2,Loc3,Loc4,CorrAns,keyDisturbed.keys,keyDisturbed.rt,repPractice.thisRepN,repPractice.thisTrialN,repPractice.thisN,repPractice.thisIndex,repPractice.ran,fixcross_onsetMain,trialNumber,key_resp.keys,key_resp.rt,item_chosen_name,item_chosen_value,item_chosen_ID,diff_chosen_minus_reject,acc_real,acc_feedback,P1_onset,P2_onset,feedb_onset,trials.thisRepN,trials.thisTrialN,trials.thisN,trials.thisIndex,trials.ran,Trial,ValueP1,ValueP2,P1name,P2name,P1Loc,P2Loc,P1id,P2id,Micro_categoryP1,Macro_categoryP1,Micro_categoryP2,Macro_categoryP2,ID_sequenceP1,ID_sequenceP2,InverseFb,pNumber,repBlocks.thisRepN,repBlocks.thisTrialN,repBlocks.thisN,repBlocks.thisIndex,repBlocks.ran,key_respAC.keys,key_respAC.corr,key_respAC.rt,trials_AC.thisRepN,trials_AC.thisTrialN,trials_AC.thisN,trials_AC.thisIndex,trials_AC.ran,Bonus,BonusLoop.thisRepN,BonusLoop.thisTrialN,BonusLoop.thisN,BonusLoop.thisIndex,BonusLoop.ran,comments
0,0,0,0,1,92,2020-07-04_19h49.41.114,retriever_ti,2020.1.3,Win32,60,Chrome,1366,768,,,,,,,,,,,,,,,,,,,,,,,,,,,,,,,,,,,,,,,,,,,,,,,,,,,,,,,,,,,,,,,,,,,,,,,,,,,,,,,,,,,,,,,,,,,,,,,,,,
1,0,1,0,1,92,2020-07-04_19h49.41.114,retriever_ti,2020.1.3,Win32,60,Chrome,1366,768,,,,,,,,,,,,,,,,,,,,,,,,,,,,,,,,,,,,,,,,,,,,,,,,,,,,,,,,,,,,,,,,,,,,,,,,,,,,,,,,,,,,,,,,,,,,,,,,,,
2,0,2,0,1,92,2020-07-04_19h49.41.114,retriever_ti,2020.1.3,Win32,60,Chrome,1366,768,,,,,,,,,,,,,,,,,,,,,,,,,,,,,,,,,,,,,,,,,,,,,,,,,,,,,,,,,,,,,,,,,,,,,,,,,,,,,,,,,,,,,,,,,,,,,,,,,,
3,0,3,0,1,92,2020-07-04_19h49.41.114,retriever_ti,2020.1.3,Win32,60,Chrome,1366,768,,,,,,,,,,,,,,,,,,,,,,,,,,,,,,,,,,,,,,,,,,,,,,,,,,,,,,,,,,,,,,,,,,,,,,,,,,,,,,,,,,,,,,,,,,,,,,,,,,
4,0,4,0,1,92,2020-07-04_19h49.41.114,retriever_ti,2020.1.3,Win32,60,Chrome,1366,768,,,,,,,,,,,,,,,,,,,,,,,,,,,,,,,,,,,,,,,,,,,,,,,,,,,,,,,,,,,,,,,,,,,,,,,,,,,,,,,,,,,,,,,,,,,,,,,,,,
5,0,5,0,1,92,2020-07-04_19h49.41.114,retriever_ti,2020.1.3,Win32,60,Chrome,1366,768,,,,,,,,,,,,,,,,,,,,,,,,,,,,,,,,,,,,,,,,,,,,,,,,,,,,,,,,,,,,,,,,,,,,,,,,,,,,,,,,,,,,,,,,,,,,,,,,,,
6,0,6,0,1,92,2020-07-04_19h49.41.114,retriever_ti,2020.1.3,Win32,60,Chrome,1366,768,,,,,,,,,,,,,,,,,,,,,,,,,,,,,,,,,,,,,,,,,,,,,,,,,,,,,,,,,,,,,,,,,,,,,,,,,,,,,,,,,,,,,,,,,,,,,,,,,,
7,0,7,0,1,92,2020-07-04_19h49.41.114,retriever_ti,2020.1.3,Win32,60,Chrome,1366,768,,,,,,,,,,,,,,,,,,,,,,,,,,,,,,,,,,,,,,,,,,,,,,,,,,,,,,,,,,,,,,,,,,,,,,,,,,,,,,,,,,,,,,,,,,,,,,,,,,
8,0,8,0,1,92,2020-07-04_19h49.41.114,retriever_ti,2020.1.3,Win32,60,Chrome,1366,768,,,,,,,,,,,,,,,,,,,,,,,,,,,,,,,,,,,,,,,,,,,,,,,,,,,,,,,,,,,,,,,,,,,,,,,,,,,,,,,,,,,,,,,,,,,,,,,,,,
9,0,9,0,1,92,2020-07-04_19h49.41.114,retriever_ti,2020.1.3,Win32,60,Chrome,1366,768,,,,,,,,,,,,,,,,,,,,,,,,,,,,,,,,,,,,,,,,,,,,,,,,,,,,,,,,,,,,,,,,,,,,,,,,,,,,,,,,,,,,,,,,,,,,,,,,,,
10,0,10,0,1,92,2020-07-04_19h49.41.114,retriever_ti,2020.1.3,Win32,60,Chrome,1366,768,,,,,,,,,,,,,,,,,,,,,,,,,,,,,,,,,,,,,,,,,,,,,,,,,,,,,,,,,,,,,,,,,,,,,,,,,,,,,,,,,,,,,,,,,,,,,,,,,,
11,0,11,0,1,92,2020-07-04_19h49.41.114,retriever_ti,2020.1.3,Win32,60,Chrome,1366,768,,,,,,,,,,,,,,,,,,,,,,,,,,,,,,,,,,,,,,,,,,,,,,,,,,,,,,,,,,,,,,,,,,,,,,,,,,,,,,,,,,,,,,,,,,,,,,,,,,
12,0,12,0,1,92,2020-07-04_19h49.41.114,retriever_ti,2020.1.3,Win32,60,Chrome,1366,768,,,,,,,,,,,,,,,,,,,,,,,,,,,,,,,,,,,,,,,,,,,,,,,,,,,,,,,,,,,,,,,,,,,,,,,,,,,,,,,,,,,,,,,,,,,,,,,,,,
13,0,13,0,1,92,2020-07-04_19h49.41.114,retriever_ti,2020.1.3,Win32,60,Chrome,1366,768,,,,,,,,,,,,,,,,,,,,,,,,,,,,,,,,,,,,,,,,,,,,,,,,,,,,,,,,,,,,,,,,,,,,,,,,,,,,,,,,,,,,,,,,,,,,,,,,,,
14,0,14,0,1,92,2020-07-04_19h49.41.114,retriever_ti,2020.1.3,Win32,60,Chrome,1366,768,,,,,,,,,,,,,,,,,,,,,,,,,,,,,,,,,,,,,,,,,,,,,,,,,,,,,,,,,,,,,,,,,,,,,,,,,,,,,,,,,,,,,,,,,,,,,,,,,,
,,,,,92,2020-07-04_19h49.41.114,retriever_ti,2020.1.3,Win32,60,Chrome,1366,768,6.27535,1,left,0.709455,beetle,0,6.326615,6.326615,8.82599,0,0,0,0,1,2,5,1,html/resources/stimuli_practice_decision/04_beetle.jpg,html/resources/stimuli_practice_decision/02_canary.jpg,beetle,canary,,,,,,,,,,,,,,,,,,,,,,,,,,,,,,,,,,,,,,,,,,,,,,,,,,,,,,,,,,,,,,,,,,,,,,,,,,,,,
,,,,,92,2020-07-04_19h49.41.114,retriever_ti,2020.1.3,Win32,60,Chrome,1366,768,9.444965,2,left,0.61578,rabbit,1,9.47608,9.47608,11.973045,0,1,1,1,1,4,3,1,html/resources/stimuli_practice_decision/01_rabbit.jpg,html/resources/stimuli_practice_decision/07_sock.jpg,rabbit,sock,,,,,,,,,,,,,,,,,,,,,,,,,,,,,,,,,,,,,,,,,,,,,,,,,,,,,,,,,,,,,,,,,,,,,,,,,,,,,
,,,,,92,2020-07-04_19h49.41.114,retriever_ti,2020.1.3,Win32,60,Chrome,1366,768,12.973925,3,left,0.75161,pullover,1,12.992885,12.992885,15.48936,0,2,2,2,1,6,2,1,html/resources/stimuli_practice_decision/06_pullover.jpg,html/resources/stimuli_practice_decision/04_beetle.jpg,pullover,beetle,,,,,,,,,,,,,,,,,,,,,,,,,,,,,,,,,,,,,,,,,,,,,,,,,,,,,,,,,,,,,,,,,,,,,,,,,,,,,
,,,,,92,2020-07-04_19h49.41.114,retriever_ti,2020.1.3,Win32,60,Chrome,1366,768,15.99133,4,left,0.68095,glasses,1,16.025675,16.025675,18.521865,0,3,3,3,1,7,1,1,html/resources/stimuli_practice_decision/05_glasses.jpg,html/resources/stimuli_practice_decision/08_handmixer.jpg,glasses,handmixer,,,,,,,,,,,,,,,,,,,,,,,,,,,,,,,,,,,,,,,,,,,,,,,,,,,,,,,,,,,,,,,,,,,,,,,,,,,,,
,,,,,92,2020-07-04_19h49.41.114,retriever_ti,2020.1.3,Win32,60,Chrome,1366,768,19.023945,5,left,0.41599,glasses,1,19.042415,19.042415,21.53847,0,4,4,4,1,7,6,1,html/resources/stimuli_practice_decision/05_glasses.jpg,html/resources/stimuli_practice_decision/06_pullover.jpg,glasses,pullover,,,,,,,,,,,,,,,,,,,,,,,,,,,,,,,,,,,,,,,,,,,,,,,,,,,,,,,,,,,,,,,,,,,,,,,,,,,,,
,,,,,92,2020-07-04_19h49.41.114,retriever_ti,2020.1.3,Win32,60,Chrome,1366,768,22.54039,6,right,0.63317,glasses,1,22.55785,22.55785,25.056725,0,5,5,5,1,4,7,1,html/resources/stimuli_practice_decision/01_rabbit.jpg,html/resources/stimuli_practice_decision/05_glasses.jpg,rabbit,glasses,,,,,,,,,,,,,,,,,,,,,,,,,,,,,,,,,,,,,,,,,,,,,,,,,,,,,,,,,,,,,,,,,,,,,,,,,,,,,
,,,,,92,2020-07-04_19h49.41.114,retriever_ti,2020.1.3,Win32,60,Chrome,1366,768,25.575455,7,left,0.743115,handmixer,0,25.612855,25.612855,28.10501,0,6,6,6,1,1,2,1,html/resources/stimuli_practice_decision/08_handmixer.jpg,html/resources/stimuli_practice_decision/04_beetle.jpg,handmixer,beetle,,,,,,,,,,,,,,,,,,,,,,,,,,,,,,,,,,,,,,,,,,,,,,,,,,,,,,,,,,,,,,,,,,,,,,,,,,,,,
,,,,,92,2020-07-04_19h49.41.114,retriever_ti,2020.1.3,Win32,60,Chrome,1366,768,29.107375,8,left,0.585815,rabbit,1,29.141865,29.141865,31.638405,0,7,7,7,1,4,3,1,html/resources/stimuli_practice_decision/01_rabbit.jpg,html/resources/stimuli_practice_decision/07_sock.jpg,rabbit,sock,,,,,,,,,,,,,,,,,,,,,,,,,,,,,,,,,,,,,,,,,,,,,,,,,,,,,,,,,,,,,,,,,,,,,,,,,,,,,
,,,,,92,2020-07-04_19h49.41.114,retriever_ti,2020.1.3,Win32,60,Chrome,1366,768,,,,,,,,,,,,,,,,,,,,,,down,1,1.111265,1,0,0,0,3,1,html/resources/sequences_IDs/triangle.png,star ↑,square →,triangle ↓,← circle,down,,,,,,,,,,,,,,,,,,,,,,,,,,,,,,,,,,,,,,,,,,,,,,,,,,,,,,,,,,,,,,
,,,,,92,2020-07-04_19h49.41.114,retriever_ti,2020.1.3,Win32,60,Chrome,1366,768,,,,,,,,,,,,,,,,,,,,,,down,1,1.820955,1,0,1,1,1,1,html/resources/sequences_IDs/star.png,square ↑,circle →,star ↓,← triangle,down,,,,,,,,,,,,,,,,,,,,,,,,,,,,,,,,,,,,,,,,,,,,,,,,,,,,,,,,,,,,,,
,,,,,92,2020-07-04_19h49.41.114,retriever_ti,2020.1.3,Win32,60,Chrome,1366,768,,,,,,,,,,,,,,,,,,,,,,up,1,0.735605,1,0,2,2,0,1,html/resources/sequences_IDs/circle.png,circle ↑,square →,triangle ↓,← star ,up,,,,,,,,,,,,,,,,,,,,,,,,,,,,,,,,,,,,,,,,,,,,,,,,,,,,,,,,,,,,,,
,,,,,92,2020-07-04_19h49.41.114,retriever_ti,2020.1.3,Win32,60,Chrome,1366,768,,,,,,,,,,,,,,,,,,,,,,left,1,0.803865,1,0,3,3,2,1,html/resources/sequences_IDs/square1.png,star ↑,triangle →,circle ↓,← square,left,,,,,,,,,,,,,,,,,,,,,,,,,,,,,,,,,,,,,,,,,,,,,,,,,,,,,,,,,,,,,,
,,,,,92,2020-07-04_19h49.41.114,retriever_ti,2020.1.3,Win32,60,Chrome,1366,768,,,,,,,,,,,,,,,,,,,,,,,,,,,,,,,,,,,,,0,1.47012,0,0,0,0,1,,,,,,,,,,,,,,,,,,,,,,,,,,,,,,,,,,,,,,,,,,,,,,,,,,,,,,,
,,,,,92,2020-07-04_19h49.41.114,retriever_ti,2020.1.3,Win32,60,Chrome,1366,768,39.94087,9,left,0.601885,pullover,0,39.95789,39.95789,42.456685,0,0,0,0,1,6,7,1,html/resources/stimuli_practice_decision/06_pullover.jpg,html/resources/stimuli_practice_decision/05_glasses.jpg,pullover,glasses,,,,,,,,,,,,,,,,,,,,,,,,,,,,,,,,,,,,,,,,,,,,,,,,,,,,,,,,,,,,,,,,,,,,,,,,,,,,,
,,,,,92,2020-07-04_19h49.41.114,retriever_ti,2020.1.3,Win32,60,Chrome,1366,768,43.45775,10,right,0.748635,beetle,0,43.49164,43.49164,45.987975,0,1,1,1,1,6,2,1,html/resources/stimuli_practice_decision/06_pullover.jpg,html/resources/stimuli_practice_decision/04_beetle.jpg,pullover,beetle,,,,,,,,,,,,,,,,,,,,,,,,,,,,,,,,,,,,,,,,,,,,,,,,,,,,,,,,,,,,,,,,,,,,,,,,,,,,,
,,,,,92,2020-07-04_19h49.41.114,retriever_ti,2020.1.3,Win32,60,Chrome,1366,768,46.505685,11,right,0.77103,pullover,1,46.54116,46.54116,49.03829,0,2,2,2,1,5,6,1,html/resources/stimuli_practice_decision/02_canary.jpg,html/resources/stimuli_practice_decision/06_pullover.jpg,canary,pullover,,,,,,,,,,,,,,,,,,,,,,,,,,,,,,,,,,,,,,,,,,,,,,,,,,,,,,,,,,,,,,,,,,,,,,,,,,,,,
,,,,,92,2020-07-04_19h49.41.114,retriever_ti,2020.1.3,Win32,60,Chrome,1366,768,50.039865,12,right,0.588415,glasses,0,50.05802,50.05802,52.556155,0,3,3,3,1,8,7,1,html/resources/stimuli_practice_decision/03_squirrel.jpg,html/resources/stimuli_practice_decision/05_glasses.jpg,squirrel,glasses,,,,,,,,,,,,,,,,,,,,,,,,,,,,,,,,,,,,,,,,,,,,,,,,,,,,,,,,,,,,,,,,,,,,,,,,,,,,,
,,,,,92,2020-07-04_19h49.41.114,retriever_ti,2020.1.3,Win32,60,Chrome,1366,768,53.55859,13,left,0.632365,canary,1,53.578955,53.578955,56.07269,0,4,4,4,1,5,3,1,html/resources/stimuli_practice_decision/02_canary.jpg,html/resources/stimuli_practice_decision/07_sock.jpg,canary,sock,,,,,,,,,,,,,,,,,,,,,,,,,,,,,,,,,,,,,,,,,,,,,,,,,,,,,,,,,,,,,,,,,,,,,,,,,,,,,
,,,,,92,2020-07-04_19h49.41.114,retriever_ti,2020.1.3,Win32,60,Chrome,1366,768,56.58872,14,left,0.73993,glasses,0,56.62423,56.62423,59.12198,0,5,5,5,1,7,8,1,html/resources/stimuli_practice_decision/05_glasses.jpg,html/resources/stimuli_practice_decision/03_squirrel.jpg,glasses,squirrel,,,,,,,,,,,,,,,,,,,,,,,,,,,,,,,,,,,,,,,,,,,,,,,,,,,,,,,,,,,,,,,,,,,,,,,,,,,,,
,,,,,92,2020-07-04_19h49.41.114,retriever_ti,2020.1.3,Win32,60,Chrome,1366,768,60.128685,15,left,0.675855,canary,1,60.171195,60.171195,62.64677,0,6,6,6,1,5,4,1,html/resources/stimuli_practice_decision/02_canary.jpg,html/resources/stimuli_practice_decision/01_rabbit.jpg,canary,rabbit,,,,,,,,,,,,,,,,,,,,,,,,,,,,,,,,,,,,,,,,,,,,,,,,,,,,,,,,,,,,,,,,,,,,,,,,,,,,,
,,,,,92,2020-07-04_19h49.41.114,retriever_ti,2020.1.3,Win32,60,Chrome,1366,768,63.646185,16,left,0.61464,canary,1,63.68157,63.68157,66.172945,0,7,7,7,1,5,3,1,html/resources/stimuli_practice_decision/02_canary.jpg,html/resources/stimuli_practice_decision/07_sock.jpg,canary,sock,,,,,,,,,,,,,,,,,,,,,,,,,,,,,,,,,,,,,,,,,,,,,,,,,,,,,,,,,,,,,,,,,,,,,,,,,,,,,
,,,,,92,2020-07-04_19h49.41.114,retriever_ti,2020.1.3,Win32,60,Chrome,1366,768,,,,,,,,,,,,,,,,,,,,,,up,1,1.72187,1,0,0,0,0,1,html/resources/sequences_IDs/circle.png,circle ↑,square →,triangle ↓,← star ,up,,,,,,,,,,,,,,,,,,,,,,,,,,,,,,,,,,,,,,,,,,,,,,,,,,,,,,,,,,,,,,
,,,,,92,2020-07-04_19h49.41.114,retriever_ti,2020.1.3,Win32,60,Chrome,1366,768,,,,,,,,,,,,,,,,,,,,,,down,1,0.96956,1,0,1,1,1,1,html/resources/sequences_IDs/star.png,square ↑,circle →,star ↓,← triangle,down,,,,,,,,,,,,,,,,,,,,,,,,,,,,,,,,,,,,,,,,,,,,,,,,,,,,,,,,,,,,,,
,,,,,92,2020-07-04_19h49.41.114,retriever_ti,2020.1.3,Win32,60,Chrome,1366,768,,,,,,,,,,,,,,,,,,,,,,left,1,0.73353,1,0,2,2,2,1,html/resources/sequences_IDs/square1.png,star ↑,triangle →,circle ↓,← square,left,,,,,,,,,,,,,,,,,,,,,,,,,,,,,,,,,,,,,,,,,,,,,,,,,,,,,,,,,,,,,,
,,,,,92,2020-07-04_19h49.41.114,retriever_ti,2020.1.3,Win32,60,Chrome,1366,768,,,,,,,,,,,,,,,,,,,,,,down,1,1.2213,1,0,3,3,3,1,html/resources/sequences_IDs/triangle.png,star ↑,square →,triangle ↓,← circle,down,,,,,,,,,,,,,,,,,,,,,,,,,,,,,,,,,,,,,,,,,,,,,,,,,,,,,,,,,,,,,,
,,,,,92,2020-07-04_19h49.41.114,retriever_ti,2020.1.3,Win32,60,Chrome,1366,768,,,,,,,,,,,,,,,,,,,,,,,,,,,,,,,,,,,,,0,1.225595,1,0,1,0,1,,,,,,,,,,,,,,,,,,,,,,,,,,,,,,,,,,,,,,,,,,,,,,,,,,,,,,,
,,,,,92,2020-07-04_19h49.41.114,retriever_ti,2020.1.3,Win32,60,Chrome,1366,768,,,,,,,,,,,,,,,,,1,,,,,,,,,,,,,,,,,,,,,,,,,,,75.946265,1,left,1.134595,redfox      ,8,1,7,1,3,76.42657,76.42657,78.92341,0,0,0,0,1,1,8,1,redfox      ,calculator    ,html/resources/sequences_IDs/B/01_redfox.jpg,html/resources/sequences_IDs/A/09_calculator.jpg,1,9,1,1,4,2,1,7,0,92,,,,,,,,,,,,,,,,,,,,
,,,,,92,2020-07-04_19h49.41.114,retriever_ti,2020.1.3,Win32,60,Chrome,1366,768,,,,,,,,,,,,,,,,,1,,,,,,,,,,,,,,,,,,,,,,,,,,,79.542365,2,right,0.76674,hat           ,7,8,-1,0,0,79.55792,79.55792,82.05556,0,1,1,1,1,2,8,7,redfox      ,hat           ,html/resources/sequences_IDs/B/01_redfox.jpg,html/resources/sequences_IDs/A/08_hat.jpg,1,8,1,1,3,2,1,6,0,92,,,,,,,,,,,,,,,,,,,,
,,,,,92,2020-07-04_19h49.41.114,retriever_ti,2020.1.3,Win32,60,Chrome,1366,768,,,,,,,,,,,,,,,,,1,,,,,,,,,,,,,,,,,,,,,,,,,,,83.15801,3,right,0.80787,redfox      ,8,1,6,1,3,83.176015,83.176015,85.67199,0,2,2,2,1,3,2,8,radio       ,redfox      ,html/resources/sequences_IDs/B/10_radio.jpg,html/resources/sequences_IDs/B/01_redfox.jpg,10,1,4,2,1,1,8,1,0,92,,,,,,,,,,,,,,,,,,,,
,,,,,92,2020-07-04_19h49.41.114,retriever_ti,2020.1.3,Win32,60,Chrome,1366,768,,,,,,,,,,,,,,,,,1,,,,,,,,,,,,,,,,,,,,,,,,,,,86.290095,4,right,0.743145,redfox      ,8,1,7,1,3,86.30857,86.30857,88.804805,0,3,3,3,1,4,1,8,calculator    ,redfox      ,html/resources/sequences_IDs/A/09_calculator.jpg,html/resources/sequences_IDs/B/01_redfox.jpg,9,1,4,2,1,1,7,1,0,92,,,,,,,,,,,,,,,,,,,,
,,,,,92,2020-07-04_19h49.41.114,retriever_ti,2020.1.3,Win32,60,Chrome,1366,768,,,,,,,,,,,,,,,,,1,,,,,,,,,,,,,,,,,,,,,,,,,,,89.4217,5,left,0.87965,parrot      ,4,5,1,1,1,89.44027,89.44027,91.938975,0,4,4,4,1,5,4,3,parrot      ,clownfish     ,html/resources/sequences_IDs/B/05_parrot.jpg,html/resources/sequences_IDs/A/04_clownfish.jpg,5,4,2,1,2,1,4,3,0,92,,,,,,,,,,,,,,,,,,,,
,,,,,92,2020-07-04_19h49.41.114,retriever_ti,2020.1.3,Win32,60,Chrome,1366,768,,,,,,,,,,,,,,,,,1,,,,,,,,,,,,,,,,,,,,,,,,,,,93.03945,6,right,0.840265,redfox      ,8,1,1,1,1,93.05679,93.05679,95.555335,0,5,5,5,1,6,7,8,hat           ,redfox      ,html/resources/sequences_IDs/A/08_hat.jpg,html/resources/sequences_IDs/B/01_redfox.jpg,8,1,3,2,1,1,6,1,0,92,,,,,,,,,,,,,,,,,,,,
,,,,,92,2020-07-04_19h49.41.114,retriever_ti,2020.1.3,Win32,60,Chrome,1366,768,,,,,,,,,,,,,,,,,1,,,,,,,,,,,,,,,,,,,,,,,,,,,96.655685,7,right,1.145445,hat           ,7,8,6,1,3,96.67335,96.67335,99.1721,0,6,6,6,1,7,1,7,calculator    ,hat           ,html/resources/sequences_IDs/A/09_calculator.jpg,html/resources/sequences_IDs/A/08_hat.jpg,9,8,4,2,3,2,7,6,0,92,,,,,,,,,,,,,,,,,,,,
,,,,,92,2020-07-04_19h49.41.114,retriever_ti,2020.1.3,Win32,60,Chrome,1366,768,,,,,,,,,,,,,,,,,1,,,,,,,,,,,,,,,,,,,,,,,,,,,99.78823,8,NaN,NaN,No_response,NaN,NaN,NaN,2,2,99.82338,99.82338,102.321715,0,7,7,7,1,8,2,3,radio       ,clownfish     ,html/resources/sequences_IDs/B/10_radio.jpg,html/resources/sequences_IDs/A/04_clownfish.jpg,10,4,4,2,2,1,8,3,0,92,,,,,,,,,,,,,,,,,,,,
,,,,,92,2020-07-04_19h49.41.114,retriever_ti,2020.1.3,Win32,60,Chrome,1366,768,,,,,,,,,,,,,,,,,1,,,,,,,,,,,,,,,,,,,,,,,,,,,103.421825,9,right,0.82699,dress         ,5,7,-3,0,3,103.440145,103.440145,105.938005,0,8,8,8,1,9,8,5,redfox      ,dress         ,html/resources/sequences_IDs/B/01_redfox.jpg,html/resources/sequences_IDs/A/07_dress.jpg,1,7,1,1,3,2,1,5,0,92,,,,,,,,,,,,,,,,,,,,
,,,,,92,2020-07-04_19h49.41.114,retriever_ti,2020.1.3,Win32,60,Chrome,1366,768,,,,,,,,,,,,,,,,,1,,,,,,,,,,,,,,,,,,,,,,,,,,,106.555635,10,NaN,NaN,No_response,NaN,NaN,NaN,2,2,106.574505,106.574505,109.064105,0,9,9,9,1,10,6,5,giraffe     ,dress         ,html/resources/sequences_IDs/B/03_giraffe.jpg,html/resources/sequences_IDs/A/07_dress.jpg,3,7,1,1,3,2,2,5,0,92,,,,,,,,,,,,,,,,,,,,
,,,,,92,2020-07-04_19h49.41.114,retriever_ti,2020.1.3,Win32,60,Chrome,1366,768,,,,,,,,,,,,,,,,,1,,,,,,,,,,,,,,,,,,,,,,,,,,,110.16281,11,right,0.97828,giraffe     ,6,3,1,1,1,110.182595,110.182595,112.671145,0,10,10,10,1,11,5,6,dress         ,giraffe     ,html/resources/sequences_IDs/A/07_dress.jpg,html/resources/sequences_IDs/B/03_giraffe.jpg,7,3,3,2,1,1,5,2,0,92,,,,,,,,,,,,,,,,,,,,
,,,,,92,2020-07-04_19h49.41.114,retriever_ti,2020.1.3,Win32,60,Chrome,1366,768,,,,,,,,,,,,,,,,,1,,,,,,,,,,,,,,,,,,,,,,,,,,,113.77217,12,left,0.69644,hat           ,7,8,5,1,3,113.79085,113.79085,116.289395,0,11,11,11,1,12,7,2,hat           ,radio       ,html/resources/sequences_IDs/A/08_hat.jpg,html/resources/sequences_IDs/B/10_radio.jpg,8,10,3,2,4,2,6,8,0,92,,,,,,,,,,,,,,,,,,,,
,,,,,92,2020-07-04_19h49.41.114,retriever_ti,2020.1.3,Win32,60,Chrome,1366,768,,,,,,,,,,,,,,,,,1,,,,,,,,,,,,,,,,,,,,,,,,,,,116.907945,13,left,0.84994,radio       ,2,10,1,1,1,116.92877,116.92877,119.42219,0,12,12,12,1,13,2,1,radio       ,calculator    ,html/resources/sequences_IDs/B/10_radio.jpg,html/resources/sequences_IDs/A/09_calculator.jpg,10,9,4,2,4,2,8,7,0,92,,,,,,,,,,,,,,,,,,,,
,,,,,92,2020-07-04_19h49.41.114,retriever_ti,2020.1.3,Win32,60,Chrome,1366,768,,,,,,,,,,,,,,,,,1,,,,,,,,,,,,,,,,,,,,,,,,,,,120.52165,14,right,0.958025,hat           ,7,8,1,1,1,120.556385,120.556385,123.054675,0,13,13,13,1,14,6,7,giraffe     ,hat           ,html/resources/sequences_IDs/B/03_giraffe.jpg,html/resources/sequences_IDs/A/08_hat.jpg,3,8,1,1,3,2,2,6,0,92,,,,,,,,,,,,,,,,,,,,
,,,,,92,2020-07-04_19h49.41.114,retriever_ti,2020.1.3,Win32,60,Chrome,1366,768,,,,,,,,,,,,,,,,,1,,,,,,,,,,,,,,,,,,,,,,,,,,,124.159035,15,right,0.82909,parrot      ,4,5,1,1,1,124.20195,124.20195,126.68161,0,14,14,14,1,15,3,4,clownfish     ,parrot      ,html/resources/sequences_IDs/A/04_clownfish.jpg,html/resources/sequences_IDs/B/05_parrot.jpg,4,5,2,1,2,1,3,4,0,92,,,,,,,,,,,,,,,,,,,,
,,,,,92,2020-07-04_19h49.41.114,retriever_ti,2020.1.3,Win32,60,Chrome,1366,768,,,,,,,,,,,,,,,,,1,,,,,,,,,,,,,,,,,,,,,,,,,,,127.77208,16,left,0.72247,redfox      ,8,1,6,1,3,127.790425,127.790425,130.28697,0,15,15,15,1,16,8,2,redfox      ,radio       ,html/resources/sequences_IDs/B/01_redfox.jpg,html/resources/sequences_IDs/B/10_radio.jpg,1,10,1,1,4,2,1,8,0,92,,,,,,,,,,,,,,,,,,,,
,,,,,92,2020-07-04_19h49.41.114,retriever_ti,2020.1.3,Win32,60,Chrome,1366,768,,,,,,,,,,,,,,,,,1,,,,,,,,,,,,,,,,,,,,,,,,,,,130.905655,17,NaN,NaN,No_response,NaN,NaN,NaN,2,2,130.93445,130.93445,133.41115,0,16,16,16,1,17,5,4,dress         ,parrot      ,html/resources/sequences_IDs/A/07_dress.jpg,html/resources/sequences_IDs/B/05_parrot.jpg,7,5,3,2,2,1,5,4,0,92,,,,,,,,,,,,,,,,,,,,
,,,,,92,2020-07-04_19h49.41.114,retriever_ti,2020.1.3,Win32,60,Chrome,1366,768,,,,,,,,,,,,,,,,,1,,,,,,,,,,,,,,,,,,,,,,,,,,,134.511345,18,right,0.819965,parrot      ,4,5,1,1,0,134.556365,134.556365,137.03677,0,17,17,17,1,18,3,4,clownfish     ,parrot      ,html/resources/sequences_IDs/A/04_clownfish.jpg,html/resources/sequences_IDs/B/05_parrot.jpg,4,5,2,1,2,1,3,4,1,92,,,,,,,,,,,,,,,,,,,,
,,,,,92,2020-07-04_19h49.41.114,retriever_ti,2020.1.3,Win32,60,Chrome,1366,768,,,,,,,,,,,,,,,,,1,,,,,,,,,,,,,,,,,,,,,,,,,,,138.14089,19,left,0.651085,parrot      ,4,5,2,1,3,138.157725,138.157725,140.64495,0,18,18,18,1,19,4,2,parrot      ,radio       ,html/resources/sequences_IDs/B/05_parrot.jpg,html/resources/sequences_IDs/B/10_radio.jpg,5,10,2,1,4,2,4,8,0,92,,,,,,,,,,,,,,,,,,,,
,,,,,92,2020-07-04_19h49.41.114,retriever_ti,2020.1.3,Win32,60,Chrome,1366,768,,,,,,,,,,,,,,,,,1,,,,,,,,,,,,,,,,,,,,,,,,,,,141.26232,20,left,0.67275,clownfish     ,3,4,1,1,1,141.298915,141.298915,143.78697,0,19,19,19,1,20,3,2,clownfish     ,radio       ,html/resources/sequences_IDs/A/04_clownfish.jpg,html/resources/sequences_IDs/B/10_radio.jpg,4,10,2,1,4,2,3,8,0,92,,,,,,,,,,,,,,,,,,,,
,,,,,92,2020-07-04_19h49.41.114,retriever_ti,2020.1.3,Win32,60,Chrome,1366,768,,,,,,,,,,,,,,,,,1,,,,,,,,,,,,,,,,,,,,,,,,,,,144.88872,21,right,0.635475,radio       ,2,10,1,1,1,144.924055,144.924055,147.419905,0,20,20,20,1,21,1,2,calculator    ,radio       ,html/resources/sequences_IDs/A/09_calculator.jpg,html/resources/sequences_IDs/B/10_radio.jpg,9,10,4,2,4,2,7,8,0,92,,,,,,,,,,,,,,,,,,,,
,,,,,92,2020-07-04_19h49.41.114,retriever_ti,2020.1.3,Win32,60,Chrome,1366,768,,,,,,,,,,,,,,,,,1,,,,,,,,,,,,,,,,,,,,,,,,,,,148.523465,22,right,0.74002,dress         ,5,7,-1,0,1,148.55773,148.55773,151.05432,0,21,21,21,1,22,6,5,giraffe     ,dress         ,html/resources/sequences_IDs/B/03_giraffe.jpg,html/resources/sequences_IDs/A/07_dress.jpg,3,7,1,1,3,2,2,5,1,92,,,,,,,,,,,,,,,,,,,,
,,,,,92,2020-07-04_19h49.41.114,retriever_ti,2020.1.3,Win32,60,Chrome,1366,768,,,,,,,,,,,,,,,,,1,,,,,,,,,,,,,,,,,,,,,,,,,,,152.15614,23,right,0.804845,dress         ,5,7,2,1,3,152.175115,152.175115,155.401345,0,22,22,22,1,23,3,5,clownfish     ,dress         ,html/resources/sequences_IDs/A/04_clownfish.jpg,html/resources/sequences_IDs/A/07_dress.jpg,4,7,2,1,3,2,3,5,0,92,,,,,,,,,,,,,,,,,,,,
,,,,,92,2020-07-04_19h49.41.114,retriever_ti,2020.1.3,Win32,60,Chrome,1366,768,,,,,,,,,,,,,,,,,1,,,,,,,,,,,,,,,,,,,,,,,,,,,156.01152,24,left,0.672425,clownfish     ,3,4,-5,0,3,156.047065,156.047065,158.537225,0,23,23,23,1,24,3,8,clownfish     ,redfox      ,html/resources/sequences_IDs/A/04_clownfish.jpg,html/resources/sequences_IDs/B/01_redfox.jpg,4,1,2,1,1,1,3,1,0,92,,,,,,,,,,,,,,,,,,,,
,,,,,92,2020-07-04_19h49.41.114,retriever_ti,2020.1.3,Win32,60,Chrome,1366,768,,,,,,,,,,,,,,,,,1,,,,,,,,,,,,,,,,,,,,,,,,,,,159.155275,25,left,0.818975,giraffe     ,6,3,1,1,1,159.204425,159.204425,161.68626,0,24,24,24,1,25,6,5,giraffe     ,dress         ,html/resources/sequences_IDs/B/03_giraffe.jpg,html/resources/sequences_IDs/A/07_dress.jpg,3,7,1,1,3,2,2,5,0,92,,,,,,,,,,,,,,,,,,,,
,,,,,92,2020-07-04_19h49.41.114,retriever_ti,2020.1.3,Win32,60,Chrome,1366,768,,,,,,,,,,,,,,,,,1,,,,,,,,,,,,,,,,,,,,,,,,,,,162.78806,26,left,0.87654,clownfish     ,3,4,2,1,3,162.823295,162.823295,165.32485,0,25,25,25,1,26,3,1,clownfish     ,calculator    ,html/resources/sequences_IDs/A/04_clownfish.jpg,html/resources/sequences_IDs/A/09_calculator.jpg,4,9,2,1,4,2,3,7,0,92,,,,,,,,,,,,,,,,,,,,
,,,,,92,2020-07-04_19h49.41.114,retriever_ti,2020.1.3,Win32,60,Chrome,1366,768,,,,,,,,,,,,,,,,,1,,,,,,,,,,,,,,,,,,,,,,,,,,,165.937935,27,right,0.627255,clownfish     ,3,4,2,1,3,165.97244,165.97244,168.46992,0,26,26,26,1,27,1,3,calculator    ,clownfish     ,html/resources/sequences_IDs/A/09_calculator.jpg,html/resources/sequences_IDs/A/04_clownfish.jpg,9,4,4,2,2,1,7,3,0,92,,,,,,,,,,,,,,,,,,,,
,,,,,92,2020-07-04_19h49.41.114,retriever_ti,2020.1.3,Win32,60,Chrome,1366,768,,,,,,,,,,,,,,,,,1,,,,,,,,,,,,,,,,,,,,,,,,,,,169.087185,28,left,0.540345,clownfish     ,3,4,1,1,0,169.12444,169.12444,171.619495,0,27,27,27,1,28,3,2,clownfish     ,radio       ,html/resources/sequences_IDs/A/04_clownfish.jpg,html/resources/sequences_IDs/B/10_radio.jpg,4,10,2,1,4,2,3,8,1,92,,,,,,,,,,,,,,,,,,,,
,,,,,92,2020-07-04_19h49.41.114,retriever_ti,2020.1.3,Win32,60,Chrome,1366,768,,,,,,,,,,,,,,,,,1,,,,,,,,,,,,,,,,,,,,,,,,,,,172.72233,29,left,0.71773,giraffe     ,6,3,5,1,3,172.739875,172.739875,175.236985,0,28,28,28,1,29,6,1,giraffe     ,calculator    ,html/resources/sequences_IDs/B/03_giraffe.jpg,html/resources/sequences_IDs/A/09_calculator.jpg,3,9,1,1,4,2,2,7,0,92,,,,,,,,,,,,,,,,,,,,
,,,,,92,2020-07-04_19h49.41.114,retriever_ti,2020.1.3,Win32,60,Chrome,1366,768,,,,,,,,,,,,,,,,,1,,,,,,,,,,,,,,,,,,,,,,,,,,,175.841175,30,right,1.09748,giraffe     ,6,3,-2,0,3,175.89254,175.89254,178.381365,0,29,29,29,1,30,8,6,redfox      ,giraffe     ,html/resources/sequences_IDs/B/01_redfox.jpg,html/resources/sequences_IDs/B/03_giraffe.jpg,1,3,1,1,1,1,1,2,0,92,,,,,,,,,,,,,,,,,,,,
,,,,,92,2020-07-04_19h49.41.114,retriever_ti,2020.1.3,Win32,60,Chrome,1366,768,,,,,,,,,,,,,,,,,1,,,,,,,,,,,,,,,,,,,,,,,,,,,178.990425,31,left,0.578115,dress         ,5,7,4,1,3,179.02762,179.02762,181.51056,0,30,30,30,1,31,5,1,dress         ,calculator    ,html/resources/sequences_IDs/A/07_dress.jpg,html/resources/sequences_IDs/A/09_calculator.jpg,7,9,3,2,4,2,5,7,0,92,,,,,,,,,,,,,,,,,,,,
,,,,,92,2020-07-04_19h49.41.114,retriever_ti,2020.1.3,Win32,60,Chrome,1366,768,,,,,,,,,,,,,,,,,1,,,,,,,,,,,,,,,,,,,,,,,,,,,182.127225,32,left,0.671155,dress         ,5,7,3,1,3,182.14903,182.14903,184.662655,0,31,31,31,1,32,5,2,dress         ,radio       ,html/resources/sequences_IDs/A/07_dress.jpg,html/resources/sequences_IDs/B/10_radio.jpg,7,10,3,2,4,2,5,8,0,92,,,,,,,,,,,,,,,,,,,,
,,,,,92,2020-07-04_19h49.41.114,retriever_ti,2020.1.3,Win32,60,Chrome,1366,768,,,,,,,,,,,,,,,,,1,,,,,,,,,,,,,,,,,,,,,,,,,,,185.265665,33,right,1.350285,redfox      ,8,1,2,1,3,185.293345,185.293345,187.79278,0,32,32,32,1,33,6,8,giraffe     ,redfox      ,html/resources/sequences_IDs/B/03_giraffe.jpg,html/resources/sequences_IDs/B/01_redfox.jpg,3,1,1,1,1,1,2,1,0,92,,,,,,,,,,,,,,,,,,,,
,,,,,92,2020-07-04_19h49.41.114,retriever_ti,2020.1.3,Win32,60,Chrome,1366,768,,,,,,,,,,,,,,,,,1,,,,,,,,,,,,,,,,,,,,,,,,,,,188.40611,34,left,0.64256,parrot      ,4,5,1,1,1,188.443825,188.443825,190.929225,0,33,33,33,1,34,4,3,parrot      ,clownfish     ,html/resources/sequences_IDs/B/05_parrot.jpg,html/resources/sequences_IDs/A/04_clownfish.jpg,5,4,2,1,2,1,4,3,0,92,,,,,,,,,,,,,,,,,,,,
,,,,,92,2020-07-04_19h49.41.114,retriever_ti,2020.1.3,Win32,60,Chrome,1366,768,,,,,,,,,,,,,,,,,1,,,,,,,,,,,,,,,,,,,,,,,,,,,192.02437,35,right,0.553925,radio       ,2,10,1,1,1,192.048805,192.048805,194.540785,0,34,34,34,1,35,1,2,calculator    ,radio       ,html/resources/sequences_IDs/A/09_calculator.jpg,html/resources/sequences_IDs/B/10_radio.jpg,9,10,4,2,4,2,7,8,0,92,,,,,,,,,,,,,,,,,,,,
,,,,,92,2020-07-04_19h49.41.114,retriever_ti,2020.1.3,Win32,60,Chrome,1366,768,,,,,,,,,,,,,,,,,1,,,,,,,,,,,,,,,,,,,,,,,,,,,195.637195,36,left,0.90668,redfox      ,8,1,1,1,0,195.655165,195.655165,198.15556,0,35,35,35,1,36,8,7,redfox      ,hat           ,html/resources/sequences_IDs/B/01_redfox.jpg,html/resources/sequences_IDs/A/08_hat.jpg,1,8,1,1,3,2,1,6,1,92,,,,,,,,,,,,,,,,,,,,
,,,,,92,2020-07-04_19h49.41.114,retriever_ti,2020.1.3,Win32,60,Chrome,1366,768,,,,,,,,,,,,,,,,,1,,,,,,,,,,,,,,,,,,,,,,,,,,,199.2532,37,left,0.87986,dress         ,5,7,-2,0,3,199.298915,199.298915,201.78143,0,36,36,36,1,37,5,7,dress         ,hat           ,html/resources/sequences_IDs/A/07_dress.jpg,html/resources/sequences_IDs/A/08_hat.jpg,7,8,3,2,3,2,5,6,0,92,,,,,,,,,,,,,,,,,,,,
,,,,,92,2020-07-04_19h49.41.114,retriever_ti,2020.1.3,Win32,60,Chrome,1366,768,,,,,,,,,,,,,,,,,1,,,,,,,,,,,,,,,,,,,,,,,,,,,202.391165,38,left,1.090015,redfox      ,8,1,1,1,1,202.41276,202.41276,204.89593,0,37,37,37,1,38,8,7,redfox      ,hat           ,html/resources/sequences_IDs/B/01_redfox.jpg,html/resources/sequences_IDs/A/08_hat.jpg,1,8,1,1,3,2,1,6,0,92,,,,,,,,,,,,,,,,,,,,
,,,,,92,2020-07-04_19h49.41.114,retriever_ti,2020.1.3,Win32,60,Chrome,1366,768,,,,,,,,,,,,,,,,,1,,,,,,,,,,,,,,,,,,,,,,,,,,,205.99616,39,right,1.076425,hat           ,7,8,4,1,3,206.026515,206.026515,208.52065,0,38,38,38,1,39,3,7,clownfish     ,hat           ,html/resources/sequences_IDs/A/04_clownfish.jpg,html/resources/sequences_IDs/A/08_hat.jpg,4,8,2,1,3,2,3,6,0,92,,,,,,,,,,,,,,,,,,,,
,,,,,92,2020-07-04_19h49.41.114,retriever_ti,2020.1.3,Win32,60,Chrome,1366,768,,,,,,,,,,,,,,,,,1,,,,,,,,,,,,,,,,,,,,,,,,,,,209.138775,40,left,1.046975,redfox      ,8,1,4,1,3,209.15622,209.15622,211.654055,0,39,39,39,1,40,8,4,redfox      ,parrot      ,html/resources/sequences_IDs/B/01_redfox.jpg,html/resources/sequences_IDs/B/05_parrot.jpg,1,5,1,1,2,1,1,4,0,92,,,,,,,,,,,,,,,,,,,,
,,,,,92,2020-07-04_19h49.41.114,retriever_ti,2020.1.3,Win32,60,Chrome,1366,768,,,,,,,,,,,,,,,,,1,,,,,,,,,,,,,,,,,,,,,,,,,,,212.26053,41,left,0.673955,parrot      ,4,5,3,1,3,212.27915,212.27915,214.768705,0,40,40,40,1,41,4,1,parrot      ,calculator    ,html/resources/sequences_IDs/B/05_parrot.jpg,html/resources/sequences_IDs/A/09_calculator.jpg,5,9,2,1,4,2,4,7,0,92,,,,,,,,,,,,,,,,,,,,
,,,,,92,2020-07-04_19h49.41.114,retriever_ti,2020.1.3,Win32,60,Chrome,1366,768,,,,,,,,,,,,,,,,,1,,,,,,,,,,,,,,,,,,,,,,,,,,,215.387355,42,left,0.80534,dress         ,5,7,2,1,3,215.404945,215.404945,217.90305,0,41,41,41,1,42,5,3,dress         ,clownfish     ,html/resources/sequences_IDs/A/07_dress.jpg,html/resources/sequences_IDs/A/04_clownfish.jpg,7,4,3,2,2,1,5,3,0,92,,,,,,,,,,,,,,,,,,,,
,,,,,92,2020-07-04_19h49.41.114,retriever_ti,2020.1.3,Win32,60,Chrome,1366,768,,,,,,,,,,,,,,,,,1,,,,,,,,,,,,,,,,,,,,,,,,,,,218.52079,43,right,1.243385,hat           ,7,8,1,1,0,218.55549,218.55549,221.051955,0,42,42,42,1,43,6,7,giraffe     ,hat           ,html/resources/sequences_IDs/B/03_giraffe.jpg,html/resources/sequences_IDs/A/08_hat.jpg,3,8,1,1,3,2,2,6,1,92,,,,,,,,,,,,,,,,,,,,
,,,,,92,2020-07-04_19h49.41.114,retriever_ti,2020.1.3,Win32,60,Chrome,1366,768,,,,,,,,,,,,,,,,,1,,,,,,,,,,,,,,,,,,,,,,,,,,,222.153775,44,right,0.494265,hat           ,7,8,1,1,1,222.188155,222.188155,224.686,0,43,43,43,1,44,6,7,giraffe     ,hat           ,html/resources/sequences_IDs/B/03_giraffe.jpg,html/resources/sequences_IDs/A/08_hat.jpg,3,8,1,1,3,2,2,6,0,92,,,,,,,,,,,,,,,,,,,,
,,,,,92,2020-07-04_19h49.41.114,retriever_ti,2020.1.3,Win32,60,Chrome,1366,768,,,,,,,,,,,,,,,,,1,,,,,,,,,,,,,,,,,,,,,,,,,,,225.78877,45,left,1.17285,giraffe     ,6,3,3,1,3,225.82213,225.82213,228.309295,0,44,44,44,1,45,6,3,giraffe     ,clownfish     ,html/resources/sequences_IDs/B/03_giraffe.jpg,html/resources/sequences_IDs/A/04_clownfish.jpg,3,4,1,1,2,1,2,3,0,92,,,,,,,,,,,,,,,,,,,,
,,,,,92,2020-07-04_19h49.41.114,retriever_ti,2020.1.3,Win32,60,Chrome,1366,768,,,,,,,,,,,,,,,,,1,,,,,,,,,,,,,,,,,,,,,,,,,,,228.912885,46,left,0.797235,parrot      ,4,5,-2,0,3,228.949505,228.949505,231.43706,0,45,45,45,1,46,4,6,parrot      ,giraffe     ,html/resources/sequences_IDs/B/05_parrot.jpg,html/resources/sequences_IDs/B/03_giraffe.jpg,5,3,2,1,1,1,4,2,0,92,,,,,,,,,,,,,,,,,,,,
,,,,,92,2020-07-04_19h49.41.114,retriever_ti,2020.1.3,Win32,60,Chrome,1366,768,,,,,,,,,,,,,,,,,1,,,,,,,,,,,,,,,,,,,,,,,,,,,232.05377,47,left,0.911495,radio       ,2,10,1,1,1,232.08813,232.08813,234.58619,0,46,46,46,1,47,2,1,radio       ,calculator    ,html/resources/sequences_IDs/B/10_radio.jpg,html/resources/sequences_IDs/A/09_calculator.jpg,10,9,4,2,4,2,8,7,0,92,,,,,,,,,,,,,,,,,,,,
,,,,,92,2020-07-04_19h49.41.114,retriever_ti,2020.1.3,Win32,60,Chrome,1366,768,,,,,,,,,,,,,,,,,1,,,,,,,,,,,,,,,,,,,,,,,,,,,235.686805,48,right,0.811555,dress         ,5,7,1,1,1,235.728745,235.728745,240.1464,0,47,47,47,1,48,4,5,parrot      ,dress         ,html/resources/sequences_IDs/B/05_parrot.jpg,html/resources/sequences_IDs/A/07_dress.jpg,5,7,2,1,3,2,4,5,0,92,,,,,,,,,,,,,,,,,,,,
,,,,,92,2020-07-04_19h49.41.114,retriever_ti,2020.1.3,Win32,60,Chrome,1366,768,,,,,,,,,,,,,,,,,1,,,,,,,,,,,,,,,,,,,,,,,,,,,241.237205,49,left,0.83757,dress         ,5,7,-1,0,0,241.27144,241.27144,243.769245,0,48,48,48,1,49,5,6,dress         ,giraffe     ,html/resources/sequences_IDs/A/07_dress.jpg,html/resources/sequences_IDs/B/03_giraffe.jpg,7,3,3,2,1,1,5,2,0,92,,,,,,,,,,,,,,,,,,,,
,,,,,92,2020-07-04_19h49.41.114,retriever_ti,2020.1.3,Win32,60,Chrome,1366,768,,,,,,,,,,,,,,,,,1,,,,,,,,,,,,,,,,,,,,,,,,,,,244.871115,50,left,0.88717,clownfish     ,3,4,1,1,1,244.905415,244.905415,247.40158,0,49,49,49,1,50,3,2,clownfish     ,radio       ,html/resources/sequences_IDs/A/04_clownfish.jpg,html/resources/sequences_IDs/B/10_radio.jpg,4,10,2,1,4,2,3,8,0,92,,,,,,,,,,,,,,,,,,,,
,,,,,92,2020-07-04_19h49.41.114,retriever_ti,2020.1.3,Win32,60,Chrome,1366,768,,,,,,,,,,,,,,,,,1,,,,,,,,,,,,,,,,,,,,,,,,,,,248.50265,51,right,0.650575,radio       ,2,10,1,1,0,248.53782,248.53782,251.02505,0,50,50,50,1,51,1,2,calculator    ,radio       ,html/resources/sequences_IDs/A/09_calculator.jpg,html/resources/sequences_IDs/B/10_radio.jpg,9,10,4,2,4,2,7,8,1,92,,,,,,,,,,,,,,,,,,,,
,,,,,92,2020-07-04_19h49.41.114,retriever_ti,2020.1.3,Win32,60,Chrome,1366,768,,,,,,,,,,,,,,,,,1,,,,,,,,,,,,,,,,,,,,,,,,,,,252.122805,52,right,0.757165,dress         ,5,7,3,1,3,252.159655,252.159655,254.651565,0,51,51,51,1,52,2,5,radio       ,dress         ,html/resources/sequences_IDs/B/10_radio.jpg,html/resources/sequences_IDs/A/07_dress.jpg,10,7,4,2,3,2,8,5,0,92,,,,,,,,,,,,,,,,,,,,
,,,,,92,2020-07-04_19h49.41.114,retriever_ti,2020.1.3,Win32,60,Chrome,1366,768,,,,,,,,,,,,,,,,,1,,,,,,,,,,,,,,,,,,,,,,,,,,,255.270195,53,left,0.832235,dress         ,5,7,1,1,1,255.30419,255.30419,257.794245,0,52,52,52,1,53,5,4,dress         ,parrot      ,html/resources/sequences_IDs/A/07_dress.jpg,html/resources/sequences_IDs/B/05_parrot.jpg,7,5,3,2,2,1,5,4,0,92,,,,,,,,,,,,,,,,,,,,
,,,,,92,2020-07-04_19h49.41.114,retriever_ti,2020.1.3,Win32,60,Chrome,1366,768,,,,,,,,,,,,,,,,,1,,,,,,,,,,,,,,,,,,,,,,,,,,,258.89298,54,right,0.875255,parrot      ,4,5,2,1,3,258.92798,258.92798,261.420155,0,53,53,53,1,54,2,4,radio       ,parrot      ,html/resources/sequences_IDs/B/10_radio.jpg,html/resources/sequences_IDs/B/05_parrot.jpg,10,5,4,2,2,1,8,4,0,92,,,,,,,,,,,,,,,,,,,,
,,,,,92,2020-07-04_19h49.41.114,retriever_ti,2020.1.3,Win32,60,Chrome,1366,768,,,,,,,,,,,,,,,,,1,,,,,,,,,,,,,,,,,,,,,,,,,,,262.026025,55,right,0.85818,parrot      ,4,5,-2,0,3,262.0446,262.0446,264.542635,0,54,54,54,1,55,6,4,giraffe     ,parrot      ,html/resources/sequences_IDs/B/03_giraffe.jpg,html/resources/sequences_IDs/B/05_parrot.jpg,3,5,1,1,2,1,2,4,0,92,,,,,,,,,,,,,,,,,,,,
,,,,,92,2020-07-04_19h49.41.114,retriever_ti,2020.1.3,Win32,60,Chrome,1366,768,,,,,,,,,,,,,,,,,1,,,,,,,,,,,,,,,,,,,,,,,,,,,265.159345,56,right,0.84834,dress         ,5,7,1,1,1,265.194435,265.194435,267.69225,0,55,55,55,1,56,4,5,parrot      ,dress         ,html/resources/sequences_IDs/B/05_parrot.jpg,html/resources/sequences_IDs/A/07_dress.jpg,5,7,2,1,3,2,4,5,0,92,,,,,,,,,,,,,,,,,,,,
,,,,,92,2020-07-04_19h49.41.114,retriever_ti,2020.1.3,Win32,60,Chrome,1366,768,,,,,,,,,,,,,,,,,1,,,,,,,,,,,,,,,,,,,,,,,,,,,268.793075,57,left,0.999445,hat           ,7,8,6,1,3,268.827805,268.827805,271.31619,0,56,56,56,1,57,7,1,hat           ,calculator    ,html/resources/sequences_IDs/A/08_hat.jpg,html/resources/sequences_IDs/A/09_calculator.jpg,8,9,3,2,4,2,6,7,0,92,,,,,,,,,,,,,,,,,,,,
,,,,,92,2020-07-04_19h49.41.114,retriever_ti,2020.1.3,Win32,60,Chrome,1366,768,,,,,,,,,,,,,,,,,1,,,,,,,,,,,,,,,,,,,,,,,,,,,271.929295,58,right,1.095045,redfox      ,8,1,4,1,3,271.938415,271.938415,274.42624,0,57,57,57,1,58,4,8,parrot      ,redfox      ,html/resources/sequences_IDs/B/05_parrot.jpg,html/resources/sequences_IDs/B/01_redfox.jpg,5,1,2,1,1,1,4,1,0,92,,,,,,,,,,,,,,,,,,,,
,,,,,92,2020-07-04_19h49.41.114,retriever_ti,2020.1.3,Win32,60,Chrome,1366,768,,,,,,,,,,,,,,,,,1,,,,,,,,,,,,,,,,,,,,,,,,,,,275.043325,59,left,0.92274,clownfish     ,3,4,-1,0,0,275.061625,275.061625,277.55127,0,58,58,58,1,59,3,4,clownfish     ,parrot      ,html/resources/sequences_IDs/A/04_clownfish.jpg,html/resources/sequences_IDs/B/05_parrot.jpg,4,5,2,1,2,1,3,4,0,92,,,,,,,,,,,,,,,,,,,,
,,,,,92,2020-07-04_19h49.41.114,retriever_ti,2020.1.3,Win32,60,Chrome,1366,768,,,,,,,,,,,,,,,,,1,,,,,,,,,,,,,,,,,,,,,,,,,,,278.65323,60,left,0.71231,hat           ,7,8,-1,0,0,278.68884,278.68884,281.18561,0,59,59,59,1,60,7,8,hat           ,redfox      ,html/resources/sequences_IDs/A/08_hat.jpg,html/resources/sequences_IDs/B/01_redfox.jpg,8,1,3,2,1,1,6,1,0,92,,,,,,,,,,,,,,,,,,,,
,,,,,92,2020-07-04_19h49.41.114,retriever_ti,2020.1.3,Win32,60,Chrome,1366,768,,,,,,,,,,,,,,,,,1,,,,,,,,,,,,,,,,,,,,,,,,,,,282.287355,61,left,0.806555,dress         ,5,7,-3,0,3,282.30419,282.30419,284.800965,0,60,60,60,1,61,5,8,dress         ,redfox      ,html/resources/sequences_IDs/A/07_dress.jpg,html/resources/sequences_IDs/B/01_redfox.jpg,7,1,3,2,1,1,5,1,0,92,,,,,,,,,,,,,,,,,,,,
,,,,,92,2020-07-04_19h49.41.114,retriever_ti,2020.1.3,Win32,60,Chrome,1366,768,,,,,,,,,,,,,,,,,1,,,,,,,,,,,,,,,,,,,,,,,,,,,285.41968,62,left,1.113215,giraffe     ,6,3,4,1,3,285.476235,285.476235,287.93443,0,61,61,61,1,62,6,2,giraffe     ,radio       ,html/resources/sequences_IDs/B/03_giraffe.jpg,html/resources/sequences_IDs/B/10_radio.jpg,3,10,1,1,4,2,2,8,0,92,,,,,,,,,,,,,,,,,,,,
,,,,,92,2020-07-04_19h49.41.114,retriever_ti,2020.1.3,Win32,60,Chrome,1366,768,,,,,,,,,,,,,,,,,1,,,,,,,,,,,,,,,,,,,,,,,,,,,288.55205,63,right,0.918085,giraffe     ,6,3,-1,0,0,288.572215,288.572215,291.068305,0,62,62,62,1,63,7,6,hat           ,giraffe     ,html/resources/sequences_IDs/A/08_hat.jpg,html/resources/sequences_IDs/B/03_giraffe.jpg,8,3,3,2,1,1,6,2,0,92,,,,,,,,,,,,,,,,,,,,
,,,,,92,2020-07-04_19h49.41.114,retriever_ti,2020.1.3,Win32,60,Chrome,1366,768,,,,,,,,,,,,,,,,,1,,,,,,,,,,,,,,,,,,,,,,,,,,,292.1692,64,left,0.49932,hat           ,7,8,1,1,1,292.203605,292.203605,294.701,0,63,63,63,1,64,7,6,hat           ,giraffe     ,html/resources/sequences_IDs/A/08_hat.jpg,html/resources/sequences_IDs/B/03_giraffe.jpg,8,3,3,2,1,1,6,2,0,92,,,,,,,,,,,,,,,,,,,,
,,,,,92,2020-07-04_19h49.41.114,retriever_ti,2020.1.3,Win32,60,Chrome,1366,768,,,,,,,,,,,,,,,,,1,,,,,,,,,,,,,,,,,,,,,,,,,,,295.802575,65,right,0.90986,clownfish     ,3,4,-4,0,3,295.83726,295.83726,298.334555,0,64,64,64,1,65,7,3,hat           ,clownfish     ,html/resources/sequences_IDs/A/08_hat.jpg,html/resources/sequences_IDs/A/04_clownfish.jpg,8,4,3,2,2,1,6,3,0,92,,,,,,,,,,,,,,,,,,,,
,,,,,92,2020-07-04_19h49.41.114,retriever_ti,2020.1.3,Win32,60,Chrome,1366,768,,,,,,,,,,,,,,,,,1,,,,,,,,,,,,,,,,,,,,,,,,,,,298.951705,66,right,0.754285,clownfish     ,3,4,1,1,1,298.970255,298.970255,301.46855,0,65,65,65,1,66,2,3,radio       ,clownfish     ,html/resources/sequences_IDs/B/10_radio.jpg,html/resources/sequences_IDs/A/04_clownfish.jpg,10,4,4,2,2,1,8,3,0,92,,,,,,,,,,,,,,,,,,,,
,,,,,92,2020-07-04_19h49.41.114,retriever_ti,2020.1.3,Win32,60,Chrome,1366,768,,,,,,,,,,,,,,,,,1,,,,,,,,,,,,,,,,,,,,,,,,,,,302.56994,67,left,0.973995,clownfish     ,3,4,-3,0,3,302.604505,302.604505,305.100815,0,66,66,66,1,67,3,6,clownfish     ,giraffe     ,html/resources/sequences_IDs/A/04_clownfish.jpg,html/resources/sequences_IDs/B/03_giraffe.jpg,4,3,2,1,1,1,3,2,0,92,,,,,,,,,,,,,,,,,,,,
,,,,,92,2020-07-04_19h49.41.114,retriever_ti,2020.1.3,Win32,60,Chrome,1366,768,,,,,,,,,,,,,,,,,1,,,,,,,,,,,,,,,,,,,,,,,,,,,305.704325,68,right,1.057455,dress         ,5,7,-2,0,3,305.73793,305.73793,308.231015,0,67,67,67,1,68,7,5,hat           ,dress         ,html/resources/sequences_IDs/A/08_hat.jpg,html/resources/sequences_IDs/A/07_dress.jpg,8,7,3,2,3,2,6,5,0,92,,,,,,,,,,,,,,,,,,,,
,,,,,92,2020-07-04_19h49.41.114,retriever_ti,2020.1.3,Win32,60,Chrome,1366,768,,,,,,,,,,,,,,,,,1,,,,,,,,,,,,,,,,,,,,,,,,,,,308.85233,69,right,0.808145,parrot      ,4,5,3,1,3,308.87841,308.87841,311.36884,0,68,68,68,1,69,1,4,calculator    ,parrot      ,html/resources/sequences_IDs/A/09_calculator.jpg,html/resources/sequences_IDs/B/05_parrot.jpg,9,5,4,2,2,1,7,4,0,92,,,,,,,,,,,,,,,,,,,,
,,,,,92,2020-07-04_19h49.41.114,retriever_ti,2020.1.3,Win32,60,Chrome,1366,768,,,,,,,,,,,,,,,,,1,,,,,,,,,,,,,,,,,,,,,,,,,,,311.98563,70,right,0.95297,dress         ,5,7,1,1,0,312.00354,312.00354,314.50118,0,69,69,69,1,70,4,5,parrot      ,dress         ,html/resources/sequences_IDs/B/05_parrot.jpg,html/resources/sequences_IDs/A/07_dress.jpg,5,7,2,1,3,2,4,5,1,92,,,,,,,,,,,,,,,,,,,,
,,,,,92,2020-07-04_19h49.41.114,retriever_ti,2020.1.3,Win32,60,Chrome,1366,768,,,,,,,,,,,,,,,,,1,,,,,,,,,,,,,,,,,,,,,,,,,,,315.602735,71,right,0.75538,giraffe     ,6,3,5,1,3,315.62105,315.62105,318.11812,0,70,70,70,1,71,1,6,calculator    ,giraffe     ,html/resources/sequences_IDs/A/09_calculator.jpg,html/resources/sequences_IDs/B/03_giraffe.jpg,9,3,4,2,1,1,7,2,0,92,,,,,,,,,,,,,,,,,,,,
,,,,,92,2020-07-04_19h49.41.114,retriever_ti,2020.1.3,Win32,60,Chrome,1366,768,,,,,,,,,,,,,,,,,1,,,,,,,,,,,,,,,,,,,,,,,,,,,318.73732,72,right,1.11788,hat           ,7,8,3,1,3,318.756625,318.756625,321.25916,0,71,71,71,1,72,4,7,parrot      ,hat           ,html/resources/sequences_IDs/B/05_parrot.jpg,html/resources/sequences_IDs/A/08_hat.jpg,5,8,2,1,3,2,4,6,0,92,,,,,,,,,,,,,,,,,,,,
,,,,,92,2020-07-04_19h49.41.114,retriever_ti,2020.1.3,Win32,60,Chrome,1366,768,,,,,,,,,,,,,,,,,1,,,,,,,,,,,,,,,,,,,,,,,,,,,321.873765,73,left,1.398295,redfox      ,8,1,5,1,3,321.8911,321.8911,326.075235,0,72,72,72,1,73,8,3,redfox      ,clownfish     ,html/resources/sequences_IDs/B/01_redfox.jpg,html/resources/sequences_IDs/A/04_clownfish.jpg,1,4,1,1,2,1,1,3,0,92,,,,,,,,,,,,,,,,,,,,
,,,,,92,2020-07-04_19h49.41.114,retriever_ti,2020.1.3,Win32,60,Chrome,1366,768,,,,,,,,,,,,,,,,,1,,,,,,,,,,,,,,,,,,,,,,,,,,,326.68828,74,left,0.779095,radio       ,2,10,-4,0,3,326.725345,326.725345,329.21788,0,73,73,73,1,74,2,6,radio       ,giraffe     ,html/resources/sequences_IDs/B/10_radio.jpg,html/resources/sequences_IDs/B/03_giraffe.jpg,10,3,4,2,1,1,8,2,0,92,,,,,,,,,,,,,,,,,,,,
,,,,,92,2020-07-04_19h49.41.114,retriever_ti,2020.1.3,Win32,60,Chrome,1366,768,,,,,,,,,,,,,,,,,1,,,,,,,,,,,,,,,,,,,,,,,,,,,329.83468,75,right,0.68804,dress         ,5,7,4,1,3,329.869755,329.869755,332.36882,0,74,74,74,1,75,1,5,calculator    ,dress         ,html/resources/sequences_IDs/A/09_calculator.jpg,html/resources/sequences_IDs/A/07_dress.jpg,9,7,4,2,3,2,7,5,0,92,,,,,,,,,,,,,,,,,,,,
,,,,,92,2020-07-04_19h49.41.114,retriever_ti,2020.1.3,Win32,60,Chrome,1366,768,,,,,,,,,,,,,,,,,1,,,,,,,,,,,,,,,,,,,,,,,,,,,332.9852,76,right,1.091745,hat           ,7,8,5,1,3,333.0197,333.0197,335.518005,0,75,75,75,1,76,2,7,radio       ,hat           ,html/resources/sequences_IDs/B/10_radio.jpg,html/resources/sequences_IDs/A/08_hat.jpg,10,8,4,2,3,2,8,6,0,92,,,,,,,,,,,,,,,,,,,,
,,,,,92,2020-07-04_19h49.41.114,retriever_ti,2020.1.3,Win32,60,Chrome,1366,768,,,,,,,,,,,,,,,,,1,,,,,,,,,,,,,,,,,,,,,,,,,,,336.141845,77,left,1.13064,hat           ,7,8,3,1,3,336.18721,336.18721,338.669515,0,76,76,76,1,77,7,4,hat           ,parrot      ,html/resources/sequences_IDs/A/08_hat.jpg,html/resources/sequences_IDs/B/05_parrot.jpg,8,5,3,2,2,1,6,4,0,92,,,,,,,,,,,,,,,,,,,,
,,,,,92,2020-07-04_19h49.41.114,retriever_ti,2020.1.3,Win32,60,Chrome,1366,768,,,,,,,,,,,,,,,,,,,,,,,,,,,,,,,,,,,,,0,1.26708,,,,,,,,,,,,,,,,,,,,,,,,,,,,,,,,,,,,,,,,,0,0,0,0,1,,,,,,,,,,,,,,,
,,,,,92,2020-07-04_19h49.41.114,retriever_ti,2020.1.3,Win32,60,Chrome,1366,768,,,,,,,,,,,,,,,,,2,,,,,,,,,,,,,,,,,,,,,,,,,,,344.014805,78,right,0.76842,giraffe     ,6,3,3,1,3,344.03659,344.03659,346.53434,0,0,0,0,1,78,3,6,clownfish     ,giraffe     ,html/resources/sequences_IDs/A/04_clownfish.jpg,html/resources/sequences_IDs/B/03_giraffe.jpg,4,3,2,1,1,1,3,2,0,92,,,,,,,,,,,,,,,,,,,,
,,,,,92,2020-07-04_19h49.41.114,retriever_ti,2020.1.3,Win32,60,Chrome,1366,768,,,,,,,,,,,,,,,,,2,,,,,,,,,,,,,,,,,,,,,,,,,,,347.151695,79,right,0.81008,dress         ,5,7,1,1,1,347.169565,347.169565,349.666615,0,1,1,1,1,79,4,5,parrot      ,dress         ,html/resources/sequences_IDs/B/05_parrot.jpg,html/resources/sequences_IDs/A/07_dress.jpg,5,7,2,1,3,2,4,5,0,92,,,,,,,,,,,,,,,,,,,,
,,,,,92,2020-07-04_19h49.41.114,retriever_ti,2020.1.3,Win32,60,Chrome,1366,768,,,,,,,,,,,,,,,,,2,,,,,,,,,,,,,,,,,,,,,,,,,,,350.768955,80,left,1.0647,dress         ,5,7,-3,0,3,350.80366,350.80366,353.300965,0,2,2,2,1,80,5,8,dress         ,redfox      ,html/resources/sequences_IDs/A/07_dress.jpg,html/resources/sequences_IDs/B/01_redfox.jpg,7,1,3,2,1,1,5,1,0,92,,,,,,,,,,,,,,,,,,,,
,,,,,92,2020-07-04_19h49.41.114,retriever_ti,2020.1.3,Win32,60,Chrome,1366,768,,,,,,,,,,,,,,,,,2,,,,,,,,,,,,,,,,,,,,,,,,,,,353.92012,81,right,0.73147,clownfish     ,3,4,1,1,0,353.952805,353.952805,356.451565,0,3,3,3,1,81,2,3,radio       ,clownfish     ,html/resources/sequences_IDs/B/10_radio.jpg,html/resources/sequences_IDs/A/04_clownfish.jpg,10,4,4,2,2,1,8,3,1,92,,,,,,,,,,,,,,,,,,,,
,,,,,92,2020-07-04_19h49.41.114,retriever_ti,2020.1.3,Win32,60,Chrome,1366,768,,,,,,,,,,,,,,,,,2,,,,,,,,,,,,,,,,,,,,,,,,,,,357.553175,82,left,0.66223,radio       ,2,10,1,1,1,357.587495,357.587495,360.08523,0,4,4,4,1,82,2,1,radio       ,calculator    ,html/resources/sequences_IDs/B/10_radio.jpg,html/resources/sequences_IDs/A/09_calculator.jpg,10,9,4,2,4,2,8,7,0,92,,,,,,,,,,,,,,,,,,,,
,,,,,92,2020-07-04_19h49.41.114,retriever_ti,2020.1.3,Win32,60,Chrome,1366,768,,,,,,,,,,,,,,,,,2,,,,,,,,,,,,,,,,,,,,,,,,,,,361.186055,83,right,0.77743,redfox      ,8,1,2,1,3,361.22008,361.22008,363.718705,0,5,5,5,1,83,6,8,giraffe     ,redfox      ,html/resources/sequences_IDs/B/03_giraffe.jpg,html/resources/sequences_IDs/B/01_redfox.jpg,3,1,1,1,1,1,2,1,0,92,,,,,,,,,,,,,,,,,,,,
,,,,,92,2020-07-04_19h49.41.114,retriever_ti,2020.1.3,Win32,60,Chrome,1366,768,,,,,,,,,,,,,,,,,2,,,,,,,,,,,,,,,,,,,,,,,,,,,364.321185,84,NaN,NaN,No_response,NaN,NaN,NaN,2,2,364.37139,364.37139,367.1744,0,6,6,6,1,84,3,2,clownfish     ,radio       ,html/resources/sequences_IDs/A/04_clownfish.jpg,html/resources/sequences_IDs/B/10_radio.jpg,4,10,2,1,4,2,3,8,0,92,,,,,,,,,,,,,,,,,,,,
,,,,,92,2020-07-04_19h49.41.114,retriever_ti,2020.1.3,Win32,60,Chrome,1366,768,,,,,,,,,,,,,,,,,2,,,,,,,,,,,,,,,,,,,,,,,,,,,368.268965,85,left,0.83983,parrot      ,4,5,-2,0,3,368.30266,368.30266,370.79169,0,7,7,7,1,85,4,6,parrot      ,giraffe     ,html/resources/sequences_IDs/B/05_parrot.jpg,html/resources/sequences_IDs/B/03_giraffe.jpg,5,3,2,1,1,1,4,2,0,92,,,,,,,,,,,,,,,,,,,,
,,,,,92,2020-07-04_19h49.41.114,retriever_ti,2020.1.3,Win32,60,Chrome,1366,768,,,,,,,,,,,,,,,,,2,,,,,,,,,,,,,,,,,,,,,,,,,,,371.403805,86,right,0.798895,radio       ,2,10,1,1,1,371.42451,371.42451,373.90797,0,8,8,8,1,86,1,2,calculator    ,radio       ,html/resources/sequences_IDs/A/09_calculator.jpg,html/resources/sequences_IDs/B/10_radio.jpg,9,10,4,2,4,2,7,8,0,92,,,,,,,,,,,,,,,,,,,,
,,,,,92,2020-07-04_19h49.41.114,retriever_ti,2020.1.3,Win32,60,Chrome,1366,768,,,,,,,,,,,,,,,,,2,,,,,,,,,,,,,,,,,,,,,,,,,,,375.009085,87,right,0.95024,hat           ,7,8,1,1,1,375.046175,375.046175,377.535155,0,9,9,9,1,87,6,7,giraffe     ,hat           ,html/resources/sequences_IDs/B/03_giraffe.jpg,html/resources/sequences_IDs/A/08_hat.jpg,3,8,1,1,3,2,2,6,0,92,,,,,,,,,,,,,,,,,,,,
,,,,,92,2020-07-04_19h49.41.114,retriever_ti,2020.1.3,Win32,60,Chrome,1366,768,,,,,,,,,,,,,,,,,2,,,,,,,,,,,,,,,,,,,,,,,,,,,378.668505,88,left,1.104415,dress         ,5,7,2,1,3,378.688995,378.688995,381.18405,0,10,10,10,1,88,5,3,dress         ,clownfish     ,html/resources/sequences_IDs/A/07_dress.jpg,html/resources/sequences_IDs/A/04_clownfish.jpg,7,4,3,2,2,1,5,3,0,92,,,,,,,,,,,,,,,,,,,,
,,,,,92,2020-07-04_19h49.41.114,retriever_ti,2020.1.3,Win32,60,Chrome,1366,768,,,,,,,,,,,,,,,,,2,,,,,,,,,,,,,,,,,,,,,,,,,,,381.8018,89,right,1.09647,giraffe     ,6,3,-2,0,3,381.836775,381.836775,384.333,0,11,11,11,1,89,8,6,redfox      ,giraffe     ,html/resources/sequences_IDs/B/01_redfox.jpg,html/resources/sequences_IDs/B/03_giraffe.jpg,1,3,1,1,1,1,1,2,0,92,,,,,,,,,,,,,,,,,,,,
,,,,,92,2020-07-04_19h49.41.114,retriever_ti,2020.1.3,Win32,60,Chrome,1366,768,,,,,,,,,,,,,,,,,2,,,,,,,,,,,,,,,,,,,,,,,,,,,384.93735,90,left,1.13344,dress         ,5,7,1,1,1,384.97152,384.97152,387.460705,0,12,12,12,1,90,5,4,dress         ,parrot      ,html/resources/sequences_IDs/A/07_dress.jpg,html/resources/sequences_IDs/B/05_parrot.jpg,7,5,3,2,2,1,5,4,0,92,,,,,,,,,,,,,,,,,,,,
,,,,,92,2020-07-04_19h49.41.114,retriever_ti,2020.1.3,Win32,60,Chrome,1366,768,,,,,,,,,,,,,,,,,2,,,,,,,,,,,,,,,,,,,,,,,,,,,388.55961,91,right,0.979025,parrot      ,4,5,3,1,3,388.59555,388.59555,391.08898,0,13,13,13,1,91,1,4,calculator    ,parrot      ,html/resources/sequences_IDs/A/09_calculator.jpg,html/resources/sequences_IDs/B/05_parrot.jpg,9,5,4,2,2,1,7,4,0,92,,,,,,,,,,,,,,,,,,,,
,,,,,92,2020-07-04_19h49.41.114,retriever_ti,2020.1.3,Win32,60,Chrome,1366,768,,,,,,,,,,,,,,,,,2,,,,,,,,,,,,,,,,,,,,,,,,,,,391.70326,92,left,1.177555,hat           ,7,8,-1,0,0,391.724565,391.724565,394.221415,0,14,14,14,1,92,7,8,hat           ,redfox      ,html/resources/sequences_IDs/A/08_hat.jpg,html/resources/sequences_IDs/B/01_redfox.jpg,8,1,3,2,1,1,6,1,0,92,,,,,,,,,,,,,,,,,,,,
,,,,,92,2020-07-04_19h49.41.114,retriever_ti,2020.1.3,Win32,60,Chrome,1366,768,,,,,,,,,,,,,,,,,2,,,,,,,,,,,,,,,,,,,,,,,,,,,395.319525,93,left,0.90798,hat           ,7,8,1,1,1,395.3354,395.3354,397.83626,0,15,15,15,1,93,7,6,hat           ,giraffe     ,html/resources/sequences_IDs/A/08_hat.jpg,html/resources/sequences_IDs/B/03_giraffe.jpg,8,3,3,2,1,1,6,2,0,92,,,,,,,,,,,,,,,,,,,,
,,,,,92,2020-07-04_19h49.41.114,retriever_ti,2020.1.3,Win32,60,Chrome,1366,768,,,,,,,,,,,,,,,,,2,,,,,,,,,,,,,,,,,,,,,,,,,,,398.93449,94,right,1.477115,redfox      ,8,1,4,1,3,398.95204,398.95204,401.44547,0,16,16,16,1,94,4,8,parrot      ,redfox      ,html/resources/sequences_IDs/B/05_parrot.jpg,html/resources/sequences_IDs/B/01_redfox.jpg,5,1,2,1,1,1,4,1,0,92,,,,,,,,,,,,,,,,,,,,
,,,,,92,2020-07-04_19h49.41.114,retriever_ti,2020.1.3,Win32,60,Chrome,1366,768,,,,,,,,,,,,,,,,,2,,,,,,,,,,,,,,,,,,,,,,,,,,,402.066665,95,right,1.08379,giraffe     ,6,3,5,1,3,402.078575,402.078575,404.57341,0,17,17,17,1,95,1,6,calculator    ,giraffe     ,html/resources/sequences_IDs/A/09_calculator.jpg,html/resources/sequences_IDs/B/03_giraffe.jpg,9,3,4,2,1,1,7,2,0,92,,,,,,,,,,,,,,,,,,,,
,,,,,92,2020-07-04_19h49.41.114,retriever_ti,2020.1.3,Win32,60,Chrome,1366,768,,,,,,,,,,,,,,,,,2,,,,,,,,,,,,,,,,,,,,,,,,,,,405.19103,96,right,1.515335,giraffe     ,6,3,4,1,3,405.208795,405.208795,407.70712,0,18,18,18,1,96,2,6,radio       ,giraffe     ,html/resources/sequences_IDs/B/10_radio.jpg,html/resources/sequences_IDs/B/03_giraffe.jpg,10,3,4,2,1,1,8,2,0,92,,,,,,,,,,,,,,,,,,,,
,,,,,92,2020-07-04_19h49.41.114,retriever_ti,2020.1.3,Win32,60,Chrome,1366,768,,,,,,,,,,,,,,,,,2,,,,,,,,,,,,,,,,,,,,,,,,,,,408.32331,97,right,1.30742,hat           ,7,8,2,1,3,408.3587,408.3587,410.85662,0,19,19,19,1,97,5,7,dress         ,hat           ,html/resources/sequences_IDs/A/07_dress.jpg,html/resources/sequences_IDs/A/08_hat.jpg,7,8,3,2,3,2,5,6,0,92,,,,,,,,,,,,,,,,,,,,
,,,,,92,2020-07-04_19h49.41.114,retriever_ti,2020.1.3,Win32,60,Chrome,1366,768,,,,,,,,,,,,,,,,,2,,,,,,,,,,,,,,,,,,,,,,,,,,,411.473555,98,right,1.294065,hat           ,7,8,4,1,3,411.50876,411.50876,413.998985,0,20,20,20,1,98,3,7,clownfish     ,hat           ,html/resources/sequences_IDs/A/04_clownfish.jpg,html/resources/sequences_IDs/A/08_hat.jpg,4,8,2,1,3,2,3,6,0,92,,,,,,,,,,,,,,,,,,,,
,,,,,92,2020-07-04_19h49.41.114,retriever_ti,2020.1.3,Win32,60,Chrome,1366,768,,,,,,,,,,,,,,,,,2,,,,,,,,,,,,,,,,,,,,,,,,,,,414.61657,99,right,1.045535,dress         ,5,7,1,1,1,414.63502,414.63502,417.130685,0,21,21,21,1,99,4,5,parrot      ,dress         ,html/resources/sequences_IDs/B/05_parrot.jpg,html/resources/sequences_IDs/A/07_dress.jpg,5,7,2,1,3,2,4,5,0,92,,,,,,,,,,,,,,,,,,,,
,,,,,92,2020-07-04_19h49.41.114,retriever_ti,2020.1.3,Win32,60,Chrome,1366,768,,,,,,,,,,,,,,,,,2,,,,,,,,,,,,,,,,,,,,,,,,,,,418.290255,100,left,0.700325,dress         ,5,7,4,1,3,418.33803,418.33803,420.817055,0,22,22,22,1,100,5,1,dress         ,calculator    ,html/resources/sequences_IDs/A/07_dress.jpg,html/resources/sequences_IDs/A/09_calculator.jpg,7,9,3,2,4,2,5,7,0,92,,,,,,,,,,,,,,,,,,,,
,,,,,92,2020-07-04_19h49.41.114,retriever_ti,2020.1.3,Win32,60,Chrome,1366,768,,,,,,,,,,,,,,,,,2,,,,,,,,,,,,,,,,,,,,,,,,,,,421.44981,101,left,1.08889,hat           ,7,8,5,1,3,421.468365,421.468365,423.966305,0,23,23,23,1,101,7,2,hat           ,radio       ,html/resources/sequences_IDs/A/08_hat.jpg,html/resources/sequences_IDs/B/10_radio.jpg,8,10,3,2,4,2,6,8,0,92,,,,,,,,,,,,,,,,,,,,
,,,,,92,2020-07-04_19h49.41.114,retriever_ti,2020.1.3,Win32,60,Chrome,1366,768,,,,,,,,,,,,,,,,,2,,,,,,,,,,,,,,,,,,,,,,,,,,,424.584665,102,right,1.136545,dress         ,5,7,-2,0,3,424.6194,424.6194,427.106125,0,24,24,24,1,102,7,5,hat           ,dress         ,html/resources/sequences_IDs/A/08_hat.jpg,html/resources/sequences_IDs/A/07_dress.jpg,8,7,3,2,3,2,6,5,0,92,,,,,,,,,,,,,,,,,,,,
,,,,,92,2020-07-04_19h49.41.114,retriever_ti,2020.1.3,Win32,60,Chrome,1366,768,,,,,,,,,,,,,,,,,2,,,,,,,,,,,,,,,,,,,,,,,,,,,427.72253,103,left,1.298555,redfox      ,8,1,1,1,1,427.742105,427.742105,430.233445,0,25,25,25,1,103,8,7,redfox      ,hat           ,html/resources/sequences_IDs/B/01_redfox.jpg,html/resources/sequences_IDs/A/08_hat.jpg,1,8,1,1,3,2,1,6,0,92,,,,,,,,,,,,,,,,,,,,
,,,,,92,2020-07-04_19h49.41.114,retriever_ti,2020.1.3,Win32,60,Chrome,1366,768,,,,,,,,,,,,,,,,,2,,,,,,,,,,,,,,,,,,,,,,,,,,,431.33489,104,left,0.80992,giraffe     ,6,3,5,1,3,431.352345,431.352345,433.84964,0,26,26,26,1,104,6,1,giraffe     ,calculator    ,html/resources/sequences_IDs/B/03_giraffe.jpg,html/resources/sequences_IDs/A/09_calculator.jpg,3,9,1,1,4,2,2,7,0,92,,,,,,,,,,,,,,,,,,,,
,,,,,92,2020-07-04_19h49.41.114,retriever_ti,2020.1.3,Win32,60,Chrome,1366,768,,,,,,,,,,,,,,,,,2,,,,,,,,,,,,,,,,,,,,,,,,,,,434.45274,105,right,1.1625,redfox      ,8,1,1,1,1,434.489275,434.489275,436.97294,0,27,27,27,1,105,7,8,hat           ,redfox      ,html/resources/sequences_IDs/A/08_hat.jpg,html/resources/sequences_IDs/B/01_redfox.jpg,8,1,3,2,1,1,6,1,0,92,,,,,,,,,,,,,,,,,,,,
,,,,,92,2020-07-04_19h49.41.114,retriever_ti,2020.1.3,Win32,60,Chrome,1366,768,,,,,,,,,,,,,,,,,2,,,,,,,,,,,,,,,,,,,,,,,,,,,438.073265,106,right,1.35486,hat           ,7,8,3,1,3,438.091775,438.091775,440.58273,0,28,28,28,1,106,4,7,parrot      ,hat           ,html/resources/sequences_IDs/B/05_parrot.jpg,html/resources/sequences_IDs/A/08_hat.jpg,5,8,2,1,3,2,4,6,0,92,,,,,,,,,,,,,,,,,,,,
,,,,,92,2020-07-04_19h49.41.114,retriever_ti,2020.1.3,Win32,60,Chrome,1366,768,,,,,,,,,,,,,,,,,2,,,,,,,,,,,,,,,,,,,,,,,,,,,441.202875,107,right,0.92453,dress         ,5,7,4,1,3,441.222925,441.222925,443.71602,0,29,29,29,1,107,1,5,calculator    ,dress         ,html/resources/sequences_IDs/A/09_calculator.jpg,html/resources/sequences_IDs/A/07_dress.jpg,9,7,4,2,3,2,7,5,0,92,,,,,,,,,,,,,,,,,,,,
,,,,,92,2020-07-04_19h49.41.114,retriever_ti,2020.1.3,Win32,60,Chrome,1366,768,,,,,,,,,,,,,,,,,2,,,,,,,,,,,,,,,,,,,,,,,,,,,444.333855,108,right,0.90478,clownfish     ,3,4,-3,0,3,444.352365,444.352365,446.84947,0,30,30,30,1,108,6,3,giraffe     ,clownfish     ,html/resources/sequences_IDs/B/03_giraffe.jpg,html/resources/sequences_IDs/A/04_clownfish.jpg,3,4,1,1,2,1,2,3,0,92,,,,,,,,,,,,,,,,,,,,
,,,,,92,2020-07-04_19h49.41.114,retriever_ti,2020.1.3,Win32,60,Chrome,1366,768,,,,,,,,,,,,,,,,,2,,,,,,,,,,,,,,,,,,,,,,,,,,,447.451565,109,left,1.077115,parrot      ,4,5,2,1,3,447.46879,447.46879,449.96677,0,31,31,31,1,109,4,2,parrot      ,radio       ,html/resources/sequences_IDs/B/05_parrot.jpg,html/resources/sequences_IDs/B/10_radio.jpg,5,10,2,1,4,2,4,8,0,92,,,,,,,,,,,,,,,,,,,,
,,,,,92,2020-07-04_19h49.41.114,retriever_ti,2020.1.3,Win32,60,Chrome,1366,768,,,,,,,,,,,,,,,,,2,,,,,,,,,,,,,,,,,,,,,,,,,,,451.840865,110,right,0.848395,dress         ,5,7,-3,0,3,451.85959,451.85959,454.348535,0,32,32,32,1,110,8,5,redfox      ,dress         ,html/resources/sequences_IDs/B/01_redfox.jpg,html/resources/sequences_IDs/A/07_dress.jpg,1,7,1,1,3,2,1,5,0,92,,,,,,,,,,,,,,,,,,,,
,,,,,92,2020-07-04_19h49.41.114,retriever_ti,2020.1.3,Win32,60,Chrome,1366,768,,,,,,,,,,,,,,,,,2,,,,,,,,,,,,,,,,,,,,,,,,,,,454.96593,111,left,0.919105,redfox      ,8,1,1,1,1,455.00116,455.00116,457.50119,0,33,33,33,1,111,8,7,redfox      ,hat           ,html/resources/sequences_IDs/B/01_redfox.jpg,html/resources/sequences_IDs/A/08_hat.jpg,1,8,1,1,3,2,1,6,0,92,,,,,,,,,,,,,,,,,,,,
,,,,,92,2020-07-04_19h49.41.114,retriever_ti,2020.1.3,Win32,60,Chrome,1366,768,,,,,,,,,,,,,,,,,2,,,,,,,,,,,,,,,,,,,,,,,,,,,458.62347,112,left,1.439,hat           ,7,8,1,1,0,458.69304,458.69304,461.18455,0,34,34,34,1,112,7,6,hat           ,giraffe     ,html/resources/sequences_IDs/A/08_hat.jpg,html/resources/sequences_IDs/B/03_giraffe.jpg,8,3,3,2,1,1,6,2,1,92,,,,,,,,,,,,,,,,,,,,
,,,,,92,2020-07-04_19h49.41.114,retriever_ti,2020.1.3,Win32,60,Chrome,1366,768,,,,,,,,,,,,,,,,,2,,,,,,,,,,,,,,,,,,,,,,,,,,,462.29022,113,left,0.971635,dress         ,5,7,1,1,0,462.33262,462.33262,464.816525,0,35,35,35,1,113,5,4,dress         ,parrot      ,html/resources/sequences_IDs/A/07_dress.jpg,html/resources/sequences_IDs/B/05_parrot.jpg,7,5,3,2,2,1,5,4,1,92,,,,,,,,,,,,,,,,,,,,
,,,,,92,2020-07-04_19h49.41.114,retriever_ti,2020.1.3,Win32,60,Chrome,1366,768,,,,,,,,,,,,,,,,,2,,,,,,,,,,,,,,,,,,,,,,,,,,,465.9164,114,left,1.09038,redfox      ,8,1,5,1,3,465.950965,465.950965,468.449705,0,36,36,36,1,114,8,3,redfox      ,clownfish     ,html/resources/sequences_IDs/B/01_redfox.jpg,html/resources/sequences_IDs/A/04_clownfish.jpg,1,4,1,1,2,1,1,3,0,92,,,,,,,,,,,,,,,,,,,,
,,,,,92,2020-07-04_19h49.41.114,retriever_ti,2020.1.3,Win32,60,Chrome,1366,768,,,,,,,,,,,,,,,,,2,,,,,,,,,,,,,,,,,,,,,,,,,,,469.065705,115,left,1.103545,hat           ,7,8,1,1,1,469.084335,469.084335,471.5841,0,37,37,37,1,115,7,6,hat           ,giraffe     ,html/resources/sequences_IDs/A/08_hat.jpg,html/resources/sequences_IDs/B/03_giraffe.jpg,8,3,3,2,1,1,6,2,0,92,,,,,,,,,,,,,,,,,,,,
,,,,,92,2020-07-04_19h49.41.114,retriever_ti,2020.1.3,Win32,60,Chrome,1366,768,,,,,,,,,,,,,,,,,2,,,,,,,,,,,,,,,,,,,,,,,,,,,472.685905,116,left,0.96337,giraffe     ,6,3,4,1,3,472.734245,472.734245,475.23153,0,38,38,38,1,116,6,2,giraffe     ,radio       ,html/resources/sequences_IDs/B/03_giraffe.jpg,html/resources/sequences_IDs/B/10_radio.jpg,3,10,1,1,4,2,2,8,0,92,,,,,,,,,,,,,,,,,,,,
,,,,,92,2020-07-04_19h49.41.114,retriever_ti,2020.1.3,Win32,60,Chrome,1366,768,,,,,,,,,,,,,,,,,2,,,,,,,,,,,,,,,,,,,,,,,,,,,475.849345,117,right,0.85586,redfox      ,8,1,7,1,3,475.868155,475.868155,478.370555,0,39,39,39,1,117,1,8,calculator    ,redfox      ,html/resources/sequences_IDs/A/09_calculator.jpg,html/resources/sequences_IDs/B/01_redfox.jpg,9,1,4,2,1,1,7,1,0,92,,,,,,,,,,,,,,,,,,,,
,,,,,92,2020-07-04_19h49.41.114,retriever_ti,2020.1.3,Win32,60,Chrome,1366,768,,,,,,,,,,,,,,,,,2,,,,,,,,,,,,,,,,,,,,,,,,,,,478.98428,118,right,1.461845,dress         ,5,7,3,1,3,479.01956,479.01956,481.51565,0,40,40,40,1,118,2,5,radio       ,dress         ,html/resources/sequences_IDs/B/10_radio.jpg,html/resources/sequences_IDs/A/07_dress.jpg,10,7,4,2,3,2,8,5,0,92,,,,,,,,,,,,,,,,,,,,
,,,,,92,2020-07-04_19h49.41.114,retriever_ti,2020.1.3,Win32,60,Chrome,1366,768,,,,,,,,,,,,,,,,,2,,,,,,,,,,,,,,,,,,,,,,,,,,,482.134645,119,right,0.998555,parrot      ,4,5,1,1,1,482.17225,482.17225,484.664685,0,41,41,41,1,119,3,4,clownfish     ,parrot      ,html/resources/sequences_IDs/A/04_clownfish.jpg,html/resources/sequences_IDs/B/05_parrot.jpg,4,5,2,1,2,1,3,4,0,92,,,,,,,,,,,,,,,,,,,,
,,,,,92,2020-07-04_19h49.41.114,retriever_ti,2020.1.3,Win32,60,Chrome,1366,768,,,,,,,,,,,,,,,,,2,,,,,,,,,,,,,,,,,,,,,,,,,,,485.756215,120,left,0.84136,redfox      ,8,1,7,1,3,485.793845,485.793845,488.2826,0,42,42,42,1,120,8,1,redfox      ,calculator    ,html/resources/sequences_IDs/B/01_redfox.jpg,html/resources/sequences_IDs/A/09_calculator.jpg,1,9,1,1,4,2,1,7,0,92,,,,,,,,,,,,,,,,,,,,
,,,,,92,2020-07-04_19h49.41.114,retriever_ti,2020.1.3,Win32,60,Chrome,1366,768,,,,,,,,,,,,,,,,,2,,,,,,,,,,,,,,,,,,,,,,,,,,,488.901305,121,right,1.20529,hat           ,7,8,1,1,1,488.92227,488.92227,491.415435,0,43,43,43,1,121,6,7,giraffe     ,hat           ,html/resources/sequences_IDs/B/03_giraffe.jpg,html/resources/sequences_IDs/A/08_hat.jpg,3,8,1,1,3,2,2,6,0,92,,,,,,,,,,,,,,,,,,,,
,,,,,92,2020-07-04_19h49.41.114,retriever_ti,2020.1.3,Win32,60,Chrome,1366,768,,,,,,,,,,,,,,,,,2,,,,,,,,,,,,,,,,,,,,,,,,,,,492.516865,122,right,0.873705,clownfish     ,3,4,1,1,1,492.55816,492.55816,495.04878,0,44,44,44,1,122,2,3,radio       ,clownfish     ,html/resources/sequences_IDs/B/10_radio.jpg,html/resources/sequences_IDs/A/04_clownfish.jpg,10,4,4,2,2,1,8,3,0,92,,,,,,,,,,,,,,,,,,,,
,,,,,92,2020-07-04_19h49.41.114,retriever_ti,2020.1.3,Win32,60,Chrome,1366,768,,,,,,,,,,,,,,,,,2,,,,,,,,,,,,,,,,,,,,,,,,,,,496.154255,123,left,0.722565,parrot      ,4,5,3,1,3,496.185365,496.185365,498.68112,0,45,45,45,1,123,4,1,parrot      ,calculator    ,html/resources/sequences_IDs/B/05_parrot.jpg,html/resources/sequences_IDs/A/09_calculator.jpg,5,9,2,1,4,2,4,7,0,92,,,,,,,,,,,,,,,,,,,,
,,,,,92,2020-07-04_19h49.41.114,retriever_ti,2020.1.3,Win32,60,Chrome,1366,768,,,,,,,,,,,,,,,,,2,,,,,,,,,,,,,,,,,,,,,,,,,,,499.29946,124,NaN,NaN,No_response,NaN,NaN,NaN,2,2,499.348845,499.348845,501.83108,0,46,46,46,1,124,7,3,hat           ,clownfish     ,html/resources/sequences_IDs/A/08_hat.jpg,html/resources/sequences_IDs/A/04_clownfish.jpg,8,4,3,2,2,1,6,3,0,92,,,,,,,,,,,,,,,,,,,,
,,,,,92,2020-07-04_19h49.41.114,retriever_ti,2020.1.3,Win32,60,Chrome,1366,768,,,,,,,,,,,,,,,,,2,,,,,,,,,,,,,,,,,,,,,,,,,,,502.936335,125,right,1.23168,parrot      ,4,5,2,1,3,502.970475,502.970475,505.46527,0,47,47,47,1,125,2,4,radio       ,parrot      ,html/resources/sequences_IDs/B/10_radio.jpg,html/resources/sequences_IDs/B/05_parrot.jpg,10,5,4,2,2,1,8,4,0,92,,,,,,,,,,,,,,,,,,,,
,,,,,92,2020-07-04_19h49.41.114,retriever_ti,2020.1.3,Win32,60,Chrome,1366,768,,,,,,,,,,,,,,,,,2,,,,,,,,,,,,,,,,,,,,,,,,,,,506.082795,126,right,0.93909,radio       ,2,10,-3,0,3,506.11739,506.11739,508.61531,0,48,48,48,1,126,5,2,dress         ,radio       ,html/resources/sequences_IDs/A/07_dress.jpg,html/resources/sequences_IDs/B/10_radio.jpg,7,10,3,2,4,2,5,8,0,92,,,,,,,,,,,,,,,,,,,,
,,,,,92,2020-07-04_19h49.41.114,retriever_ti,2020.1.3,Win32,60,Chrome,1366,768,,,,,,,,,,,,,,,,,2,,,,,,,,,,,,,,,,,,,,,,,,,,,509.232545,127,left,1.268645,redfox      ,8,1,4,1,3,509.25979,509.25979,511.749025,0,49,49,49,1,127,8,4,redfox      ,parrot      ,html/resources/sequences_IDs/B/01_redfox.jpg,html/resources/sequences_IDs/B/05_parrot.jpg,1,5,1,1,2,1,1,4,0,92,,,,,,,,,,,,,,,,,,,,
,,,,,92,2020-07-04_19h49.41.114,retriever_ti,2020.1.3,Win32,60,Chrome,1366,768,,,,,,,,,,,,,,,,,2,,,,,,,,,,,,,,,,,,,,,,,,,,,512.368275,128,left,0.92443,redfox      ,8,1,6,1,3,512.384425,512.384425,514.881555,0,50,50,50,1,128,8,2,redfox      ,radio       ,html/resources/sequences_IDs/B/01_redfox.jpg,html/resources/sequences_IDs/B/10_radio.jpg,1,10,1,1,4,2,1,8,0,92,,,,,,,,,,,,,,,,,,,,
,,,,,92,2020-07-04_19h49.41.114,retriever_ti,2020.1.3,Win32,60,Chrome,1366,768,,,,,,,,,,,,,,,,,2,,,,,,,,,,,,,,,,,,,,,,,,,,,515.50601,129,right,0.830605,clownfish     ,3,4,-1,0,0,515.52446,515.52446,518.010215,0,51,51,51,1,129,4,3,parrot      ,clownfish     ,html/resources/sequences_IDs/B/05_parrot.jpg,html/resources/sequences_IDs/A/04_clownfish.jpg,5,4,2,1,2,1,4,3,0,92,,,,,,,,,,,,,,,,,,,,
,,,,,92,2020-07-04_19h49.41.114,retriever_ti,2020.1.3,Win32,60,Chrome,1366,768,,,,,,,,,,,,,,,,,2,,,,,,,,,,,,,,,,,,,,,,,,,,,519.11883,130,left,0.775995,dress         ,5,7,-1,0,1,519.16615,519.16615,521.638165,0,52,52,52,1,130,5,6,dress         ,giraffe     ,html/resources/sequences_IDs/A/07_dress.jpg,html/resources/sequences_IDs/B/03_giraffe.jpg,7,3,3,2,1,1,5,2,1,92,,,,,,,,,,,,,,,,,,,,
,,,,,92,2020-07-04_19h49.41.114,retriever_ti,2020.1.3,Win32,60,Chrome,1366,768,,,,,,,,,,,,,,,,,2,,,,,,,,,,,,,,,,,,,,,,,,,,,522.74248,131,left,0.90992,giraffe     ,6,3,1,1,1,522.773955,522.773955,525.247255,0,53,53,53,1,131,6,5,giraffe     ,dress         ,html/resources/sequences_IDs/B/03_giraffe.jpg,html/resources/sequences_IDs/A/07_dress.jpg,3,7,1,1,3,2,2,5,0,92,,,,,,,,,,,,,,,,,,,,
,,,,,92,2020-07-04_19h49.41.114,retriever_ti,2020.1.3,Win32,60,Chrome,1366,768,,,,,,,,,,,,,,,,,2,,,,,,,,,,,,,,,,,,,,,,,,,,,526.349945,132,right,0.78924,hat           ,7,8,6,1,3,526.37439,526.37439,528.864875,0,54,54,54,1,132,1,7,calculator    ,hat           ,html/resources/sequences_IDs/A/09_calculator.jpg,html/resources/sequences_IDs/A/08_hat.jpg,9,8,4,2,3,2,7,6,0,92,,,,,,,,,,,,,,,,,,,,
,,,,,92,2020-07-04_19h49.41.114,retriever_ti,2020.1.3,Win32,60,Chrome,1366,768,,,,,,,,,,,,,,,,,2,,,,,,,,,,,,,,,,,,,,,,,,,,,529.482585,133,NaN,NaN,No_response,NaN,NaN,NaN,2,2,529.518405,529.518405,532.015015,0,55,55,55,1,133,5,4,dress         ,parrot      ,html/resources/sequences_IDs/A/07_dress.jpg,html/resources/sequences_IDs/B/05_parrot.jpg,7,5,3,2,2,1,5,4,0,92,,,,,,,,,,,,,,,,,,,,
,,,,,92,2020-07-04_19h49.41.114,retriever_ti,2020.1.3,Win32,60,Chrome,1366,768,,,,,,,,,,,,,,,,,2,,,,,,,,,,,,,,,,,,,,,,,,,,,533.11558,134,left,0.94137,hat           ,7,8,-1,0,1,533.13451,533.13451,535.63263,0,56,56,56,1,134,7,8,hat           ,redfox      ,html/resources/sequences_IDs/A/08_hat.jpg,html/resources/sequences_IDs/B/01_redfox.jpg,8,1,3,2,1,1,6,1,1,92,,,,,,,,,,,,,,,,,,,,
,,,,,92,2020-07-04_19h49.41.114,retriever_ti,2020.1.3,Win32,60,Chrome,1366,768,,,,,,,,,,,,,,,,,2,,,,,,,,,,,,,,,,,,,,,,,,,,,538.62816,135,right,0.921425,parrot      ,4,5,-2,0,3,538.6426,538.6426,541.13927,0,57,57,57,1,135,6,4,giraffe     ,parrot      ,html/resources/sequences_IDs/B/03_giraffe.jpg,html/resources/sequences_IDs/B/05_parrot.jpg,3,5,1,1,2,1,2,4,0,92,,,,,,,,,,,,,,,,,,,,
,,,,,92,2020-07-04_19h49.41.114,retriever_ti,2020.1.3,Win32,60,Chrome,1366,768,,,,,,,,,,,,,,,,,2,,,,,,,,,,,,,,,,,,,,,,,,,,,541.750375,136,left,0.880635,clownfish     ,3,4,-5,0,3,541.796905,541.796905,544.271185,0,58,58,58,1,136,3,8,clownfish     ,redfox      ,html/resources/sequences_IDs/A/04_clownfish.jpg,html/resources/sequences_IDs/B/01_redfox.jpg,4,1,2,1,1,1,3,1,0,92,,,,,,,,,,,,,,,,,,,,
,,,,,92,2020-07-04_19h49.41.114,retriever_ti,2020.1.3,Win32,60,Chrome,1366,768,,,,,,,,,,,,,,,,,2,,,,,,,,,,,,,,,,,,,,,,,,,,,544.88815,137,left,0.59049,clownfish     ,3,4,2,1,3,544.93245,544.93245,547.410685,0,59,59,59,1,137,3,1,clownfish     ,calculator    ,html/resources/sequences_IDs/A/04_clownfish.jpg,html/resources/sequences_IDs/A/09_calculator.jpg,4,9,2,1,4,2,3,7,0,92,,,,,,,,,,,,,,,,,,,,
,,,,,92,2020-07-04_19h49.41.114,retriever_ti,2020.1.3,Win32,60,Chrome,1366,768,,,,,,,,,,,,,,,,,2,,,,,,,,,,,,,,,,,,,,,,,,,,,548.017525,138,right,0.833615,radio       ,2,10,1,1,1,548.038185,548.038185,550.51974,0,60,60,60,1,138,1,2,calculator    ,radio       ,html/resources/sequences_IDs/A/09_calculator.jpg,html/resources/sequences_IDs/B/10_radio.jpg,9,10,4,2,4,2,7,8,0,92,,,,,,,,,,,,,,,,,,,,
,,,,,92,2020-07-04_19h49.41.114,retriever_ti,2020.1.3,Win32,60,Chrome,1366,768,,,,,,,,,,,,,,,,,2,,,,,,,,,,,,,,,,,,,,,,,,,,,551.62268,139,left,0.848625,giraffe     ,6,3,1,1,1,551.657385,551.657385,554.14867,0,61,61,61,1,139,6,5,giraffe     ,dress         ,html/resources/sequences_IDs/B/03_giraffe.jpg,html/resources/sequences_IDs/A/07_dress.jpg,3,7,1,1,3,2,2,5,0,92,,,,,,,,,,,,,,,,,,,,
,,,,,92,2020-07-04_19h49.41.114,retriever_ti,2020.1.3,Win32,60,Chrome,1366,768,,,,,,,,,,,,,,,,,2,,,,,,,,,,,,,,,,,,,,,,,,,,,555.248835,140,left,0.782015,clownfish     ,3,4,1,1,1,555.283025,555.283025,557.781095,0,62,62,62,1,140,3,2,clownfish     ,radio       ,html/resources/sequences_IDs/A/04_clownfish.jpg,html/resources/sequences_IDs/B/10_radio.jpg,4,10,2,1,4,2,3,8,0,92,,,,,,,,,,,,,,,,,,,,
,,,,,92,2020-07-04_19h49.41.114,retriever_ti,2020.1.3,Win32,60,Chrome,1366,768,,,,,,,,,,,,,,,,,2,,,,,,,,,,,,,,,,,,,,,,,,,,,558.887485,141,right,0.938675,hat           ,7,8,5,1,3,558.933485,558.933485,561.416085,0,63,63,63,1,141,2,7,radio       ,hat           ,html/resources/sequences_IDs/B/10_radio.jpg,html/resources/sequences_IDs/A/08_hat.jpg,10,8,4,2,3,2,8,6,0,92,,,,,,,,,,,,,,,,,,,,
,,,,,92,2020-07-04_19h49.41.114,retriever_ti,2020.1.3,Win32,60,Chrome,1366,768,,,,,,,,,,,,,,,,,2,,,,,,,,,,,,,,,,,,,,,,,,,,,562.03474,142,left,0.70469,parrot      ,4,5,1,1,1,562.066635,562.066635,564.564485,0,64,64,64,1,142,4,3,parrot      ,clownfish     ,html/resources/sequences_IDs/B/05_parrot.jpg,html/resources/sequences_IDs/A/04_clownfish.jpg,5,4,2,1,2,1,4,3,0,92,,,,,,,,,,,,,,,,,,,,
,,,,,92,2020-07-04_19h49.41.114,retriever_ti,2020.1.3,Win32,60,Chrome,1366,768,,,,,,,,,,,,,,,,,2,,,,,,,,,,,,,,,,,,,,,,,,,,,565.66602,143,right,0.63443,giraffe     ,6,3,1,1,1,565.68404,565.68404,568.18125,0,65,65,65,1,143,5,6,dress         ,giraffe     ,html/resources/sequences_IDs/A/07_dress.jpg,html/resources/sequences_IDs/B/03_giraffe.jpg,7,3,3,2,1,1,5,2,0,92,,,,,,,,,,,,,,,,,,,,
,,,,,92,2020-07-04_19h49.41.114,retriever_ti,2020.1.3,Win32,60,Chrome,1366,768,,,,,,,,,,,,,,,,,2,,,,,,,,,,,,,,,,,,,,,,,,,,,569.28272,144,left,1.4323,parrot      ,4,5,1,1,0,569.327875,569.327875,571.81424,0,66,66,66,1,144,4,3,parrot      ,clownfish     ,html/resources/sequences_IDs/B/05_parrot.jpg,html/resources/sequences_IDs/A/04_clownfish.jpg,5,4,2,1,2,1,4,3,1,92,,,,,,,,,,,,,,,,,,,,
,,,,,92,2020-07-04_19h49.41.114,retriever_ti,2020.1.3,Win32,60,Chrome,1366,768,,,,,,,,,,,,,,,,,2,,,,,,,,,,,,,,,,,,,,,,,,,,,572.915785,145,right,0.70792,clownfish     ,3,4,2,1,3,572.93404,572.93404,575.430605,0,67,67,67,1,145,1,3,calculator    ,clownfish     ,html/resources/sequences_IDs/A/09_calculator.jpg,html/resources/sequences_IDs/A/04_clownfish.jpg,9,4,4,2,2,1,7,3,0,92,,,,,,,,,,,,,,,,,,,,
,,,,,92,2020-07-04_19h49.41.114,retriever_ti,2020.1.3,Win32,60,Chrome,1366,768,,,,,,,,,,,,,,,,,2,,,,,,,,,,,,,,,,,,,,,,,,,,,576.048455,146,right,0.74202,dress         ,5,7,2,1,3,576.083345,576.083345,578.57995,0,68,68,68,1,146,3,5,clownfish     ,dress         ,html/resources/sequences_IDs/A/04_clownfish.jpg,html/resources/sequences_IDs/A/07_dress.jpg,4,7,2,1,3,2,3,5,0,92,,,,,,,,,,,,,,,,,,,,
,,,,,92,2020-07-04_19h49.41.114,retriever_ti,2020.1.3,Win32,60,Chrome,1366,768,,,,,,,,,,,,,,,,,2,,,,,,,,,,,,,,,,,,,,,,,,,,,579.19814,147,right,0.76767,giraffe     ,6,3,1,1,1,579.232745,579.232745,581.73077,0,69,69,69,1,147,5,6,dress         ,giraffe     ,html/resources/sequences_IDs/A/07_dress.jpg,html/resources/sequences_IDs/B/03_giraffe.jpg,7,3,3,2,1,1,5,2,0,92,,,,,,,,,,,,,,,,,,,,
,,,,,92,2020-07-04_19h49.41.114,retriever_ti,2020.1.3,Win32,60,Chrome,1366,768,,,,,,,,,,,,,,,,,2,,,,,,,,,,,,,,,,,,,,,,,,,,,582.83556,148,left,0.698495,hat           ,7,8,6,1,3,582.85,582.85,585.34634,0,70,70,70,1,148,7,1,hat           ,calculator    ,html/resources/sequences_IDs/A/08_hat.jpg,html/resources/sequences_IDs/A/09_calculator.jpg,8,9,3,2,4,2,6,7,0,92,,,,,,,,,,,,,,,,,,,,
,,,,,92,2020-07-04_19h49.41.114,retriever_ti,2020.1.3,Win32,60,Chrome,1366,768,,,,,,,,,,,,,,,,,2,,,,,,,,,,,,,,,,,,,,,,,,,,,585.94826,149,left,1.44881,hat           ,7,8,3,1,3,585.96712,585.96712,588.46397,0,71,71,71,1,149,7,4,hat           ,parrot      ,html/resources/sequences_IDs/A/08_hat.jpg,html/resources/sequences_IDs/B/05_parrot.jpg,8,5,3,2,2,1,6,4,0,92,,,,,,,,,,,,,,,,,,,,
,,,,,92,2020-07-04_19h49.41.114,retriever_ti,2020.1.3,Win32,60,Chrome,1366,768,,,,,,,,,,,,,,,,,2,,,,,,,,,,,,,,,,,,,,,,,,,,,589.082305,150,right,1.046195,clownfish     ,3,4,1,1,1,589.117055,589.117055,591.61508,0,72,72,72,1,150,2,3,radio       ,clownfish     ,html/resources/sequences_IDs/B/10_radio.jpg,html/resources/sequences_IDs/A/04_clownfish.jpg,10,4,4,2,2,1,8,3,0,92,,,,,,,,,,,,,,,,,,,,
,,,,,92,2020-07-04_19h49.41.114,retriever_ti,2020.1.3,Win32,60,Chrome,1366,768,,,,,,,,,,,,,,,,,2,,,,,,,,,,,,,,,,,,,,,,,,,,,592.71387,151,right,0.77599,parrot      ,4,5,1,1,1,592.82677,592.82677,595.247185,0,73,73,73,1,151,3,4,clownfish     ,parrot      ,html/resources/sequences_IDs/A/04_clownfish.jpg,html/resources/sequences_IDs/B/05_parrot.jpg,4,5,2,1,2,1,3,4,0,92,,,,,,,,,,,,,,,,,,,,
,,,,,92,2020-07-04_19h49.41.114,retriever_ti,2020.1.3,Win32,60,Chrome,1366,768,,,,,,,,,,,,,,,,,2,,,,,,,,,,,,,,,,,,,,,,,,,,,596.3479,152,left,0.85665,radio       ,2,10,1,1,0,596.365605,596.365605,598.86401,0,74,74,74,1,152,2,1,radio       ,calculator    ,html/resources/sequences_IDs/B/10_radio.jpg,html/resources/sequences_IDs/A/09_calculator.jpg,10,9,4,2,4,2,8,7,1,92,,,,,,,,,,,,,,,,,,,,
,,,,,92,2020-07-04_19h49.41.114,retriever_ti,2020.1.3,Win32,60,Chrome,1366,768,,,,,,,,,,,,,,,,,2,,,,,,,,,,,,,,,,,,,,,,,,,,,599.964535,153,left,0.492185,radio       ,2,10,1,1,1,599.99916,599.99916,602.497745,0,75,75,75,1,153,2,1,radio       ,calculator    ,html/resources/sequences_IDs/B/10_radio.jpg,html/resources/sequences_IDs/A/09_calculator.jpg,10,9,4,2,4,2,8,7,0,92,,,,,,,,,,,,,,,,,,,,
,,,,,92,2020-07-04_19h49.41.114,retriever_ti,2020.1.3,Win32,60,Chrome,1366,768,,,,,,,,,,,,,,,,,2,,,,,,,,,,,,,,,,,,,,,,,,,,,603.603355,154,right,1.14419,redfox      ,8,1,6,1,3,603.62044,603.62044,606.103855,0,76,76,76,1,154,2,8,radio       ,redfox      ,html/resources/sequences_IDs/B/10_radio.jpg,html/resources/sequences_IDs/B/01_redfox.jpg,10,1,4,2,1,1,8,1,0,92,,,,,,,,,,,,,,,,,,,,
,,,,,92,2020-07-04_19h49.41.114,retriever_ti,2020.1.3,Win32,60,Chrome,1366,768,,,,,,,,,,,,,,,,,,,,,,,,,,,,,,,,,,,,,0,1.26475,,,,,,,,,,,,,,,,,,,,,,,,,,,,,,,,,,,,,,,,,1,0,1,0,1,,,,,,,,,,,,,,,
,,,,,92,2020-07-04_19h49.41.114,retriever_ti,2020.1.3,Win32,60,Chrome,1366,768,,,,,,,,,,,,,,,,,3,,,,,,,,,,,,,,,,,,,,,,,,,,,611.68846,155,left,1.00228,giraffe     ,6,3,4,1,3,612.97121,612.97121,615.462955,0,0,0,0,1,155,6,2,giraffe     ,radio       ,html/resources/sequences_IDs/B/03_giraffe.jpg,html/resources/sequences_IDs/B/10_radio.jpg,3,10,1,1,4,2,2,8,0,92,,,,,,,,,,,,,,,,,,,,
,,,,,92,2020-07-04_19h49.41.114,retriever_ti,2020.1.3,Win32,60,Chrome,1366,768,,,,,,,,,,,,,,,,,3,,,,,,,,,,,,,,,,,,,,,,,,,,,616.06529,156,left,1.274425,redfox      ,8,1,4,1,3,616.125905,616.125905,618.61327,0,1,1,1,1,156,8,4,redfox      ,parrot      ,html/resources/sequences_IDs/B/01_redfox.jpg,html/resources/sequences_IDs/B/05_parrot.jpg,1,5,1,1,2,1,1,4,0,92,,,,,,,,,,,,,,,,,,,,
,,,,,92,2020-07-04_19h49.41.114,retriever_ti,2020.1.3,Win32,60,Chrome,1366,768,,,,,,,,,,,,,,,,,3,,,,,,,,,,,,,,,,,,,,,,,,,,,619.230915,157,right,0.824165,hat           ,7,8,6,1,3,619.2662,619.2662,621.769485,0,2,2,2,1,157,1,7,calculator    ,hat           ,html/resources/sequences_IDs/A/09_calculator.jpg,html/resources/sequences_IDs/A/08_hat.jpg,9,8,4,2,3,2,7,6,0,92,,,,,,,,,,,,,,,,,,,,
,,,,,92,2020-07-04_19h49.41.114,retriever_ti,2020.1.3,Win32,60,Chrome,1366,768,,,,,,,,,,,,,,,,,3,,,,,,,,,,,,,,,,,,,,,,,,,,,622.383215,158,right,0.83434,redfox      ,8,1,1,1,1,622.42118,622.42118,624.912455,0,3,3,3,1,158,7,8,hat           ,redfox      ,html/resources/sequences_IDs/A/08_hat.jpg,html/resources/sequences_IDs/B/01_redfox.jpg,8,1,3,2,1,1,6,1,0,92,,,,,,,,,,,,,,,,,,,,
,,,,,92,2020-07-04_19h49.41.114,retriever_ti,2020.1.3,Win32,60,Chrome,1366,768,,,,,,,,,,,,,,,,,3,,,,,,,,,,,,,,,,,,,,,,,,,,,626.014135,159,right,1.001805,radio       ,2,10,1,1,1,626.049165,626.049165,628.54787,0,4,4,4,1,159,1,2,calculator    ,radio       ,html/resources/sequences_IDs/A/09_calculator.jpg,html/resources/sequences_IDs/B/10_radio.jpg,9,10,4,2,4,2,7,8,0,92,,,,,,,,,,,,,,,,,,,,
,,,,,92,2020-07-04_19h49.41.114,retriever_ti,2020.1.3,Win32,60,Chrome,1366,768,,,,,,,,,,,,,,,,,3,,,,,,,,,,,,,,,,,,,,,,,,,,,629.647785,160,right,0.747715,parrot      ,4,5,1,1,0,629.665915,629.665915,632.153495,0,5,5,5,1,160,3,4,clownfish     ,parrot      ,html/resources/sequences_IDs/A/04_clownfish.jpg,html/resources/sequences_IDs/B/05_parrot.jpg,4,5,2,1,2,1,3,4,1,92,,,,,,,,,,,,,,,,,,,,
,,,,,92,2020-07-04_19h49.41.114,retriever_ti,2020.1.3,Win32,60,Chrome,1366,768,,,,,,,,,,,,,,,,,3,,,,,,,,,,,,,,,,,,,,,,,,,,,633.254915,161,left,0.49784,parrot      ,4,5,1,1,1,633.272605,633.272605,635.76404,0,6,6,6,1,161,4,3,parrot      ,clownfish     ,html/resources/sequences_IDs/B/05_parrot.jpg,html/resources/sequences_IDs/A/04_clownfish.jpg,5,4,2,1,2,1,4,3,0,92,,,,,,,,,,,,,,,,,,,,
,,,,,92,2020-07-04_19h49.41.114,retriever_ti,2020.1.3,Win32,60,Chrome,1366,768,,,,,,,,,,,,,,,,,3,,,,,,,,,,,,,,,,,,,,,,,,,,,636.86347,162,right,0.96732,dress         ,5,7,2,1,3,636.882445,636.882445,639.37996,0,7,7,7,1,162,3,5,clownfish     ,dress         ,html/resources/sequences_IDs/A/04_clownfish.jpg,html/resources/sequences_IDs/A/07_dress.jpg,4,7,2,1,3,2,3,5,0,92,,,,,,,,,,,,,,,,,,,,
,,,,,92,2020-07-04_19h49.41.114,retriever_ti,2020.1.3,Win32,60,Chrome,1366,768,,,,,,,,,,,,,,,,,3,,,,,,,,,,,,,,,,,,,,,,,,,,,639.9995,163,right,1.270945,giraffe     ,6,3,-1,0,0,640.016435,640.016435,642.51339,0,8,8,8,1,163,7,6,hat           ,giraffe     ,html/resources/sequences_IDs/A/08_hat.jpg,html/resources/sequences_IDs/B/03_giraffe.jpg,8,3,3,2,1,1,6,2,0,92,,,,,,,,,,,,,,,,,,,,
,,,,,92,2020-07-04_19h49.41.114,retriever_ti,2020.1.3,Win32,60,Chrome,1366,768,,,,,,,,,,,,,,,,,3,,,,,,,,,,,,,,,,,,,,,,,,,,,643.6151,164,right,0.68113,hat           ,7,8,1,1,0,643.65015,643.65015,646.146595,0,9,9,9,1,164,6,7,giraffe     ,hat           ,html/resources/sequences_IDs/B/03_giraffe.jpg,html/resources/sequences_IDs/A/08_hat.jpg,3,8,1,1,3,2,2,6,1,92,,,,,,,,,,,,,,,,,,,,
,,,,,92,2020-07-04_19h49.41.114,retriever_ti,2020.1.3,Win32,60,Chrome,1366,768,,,,,,,,,,,,,,,,,3,,,,,,,,,,,,,,,,,,,,,,,,,,,647.247925,165,right,0.6274,parrot      ,4,5,1,1,1,647.267605,647.267605,649.763855,0,10,10,10,1,165,3,4,clownfish     ,parrot      ,html/resources/sequences_IDs/A/04_clownfish.jpg,html/resources/sequences_IDs/B/05_parrot.jpg,4,5,2,1,2,1,3,4,0,92,,,,,,,,,,,,,,,,,,,,
,,,,,92,2020-07-04_19h49.41.114,retriever_ti,2020.1.3,Win32,60,Chrome,1366,768,,,,,,,,,,,,,,,,,3,,,,,,,,,,,,,,,,,,,,,,,,,,,650.8641,166,left,0.905455,redfox      ,8,1,1,1,0,650.89878,650.89878,653.3964,0,11,11,11,1,166,8,7,redfox      ,hat           ,html/resources/sequences_IDs/B/01_redfox.jpg,html/resources/sequences_IDs/A/08_hat.jpg,1,8,1,1,3,2,1,6,1,92,,,,,,,,,,,,,,,,,,,,
,,,,,92,2020-07-04_19h49.41.114,retriever_ti,2020.1.3,Win32,60,Chrome,1366,768,,,,,,,,,,,,,,,,,3,,,,,,,,,,,,,,,,,,,,,,,,,,,654.499055,167,left,0.81543,clownfish     ,3,4,1,1,0,654.53425,654.53425,657.03045,0,12,12,12,1,167,3,2,clownfish     ,radio       ,html/resources/sequences_IDs/A/04_clownfish.jpg,html/resources/sequences_IDs/B/10_radio.jpg,4,10,2,1,4,2,3,8,1,92,,,,,,,,,,,,,,,,,,,,
,,,,,92,2020-07-04_19h49.41.114,retriever_ti,2020.1.3,Win32,60,Chrome,1366,768,,,,,,,,,,,,,,,,,3,,,,,,,,,,,,,,,,,,,,,,,,,,,658.133405,168,right,1.15243,dress         ,5,7,-3,0,3,658.14986,658.14986,660.637225,0,13,13,13,1,168,8,5,redfox      ,dress         ,html/resources/sequences_IDs/B/01_redfox.jpg,html/resources/sequences_IDs/A/07_dress.jpg,1,7,1,1,3,2,1,5,0,92,,,,,,,,,,,,,,,,,,,,
,,,,,92,2020-07-04_19h49.41.114,retriever_ti,2020.1.3,Win32,60,Chrome,1366,768,,,,,,,,,,,,,,,,,3,,,,,,,,,,,,,,,,,,,,,,,,,,,661.254805,169,right,0.954535,parrot      ,4,5,2,1,3,661.29062,661.29062,663.786135,0,14,14,14,1,169,2,4,radio       ,parrot      ,html/resources/sequences_IDs/B/10_radio.jpg,html/resources/sequences_IDs/B/05_parrot.jpg,10,5,4,2,2,1,8,4,0,92,,,,,,,,,,,,,,,,,,,,
,,,,,92,2020-07-04_19h49.41.114,retriever_ti,2020.1.3,Win32,60,Chrome,1366,768,,,,,,,,,,,,,,,,,3,,,,,,,,,,,,,,,,,,,,,,,,,,,664.40645,170,right,0.992235,giraffe     ,6,3,1,1,1,664.423135,664.423135,666.912635,0,15,15,15,1,170,5,6,dress         ,giraffe     ,html/resources/sequences_IDs/A/07_dress.jpg,html/resources/sequences_IDs/B/03_giraffe.jpg,7,3,3,2,1,1,5,2,0,92,,,,,,,,,,,,,,,,,,,,
,,,,,92,2020-07-04_19h49.41.114,retriever_ti,2020.1.3,Win32,60,Chrome,1366,768,,,,,,,,,,,,,,,,,3,,,,,,,,,,,,,,,,,,,,,,,,,,,668.016475,171,left,0.730845,parrot      ,4,5,2,1,3,668.050725,668.050725,670.54661,0,16,16,16,1,171,4,2,parrot      ,radio       ,html/resources/sequences_IDs/B/05_parrot.jpg,html/resources/sequences_IDs/B/10_radio.jpg,5,10,2,1,4,2,4,8,0,92,,,,,,,,,,,,,,,,,,,,
,,,,,92,2020-07-04_19h49.41.114,retriever_ti,2020.1.3,Win32,60,Chrome,1366,768,,,,,,,,,,,,,,,,,3,,,,,,,,,,,,,,,,,,,,,,,,,,,671.162685,172,left,1.70585,giraffe     ,6,3,1,1,1,671.18742,671.18742,673.686615,0,17,17,17,1,172,6,5,giraffe     ,dress         ,html/resources/sequences_IDs/B/03_giraffe.jpg,html/resources/sequences_IDs/A/07_dress.jpg,3,7,1,1,3,2,2,5,0,92,,,,,,,,,,,,,,,,,,,,
,,,,,92,2020-07-04_19h49.41.114,retriever_ti,2020.1.3,Win32,60,Chrome,1366,768,,,,,,,,,,,,,,,,,3,,,,,,,,,,,,,,,,,,,,,,,,,,,674.78334,173,left,0.850525,redfox      ,8,1,6,1,3,674.82599,674.82599,677.316555,0,18,18,18,1,173,8,2,redfox      ,radio       ,html/resources/sequences_IDs/B/01_redfox.jpg,html/resources/sequences_IDs/B/10_radio.jpg,1,10,1,1,4,2,1,8,0,92,,,,,,,,,,,,,,,,,,,,
,,,,,92,2020-07-04_19h49.41.114,retriever_ti,2020.1.3,Win32,60,Chrome,1366,768,,,,,,,,,,,,,,,,,3,,,,,,,,,,,,,,,,,,,,,,,,,,,677.93195,174,right,0.834545,redfox      ,8,1,3,1,3,677.97586,677.97586,680.46558,0,19,19,19,1,174,5,8,dress         ,redfox      ,html/resources/sequences_IDs/A/07_dress.jpg,html/resources/sequences_IDs/B/01_redfox.jpg,7,1,3,2,1,1,5,1,0,92,,,,,,,,,,,,,,,,,,,,
,,,,,92,2020-07-04_19h49.41.114,retriever_ti,2020.1.3,Win32,60,Chrome,1366,768,,,,,,,,,,,,,,,,,3,,,,,,,,,,,,,,,,,,,,,,,,,,,681.072605,175,NaN,NaN,No_response,NaN,NaN,NaN,2,2,681.104985,681.104985,683.602515,0,20,20,20,1,175,4,5,parrot      ,dress         ,html/resources/sequences_IDs/B/05_parrot.jpg,html/resources/sequences_IDs/A/07_dress.jpg,5,7,2,1,3,2,4,5,0,92,,,,,,,,,,,,,,,,,,,,
,,,,,92,2020-07-04_19h49.41.114,retriever_ti,2020.1.3,Win32,60,Chrome,1366,768,,,,,,,,,,,,,,,,,3,,,,,,,,,,,,,,,,,,,,,,,,,,,684.70412,176,left,0.572595,parrot      ,4,5,1,1,1,684.738275,684.738275,687.22833,0,21,21,21,1,176,4,3,parrot      ,clownfish     ,html/resources/sequences_IDs/B/05_parrot.jpg,html/resources/sequences_IDs/A/04_clownfish.jpg,5,4,2,1,2,1,4,3,0,92,,,,,,,,,,,,,,,,,,,,
,,,,,92,2020-07-04_19h49.41.114,retriever_ti,2020.1.3,Win32,60,Chrome,1366,768,,,,,,,,,,,,,,,,,3,,,,,,,,,,,,,,,,,,,,,,,,,,,688.329645,177,left,0.759025,dress         ,5,7,1,1,1,688.364325,688.364325,690.869585,0,22,22,22,1,177,5,4,dress         ,parrot      ,html/resources/sequences_IDs/A/07_dress.jpg,html/resources/sequences_IDs/B/05_parrot.jpg,7,5,3,2,2,1,5,4,0,92,,,,,,,,,,,,,,,,,,,,
,,,,,92,2020-07-04_19h49.41.114,retriever_ti,2020.1.3,Win32,60,Chrome,1366,768,,,,,,,,,,,,,,,,,3,,,,,,,,,,,,,,,,,,,,,,,,,,,691.97236,178,NaN,NaN,No_response,NaN,NaN,NaN,2,2,691.99769,691.99769,694.485875,0,23,23,23,1,178,5,7,dress         ,hat           ,html/resources/sequences_IDs/A/07_dress.jpg,html/resources/sequences_IDs/A/08_hat.jpg,7,8,3,2,3,2,5,6,0,92,,,,,,,,,,,,,,,,,,,,
,,,,,92,2020-07-04_19h49.41.114,retriever_ti,2020.1.3,Win32,60,Chrome,1366,768,,,,,,,,,,,,,,,,,3,,,,,,,,,,,,,,,,,,,,,,,,,,,695.58268,179,right,0.788535,radio       ,2,10,-1,0,0,695.623745,695.623745,698.11249,0,24,24,24,1,179,3,2,clownfish     ,radio       ,html/resources/sequences_IDs/A/04_clownfish.jpg,html/resources/sequences_IDs/B/10_radio.jpg,4,10,2,1,4,2,3,8,0,92,,,,,,,,,,,,,,,,,,,,
,,,,,92,2020-07-04_19h49.41.114,retriever_ti,2020.1.3,Win32,60,Chrome,1366,768,,,,,,,,,,,,,,,,,3,,,,,,,,,,,,,,,,,,,,,,,,,,,699.21371,180,left,0.75413,dress         ,5,7,3,1,3,699.230785,699.230785,701.732075,0,25,25,25,1,180,5,2,dress         ,radio       ,html/resources/sequences_IDs/A/07_dress.jpg,html/resources/sequences_IDs/B/10_radio.jpg,7,10,3,2,4,2,5,8,0,92,,,,,,,,,,,,,,,,,,,,
,,,,,92,2020-07-04_19h49.41.114,retriever_ti,2020.1.3,Win32,60,Chrome,1366,768,,,,,,,,,,,,,,,,,3,,,,,,,,,,,,,,,,,,,,,,,,,,,702.34901,181,right,0.99727,giraffe     ,6,3,5,1,3,702.38807,702.38807,704.89009,0,26,26,26,1,181,1,6,calculator    ,giraffe     ,html/resources/sequences_IDs/A/09_calculator.jpg,html/resources/sequences_IDs/B/03_giraffe.jpg,9,3,4,2,1,1,7,2,0,92,,,,,,,,,,,,,,,,,,,,
,,,,,92,2020-07-04_19h49.41.114,retriever_ti,2020.1.3,Win32,60,Chrome,1366,768,,,,,,,,,,,,,,,,,3,,,,,,,,,,,,,,,,,,,,,,,,,,,705.504015,182,left,0.76039,clownfish     ,3,4,2,1,3,705.628185,705.628185,708.112085,0,27,27,27,1,182,3,1,clownfish     ,calculator    ,html/resources/sequences_IDs/A/04_clownfish.jpg,html/resources/sequences_IDs/A/09_calculator.jpg,4,9,2,1,4,2,3,7,0,92,,,,,,,,,,,,,,,,,,,,
,,,,,92,2020-07-04_19h49.41.114,retriever_ti,2020.1.3,Win32,60,Chrome,1366,768,,,,,,,,,,,,,,,,,3,,,,,,,,,,,,,,,,,,,,,,,,,,,708.73186,183,right,0.88375,hat           ,7,8,1,1,1,708.75159,708.75159,711.23658,0,28,28,28,1,183,6,7,giraffe     ,hat           ,html/resources/sequences_IDs/B/03_giraffe.jpg,html/resources/sequences_IDs/A/08_hat.jpg,3,8,1,1,3,2,2,6,0,92,,,,,,,,,,,,,,,,,,,,
,,,,,92,2020-07-04_19h49.41.114,retriever_ti,2020.1.3,Win32,60,Chrome,1366,768,,,,,,,,,,,,,,,,,3,,,,,,,,,,,,,,,,,,,,,,,,,,,712.337665,184,right,1.208895,giraffe     ,6,3,4,1,3,712.360965,712.360965,714.84604,0,29,29,29,1,184,2,6,radio       ,giraffe     ,html/resources/sequences_IDs/B/10_radio.jpg,html/resources/sequences_IDs/B/03_giraffe.jpg,10,3,4,2,1,1,8,2,0,92,,,,,,,,,,,,,,,,,,,,
,,,,,92,2020-07-04_19h49.41.114,retriever_ti,2020.1.3,Win32,60,Chrome,1366,768,,,,,,,,,,,,,,,,,3,,,,,,,,,,,,,,,,,,,,,,,,,,,715.464045,185,left,1.52922,hat           ,7,8,4,1,3,715.48108,715.48108,717.978845,0,30,30,30,1,185,7,3,hat           ,clownfish     ,html/resources/sequences_IDs/A/08_hat.jpg,html/resources/sequences_IDs/A/04_clownfish.jpg,8,4,3,2,2,1,6,3,0,92,,,,,,,,,,,,,,,,,,,,
,,,,,92,2020-07-04_19h49.41.114,retriever_ti,2020.1.3,Win32,60,Chrome,1366,768,,,,,,,,,,,,,,,,,3,,,,,,,,,,,,,,,,,,,,,,,,,,,718.5807,186,right,0.675255,hat           ,7,8,4,1,3,718.61796,718.61796,721.111145,0,31,31,31,1,186,3,7,clownfish     ,hat           ,html/resources/sequences_IDs/A/04_clownfish.jpg,html/resources/sequences_IDs/A/08_hat.jpg,4,8,2,1,3,2,3,6,0,92,,,,,,,,,,,,,,,,,,,,
,,,,,92,2020-07-04_19h49.41.114,retriever_ti,2020.1.3,Win32,60,Chrome,1366,768,,,,,,,,,,,,,,,,,3,,,,,,,,,,,,,,,,,,,,,,,,,,,721.73209,187,left,0.821465,giraffe     ,6,3,5,1,3,721.74976,721.74976,724.24497,0,32,32,32,1,187,6,1,giraffe     ,calculator    ,html/resources/sequences_IDs/B/03_giraffe.jpg,html/resources/sequences_IDs/A/09_calculator.jpg,3,9,1,1,4,2,2,7,0,92,,,,,,,,,,,,,,,,,,,,
,,,,,92,2020-07-04_19h49.41.114,retriever_ti,2020.1.3,Win32,60,Chrome,1366,768,,,,,,,,,,,,,,,,,3,,,,,,,,,,,,,,,,,,,,,,,,,,,724.86234,188,left,0.77351,radio       ,2,10,1,1,1,724.897495,724.897495,727.394525,0,33,33,33,1,188,2,1,radio       ,calculator    ,html/resources/sequences_IDs/B/10_radio.jpg,html/resources/sequences_IDs/A/09_calculator.jpg,10,9,4,2,4,2,8,7,0,92,,,,,,,,,,,,,,,,,,,,
,,,,,92,2020-07-04_19h49.41.114,retriever_ti,2020.1.3,Win32,60,Chrome,1366,768,,,,,,,,,,,,,,,,,3,,,,,,,,,,,,,,,,,,,,,,,,,,,728.49627,189,right,0.63269,redfox      ,8,1,7,1,3,728.53043,728.53043,731.019685,0,34,34,34,1,189,1,8,calculator    ,redfox      ,html/resources/sequences_IDs/A/09_calculator.jpg,html/resources/sequences_IDs/B/01_redfox.jpg,9,1,4,2,1,1,7,1,0,92,,,,,,,,,,,,,,,,,,,,
,,,,,92,2020-07-04_19h49.41.114,retriever_ti,2020.1.3,Win32,60,Chrome,1366,768,,,,,,,,,,,,,,,,,3,,,,,,,,,,,,,,,,,,,,,,,,,,,731.635525,190,left,0.50552,redfox      ,8,1,7,1,3,731.67109,731.67109,734.16228,0,35,35,35,1,190,8,1,redfox      ,calculator    ,html/resources/sequences_IDs/B/01_redfox.jpg,html/resources/sequences_IDs/A/09_calculator.jpg,1,9,1,1,4,2,1,7,0,92,,,,,,,,,,,,,,,,,,,,
,,,,,92,2020-07-04_19h49.41.114,retriever_ti,2020.1.3,Win32,60,Chrome,1366,768,,,,,,,,,,,,,,,,,3,,,,,,,,,,,,,,,,,,,,,,,,,,,734.77216,191,right,1.110385,dress         ,5,7,1,1,1,734.79171,734.79171,737.285465,0,36,36,36,1,191,4,5,parrot      ,dress         ,html/resources/sequences_IDs/B/05_parrot.jpg,html/resources/sequences_IDs/A/07_dress.jpg,5,7,2,1,3,2,4,5,0,92,,,,,,,,,,,,,,,,,,,,
,,,,,92,2020-07-04_19h49.41.114,retriever_ti,2020.1.3,Win32,60,Chrome,1366,768,,,,,,,,,,,,,,,,,3,,,,,,,,,,,,,,,,,,,,,,,,,,,738.38716,192,right,1.350635,redfox      ,8,1,2,1,3,738.403955,738.403955,740.895205,0,37,37,37,1,192,6,8,giraffe     ,redfox      ,html/resources/sequences_IDs/B/03_giraffe.jpg,html/resources/sequences_IDs/B/01_redfox.jpg,3,1,1,1,1,1,2,1,0,92,,,,,,,,,,,,,,,,,,,,
,,,,,92,2020-07-04_19h49.41.114,retriever_ti,2020.1.3,Win32,60,Chrome,1366,768,,,,,,,,,,,,,,,,,3,,,,,,,,,,,,,,,,,,,,,,,,,,,741.513225,193,left,0.54823,radio       ,2,10,1,1,1,741.55,741.55,744.04582,0,38,38,38,1,193,2,1,radio       ,calculator    ,html/resources/sequences_IDs/B/10_radio.jpg,html/resources/sequences_IDs/A/09_calculator.jpg,10,9,4,2,4,2,8,7,0,92,,,,,,,,,,,,,,,,,,,,
,,,,,92,2020-07-04_19h49.41.114,retriever_ti,2020.1.3,Win32,60,Chrome,1366,768,,,,,,,,,,,,,,,,,3,,,,,,,,,,,,,,,,,,,,,,,,,,,745.14732,194,left,1.27763,hat           ,7,8,3,1,3,745.17189,745.17189,747.65367,0,39,39,39,1,194,7,4,hat           ,parrot      ,html/resources/sequences_IDs/A/08_hat.jpg,html/resources/sequences_IDs/B/05_parrot.jpg,8,5,3,2,2,1,6,4,0,92,,,,,,,,,,,,,,,,,,,,
,,,,,92,2020-07-04_19h49.41.114,retriever_ti,2020.1.3,Win32,60,Chrome,1366,768,,,,,,,,,,,,,,,,,3,,,,,,,,,,,,,,,,,,,,,,,,,,,748.26965,195,right,0.484675,hat           ,7,8,3,1,3,748.287455,748.287455,750.78723,0,40,40,40,1,195,4,7,parrot      ,hat           ,html/resources/sequences_IDs/B/05_parrot.jpg,html/resources/sequences_IDs/A/08_hat.jpg,5,8,2,1,3,2,4,6,0,92,,,,,,,,,,,,,,,,,,,,
,,,,,92,2020-07-04_19h49.41.114,retriever_ti,2020.1.3,Win32,60,Chrome,1366,768,,,,,,,,,,,,,,,,,3,,,,,,,,,,,,,,,,,,,,,,,,,,,751.397965,196,left,0.83125,hat           ,7,8,5,1,3,751.471235,751.471235,753.91274,0,41,41,41,1,196,7,2,hat           ,radio       ,html/resources/sequences_IDs/A/08_hat.jpg,html/resources/sequences_IDs/B/10_radio.jpg,8,10,3,2,4,2,6,8,0,92,,,,,,,,,,,,,,,,,,,,
,,,,,92,2020-07-04_19h49.41.114,retriever_ti,2020.1.3,Win32,60,Chrome,1366,768,,,,,,,,,,,,,,,,,3,,,,,,,,,,,,,,,,,,,,,,,,,,,754.53294,197,right,0.56453,hat           ,7,8,5,1,3,754.571105,754.571105,757.073495,0,42,42,42,1,197,2,7,radio       ,hat           ,html/resources/sequences_IDs/B/10_radio.jpg,html/resources/sequences_IDs/A/08_hat.jpg,10,8,4,2,3,2,8,6,0,92,,,,,,,,,,,,,,,,,,,,
,,,,,92,2020-07-04_19h49.41.114,retriever_ti,2020.1.3,Win32,60,Chrome,1366,768,,,,,,,,,,,,,,,,,3,,,,,,,,,,,,,,,,,,,,,,,,,,,757.69383,198,right,0.59389,clownfish     ,3,4,1,1,1,757.751415,757.751415,760.218545,0,43,43,43,1,198,2,3,radio       ,clownfish     ,html/resources/sequences_IDs/B/10_radio.jpg,html/resources/sequences_IDs/A/04_clownfish.jpg,10,4,4,2,2,1,8,3,0,92,,,,,,,,,,,,,,,,,,,,
,,,,,92,2020-07-04_19h49.41.114,retriever_ti,2020.1.3,Win32,60,Chrome,1366,768,,,,,,,,,,,,,,,,,3,,,,,,,,,,,,,,,,,,,,,,,,,,,761.84579,199,NaN,NaN,No_response,NaN,NaN,NaN,2,2,762.015565,762.015565,765.81905,0,44,44,44,1,199,1,4,calculator    ,parrot      ,html/resources/sequences_IDs/A/09_calculator.jpg,html/resources/sequences_IDs/B/05_parrot.jpg,9,5,4,2,2,1,7,4,0,92,,,,,,,,,,,,,,,,,,,,
,,,,,92,2020-07-04_19h49.41.114,retriever_ti,2020.1.3,Win32,60,Chrome,1366,768,,,,,,,,,,,,,,,,,3,,,,,,,,,,,,,,,,,,,,,,,,,,,766.928095,200,right,0.76149,dress         ,5,7,-2,0,3,766.973335,766.973335,769.460235,0,45,45,45,1,200,7,5,hat           ,dress         ,html/resources/sequences_IDs/A/08_hat.jpg,html/resources/sequences_IDs/A/07_dress.jpg,8,7,3,2,3,2,6,5,0,92,,,,,,,,,,,,,,,,,,,,
,,,,,92,2020-07-04_19h49.41.114,retriever_ti,2020.1.3,Win32,60,Chrome,1366,768,,,,,,,,,,,,,,,,,3,,,,,,,,,,,,,,,,,,,,,,,,,,,770.080575,201,right,0.881025,parrot      ,4,5,1,1,1,770.09848,770.09848,772.594695,0,46,46,46,1,201,3,4,clownfish     ,parrot      ,html/resources/sequences_IDs/A/04_clownfish.jpg,html/resources/sequences_IDs/B/05_parrot.jpg,4,5,2,1,2,1,3,4,0,92,,,,,,,,,,,,,,,,,,,,
,,,,,92,2020-07-04_19h49.41.114,retriever_ti,2020.1.3,Win32,60,Chrome,1366,768,,,,,,,,,,,,,,,,,3,,,,,,,,,,,,,,,,,,,,,,,,,,,773.70214,202,right,0.70751,clownfish     ,3,4,1,1,1,773.756165,773.756165,776.219415,0,47,47,47,1,202,2,3,radio       ,clownfish     ,html/resources/sequences_IDs/B/10_radio.jpg,html/resources/sequences_IDs/A/04_clownfish.jpg,10,4,4,2,2,1,8,3,0,92,,,,,,,,,,,,,,,,,,,,
,,,,,92,2020-07-04_19h49.41.114,retriever_ti,2020.1.3,Win32,60,Chrome,1366,768,,,,,,,,,,,,,,,,,3,,,,,,,,,,,,,,,,,,,,,,,,,,,777.319655,203,left,0.870605,giraffe     ,6,3,1,1,0,777.397115,777.397115,779.84384,0,48,48,48,1,203,6,5,giraffe     ,dress         ,html/resources/sequences_IDs/B/03_giraffe.jpg,html/resources/sequences_IDs/A/07_dress.jpg,3,7,1,1,3,2,2,5,1,92,,,,,,,,,,,,,,,,,,,,
,,,,,92,2020-07-04_19h49.41.114,retriever_ti,2020.1.3,Win32,60,Chrome,1366,768,,,,,,,,,,,,,,,,,3,,,,,,,,,,,,,,,,,,,,,,,,,,,780.94555,204,right,0.640015,giraffe     ,6,3,-1,0,0,780.980805,780.980805,783.477425,0,49,49,49,1,204,7,6,hat           ,giraffe     ,html/resources/sequences_IDs/A/08_hat.jpg,html/resources/sequences_IDs/B/03_giraffe.jpg,8,3,3,2,1,1,6,2,0,92,,,,,,,,,,,,,,,,,,,,
,,,,,92,2020-07-04_19h49.41.114,retriever_ti,2020.1.3,Win32,60,Chrome,1366,768,,,,,,,,,,,,,,,,,3,,,,,,,,,,,,,,,,,,,,,,,,,,,784.582165,205,left,1.06762,dress         ,5,7,1,1,1,784.61386,784.61386,787.11103,0,50,50,50,1,205,5,4,dress         ,parrot      ,html/resources/sequences_IDs/A/07_dress.jpg,html/resources/sequences_IDs/B/05_parrot.jpg,7,5,3,2,2,1,5,4,0,92,,,,,,,,,,,,,,,,,,,,
,,,,,92,2020-07-04_19h49.41.114,retriever_ti,2020.1.3,Win32,60,Chrome,1366,768,,,,,,,,,,,,,,,,,3,,,,,,,,,,,,,,,,,,,,,,,,,,,788.23898,206,right,0.994365,radio       ,2,10,1,1,0,788.28052,788.28052,790.777775,0,51,51,51,1,206,1,2,calculator    ,radio       ,html/resources/sequences_IDs/A/09_calculator.jpg,html/resources/sequences_IDs/B/10_radio.jpg,9,10,4,2,4,2,7,8,1,92,,,,,,,,,,,,,,,,,,,,
,,,,,92,2020-07-04_19h49.41.114,retriever_ti,2020.1.3,Win32,60,Chrome,1366,768,,,,,,,,,,,,,,,,,3,,,,,,,,,,,,,,,,,,,,,,,,,,,791.88253,207,left,1.340525,redfox      ,8,1,2,1,3,791.89721,791.89721,794.394,0,52,52,52,1,207,8,6,redfox      ,giraffe     ,html/resources/sequences_IDs/B/01_redfox.jpg,html/resources/sequences_IDs/B/03_giraffe.jpg,1,3,1,1,1,1,1,2,0,92,,,,,,,,,,,,,,,,,,,,
,,,,,92,2020-07-04_19h49.41.114,retriever_ti,2020.1.3,Win32,60,Chrome,1366,768,,,,,,,,,,,,,,,,,3,,,,,,,,,,,,,,,,,,,,,,,,,,,795.0111,208,left,1.159435,dress         ,5,7,2,1,3,795.02991,795.02991,797.52667,0,53,53,53,1,208,5,3,dress         ,clownfish     ,html/resources/sequences_IDs/A/07_dress.jpg,html/resources/sequences_IDs/A/04_clownfish.jpg,7,4,3,2,2,1,5,3,0,92,,,,,,,,,,,,,,,,,,,,
,,,,,92,2020-07-04_19h49.41.114,retriever_ti,2020.1.3,Win32,60,Chrome,1366,768,,,,,,,,,,,,,,,,,3,,,,,,,,,,,,,,,,,,,,,,,,,,,798.145365,209,left,1.124595,parrot      ,4,5,-1,0,1,798.162775,798.162775,800.661365,0,54,54,54,1,209,4,5,parrot      ,dress         ,html/resources/sequences_IDs/B/05_parrot.jpg,html/resources/sequences_IDs/A/07_dress.jpg,5,7,2,1,3,2,4,5,1,92,,,,,,,,,,,,,,,,,,,,
,,,,,92,2020-07-04_19h49.41.114,retriever_ti,2020.1.3,Win32,60,Chrome,1366,768,,,,,,,,,,,,,,,,,3,,,,,,,,,,,,,,,,,,,,,,,,,,,801.762735,210,right,0.95217,giraffe     ,6,3,1,1,1,801.78079,801.78079,804.296665,0,55,55,55,1,210,5,6,dress         ,giraffe     ,html/resources/sequences_IDs/A/07_dress.jpg,html/resources/sequences_IDs/B/03_giraffe.jpg,7,3,3,2,1,1,5,2,0,92,,,,,,,,,,,,,,,,,,,,
,,,,,92,2020-07-04_19h49.41.114,retriever_ti,2020.1.3,Win32,60,Chrome,1366,768,,,,,,,,,,,,,,,,,3,,,,,,,,,,,,,,,,,,,,,,,,,,,805.39427,211,right,1.054155,dress         ,5,7,3,1,3,805.42982,805.42982,807.92813,0,56,56,56,1,211,2,5,radio       ,dress         ,html/resources/sequences_IDs/B/10_radio.jpg,html/resources/sequences_IDs/A/07_dress.jpg,10,7,4,2,3,2,8,5,0,92,,,,,,,,,,,,,,,,,,,,
,,,,,92,2020-07-04_19h49.41.114,retriever_ti,2020.1.3,Win32,60,Chrome,1366,768,,,,,,,,,,,,,,,,,3,,,,,,,,,,,,,,,,,,,,,,,,,,,808.535275,212,left,0.875805,clownfish     ,3,4,1,1,1,808.585675,808.585675,811.076425,0,57,57,57,1,212,3,2,clownfish     ,radio       ,html/resources/sequences_IDs/A/04_clownfish.jpg,html/resources/sequences_IDs/B/10_radio.jpg,4,10,2,1,4,2,3,8,0,92,,,,,,,,,,,,,,,,,,,,
,,,,,92,2020-07-04_19h49.41.114,retriever_ti,2020.1.3,Win32,60,Chrome,1366,768,,,,,,,,,,,,,,,,,3,,,,,,,,,,,,,,,,,,,,,,,,,,,812.19229,213,NaN,NaN,No_response,NaN,NaN,NaN,2,2,812.24432,812.24432,814.740115,0,58,58,58,1,213,6,4,giraffe     ,parrot      ,html/resources/sequences_IDs/B/03_giraffe.jpg,html/resources/sequences_IDs/B/05_parrot.jpg,3,5,1,1,2,1,2,4,0,92,,,,,,,,,,,,,,,,,,,,
,,,,,92,2020-07-04_19h49.41.114,retriever_ti,2020.1.3,Win32,60,Chrome,1366,768,,,,,,,,,,,,,,,,,3,,,,,,,,,,,,,,,,,,,,,,,,,,,815.838275,214,right,0.60646,giraffe     ,6,3,2,1,3,815.90459,815.90459,818.38044,0,59,59,59,1,214,4,6,parrot      ,giraffe     ,html/resources/sequences_IDs/B/05_parrot.jpg,html/resources/sequences_IDs/B/03_giraffe.jpg,5,3,2,1,1,1,4,2,0,92,,,,,,,,,,,,,,,,,,,,
,,,,,92,2020-07-04_19h49.41.114,retriever_ti,2020.1.3,Win32,60,Chrome,1366,768,,,,,,,,,,,,,,,,,3,,,,,,,,,,,,,,,,,,,,,,,,,,,818.998795,215,left,0.67538,hat           ,7,8,6,1,3,819.017235,819.017235,821.514465,0,60,60,60,1,215,7,1,hat           ,calculator    ,html/resources/sequences_IDs/A/08_hat.jpg,html/resources/sequences_IDs/A/09_calculator.jpg,8,9,3,2,4,2,6,7,0,92,,,,,,,,,,,,,,,,,,,,
,,,,,92,2020-07-04_19h49.41.114,retriever_ti,2020.1.3,Win32,60,Chrome,1366,768,,,,,,,,,,,,,,,,,3,,,,,,,,,,,,,,,,,,,,,,,,,,,822.134535,216,NaN,NaN,No_response,NaN,NaN,NaN,2,2,822.17608,822.17608,824.66854,0,61,61,61,1,216,4,1,parrot      ,calculator    ,html/resources/sequences_IDs/B/05_parrot.jpg,html/resources/sequences_IDs/A/09_calculator.jpg,5,9,2,1,4,2,4,7,0,92,,,,,,,,,,,,,,,,,,,,
,,,,,92,2020-07-04_19h49.41.114,retriever_ti,2020.1.3,Win32,60,Chrome,1366,768,,,,,,,,,,,,,,,,,3,,,,,,,,,,,,,,,,,,,,,,,,,,,825.773305,217,NaN,NaN,No_response,NaN,NaN,NaN,2,2,825.81,825.81,828.290625,0,62,62,62,1,217,8,7,redfox      ,hat           ,html/resources/sequences_IDs/B/01_redfox.jpg,html/resources/sequences_IDs/A/08_hat.jpg,1,8,1,1,3,2,1,6,0,92,,,,,,,,,,,,,,,,,,,,
,,,,,92,2020-07-04_19h49.41.114,retriever_ti,2020.1.3,Win32,60,Chrome,1366,768,,,,,,,,,,,,,,,,,3,,,,,,,,,,,,,,,,,,,,,,,,,,,829.40164,218,right,0.529205,redfox      ,8,1,1,1,1,829.46749,829.46749,831.932865,0,63,63,63,1,218,7,8,hat           ,redfox      ,html/resources/sequences_IDs/A/08_hat.jpg,html/resources/sequences_IDs/B/01_redfox.jpg,8,1,3,2,1,1,6,1,0,92,,,,,,,,,,,,,,,,,,,,
,,,,,92,2020-07-04_19h49.41.114,retriever_ti,2020.1.3,Win32,60,Chrome,1366,768,,,,,,,,,,,,,,,,,3,,,,,,,,,,,,,,,,,,,,,,,,,,,833.0544,219,left,0.89516,calculator    ,1,9,-1,0,0,833.124965,833.124965,835.593645,0,64,64,64,1,219,1,2,calculator    ,radio       ,html/resources/sequences_IDs/A/09_calculator.jpg,html/resources/sequences_IDs/B/10_radio.jpg,9,10,4,2,4,2,7,8,0,92,,,,,,,,,,,,,,,,,,,,
,,,,,92,2020-07-04_19h49.41.114,retriever_ti,2020.1.3,Win32,60,Chrome,1366,768,,,,,,,,,,,,,,,,,3,,,,,,,,,,,,,,,,,,,,,,,,,,,836.68459,220,right,1.33563,hat           ,7,8,1,1,1,836.70314,836.70314,839.1941,0,65,65,65,1,220,6,7,giraffe     ,hat           ,html/resources/sequences_IDs/B/03_giraffe.jpg,html/resources/sequences_IDs/A/08_hat.jpg,3,8,1,1,3,2,2,6,0,92,,,,,,,,,,,,,,,,,,,,
,,,,,92,2020-07-04_19h49.41.114,retriever_ti,2020.1.3,Win32,60,Chrome,1366,768,,,,,,,,,,,,,,,,,3,,,,,,,,,,,,,,,,,,,,,,,,,,,840.293855,221,left,1.03301,redfox      ,8,1,1,1,1,840.33163,840.33163,842.82684,0,66,66,66,1,221,8,7,redfox      ,hat           ,html/resources/sequences_IDs/B/01_redfox.jpg,html/resources/sequences_IDs/A/08_hat.jpg,1,8,1,1,3,2,1,6,0,92,,,,,,,,,,,,,,,,,,,,
,,,,,92,2020-07-04_19h49.41.114,retriever_ti,2020.1.3,Win32,60,Chrome,1366,768,,,,,,,,,,,,,,,,,3,,,,,,,,,,,,,,,,,,,,,,,,,,,843.93346,222,right,0.743325,redfox      ,8,1,4,1,3,843.95989,843.95989,846.443065,0,67,67,67,1,222,4,8,parrot      ,redfox      ,html/resources/sequences_IDs/B/05_parrot.jpg,html/resources/sequences_IDs/B/01_redfox.jpg,5,1,2,1,1,1,4,1,0,92,,,,,,,,,,,,,,,,,,,,
,,,,,92,2020-07-04_19h49.41.114,retriever_ti,2020.1.3,Win32,60,Chrome,1366,768,,,,,,,,,,,,,,,,,3,,,,,,,,,,,,,,,,,,,,,,,,,,,847.050975,223,left,0.94829,giraffe     ,6,3,1,1,1,847.08611,847.08611,849.57723,0,68,68,68,1,223,6,5,giraffe     ,dress         ,html/resources/sequences_IDs/B/03_giraffe.jpg,html/resources/sequences_IDs/A/07_dress.jpg,3,7,1,1,3,2,2,5,0,92,,,,,,,,,,,,,,,,,,,,
,,,,,92,2020-07-04_19h49.41.114,retriever_ti,2020.1.3,Win32,60,Chrome,1366,768,,,,,,,,,,,,,,,,,3,,,,,,,,,,,,,,,,,,,,,,,,,,,850.677865,224,left,0.969775,redfox      ,8,1,5,1,3,850.713635,850.713635,853.20953,0,69,69,69,1,224,8,3,redfox      ,clownfish     ,html/resources/sequences_IDs/B/01_redfox.jpg,html/resources/sequences_IDs/A/04_clownfish.jpg,1,4,1,1,2,1,1,3,0,92,,,,,,,,,,,,,,,,,,,,
,,,,,92,2020-07-04_19h49.41.114,retriever_ti,2020.1.3,Win32,60,Chrome,1366,768,,,,,,,,,,,,,,,,,3,,,,,,,,,,,,,,,,,,,,,,,,,,,853.81205,225,right,0.62846,redfox      ,8,1,5,1,3,853.84612,853.84612,856.343135,0,70,70,70,1,225,3,8,clownfish     ,redfox      ,html/resources/sequences_IDs/A/04_clownfish.jpg,html/resources/sequences_IDs/B/01_redfox.jpg,4,1,2,1,1,1,3,1,0,92,,,,,,,,,,,,,,,,,,,,
