instructionsLoop.thisRepN,instructionsLoop.thisTrialN,instructionsLoop.thisN,instructionsLoop.thisIndex,instructionsLoop.ran,participant,date,expName,psychopyVersion,OS,frameRate,browser,xResolution,yResolution,fix_onset,tprac,practiceKey.keys,practiceKey.rt,pracitem_chosen_name,acc_practice,P1_onsetPrac,P2_onsetPrac,onsetFeedbPrac,practiceTrials.thisRepN,practiceTrials.thisTrialN,practiceTrials.thisN,practiceTrials.thisIndex,practiceTrials.ran,P1,P2,Block,LocItem1,LocItem2,NameItem1,NameItem2,key_respAC_prac.keys,key_respAC_prac.corr,key_respAC_prac.rt,AC_acc,Attentions.thisRepN,Attentions.thisTrialN,Attentions.thisN,Attentions.thisIndex,Attentions.ran,Stim,Loc1,Loc2,Loc3,Loc4,CorrAns,keyDisturbed.keys,keyDisturbed.rt,repPractice.thisRepN,repPractice.thisTrialN,repPractice.thisN,repPractice.thisIndex,repPractice.ran,fixcross_onsetMain,trialNumber,key_resp.keys,key_resp.rt,item_chosen_name,item_chosen_value,item_chosen_ID,diff_chosen_minus_reject,acc_real,acc_feedback,P1_onset,P2_onset,feedb_onset,trials.thisRepN,trials.thisTrialN,trials.thisN,trials.thisIndex,trials.ran,Trial,ValueP1,ValueP2,P1name,P2name,P1Loc,P2Loc,P1id,P2id,Micro_categoryP1,Macro_categoryP1,Micro_categoryP2,Macro_categoryP2,ID_sequenceP1,ID_sequenceP2,InverseFb,pNumber,repBlocks.thisRepN,repBlocks.thisTrialN,repBlocks.thisN,repBlocks.thisIndex,repBlocks.ran,key_respAC.keys,key_respAC.corr,key_respAC.rt,trials_AC.thisRepN,trials_AC.thisTrialN,trials_AC.thisN,trials_AC.thisIndex,trials_AC.ran,Bonus,BonusLoop.thisRepN,BonusLoop.thisTrialN,BonusLoop.thisN,BonusLoop.thisIndex,BonusLoop.ran,comments
0,0,0,0,1,93,2020-07-04_20h10.41.959,retriever_ti,2020.1.3,Win32,60,Chrome,2560,1440,,,,,,,,,,,,,,,,,,,,,,,,,,,,,,,,,,,,,,,,,,,,,,,,,,,,,,,,,,,,,,,,,,,,,,,,,,,,,,,,,,,,,,,,,,,,,,,,,,
1,0,1,0,1,93,2020-07-04_20h10.41.959,retriever_ti,2020.1.3,Win32,60,Chrome,2560,1440,,,,,,,,,,,,,,,,,,,,,,,,,,,,,,,,,,,,,,,,,,,,,,,,,,,,,,,,,,,,,,,,,,,,,,,,,,,,,,,,,,,,,,,,,,,,,,,,,,
2,0,2,0,1,93,2020-07-04_20h10.41.959,retriever_ti,2020.1.3,Win32,60,Chrome,2560,1440,,,,,,,,,,,,,,,,,,,,,,,,,,,,,,,,,,,,,,,,,,,,,,,,,,,,,,,,,,,,,,,,,,,,,,,,,,,,,,,,,,,,,,,,,,,,,,,,,,
3,0,3,0,1,93,2020-07-04_20h10.41.959,retriever_ti,2020.1.3,Win32,60,Chrome,2560,1440,,,,,,,,,,,,,,,,,,,,,,,,,,,,,,,,,,,,,,,,,,,,,,,,,,,,,,,,,,,,,,,,,,,,,,,,,,,,,,,,,,,,,,,,,,,,,,,,,,
4,0,4,0,1,93,2020-07-04_20h10.41.959,retriever_ti,2020.1.3,Win32,60,Chrome,2560,1440,,,,,,,,,,,,,,,,,,,,,,,,,,,,,,,,,,,,,,,,,,,,,,,,,,,,,,,,,,,,,,,,,,,,,,,,,,,,,,,,,,,,,,,,,,,,,,,,,,
5,0,5,0,1,93,2020-07-04_20h10.41.959,retriever_ti,2020.1.3,Win32,60,Chrome,2560,1440,,,,,,,,,,,,,,,,,,,,,,,,,,,,,,,,,,,,,,,,,,,,,,,,,,,,,,,,,,,,,,,,,,,,,,,,,,,,,,,,,,,,,,,,,,,,,,,,,,
6,0,6,0,1,93,2020-07-04_20h10.41.959,retriever_ti,2020.1.3,Win32,60,Chrome,2560,1440,,,,,,,,,,,,,,,,,,,,,,,,,,,,,,,,,,,,,,,,,,,,,,,,,,,,,,,,,,,,,,,,,,,,,,,,,,,,,,,,,,,,,,,,,,,,,,,,,,
7,0,7,0,1,93,2020-07-04_20h10.41.959,retriever_ti,2020.1.3,Win32,60,Chrome,2560,1440,,,,,,,,,,,,,,,,,,,,,,,,,,,,,,,,,,,,,,,,,,,,,,,,,,,,,,,,,,,,,,,,,,,,,,,,,,,,,,,,,,,,,,,,,,,,,,,,,,
8,0,8,0,1,93,2020-07-04_20h10.41.959,retriever_ti,2020.1.3,Win32,60,Chrome,2560,1440,,,,,,,,,,,,,,,,,,,,,,,,,,,,,,,,,,,,,,,,,,,,,,,,,,,,,,,,,,,,,,,,,,,,,,,,,,,,,,,,,,,,,,,,,,,,,,,,,,
9,0,9,0,1,93,2020-07-04_20h10.41.959,retriever_ti,2020.1.3,Win32,60,Chrome,2560,1440,,,,,,,,,,,,,,,,,,,,,,,,,,,,,,,,,,,,,,,,,,,,,,,,,,,,,,,,,,,,,,,,,,,,,,,,,,,,,,,,,,,,,,,,,,,,,,,,,,
10,0,10,0,1,93,2020-07-04_20h10.41.959,retriever_ti,2020.1.3,Win32,60,Chrome,2560,1440,,,,,,,,,,,,,,,,,,,,,,,,,,,,,,,,,,,,,,,,,,,,,,,,,,,,,,,,,,,,,,,,,,,,,,,,,,,,,,,,,,,,,,,,,,,,,,,,,,
11,0,11,0,1,93,2020-07-04_20h10.41.959,retriever_ti,2020.1.3,Win32,60,Chrome,2560,1440,,,,,,,,,,,,,,,,,,,,,,,,,,,,,,,,,,,,,,,,,,,,,,,,,,,,,,,,,,,,,,,,,,,,,,,,,,,,,,,,,,,,,,,,,,,,,,,,,,
12,0,12,0,1,93,2020-07-04_20h10.41.959,retriever_ti,2020.1.3,Win32,60,Chrome,2560,1440,,,,,,,,,,,,,,,,,,,,,,,,,,,,,,,,,,,,,,,,,,,,,,,,,,,,,,,,,,,,,,,,,,,,,,,,,,,,,,,,,,,,,,,,,,,,,,,,,,
13,0,13,0,1,93,2020-07-04_20h10.41.959,retriever_ti,2020.1.3,Win32,60,Chrome,2560,1440,,,,,,,,,,,,,,,,,,,,,,,,,,,,,,,,,,,,,,,,,,,,,,,,,,,,,,,,,,,,,,,,,,,,,,,,,,,,,,,,,,,,,,,,,,,,,,,,,,
14,0,14,0,1,93,2020-07-04_20h10.41.959,retriever_ti,2020.1.3,Win32,60,Chrome,2560,1440,,,,,,,,,,,,,,,,,,,,,,,,,,,,,,,,,,,,,,,,,,,,,,,,,,,,,,,,,,,,,,,,,,,,,,,,,,,,,,,,,,,,,,,,,,,,,,,,,,
15,0,15,0,1,93,2020-07-04_20h10.41.959,retriever_ti,2020.1.3,Win32,60,Chrome,2560,1440,,,,,,,,,,,,,,,,,,,,,,,,,,,,,,,,,,,,,,,,,,,,,,,,,,,,,,,,,,,,,,,,,,,,,,,,,,,,,,,,,,,,,,,,,,,,,,,,,,
16,0,16,0,1,93,2020-07-04_20h10.41.959,retriever_ti,2020.1.3,Win32,60,Chrome,2560,1440,,,,,,,,,,,,,,,,,,,,,,,,,,,,,,,,,,,,,,,,,,,,,,,,,,,,,,,,,,,,,,,,,,,,,,,,,,,,,,,,,,,,,,,,,,,,,,,,,,
,,,,,93,2020-07-04_20h10.41.959,retriever_ti,2020.1.3,Win32,60,Chrome,2560,1440,394.815765,1,NaN,NaN,No_response,2,394.83265,394.83265,397.32787,0,0,0,0,1,2,5,1,html/resources/stimuli_practice_decision/04_beetle.jpg,html/resources/stimuli_practice_decision/02_canary.jpg,beetle,canary,,,,,,,,,,,,,,,,,,,,,,,,,,,,,,,,,,,,,,,,,,,,,,,,,,,,,,,,,,,,,,,,,,,,,,,,,,,,,
,,,,,93,2020-07-04_20h10.41.959,retriever_ti,2020.1.3,Win32,60,Chrome,2560,1440,397.855065,2,left,1.144185,rabbit,1,397.862005,397.862005,400.35733,0,1,1,1,1,4,3,1,html/resources/stimuli_practice_decision/01_rabbit.jpg,html/resources/stimuli_practice_decision/07_sock.jpg,rabbit,sock,,,,,,,,,,,,,,,,,,,,,,,,,,,,,,,,,,,,,,,,,,,,,,,,,,,,,,,,,,,,,,,,,,,,,,,,,,,,,
,,,,,93,2020-07-04_20h10.41.959,retriever_ti,2020.1.3,Win32,60,Chrome,2560,1440,401.34542,3,right,1.371485,beetle,0,401.358855,401.358855,403.85421,0,2,2,2,1,6,2,1,html/resources/stimuli_practice_decision/06_pullover.jpg,html/resources/stimuli_practice_decision/04_beetle.jpg,pullover,beetle,,,,,,,,,,,,,,,,,,,,,,,,,,,,,,,,,,,,,,,,,,,,,,,,,,,,,,,,,,,,,,,,,,,,,,,,,,,,,
,,,,,93,2020-07-04_20h10.41.959,retriever_ti,2020.1.3,Win32,60,Chrome,2560,1440,404.36155,4,right,1.58348,handmixer,0,404.388575,404.388575,406.88394,0,3,3,3,1,7,1,1,html/resources/stimuli_practice_decision/05_glasses.jpg,html/resources/stimuli_practice_decision/08_handmixer.jpg,glasses,handmixer,,,,,,,,,,,,,,,,,,,,,,,,,,,,,,,,,,,,,,,,,,,,,,,,,,,,,,,,,,,,,,,,,,,,,,,,,,,,,
,,,,,93,2020-07-04_20h10.41.959,retriever_ti,2020.1.3,Win32,60,Chrome,2560,1440,407.391515,5,left,1.989345,glasses,1,407.418295,407.418295,409.9137,0,4,4,4,1,7,6,1,html/resources/stimuli_practice_decision/05_glasses.jpg,html/resources/stimuli_practice_decision/06_pullover.jpg,glasses,pullover,,,,,,,,,,,,,,,,,,,,,,,,,,,,,,,,,,,,,,,,,,,,,,,,,,,,,,,,,,,,,,,,,,,,,,,,,,,,,
,,,,,93,2020-07-04_20h10.41.959,retriever_ti,2020.1.3,Win32,60,Chrome,2560,1440,410.90157,6,left,1.56621,rabbit,0,410.928565,410.928565,413.42388,0,5,5,5,1,4,7,1,html/resources/stimuli_practice_decision/01_rabbit.jpg,html/resources/stimuli_practice_decision/05_glasses.jpg,rabbit,glasses,,,,,,,,,,,,,,,,,,,,,,,,,,,,,,,,,,,,,,,,,,,,,,,,,,,,,,,,,,,,,,,,,,,,,,,,,,,,,
,,,,,93,2020-07-04_20h10.41.959,retriever_ti,2020.1.3,Win32,60,Chrome,2560,1440,413.93153,7,left,2.10291,handmixer,0,413.958325,413.958325,416.453655,0,6,6,6,1,1,2,1,html/resources/stimuli_practice_decision/08_handmixer.jpg,html/resources/stimuli_practice_decision/04_beetle.jpg,handmixer,beetle,,,,,,,,,,,,,,,,,,,,,,,,,,,,,,,,,,,,,,,,,,,,,,,,,,,,,,,,,,,,,,,,,,,,,,,,,,,,,
,,,,,93,2020-07-04_20h10.41.959,retriever_ti,2020.1.3,Win32,60,Chrome,2560,1440,417.44172,8,left,1.902465,rabbit,1,417.4552,417.4552,419.950565,0,7,7,7,1,4,3,1,html/resources/stimuli_practice_decision/01_rabbit.jpg,html/resources/stimuli_practice_decision/07_sock.jpg,rabbit,sock,,,,,,,,,,,,,,,,,,,,,,,,,,,,,,,,,,,,,,,,,,,,,,,,,,,,,,,,,,,,,,,,,,,,,,,,,,,,,
,,,,,93,2020-07-04_20h10.41.959,retriever_ti,2020.1.3,Win32,60,Chrome,2560,1440,,,,,,,,,,,,,,,,,,,,,,up,1,1.75281,1,0,0,0,0,1,html/resources/sequences_IDs/circle.png,circle ↑,square →,triangle ↓,← star ,up,,,,,,,,,,,,,,,,,,,,,,,,,,,,,,,,,,,,,,,,,,,,,,,,,,,,,,,,,,,,,,
,,,,,93,2020-07-04_20h10.41.959,retriever_ti,2020.1.3,Win32,60,Chrome,2560,1440,,,,,,,,,,,,,,,,,,,,,,down,1,2.507,1,0,1,1,1,1,html/resources/sequences_IDs/star.png,square ↑,circle →,star ↓,← triangle,down,,,,,,,,,,,,,,,,,,,,,,,,,,,,,,,,,,,,,,,,,,,,,,,,,,,,,,,,,,,,,,
,,,,,93,2020-07-04_20h10.41.959,retriever_ti,2020.1.3,Win32,60,Chrome,2560,1440,,,,,,,,,,,,,,,,,,,,,,left,1,1.26069,1,0,2,2,2,1,html/resources/sequences_IDs/square1.png,star ↑,triangle →,circle ↓,← square,left,,,,,,,,,,,,,,,,,,,,,,,,,,,,,,,,,,,,,,,,,,,,,,,,,,,,,,,,,,,,,,
,,,,,93,2020-07-04_20h10.41.959,retriever_ti,2020.1.3,Win32,60,Chrome,2560,1440,,,,,,,,,,,,,,,,,,,,,,down,1,1.942755,1,0,3,3,3,1,html/resources/sequences_IDs/triangle.png,star ↑,square →,triangle ↓,← circle,down,,,,,,,,,,,,,,,,,,,,,,,,,,,,,,,,,,,,,,,,,,,,,,,,,,,,,,,,,,,,,,
,,,,,93,2020-07-04_20h10.41.959,retriever_ti,2020.1.3,Win32,60,Chrome,2560,1440,,,,,,,,,,,,,,,,,,,,,,,,,,,,,,,,,,,,,1,11.082655,0,0,0,0,1,,,,,,,,,,,,,,,,,,,,,,,,,,,,,,,,,,,,,,,,,,,,,,,,,,,,,,,
,,,,,93,2020-07-04_20h10.41.959,retriever_ti,2020.1.3,Win32,60,Chrome,2560,1440,446.495525,9,right,1.407245,glasses,1,446.49803,446.49803,448.99342,0,0,0,0,1,6,7,1,html/resources/stimuli_practice_decision/06_pullover.jpg,html/resources/stimuli_practice_decision/05_glasses.jpg,pullover,glasses,,,,,,,,,,,,,,,,,,,,,,,,,,,,,,,,,,,,,,,,,,,,,,,,,,,,,,,,,,,,,,,,,,,,,,,,,,,,,
,,,,,93,2020-07-04_20h10.41.959,retriever_ti,2020.1.3,Win32,60,Chrome,2560,1440,449.98129,10,right,2.13654,beetle,0,450.00833,450.00833,452.503615,0,1,1,1,1,6,2,1,html/resources/stimuli_practice_decision/06_pullover.jpg,html/resources/stimuli_practice_decision/04_beetle.jpg,pullover,beetle,,,,,,,,,,,,,,,,,,,,,,,,,,,,,,,,,,,,,,,,,,,,,,,,,,,,,,,,,,,,,,,,,,,,,,,,,,,,,
,,,,,93,2020-07-04_20h10.41.959,retriever_ti,2020.1.3,Win32,60,Chrome,2560,1440,453.01123,11,left,1.45804,canary,0,453.03801,453.03801,455.533395,0,2,2,2,1,5,6,1,html/resources/stimuli_practice_decision/02_canary.jpg,html/resources/stimuli_practice_decision/06_pullover.jpg,canary,pullover,,,,,,,,,,,,,,,,,,,,,,,,,,,,,,,,,,,,,,,,,,,,,,,,,,,,,,,,,,,,,,,,,,,,,,,,,,,,,
,,,,,93,2020-07-04_20h10.41.959,retriever_ti,2020.1.3,Win32,60,Chrome,2560,1440,456.52144,12,left,1.299855,squirrel,1,456.548245,456.548245,459.043645,0,3,3,3,1,8,7,1,html/resources/stimuli_practice_decision/03_squirrel.jpg,html/resources/stimuli_practice_decision/05_glasses.jpg,squirrel,glasses,,,,,,,,,,,,,,,,,,,,,,,,,,,,,,,,,,,,,,,,,,,,,,,,,,,,,,,,,,,,,,,,,,,,,,,,,,,,,
,,,,,93,2020-07-04_20h10.41.959,retriever_ti,2020.1.3,Win32,60,Chrome,2560,1440,460.03151,13,NaN,NaN,No_response,2,460.058525,460.058525,462.55392,0,4,4,4,1,5,3,1,html/resources/stimuli_practice_decision/02_canary.jpg,html/resources/stimuli_practice_decision/07_sock.jpg,canary,sock,,,,,,,,,,,,,,,,,,,,,,,,,,,,,,,,,,,,,,,,,,,,,,,,,,,,,,,,,,,,,,,,,,,,,,,,,,,,,
,,,,,93,2020-07-04_20h10.41.959,retriever_ti,2020.1.3,Win32,60,Chrome,2560,1440,463.541995,14,right,0.957045,squirrel,1,463.568735,463.568735,466.06408,0,5,5,5,1,7,8,1,html/resources/stimuli_practice_decision/05_glasses.jpg,html/resources/stimuli_practice_decision/03_squirrel.jpg,glasses,squirrel,,,,,,,,,,,,,,,,,,,,,,,,,,,,,,,,,,,,,,,,,,,,,,,,,,,,,,,,,,,,,,,,,,,,,,,,,,,,,
,,,,,93,2020-07-04_20h10.41.959,retriever_ti,2020.1.3,Win32,60,Chrome,2560,1440,467.052165,15,right,0.93435,rabbit,0,467.06561,467.06561,469.56096,0,6,6,6,1,5,4,1,html/resources/stimuli_practice_decision/02_canary.jpg,html/resources/stimuli_practice_decision/01_rabbit.jpg,canary,rabbit,,,,,,,,,,,,,,,,,,,,,,,,,,,,,,,,,,,,,,,,,,,,,,,,,,,,,,,,,,,,,,,,,,,,,,,,,,,,,
,,,,,93,2020-07-04_20h10.41.959,retriever_ti,2020.1.3,Win32,60,Chrome,2560,1440,470.54908,16,left,1.38863,canary,1,470.56261,470.56261,473.05786,0,7,7,7,1,5,3,1,html/resources/stimuli_practice_decision/02_canary.jpg,html/resources/stimuli_practice_decision/07_sock.jpg,canary,sock,,,,,,,,,,,,,,,,,,,,,,,,,,,,,,,,,,,,,,,,,,,,,,,,,,,,,,,,,,,,,,,,,,,,,,,,,,,,,
,,,,,93,2020-07-04_20h10.41.959,retriever_ti,2020.1.3,Win32,60,Chrome,2560,1440,,,,,,,,,,,,,,,,,,,,,,up,1,0.87771,1,0,0,0,0,1,html/resources/sequences_IDs/circle.png,circle ↑,square →,triangle ↓,← star ,up,,,,,,,,,,,,,,,,,,,,,,,,,,,,,,,,,,,,,,,,,,,,,,,,,,,,,,,,,,,,,,
,,,,,93,2020-07-04_20h10.41.959,retriever_ti,2020.1.3,Win32,60,Chrome,2560,1440,,,,,,,,,,,,,,,,,,,,,,left,1,1.7435,1,0,1,1,2,1,html/resources/sequences_IDs/square1.png,star ↑,triangle →,circle ↓,← square,left,,,,,,,,,,,,,,,,,,,,,,,,,,,,,,,,,,,,,,,,,,,,,,,,,,,,,,,,,,,,,,
,,,,,93,2020-07-04_20h10.41.959,retriever_ti,2020.1.3,Win32,60,Chrome,2560,1440,,,,,,,,,,,,,,,,,,,,,,down,1,1.32569,1,0,2,2,1,1,html/resources/sequences_IDs/star.png,square ↑,circle →,star ↓,← triangle,down,,,,,,,,,,,,,,,,,,,,,,,,,,,,,,,,,,,,,,,,,,,,,,,,,,,,,,,,,,,,,,
,,,,,93,2020-07-04_20h10.41.959,retriever_ti,2020.1.3,Win32,60,Chrome,2560,1440,,,,,,,,,,,,,,,,,,,,,,down,1,2.058365,1,0,3,3,3,1,html/resources/sequences_IDs/triangle.png,star ↑,square →,triangle ↓,← circle,down,,,,,,,,,,,,,,,,,,,,,,,,,,,,,,,,,,,,,,,,,,,,,,,,,,,,,,,,,,,,,,
,,,,,93,2020-07-04_20h10.41.959,retriever_ti,2020.1.3,Win32,60,Chrome,2560,1440,,,,,,,,,,,,,,,,,,,,,,,,,,,,,,,,,,,,,1,2.416655,1,0,1,0,1,,,,,,,,,,,,,,,,,,,,,,,,,,,,,,,,,,,,,,,,,,,,,,,,,,,,,,,
,,,,,93,2020-07-04_20h10.41.959,retriever_ti,2020.1.3,Win32,60,Chrome,2560,1440,,,,,,,,,,,,,,,,,1,,,,,,,,,,,,,,,,,,,,,,,,,,,495.926845,1,right,1.64042,holdfast    ,8,4,6,1,3,495.935365,495.935365,498.43068,0,0,0,0,1,1,2,8,sport_tshirt,holdfast    ,html/resources/sequences_IDs/B/07_sport_tshirt.jpg,html/resources/sequences_IDs/B/04_holdfast.jpg,7,4,3,2,2,1,6,3,0,93,,,,,,,,,,,,,,,,,,,,
,,,,,93,2020-07-04_20h10.41.959,retriever_ti,2020.1.3,Win32,60,Chrome,2560,1440,,,,,,,,,,,,,,,,,1,,,,,,,,,,,,,,,,,,,,,,,,,,,499.03232,2,right,1.222825,satellite_dish,5,10,1,1,1,499.047385,499.047385,501.5402,0,1,1,1,1,2,4,5,dolphin     ,satellite_dish,html/resources/sequences_IDs/B/02_dolphin.jpg,html/resources/sequences_IDs/A/10_satellite_dish.jpg,2,10,1,1,4,2,1,8,0,93,,,,,,,,,,,,,,,,,,,,
,,,,,93,2020-07-04_20h10.41.959,retriever_ti,2020.1.3,Win32,60,Chrome,2560,1440,,,,,,,,,,,,,,,,,1,,,,,,,,,,,,,,,,,,,,,,,,,,,502.63502,3,right,1.01894,satellite_dish,5,10,1,1,0,502.661825,502.661825,505.157155,0,2,2,2,1,3,4,5,dolphin     ,satellite_dish,html/resources/sequences_IDs/B/02_dolphin.jpg,html/resources/sequences_IDs/A/10_satellite_dish.jpg,2,10,1,1,4,2,1,8,1,93,,,,,,,,,,,,,,,,,,,,
,,,,,93,2020-07-04_20h10.41.959,retriever_ti,2020.1.3,Win32,60,Chrome,2560,1440,,,,,,,,,,,,,,,,,1,,,,,,,,,,,,,,,,,,,,,,,,,,,506.251835,4,right,1.23175,sport_tshirt,2,7,1,1,1,506.27878,506.27878,508.77417,0,3,3,3,1,4,1,2,hat           ,sport_tshirt,html/resources/sequences_IDs/A/08_hat.jpg,html/resources/sequences_IDs/B/07_sport_tshirt.jpg,8,7,3,2,3,2,7,6,0,93,,,,,,,,,,,,,,,,,,,,
,,,,,93,2020-07-04_20h10.41.959,retriever_ti,2020.1.3,Win32,60,Chrome,2560,1440,,,,,,,,,,,,,,,,,1,,,,,,,,,,,,,,,,,,,,,,,,,,,509.86905,5,right,1.36274,peacock       ,7,5,1,1,1,509.89582,509.89582,512.39117,0,4,4,4,1,5,6,7,gloves      ,peacock       ,html/resources/sequences_IDs/B/06_gloves.jpg,html/resources/sequences_IDs/A/05_peacock.jpg,6,5,3,2,2,1,5,4,0,93,,,,,,,,,,,,,,,,,,,,
,,,,,93,2020-07-04_20h10.41.959,retriever_ti,2020.1.3,Win32,60,Chrome,2560,1440,,,,,,,,,,,,,,,,,1,,,,,,,,,,,,,,,,,,,,,,,,,,,513.486065,6,right,1.329815,peacock       ,7,5,2,1,3,513.499435,513.499435,515.99484,0,5,5,5,1,6,5,7,satellite_dish,peacock       ,html/resources/sequences_IDs/A/10_satellite_dish.jpg,html/resources/sequences_IDs/A/05_peacock.jpg,10,5,4,2,2,1,8,4,0,93,,,,,,,,,,,,,,,,,,,,
,,,,,93,2020-07-04_20h10.41.959,retriever_ti,2020.1.3,Win32,60,Chrome,2560,1440,,,,,,,,,,,,,,,,,1,,,,,,,,,,,,,,,,,,,,,,,,,,,516.59587,7,right,1.23889,satellite_dish,5,10,3,1,3,516.609325,516.609325,519.10469,0,6,6,6,1,7,2,5,sport_tshirt,satellite_dish,html/resources/sequences_IDs/B/07_sport_tshirt.jpg,html/resources/sequences_IDs/A/10_satellite_dish.jpg,7,10,3,2,4,2,6,8,0,93,,,,,,,,,,,,,,,,,,,,
,,,,,93,2020-07-04_20h10.41.959,retriever_ti,2020.1.3,Win32,60,Chrome,2560,1440,,,,,,,,,,,,,,,,,1,,,,,,,,,,,,,,,,,,,,,,,,,,,519.70546,8,left,1.421755,camel         ,3,3,1,1,1,519.73253,519.73253,522.227845,0,7,7,7,1,8,3,2,camel         ,sport_tshirt,html/resources/sequences_IDs/A/03_camel.jpg,html/resources/sequences_IDs/B/07_sport_tshirt.jpg,3,7,1,1,3,2,2,6,0,93,,,,,,,,,,,,,,,,,,,,
,,,,,93,2020-07-04_20h10.41.959,retriever_ti,2020.1.3,Win32,60,Chrome,2560,1440,,,,,,,,,,,,,,,,,1,,,,,,,,,,,,,,,,,,,,,,,,,,,523.322715,9,left,1.766325,camel         ,3,3,-4,0,3,523.336135,523.336135,525.83153,0,8,8,8,1,9,3,7,camel         ,peacock       ,html/resources/sequences_IDs/A/03_camel.jpg,html/resources/sequences_IDs/A/05_peacock.jpg,3,5,1,1,2,1,2,4,0,93,,,,,,,,,,,,,,,,,,,,
,,,,,93,2020-07-04_20h10.41.959,retriever_ti,2020.1.3,Win32,60,Chrome,2560,1440,,,,,,,,,,,,,,,,,1,,,,,,,,,,,,,,,,,,,,,,,,,,,526.43234,10,right,0.686115,camel         ,3,3,1,1,1,526.44595,526.44595,528.94132,0,9,9,9,1,10,2,3,sport_tshirt,camel         ,html/resources/sequences_IDs/B/07_sport_tshirt.jpg,html/resources/sequences_IDs/A/03_camel.jpg,7,3,3,2,1,1,6,2,0,93,,,,,,,,,,,,,,,,,,,,
,,,,,93,2020-07-04_20h10.41.959,retriever_ti,2020.1.3,Win32,60,Chrome,2560,1440,,,,,,,,,,,,,,,,,1,,,,,,,,,,,,,,,,,,,,,,,,,,,530.03624,11,right,0.87911,satellite_dish,5,10,-1,0,0,530.062985,530.062985,532.55835,0,10,10,10,1,11,6,5,gloves      ,satellite_dish,html/resources/sequences_IDs/B/06_gloves.jpg,html/resources/sequences_IDs/A/10_satellite_dish.jpg,6,10,3,2,4,2,5,8,0,93,,,,,,,,,,,,,,,,,,,,
,,,,,93,2020-07-04_20h10.41.959,retriever_ti,2020.1.3,Win32,60,Chrome,2560,1440,,,,,,,,,,,,,,,,,1,,,,,,,,,,,,,,,,,,,,,,,,,,,533.653225,12,NaN,NaN,No_response,NaN,NaN,NaN,2,2,533.679975,533.679975,536.17536,0,11,11,11,1,12,6,2,gloves      ,sport_tshirt,html/resources/sequences_IDs/B/06_gloves.jpg,html/resources/sequences_IDs/B/07_sport_tshirt.jpg,6,7,3,2,3,2,5,6,0,93,,,,,,,,,,,,,,,,,,,,
,,,,,93,2020-07-04_20h10.41.959,retriever_ti,2020.1.3,Win32,60,Chrome,2560,1440,,,,,,,,,,,,,,,,,1,,,,,,,,,,,,,,,,,,,,,,,,,,,537.270255,13,left,0.83037,holdfast    ,8,4,1,1,1,537.297005,537.297005,539.792345,0,12,12,12,1,13,8,7,holdfast    ,peacock       ,html/resources/sequences_IDs/B/04_holdfast.jpg,html/resources/sequences_IDs/A/05_peacock.jpg,4,5,2,1,2,1,3,4,0,93,,,,,,,,,,,,,,,,,,,,
,,,,,93,2020-07-04_20h10.41.959,retriever_ti,2020.1.3,Win32,60,Chrome,2560,1440,,,,,,,,,,,,,,,,,1,,,,,,,,,,,,,,,,,,,,,,,,,,,540.887245,14,right,1.34208,peacock       ,7,5,3,1,3,540.900705,540.900705,543.396005,0,13,13,13,1,14,4,7,dolphin     ,peacock       ,html/resources/sequences_IDs/B/02_dolphin.jpg,html/resources/sequences_IDs/A/05_peacock.jpg,2,5,1,1,2,1,1,4,0,93,,,,,,,,,,,,,,,,,,,,
,,,,,93,2020-07-04_20h10.41.959,retriever_ti,2020.1.3,Win32,60,Chrome,2560,1440,,,,,,,,,,,,,,,,,1,,,,,,,,,,,,,,,,,,,,,,,,,,,543.996835,15,right,0.980895,camel         ,3,3,-5,0,3,544.010485,544.010485,546.50586,0,14,14,14,1,15,8,3,holdfast    ,camel         ,html/resources/sequences_IDs/B/04_holdfast.jpg,html/resources/sequences_IDs/A/03_camel.jpg,4,3,2,1,1,1,3,2,0,93,,,,,,,,,,,,,,,,,,,,
,,,,,93,2020-07-04_20h10.41.959,retriever_ti,2020.1.3,Win32,60,Chrome,2560,1440,,,,,,,,,,,,,,,,,1,,,,,,,,,,,,,,,,,,,,,,,,,,,547.106915,16,left,0.795315,satellite_dish,5,10,-3,0,3,547.13364,547.13364,549.62903,0,15,15,15,1,16,5,8,satellite_dish,holdfast    ,html/resources/sequences_IDs/A/10_satellite_dish.jpg,html/resources/sequences_IDs/B/04_holdfast.jpg,10,4,4,2,2,1,8,3,0,93,,,,,,,,,,,,,,,,,,,,
,,,,,93,2020-07-04_20h10.41.959,retriever_ti,2020.1.3,Win32,60,Chrome,2560,1440,,,,,,,,,,,,,,,,,1,,,,,,,,,,,,,,,,,,,,,,,,,,,550.229825,17,right,1.0875,hat           ,1,8,-5,0,3,550.256805,550.256805,552.75227,0,16,16,16,1,17,6,1,gloves      ,hat           ,html/resources/sequences_IDs/B/06_gloves.jpg,html/resources/sequences_IDs/A/08_hat.jpg,6,8,3,2,3,2,5,7,0,93,,,,,,,,,,,,,,,,,,,,
,,,,,93,2020-07-04_20h10.41.959,retriever_ti,2020.1.3,Win32,60,Chrome,2560,1440,,,,,,,,,,,,,,,,,1,,,,,,,,,,,,,,,,,,,,,,,,,,,553.3533,18,left,0.67005,camel         ,3,3,2,1,3,553.379995,553.379995,555.875395,0,17,17,17,1,18,3,1,camel         ,hat           ,html/resources/sequences_IDs/A/03_camel.jpg,html/resources/sequences_IDs/A/08_hat.jpg,3,8,1,1,3,2,2,7,0,93,,,,,,,,,,,,,,,,,,,,
,,,,,93,2020-07-04_20h10.41.959,retriever_ti,2020.1.3,Win32,60,Chrome,2560,1440,,,,,,,,,,,,,,,,,1,,,,,,,,,,,,,,,,,,,,,,,,,,,556.47619,19,right,0.71261,peacock       ,7,5,5,1,3,556.489815,556.489815,558.98521,0,18,18,18,1,19,2,7,sport_tshirt,peacock       ,html/resources/sequences_IDs/B/07_sport_tshirt.jpg,html/resources/sequences_IDs/A/05_peacock.jpg,7,5,3,2,2,1,6,4,0,93,,,,,,,,,,,,,,,,,,,,
,,,,,93,2020-07-04_20h10.41.959,retriever_ti,2020.1.3,Win32,60,Chrome,2560,1440,,,,,,,,,,,,,,,,,1,,,,,,,,,,,,,,,,,,,,,,,,,,,559.586255,20,left,0.596745,sport_tshirt,2,7,1,1,1,559.61298,559.61298,562.108385,0,19,19,19,1,20,2,1,sport_tshirt,hat           ,html/resources/sequences_IDs/B/07_sport_tshirt.jpg,html/resources/sequences_IDs/A/08_hat.jpg,7,8,3,2,3,2,6,7,0,93,,,,,,,,,,,,,,,,,,,,
,,,,,93,2020-07-04_20h10.41.959,retriever_ti,2020.1.3,Win32,60,Chrome,2560,1440,,,,,,,,,,,,,,,,,1,,,,,,,,,,,,,,,,,,,,,,,,,,,563.203215,21,left,0.769945,camel         ,3,3,-3,0,3,563.21666,563.21666,565.71206,0,20,20,20,1,21,3,6,camel         ,gloves      ,html/resources/sequences_IDs/A/03_camel.jpg,html/resources/sequences_IDs/B/06_gloves.jpg,3,6,1,1,3,2,2,5,0,93,,,,,,,,,,,,,,,,,,,,
,,,,,93,2020-07-04_20h10.41.959,retriever_ti,2020.1.3,Win32,60,Chrome,2560,1440,,,,,,,,,,,,,,,,,1,,,,,,,,,,,,,,,,,,,,,,,,,,,566.312845,22,right,0.63592,sport_tshirt,2,7,-2,0,3,566.32652,566.32652,568.821935,0,21,21,21,1,22,4,2,dolphin     ,sport_tshirt,html/resources/sequences_IDs/B/02_dolphin.jpg,html/resources/sequences_IDs/B/07_sport_tshirt.jpg,2,7,1,1,3,2,1,6,0,93,,,,,,,,,,,,,,,,,,,,
,,,,,93,2020-07-04_20h10.41.959,retriever_ti,2020.1.3,Win32,60,Chrome,2560,1440,,,,,,,,,,,,,,,,,1,,,,,,,,,,,,,,,,,,,,,,,,,,,569.42297,23,right,0.533575,camel         ,3,3,1,1,1,569.43631,569.43631,571.931705,0,22,22,22,1,23,2,3,sport_tshirt,camel         ,html/resources/sequences_IDs/B/07_sport_tshirt.jpg,html/resources/sequences_IDs/A/03_camel.jpg,7,3,3,2,1,1,6,2,0,93,,,,,,,,,,,,,,,,,,,,
,,,,,93,2020-07-04_20h10.41.959,retriever_ti,2020.1.3,Win32,60,Chrome,2560,1440,,,,,,,,,,,,,,,,,1,,,,,,,,,,,,,,,,,,,,,,,,,,,573.026615,24,left,0.48649,holdfast    ,8,4,1,1,1,573.053365,573.053365,575.548695,0,23,23,23,1,24,8,7,holdfast    ,peacock       ,html/resources/sequences_IDs/B/04_holdfast.jpg,html/resources/sequences_IDs/A/05_peacock.jpg,4,5,2,1,2,1,3,4,0,93,,,,,,,,,,,,,,,,,,,,
,,,,,93,2020-07-04_20h10.41.959,retriever_ti,2020.1.3,Win32,60,Chrome,2560,1440,,,,,,,,,,,,,,,,,1,,,,,,,,,,,,,,,,,,,,,,,,,,,576.643635,25,left,0.752445,satellite_dish,5,10,-1,0,0,576.656985,576.656985,579.15238,0,24,24,24,1,25,5,6,satellite_dish,gloves      ,html/resources/sequences_IDs/A/10_satellite_dish.jpg,html/resources/sequences_IDs/B/06_gloves.jpg,10,6,4,2,3,2,8,5,0,93,,,,,,,,,,,,,,,,,,,,
,,,,,93,2020-07-04_20h10.41.959,retriever_ti,2020.1.3,Win32,60,Chrome,2560,1440,,,,,,,,,,,,,,,,,1,,,,,,,,,,,,,,,,,,,,,,,,,,,580.247055,26,left,1.010795,holdfast    ,8,4,7,1,3,580.27403,580.27403,582.76938,0,25,25,25,1,26,8,1,holdfast    ,hat           ,html/resources/sequences_IDs/B/04_holdfast.jpg,html/resources/sequences_IDs/A/08_hat.jpg,4,8,2,1,3,2,3,7,0,93,,,,,,,,,,,,,,,,,,,,
,,,,,93,2020-07-04_20h10.41.959,retriever_ti,2020.1.3,Win32,60,Chrome,2560,1440,,,,,,,,,,,,,,,,,1,,,,,,,,,,,,,,,,,,,,,,,,,,,583.370445,27,right,0.82583,holdfast    ,8,4,5,1,3,583.383825,583.383825,585.879205,0,26,26,26,1,27,3,8,camel         ,holdfast    ,html/resources/sequences_IDs/A/03_camel.jpg,html/resources/sequences_IDs/B/04_holdfast.jpg,3,4,1,1,2,1,2,3,0,93,,,,,,,,,,,,,,,,,,,,
,,,,,93,2020-07-04_20h10.41.959,retriever_ti,2020.1.3,Win32,60,Chrome,2560,1440,,,,,,,,,,,,,,,,,1,,,,,,,,,,,,,,,,,,,,,,,,,,,586.48001,28,left,1.3637,dolphin     ,4,2,-2,0,3,586.49366,586.49366,588.98907,0,27,27,27,1,28,4,6,dolphin     ,gloves      ,html/resources/sequences_IDs/B/02_dolphin.jpg,html/resources/sequences_IDs/B/06_gloves.jpg,2,6,1,1,3,2,1,5,0,93,,,,,,,,,,,,,,,,,,,,
,,,,,93,2020-07-04_20h10.41.959,retriever_ti,2020.1.3,Win32,60,Chrome,2560,1440,,,,,,,,,,,,,,,,,1,,,,,,,,,,,,,,,,,,,,,,,,,,,589.59014,29,right,1.200935,camel         ,3,3,2,1,3,589.61685,589.61685,592.112265,0,28,28,28,1,29,1,3,hat           ,camel         ,html/resources/sequences_IDs/A/08_hat.jpg,html/resources/sequences_IDs/A/03_camel.jpg,8,3,3,2,1,1,7,2,0,93,,,,,,,,,,,,,,,,,,,,
,,,,,93,2020-07-04_20h10.41.959,retriever_ti,2020.1.3,Win32,60,Chrome,2560,1440,,,,,,,,,,,,,,,,,1,,,,,,,,,,,,,,,,,,,,,,,,,,,592.713265,30,right,1.75493,dolphin     ,4,2,-3,0,3,592.726695,592.726695,595.22203,0,29,29,29,1,30,7,4,peacock       ,dolphin     ,html/resources/sequences_IDs/A/05_peacock.jpg,html/resources/sequences_IDs/B/02_dolphin.jpg,5,2,2,1,1,1,4,1,0,93,,,,,,,,,,,,,,,,,,,,
,,,,,93,2020-07-04_20h10.41.959,retriever_ti,2020.1.3,Win32,60,Chrome,2560,1440,,,,,,,,,,,,,,,,,1,,,,,,,,,,,,,,,,,,,,,,,,,,,595.822845,31,left,1.302085,peacock       ,7,5,-1,0,0,595.849945,595.849945,598.34523,0,30,30,30,1,31,7,8,peacock       ,holdfast    ,html/resources/sequences_IDs/A/05_peacock.jpg,html/resources/sequences_IDs/B/04_holdfast.jpg,5,4,2,1,2,1,4,3,0,93,,,,,,,,,,,,,,,,,,,,
,,,,,93,2020-07-04_20h10.41.959,retriever_ti,2020.1.3,Win32,60,Chrome,2560,1440,,,,,,,,,,,,,,,,,1,,,,,,,,,,,,,,,,,,,,,,,,,,,599.44011,32,right,1.05839,holdfast    ,8,4,1,1,1,599.453485,599.453485,601.94887,0,31,31,31,1,32,7,8,peacock       ,holdfast    ,html/resources/sequences_IDs/A/05_peacock.jpg,html/resources/sequences_IDs/B/04_holdfast.jpg,5,4,2,1,2,1,4,3,0,93,,,,,,,,,,,,,,,,,,,,
,,,,,93,2020-07-04_20h10.41.959,retriever_ti,2020.1.3,Win32,60,Chrome,2560,1440,,,,,,,,,,,,,,,,,1,,,,,,,,,,,,,,,,,,,,,,,,,,,603.04379,33,right,1.169105,camel         ,3,3,-1,0,1,603.070605,603.070605,605.565875,0,32,32,32,1,33,4,3,dolphin     ,camel         ,html/resources/sequences_IDs/B/02_dolphin.jpg,html/resources/sequences_IDs/A/03_camel.jpg,2,3,1,1,1,1,1,2,1,93,,,,,,,,,,,,,,,,,,,,
,,,,,93,2020-07-04_20h10.41.959,retriever_ti,2020.1.3,Win32,60,Chrome,2560,1440,,,,,,,,,,,,,,,,,1,,,,,,,,,,,,,,,,,,,,,,,,,,,606.66078,34,left,0.79971,holdfast    ,8,4,6,1,3,606.68765,606.68765,609.18292,0,33,33,33,1,34,8,2,holdfast    ,sport_tshirt,html/resources/sequences_IDs/B/04_holdfast.jpg,html/resources/sequences_IDs/B/07_sport_tshirt.jpg,4,7,2,1,3,2,3,6,0,93,,,,,,,,,,,,,,,,,,,,
,,,,,93,2020-07-04_20h10.41.959,retriever_ti,2020.1.3,Win32,60,Chrome,2560,1440,,,,,,,,,,,,,,,,,1,,,,,,,,,,,,,,,,,,,,,,,,,,,609.78378,35,right,0.66762,holdfast    ,8,4,4,1,3,609.79734,609.79734,612.292745,0,34,34,34,1,35,4,8,dolphin     ,holdfast    ,html/resources/sequences_IDs/B/02_dolphin.jpg,html/resources/sequences_IDs/B/04_holdfast.jpg,2,4,1,1,2,1,1,3,0,93,,,,,,,,,,,,,,,,,,,,
,,,,,93,2020-07-04_20h10.41.959,retriever_ti,2020.1.3,Win32,60,Chrome,2560,1440,,,,,,,,,,,,,,,,,1,,,,,,,,,,,,,,,,,,,,,,,,,,,612.8938,36,left,0.56647,holdfast    ,8,4,2,1,3,612.907175,612.907175,615.402595,0,35,35,35,1,36,8,6,holdfast    ,gloves      ,html/resources/sequences_IDs/B/04_holdfast.jpg,html/resources/sequences_IDs/B/06_gloves.jpg,4,6,2,1,3,2,3,5,0,93,,,,,,,,,,,,,,,,,,,,
,,,,,93,2020-07-04_20h10.41.959,retriever_ti,2020.1.3,Win32,60,Chrome,2560,1440,,,,,,,,,,,,,,,,,1,,,,,,,,,,,,,,,,,,,,,,,,,,,616.00338,37,left,0.44948,holdfast    ,8,4,3,1,3,616.01704,616.01704,618.512365,0,36,36,36,1,37,8,5,holdfast    ,satellite_dish,html/resources/sequences_IDs/B/04_holdfast.jpg,html/resources/sequences_IDs/A/10_satellite_dish.jpg,4,10,2,1,4,2,3,8,0,93,,,,,,,,,,,,,,,,,,,,
,,,,,93,2020-07-04_20h10.41.959,retriever_ti,2020.1.3,Win32,60,Chrome,2560,1440,,,,,,,,,,,,,,,,,1,,,,,,,,,,,,,,,,,,,,,,,,,,,619.113425,38,right,0.50841,dolphin     ,4,2,3,1,3,619.140225,619.140225,621.63559,0,37,37,37,1,38,1,4,hat           ,dolphin     ,html/resources/sequences_IDs/A/08_hat.jpg,html/resources/sequences_IDs/B/02_dolphin.jpg,8,2,3,2,1,1,7,1,0,93,,,,,,,,,,,,,,,,,,,,
,,,,,93,2020-07-04_20h10.41.959,retriever_ti,2020.1.3,Win32,60,Chrome,2560,1440,,,,,,,,,,,,,,,,,1,,,,,,,,,,,,,,,,,,,,,,,,,,,622.236415,39,left,0.440535,peacock       ,7,5,2,1,3,622.249995,622.249995,624.74537,0,38,38,38,1,39,7,5,peacock       ,satellite_dish,html/resources/sequences_IDs/A/05_peacock.jpg,html/resources/sequences_IDs/A/10_satellite_dish.jpg,5,10,2,1,4,2,4,8,0,93,,,,,,,,,,,,,,,,,,,,
,,,,,93,2020-07-04_20h10.41.959,retriever_ti,2020.1.3,Win32,60,Chrome,2560,1440,,,,,,,,,,,,,,,,,1,,,,,,,,,,,,,,,,,,,,,,,,,,,625.34649,40,left,0.481085,camel         ,3,3,-2,0,3,625.359835,625.359835,627.85521,0,39,39,39,1,40,3,5,camel         ,satellite_dish,html/resources/sequences_IDs/A/03_camel.jpg,html/resources/sequences_IDs/A/10_satellite_dish.jpg,3,10,1,1,4,2,2,8,0,93,,,,,,,,,,,,,,,,,,,,
,,,,,93,2020-07-04_20h10.41.959,retriever_ti,2020.1.3,Win32,60,Chrome,2560,1440,,,,,,,,,,,,,,,,,1,,,,,,,,,,,,,,,,,,,,,,,,,,,628.456,41,left,0.49475,satellite_dish,5,10,3,1,3,628.482995,628.482995,630.97837,0,40,40,40,1,41,5,2,satellite_dish,sport_tshirt,html/resources/sequences_IDs/A/10_satellite_dish.jpg,html/resources/sequences_IDs/B/07_sport_tshirt.jpg,10,7,4,2,3,2,8,6,0,93,,,,,,,,,,,,,,,,,,,,
,,,,,93,2020-07-04_20h10.41.959,retriever_ti,2020.1.3,Win32,60,Chrome,2560,1440,,,,,,,,,,,,,,,,,1,,,,,,,,,,,,,,,,,,,,,,,,,,,631.57942,42,right,0.53532,holdfast    ,8,4,2,1,3,631.592835,631.592835,634.08821,0,41,41,41,1,42,6,8,gloves      ,holdfast    ,html/resources/sequences_IDs/B/06_gloves.jpg,html/resources/sequences_IDs/B/04_holdfast.jpg,6,4,3,2,2,1,5,3,0,93,,,,,,,,,,,,,,,,,,,,
,,,,,93,2020-07-04_20h10.41.959,retriever_ti,2020.1.3,Win32,60,Chrome,2560,1440,,,,,,,,,,,,,,,,,1,,,,,,,,,,,,,,,,,,,,,,,,,,,634.68922,43,right,0.706265,satellite_dish,5,10,-1,0,1,634.70265,634.70265,637.198025,0,42,42,42,1,43,6,5,gloves      ,satellite_dish,html/resources/sequences_IDs/B/06_gloves.jpg,html/resources/sequences_IDs/A/10_satellite_dish.jpg,6,10,3,2,4,2,5,8,1,93,,,,,,,,,,,,,,,,,,,,
,,,,,93,2020-07-04_20h10.41.959,retriever_ti,2020.1.3,Win32,60,Chrome,2560,1440,,,,,,,,,,,,,,,,,1,,,,,,,,,,,,,,,,,,,,,,,,,,,638.292725,44,right,0.65372,camel         ,3,3,-3,0,3,638.306375,638.306375,640.80174,0,43,43,43,1,44,6,3,gloves      ,camel         ,html/resources/sequences_IDs/B/06_gloves.jpg,html/resources/sequences_IDs/A/03_camel.jpg,6,3,3,2,1,1,5,2,0,93,,,,,,,,,,,,,,,,,,,,
,,,,,93,2020-07-04_20h10.41.959,retriever_ti,2020.1.3,Win32,60,Chrome,2560,1440,,,,,,,,,,,,,,,,,1,,,,,,,,,,,,,,,,,,,,,,,,,,,641.40283,45,left,0.52157,dolphin     ,4,2,3,1,3,641.429535,641.429535,643.924855,0,44,44,44,1,45,4,1,dolphin     ,hat           ,html/resources/sequences_IDs/B/02_dolphin.jpg,html/resources/sequences_IDs/A/08_hat.jpg,2,8,1,1,3,2,1,7,0,93,,,,,,,,,,,,,,,,,,,,
,,,,,93,2020-07-04_20h10.41.959,retriever_ti,2020.1.3,Win32,60,Chrome,2560,1440,,,,,,,,,,,,,,,,,1,,,,,,,,,,,,,,,,,,,,,,,,,,,644.525715,46,left,0.77395,holdfast    ,8,4,4,1,3,644.552665,644.552665,647.048065,0,45,45,45,1,46,8,4,holdfast    ,dolphin     ,html/resources/sequences_IDs/B/04_holdfast.jpg,html/resources/sequences_IDs/B/02_dolphin.jpg,4,2,2,1,1,1,3,1,0,93,,,,,,,,,,,,,,,,,,,,
,,,,,93,2020-07-04_20h10.41.959,retriever_ti,2020.1.3,Win32,60,Chrome,2560,1440,,,,,,,,,,,,,,,,,1,,,,,,,,,,,,,,,,,,,,,,,,,,,647.64922,47,right,0.53016,dolphin     ,4,2,2,1,3,647.6633,647.6633,650.157895,0,46,46,46,1,47,2,4,sport_tshirt,dolphin     ,html/resources/sequences_IDs/B/07_sport_tshirt.jpg,html/resources/sequences_IDs/B/02_dolphin.jpg,7,2,3,2,1,1,6,1,0,93,,,,,,,,,,,,,,,,,,,,
,,,,,93,2020-07-04_20h10.41.959,retriever_ti,2020.1.3,Win32,60,Chrome,2560,1440,,,,,,,,,,,,,,,,,1,,,,,,,,,,,,,,,,,,,,,,,,,,,650.758945,48,left,0.57658,dolphin     ,4,2,1,1,1,650.78565,650.78565,653.281045,0,47,47,47,1,48,4,3,dolphin     ,camel         ,html/resources/sequences_IDs/B/02_dolphin.jpg,html/resources/sequences_IDs/A/03_camel.jpg,2,3,1,1,1,1,1,2,0,93,,,,,,,,,,,,,,,,,,,,
,,,,,93,2020-07-04_20h10.41.959,retriever_ti,2020.1.3,Win32,60,Chrome,2560,1440,,,,,,,,,,,,,,,,,1,,,,,,,,,,,,,,,,,,,,,,,,,,,654.37574,49,left,0.58832,camel         ,3,3,1,1,0,654.38939,654.38939,656.88474,0,48,48,48,1,49,3,2,camel         ,sport_tshirt,html/resources/sequences_IDs/A/03_camel.jpg,html/resources/sequences_IDs/B/07_sport_tshirt.jpg,3,7,1,1,3,2,2,6,1,93,,,,,,,,,,,,,,,,,,,,
,,,,,93,2020-07-04_20h10.41.959,retriever_ti,2020.1.3,Win32,60,Chrome,2560,1440,,,,,,,,,,,,,,,,,1,,,,,,,,,,,,,,,,,,,,,,,,,,,657.97963,50,right,0.455445,hat           ,1,8,-1,0,0,657.993005,657.993005,660.48841,0,49,49,49,1,50,2,1,sport_tshirt,hat           ,html/resources/sequences_IDs/B/07_sport_tshirt.jpg,html/resources/sequences_IDs/A/08_hat.jpg,7,8,3,2,3,2,6,7,0,93,,,,,,,,,,,,,,,,,,,,
,,,,,93,2020-07-04_20h10.41.959,retriever_ti,2020.1.3,Win32,60,Chrome,2560,1440,,,,,,,,,,,,,,,,,1,,,,,,,,,,,,,,,,,,,,,,,,,,,661.583315,51,right,0.550945,dolphin     ,4,2,-1,0,0,661.59668,661.59668,664.092045,0,50,50,50,1,51,5,4,satellite_dish,dolphin     ,html/resources/sequences_IDs/A/10_satellite_dish.jpg,html/resources/sequences_IDs/B/02_dolphin.jpg,10,2,4,2,1,1,8,1,0,93,,,,,,,,,,,,,,,,,,,,
,,,,,93,2020-07-04_20h10.41.959,retriever_ti,2020.1.3,Win32,60,Chrome,2560,1440,,,,,,,,,,,,,,,,,1,,,,,,,,,,,,,,,,,,,,,,,,,,,665.18697,52,left,0.610015,peacock       ,7,5,1,1,0,665.21369,665.21369,667.70904,0,51,51,51,1,52,7,6,peacock       ,gloves      ,html/resources/sequences_IDs/A/05_peacock.jpg,html/resources/sequences_IDs/B/06_gloves.jpg,5,6,2,1,3,2,4,5,1,93,,,,,,,,,,,,,,,,,,,,
,,,,,93,2020-07-04_20h10.41.959,retriever_ti,2020.1.3,Win32,60,Chrome,2560,1440,,,,,,,,,,,,,,,,,1,,,,,,,,,,,,,,,,,,,,,,,,,,,668.80397,53,right,0.529675,camel         ,3,3,-1,0,0,668.81736,668.81736,671.31273,0,52,52,52,1,53,4,3,dolphin     ,camel         ,html/resources/sequences_IDs/B/02_dolphin.jpg,html/resources/sequences_IDs/A/03_camel.jpg,2,3,1,1,1,1,1,2,0,93,,,,,,,,,,,,,,,,,,,,
,,,,,93,2020-07-04_20h10.41.959,retriever_ti,2020.1.3,Win32,60,Chrome,2560,1440,,,,,,,,,,,,,,,,,1,,,,,,,,,,,,,,,,,,,,,,,,,,,672.40744,54,right,0.666575,satellite_dish,5,10,-1,0,0,672.421095,672.421095,674.916385,0,53,53,53,1,54,6,5,gloves      ,satellite_dish,html/resources/sequences_IDs/B/06_gloves.jpg,html/resources/sequences_IDs/A/10_satellite_dish.jpg,6,10,3,2,4,2,5,8,0,93,,,,,,,,,,,,,,,,,,,,
,,,,,93,2020-07-04_20h10.41.959,retriever_ti,2020.1.3,Win32,60,Chrome,2560,1440,,,,,,,,,,,,,,,,,1,,,,,,,,,,,,,,,,,,,,,,,,,,,676.011275,55,left,0.554485,camel         ,3,3,1,1,1,676.038045,676.038045,678.5334,0,54,54,54,1,55,3,2,camel         ,sport_tshirt,html/resources/sequences_IDs/A/03_camel.jpg,html/resources/sequences_IDs/B/07_sport_tshirt.jpg,3,7,1,1,3,2,2,6,0,93,,,,,,,,,,,,,,,,,,,,
,,,,,93,2020-07-04_20h10.41.959,retriever_ti,2020.1.3,Win32,60,Chrome,2560,1440,,,,,,,,,,,,,,,,,1,,,,,,,,,,,,,,,,,,,,,,,,,,,679.62826,56,right,0.696,holdfast    ,8,4,7,1,3,679.641745,679.641745,682.13706,0,55,55,55,1,56,1,8,hat           ,holdfast    ,html/resources/sequences_IDs/A/08_hat.jpg,html/resources/sequences_IDs/B/04_holdfast.jpg,8,4,3,2,2,1,7,3,0,93,,,,,,,,,,,,,,,,,,,,
,,,,,93,2020-07-04_20h10.41.959,retriever_ti,2020.1.3,Win32,60,Chrome,2560,1440,,,,,,,,,,,,,,,,,1,,,,,,,,,,,,,,,,,,,,,,,,,,,682.73812,57,right,0.620765,dolphin     ,4,2,-2,0,3,682.751515,682.751515,685.246895,0,56,56,56,1,57,6,4,gloves      ,dolphin     ,html/resources/sequences_IDs/B/06_gloves.jpg,html/resources/sequences_IDs/B/02_dolphin.jpg,6,2,3,2,1,1,5,1,0,93,,,,,,,,,,,,,,,,,,,,
,,,,,93,2020-07-04_20h10.41.959,retriever_ti,2020.1.3,Win32,60,Chrome,2560,1440,,,,,,,,,,,,,,,,,1,,,,,,,,,,,,,,,,,,,,,,,,,,,685.8477,58,left,0.39427,peacock       ,7,5,6,1,3,685.86147,685.86147,688.35671,0,57,57,57,1,58,7,1,peacock       ,hat           ,html/resources/sequences_IDs/A/05_peacock.jpg,html/resources/sequences_IDs/A/08_hat.jpg,5,8,2,1,3,2,4,7,0,93,,,,,,,,,,,,,,,,,,,,
,,,,,93,2020-07-04_20h10.41.959,retriever_ti,2020.1.3,Win32,60,Chrome,2560,1440,,,,,,,,,,,,,,,,,1,,,,,,,,,,,,,,,,,,,,,,,,,,,688.9578,59,left,0.47122,peacock       ,7,5,1,1,1,688.984525,688.984525,691.479895,0,58,58,58,1,59,7,6,peacock       ,gloves      ,html/resources/sequences_IDs/A/05_peacock.jpg,html/resources/sequences_IDs/B/06_gloves.jpg,5,6,2,1,3,2,4,5,0,93,,,,,,,,,,,,,,,,,,,,
,,,,,93,2020-07-04_20h10.41.959,retriever_ti,2020.1.3,Win32,60,Chrome,2560,1440,,,,,,,,,,,,,,,,,1,,,,,,,,,,,,,,,,,,,,,,,,,,,692.57453,60,right,0.51152,peacock       ,7,5,6,1,3,692.60153,692.60153,695.0969,0,59,59,59,1,60,1,7,hat           ,peacock       ,html/resources/sequences_IDs/A/08_hat.jpg,html/resources/sequences_IDs/A/05_peacock.jpg,8,5,3,2,2,1,7,4,0,93,,,,,,,,,,,,,,,,,,,,
,,,,,93,2020-07-04_20h10.41.959,retriever_ti,2020.1.3,Win32,60,Chrome,2560,1440,,,,,,,,,,,,,,,,,1,,,,,,,,,,,,,,,,,,,,,,,,,,,695.69794,61,left,0.607095,peacock       ,7,5,4,1,3,695.711335,695.711335,698.206705,0,60,60,60,1,61,7,3,peacock       ,camel         ,html/resources/sequences_IDs/A/05_peacock.jpg,html/resources/sequences_IDs/A/03_camel.jpg,5,3,2,1,1,1,4,2,0,93,,,,,,,,,,,,,,,,,,,,
,,,,,93,2020-07-04_20h10.41.959,retriever_ti,2020.1.3,Win32,60,Chrome,2560,1440,,,,,,,,,,,,,,,,,1,,,,,,,,,,,,,,,,,,,,,,,,,,,698.80776,62,left,0.744455,satellite_dish,5,10,1,1,1,698.82116,698.82116,701.31655,0,61,61,61,1,62,5,4,satellite_dish,dolphin     ,html/resources/sequences_IDs/A/10_satellite_dish.jpg,html/resources/sequences_IDs/B/02_dolphin.jpg,10,2,4,2,1,1,8,1,0,93,,,,,,,,,,,,,,,,,,,,
,,,,,93,2020-07-04_20h10.41.959,retriever_ti,2020.1.3,Win32,60,Chrome,2560,1440,,,,,,,,,,,,,,,,,1,,,,,,,,,,,,,,,,,,,,,,,,,,,702.411195,63,left,1.52402,holdfast    ,8,4,1,1,0,702.424855,702.424855,704.920345,0,62,62,62,1,63,8,7,holdfast    ,peacock       ,html/resources/sequences_IDs/B/04_holdfast.jpg,html/resources/sequences_IDs/A/05_peacock.jpg,4,5,2,1,2,1,3,4,1,93,,,,,,,,,,,,,,,,,,,,
,,,,,93,2020-07-04_20h10.41.959,retriever_ti,2020.1.3,Win32,60,Chrome,2560,1440,,,,,,,,,,,,,,,,,1,,,,,,,,,,,,,,,,,,,,,,,,,,,706.015215,64,right,2.216595,gloves      ,6,6,5,1,3,706.04192,706.04192,708.537245,0,63,63,63,1,64,1,6,hat           ,gloves      ,html/resources/sequences_IDs/A/08_hat.jpg,html/resources/sequences_IDs/B/06_gloves.jpg,8,6,3,2,3,2,7,5,0,93,,,,,,,,,,,,,,,,,,,,
,,,,,93,2020-07-04_20h10.41.959,retriever_ti,2020.1.3,Win32,60,Chrome,2560,1440,,,,,,,,,,,,,,,,,1,,,,,,,,,,,,,,,,,,,,,,,,,,,709.13831,65,left,0.93029,peacock       ,7,5,5,1,3,709.151695,709.151695,711.64709,0,64,64,64,1,65,7,2,peacock       ,sport_tshirt,html/resources/sequences_IDs/A/05_peacock.jpg,html/resources/sequences_IDs/B/07_sport_tshirt.jpg,5,7,2,1,3,2,4,6,0,93,,,,,,,,,,,,,,,,,,,,
,,,,,93,2020-07-04_20h10.41.959,retriever_ti,2020.1.3,Win32,60,Chrome,2560,1440,,,,,,,,,,,,,,,,,1,,,,,,,,,,,,,,,,,,,,,,,,,,,712.247945,66,right,0.39817,gloves      ,6,6,-1,0,0,712.27494,712.27494,714.77025,0,65,65,65,1,66,7,6,peacock       ,gloves      ,html/resources/sequences_IDs/A/05_peacock.jpg,html/resources/sequences_IDs/B/06_gloves.jpg,5,6,2,1,3,2,4,5,0,93,,,,,,,,,,,,,,,,,,,,
,,,,,93,2020-07-04_20h10.41.959,retriever_ti,2020.1.3,Win32,60,Chrome,2560,1440,,,,,,,,,,,,,,,,,1,,,,,,,,,,,,,,,,,,,,,,,,,,,715.865125,67,left,0.85976,satellite_dish,5,10,4,1,3,715.8785,715.8785,718.373935,0,66,66,66,1,67,5,1,satellite_dish,hat           ,html/resources/sequences_IDs/A/10_satellite_dish.jpg,html/resources/sequences_IDs/A/08_hat.jpg,10,8,4,2,3,2,8,7,0,93,,,,,,,,,,,,,,,,,,,,
,,,,,93,2020-07-04_20h10.41.959,retriever_ti,2020.1.3,Win32,60,Chrome,2560,1440,,,,,,,,,,,,,,,,,1,,,,,,,,,,,,,,,,,,,,,,,,,,,718.97498,68,left,0.93212,dolphin     ,4,2,-1,0,0,718.988365,718.988365,721.483725,0,67,67,67,1,68,4,5,dolphin     ,satellite_dish,html/resources/sequences_IDs/B/02_dolphin.jpg,html/resources/sequences_IDs/A/10_satellite_dish.jpg,2,10,1,1,4,2,1,8,0,93,,,,,,,,,,,,,,,,,,,,
,,,,,93,2020-07-04_20h10.41.959,retriever_ti,2020.1.3,Win32,60,Chrome,2560,1440,,,,,,,,,,,,,,,,,1,,,,,,,,,,,,,,,,,,,,,,,,,,,722.57838,69,right,1.06264,camel         ,3,3,-2,0,3,722.605325,722.605325,725.10072,0,68,68,68,1,69,5,3,satellite_dish,camel         ,html/resources/sequences_IDs/A/10_satellite_dish.jpg,html/resources/sequences_IDs/A/03_camel.jpg,10,3,4,2,1,1,8,2,0,93,,,,,,,,,,,,,,,,,,,,
,,,,,93,2020-07-04_20h10.41.959,retriever_ti,2020.1.3,Win32,60,Chrome,2560,1440,,,,,,,,,,,,,,,,,1,,,,,,,,,,,,,,,,,,,,,,,,,,,725.701845,70,left,0.9151,satellite_dish,5,10,-1,0,0,725.728545,725.728545,728.223895,0,69,69,69,1,70,5,6,satellite_dish,gloves      ,html/resources/sequences_IDs/A/10_satellite_dish.jpg,html/resources/sequences_IDs/B/06_gloves.jpg,10,6,4,2,3,2,8,5,0,93,,,,,,,,,,,,,,,,,,,,
,,,,,93,2020-07-04_20h10.41.959,retriever_ti,2020.1.3,Win32,60,Chrome,2560,1440,,,,,,,,,,,,,,,,,1,,,,,,,,,,,,,,,,,,,,,,,,,,,729.31885,71,right,0.671255,gloves      ,6,6,4,1,3,729.34551,729.34551,731.840935,0,70,70,70,1,71,2,6,sport_tshirt,gloves      ,html/resources/sequences_IDs/B/07_sport_tshirt.jpg,html/resources/sequences_IDs/B/06_gloves.jpg,7,6,3,2,3,2,6,5,0,93,,,,,,,,,,,,,,,,,,,,
,,,,,93,2020-07-04_20h10.41.959,retriever_ti,2020.1.3,Win32,60,Chrome,2560,1440,,,,,,,,,,,,,,,,,1,,,,,,,,,,,,,,,,,,,,,,,,,,,732.441745,72,right,0.635935,sport_tshirt,2,7,1,1,1,732.45537,732.45537,734.95073,0,71,71,71,1,72,1,2,hat           ,sport_tshirt,html/resources/sequences_IDs/A/08_hat.jpg,html/resources/sequences_IDs/B/07_sport_tshirt.jpg,8,7,3,2,3,2,7,6,0,93,,,,,,,,,,,,,,,,,,,,
,,,,,93,2020-07-04_20h10.41.959,retriever_ti,2020.1.3,Win32,60,Chrome,2560,1440,,,,,,,,,,,,,,,,,1,,,,,,,,,,,,,,,,,,,,,,,,,,,736.045605,73,right,1.446945,dolphin     ,4,2,1,1,1,736.05904,736.05904,738.5544,0,72,72,72,1,73,3,4,camel         ,dolphin     ,html/resources/sequences_IDs/A/03_camel.jpg,html/resources/sequences_IDs/B/02_dolphin.jpg,3,2,1,1,1,1,2,1,0,93,,,,,,,,,,,,,,,,,,,,
,,,,,93,2020-07-04_20h10.41.959,retriever_ti,2020.1.3,Win32,60,Chrome,2560,1440,,,,,,,,,,,,,,,,,1,,,,,,,,,,,,,,,,,,,,,,,,,,,739.649265,74,left,1.49558,sport_tshirt,2,7,1,1,0,739.676105,739.676105,742.17143,0,73,73,73,1,74,2,1,sport_tshirt,hat           ,html/resources/sequences_IDs/B/07_sport_tshirt.jpg,html/resources/sequences_IDs/A/08_hat.jpg,7,8,3,2,3,2,6,7,1,93,,,,,,,,,,,,,,,,,,,,
,,,,,93,2020-07-04_20h10.41.959,retriever_ti,2020.1.3,Win32,60,Chrome,2560,1440,,,,,,,,,,,,,,,,,1,,,,,,,,,,,,,,,,,,,,,,,,,,,743.266285,75,left,0.883065,camel         ,3,3,-1,0,0,743.29304,743.29304,745.788455,0,74,74,74,1,75,3,4,camel         ,dolphin     ,html/resources/sequences_IDs/A/03_camel.jpg,html/resources/sequences_IDs/B/02_dolphin.jpg,3,2,1,1,1,1,2,1,0,93,,,,,,,,,,,,,,,,,,,,
,,,,,93,2020-07-04_20h10.41.959,retriever_ti,2020.1.3,Win32,60,Chrome,2560,1440,,,,,,,,,,,,,,,,,1,,,,,,,,,,,,,,,,,,,,,,,,,,,746.883365,76,right,0.51211,peacock       ,7,5,1,1,1,746.89681,746.89681,749.39211,0,75,75,75,1,76,6,7,gloves      ,peacock       ,html/resources/sequences_IDs/B/06_gloves.jpg,html/resources/sequences_IDs/A/05_peacock.jpg,6,5,3,2,2,1,5,4,0,93,,,,,,,,,,,,,,,,,,,,
,,,,,93,2020-07-04_20h10.41.959,retriever_ti,2020.1.3,Win32,60,Chrome,2560,1440,,,,,,,,,,,,,,,,,1,,,,,,,,,,,,,,,,,,,,,,,,,,,750.48673,77,right,0.990775,satellite_dish,5,10,4,1,3,750.513735,750.513735,753.00911,0,76,76,76,1,77,1,5,hat           ,satellite_dish,html/resources/sequences_IDs/A/08_hat.jpg,html/resources/sequences_IDs/A/10_satellite_dish.jpg,8,10,3,2,4,2,7,8,0,93,,,,,,,,,,,,,,,,,,,,
,,,,,93,2020-07-04_20h10.41.959,retriever_ti,2020.1.3,Win32,60,Chrome,2560,1440,,,,,,,,,,,,,,,,,,,,,,,,,,,,,,,,,,,,,0,9.64224,,,,,,,,,,,,,,,,,,,,,,,,,,,,,,,,,,,,,,,,,0,0,0,0,1,,,,,,,,,,,,,,,
,,,,,93,2020-07-04_20h10.41.959,retriever_ti,2020.1.3,Win32,60,Chrome,2560,1440,,,,,,,,,,,,,,,,,2,,,,,,,,,,,,,,,,,,,,,,,,,,,775.919175,78,left,0.98932,sport_tshirt,2,7,1,1,1,775.939825,775.939825,778.434985,0,0,0,0,1,78,2,1,sport_tshirt,hat           ,html/resources/sequences_IDs/B/07_sport_tshirt.jpg,html/resources/sequences_IDs/A/08_hat.jpg,7,8,3,2,3,2,6,7,0,93,,,,,,,,,,,,,,,,,,,,
,,,,,93,2020-07-04_20h10.41.959,retriever_ti,2020.1.3,Win32,60,Chrome,2560,1440,,,,,,,,,,,,,,,,,2,,,,,,,,,,,,,,,,,,,,,,,,,,,779.52965,79,right,0.3674,sport_tshirt,2,7,-3,0,3,779.556575,779.556575,782.052055,0,1,1,1,1,79,5,2,satellite_dish,sport_tshirt,html/resources/sequences_IDs/A/10_satellite_dish.jpg,html/resources/sequences_IDs/B/07_sport_tshirt.jpg,10,7,4,2,3,2,8,6,0,93,,,,,,,,,,,,,,,,,,,,
,,,,,93,2020-07-04_20h10.41.959,retriever_ti,2020.1.3,Win32,60,Chrome,2560,1440,,,,,,,,,,,,,,,,,2,,,,,,,,,,,,,,,,,,,,,,,,,,,782.653055,80,right,0.23559,dolphin     ,4,2,-1,0,0,782.67979,782.67979,785.175115,0,2,2,2,1,80,5,4,satellite_dish,dolphin     ,html/resources/sequences_IDs/A/10_satellite_dish.jpg,html/resources/sequences_IDs/B/02_dolphin.jpg,10,2,4,2,1,1,8,1,0,93,,,,,,,,,,,,,,,,,,,,
,,,,,93,2020-07-04_20h10.41.959,retriever_ti,2020.1.3,Win32,60,Chrome,2560,1440,,,,,,,,,,,,,,,,,2,,,,,,,,,,,,,,,,,,,,,,,,,,,786.270045,81,left,0.29759,sport_tshirt,2,7,-1,0,1,786.296755,786.296755,788.792135,0,3,3,3,1,81,2,3,sport_tshirt,camel         ,html/resources/sequences_IDs/B/07_sport_tshirt.jpg,html/resources/sequences_IDs/A/03_camel.jpg,7,3,3,2,1,1,6,2,1,93,,,,,,,,,,,,,,,,,,,,
,,,,,93,2020-07-04_20h10.41.959,retriever_ti,2020.1.3,Win32,60,Chrome,2560,1440,,,,,,,,,,,,,,,,,2,,,,,,,,,,,,,,,,,,,,,,,,,,,789.8868,82,right,0.53388,hat           ,1,8,-2,0,3,789.90044,789.90044,792.395815,0,4,4,4,1,82,3,1,camel         ,hat           ,html/resources/sequences_IDs/A/03_camel.jpg,html/resources/sequences_IDs/A/08_hat.jpg,3,8,1,1,3,2,2,7,0,93,,,,,,,,,,,,,,,,,,,,
,,,,,93,2020-07-04_20h10.41.959,retriever_ti,2020.1.3,Win32,60,Chrome,2560,1440,,,,,,,,,,,,,,,,,2,,,,,,,,,,,,,,,,,,,,,,,,,,,792.996885,83,left,0.52946,dolphin     ,4,2,-1,0,0,793.010305,793.010305,795.505615,0,5,5,5,1,83,4,5,dolphin     ,satellite_dish,html/resources/sequences_IDs/B/02_dolphin.jpg,html/resources/sequences_IDs/A/10_satellite_dish.jpg,2,10,1,1,4,2,1,8,0,93,,,,,,,,,,,,,,,,,,,,
,,,,,93,2020-07-04_20h10.41.959,retriever_ti,2020.1.3,Win32,60,Chrome,2560,1440,,,,,,,,,,,,,,,,,2,,,,,,,,,,,,,,,,,,,,,,,,,,,796.600485,84,left,0.492,dolphin     ,4,2,-3,0,3,796.6139,796.6139,799.10928,0,6,6,6,1,84,4,7,dolphin     ,peacock       ,html/resources/sequences_IDs/B/02_dolphin.jpg,html/resources/sequences_IDs/A/05_peacock.jpg,2,5,1,1,2,1,1,4,0,93,,,,,,,,,,,,,,,,,,,,
,,,,,93,2020-07-04_20h10.41.959,retriever_ti,2020.1.3,Win32,60,Chrome,2560,1440,,,,,,,,,,,,,,,,,2,,,,,,,,,,,,,,,,,,,,,,,,,,,799.710105,85,left,1.176865,holdfast    ,8,4,1,1,1,799.737165,799.737165,802.23249,0,7,7,7,1,85,8,7,holdfast    ,peacock       ,html/resources/sequences_IDs/B/04_holdfast.jpg,html/resources/sequences_IDs/A/05_peacock.jpg,4,5,2,1,2,1,3,4,0,93,,,,,,,,,,,,,,,,,,,,
,,,,,93,2020-07-04_20h10.41.959,retriever_ti,2020.1.3,Win32,60,Chrome,2560,1440,,,,,,,,,,,,,,,,,2,,,,,,,,,,,,,,,,,,,,,,,,,,,803.327365,86,right,1.335545,dolphin     ,4,2,1,1,1,803.354105,803.354105,805.84952,0,8,8,8,1,86,3,4,camel         ,dolphin     ,html/resources/sequences_IDs/A/03_camel.jpg,html/resources/sequences_IDs/B/02_dolphin.jpg,3,2,1,1,1,1,2,1,0,93,,,,,,,,,,,,,,,,,,,,
,,,,,93,2020-07-04_20h10.41.959,retriever_ti,2020.1.3,Win32,60,Chrome,2560,1440,,,,,,,,,,,,,,,,,2,,,,,,,,,,,,,,,,,,,,,,,,,,,806.94435,87,right,0.677145,satellite_dish,5,10,1,1,1,806.971125,806.971125,809.466485,0,9,9,9,1,87,4,5,dolphin     ,satellite_dish,html/resources/sequences_IDs/B/02_dolphin.jpg,html/resources/sequences_IDs/A/10_satellite_dish.jpg,2,10,1,1,4,2,1,8,0,93,,,,,,,,,,,,,,,,,,,,
,,,,,93,2020-07-04_20h10.41.959,retriever_ti,2020.1.3,Win32,60,Chrome,2560,1440,,,,,,,,,,,,,,,,,2,,,,,,,,,,,,,,,,,,,,,,,,,,,810.561345,88,left,0.45412,satellite_dish,5,10,2,1,3,810.58815,810.58815,813.083475,0,10,10,10,1,88,5,3,satellite_dish,camel         ,html/resources/sequences_IDs/A/10_satellite_dish.jpg,html/resources/sequences_IDs/A/03_camel.jpg,10,3,4,2,1,1,8,2,0,93,,,,,,,,,,,,,,,,,,,,
,,,,,93,2020-07-04_20h10.41.959,retriever_ti,2020.1.3,Win32,60,Chrome,2560,1440,,,,,,,,,,,,,,,,,2,,,,,,,,,,,,,,,,,,,,,,,,,,,813.684305,89,left,1.009015,camel         ,3,3,-4,0,3,813.711295,813.711295,816.206675,0,11,11,11,1,89,3,7,camel         ,peacock       ,html/resources/sequences_IDs/A/03_camel.jpg,html/resources/sequences_IDs/A/05_peacock.jpg,3,5,1,1,2,1,2,4,0,93,,,,,,,,,,,,,,,,,,,,
,,,,,93,2020-07-04_20h10.41.959,retriever_ti,2020.1.3,Win32,60,Chrome,2560,1440,,,,,,,,,,,,,,,,,2,,,,,,,,,,,,,,,,,,,,,,,,,,,816.808015,90,right,0.91319,sport_tshirt,2,7,1,1,0,816.83481,816.83481,819.329845,0,12,12,12,1,90,1,2,hat           ,sport_tshirt,html/resources/sequences_IDs/A/08_hat.jpg,html/resources/sequences_IDs/B/07_sport_tshirt.jpg,8,7,3,2,3,2,7,6,1,93,,,,,,,,,,,,,,,,,,,,
,,,,,93,2020-07-04_20h10.41.959,retriever_ti,2020.1.3,Win32,60,Chrome,2560,1440,,,,,,,,,,,,,,,,,2,,,,,,,,,,,,,,,,,,,,,,,,,,,820.424705,91,right,1.211675,satellite_dish,5,10,2,1,3,820.45146,820.45146,822.94691,0,13,13,13,1,91,3,5,camel         ,satellite_dish,html/resources/sequences_IDs/A/03_camel.jpg,html/resources/sequences_IDs/A/10_satellite_dish.jpg,3,10,1,1,4,2,2,8,0,93,,,,,,,,,,,,,,,,,,,,
,,,,,93,2020-07-04_20h10.41.959,retriever_ti,2020.1.3,Win32,60,Chrome,2560,1440,,,,,,,,,,,,,,,,,2,,,,,,,,,,,,,,,,,,,,,,,,,,,823.54767,92,right,0.759275,satellite_dish,5,10,3,1,3,823.574715,823.574715,826.070035,0,14,14,14,1,92,2,5,sport_tshirt,satellite_dish,html/resources/sequences_IDs/B/07_sport_tshirt.jpg,html/resources/sequences_IDs/A/10_satellite_dish.jpg,7,10,3,2,4,2,6,8,0,93,,,,,,,,,,,,,,,,,,,,
,,,,,93,2020-07-04_20h10.41.959,retriever_ti,2020.1.3,Win32,60,Chrome,2560,1440,,,,,,,,,,,,,,,,,2,,,,,,,,,,,,,,,,,,,,,,,,,,,826.671095,93,left,0.931575,holdfast    ,8,4,6,1,3,826.69784,826.69784,829.193175,0,15,15,15,1,93,8,2,holdfast    ,sport_tshirt,html/resources/sequences_IDs/B/04_holdfast.jpg,html/resources/sequences_IDs/B/07_sport_tshirt.jpg,4,7,2,1,3,2,3,6,0,93,,,,,,,,,,,,,,,,,,,,
,,,,,93,2020-07-04_20h10.41.959,retriever_ti,2020.1.3,Win32,60,Chrome,2560,1440,,,,,,,,,,,,,,,,,2,,,,,,,,,,,,,,,,,,,,,,,,,,,829.79451,94,right,0.49171,camel         ,3,3,-4,0,3,829.80767,829.80767,832.30302,0,16,16,16,1,94,7,3,peacock       ,camel         ,html/resources/sequences_IDs/A/05_peacock.jpg,html/resources/sequences_IDs/A/03_camel.jpg,5,3,2,1,1,1,4,2,0,93,,,,,,,,,,,,,,,,,,,,
,,,,,93,2020-07-04_20h10.41.959,retriever_ti,2020.1.3,Win32,60,Chrome,2560,1440,,,,,,,,,,,,,,,,,2,,,,,,,,,,,,,,,,,,,,,,,,,,,832.904115,95,left,0.7268,satellite_dish,5,10,1,1,1,832.930895,832.930895,835.42626,0,17,17,17,1,95,5,4,satellite_dish,dolphin     ,html/resources/sequences_IDs/A/10_satellite_dish.jpg,html/resources/sequences_IDs/B/02_dolphin.jpg,10,2,4,2,1,1,8,1,0,93,,,,,,,,,,,,,,,,,,,,
,,,,,93,2020-07-04_20h10.41.959,retriever_ti,2020.1.3,Win32,60,Chrome,2560,1440,,,,,,,,,,,,,,,,,2,,,,,,,,,,,,,,,,,,,,,,,,,,,836.521155,96,right,0.73398,peacock       ,7,5,1,1,0,836.54789,836.54789,839.04322,0,18,18,18,1,96,6,7,gloves      ,peacock       ,html/resources/sequences_IDs/B/06_gloves.jpg,html/resources/sequences_IDs/A/05_peacock.jpg,6,5,3,2,2,1,5,4,1,93,,,,,,,,,,,,,,,,,,,,
,,,,,93,2020-07-04_20h10.41.959,retriever_ti,2020.1.3,Win32,60,Chrome,2560,1440,,,,,,,,,,,,,,,,,2,,,,,,,,,,,,,,,,,,,,,,,,,,,840.13808,97,right,0.52511,peacock       ,7,5,5,1,3,840.16485,840.16485,842.660245,0,19,19,19,1,97,2,7,sport_tshirt,peacock       ,html/resources/sequences_IDs/B/07_sport_tshirt.jpg,html/resources/sequences_IDs/A/05_peacock.jpg,7,5,3,2,2,1,6,4,0,93,,,,,,,,,,,,,,,,,,,,
,,,,,93,2020-07-04_20h10.41.959,retriever_ti,2020.1.3,Win32,60,Chrome,2560,1440,,,,,,,,,,,,,,,,,2,,,,,,,,,,,,,,,,,,,,,,,,,,,843.26104,98,left,0.79162,camel         ,3,3,-1,0,1,843.274675,843.274675,845.770035,0,20,20,20,1,98,3,4,camel         ,dolphin     ,html/resources/sequences_IDs/A/03_camel.jpg,html/resources/sequences_IDs/B/02_dolphin.jpg,3,2,1,1,1,1,2,1,1,93,,,,,,,,,,,,,,,,,,,,
,,,,,93,2020-07-04_20h10.41.959,retriever_ti,2020.1.3,Win32,60,Chrome,2560,1440,,,,,,,,,,,,,,,,,2,,,,,,,,,,,,,,,,,,,,,,,,,,,846.86496,99,right,0.85476,camel         ,3,3,-1,0,0,846.891795,846.891795,849.387035,0,21,21,21,1,99,4,3,dolphin     ,camel         ,html/resources/sequences_IDs/B/02_dolphin.jpg,html/resources/sequences_IDs/A/03_camel.jpg,2,3,1,1,1,1,1,2,0,93,,,,,,,,,,,,,,,,,,,,
,,,,,93,2020-07-04_20h10.41.959,retriever_ti,2020.1.3,Win32,60,Chrome,2560,1440,,,,,,,,,,,,,,,,,2,,,,,,,,,,,,,,,,,,,,,,,,,,,850.481985,100,right,0.898515,sport_tshirt,2,7,-1,0,0,850.495355,850.495355,852.990775,0,22,22,22,1,100,3,2,camel         ,sport_tshirt,html/resources/sequences_IDs/A/03_camel.jpg,html/resources/sequences_IDs/B/07_sport_tshirt.jpg,3,7,1,1,3,2,2,6,0,93,,,,,,,,,,,,,,,,,,,,
,,,,,93,2020-07-04_20h10.41.959,retriever_ti,2020.1.3,Win32,60,Chrome,2560,1440,,,,,,,,,,,,,,,,,2,,,,,,,,,,,,,,,,,,,,,,,,,,,854.085605,101,left,0.801865,peacock       ,7,5,-1,0,0,854.112445,854.112445,856.607705,0,23,23,23,1,101,7,8,peacock       ,holdfast    ,html/resources/sequences_IDs/A/05_peacock.jpg,html/resources/sequences_IDs/B/04_holdfast.jpg,5,4,2,1,2,1,4,3,0,93,,,,,,,,,,,,,,,,,,,,
,,,,,93,2020-07-04_20h10.41.959,retriever_ti,2020.1.3,Win32,60,Chrome,2560,1440,,,,,,,,,,,,,,,,,2,,,,,,,,,,,,,,,,,,,,,,,,,,,857.702435,102,right,0.73681,holdfast    ,8,4,2,1,3,857.72936,857.72936,860.22472,0,24,24,24,1,102,6,8,gloves      ,holdfast    ,html/resources/sequences_IDs/B/06_gloves.jpg,html/resources/sequences_IDs/B/04_holdfast.jpg,6,4,3,2,2,1,5,3,0,93,,,,,,,,,,,,,,,,,,,,
,,,,,93,2020-07-04_20h10.41.959,retriever_ti,2020.1.3,Win32,60,Chrome,2560,1440,,,,,,,,,,,,,,,,,2,,,,,,,,,,,,,,,,,,,,,,,,,,,860.82577,103,left,0.764605,camel         ,3,3,-1,0,0,860.852525,860.852525,863.34792,0,25,25,25,1,103,3,4,camel         ,dolphin     ,html/resources/sequences_IDs/A/03_camel.jpg,html/resources/sequences_IDs/B/02_dolphin.jpg,3,2,1,1,1,1,2,1,0,93,,,,,,,,,,,,,,,,,,,,
,,,,,93,2020-07-04_20h10.41.959,retriever_ti,2020.1.3,Win32,60,Chrome,2560,1440,,,,,,,,,,,,,,,,,2,,,,,,,,,,,,,,,,,,,,,,,,,,,864.44279,104,left,0.70257,camel         ,3,3,1,1,1,864.456195,864.456195,866.951555,0,26,26,26,1,104,3,2,camel         ,sport_tshirt,html/resources/sequences_IDs/A/03_camel.jpg,html/resources/sequences_IDs/B/07_sport_tshirt.jpg,3,7,1,1,3,2,2,6,0,93,,,,,,,,,,,,,,,,,,,,
,,,,,93,2020-07-04_20h10.41.959,retriever_ti,2020.1.3,Win32,60,Chrome,2560,1440,,,,,,,,,,,,,,,,,2,,,,,,,,,,,,,,,,,,,,,,,,,,,868.046465,105,left,1.411485,holdfast    ,8,4,2,1,3,868.05985,868.05985,870.55525,0,27,27,27,1,105,8,6,holdfast    ,gloves      ,html/resources/sequences_IDs/B/04_holdfast.jpg,html/resources/sequences_IDs/B/06_gloves.jpg,4,6,2,1,3,2,3,5,0,93,,,,,,,,,,,,,,,,,,,,
,,,,,93,2020-07-04_20h10.41.959,retriever_ti,2020.1.3,Win32,60,Chrome,2560,1440,,,,,,,,,,,,,,,,,2,,,,,,,,,,,,,,,,,,,,,,,,,,,871.156045,106,right,0.830285,satellite_dish,5,10,-1,0,0,871.16977,871.16977,873.66506,0,28,28,28,1,106,6,5,gloves      ,satellite_dish,html/resources/sequences_IDs/B/06_gloves.jpg,html/resources/sequences_IDs/A/10_satellite_dish.jpg,6,10,3,2,4,2,5,8,0,93,,,,,,,,,,,,,,,,,,,,
,,,,,93,2020-07-04_20h10.41.959,retriever_ti,2020.1.3,Win32,60,Chrome,2560,1440,,,,,,,,,,,,,,,,,2,,,,,,,,,,,,,,,,,,,,,,,,,,,874.76098,107,right,0.45914,peacock       ,7,5,6,1,3,874.77354,874.77354,877.26871,0,29,29,29,1,107,1,7,hat           ,peacock       ,html/resources/sequences_IDs/A/08_hat.jpg,html/resources/sequences_IDs/A/05_peacock.jpg,8,5,3,2,2,1,7,4,0,93,,,,,,,,,,,,,,,,,,,,
,,,,,93,2020-07-04_20h10.41.959,retriever_ti,2020.1.3,Win32,60,Chrome,2560,1440,,,,,,,,,,,,,,,,,2,,,,,,,,,,,,,,,,,,,,,,,,,,,877.869605,108,left,0.899235,holdfast    ,8,4,7,1,3,877.88318,877.88318,880.37859,0,30,30,30,1,108,8,1,holdfast    ,hat           ,html/resources/sequences_IDs/B/04_holdfast.jpg,html/resources/sequences_IDs/A/08_hat.jpg,4,8,2,1,3,2,3,7,0,93,,,,,,,,,,,,,,,,,,,,
,,,,,93,2020-07-04_20h10.41.959,retriever_ti,2020.1.3,Win32,60,Chrome,2560,1440,,,,,,,,,,,,,,,,,2,,,,,,,,,,,,,,,,,,,,,,,,,,,880.97968,109,left,0.96006,hat           ,1,8,-1,0,0,881.0064,881.0064,883.501745,0,31,31,31,1,109,1,2,hat           ,sport_tshirt,html/resources/sequences_IDs/A/08_hat.jpg,html/resources/sequences_IDs/B/07_sport_tshirt.jpg,8,7,3,2,3,2,7,6,0,93,,,,,,,,,,,,,,,,,,,,
,,,,,93,2020-07-04_20h10.41.959,retriever_ti,2020.1.3,Win32,60,Chrome,2560,1440,,,,,,,,,,,,,,,,,2,,,,,,,,,,,,,,,,,,,,,,,,,,,884.596575,110,right,0.68551,gloves      ,6,6,-1,0,0,884.61009,884.61009,887.10552,0,32,32,32,1,110,7,6,peacock       ,gloves      ,html/resources/sequences_IDs/A/05_peacock.jpg,html/resources/sequences_IDs/B/06_gloves.jpg,5,6,2,1,3,2,4,5,0,93,,,,,,,,,,,,,,,,,,,,
,,,,,93,2020-07-04_20h10.41.959,retriever_ti,2020.1.3,Win32,60,Chrome,2560,1440,,,,,,,,,,,,,,,,,2,,,,,,,,,,,,,,,,,,,,,,,,,,,888.20032,111,right,0.732435,gloves      ,6,6,3,1,3,888.213695,888.213695,890.709065,0,33,33,33,1,111,3,6,camel         ,gloves      ,html/resources/sequences_IDs/A/03_camel.jpg,html/resources/sequences_IDs/B/06_gloves.jpg,3,6,1,1,3,2,2,5,0,93,,,,,,,,,,,,,,,,,,,,
,,,,,93,2020-07-04_20h10.41.959,retriever_ti,2020.1.3,Win32,60,Chrome,2560,1440,,,,,,,,,,,,,,,,,2,,,,,,,,,,,,,,,,,,,,,,,,,,,891.30991,112,right,1.063315,gloves      ,6,6,5,1,3,891.3369,891.3369,893.83223,0,34,34,34,1,112,1,6,hat           ,gloves      ,html/resources/sequences_IDs/A/08_hat.jpg,html/resources/sequences_IDs/B/06_gloves.jpg,8,6,3,2,3,2,7,5,0,93,,,,,,,,,,,,,,,,,,,,
,,,,,93,2020-07-04_20h10.41.959,retriever_ti,2020.1.3,Win32,60,Chrome,2560,1440,,,,,,,,,,,,,,,,,2,,,,,,,,,,,,,,,,,,,,,,,,,,,894.43332,113,right,1.08961,hat           ,1,8,-6,0,3,894.446705,894.446705,896.94208,0,35,35,35,1,113,7,1,peacock       ,hat           ,html/resources/sequences_IDs/A/05_peacock.jpg,html/resources/sequences_IDs/A/08_hat.jpg,5,8,2,1,3,2,4,7,0,93,,,,,,,,,,,,,,,,,,,,
,,,,,93,2020-07-04_20h10.41.959,retriever_ti,2020.1.3,Win32,60,Chrome,2560,1440,,,,,,,,,,,,,,,,,2,,,,,,,,,,,,,,,,,,,,,,,,,,,897.5429,114,left,0.970605,satellite_dish,5,10,1,1,0,897.55654,897.55654,900.051925,0,36,36,36,1,114,5,4,satellite_dish,dolphin     ,html/resources/sequences_IDs/A/10_satellite_dish.jpg,html/resources/sequences_IDs/B/02_dolphin.jpg,10,2,4,2,1,1,8,1,1,93,,,,,,,,,,,,,,,,,,,,
,,,,,93,2020-07-04_20h10.41.959,retriever_ti,2020.1.3,Win32,60,Chrome,2560,1440,,,,,,,,,,,,,,,,,2,,,,,,,,,,,,,,,,,,,,,,,,,,,901.14679,115,left,0.583285,dolphin     ,4,2,-4,0,3,901.16023,901.16023,903.655565,0,37,37,37,1,115,4,8,dolphin     ,holdfast    ,html/resources/sequences_IDs/B/02_dolphin.jpg,html/resources/sequences_IDs/B/04_holdfast.jpg,2,4,1,1,2,1,1,3,0,93,,,,,,,,,,,,,,,,,,,,
,,,,,93,2020-07-04_20h10.41.959,retriever_ti,2020.1.3,Win32,60,Chrome,2560,1440,,,,,,,,,,,,,,,,,2,,,,,,,,,,,,,,,,,,,,,,,,,,,904.25659,116,right,1.300625,gloves      ,6,6,4,1,3,904.283395,904.283395,906.77875,0,38,38,38,1,116,2,6,sport_tshirt,gloves      ,html/resources/sequences_IDs/B/07_sport_tshirt.jpg,html/resources/sequences_IDs/B/06_gloves.jpg,7,6,3,2,3,2,6,5,0,93,,,,,,,,,,,,,,,,,,,,
,,,,,93,2020-07-04_20h10.41.959,retriever_ti,2020.1.3,Win32,60,Chrome,2560,1440,,,,,,,,,,,,,,,,,2,,,,,,,,,,,,,,,,,,,,,,,,,,,907.37957,117,left,1.279605,peacock       ,7,5,3,1,3,907.407265,907.407265,909.90191,0,39,39,39,1,117,7,4,peacock       ,dolphin     ,html/resources/sequences_IDs/A/05_peacock.jpg,html/resources/sequences_IDs/B/02_dolphin.jpg,5,2,2,1,1,1,4,1,0,93,,,,,,,,,,,,,,,,,,,,
,,,,,93,2020-07-04_20h10.41.959,retriever_ti,2020.1.3,Win32,60,Chrome,2560,1440,,,,,,,,,,,,,,,,,2,,,,,,,,,,,,,,,,,,,,,,,,,,,910.502955,118,left,1.013715,peacock       ,7,5,2,1,3,910.529715,910.529715,913.0251,0,40,40,40,1,118,7,5,peacock       ,satellite_dish,html/resources/sequences_IDs/A/05_peacock.jpg,html/resources/sequences_IDs/A/10_satellite_dish.jpg,5,10,2,1,4,2,4,8,0,93,,,,,,,,,,,,,,,,,,,,
,,,,,93,2020-07-04_20h10.41.959,retriever_ti,2020.1.3,Win32,60,Chrome,2560,1440,,,,,,,,,,,,,,,,,2,,,,,,,,,,,,,,,,,,,,,,,,,,,913.625885,119,right,0.805765,sport_tshirt,2,7,-4,0,3,913.63952,913.63952,916.134905,0,41,41,41,1,119,6,2,gloves      ,sport_tshirt,html/resources/sequences_IDs/B/06_gloves.jpg,html/resources/sequences_IDs/B/07_sport_tshirt.jpg,6,7,3,2,3,2,5,6,0,93,,,,,,,,,,,,,,,,,,,,
,,,,,93,2020-07-04_20h10.41.959,retriever_ti,2020.1.3,Win32,60,Chrome,2560,1440,,,,,,,,,,,,,,,,,2,,,,,,,,,,,,,,,,,,,,,,,,,,,916.73591,120,right,0.78659,peacock       ,7,5,2,1,3,916.76269,916.76269,919.258105,0,42,42,42,1,120,5,7,satellite_dish,peacock       ,html/resources/sequences_IDs/A/10_satellite_dish.jpg,html/resources/sequences_IDs/A/05_peacock.jpg,10,5,4,2,2,1,8,4,0,93,,,,,,,,,,,,,,,,,,,,
,,,,,93,2020-07-04_20h10.41.959,retriever_ti,2020.1.3,Win32,60,Chrome,2560,1440,,,,,,,,,,,,,,,,,2,,,,,,,,,,,,,,,,,,,,,,,,,,,919.858925,121,right,1.086005,peacock       ,7,5,1,1,1,919.872685,919.872685,922.36793,0,43,43,43,1,121,6,7,gloves      ,peacock       ,html/resources/sequences_IDs/B/06_gloves.jpg,html/resources/sequences_IDs/A/05_peacock.jpg,6,5,3,2,2,1,5,4,0,93,,,,,,,,,,,,,,,,,,,,
,,,,,93,2020-07-04_20h10.41.959,retriever_ti,2020.1.3,Win32,60,Chrome,2560,1440,,,,,,,,,,,,,,,,,2,,,,,,,,,,,,,,,,,,,,,,,,,,,923.46277,122,left,0.84281,satellite_dish,5,10,-1,0,0,923.47618,923.47618,925.971545,0,44,44,44,1,122,5,6,satellite_dish,gloves      ,html/resources/sequences_IDs/A/10_satellite_dish.jpg,html/resources/sequences_IDs/B/06_gloves.jpg,10,6,4,2,3,2,8,5,0,93,,,,,,,,,,,,,,,,,,,,
,,,,,93,2020-07-04_20h10.41.959,retriever_ti,2020.1.3,Win32,60,Chrome,2560,1440,,,,,,,,,,,,,,,,,2,,,,,,,,,,,,,,,,,,,,,,,,,,,927.066435,123,right,0.84077,hat           ,1,8,-1,0,0,927.093225,927.093225,929.58857,0,45,45,45,1,123,2,1,sport_tshirt,hat           ,html/resources/sequences_IDs/B/07_sport_tshirt.jpg,html/resources/sequences_IDs/A/08_hat.jpg,7,8,3,2,3,2,6,7,0,93,,,,,,,,,,,,,,,,,,,,
,,,,,93,2020-07-04_20h10.41.959,retriever_ti,2020.1.3,Win32,60,Chrome,2560,1440,,,,,,,,,,,,,,,,,2,,,,,,,,,,,,,,,,,,,,,,,,,,,930.683465,124,right,0.391445,hat           ,1,8,-3,0,3,930.71023,930.71023,933.205575,0,46,46,46,1,124,4,1,dolphin     ,hat           ,html/resources/sequences_IDs/B/02_dolphin.jpg,html/resources/sequences_IDs/A/08_hat.jpg,2,8,1,1,3,2,1,7,0,93,,,,,,,,,,,,,,,,,,,,
,,,,,93,2020-07-04_20h10.41.959,retriever_ti,2020.1.3,Win32,60,Chrome,2560,1440,,,,,,,,,,,,,,,,,2,,,,,,,,,,,,,,,,,,,,,,,,,,,933.806395,125,right,0.59318,hat           ,1,8,-5,0,3,933.82014,933.82014,936.315405,0,47,47,47,1,125,6,1,gloves      ,hat           ,html/resources/sequences_IDs/B/06_gloves.jpg,html/resources/sequences_IDs/A/08_hat.jpg,6,8,3,2,3,2,5,7,0,93,,,,,,,,,,,,,,,,,,,,
,,,,,93,2020-07-04_20h10.41.959,retriever_ti,2020.1.3,Win32,60,Chrome,2560,1440,,,,,,,,,,,,,,,,,2,,,,,,,,,,,,,,,,,,,,,,,,,,,936.916465,126,left,0.60424,hat           ,1,8,-2,0,3,936.94326,936.94326,939.43859,0,48,48,48,1,126,1,3,hat           ,camel         ,html/resources/sequences_IDs/A/08_hat.jpg,html/resources/sequences_IDs/A/03_camel.jpg,8,3,3,2,1,1,7,2,0,93,,,,,,,,,,,,,,,,,,,,
,,,,,93,2020-07-04_20h10.41.959,retriever_ti,2020.1.3,Win32,60,Chrome,2560,1440,,,,,,,,,,,,,,,,,2,,,,,,,,,,,,,,,,,,,,,,,,,,,940.039665,127,left,0.52467,holdfast    ,8,4,4,1,3,940.06642,940.06642,942.56179,0,49,49,49,1,127,8,4,holdfast    ,dolphin     ,html/resources/sequences_IDs/B/04_holdfast.jpg,html/resources/sequences_IDs/B/02_dolphin.jpg,4,2,2,1,1,1,3,1,0,93,,,,,,,,,,,,,,,,,,,,
,,,,,93,2020-07-04_20h10.41.959,retriever_ti,2020.1.3,Win32,60,Chrome,2560,1440,,,,,,,,,,,,,,,,,2,,,,,,,,,,,,,,,,,,,,,,,,,,,943.16258,128,right,0.34517,satellite_dish,5,10,-1,0,0,943.18967,943.18967,945.684945,0,50,50,50,1,128,6,5,gloves      ,satellite_dish,html/resources/sequences_IDs/B/06_gloves.jpg,html/resources/sequences_IDs/A/10_satellite_dish.jpg,6,10,3,2,4,2,5,8,0,93,,,,,,,,,,,,,,,,,,,,
,,,,,93,2020-07-04_20h10.41.959,retriever_ti,2020.1.3,Win32,60,Chrome,2560,1440,,,,,,,,,,,,,,,,,2,,,,,,,,,,,,,,,,,,,,,,,,,,,946.779845,129,right,0.372195,gloves      ,6,6,1,1,1,946.793235,946.793235,949.288685,0,51,51,51,1,129,5,6,satellite_dish,gloves      ,html/resources/sequences_IDs/A/10_satellite_dish.jpg,html/resources/sequences_IDs/B/06_gloves.jpg,10,6,4,2,3,2,8,5,0,93,,,,,,,,,,,,,,,,,,,,
,,,,,93,2020-07-04_20h10.41.959,retriever_ti,2020.1.3,Win32,60,Chrome,2560,1440,,,,,,,,,,,,,,,,,2,,,,,,,,,,,,,,,,,,,,,,,,,,,950.383525,130,left,0.696895,hat           ,1,8,-7,0,3,950.41024,950.41024,952.905605,0,52,52,52,1,130,1,8,hat           ,holdfast    ,html/resources/sequences_IDs/A/08_hat.jpg,html/resources/sequences_IDs/B/04_holdfast.jpg,8,4,3,2,2,1,7,3,0,93,,,,,,,,,,,,,,,,,,,,
,,,,,93,2020-07-04_20h10.41.959,retriever_ti,2020.1.3,Win32,60,Chrome,2560,1440,,,,,,,,,,,,,,,,,2,,,,,,,,,,,,,,,,,,,,,,,,,,,953.506415,131,right,0.55935,camel         ,3,3,1,1,1,953.52003,953.52003,956.015445,0,53,53,53,1,131,2,3,sport_tshirt,camel         ,html/resources/sequences_IDs/B/07_sport_tshirt.jpg,html/resources/sequences_IDs/A/03_camel.jpg,7,3,3,2,1,1,6,2,0,93,,,,,,,,,,,,,,,,,,,,
,,,,,93,2020-07-04_20h10.41.959,retriever_ti,2020.1.3,Win32,60,Chrome,2560,1440,,,,,,,,,,,,,,,,,2,,,,,,,,,,,,,,,,,,,,,,,,,,,957.110365,132,left,1.392995,hat           ,1,8,-1,0,0,957.137065,957.137065,959.632435,0,54,54,54,1,132,1,2,hat           ,sport_tshirt,html/resources/sequences_IDs/A/08_hat.jpg,html/resources/sequences_IDs/B/07_sport_tshirt.jpg,8,7,3,2,3,2,7,6,0,93,,,,,,,,,,,,,,,,,,,,
,,,,,93,2020-07-04_20h10.41.959,retriever_ti,2020.1.3,Win32,60,Chrome,2560,1440,,,,,,,,,,,,,,,,,2,,,,,,,,,,,,,,,,,,,,,,,,,,,960.72732,133,left,0.78152,satellite_dish,5,10,-3,0,3,960.740755,960.740755,963.23614,0,55,55,55,1,133,5,8,satellite_dish,holdfast    ,html/resources/sequences_IDs/A/10_satellite_dish.jpg,html/resources/sequences_IDs/B/04_holdfast.jpg,10,4,4,2,2,1,8,3,0,93,,,,,,,,,,,,,,,,,,,,
,,,,,93,2020-07-04_20h10.41.959,retriever_ti,2020.1.3,Win32,60,Chrome,2560,1440,,,,,,,,,,,,,,,,,2,,,,,,,,,,,,,,,,,,,,,,,,,,,963.836905,134,right,0.599025,satellite_dish,5,10,4,1,3,963.850585,963.850585,966.34595,0,56,56,56,1,134,1,5,hat           ,satellite_dish,html/resources/sequences_IDs/A/08_hat.jpg,html/resources/sequences_IDs/A/10_satellite_dish.jpg,8,10,3,2,4,2,7,8,0,93,,,,,,,,,,,,,,,,,,,,
,,,,,93,2020-07-04_20h10.41.959,retriever_ti,2020.1.3,Win32,60,Chrome,2560,1440,,,,,,,,,,,,,,,,,2,,,,,,,,,,,,,,,,,,,,,,,,,,,966.947005,135,left,0.594845,satellite_dish,5,10,4,1,3,966.973755,966.973755,969.469135,0,57,57,57,1,135,5,1,satellite_dish,hat           ,html/resources/sequences_IDs/A/10_satellite_dish.jpg,html/resources/sequences_IDs/A/08_hat.jpg,10,8,4,2,3,2,8,7,0,93,,,,,,,,,,,,,,,,,,,,
,,,,,93,2020-07-04_20h10.41.959,retriever_ti,2020.1.3,Win32,60,Chrome,2560,1440,,,,,,,,,,,,,,,,,2,,,,,,,,,,,,,,,,,,,,,,,,,,,970.07019,136,right,0.57395,peacock       ,7,5,1,1,1,970.08355,970.08355,972.578925,0,58,58,58,1,136,6,7,gloves      ,peacock       ,html/resources/sequences_IDs/B/06_gloves.jpg,html/resources/sequences_IDs/A/05_peacock.jpg,6,5,3,2,2,1,5,4,0,93,,,,,,,,,,,,,,,,,,,,
,,,,,93,2020-07-04_20h10.41.959,retriever_ti,2020.1.3,Win32,60,Chrome,2560,1440,,,,,,,,,,,,,,,,,2,,,,,,,,,,,,,,,,,,,,,,,,,,,973.673575,137,left,0.63464,peacock       ,7,5,-1,0,0,973.6872,973.6872,976.182595,0,59,59,59,1,137,7,8,peacock       ,holdfast    ,html/resources/sequences_IDs/A/05_peacock.jpg,html/resources/sequences_IDs/B/04_holdfast.jpg,5,4,2,1,2,1,4,3,0,93,,,,,,,,,,,,,,,,,,,,
,,,,,93,2020-07-04_20h10.41.959,retriever_ti,2020.1.3,Win32,60,Chrome,2560,1440,,,,,,,,,,,,,,,,,2,,,,,,,,,,,,,,,,,,,,,,,,,,,977.27754,138,right,0.92568,gloves      ,6,6,2,1,3,977.304255,977.304255,979.799625,0,60,60,60,1,138,4,6,dolphin     ,gloves      ,html/resources/sequences_IDs/B/02_dolphin.jpg,html/resources/sequences_IDs/B/06_gloves.jpg,2,6,1,1,3,2,1,5,0,93,,,,,,,,,,,,,,,,,,,,
,,,,,93,2020-07-04_20h10.41.959,retriever_ti,2020.1.3,Win32,60,Chrome,2560,1440,,,,,,,,,,,,,,,,,2,,,,,,,,,,,,,,,,,,,,,,,,,,,980.40067,139,left,1.13763,satellite_dish,5,10,-1,0,1,980.41405,980.41405,982.909435,0,61,61,61,1,139,5,6,satellite_dish,gloves      ,html/resources/sequences_IDs/A/10_satellite_dish.jpg,html/resources/sequences_IDs/B/06_gloves.jpg,10,6,4,2,3,2,8,5,1,93,,,,,,,,,,,,,,,,,,,,
,,,,,93,2020-07-04_20h10.41.959,retriever_ti,2020.1.3,Win32,60,Chrome,2560,1440,,,,,,,,,,,,,,,,,2,,,,,,,,,,,,,,,,,,,,,,,,,,,984.004105,140,NaN,NaN,No_response,NaN,NaN,NaN,2,2,984.031105,984.031105,986.52651,0,62,62,62,1,140,4,3,dolphin     ,camel         ,html/resources/sequences_IDs/B/02_dolphin.jpg,html/resources/sequences_IDs/A/03_camel.jpg,2,3,1,1,1,1,1,2,0,93,,,,,,,,,,,,,,,,,,,,
,,,,,93,2020-07-04_20h10.41.959,retriever_ti,2020.1.3,Win32,60,Chrome,2560,1440,,,,,,,,,,,,,,,,,2,,,,,,,,,,,,,,,,,,,,,,,,,,,987.621325,141,left,0.589275,camel         ,3,3,-5,0,3,987.634735,987.634735,990.13011,0,63,63,63,1,141,3,8,camel         ,holdfast    ,html/resources/sequences_IDs/A/03_camel.jpg,html/resources/sequences_IDs/B/04_holdfast.jpg,3,4,1,1,2,1,2,3,0,93,,,,,,,,,,,,,,,,,,,,
,,,,,93,2020-07-04_20h10.41.959,retriever_ti,2020.1.3,Win32,60,Chrome,2560,1440,,,,,,,,,,,,,,,,,2,,,,,,,,,,,,,,,,,,,,,,,,,,,990.73116,142,right,0.280955,camel         ,3,3,-3,0,3,990.744555,990.744555,993.23998,0,64,64,64,1,142,6,3,gloves      ,camel         ,html/resources/sequences_IDs/B/06_gloves.jpg,html/resources/sequences_IDs/A/03_camel.jpg,6,3,3,2,1,1,5,2,0,93,,,,,,,,,,,,,,,,,,,,
,,,,,93,2020-07-04_20h10.41.959,retriever_ti,2020.1.3,Win32,60,Chrome,2560,1440,,,,,,,,,,,,,,,,,2,,,,,,,,,,,,,,,,,,,,,,,,,,,993.840745,143,right,0.5966,holdfast    ,8,4,6,1,3,993.85436,993.85436,996.34977,0,65,65,65,1,143,2,8,sport_tshirt,holdfast    ,html/resources/sequences_IDs/B/07_sport_tshirt.jpg,html/resources/sequences_IDs/B/04_holdfast.jpg,7,4,3,2,2,1,6,3,0,93,,,,,,,,,,,,,,,,,,,,
,,,,,93,2020-07-04_20h10.41.959,retriever_ti,2020.1.3,Win32,60,Chrome,2560,1440,,,,,,,,,,,,,,,,,2,,,,,,,,,,,,,,,,,,,,,,,,,,,996.950785,144,left,0.587095,sport_tshirt,2,7,-2,0,3,996.96419,996.96419,999.45961,0,66,66,66,1,144,2,4,sport_tshirt,dolphin     ,html/resources/sequences_IDs/B/07_sport_tshirt.jpg,html/resources/sequences_IDs/B/02_dolphin.jpg,7,2,3,2,1,1,6,1,0,93,,,,,,,,,,,,,,,,,,,,
,,,,,93,2020-07-04_20h10.41.959,retriever_ti,2020.1.3,Win32,60,Chrome,2560,1440,,,,,,,,,,,,,,,,,2,,,,,,,,,,,,,,,,,,,,,,,,,,,1000.06042,145,left,0.77491,holdfast    ,8,4,1,1,1,1000.087485,1000.087485,1002.58279,0,67,67,67,1,145,8,7,holdfast    ,peacock       ,html/resources/sequences_IDs/B/04_holdfast.jpg,html/resources/sequences_IDs/A/05_peacock.jpg,4,5,2,1,2,1,3,4,0,93,,,,,,,,,,,,,,,,,,,,
,,,,,93,2020-07-04_20h10.41.959,retriever_ti,2020.1.3,Win32,60,Chrome,2560,1440,,,,,,,,,,,,,,,,,2,,,,,,,,,,,,,,,,,,,,,,,,,,,1003.67762,146,right,0.40401,holdfast    ,8,4,1,1,0,1003.691105,1003.691105,1006.18649,0,68,68,68,1,146,7,8,peacock       ,holdfast    ,html/resources/sequences_IDs/A/05_peacock.jpg,html/resources/sequences_IDs/B/04_holdfast.jpg,5,4,2,1,2,1,4,3,1,93,,,,,,,,,,,,,,,,,,,,
,,,,,93,2020-07-04_20h10.41.959,retriever_ti,2020.1.3,Win32,60,Chrome,2560,1440,,,,,,,,,,,,,,,,,2,,,,,,,,,,,,,,,,,,,,,,,,,,,1007.281385,147,left,0.71089,holdfast    ,8,4,3,1,3,1007.30812,1007.30812,1009.803455,0,69,69,69,1,147,8,5,holdfast    ,satellite_dish,html/resources/sequences_IDs/B/04_holdfast.jpg,html/resources/sequences_IDs/A/10_satellite_dish.jpg,4,10,2,1,4,2,3,8,0,93,,,,,,,,,,,,,,,,,,,,
,,,,,93,2020-07-04_20h10.41.959,retriever_ti,2020.1.3,Win32,60,Chrome,2560,1440,,,,,,,,,,,,,,,,,2,,,,,,,,,,,,,,,,,,,,,,,,,,,1010.404485,148,left,1.28368,peacock       ,7,5,5,1,3,1010.43127,1010.43127,1012.926625,0,70,70,70,1,148,7,2,peacock       ,sport_tshirt,html/resources/sequences_IDs/A/05_peacock.jpg,html/resources/sequences_IDs/B/07_sport_tshirt.jpg,5,7,2,1,3,2,4,6,0,93,,,,,,,,,,,,,,,,,,,,
,,,,,93,2020-07-04_20h10.41.959,retriever_ti,2020.1.3,Win32,60,Chrome,2560,1440,,,,,,,,,,,,,,,,,2,,,,,,,,,,,,,,,,,,,,,,,,,,,1013.5274,149,left,1.006945,peacock       ,7,5,1,1,1,1013.554445,1013.554445,1016.049805,0,71,71,71,1,149,7,6,peacock       ,gloves      ,html/resources/sequences_IDs/A/05_peacock.jpg,html/resources/sequences_IDs/B/06_gloves.jpg,5,6,2,1,3,2,4,5,0,93,,,,,,,,,,,,,,,,,,,,
,,,,,93,2020-07-04_20h10.41.959,retriever_ti,2020.1.3,Win32,60,Chrome,2560,1440,,,,,,,,,,,,,,,,,2,,,,,,,,,,,,,,,,,,,,,,,,,,,1017.1447,150,right,0.71693,camel         ,3,3,1,1,1,1017.171505,1017.171505,1019.6668,0,72,72,72,1,150,2,3,sport_tshirt,camel         ,html/resources/sequences_IDs/B/07_sport_tshirt.jpg,html/resources/sequences_IDs/A/03_camel.jpg,7,3,3,2,1,1,6,2,0,93,,,,,,,,,,,,,,,,,,,,
,,,,,93,2020-07-04_20h10.41.959,retriever_ti,2020.1.3,Win32,60,Chrome,2560,1440,,,,,,,,,,,,,,,,,2,,,,,,,,,,,,,,,,,,,,,,,,,,,1020.76171,151,right,0.71955,camel         ,3,3,-5,0,3,1020.78841,1020.78841,1023.283875,0,73,73,73,1,151,8,3,holdfast    ,camel         ,html/resources/sequences_IDs/B/04_holdfast.jpg,html/resources/sequences_IDs/A/03_camel.jpg,4,3,2,1,1,1,3,2,0,93,,,,,,,,,,,,,,,,,,,,
,,,,,93,2020-07-04_20h10.41.959,retriever_ti,2020.1.3,Win32,60,Chrome,2560,1440,,,,,,,,,,,,,,,,,2,,,,,,,,,,,,,,,,,,,,,,,,,,,1023.884645,152,right,0.71469,dolphin     ,4,2,3,1,3,1023.91163,1023.91163,1026.406955,0,74,74,74,1,152,1,4,hat           ,dolphin     ,html/resources/sequences_IDs/A/08_hat.jpg,html/resources/sequences_IDs/B/02_dolphin.jpg,8,2,3,2,1,1,7,1,0,93,,,,,,,,,,,,,,,,,,,,
,,,,,93,2020-07-04_20h10.41.959,retriever_ti,2020.1.3,Win32,60,Chrome,2560,1440,,,,,,,,,,,,,,,,,2,,,,,,,,,,,,,,,,,,,,,,,,,,,1027.008055,153,right,0.821355,dolphin     ,4,2,-2,0,3,1027.034825,1027.034825,1029.530135,0,75,75,75,1,153,6,4,gloves      ,dolphin     ,html/resources/sequences_IDs/B/06_gloves.jpg,html/resources/sequences_IDs/B/02_dolphin.jpg,6,2,3,2,1,1,5,1,0,93,,,,,,,,,,,,,,,,,,,,
,,,,,93,2020-07-04_20h10.41.959,retriever_ti,2020.1.3,Win32,60,Chrome,2560,1440,,,,,,,,,,,,,,,,,2,,,,,,,,,,,,,,,,,,,,,,,,,,,1030.130965,154,left,0.675,dolphin     ,4,2,2,1,3,1030.157955,1030.157955,1032.653315,0,76,76,76,1,154,4,2,dolphin     ,sport_tshirt,html/resources/sequences_IDs/B/02_dolphin.jpg,html/resources/sequences_IDs/B/07_sport_tshirt.jpg,2,7,1,1,3,2,1,6,0,93,,,,,,,,,,,,,,,,,,,,
,,,,,93,2020-07-04_20h10.41.959,retriever_ti,2020.1.3,Win32,60,Chrome,2560,1440,,,,,,,,,,,,,,,,,,,,,,,,,,,,,,,,,,,,,0,2.59939,,,,,,,,,,,,,,,,,,,,,,,,,,,,,,,,,,,,,,,,,1,0,1,0,1,,,,,,,,,,,,,,,
,,,,,93,2020-07-04_20h10.41.959,retriever_ti,2020.1.3,Win32,60,Chrome,2560,1440,,,,,,,,,,,,,,,,,3,,,,,,,,,,,,,,,,,,,,,,,,,,,1047.44081,155,left,0.879905,hat           ,1,8,-5,0,3,1047.455905,1047.455905,1049.95096,0,0,0,0,1,155,1,6,hat           ,gloves      ,html/resources/sequences_IDs/A/08_hat.jpg,html/resources/sequences_IDs/B/06_gloves.jpg,8,6,3,2,3,2,7,5,0,93,,,,,,,,,,,,,,,,,,,,
,,,,,93,2020-07-04_20h10.41.959,retriever_ti,2020.1.3,Win32,60,Chrome,2560,1440,,,,,,,,,,,,,,,,,3,,,,,,,,,,,,,,,,,,,,,,,,,,,1050.55179,156,left,0.527135,peacock       ,7,5,5,1,3,1050.57882,1050.57882,1053.07408,0,1,1,1,1,156,7,2,peacock       ,sport_tshirt,html/resources/sequences_IDs/A/05_peacock.jpg,html/resources/sequences_IDs/B/07_sport_tshirt.jpg,5,7,2,1,3,2,4,6,0,93,,,,,,,,,,,,,,,,,,,,
,,,,,93,2020-07-04_20h10.41.959,retriever_ti,2020.1.3,Win32,60,Chrome,2560,1440,,,,,,,,,,,,,,,,,3,,,,,,,,,,,,,,,,,,,,,,,,,,,1053.675165,157,left,0.364075,peacock       ,7,5,1,1,1,1053.701935,1053.701935,1056.19727,0,2,2,2,1,157,7,6,peacock       ,gloves      ,html/resources/sequences_IDs/A/05_peacock.jpg,html/resources/sequences_IDs/B/06_gloves.jpg,5,6,2,1,3,2,4,5,0,93,,,,,,,,,,,,,,,,,,,,
,,,,,93,2020-07-04_20h10.41.959,retriever_ti,2020.1.3,Win32,60,Chrome,2560,1440,,,,,,,,,,,,,,,,,3,,,,,,,,,,,,,,,,,,,,,,,,,,,1057.293795,158,right,0.55617,camel         ,3,3,-1,0,0,1057.31891,1057.31891,1059.81427,0,3,3,3,1,158,4,3,dolphin     ,camel         ,html/resources/sequences_IDs/B/02_dolphin.jpg,html/resources/sequences_IDs/A/03_camel.jpg,2,3,1,1,1,1,1,2,0,93,,,,,,,,,,,,,,,,,,,,
,,,,,93,2020-07-04_20h10.41.959,retriever_ti,2020.1.3,Win32,60,Chrome,2560,1440,,,,,,,,,,,,,,,,,3,,,,,,,,,,,,,,,,,,,,,,,,,,,1060.908915,159,left,0.75936,holdfast    ,8,4,4,1,3,1060.922575,1060.922575,1063.41795,0,4,4,4,1,159,8,4,holdfast    ,dolphin     ,html/resources/sequences_IDs/B/04_holdfast.jpg,html/resources/sequences_IDs/B/02_dolphin.jpg,4,2,2,1,1,1,3,1,0,93,,,,,,,,,,,,,,,,,,,,
,,,,,93,2020-07-04_20h10.41.959,retriever_ti,2020.1.3,Win32,60,Chrome,2560,1440,,,,,,,,,,,,,,,,,3,,,,,,,,,,,,,,,,,,,,,,,,,,,1064.018985,160,right,0.338635,sport_tshirt,2,7,-3,0,3,1064.045845,1064.045845,1066.54111,0,5,5,5,1,160,5,2,satellite_dish,sport_tshirt,html/resources/sequences_IDs/A/10_satellite_dish.jpg,html/resources/sequences_IDs/B/07_sport_tshirt.jpg,10,7,4,2,3,2,8,6,0,93,,,,,,,,,,,,,,,,,,,,
,,,,,93,2020-07-04_20h10.41.959,retriever_ti,2020.1.3,Win32,60,Chrome,2560,1440,,,,,,,,,,,,,,,,,3,,,,,,,,,,,,,,,,,,,,,,,,,,,1067.14216,161,right,0.28881,gloves      ,6,6,1,1,1,1067.16895,1067.16895,1069.664295,0,6,6,6,1,161,5,6,satellite_dish,gloves      ,html/resources/sequences_IDs/A/10_satellite_dish.jpg,html/resources/sequences_IDs/B/06_gloves.jpg,10,6,4,2,3,2,8,5,0,93,,,,,,,,,,,,,,,,,,,,
,,,,,93,2020-07-04_20h10.41.959,retriever_ti,2020.1.3,Win32,60,Chrome,2560,1440,,,,,,,,,,,,,,,,,3,,,,,,,,,,,,,,,,,,,,,,,,,,,1070.75892,162,left,0.3489,hat           ,1,8,-7,0,3,1070.772595,1070.772595,1073.26795,0,7,7,7,1,162,1,8,hat           ,holdfast    ,html/resources/sequences_IDs/A/08_hat.jpg,html/resources/sequences_IDs/B/04_holdfast.jpg,8,4,3,2,2,1,7,3,0,93,,,,,,,,,,,,,,,,,,,,
,,,,,93,2020-07-04_20h10.41.959,retriever_ti,2020.1.3,Win32,60,Chrome,2560,1440,,,,,,,,,,,,,,,,,3,,,,,,,,,,,,,,,,,,,,,,,,,,,1073.869045,163,right,0.454745,hat           ,1,8,-3,0,3,1073.882505,1073.882505,1076.37776,0,8,8,8,1,163,4,1,dolphin     ,hat           ,html/resources/sequences_IDs/B/02_dolphin.jpg,html/resources/sequences_IDs/A/08_hat.jpg,2,8,1,1,3,2,1,7,0,93,,,,,,,,,,,,,,,,,,,,
,,,,,93,2020-07-04_20h10.41.959,retriever_ti,2020.1.3,Win32,60,Chrome,2560,1440,,,,,,,,,,,,,,,,,3,,,,,,,,,,,,,,,,,,,,,,,,,,,1076.97861,164,left,0.65917,holdfast    ,8,4,5,1,3,1077.00559,1077.00559,1079.500935,0,9,9,9,1,164,8,3,holdfast    ,camel         ,html/resources/sequences_IDs/B/04_holdfast.jpg,html/resources/sequences_IDs/A/03_camel.jpg,4,3,2,1,1,1,3,2,0,93,,,,,,,,,,,,,,,,,,,,
,,,,,93,2020-07-04_20h10.41.959,retriever_ti,2020.1.3,Win32,60,Chrome,2560,1440,,,,,,,,,,,,,,,,,3,,,,,,,,,,,,,,,,,,,,,,,,,,,1080.102045,165,right,0.302045,peacock       ,7,5,1,1,1,1080.11539,1080.11539,1082.6108,0,10,10,10,1,165,6,7,gloves      ,peacock       ,html/resources/sequences_IDs/B/06_gloves.jpg,html/resources/sequences_IDs/A/05_peacock.jpg,6,5,3,2,2,1,5,4,0,93,,,,,,,,,,,,,,,,,,,,
,,,,,93,2020-07-04_20h10.41.959,retriever_ti,2020.1.3,Win32,60,Chrome,2560,1440,,,,,,,,,,,,,,,,,3,,,,,,,,,,,,,,,,,,,,,,,,,,,1083.70563,166,right,0.361435,holdfast    ,8,4,2,1,3,1083.71911,1083.71911,1086.214425,0,11,11,11,1,166,6,8,gloves      ,holdfast    ,html/resources/sequences_IDs/B/06_gloves.jpg,html/resources/sequences_IDs/B/04_holdfast.jpg,6,4,3,2,2,1,5,3,0,93,,,,,,,,,,,,,,,,,,,,
,,,,,93,2020-07-04_20h10.41.959,retriever_ti,2020.1.3,Win32,60,Chrome,2560,1440,,,,,,,,,,,,,,,,,3,,,,,,,,,,,,,,,,,,,,,,,,,,,1086.81522,167,left,0.805285,hat           ,1,8,-4,0,3,1086.842335,1086.842335,1089.33761,0,12,12,12,1,167,1,5,hat           ,satellite_dish,html/resources/sequences_IDs/A/08_hat.jpg,html/resources/sequences_IDs/A/10_satellite_dish.jpg,8,10,3,2,4,2,7,8,0,93,,,,,,,,,,,,,,,,,,,,
,,,,,93,2020-07-04_20h10.41.959,retriever_ti,2020.1.3,Win32,60,Chrome,2560,1440,,,,,,,,,,,,,,,,,3,,,,,,,,,,,,,,,,,,,,,,,,,,,1089.938685,168,left,0.78663,satellite_dish,5,10,-1,0,1,1089.965405,1089.965405,1092.460785,0,13,13,13,1,168,5,6,satellite_dish,gloves      ,html/resources/sequences_IDs/A/10_satellite_dish.jpg,html/resources/sequences_IDs/B/06_gloves.jpg,10,6,4,2,3,2,8,5,1,93,,,,,,,,,,,,,,,,,,,,
,,,,,93,2020-07-04_20h10.41.959,retriever_ti,2020.1.3,Win32,60,Chrome,2560,1440,,,,,,,,,,,,,,,,,3,,,,,,,,,,,,,,,,,,,,,,,,,,,1093.555695,169,right,0.945875,sport_tshirt,2,7,-4,0,3,1093.582415,1093.582415,1096.07779,0,14,14,14,1,169,6,2,gloves      ,sport_tshirt,html/resources/sequences_IDs/B/06_gloves.jpg,html/resources/sequences_IDs/B/07_sport_tshirt.jpg,6,7,3,2,3,2,5,6,0,93,,,,,,,,,,,,,,,,,,,,
,,,,,93,2020-07-04_20h10.41.959,retriever_ti,2020.1.3,Win32,60,Chrome,2560,1440,,,,,,,,,,,,,,,,,3,,,,,,,,,,,,,,,,,,,,,,,,,,,1096.67859,170,left,0.541095,dolphin     ,4,2,2,1,3,1096.69229,1096.69229,1099.187605,0,15,15,15,1,170,4,2,dolphin     ,sport_tshirt,html/resources/sequences_IDs/B/02_dolphin.jpg,html/resources/sequences_IDs/B/07_sport_tshirt.jpg,2,7,1,1,3,2,1,6,0,93,,,,,,,,,,,,,,,,,,,,
,,,,,93,2020-07-04_20h10.41.959,retriever_ti,2020.1.3,Win32,60,Chrome,2560,1440,,,,,,,,,,,,,,,,,3,,,,,,,,,,,,,,,,,,,,,,,,,,,1099.788645,171,right,0.23013,holdfast    ,8,4,4,1,3,1099.80208,1099.80208,1102.297525,0,16,16,16,1,171,4,8,dolphin     ,holdfast    ,html/resources/sequences_IDs/B/02_dolphin.jpg,html/resources/sequences_IDs/B/04_holdfast.jpg,2,4,1,1,2,1,1,3,0,93,,,,,,,,,,,,,,,,,,,,
,,,,,93,2020-07-04_20h10.41.959,retriever_ti,2020.1.3,Win32,60,Chrome,2560,1440,,,,,,,,,,,,,,,,,3,,,,,,,,,,,,,,,,,,,,,,,,,,,1102.898335,172,right,0.516495,holdfast    ,8,4,5,1,3,1102.92529,1102.92529,1105.42063,0,17,17,17,1,172,3,8,camel         ,holdfast    ,html/resources/sequences_IDs/A/03_camel.jpg,html/resources/sequences_IDs/B/04_holdfast.jpg,3,4,1,1,2,1,2,3,0,93,,,,,,,,,,,,,,,,,,,,
,,,,,93,2020-07-04_20h10.41.959,retriever_ti,2020.1.3,Win32,60,Chrome,2560,1440,,,,,,,,,,,,,,,,,3,,,,,,,,,,,,,,,,,,,,,,,,,,,1106.021695,173,right,0.44632,holdfast    ,8,4,1,1,1,1106.035095,1106.035095,1108.530455,0,18,18,18,1,173,7,8,peacock       ,holdfast    ,html/resources/sequences_IDs/A/05_peacock.jpg,html/resources/sequences_IDs/B/04_holdfast.jpg,5,4,2,1,2,1,4,3,0,93,,,,,,,,,,,,,,,,,,,,
,,,,,93,2020-07-04_20h10.41.959,retriever_ti,2020.1.3,Win32,60,Chrome,2560,1440,,,,,,,,,,,,,,,,,3,,,,,,,,,,,,,,,,,,,,,,,,,,,1109.625395,174,right,0.285475,satellite_dish,5,10,3,1,3,1109.65215,1109.65215,1112.147455,0,19,19,19,1,174,2,5,sport_tshirt,satellite_dish,html/resources/sequences_IDs/B/07_sport_tshirt.jpg,html/resources/sequences_IDs/A/10_satellite_dish.jpg,7,10,3,2,4,2,6,8,0,93,,,,,,,,,,,,,,,,,,,,
,,,,,93,2020-07-04_20h10.41.959,retriever_ti,2020.1.3,Win32,60,Chrome,2560,1440,,,,,,,,,,,,,,,,,3,,,,,,,,,,,,,,,,,,,,,,,,,,,1112.74828,175,left,0.51945,satellite_dish,5,10,-1,0,0,1112.76189,1112.76189,1115.257275,0,20,20,20,1,175,5,6,satellite_dish,gloves      ,html/resources/sequences_IDs/A/10_satellite_dish.jpg,html/resources/sequences_IDs/B/06_gloves.jpg,10,6,4,2,3,2,8,5,0,93,,,,,,,,,,,,,,,,,,,,
,,,,,93,2020-07-04_20h10.41.959,retriever_ti,2020.1.3,Win32,60,Chrome,2560,1440,,,,,,,,,,,,,,,,,3,,,,,,,,,,,,,,,,,,,,,,,,,,,1116.352205,176,right,0.596355,satellite_dish,5,10,1,1,1,1116.365585,1116.365585,1118.860995,0,21,21,21,1,176,4,5,dolphin     ,satellite_dish,html/resources/sequences_IDs/B/02_dolphin.jpg,html/resources/sequences_IDs/A/10_satellite_dish.jpg,2,10,1,1,4,2,1,8,0,93,,,,,,,,,,,,,,,,,,,,
,,,,,93,2020-07-04_20h10.41.959,retriever_ti,2020.1.3,Win32,60,Chrome,2560,1440,,,,,,,,,,,,,,,,,3,,,,,,,,,,,,,,,,,,,,,,,,,,,1119.955885,177,right,1.904425,camel         ,3,3,-3,0,3,1119.98285,1119.98285,1122.47796,0,22,22,22,1,177,6,3,gloves      ,camel         ,html/resources/sequences_IDs/B/06_gloves.jpg,html/resources/sequences_IDs/A/03_camel.jpg,6,3,3,2,1,1,5,2,0,93,,,,,,,,,,,,,,,,,,,,
,,,,,93,2020-07-04_20h10.41.959,retriever_ti,2020.1.3,Win32,60,Chrome,2560,1440,,,,,,,,,,,,,,,,,3,,,,,,,,,,,,,,,,,,,,,,,,,,,1123.078785,178,left,0.63726,hat           ,1,8,-1,0,1,1123.09247,1123.09247,1125.587795,0,23,23,23,1,178,1,2,hat           ,sport_tshirt,html/resources/sequences_IDs/A/08_hat.jpg,html/resources/sequences_IDs/B/07_sport_tshirt.jpg,8,7,3,2,3,2,7,6,1,93,,,,,,,,,,,,,,,,,,,,
,,,,,93,2020-07-04_20h10.41.959,retriever_ti,2020.1.3,Win32,60,Chrome,2560,1440,,,,,,,,,,,,,,,,,3,,,,,,,,,,,,,,,,,,,,,,,,,,,1126.682755,179,right,0.28214,peacock       ,7,5,-1,0,0,1126.709515,1126.709515,1129.204815,0,24,24,24,1,179,8,7,holdfast    ,peacock       ,html/resources/sequences_IDs/B/04_holdfast.jpg,html/resources/sequences_IDs/A/05_peacock.jpg,4,5,2,1,2,1,3,4,0,93,,,,,,,,,,,,,,,,,,,,
,,,,,93,2020-07-04_20h10.41.959,retriever_ti,2020.1.3,Win32,60,Chrome,2560,1440,,,,,,,,,,,,,,,,,3,,,,,,,,,,,,,,,,,,,,,,,,,,,1130.299745,180,left,1.60645,holdfast    ,8,4,7,1,3,1130.313145,1130.313145,1132.808545,0,25,25,25,1,180,8,1,holdfast    ,hat           ,html/resources/sequences_IDs/B/04_holdfast.jpg,html/resources/sequences_IDs/A/08_hat.jpg,4,8,2,1,3,2,3,7,0,93,,,,,,,,,,,,,,,,,,,,
,,,,,93,2020-07-04_20h10.41.959,retriever_ti,2020.1.3,Win32,60,Chrome,2560,1440,,,,,,,,,,,,,,,,,3,,,,,,,,,,,,,,,,,,,,,,,,,,,1133.409655,181,right,0.736745,dolphin     ,4,2,2,1,3,1133.42296,1133.42296,1135.91831,0,26,26,26,1,181,2,4,sport_tshirt,dolphin     ,html/resources/sequences_IDs/B/07_sport_tshirt.jpg,html/resources/sequences_IDs/B/02_dolphin.jpg,7,2,3,2,1,1,6,1,0,93,,,,,,,,,,,,,,,,,,,,
,,,,,93,2020-07-04_20h10.41.959,retriever_ti,2020.1.3,Win32,60,Chrome,2560,1440,,,,,,,,,,,,,,,,,3,,,,,,,,,,,,,,,,,,,,,,,,,,,1136.51913,182,left,0.428095,hat           ,1,8,-6,0,3,1136.532775,1136.532775,1139.028155,0,27,27,27,1,182,1,7,hat           ,peacock       ,html/resources/sequences_IDs/A/08_hat.jpg,html/resources/sequences_IDs/A/05_peacock.jpg,8,5,3,2,2,1,7,4,0,93,,,,,,,,,,,,,,,,,,,,
,,,,,93,2020-07-04_20h10.41.959,retriever_ti,2020.1.3,Win32,60,Chrome,2560,1440,,,,,,,,,,,,,,,,,3,,,,,,,,,,,,,,,,,,,,,,,,,,,1139.629155,183,left,0.48655,peacock       ,7,5,6,1,3,1139.64261,1139.64261,1142.13794,0,28,28,28,1,183,7,1,peacock       ,hat           ,html/resources/sequences_IDs/A/05_peacock.jpg,html/resources/sequences_IDs/A/08_hat.jpg,5,8,2,1,3,2,4,7,0,93,,,,,,,,,,,,,,,,,,,,
,,,,,93,2020-07-04_20h10.41.959,retriever_ti,2020.1.3,Win32,60,Chrome,2560,1440,,,,,,,,,,,,,,,,,3,,,,,,,,,,,,,,,,,,,,,,,,,,,1142.73896,184,right,0.28837,hat           ,1,8,-2,0,3,1142.752425,1142.752425,1145.24778,0,29,29,29,1,184,3,1,camel         ,hat           ,html/resources/sequences_IDs/A/03_camel.jpg,html/resources/sequences_IDs/A/08_hat.jpg,3,8,1,1,3,2,2,7,0,93,,,,,,,,,,,,,,,,,,,,
,,,,,93,2020-07-04_20h10.41.959,retriever_ti,2020.1.3,Win32,60,Chrome,2560,1440,,,,,,,,,,,,,,,,,3,,,,,,,,,,,,,,,,,,,,,,,,,,,1145.848885,185,left,0.60151,satellite_dish,5,10,-3,0,3,1145.86226,1145.86226,1148.35762,0,30,30,30,1,185,5,8,satellite_dish,holdfast    ,html/resources/sequences_IDs/A/10_satellite_dish.jpg,html/resources/sequences_IDs/B/04_holdfast.jpg,10,4,4,2,2,1,8,3,0,93,,,,,,,,,,,,,,,,,,,,
,,,,,93,2020-07-04_20h10.41.959,retriever_ti,2020.1.3,Win32,60,Chrome,2560,1440,,,,,,,,,,,,,,,,,3,,,,,,,,,,,,,,,,,,,,,,,,,,,1148.958385,186,right,0.549275,camel         ,3,3,-2,0,3,1148.98539,1148.98539,1151.480795,0,31,31,31,1,186,5,3,satellite_dish,camel         ,html/resources/sequences_IDs/A/10_satellite_dish.jpg,html/resources/sequences_IDs/A/03_camel.jpg,10,3,4,2,1,1,8,2,0,93,,,,,,,,,,,,,,,,,,,,
,,,,,93,2020-07-04_20h10.41.959,retriever_ti,2020.1.3,Win32,60,Chrome,2560,1440,,,,,,,,,,,,,,,,,3,,,,,,,,,,,,,,,,,,,,,,,,,,,1152.081895,187,right,0.691335,camel         ,3,3,1,1,1,1152.10862,1152.10862,1154.60398,0,32,32,32,1,187,2,3,sport_tshirt,camel         ,html/resources/sequences_IDs/B/07_sport_tshirt.jpg,html/resources/sequences_IDs/A/03_camel.jpg,7,3,3,2,1,1,6,2,0,93,,,,,,,,,,,,,,,,,,,,
,,,,,93,2020-07-04_20h10.41.959,retriever_ti,2020.1.3,Win32,60,Chrome,2560,1440,,,,,,,,,,,,,,,,,3,,,,,,,,,,,,,,,,,,,,,,,,,,,1155.698805,188,left,0.82028,sport_tshirt,2,7,1,1,1,1155.72567,1155.72567,1158.22095,0,33,33,33,1,188,2,1,sport_tshirt,hat           ,html/resources/sequences_IDs/B/07_sport_tshirt.jpg,html/resources/sequences_IDs/A/08_hat.jpg,7,8,3,2,3,2,6,7,0,93,,,,,,,,,,,,,,,,,,,,
,,,,,93,2020-07-04_20h10.41.959,retriever_ti,2020.1.3,Win32,60,Chrome,2560,1440,,,,,,,,,,,,,,,,,3,,,,,,,,,,,,,,,,,,,,,,,,,,,1159.31586,189,left,0.75057,dolphin     ,4,2,-1,0,0,1159.32932,1159.32932,1161.82469,0,34,34,34,1,189,4,5,dolphin     ,satellite_dish,html/resources/sequences_IDs/B/02_dolphin.jpg,html/resources/sequences_IDs/A/10_satellite_dish.jpg,2,10,1,1,4,2,1,8,0,93,,,,,,,,,,,,,,,,,,,,
,,,,,93,2020-07-04_20h10.41.959,retriever_ti,2020.1.3,Win32,60,Chrome,2560,1440,,,,,,,,,,,,,,,,,3,,,,,,,,,,,,,,,,,,,,,,,,,,,1162.919295,190,right,0.41347,camel         ,3,3,1,1,1,1162.946315,1162.946315,1165.441665,0,35,35,35,1,190,2,3,sport_tshirt,camel         ,html/resources/sequences_IDs/B/07_sport_tshirt.jpg,html/resources/sequences_IDs/A/03_camel.jpg,7,3,3,2,1,1,6,2,0,93,,,,,,,,,,,,,,,,,,,,
,,,,,93,2020-07-04_20h10.41.959,retriever_ti,2020.1.3,Win32,60,Chrome,2560,1440,,,,,,,,,,,,,,,,,3,,,,,,,,,,,,,,,,,,,,,,,,,,,1166.53655,191,right,0.66789,peacock       ,7,5,5,1,3,1166.56327,1166.56327,1169.05863,0,36,36,36,1,191,2,7,sport_tshirt,peacock       ,html/resources/sequences_IDs/B/07_sport_tshirt.jpg,html/resources/sequences_IDs/A/05_peacock.jpg,7,5,3,2,2,1,6,4,0,93,,,,,,,,,,,,,,,,,,,,
,,,,,93,2020-07-04_20h10.41.959,retriever_ti,2020.1.3,Win32,60,Chrome,2560,1440,,,,,,,,,,,,,,,,,3,,,,,,,,,,,,,,,,,,,,,,,,,,,1169.65977,192,left,0.776495,holdfast    ,8,4,3,1,3,1169.68648,1169.68648,1172.181825,0,37,37,37,1,192,8,5,holdfast    ,satellite_dish,html/resources/sequences_IDs/B/04_holdfast.jpg,html/resources/sequences_IDs/A/10_satellite_dish.jpg,4,10,2,1,4,2,3,8,0,93,,,,,,,,,,,,,,,,,,,,
,,,,,93,2020-07-04_20h10.41.959,retriever_ti,2020.1.3,Win32,60,Chrome,2560,1440,,,,,,,,,,,,,,,,,3,,,,,,,,,,,,,,,,,,,,,,,,,,,1172.78262,193,left,0.628135,holdfast    ,8,4,6,1,3,1172.80974,1172.80974,1175.304975,0,38,38,38,1,193,8,2,holdfast    ,sport_tshirt,html/resources/sequences_IDs/B/04_holdfast.jpg,html/resources/sequences_IDs/B/07_sport_tshirt.jpg,4,7,2,1,3,2,3,6,0,93,,,,,,,,,,,,,,,,,,,,
,,,,,93,2020-07-04_20h10.41.959,retriever_ti,2020.1.3,Win32,60,Chrome,2560,1440,,,,,,,,,,,,,,,,,3,,,,,,,,,,,,,,,,,,,,,,,,,,,1175.90603,194,left,0.68909,camel         ,3,3,1,1,1,1175.9328,1175.9328,1178.428155,0,39,39,39,1,194,3,2,camel         ,sport_tshirt,html/resources/sequences_IDs/A/03_camel.jpg,html/resources/sequences_IDs/B/07_sport_tshirt.jpg,3,7,1,1,3,2,2,6,0,93,,,,,,,,,,,,,,,,,,,,
,,,,,93,2020-07-04_20h10.41.959,retriever_ti,2020.1.3,Win32,60,Chrome,2560,1440,,,,,,,,,,,,,,,,,3,,,,,,,,,,,,,,,,,,,,,,,,,,,1179.523085,195,right,0.95713,dolphin     ,4,2,1,1,0,1179.53647,1179.53647,1182.031835,0,40,40,40,1,195,3,4,camel         ,dolphin     ,html/resources/sequences_IDs/A/03_camel.jpg,html/resources/sequences_IDs/B/02_dolphin.jpg,3,2,1,1,1,1,2,1,1,93,,,,,,,,,,,,,,,,,,,,
,,,,,93,2020-07-04_20h10.41.959,retriever_ti,2020.1.3,Win32,60,Chrome,2560,1440,,,,,,,,,,,,,,,,,3,,,,,,,,,,,,,,,,,,,,,,,,,,,1183.126505,196,right,0.82815,sport_tshirt,2,7,1,1,1,1183.153515,1183.153515,1185.64882,0,41,41,41,1,196,1,2,hat           ,sport_tshirt,html/resources/sequences_IDs/A/08_hat.jpg,html/resources/sequences_IDs/B/07_sport_tshirt.jpg,8,7,3,2,3,2,7,6,0,93,,,,,,,,,,,,,,,,,,,,
,,,,,93,2020-07-04_20h10.41.959,retriever_ti,2020.1.3,Win32,60,Chrome,2560,1440,,,,,,,,,,,,,,,,,3,,,,,,,,,,,,,,,,,,,,,,,,,,,1186.743785,197,right,1.03246,hat           ,1,8,-1,0,0,1186.75714,1186.75714,1189.252515,0,42,42,42,1,197,2,1,sport_tshirt,hat           ,html/resources/sequences_IDs/B/07_sport_tshirt.jpg,html/resources/sequences_IDs/A/08_hat.jpg,7,8,3,2,3,2,6,7,0,93,,,,,,,,,,,,,,,,,,,,
,,,,,93,2020-07-04_20h10.41.959,retriever_ti,2020.1.3,Win32,60,Chrome,2560,1440,,,,,,,,,,,,,,,,,3,,,,,,,,,,,,,,,,,,,,,,,,,,,1190.3474,198,right,0.58373,camel         ,3,3,-1,0,0,1190.37412,1190.37412,1192.869525,0,43,43,43,1,198,4,3,dolphin     ,camel         ,html/resources/sequences_IDs/B/02_dolphin.jpg,html/resources/sequences_IDs/A/03_camel.jpg,2,3,1,1,1,1,1,2,0,93,,,,,,,,,,,,,,,,,,,,
,,,,,93,2020-07-04_20h10.41.959,retriever_ti,2020.1.3,Win32,60,Chrome,2560,1440,,,,,,,,,,,,,,,,,3,,,,,,,,,,,,,,,,,,,,,,,,,,,1193.964415,199,left,0.39217,peacock       ,7,5,3,1,3,1193.99119,1193.99119,1196.486505,0,44,44,44,1,199,7,4,peacock       ,dolphin     ,html/resources/sequences_IDs/A/05_peacock.jpg,html/resources/sequences_IDs/B/02_dolphin.jpg,5,2,2,1,1,1,4,1,0,93,,,,,,,,,,,,,,,,,,,,
,,,,,93,2020-07-04_20h10.41.959,retriever_ti,2020.1.3,Win32,60,Chrome,2560,1440,,,,,,,,,,,,,,,,,3,,,,,,,,,,,,,,,,,,,,,,,,,,,1197.08732,200,right,0.45164,dolphin     ,4,2,-1,0,0,1197.114315,1197.114315,1199.609765,0,45,45,45,1,200,5,4,satellite_dish,dolphin     ,html/resources/sequences_IDs/A/10_satellite_dish.jpg,html/resources/sequences_IDs/B/02_dolphin.jpg,10,2,4,2,1,1,8,1,0,93,,,,,,,,,,,,,,,,,,,,
,,,,,93,2020-07-04_20h10.41.959,retriever_ti,2020.1.3,Win32,60,Chrome,2560,1440,,,,,,,,,,,,,,,,,3,,,,,,,,,,,,,,,,,,,,,,,,,,,1200.704695,201,left,0.48508,gloves      ,6,6,-1,0,1,1200.731375,1200.731375,1203.226695,0,46,46,46,1,201,6,7,gloves      ,peacock       ,html/resources/sequences_IDs/B/06_gloves.jpg,html/resources/sequences_IDs/A/05_peacock.jpg,6,5,3,2,2,1,5,4,1,93,,,,,,,,,,,,,,,,,,,,
,,,,,93,2020-07-04_20h10.41.959,retriever_ti,2020.1.3,Win32,60,Chrome,2560,1440,,,,,,,,,,,,,,,,,3,,,,,,,,,,,,,,,,,,,,,,,,,,,1204.321635,202,right,0.51768,gloves      ,6,6,2,1,3,1204.33504,1204.33504,1206.830365,0,47,47,47,1,202,4,6,dolphin     ,gloves      ,html/resources/sequences_IDs/B/02_dolphin.jpg,html/resources/sequences_IDs/B/06_gloves.jpg,2,6,1,1,3,2,1,5,0,93,,,,,,,,,,,,,,,,,,,,
,,,,,93,2020-07-04_20h10.41.959,retriever_ti,2020.1.3,Win32,60,Chrome,2560,1440,,,,,,,,,,,,,,,,,3,,,,,,,,,,,,,,,,,,,,,,,,,,,1207.43141,203,left,0.55646,peacock       ,7,5,2,1,3,1207.44485,1207.44485,1209.94022,0,48,48,48,1,203,7,5,peacock       ,satellite_dish,html/resources/sequences_IDs/A/05_peacock.jpg,html/resources/sequences_IDs/A/10_satellite_dish.jpg,5,10,2,1,4,2,4,8,0,93,,,,,,,,,,,,,,,,,,,,
,,,,,93,2020-07-04_20h10.41.959,retriever_ti,2020.1.3,Win32,60,Chrome,2560,1440,,,,,,,,,,,,,,,,,3,,,,,,,,,,,,,,,,,,,,,,,,,,,1210.54103,204,right,0.67868,sport_tshirt,2,7,-1,0,0,1210.554655,1210.554655,1213.050035,0,49,49,49,1,204,3,2,camel         ,sport_tshirt,html/resources/sequences_IDs/A/03_camel.jpg,html/resources/sequences_IDs/B/07_sport_tshirt.jpg,3,7,1,1,3,2,2,6,0,93,,,,,,,,,,,,,,,,,,,,
,,,,,93,2020-07-04_20h10.41.959,retriever_ti,2020.1.3,Win32,60,Chrome,2560,1440,,,,,,,,,,,,,,,,,3,,,,,,,,,,,,,,,,,,,,,,,,,,,1214.14493,205,left,0.72686,camel         ,3,3,-2,0,3,1214.171675,1214.171675,1216.66702,0,50,50,50,1,205,3,5,camel         ,satellite_dish,html/resources/sequences_IDs/A/03_camel.jpg,html/resources/sequences_IDs/A/10_satellite_dish.jpg,3,10,1,1,4,2,2,8,0,93,,,,,,,,,,,,,,,,,,,,
,,,,,93,2020-07-04_20h10.41.959,retriever_ti,2020.1.3,Win32,60,Chrome,2560,1440,,,,,,,,,,,,,,,,,3,,,,,,,,,,,,,,,,,,,,,,,,,,,1217.268055,206,right,0.639645,satellite_dish,5,10,-1,0,0,1217.28146,1217.28146,1219.776845,0,51,51,51,1,206,6,5,gloves      ,satellite_dish,html/resources/sequences_IDs/B/06_gloves.jpg,html/resources/sequences_IDs/A/10_satellite_dish.jpg,6,10,3,2,4,2,5,8,0,93,,,,,,,,,,,,,,,,,,,,
,,,,,93,2020-07-04_20h10.41.959,retriever_ti,2020.1.3,Win32,60,Chrome,2560,1440,,,,,,,,,,,,,,,,,3,,,,,,,,,,,,,,,,,,,,,,,,,,,1220.871515,207,right,0.334895,hat           ,1,8,-4,0,3,1220.89857,1220.89857,1223.39386,0,52,52,52,1,207,5,1,satellite_dish,hat           ,html/resources/sequences_IDs/A/10_satellite_dish.jpg,html/resources/sequences_IDs/A/08_hat.jpg,10,8,4,2,3,2,8,7,0,93,,,,,,,,,,,,,,,,,,,,
,,,,,93,2020-07-04_20h10.41.959,retriever_ti,2020.1.3,Win32,60,Chrome,2560,1440,,,,,,,,,,,,,,,,,3,,,,,,,,,,,,,,,,,,,,,,,,,,,1223.99488,208,right,0.4884,camel         ,3,3,2,1,3,1224.00837,1224.00837,1226.503695,0,53,53,53,1,208,1,3,hat           ,camel         ,html/resources/sequences_IDs/A/08_hat.jpg,html/resources/sequences_IDs/A/03_camel.jpg,8,3,3,2,1,1,7,2,0,93,,,,,,,,,,,,,,,,,,,,
,,,,,93,2020-07-04_20h10.41.959,retriever_ti,2020.1.3,Win32,60,Chrome,2560,1440,,,,,,,,,,,,,,,,,3,,,,,,,,,,,,,,,,,,,,,,,,,,,1227.10454,209,left,0.34029,sport_tshirt,2,7,-6,0,3,1227.13151,1227.13151,1229.626855,0,54,54,54,1,209,2,8,sport_tshirt,holdfast    ,html/resources/sequences_IDs/B/07_sport_tshirt.jpg,html/resources/sequences_IDs/B/04_holdfast.jpg,7,4,3,2,2,1,6,3,0,93,,,,,,,,,,,,,,,,,,,,
,,,,,93,2020-07-04_20h10.41.959,retriever_ti,2020.1.3,Win32,60,Chrome,2560,1440,,,,,,,,,,,,,,,,,3,,,,,,,,,,,,,,,,,,,,,,,,,,,1230.22776,210,right,0.38188,sport_tshirt,2,7,1,1,1,1230.24176,1230.24176,1232.736725,0,55,55,55,1,210,1,2,hat           ,sport_tshirt,html/resources/sequences_IDs/A/08_hat.jpg,html/resources/sequences_IDs/B/07_sport_tshirt.jpg,8,7,3,2,3,2,7,6,0,93,,,,,,,,,,,,,,,,,,,,
,,,,,93,2020-07-04_20h10.41.959,retriever_ti,2020.1.3,Win32,60,Chrome,2560,1440,,,,,,,,,,,,,,,,,3,,,,,,,,,,,,,,,,,,,,,,,,,,,1233.831665,211,right,0.41098,holdfast    ,8,4,1,1,0,1233.85843,1233.85843,1236.353755,0,56,56,56,1,211,7,8,peacock       ,holdfast    ,html/resources/sequences_IDs/A/05_peacock.jpg,html/resources/sequences_IDs/B/04_holdfast.jpg,5,4,2,1,2,1,4,3,1,93,,,,,,,,,,,,,,,,,,,,
,,,,,93,2020-07-04_20h10.41.959,retriever_ti,2020.1.3,Win32,60,Chrome,2560,1440,,,,,,,,,,,,,,,,,3,,,,,,,,,,,,,,,,,,,,,,,,,,,1237.44866,212,left,0.36192,gloves      ,6,6,1,1,1,1237.475435,1237.475435,1239.97074,0,57,57,57,1,212,6,5,gloves      ,satellite_dish,html/resources/sequences_IDs/B/06_gloves.jpg,html/resources/sequences_IDs/A/10_satellite_dish.jpg,6,10,3,2,4,2,5,8,0,93,,,,,,,,,,,,,,,,,,,,
,,,,,93,2020-07-04_20h10.41.959,retriever_ti,2020.1.3,Win32,60,Chrome,2560,1440,,,,,,,,,,,,,,,,,3,,,,,,,,,,,,,,,,,,,,,,,,,,,1241.0654,213,left,0.80777,camel         ,3,3,-1,0,0,1241.09254,1241.09254,1243.587745,0,58,58,58,1,213,3,4,camel         ,dolphin     ,html/resources/sequences_IDs/A/03_camel.jpg,html/resources/sequences_IDs/B/02_dolphin.jpg,3,2,1,1,1,1,2,1,0,93,,,,,,,,,,,,,,,,,,,,
,,,,,93,2020-07-04_20h10.41.959,retriever_ti,2020.1.3,Win32,60,Chrome,2560,1440,,,,,,,,,,,,,,,,,3,,,,,,,,,,,,,,,,,,,,,,,,,,,1244.682635,214,right,0.374965,gloves      ,6,6,-2,0,3,1244.70942,1244.70942,1247.204745,0,59,59,59,1,214,8,6,holdfast    ,gloves      ,html/resources/sequences_IDs/B/04_holdfast.jpg,html/resources/sequences_IDs/B/06_gloves.jpg,4,6,2,1,3,2,3,5,0,93,,,,,,,,,,,,,,,,,,,,
,,,,,93,2020-07-04_20h10.41.959,retriever_ti,2020.1.3,Win32,60,Chrome,2560,1440,,,,,,,,,,,,,,,,,3,,,,,,,,,,,,,,,,,,,,,,,,,,,1247.80584,215,right,0.339645,peacock       ,7,5,1,1,1,1247.81931,1247.81931,1250.314585,0,60,60,60,1,215,6,7,gloves      ,peacock       ,html/resources/sequences_IDs/B/06_gloves.jpg,html/resources/sequences_IDs/A/05_peacock.jpg,6,5,3,2,2,1,5,4,0,93,,,,,,,,,,,,,,,,,,,,
,,,,,93,2020-07-04_20h10.41.959,retriever_ti,2020.1.3,Win32,60,Chrome,2560,1440,,,,,,,,,,,,,,,,,3,,,,,,,,,,,,,,,,,,,,,,,,,,,1251.409515,216,right,0.466135,peacock       ,7,5,2,1,3,1251.436265,1251.436265,1253.93158,0,61,61,61,1,216,5,7,satellite_dish,peacock       ,html/resources/sequences_IDs/A/10_satellite_dish.jpg,html/resources/sequences_IDs/A/05_peacock.jpg,10,5,4,2,2,1,8,4,0,93,,,,,,,,,,,,,,,,,,,,
,,,,,93,2020-07-04_20h10.41.959,retriever_ti,2020.1.3,Win32,60,Chrome,2560,1440,,,,,,,,,,,,,,,,,3,,,,,,,,,,,,,,,,,,,,,,,,,,,1254.532445,217,right,0.30444,dolphin     ,4,2,-1,0,0,1254.55953,1254.55953,1257.054735,0,62,62,62,1,217,5,4,satellite_dish,dolphin     ,html/resources/sequences_IDs/A/10_satellite_dish.jpg,html/resources/sequences_IDs/B/02_dolphin.jpg,10,2,4,2,1,1,8,1,0,93,,,,,,,,,,,,,,,,,,,,
,,,,,93,2020-07-04_20h10.41.959,retriever_ti,2020.1.3,Win32,60,Chrome,2560,1440,,,,,,,,,,,,,,,,,3,,,,,,,,,,,,,,,,,,,,,,,,,,,1258.14997,218,left,0.40034,satellite_dish,5,10,1,1,0,1258.176535,1258.176535,1260.67179,0,63,63,63,1,218,5,4,satellite_dish,dolphin     ,html/resources/sequences_IDs/A/10_satellite_dish.jpg,html/resources/sequences_IDs/B/02_dolphin.jpg,10,2,4,2,1,1,8,1,1,93,,,,,,,,,,,,,,,,,,,,
,,,,,93,2020-07-04_20h10.41.959,retriever_ti,2020.1.3,Win32,60,Chrome,2560,1440,,,,,,,,,,,,,,,,,3,,,,,,,,,,,,,,,,,,,,,,,,,,,1261.766845,219,right,0.288455,holdfast    ,8,4,1,1,1,1261.79375,1261.79375,1264.288785,0,64,64,64,1,219,7,8,peacock       ,holdfast    ,html/resources/sequences_IDs/A/05_peacock.jpg,html/resources/sequences_IDs/B/04_holdfast.jpg,5,4,2,1,2,1,4,3,0,93,,,,,,,,,,,,,,,,,,,,
,,,,,93,2020-07-04_20h10.41.959,retriever_ti,2020.1.3,Win32,60,Chrome,2560,1440,,,,,,,,,,,,,,,,,3,,,,,,,,,,,,,,,,,,,,,,,,,,,1265.38368,220,left,0.666465,peacock       ,7,5,1,1,1,1265.397125,1265.397125,1267.89247,0,65,65,65,1,220,7,6,peacock       ,gloves      ,html/resources/sequences_IDs/A/05_peacock.jpg,html/resources/sequences_IDs/B/06_gloves.jpg,5,6,2,1,3,2,4,5,0,93,,,,,,,,,,,,,,,,,,,,
