instructionsLoop.thisRepN,instructionsLoop.thisTrialN,instructionsLoop.thisN,instructionsLoop.thisIndex,instructionsLoop.ran,participant,date,expName,psychopyVersion,OS,frameRate,browser,xResolution,yResolution,fix_onset,tprac,practiceKey.keys,practiceKey.rt,pracitem_chosen_name,acc_practice,P1_onsetPrac,P2_onsetPrac,onsetFeedbPrac,practiceTrials.thisRepN,practiceTrials.thisTrialN,practiceTrials.thisN,practiceTrials.thisIndex,practiceTrials.ran,P1,P2,Block,LocItem1,LocItem2,NameItem1,NameItem2,key_respAC_prac.keys,key_respAC_prac.corr,key_respAC_prac.rt,AC_acc,Attentions.thisRepN,Attentions.thisTrialN,Attentions.thisN,Attentions.thisIndex,Attentions.ran,Stim,Loc1,Loc2,Loc3,Loc4,CorrAns,keyDisturbed.keys,keyDisturbed.rt,repPractice.thisRepN,repPractice.thisTrialN,repPractice.thisN,repPractice.thisIndex,repPractice.ran,fixcross_onsetMain,trialNumber,key_resp.keys,key_resp.rt,item_chosen_name,item_chosen_value,item_chosen_ID,diff_chosen_minus_reject,acc_real,acc_feedback,P1_onset,P2_onset,feedb_onset,trials.thisRepN,trials.thisTrialN,trials.thisN,trials.thisIndex,trials.ran,Trial,ValueP1,ValueP2,P1name,P2name,P1Loc,P2Loc,P1id,P2id,Micro_categoryP1,Macro_categoryP1,Micro_categoryP2,Macro_categoryP2,ID_sequenceP1,ID_sequenceP2,InverseFb,pNumber,repBlocks.thisRepN,repBlocks.thisTrialN,repBlocks.thisN,repBlocks.thisIndex,repBlocks.ran,key_respAC.keys,key_respAC.corr,key_respAC.rt,trials_AC.thisRepN,trials_AC.thisTrialN,trials_AC.thisN,trials_AC.thisIndex,trials_AC.ran,Bonus,BonusLoop.thisRepN,BonusLoop.thisTrialN,BonusLoop.thisN,BonusLoop.thisIndex,BonusLoop.ran,comments
0,0,0,0,1,94,2020-07-04_14h44.20.843,retriever_ti,2020.1.3,Win32,60,Chrome,1366,768,,,,,,,,,,,,,,,,,,,,,,,,,,,,,,,,,,,,,,,,,,,,,,,,,,,,,,,,,,,,,,,,,,,,,,,,,,,,,,,,,,,,,,,,,,,,,,,,,,
1,0,1,0,1,94,2020-07-04_14h44.20.843,retriever_ti,2020.1.3,Win32,60,Chrome,1366,768,,,,,,,,,,,,,,,,,,,,,,,,,,,,,,,,,,,,,,,,,,,,,,,,,,,,,,,,,,,,,,,,,,,,,,,,,,,,,,,,,,,,,,,,,,,,,,,,,,
2,0,2,0,1,94,2020-07-04_14h44.20.843,retriever_ti,2020.1.3,Win32,60,Chrome,1366,768,,,,,,,,,,,,,,,,,,,,,,,,,,,,,,,,,,,,,,,,,,,,,,,,,,,,,,,,,,,,,,,,,,,,,,,,,,,,,,,,,,,,,,,,,,,,,,,,,,
3,0,3,0,1,94,2020-07-04_14h44.20.843,retriever_ti,2020.1.3,Win32,60,Chrome,1366,768,,,,,,,,,,,,,,,,,,,,,,,,,,,,,,,,,,,,,,,,,,,,,,,,,,,,,,,,,,,,,,,,,,,,,,,,,,,,,,,,,,,,,,,,,,,,,,,,,,
4,0,4,0,1,94,2020-07-04_14h44.20.843,retriever_ti,2020.1.3,Win32,60,Chrome,1366,768,,,,,,,,,,,,,,,,,,,,,,,,,,,,,,,,,,,,,,,,,,,,,,,,,,,,,,,,,,,,,,,,,,,,,,,,,,,,,,,,,,,,,,,,,,,,,,,,,,
5,0,5,0,1,94,2020-07-04_14h44.20.843,retriever_ti,2020.1.3,Win32,60,Chrome,1366,768,,,,,,,,,,,,,,,,,,,,,,,,,,,,,,,,,,,,,,,,,,,,,,,,,,,,,,,,,,,,,,,,,,,,,,,,,,,,,,,,,,,,,,,,,,,,,,,,,,
6,0,6,0,1,94,2020-07-04_14h44.20.843,retriever_ti,2020.1.3,Win32,60,Chrome,1366,768,,,,,,,,,,,,,,,,,,,,,,,,,,,,,,,,,,,,,,,,,,,,,,,,,,,,,,,,,,,,,,,,,,,,,,,,,,,,,,,,,,,,,,,,,,,,,,,,,,
7,0,7,0,1,94,2020-07-04_14h44.20.843,retriever_ti,2020.1.3,Win32,60,Chrome,1366,768,,,,,,,,,,,,,,,,,,,,,,,,,,,,,,,,,,,,,,,,,,,,,,,,,,,,,,,,,,,,,,,,,,,,,,,,,,,,,,,,,,,,,,,,,,,,,,,,,,
8,0,8,0,1,94,2020-07-04_14h44.20.843,retriever_ti,2020.1.3,Win32,60,Chrome,1366,768,,,,,,,,,,,,,,,,,,,,,,,,,,,,,,,,,,,,,,,,,,,,,,,,,,,,,,,,,,,,,,,,,,,,,,,,,,,,,,,,,,,,,,,,,,,,,,,,,,
9,0,9,0,1,94,2020-07-04_14h44.20.843,retriever_ti,2020.1.3,Win32,60,Chrome,1366,768,,,,,,,,,,,,,,,,,,,,,,,,,,,,,,,,,,,,,,,,,,,,,,,,,,,,,,,,,,,,,,,,,,,,,,,,,,,,,,,,,,,,,,,,,,,,,,,,,,
10,0,10,0,1,94,2020-07-04_14h44.20.843,retriever_ti,2020.1.3,Win32,60,Chrome,1366,768,,,,,,,,,,,,,,,,,,,,,,,,,,,,,,,,,,,,,,,,,,,,,,,,,,,,,,,,,,,,,,,,,,,,,,,,,,,,,,,,,,,,,,,,,,,,,,,,,,
11,0,11,0,1,94,2020-07-04_14h44.20.843,retriever_ti,2020.1.3,Win32,60,Chrome,1366,768,,,,,,,,,,,,,,,,,,,,,,,,,,,,,,,,,,,,,,,,,,,,,,,,,,,,,,,,,,,,,,,,,,,,,,,,,,,,,,,,,,,,,,,,,,,,,,,,,,
12,0,12,0,1,94,2020-07-04_14h44.20.843,retriever_ti,2020.1.3,Win32,60,Chrome,1366,768,,,,,,,,,,,,,,,,,,,,,,,,,,,,,,,,,,,,,,,,,,,,,,,,,,,,,,,,,,,,,,,,,,,,,,,,,,,,,,,,,,,,,,,,,,,,,,,,,,
13,0,13,0,1,94,2020-07-04_14h44.20.843,retriever_ti,2020.1.3,Win32,60,Chrome,1366,768,,,,,,,,,,,,,,,,,,,,,,,,,,,,,,,,,,,,,,,,,,,,,,,,,,,,,,,,,,,,,,,,,,,,,,,,,,,,,,,,,,,,,,,,,,,,,,,,,,
14,0,14,0,1,94,2020-07-04_14h44.20.843,retriever_ti,2020.1.3,Win32,60,Chrome,1366,768,,,,,,,,,,,,,,,,,,,,,,,,,,,,,,,,,,,,,,,,,,,,,,,,,,,,,,,,,,,,,,,,,,,,,,,,,,,,,,,,,,,,,,,,,,,,,,,,,,
15,0,15,0,1,94,2020-07-04_14h44.20.843,retriever_ti,2020.1.3,Win32,60,Chrome,1366,768,,,,,,,,,,,,,,,,,,,,,,,,,,,,,,,,,,,,,,,,,,,,,,,,,,,,,,,,,,,,,,,,,,,,,,,,,,,,,,,,,,,,,,,,,,,,,,,,,,
,,,,,94,2020-07-04_14h44.20.843,retriever_ti,2020.1.3,Win32,60,Chrome,1366,768,11.882965,1,right,1.05373,canary,1,11.9313,11.9313,14.4194,0,0,0,0,1,2,5,1,html/resources/stimuli_practice_decision/04_beetle.jpg,html/resources/stimuli_practice_decision/02_canary.jpg,beetle,canary,,,,,,,,,,,,,,,,,,,,,,,,,,,,,,,,,,,,,,,,,,,,,,,,,,,,,,,,,,,,,,,,,,,,,,,,,,,,,
,,,,,94,2020-07-04_14h44.20.843,retriever_ti,2020.1.3,Win32,60,Chrome,1366,768,14.98941,2,right,0.628455,sock,0,15.010455,15.010455,17.49656,0,1,1,1,1,4,3,1,html/resources/stimuli_practice_decision/01_rabbit.jpg,html/resources/stimuli_practice_decision/07_sock.jpg,rabbit,sock,,,,,,,,,,,,,,,,,,,,,,,,,,,,,,,,,,,,,,,,,,,,,,,,,,,,,,,,,,,,,,,,,,,,,,,,,,,,,
,,,,,94,2020-07-04_14h44.20.843,retriever_ti,2020.1.3,Win32,60,Chrome,1366,768,18.49762,3,left,0.660495,pullover,1,18.53412,18.53412,21.03159,0,2,2,2,1,6,2,1,html/resources/stimuli_practice_decision/06_pullover.jpg,html/resources/stimuli_practice_decision/04_beetle.jpg,pullover,beetle,,,,,,,,,,,,,,,,,,,,,,,,,,,,,,,,,,,,,,,,,,,,,,,,,,,,,,,,,,,,,,,,,,,,,,,,,,,,,
,,,,,94,2020-07-04_14h44.20.843,retriever_ti,2020.1.3,Win32,60,Chrome,1366,768,21.545375,4,left,0.76636,glasses,1,21.574,21.574,24.064965,0,3,3,3,1,7,1,1,html/resources/stimuli_practice_decision/05_glasses.jpg,html/resources/stimuli_practice_decision/08_handmixer.jpg,glasses,handmixer,,,,,,,,,,,,,,,,,,,,,,,,,,,,,,,,,,,,,,,,,,,,,,,,,,,,,,,,,,,,,,,,,,,,,,,,,,,,,
,,,,,94,2020-07-04_14h44.20.843,retriever_ti,2020.1.3,Win32,60,Chrome,1366,768,24.581705,5,right,0.5554,pullover,0,24.618525,24.618525,27.11211,0,4,4,4,1,7,6,1,html/resources/stimuli_practice_decision/05_glasses.jpg,html/resources/stimuli_practice_decision/06_pullover.jpg,glasses,pullover,,,,,,,,,,,,,,,,,,,,,,,,,,,,,,,,,,,,,,,,,,,,,,,,,,,,,,,,,,,,,,,,,,,,,,,,,,,,,
,,,,,94,2020-07-04_14h44.20.843,retriever_ti,2020.1.3,Win32,60,Chrome,1366,768,28.104015,6,right,0.578045,glasses,1,28.13742,28.13742,30.799115,0,5,5,5,1,4,7,1,html/resources/stimuli_practice_decision/01_rabbit.jpg,html/resources/stimuli_practice_decision/05_glasses.jpg,rabbit,glasses,,,,,,,,,,,,,,,,,,,,,,,,,,,,,,,,,,,,,,,,,,,,,,,,,,,,,,,,,,,,,,,,,,,,,,,,,,,,,
,,,,,94,2020-07-04_14h44.20.843,retriever_ti,2020.1.3,Win32,60,Chrome,1366,768,31.308575,7,left,0.953625,handmixer,0,31.33219,31.33219,33.811735,0,6,6,6,1,1,2,1,html/resources/stimuli_practice_decision/08_handmixer.jpg,html/resources/stimuli_practice_decision/04_beetle.jpg,handmixer,beetle,,,,,,,,,,,,,,,,,,,,,,,,,,,,,,,,,,,,,,,,,,,,,,,,,,,,,,,,,,,,,,,,,,,,,,,,,,,,,
,,,,,94,2020-07-04_14h44.20.843,retriever_ti,2020.1.3,Win32,60,Chrome,1366,768,34.806845,8,left,0.83035,rabbit,1,34.832085,34.832085,37.31419,0,7,7,7,1,4,3,1,html/resources/stimuli_practice_decision/01_rabbit.jpg,html/resources/stimuli_practice_decision/07_sock.jpg,rabbit,sock,,,,,,,,,,,,,,,,,,,,,,,,,,,,,,,,,,,,,,,,,,,,,,,,,,,,,,,,,,,,,,,,,,,,,,,,,,,,,
,,,,,94,2020-07-04_14h44.20.843,retriever_ti,2020.1.3,Win32,60,Chrome,1366,768,,,,,,,,,,,,,,,,,,,,,,up,1,2.374305,1,0,0,0,0,1,html/resources/sequences_IDs/circle.png,circle ↑,square →,triangle ↓,← star ,up,,,,,,,,,,,,,,,,,,,,,,,,,,,,,,,,,,,,,,,,,,,,,,,,,,,,,,,,,,,,,,
,,,,,94,2020-07-04_14h44.20.843,retriever_ti,2020.1.3,Win32,60,Chrome,1366,768,,,,,,,,,,,,,,,,,,,,,,down,1,1.102505,1,0,1,1,1,1,html/resources/sequences_IDs/star.png,square ↑,circle →,star ↓,← triangle,down,,,,,,,,,,,,,,,,,,,,,,,,,,,,,,,,,,,,,,,,,,,,,,,,,,,,,,,,,,,,,,
,,,,,94,2020-07-04_14h44.20.843,retriever_ti,2020.1.3,Win32,60,Chrome,1366,768,,,,,,,,,,,,,,,,,,,,,,down,1,2.124225,1,0,2,2,3,1,html/resources/sequences_IDs/triangle.png,star ↑,square →,triangle ↓,← circle,down,,,,,,,,,,,,,,,,,,,,,,,,,,,,,,,,,,,,,,,,,,,,,,,,,,,,,,,,,,,,,,
,,,,,94,2020-07-04_14h44.20.843,retriever_ti,2020.1.3,Win32,60,Chrome,1366,768,,,,,,,,,,,,,,,,,,,,,,left,1,1.33776,1,0,3,3,2,1,html/resources/sequences_IDs/square1.png,star ↑,triangle →,circle ↓,← square,left,,,,,,,,,,,,,,,,,,,,,,,,,,,,,,,,,,,,,,,,,,,,,,,,,,,,,,,,,,,,,,
,,,,,94,2020-07-04_14h44.20.843,retriever_ti,2020.1.3,Win32,60,Chrome,1366,768,,,,,,,,,,,,,,,,,,,,,,,,,,,,,,,,,,,,,0,3.84824,0,0,0,0,1,,,,,,,,,,,,,,,,,,,,,,,,,,,,,,,,,,,,,,,,,,,,,,,,,,,,,,,
,,,,,94,2020-07-04_14h44.20.843,retriever_ti,2020.1.3,Win32,60,Chrome,1366,768,51.74493,9,NaN,NaN,No_response,2,51.76374,51.76374,54.247035,0,0,0,0,1,6,7,1,html/resources/stimuli_practice_decision/06_pullover.jpg,html/resources/stimuli_practice_decision/05_glasses.jpg,pullover,glasses,,,,,,,,,,,,,,,,,,,,,,,,,,,,,,,,,,,,,,,,,,,,,,,,,,,,,,,,,,,,,,,,,,,,,,,,,,,,,
,,,,,94,2020-07-04_14h44.20.843,retriever_ti,2020.1.3,Win32,60,Chrome,1366,768,55.250205,10,left,0.646645,pullover,1,55.2869,55.2869,57.781535,0,1,1,1,1,6,2,1,html/resources/stimuli_practice_decision/06_pullover.jpg,html/resources/stimuli_practice_decision/04_beetle.jpg,pullover,beetle,,,,,,,,,,,,,,,,,,,,,,,,,,,,,,,,,,,,,,,,,,,,,,,,,,,,,,,,,,,,,,,,,,,,,,,,,,,,,
,,,,,94,2020-07-04_14h44.20.843,retriever_ti,2020.1.3,Win32,60,Chrome,1366,768,58.299125,11,right,0.70349,pullover,1,58.345155,58.345155,60.83633,0,2,2,2,1,5,6,1,html/resources/stimuli_practice_decision/02_canary.jpg,html/resources/stimuli_practice_decision/06_pullover.jpg,canary,pullover,,,,,,,,,,,,,,,,,,,,,,,,,,,,,,,,,,,,,,,,,,,,,,,,,,,,,,,,,,,,,,,,,,,,,,,,,,,,,
,,,,,94,2020-07-04_14h44.20.843,retriever_ti,2020.1.3,Win32,60,Chrome,1366,768,61.84478,12,right,0.748435,glasses,0,61.87314,61.87314,64.35142,0,3,3,3,1,8,7,1,html/resources/stimuli_practice_decision/03_squirrel.jpg,html/resources/stimuli_practice_decision/05_glasses.jpg,squirrel,glasses,,,,,,,,,,,,,,,,,,,,,,,,,,,,,,,,,,,,,,,,,,,,,,,,,,,,,,,,,,,,,,,,,,,,,,,,,,,,,
,,,,,94,2020-07-04_14h44.20.843,retriever_ti,2020.1.3,Win32,60,Chrome,1366,768,65.36298,13,left,0.7066,canary,1,65.404775,65.404775,67.8797,0,4,4,4,1,5,3,1,html/resources/stimuli_practice_decision/02_canary.jpg,html/resources/stimuli_practice_decision/07_sock.jpg,canary,sock,,,,,,,,,,,,,,,,,,,,,,,,,,,,,,,,,,,,,,,,,,,,,,,,,,,,,,,,,,,,,,,,,,,,,,,,,,,,,
,,,,,94,2020-07-04_14h44.20.843,retriever_ti,2020.1.3,Win32,60,Chrome,1366,768,68.396165,14,left,0.75113,glasses,0,68.431755,68.431755,70.928365,0,5,5,5,1,7,8,1,html/resources/stimuli_practice_decision/05_glasses.jpg,html/resources/stimuli_practice_decision/03_squirrel.jpg,glasses,squirrel,,,,,,,,,,,,,,,,,,,,,,,,,,,,,,,,,,,,,,,,,,,,,,,,,,,,,,,,,,,,,,,,,,,,,,,,,,,,,
,,,,,94,2020-07-04_14h44.20.843,retriever_ti,2020.1.3,Win32,60,Chrome,1366,768,71.92615,15,left,0.80148,canary,1,71.96507,71.96507,74.45893,0,6,6,6,1,5,4,1,html/resources/stimuli_practice_decision/02_canary.jpg,html/resources/stimuli_practice_decision/01_rabbit.jpg,canary,rabbit,,,,,,,,,,,,,,,,,,,,,,,,,,,,,,,,,,,,,,,,,,,,,,,,,,,,,,,,,,,,,,,,,,,,,,,,,,,,,
,,,,,94,2020-07-04_14h44.20.843,retriever_ti,2020.1.3,Win32,60,Chrome,1366,768,75.450795,16,left,0.895335,canary,1,75.484265,75.484265,77.972065,0,7,7,7,1,5,3,1,html/resources/stimuli_practice_decision/02_canary.jpg,html/resources/stimuli_practice_decision/07_sock.jpg,canary,sock,,,,,,,,,,,,,,,,,,,,,,,,,,,,,,,,,,,,,,,,,,,,,,,,,,,,,,,,,,,,,,,,,,,,,,,,,,,,,
,,,,,94,2020-07-04_14h44.20.843,retriever_ti,2020.1.3,Win32,60,Chrome,1366,768,,,,,,,,,,,,,,,,,,,,,,,0,,0,0,0,0,2,1,html/resources/sequences_IDs/square1.png,star ↑,triangle →,circle ↓,← square,left,,,,,,,,,,,,,,,,,,,,,,,,,,,,,,,,,,,,,,,,,,,,,,,,,,,,,,,,,,,,,,
,,,,,94,2020-07-04_14h44.20.843,retriever_ti,2020.1.3,Win32,60,Chrome,1366,768,,,,,,,,,,,,,,,,,,,,,,,0,,0,0,1,1,0,1,html/resources/sequences_IDs/circle.png,circle ↑,square →,triangle ↓,← star ,up,,,,,,,,,,,,,,,,,,,,,,,,,,,,,,,,,,,,,,,,,,,,,,,,,,,,,,,,,,,,,,
,,,,,94,2020-07-04_14h44.20.843,retriever_ti,2020.1.3,Win32,60,Chrome,1366,768,,,,,,,,,,,,,,,,,,,,,,down,1,4.23955,1,0,2,2,3,1,html/resources/sequences_IDs/triangle.png,star ↑,square →,triangle ↓,← circle,down,,,,,,,,,,,,,,,,,,,,,,,,,,,,,,,,,,,,,,,,,,,,,,,,,,,,,,,,,,,,,,
,,,,,94,2020-07-04_14h44.20.843,retriever_ti,2020.1.3,Win32,60,Chrome,1366,768,,,,,,,,,,,,,,,,,,,,,,down,1,1.18009,1,0,3,3,1,1,html/resources/sequences_IDs/star.png,square ↑,circle →,star ↓,← triangle,down,,,,,,,,,,,,,,,,,,,,,,,,,,,,,,,,,,,,,,,,,,,,,,,,,,,,,,,,,,,,,,
,,,,,94,2020-07-04_14h44.20.843,retriever_ti,2020.1.3,Win32,60,Chrome,1366,768,,,,,,,,,,,,,,,,,,,,,,,,,,,,,,,,,,,,,0,2.225565,1,0,1,0,1,,,,,,,,,,,,,,,,,,,,,,,,,,,,,,,,,,,,,,,,,,,,,,,,,,,,,,,
,,,,,94,2020-07-04_14h44.20.843,retriever_ti,2020.1.3,Win32,60,Chrome,1366,768,,,,,,,,,,,,,,,,,1,,,,,,,,,,,,,,,,,,,,,,,,,,,111.673365,1,right,0.953515,gloves      ,8,6,5,1,3,111.99625,111.99625,114.49029,0,0,0,0,1,1,3,8,seaturtle     ,gloves      ,html/resources/sequences_IDs/A/02_seaturtle.jpg,html/resources/sequences_IDs/B/06_gloves.jpg,2,6,2,1,3,2,2,5,0,94,,,,,,,,,,,,,,,,,,,,
,,,,,94,2020-07-04_14h44.20.843,retriever_ti,2020.1.3,Win32,60,Chrome,1366,768,,,,,,,,,,,,,,,,,1,,,,,,,,,,,,,,,,,,,,,,,,,,,115.112575,2,left,0.632175,wolf          ,7,1,-1,0,0,115.15736,115.15736,117.65732,0,1,1,1,1,2,7,8,wolf          ,gloves      ,html/resources/sequences_IDs/A/01_wolf.jpg,html/resources/sequences_IDs/B/06_gloves.jpg,1,6,1,1,3,2,1,5,0,94,,,,,,,,,,,,,,,,,,,,
,,,,,94,2020-07-04_14h44.20.843,retriever_ti,2020.1.3,Win32,60,Chrome,1366,768,,,,,,,,,,,,,,,,,1,,,,,,,,,,,,,,,,,,,,,,,,,,,118.75173,3,right,0.398225,seaturtle     ,3,2,-4,0,3,118.794845,118.794845,121.29026,0,2,2,2,1,3,7,3,wolf          ,seaturtle     ,html/resources/sequences_IDs/A/01_wolf.jpg,html/resources/sequences_IDs/A/02_seaturtle.jpg,1,2,1,1,2,1,1,2,0,94,,,,,,,,,,,,,,,,,,,,
,,,,,94,2020-07-04_14h44.20.843,retriever_ti,2020.1.3,Win32,60,Chrome,1366,768,,,,,,,,,,,,,,,,,1,,,,,,,,,,,,,,,,,,,,,,,,,,,121.904815,4,left,0.378995,parrot      ,6,5,2,1,3,121.93128,121.93128,124.409135,0,3,3,3,1,4,6,4,parrot      ,giraffe     ,html/resources/sequences_IDs/B/05_parrot.jpg,html/resources/sequences_IDs/B/03_giraffe.jpg,5,3,2,1,1,1,4,3,0,94,,,,,,,,,,,,,,,,,,,,
,,,,,94,2020-07-04_14h44.20.843,retriever_ti,2020.1.3,Win32,60,Chrome,1366,768,,,,,,,,,,,,,,,,,1,,,,,,,,,,,,,,,,,,,,,,,,,,,125.028715,5,left,0.46913,parrot      ,6,5,-1,0,0,125.06308,125.06308,127.556915,0,4,4,4,1,5,6,7,parrot      ,wolf          ,html/resources/sequences_IDs/B/05_parrot.jpg,html/resources/sequences_IDs/A/01_wolf.jpg,5,1,2,1,1,1,4,1,0,94,,,,,,,,,,,,,,,,,,,,
,,,,,94,2020-07-04_14h44.20.843,retriever_ti,2020.1.3,Win32,60,Chrome,1366,768,,,,,,,,,,,,,,,,,1,,,,,,,,,,,,,,,,,,,,,,,,,,,128.652355,6,right,0.4215,seaturtle     ,3,2,-1,0,1,128.69058,128.69058,131.187165,0,5,5,5,1,6,4,3,giraffe     ,seaturtle     ,html/resources/sequences_IDs/B/03_giraffe.jpg,html/resources/sequences_IDs/A/02_seaturtle.jpg,3,2,1,1,2,1,3,2,1,94,,,,,,,,,,,,,,,,,,,,
,,,,,94,2020-07-04_14h44.20.843,retriever_ti,2020.1.3,Win32,60,Chrome,1366,768,,,,,,,,,,,,,,,,,1,,,,,,,,,,,,,,,,,,,,,,,,,,,132.281695,7,right,0.673485,dress         ,1,7,-3,0,3,132.30681,132.30681,134.79761,0,6,6,6,1,7,4,1,giraffe     ,dress         ,html/resources/sequences_IDs/B/03_giraffe.jpg,html/resources/sequences_IDs/A/07_dress.jpg,3,7,1,1,3,2,3,6,0,94,,,,,,,,,,,,,,,,,,,,
,,,,,94,2020-07-04_14h44.20.843,retriever_ti,2020.1.3,Win32,60,Chrome,1366,768,,,,,,,,,,,,,,,,,1,,,,,,,,,,,,,,,,,,,,,,,,,,,135.41664,8,left,0.44839,seaturtle     ,3,2,1,1,1,135.585965,135.585965,138.069225,0,7,7,7,1,8,3,2,seaturtle     ,slipper     ,html/resources/sequences_IDs/A/02_seaturtle.jpg,html/resources/sequences_IDs/B/08_slipper.jpg,2,8,2,1,3,2,2,7,0,94,,,,,,,,,,,,,,,,,,,,
,,,,,94,2020-07-04_14h44.20.843,retriever_ti,2020.1.3,Win32,60,Chrome,1366,768,,,,,,,,,,,,,,,,,1,,,,,,,,,,,,,,,,,,,,,,,,,,,139.16625,9,right,0.59932,slipper     ,2,8,-3,0,3,139.18759,139.18759,141.680205,0,8,8,8,1,9,5,2,calculator    ,slipper     ,html/resources/sequences_IDs/A/09_calculator.jpg,html/resources/sequences_IDs/B/08_slipper.jpg,9,8,4,2,3,2,8,7,0,94,,,,,,,,,,,,,,,,,,,,
,,,,,94,2020-07-04_14h44.20.843,retriever_ti,2020.1.3,Win32,60,Chrome,1366,768,,,,,,,,,,,,,,,,,1,,,,,,,,,,,,,,,,,,,,,,,,,,,142.296,10,right,1.11787,calculator    ,5,9,-1,0,0,142.33972,142.33972,144.81957,0,9,9,9,1,10,6,5,parrot      ,calculator    ,html/resources/sequences_IDs/B/05_parrot.jpg,html/resources/sequences_IDs/A/09_calculator.jpg,5,9,2,1,4,2,4,8,0,94,,,,,,,,,,,,,,,,,,,,
,,,,,94,2020-07-04_14h44.20.843,retriever_ti,2020.1.3,Win32,60,Chrome,1366,768,,,,,,,,,,,,,,,,,1,,,,,,,,,,,,,,,,,,,,,,,,,,,145.92087,11,left,0.930215,giraffe     ,4,3,-1,0,0,145.937885,145.937885,148.42999,0,10,10,10,1,11,4,5,giraffe     ,calculator    ,html/resources/sequences_IDs/B/03_giraffe.jpg,html/resources/sequences_IDs/A/09_calculator.jpg,3,9,1,1,4,2,3,8,0,94,,,,,,,,,,,,,,,,,,,,
,,,,,94,2020-07-04_14h44.20.843,retriever_ti,2020.1.3,Win32,60,Chrome,1366,768,,,,,,,,,,,,,,,,,1,,,,,,,,,,,,,,,,,,,,,,,,,,,149.52641,12,right,0.764545,slipper     ,2,8,-2,0,3,149.548215,149.548215,152.04085,0,11,11,11,1,12,4,2,giraffe     ,slipper     ,html/resources/sequences_IDs/B/03_giraffe.jpg,html/resources/sequences_IDs/B/08_slipper.jpg,3,8,1,1,3,2,3,7,0,94,,,,,,,,,,,,,,,,,,,,
,,,,,94,2020-07-04_14h44.20.843,retriever_ti,2020.1.3,Win32,60,Chrome,1366,768,,,,,,,,,,,,,,,,,1,,,,,,,,,,,,,,,,,,,,,,,,,,,152.66028,13,right,0.87955,parrot      ,6,5,5,1,3,152.699295,152.699295,155.18761,0,12,12,12,1,13,1,6,dress         ,parrot      ,html/resources/sequences_IDs/A/07_dress.jpg,html/resources/sequences_IDs/B/05_parrot.jpg,7,5,3,2,2,1,6,4,0,94,,,,,,,,,,,,,,,,,,,,
,,,,,94,2020-07-04_14h44.20.843,retriever_ti,2020.1.3,Win32,60,Chrome,1366,768,,,,,,,,,,,,,,,,,1,,,,,,,,,,,,,,,,,,,,,,,,,,,155.8135,14,left,1.1668,seaturtle     ,3,2,-2,0,3,155.847645,155.847645,158.340615,0,13,13,13,1,14,3,5,seaturtle     ,calculator    ,html/resources/sequences_IDs/A/02_seaturtle.jpg,html/resources/sequences_IDs/A/09_calculator.jpg,2,9,2,1,4,2,2,8,0,94,,,,,,,,,,,,,,,,,,,,
,,,,,94,2020-07-04_14h44.20.843,retriever_ti,2020.1.3,Win32,60,Chrome,1366,768,,,,,,,,,,,,,,,,,1,,,,,,,,,,,,,,,,,,,,,,,,,,,158.946285,15,right,1.535645,giraffe     ,4,3,-1,0,1,158.9638,158.9638,161.455895,0,14,14,14,1,15,5,4,calculator    ,giraffe     ,html/resources/sequences_IDs/A/09_calculator.jpg,html/resources/sequences_IDs/B/03_giraffe.jpg,9,3,4,2,1,1,8,3,1,94,,,,,,,,,,,,,,,,,,,,
,,,,,94,2020-07-04_14h44.20.843,retriever_ti,2020.1.3,Win32,60,Chrome,1366,768,,,,,,,,,,,,,,,,,1,,,,,,,,,,,,,,,,,,,,,,,,,,,162.550315,16,right,1.14167,parrot      ,6,5,1,1,1,162.593995,162.593995,165.122885,0,15,15,15,1,16,5,6,calculator    ,parrot      ,html/resources/sequences_IDs/A/09_calculator.jpg,html/resources/sequences_IDs/B/05_parrot.jpg,9,5,4,2,2,1,8,4,0,94,,,,,,,,,,,,,,,,,,,,
,,,,,94,2020-07-04_14h44.20.843,retriever_ti,2020.1.3,Win32,60,Chrome,1366,768,,,,,,,,,,,,,,,,,1,,,,,,,,,,,,,,,,,,,,,,,,,,,166.22778,17,right,1.022105,wolf          ,7,1,4,1,3,166.24552,166.24552,168.73749,0,16,16,16,1,17,3,7,seaturtle     ,wolf          ,html/resources/sequences_IDs/A/02_seaturtle.jpg,html/resources/sequences_IDs/A/01_wolf.jpg,2,1,2,1,1,1,2,1,0,94,,,,,,,,,,,,,,,,,,,,
,,,,,94,2020-07-04_14h44.20.843,retriever_ti,2020.1.3,Win32,60,Chrome,1366,768,,,,,,,,,,,,,,,,,1,,,,,,,,,,,,,,,,,,,,,,,,,,,169.34988,18,right,0.663035,wolf          ,7,1,-1,0,0,169.373825,169.373825,171.85391,0,17,17,17,1,18,8,7,gloves      ,wolf          ,html/resources/sequences_IDs/B/06_gloves.jpg,html/resources/sequences_IDs/A/01_wolf.jpg,6,1,3,2,1,1,5,1,0,94,,,,,,,,,,,,,,,,,,,,
,,,,,94,2020-07-04_14h44.20.843,retriever_ti,2020.1.3,Win32,60,Chrome,1366,768,,,,,,,,,,,,,,,,,1,,,,,,,,,,,,,,,,,,,,,,,,,,,172.9508,19,left,0.83702,slipper     ,2,8,-1,0,1,172.970475,172.970475,175.46697,0,18,18,18,1,19,2,3,slipper     ,seaturtle     ,html/resources/sequences_IDs/B/08_slipper.jpg,html/resources/sequences_IDs/A/02_seaturtle.jpg,8,2,3,2,2,1,7,2,1,94,,,,,,,,,,,,,,,,,,,,
,,,,,94,2020-07-04_14h44.20.843,retriever_ti,2020.1.3,Win32,60,Chrome,1366,768,,,,,,,,,,,,,,,,,1,,,,,,,,,,,,,,,,,,,,,,,,,,,176.556345,20,left,1.510745,gloves      ,8,6,6,1,3,176.574715,176.574715,179.07912,0,19,19,19,1,20,8,2,gloves      ,slipper     ,html/resources/sequences_IDs/B/06_gloves.jpg,html/resources/sequences_IDs/B/08_slipper.jpg,6,8,3,2,3,2,5,7,0,94,,,,,,,,,,,,,,,,,,,,
,,,,,94,2020-07-04_14h44.20.843,retriever_ti,2020.1.3,Win32,60,Chrome,1366,768,,,,,,,,,,,,,,,,,1,,,,,,,,,,,,,,,,,,,,,,,,,,,179.699875,21,right,1.194695,calculator    ,5,9,-1,0,0,179.719785,179.719785,182.201375,0,20,20,20,1,21,6,5,parrot      ,calculator    ,html/resources/sequences_IDs/B/05_parrot.jpg,html/resources/sequences_IDs/A/09_calculator.jpg,5,9,2,1,4,2,4,8,0,94,,,,,,,,,,,,,,,,,,,,
,,,,,94,2020-07-04_14h44.20.843,retriever_ti,2020.1.3,Win32,60,Chrome,1366,768,,,,,,,,,,,,,,,,,1,,,,,,,,,,,,,,,,,,,,,,,,,,,183.301665,22,left,1.013735,giraffe     ,4,3,-1,0,0,183.32026,183.32026,185.810045,0,21,21,21,1,22,4,5,giraffe     ,calculator    ,html/resources/sequences_IDs/B/03_giraffe.jpg,html/resources/sequences_IDs/A/09_calculator.jpg,3,9,1,1,4,2,3,8,0,94,,,,,,,,,,,,,,,,,,,,
,,,,,94,2020-07-04_14h44.20.843,retriever_ti,2020.1.3,Win32,60,Chrome,1366,768,,,,,,,,,,,,,,,,,1,,,,,,,,,,,,,,,,,,,,,,,,,,,186.909565,23,left,0.96623,slipper     ,2,8,-1,0,0,186.950115,186.950115,189.427815,0,22,22,22,1,23,2,3,slipper     ,seaturtle     ,html/resources/sequences_IDs/B/08_slipper.jpg,html/resources/sequences_IDs/A/02_seaturtle.jpg,8,2,3,2,2,1,7,2,0,94,,,,,,,,,,,,,,,,,,,,
,,,,,94,2020-07-04_14h44.20.843,retriever_ti,2020.1.3,Win32,60,Chrome,1366,768,,,,,,,,,,,,,,,,,1,,,,,,,,,,,,,,,,,,,,,,,,,,,190.533855,24,left,1.146605,slipper     ,2,8,-4,0,3,190.56847,190.56847,193.05622,0,23,23,23,1,24,2,6,slipper     ,parrot      ,html/resources/sequences_IDs/B/08_slipper.jpg,html/resources/sequences_IDs/B/05_parrot.jpg,8,5,3,2,2,1,7,4,0,94,,,,,,,,,,,,,,,,,,,,
,,,,,94,2020-07-04_14h44.20.843,retriever_ti,2020.1.3,Win32,60,Chrome,1366,768,,,,,,,,,,,,,,,,,1,,,,,,,,,,,,,,,,,,,,,,,,,,,193.674825,25,left,1.060555,slipper     ,2,8,1,1,1,193.71163,193.71163,196.194155,0,24,24,24,1,25,2,1,slipper     ,dress         ,html/resources/sequences_IDs/B/08_slipper.jpg,html/resources/sequences_IDs/A/07_dress.jpg,8,7,3,2,3,2,7,6,0,94,,,,,,,,,,,,,,,,,,,,
,,,,,94,2020-07-04_14h44.20.843,retriever_ti,2020.1.3,Win32,60,Chrome,1366,768,,,,,,,,,,,,,,,,,1,,,,,,,,,,,,,,,,,,,,,,,,,,,197.292295,26,right,1.81425,parrot      ,6,5,1,1,1,197.328725,197.328725,199.809405,0,25,25,25,1,26,5,6,calculator    ,parrot      ,html/resources/sequences_IDs/A/09_calculator.jpg,html/resources/sequences_IDs/B/05_parrot.jpg,9,5,4,2,2,1,8,4,0,94,,,,,,,,,,,,,,,,,,,,
,,,,,94,2020-07-04_14h44.20.843,retriever_ti,2020.1.3,Win32,60,Chrome,1366,768,,,,,,,,,,,,,,,,,1,,,,,,,,,,,,,,,,,,,,,,,,,,,200.90441,27,right,1.473935,slipper     ,2,8,-5,0,3,200.920955,200.920955,203.410915,0,26,26,26,1,27,7,2,wolf          ,slipper     ,html/resources/sequences_IDs/A/01_wolf.jpg,html/resources/sequences_IDs/B/08_slipper.jpg,1,8,1,1,3,2,1,7,0,94,,,,,,,,,,,,,,,,,,,,
,,,,,94,2020-07-04_14h44.20.843,retriever_ti,2020.1.3,Win32,60,Chrome,1366,768,,,,,,,,,,,,,,,,,1,,,,,,,,,,,,,,,,,,,,,,,,,,,204.023,28,left,0.878175,calculator    ,5,9,4,1,3,204.133875,204.133875,206.54169,0,27,27,27,1,28,5,1,calculator    ,dress         ,html/resources/sequences_IDs/A/09_calculator.jpg,html/resources/sequences_IDs/A/07_dress.jpg,9,7,4,2,3,2,8,6,0,94,,,,,,,,,,,,,,,,,,,,
,,,,,94,2020-07-04_14h44.20.843,retriever_ti,2020.1.3,Win32,60,Chrome,1366,768,,,,,,,,,,,,,,,,,1,,,,,,,,,,,,,,,,,,,,,,,,,,,207.155465,29,right,1.18763,seaturtle     ,3,2,2,1,3,207.303375,207.303375,209.79299,0,28,28,28,1,29,1,3,dress         ,seaturtle     ,html/resources/sequences_IDs/A/07_dress.jpg,html/resources/sequences_IDs/A/02_seaturtle.jpg,7,2,3,2,2,1,6,2,0,94,,,,,,,,,,,,,,,,,,,,
,,,,,94,2020-07-04_14h44.20.843,retriever_ti,2020.1.3,Win32,60,Chrome,1366,768,,,,,,,,,,,,,,,,,1,,,,,,,,,,,,,,,,,,,,,,,,,,,210.40846,30,NaN,NaN,No_response,NaN,NaN,NaN,2,2,210.443505,210.443505,212.967235,0,29,29,29,1,30,8,7,gloves      ,wolf          ,html/resources/sequences_IDs/B/06_gloves.jpg,html/resources/sequences_IDs/A/01_wolf.jpg,6,1,3,2,1,1,5,1,1,94,,,,,,,,,,,,,,,,,,,,
,,,,,94,2020-07-04_14h44.20.843,retriever_ti,2020.1.3,Win32,60,Chrome,1366,768,,,,,,,,,,,,,,,,,1,,,,,,,,,,,,,,,,,,,,,,,,,,,214.060855,31,right,0.58202,wolf          ,7,1,6,1,3,214.08288,214.08288,216.57808,0,30,30,30,1,31,1,7,dress         ,wolf          ,html/resources/sequences_IDs/A/07_dress.jpg,html/resources/sequences_IDs/A/01_wolf.jpg,7,1,3,2,1,1,6,1,0,94,,,,,,,,,,,,,,,,,,,,
,,,,,94,2020-07-04_14h44.20.843,retriever_ti,2020.1.3,Win32,60,Chrome,1366,768,,,,,,,,,,,,,,,,,1,,,,,,,,,,,,,,,,,,,,,,,,,,,217.18473,32,right,0.5211,wolf          ,7,1,1,1,0,217.205265,217.205265,219.699595,0,31,31,31,1,32,6,7,parrot      ,wolf          ,html/resources/sequences_IDs/B/05_parrot.jpg,html/resources/sequences_IDs/A/01_wolf.jpg,5,1,2,1,1,1,4,1,1,94,,,,,,,,,,,,,,,,,,,,
,,,,,94,2020-07-04_14h44.20.843,retriever_ti,2020.1.3,Win32,60,Chrome,1366,768,,,,,,,,,,,,,,,,,1,,,,,,,,,,,,,,,,,,,,,,,,,,,220.808455,33,left,0.63872,slipper     ,2,8,1,1,1,220.838955,220.838955,223.359205,0,32,32,32,1,33,2,1,slipper     ,dress         ,html/resources/sequences_IDs/B/08_slipper.jpg,html/resources/sequences_IDs/A/07_dress.jpg,8,7,3,2,3,2,7,6,0,94,,,,,,,,,,,,,,,,,,,,
,,,,,94,2020-07-04_14h44.20.843,retriever_ti,2020.1.3,Win32,60,Chrome,1366,768,,,,,,,,,,,,,,,,,1,,,,,,,,,,,,,,,,,,,,,,,,,,,224.45267,34,left,0.330925,slipper     ,2,8,-2,0,3,224.49675,224.49675,226.989285,0,33,33,33,1,34,2,4,slipper     ,giraffe     ,html/resources/sequences_IDs/B/08_slipper.jpg,html/resources/sequences_IDs/B/03_giraffe.jpg,8,3,3,2,1,1,7,3,0,94,,,,,,,,,,,,,,,,,,,,
,,,,,94,2020-07-04_14h44.20.843,retriever_ti,2020.1.3,Win32,60,Chrome,1366,768,,,,,,,,,,,,,,,,,1,,,,,,,,,,,,,,,,,,,,,,,,,,,227.6119,35,right,0.54013,slipper     ,2,8,1,1,1,227.648745,227.648745,230.138615,0,34,34,34,1,35,1,2,dress         ,slipper     ,html/resources/sequences_IDs/A/07_dress.jpg,html/resources/sequences_IDs/B/08_slipper.jpg,7,8,3,2,3,2,6,7,0,94,,,,,,,,,,,,,,,,,,,,
,,,,,94,2020-07-04_14h44.20.843,retriever_ti,2020.1.3,Win32,60,Chrome,1366,768,,,,,,,,,,,,,,,,,1,,,,,,,,,,,,,,,,,,,,,,,,,,,231.24292,36,right,0.517765,seaturtle     ,3,2,-1,0,0,231.266205,231.266205,233.754065,0,35,35,35,1,36,4,3,giraffe     ,seaturtle     ,html/resources/sequences_IDs/B/03_giraffe.jpg,html/resources/sequences_IDs/A/02_seaturtle.jpg,3,2,1,1,2,1,3,2,0,94,,,,,,,,,,,,,,,,,,,,
,,,,,94,2020-07-04_14h44.20.843,retriever_ti,2020.1.3,Win32,60,Chrome,1366,768,,,,,,,,,,,,,,,,,1,,,,,,,,,,,,,,,,,,,,,,,,,,,234.85891,37,left,0.774305,dress         ,1,7,-4,0,3,234.882075,234.882075,237.365235,0,36,36,36,1,37,1,5,dress         ,calculator    ,html/resources/sequences_IDs/A/07_dress.jpg,html/resources/sequences_IDs/A/09_calculator.jpg,7,9,3,2,4,2,6,8,0,94,,,,,,,,,,,,,,,,,,,,
,,,,,94,2020-07-04_14h44.20.843,retriever_ti,2020.1.3,Win32,60,Chrome,1366,768,,,,,,,,,,,,,,,,,1,,,,,,,,,,,,,,,,,,,,,,,,,,,237.97254,38,right,0.00608,parrot      ,6,5,-2,0,3,238.01169,238.01169,240.500215,0,37,37,37,1,38,8,6,gloves      ,parrot      ,html/resources/sequences_IDs/B/06_gloves.jpg,html/resources/sequences_IDs/B/05_parrot.jpg,6,5,3,2,2,1,5,4,0,94,,,,,,,,,,,,,,,,,,,,
,,,,,94,2020-07-04_14h44.20.843,retriever_ti,2020.1.3,Win32,60,Chrome,1366,768,,,,,,,,,,,,,,,,,1,,,,,,,,,,,,,,,,,,,,,,,,,,,241.10831,39,left,0.82248,gloves      ,8,6,1,1,1,241.126645,241.126645,243.633175,0,38,38,38,1,39,8,7,gloves      ,wolf          ,html/resources/sequences_IDs/B/06_gloves.jpg,html/resources/sequences_IDs/A/01_wolf.jpg,6,1,3,2,1,1,5,1,0,94,,,,,,,,,,,,,,,,,,,,
,,,,,94,2020-07-04_14h44.20.843,retriever_ti,2020.1.3,Win32,60,Chrome,1366,768,,,,,,,,,,,,,,,,,1,,,,,,,,,,,,,,,,,,,,,,,,,,,244.734885,40,right,0.749605,dress         ,1,7,-6,0,3,244.76932,244.76932,247.254985,0,39,39,39,1,40,7,1,wolf          ,dress         ,html/resources/sequences_IDs/A/01_wolf.jpg,html/resources/sequences_IDs/A/07_dress.jpg,1,7,1,1,3,2,1,6,0,94,,,,,,,,,,,,,,,,,,,,
,,,,,94,2020-07-04_14h44.20.843,retriever_ti,2020.1.3,Win32,60,Chrome,1366,768,,,,,,,,,,,,,,,,,1,,,,,,,,,,,,,,,,,,,,,,,,,,,247.857045,41,right,0.349875,seaturtle     ,3,2,1,1,1,247.892345,247.892345,250.39075,0,40,40,40,1,41,2,3,slipper     ,seaturtle     ,html/resources/sequences_IDs/B/08_slipper.jpg,html/resources/sequences_IDs/A/02_seaturtle.jpg,8,2,3,2,2,1,7,2,0,94,,,,,,,,,,,,,,,,,,,,
,,,,,94,2020-07-04_14h44.20.843,retriever_ti,2020.1.3,Win32,60,Chrome,1366,768,,,,,,,,,,,,,,,,,1,,,,,,,,,,,,,,,,,,,,,,,,,,,251.49665,42,left,0.71065,seaturtle     ,3,2,-3,0,3,251.52122,251.52122,253.998285,0,41,41,41,1,42,3,6,seaturtle     ,parrot      ,html/resources/sequences_IDs/A/02_seaturtle.jpg,html/resources/sequences_IDs/B/05_parrot.jpg,2,5,2,1,2,1,2,4,0,94,,,,,,,,,,,,,,,,,,,,
,,,,,94,2020-07-04_14h44.20.843,retriever_ti,2020.1.3,Win32,60,Chrome,1366,768,,,,,,,,,,,,,,,,,1,,,,,,,,,,,,,,,,,,,,,,,,,,,254.615005,43,right,0.47538,seaturtle     ,3,2,-5,0,3,254.67343,254.67343,257.166325,0,42,42,42,1,43,8,3,gloves      ,seaturtle     ,html/resources/sequences_IDs/B/06_gloves.jpg,html/resources/sequences_IDs/A/02_seaturtle.jpg,6,2,3,2,2,1,5,2,0,94,,,,,,,,,,,,,,,,,,,,
,,,,,94,2020-07-04_14h44.20.843,retriever_ti,2020.1.3,Win32,60,Chrome,1366,768,,,,,,,,,,,,,,,,,1,,,,,,,,,,,,,,,,,,,,,,,,,,,257.78323,44,left,0.31329,dress         ,1,7,-3,0,3,257.82268,257.82268,260.309855,0,43,43,43,1,44,1,4,dress         ,giraffe     ,html/resources/sequences_IDs/A/07_dress.jpg,html/resources/sequences_IDs/B/03_giraffe.jpg,7,3,3,2,1,1,6,3,0,94,,,,,,,,,,,,,,,,,,,,
,,,,,94,2020-07-04_14h44.20.843,retriever_ti,2020.1.3,Win32,60,Chrome,1366,768,,,,,,,,,,,,,,,,,1,,,,,,,,,,,,,,,,,,,,,,,,,,,260.917365,45,right,0.23453,seaturtle     ,3,2,-3,0,3,260.954465,260.954465,263.445905,0,44,44,44,1,45,6,3,parrot      ,seaturtle     ,html/resources/sequences_IDs/B/05_parrot.jpg,html/resources/sequences_IDs/A/02_seaturtle.jpg,5,2,2,1,2,1,4,2,0,94,,,,,,,,,,,,,,,,,,,,
,,,,,94,2020-07-04_14h44.20.843,retriever_ti,2020.1.3,Win32,60,Chrome,1366,768,,,,,,,,,,,,,,,,,1,,,,,,,,,,,,,,,,,,,,,,,,,,,264.052025,46,right,0.704895,gloves      ,8,6,7,1,3,264.068955,264.068955,266.556495,0,45,45,45,1,46,1,8,dress         ,gloves      ,html/resources/sequences_IDs/A/07_dress.jpg,html/resources/sequences_IDs/B/06_gloves.jpg,7,6,3,2,3,2,6,5,0,94,,,,,,,,,,,,,,,,,,,,
,,,,,94,2020-07-04_14h44.20.843,retriever_ti,2020.1.3,Win32,60,Chrome,1366,768,,,,,,,,,,,,,,,,,1,,,,,,,,,,,,,,,,,,,,,,,,,,,267.17621,47,left,0.79865,wolf          ,7,1,1,1,1,267.200935,267.200935,269.696275,0,46,46,46,1,47,7,6,wolf          ,parrot      ,html/resources/sequences_IDs/A/01_wolf.jpg,html/resources/sequences_IDs/B/05_parrot.jpg,1,5,1,1,2,1,1,4,0,94,,,,,,,,,,,,,,,,,,,,
,,,,,94,2020-07-04_14h44.20.843,retriever_ti,2020.1.3,Win32,60,Chrome,1366,768,,,,,,,,,,,,,,,,,1,,,,,,,,,,,,,,,,,,,,,,,,,,,270.80117,48,left,0.84314,giraffe     ,4,3,1,1,1,270.83703,270.83703,273.325025,0,47,47,47,1,48,4,3,giraffe     ,seaturtle     ,html/resources/sequences_IDs/B/03_giraffe.jpg,html/resources/sequences_IDs/A/02_seaturtle.jpg,3,2,1,1,2,1,3,2,0,94,,,,,,,,,,,,,,,,,,,,
,,,,,94,2020-07-04_14h44.20.843,retriever_ti,2020.1.3,Win32,60,Chrome,1366,768,,,,,,,,,,,,,,,,,1,,,,,,,,,,,,,,,,,,,,,,,,,,,274.421305,49,left,0.652775,giraffe     ,4,3,-2,0,3,274.445335,274.445335,276.936895,0,48,48,48,1,49,4,6,giraffe     ,parrot      ,html/resources/sequences_IDs/B/03_giraffe.jpg,html/resources/sequences_IDs/B/05_parrot.jpg,3,5,1,1,2,1,3,4,0,94,,,,,,,,,,,,,,,,,,,,
,,,,,94,2020-07-04_14h44.20.843,retriever_ti,2020.1.3,Win32,60,Chrome,1366,768,,,,,,,,,,,,,,,,,1,,,,,,,,,,,,,,,,,,,,,,,,,,,277.557705,50,right,0.42246,giraffe     ,4,3,1,1,1,277.581215,277.581215,280.1373,0,49,49,49,1,50,3,4,seaturtle     ,giraffe     ,html/resources/sequences_IDs/A/02_seaturtle.jpg,html/resources/sequences_IDs/B/03_giraffe.jpg,2,3,2,1,1,1,2,3,0,94,,,,,,,,,,,,,,,,,,,,
,,,,,94,2020-07-04_14h44.20.843,retriever_ti,2020.1.3,Win32,60,Chrome,1366,768,,,,,,,,,,,,,,,,,1,,,,,,,,,,,,,,,,,,,,,,,,,,,281.23621,51,left,0.863515,seaturtle     ,3,2,2,1,3,281.25932,281.25932,283.7426,0,50,50,50,1,51,3,1,seaturtle     ,dress         ,html/resources/sequences_IDs/A/02_seaturtle.jpg,html/resources/sequences_IDs/A/07_dress.jpg,2,7,2,1,3,2,2,6,0,94,,,,,,,,,,,,,,,,,,,,
,,,,,94,2020-07-04_14h44.20.843,retriever_ti,2020.1.3,Win32,60,Chrome,1366,768,,,,,,,,,,,,,,,,,1,,,,,,,,,,,,,,,,,,,,,,,,,,,284.35572,52,right,0.93427,seaturtle     ,3,2,-2,0,3,284.37658,284.37658,286.877535,0,51,51,51,1,52,5,3,calculator    ,seaturtle     ,html/resources/sequences_IDs/A/09_calculator.jpg,html/resources/sequences_IDs/A/02_seaturtle.jpg,9,2,4,2,2,1,8,2,0,94,,,,,,,,,,,,,,,,,,,,
,,,,,94,2020-07-04_14h44.20.843,retriever_ti,2020.1.3,Win32,60,Chrome,1366,768,,,,,,,,,,,,,,,,,1,,,,,,,,,,,,,,,,,,,,,,,,,,,288.580875,53,left,0.60075,wolf          ,7,1,2,1,3,288.623725,288.623725,291.1027,0,52,52,52,1,53,7,5,wolf          ,calculator    ,html/resources/sequences_IDs/A/01_wolf.jpg,html/resources/sequences_IDs/A/09_calculator.jpg,1,9,1,1,4,2,1,8,0,94,,,,,,,,,,,,,,,,,,,,
,,,,,94,2020-07-04_14h44.20.843,retriever_ti,2020.1.3,Win32,60,Chrome,1366,768,,,,,,,,,,,,,,,,,1,,,,,,,,,,,,,,,,,,,,,,,,,,,291.71891,54,left,0.722675,gloves      ,8,6,4,1,3,291.73928,291.73928,294.247535,0,53,53,53,1,54,8,4,gloves      ,giraffe     ,html/resources/sequences_IDs/B/06_gloves.jpg,html/resources/sequences_IDs/B/03_giraffe.jpg,6,3,3,2,1,1,5,3,0,94,,,,,,,,,,,,,,,,,,,,
,,,,,94,2020-07-04_14h44.20.843,retriever_ti,2020.1.3,Win32,60,Chrome,1366,768,,,,,,,,,,,,,,,,,1,,,,,,,,,,,,,,,,,,,,,,,,,,,294.899175,55,left,0.911285,wolf          ,7,1,3,1,3,294.918085,294.918085,297.413045,0,54,54,54,1,55,7,4,wolf          ,giraffe     ,html/resources/sequences_IDs/A/01_wolf.jpg,html/resources/sequences_IDs/B/03_giraffe.jpg,1,3,1,1,1,1,1,3,0,94,,,,,,,,,,,,,,,,,,,,
,,,,,94,2020-07-04_14h44.20.843,retriever_ti,2020.1.3,Win32,60,Chrome,1366,768,,,,,,,,,,,,,,,,,1,,,,,,,,,,,,,,,,,,,,,,,,,,,298.019395,56,left,0.63349,slipper     ,2,8,-5,0,3,298.07149,298.07149,300.54743,0,55,55,55,1,56,2,7,slipper     ,wolf          ,html/resources/sequences_IDs/B/08_slipper.jpg,html/resources/sequences_IDs/A/01_wolf.jpg,8,1,3,2,1,1,7,1,0,94,,,,,,,,,,,,,,,,,,,,
,,,,,94,2020-07-04_14h44.20.843,retriever_ti,2020.1.3,Win32,60,Chrome,1366,768,,,,,,,,,,,,,,,,,1,,,,,,,,,,,,,,,,,,,,,,,,,,,301.161135,57,right,0.49063,slipper     ,2,8,1,1,1,301.20144,301.20144,303.68523,0,56,56,56,1,57,1,2,dress         ,slipper     ,html/resources/sequences_IDs/A/07_dress.jpg,html/resources/sequences_IDs/B/08_slipper.jpg,7,8,3,2,3,2,6,7,0,94,,,,,,,,,,,,,,,,,,,,
,,,,,94,2020-07-04_14h44.20.843,retriever_ti,2020.1.3,Win32,60,Chrome,1366,768,,,,,,,,,,,,,,,,,1,,,,,,,,,,,,,,,,,,,,,,,,,,,304.78355,58,NaN,NaN,No_response,NaN,NaN,NaN,2,2,304.818825,304.818825,309.938635,0,57,57,57,1,58,2,1,slipper     ,dress         ,html/resources/sequences_IDs/B/08_slipper.jpg,html/resources/sequences_IDs/A/07_dress.jpg,8,7,3,2,3,2,7,6,1,94,,,,,,,,,,,,,,,,,,,,
,,,,,94,2020-07-04_14h44.20.843,retriever_ti,2020.1.3,Win32,60,Chrome,1366,768,,,,,,,,,,,,,,,,,1,,,,,,,,,,,,,,,,,,,,,,,,,,,312.32865,59,left,0.65989,wolf          ,7,1,-1,0,0,312.3935,312.3935,314.88247,0,58,58,58,1,59,7,8,wolf          ,gloves      ,html/resources/sequences_IDs/A/01_wolf.jpg,html/resources/sequences_IDs/B/06_gloves.jpg,1,6,1,1,3,2,1,5,0,94,,,,,,,,,,,,,,,,,,,,
,,,,,94,2020-07-04_14h44.20.843,retriever_ti,2020.1.3,Win32,60,Chrome,1366,768,,,,,,,,,,,,,,,,,1,,,,,,,,,,,,,,,,,,,,,,,,,,,315.98687,60,right,0.53255,wolf          ,7,1,3,1,3,316.008705,316.008705,318.50292,0,59,59,59,1,60,4,7,giraffe     ,wolf          ,html/resources/sequences_IDs/B/03_giraffe.jpg,html/resources/sequences_IDs/A/01_wolf.jpg,3,1,1,1,1,1,3,1,0,94,,,,,,,,,,,,,,,,,,,,
,,,,,94,2020-07-04_14h44.20.843,retriever_ti,2020.1.3,Win32,60,Chrome,1366,768,,,,,,,,,,,,,,,,,1,,,,,,,,,,,,,,,,,,,,,,,,,,,319.121055,61,right,0.674405,calculator    ,5,9,3,1,3,319.142135,319.142135,321.62371,0,60,60,60,1,61,2,5,slipper     ,calculator    ,html/resources/sequences_IDs/B/08_slipper.jpg,html/resources/sequences_IDs/A/09_calculator.jpg,8,9,3,2,4,2,7,8,0,94,,,,,,,,,,,,,,,,,,,,
,,,,,94,2020-07-04_14h44.20.843,retriever_ti,2020.1.3,Win32,60,Chrome,1366,768,,,,,,,,,,,,,,,,,1,,,,,,,,,,,,,,,,,,,,,,,,,,,322.23623,62,right,0.452535,dress         ,1,7,-5,0,3,322.27689,322.27689,324.772055,0,61,61,61,1,62,6,1,parrot      ,dress         ,html/resources/sequences_IDs/B/05_parrot.jpg,html/resources/sequences_IDs/A/07_dress.jpg,5,7,2,1,3,2,4,6,0,94,,,,,,,,,,,,,,,,,,,,
,,,,,94,2020-07-04_14h44.20.843,retriever_ti,2020.1.3,Win32,60,Chrome,1366,768,,,,,,,,,,,,,,,,,1,,,,,,,,,,,,,,,,,,,,,,,,,,,325.37566,63,left,0.372105,calculator    ,5,9,1,1,1,325.408455,325.408455,327.899105,0,62,62,62,1,63,5,4,calculator    ,giraffe     ,html/resources/sequences_IDs/A/09_calculator.jpg,html/resources/sequences_IDs/B/03_giraffe.jpg,9,3,4,2,1,1,8,3,0,94,,,,,,,,,,,,,,,,,,,,
,,,,,94,2020-07-04_14h44.20.843,retriever_ti,2020.1.3,Win32,60,Chrome,1366,768,,,,,,,,,,,,,,,,,1,,,,,,,,,,,,,,,,,,,,,,,,,,,329.031725,64,left,0.58508,gloves      ,8,6,3,1,3,329.06919,329.06919,331.547025,0,63,63,63,1,64,8,5,gloves      ,calculator    ,html/resources/sequences_IDs/B/06_gloves.jpg,html/resources/sequences_IDs/A/09_calculator.jpg,6,9,3,2,4,2,5,8,0,94,,,,,,,,,,,,,,,,,,,,
,,,,,94,2020-07-04_14h44.20.843,retriever_ti,2020.1.3,Win32,60,Chrome,1366,768,,,,,,,,,,,,,,,,,1,,,,,,,,,,,,,,,,,,,,,,,,,,,332.15463,65,left,0.75715,parrot      ,6,5,-2,0,3,332.17199,332.17199,334.662635,0,64,64,64,1,65,6,8,parrot      ,gloves      ,html/resources/sequences_IDs/B/05_parrot.jpg,html/resources/sequences_IDs/B/06_gloves.jpg,5,6,2,1,3,2,4,5,0,94,,,,,,,,,,,,,,,,,,,,
,,,,,94,2020-07-04_14h44.20.843,retriever_ti,2020.1.3,Win32,60,Chrome,1366,768,,,,,,,,,,,,,,,,,1,,,,,,,,,,,,,,,,,,,,,,,,,,,335.27969,66,left,0.498505,calculator    ,5,9,-2,0,3,335.317615,335.317615,337.80454,0,65,65,65,1,66,5,7,calculator    ,wolf          ,html/resources/sequences_IDs/A/09_calculator.jpg,html/resources/sequences_IDs/A/01_wolf.jpg,9,1,4,2,1,1,8,1,0,94,,,,,,,,,,,,,,,,,,,,
,,,,,94,2020-07-04_14h44.20.843,retriever_ti,2020.1.3,Win32,60,Chrome,1366,768,,,,,,,,,,,,,,,,,1,,,,,,,,,,,,,,,,,,,,,,,,,,,338.41981,67,right,0.485925,gloves      ,8,6,3,1,3,338.436575,338.436575,340.93055,0,66,66,66,1,67,5,8,calculator    ,gloves      ,html/resources/sequences_IDs/A/09_calculator.jpg,html/resources/sequences_IDs/B/06_gloves.jpg,9,6,4,2,3,2,8,5,0,94,,,,,,,,,,,,,,,,,,,,
,,,,,94,2020-07-04_14h44.20.843,retriever_ti,2020.1.3,Win32,60,Chrome,1366,768,,,,,,,,,,,,,,,,,1,,,,,,,,,,,,,,,,,,,,,,,,,,,341.53184,68,right,0.54049,giraffe     ,4,3,-1,0,0,341.56978,341.56978,344.058845,0,67,67,67,1,68,5,4,calculator    ,giraffe     ,html/resources/sequences_IDs/A/09_calculator.jpg,html/resources/sequences_IDs/B/03_giraffe.jpg,9,3,4,2,1,1,8,3,0,94,,,,,,,,,,,,,,,,,,,,
,,,,,94,2020-07-04_14h44.20.843,retriever_ti,2020.1.3,Win32,60,Chrome,1366,768,,,,,,,,,,,,,,,,,1,,,,,,,,,,,,,,,,,,,,,,,,,,,345.160485,69,left,0.45564,gloves      ,8,6,7,1,3,345.183265,345.183265,347.66099,0,68,68,68,1,69,8,1,gloves      ,dress         ,html/resources/sequences_IDs/B/06_gloves.jpg,html/resources/sequences_IDs/A/07_dress.jpg,6,7,3,2,3,2,5,6,0,94,,,,,,,,,,,,,,,,,,,,
,,,,,94,2020-07-04_14h44.20.843,retriever_ti,2020.1.3,Win32,60,Chrome,1366,768,,,,,,,,,,,,,,,,,1,,,,,,,,,,,,,,,,,,,,,,,,,,,348.273675,70,left,0.60379,slipper     ,2,8,-6,0,3,348.31176,348.31176,350.811125,0,69,69,69,1,70,2,8,slipper     ,gloves      ,html/resources/sequences_IDs/B/08_slipper.jpg,html/resources/sequences_IDs/B/06_gloves.jpg,8,6,3,2,3,2,7,5,0,94,,,,,,,,,,,,,,,,,,,,
,,,,,94,2020-07-04_14h44.20.843,retriever_ti,2020.1.3,Win32,60,Chrome,1366,768,,,,,,,,,,,,,,,,,1,,,,,,,,,,,,,,,,,,,,,,,,,,,351.426455,71,right,0.448915,parrot      ,6,5,-1,0,0,351.463065,351.463065,353.95199,0,70,70,70,1,71,7,6,wolf          ,parrot      ,html/resources/sequences_IDs/A/01_wolf.jpg,html/resources/sequences_IDs/B/05_parrot.jpg,1,5,1,1,2,1,1,4,0,94,,,,,,,,,,,,,,,,,,,,
,,,,,94,2020-07-04_14h44.20.843,retriever_ti,2020.1.3,Win32,60,Chrome,1366,768,,,,,,,,,,,,,,,,,1,,,,,,,,,,,,,,,,,,,,,,,,,,,355.048365,72,left,0.58586,giraffe     ,4,3,-4,0,3,355.075735,355.075735,357.560455,0,71,71,71,1,72,4,8,giraffe     ,gloves      ,html/resources/sequences_IDs/B/03_giraffe.jpg,html/resources/sequences_IDs/B/06_gloves.jpg,3,6,1,1,3,2,3,5,0,94,,,,,,,,,,,,,,,,,,,,
,,,,,94,2020-07-04_14h44.20.843,retriever_ti,2020.1.3,Win32,60,Chrome,1366,768,,,,,,,,,,,,,,,,,1,,,,,,,,,,,,,,,,,,,,,,,,,,,358.17376,73,left,0.60471,seaturtle     ,3,2,-1,0,0,358.2113,358.2113,360.707335,0,72,72,72,1,73,3,4,seaturtle     ,giraffe     ,html/resources/sequences_IDs/A/02_seaturtle.jpg,html/resources/sequences_IDs/B/03_giraffe.jpg,2,3,2,1,1,1,2,3,0,94,,,,,,,,,,,,,,,,,,,,
,,,,,94,2020-07-04_14h44.20.843,retriever_ti,2020.1.3,Win32,60,Chrome,1366,768,,,,,,,,,,,,,,,,,1,,,,,,,,,,,,,,,,,,,,,,,,,,,361.823715,74,right,1.070265,wolf          ,7,1,1,1,1,361.842895,361.842895,364.334965,0,73,73,73,1,74,6,7,parrot      ,wolf          ,html/resources/sequences_IDs/B/05_parrot.jpg,html/resources/sequences_IDs/A/01_wolf.jpg,5,1,2,1,1,1,4,1,0,94,,,,,,,,,,,,,,,,,,,,
,,,,,94,2020-07-04_14h44.20.843,retriever_ti,2020.1.3,Win32,60,Chrome,1366,768,,,,,,,,,,,,,,,,,1,,,,,,,,,,,,,,,,,,,,,,,,,,,365.430745,75,left,0.781795,seaturtle     ,3,2,1,1,1,365.45467,365.45467,367.950005,0,74,74,74,1,75,3,2,seaturtle     ,slipper     ,html/resources/sequences_IDs/A/02_seaturtle.jpg,html/resources/sequences_IDs/B/08_slipper.jpg,2,8,2,1,3,2,2,7,0,94,,,,,,,,,,,,,,,,,,,,
,,,,,94,2020-07-04_14h44.20.843,retriever_ti,2020.1.3,Win32,60,Chrome,1366,768,,,,,,,,,,,,,,,,,1,,,,,,,,,,,,,,,,,,,,,,,,,,,369.045025,76,right,0.454915,slipper     ,2,8,-4,0,3,369.08805,369.08805,371.583035,0,75,75,75,1,76,6,2,parrot      ,slipper     ,html/resources/sequences_IDs/B/05_parrot.jpg,html/resources/sequences_IDs/B/08_slipper.jpg,5,8,2,1,3,2,4,7,0,94,,,,,,,,,,,,,,,,,,,,
,,,,,94,2020-07-04_14h44.20.843,retriever_ti,2020.1.3,Win32,60,Chrome,1366,768,,,,,,,,,,,,,,,,,1,,,,,,,,,,,,,,,,,,,,,,,,,,,372.220565,77,left,0.489535,calculator    ,5,9,-1,0,1,372.257135,372.257135,374.74753,0,76,76,76,1,77,5,6,calculator    ,parrot      ,html/resources/sequences_IDs/A/09_calculator.jpg,html/resources/sequences_IDs/B/05_parrot.jpg,9,5,4,2,2,1,8,4,1,94,,,,,,,,,,,,,,,,,,,,
,,,,,94,2020-07-04_14h44.20.843,retriever_ti,2020.1.3,Win32,60,Chrome,1366,768,,,,,,,,,,,,,,,,,,,,,,,,,,,,,,,,,,,,,0,1.7016,,,,,,,,,,,,,,,,,,,,,,,,,,,,,,,,,,,,,,,,,0,0,0,0,1,,,,,,,,,,,,,,,
,,,,,94,2020-07-04_14h44.20.843,retriever_ti,2020.1.3,Win32,60,Chrome,1366,768,,,,,,,,,,,,,,,,,2,,,,,,,,,,,,,,,,,,,,,,,,,,,386.612585,78,right,1.029465,slipper     ,2,8,-5,0,3,386.839515,386.839515,389.330835,0,0,0,0,1,78,7,2,wolf          ,slipper     ,html/resources/sequences_IDs/A/01_wolf.jpg,html/resources/sequences_IDs/B/08_slipper.jpg,1,8,1,1,3,2,1,7,0,94,,,,,,,,,,,,,,,,,,,,
,,,,,94,2020-07-04_14h44.20.843,retriever_ti,2020.1.3,Win32,60,Chrome,1366,768,,,,,,,,,,,,,,,,,2,,,,,,,,,,,,,,,,,,,,,,,,,,,389.944205,79,left,0.511265,gloves      ,8,6,1,1,1,389.97848,389.97848,392.47924,0,1,1,1,1,79,8,7,gloves      ,wolf          ,html/resources/sequences_IDs/B/06_gloves.jpg,html/resources/sequences_IDs/A/01_wolf.jpg,6,1,3,2,1,1,5,1,0,94,,,,,,,,,,,,,,,,,,,,
,,,,,94,2020-07-04_14h44.20.843,retriever_ti,2020.1.3,Win32,60,Chrome,1366,768,,,,,,,,,,,,,,,,,2,,,,,,,,,,,,,,,,,,,,,,,,,,,393.577145,80,left,0.480355,gloves      ,8,6,6,1,3,393.59581,393.59581,396.09533,0,2,2,2,1,80,8,2,gloves      ,slipper     ,html/resources/sequences_IDs/B/06_gloves.jpg,html/resources/sequences_IDs/B/08_slipper.jpg,6,8,3,2,3,2,5,7,0,94,,,,,,,,,,,,,,,,,,,,
,,,,,94,2020-07-04_14h44.20.843,retriever_ti,2020.1.3,Win32,60,Chrome,1366,768,,,,,,,,,,,,,,,,,2,,,,,,,,,,,,,,,,,,,,,,,,,,,396.709705,81,right,0.4625,parrot      ,6,5,5,1,3,396.72723,396.72723,399.421275,0,3,3,3,1,81,1,6,dress         ,parrot      ,html/resources/sequences_IDs/A/07_dress.jpg,html/resources/sequences_IDs/B/05_parrot.jpg,7,5,3,2,2,1,6,4,0,94,,,,,,,,,,,,,,,,,,,,
,,,,,94,2020-07-04_14h44.20.843,retriever_ti,2020.1.3,Win32,60,Chrome,1366,768,,,,,,,,,,,,,,,,,2,,,,,,,,,,,,,,,,,,,,,,,,,,,400.03562,82,right,0.767675,calculator    ,5,9,1,1,0,400.10599,400.10599,402.587715,0,4,4,4,1,82,4,5,giraffe     ,calculator    ,html/resources/sequences_IDs/B/03_giraffe.jpg,html/resources/sequences_IDs/A/09_calculator.jpg,3,9,1,1,4,2,3,8,1,94,,,,,,,,,,,,,,,,,,,,
,,,,,94,2020-07-04_14h44.20.843,retriever_ti,2020.1.3,Win32,60,Chrome,1366,768,,,,,,,,,,,,,,,,,2,,,,,,,,,,,,,,,,,,,,,,,,,,,403.71442,83,left,0.426625,wolf          ,7,1,4,1,3,403.77032,403.77032,406.23553,0,5,5,5,1,83,7,3,wolf          ,seaturtle     ,html/resources/sequences_IDs/A/01_wolf.jpg,html/resources/sequences_IDs/A/02_seaturtle.jpg,1,2,1,1,2,1,1,2,0,94,,,,,,,,,,,,,,,,,,,,
,,,,,94,2020-07-04_14h44.20.843,retriever_ti,2020.1.3,Win32,60,Chrome,1366,768,,,,,,,,,,,,,,,,,2,,,,,,,,,,,,,,,,,,,,,,,,,,,406.837995,84,right,0.339175,giraffe     ,4,3,3,1,3,406.857455,406.857455,409.34608,0,6,6,6,1,84,1,4,dress         ,giraffe     ,html/resources/sequences_IDs/A/07_dress.jpg,html/resources/sequences_IDs/B/03_giraffe.jpg,7,3,3,2,1,1,6,3,0,94,,,,,,,,,,,,,,,,,,,,
,,,,,94,2020-07-04_14h44.20.843,retriever_ti,2020.1.3,Win32,60,Chrome,1366,768,,,,,,,,,,,,,,,,,2,,,,,,,,,,,,,,,,,,,,,,,,,,,409.95472,85,left,0.256775,giraffe     ,4,3,2,1,3,409.99151,409.99151,412.47619,0,7,7,7,1,85,4,2,giraffe     ,slipper     ,html/resources/sequences_IDs/B/03_giraffe.jpg,html/resources/sequences_IDs/B/08_slipper.jpg,3,8,1,1,3,2,3,7,0,94,,,,,,,,,,,,,,,,,,,,
,,,,,94,2020-07-04_14h44.20.843,retriever_ti,2020.1.3,Win32,60,Chrome,1366,768,,,,,,,,,,,,,,,,,2,,,,,,,,,,,,,,,,,,,,,,,,,,,413.09678,86,right,0.140495,slipper     ,2,8,-3,0,3,413.11932,413.11932,415.61132,0,8,8,8,1,86,5,2,calculator    ,slipper     ,html/resources/sequences_IDs/A/09_calculator.jpg,html/resources/sequences_IDs/B/08_slipper.jpg,9,8,4,2,3,2,8,7,0,94,,,,,,,,,,,,,,,,,,,,
,,,,,94,2020-07-04_14h44.20.843,retriever_ti,2020.1.3,Win32,60,Chrome,1366,768,,,,,,,,,,,,,,,,,2,,,,,,,,,,,,,,,,,,,,,,,,,,,416.23302,87,right,0.493685,giraffe     ,4,3,-1,0,0,416.251275,416.251275,418.747195,0,9,9,9,1,87,5,4,calculator    ,giraffe     ,html/resources/sequences_IDs/A/09_calculator.jpg,html/resources/sequences_IDs/B/03_giraffe.jpg,9,3,4,2,1,1,8,3,0,94,,,,,,,,,,,,,,,,,,,,
,,,,,94,2020-07-04_14h44.20.843,retriever_ti,2020.1.3,Win32,60,Chrome,1366,768,,,,,,,,,,,,,,,,,2,,,,,,,,,,,,,,,,,,,,,,,,,,,419.85125,88,right,0.48214,calculator    ,5,9,1,1,1,419.91632,419.91632,422.36302,0,10,10,10,1,88,4,5,giraffe     ,calculator    ,html/resources/sequences_IDs/B/03_giraffe.jpg,html/resources/sequences_IDs/A/09_calculator.jpg,3,9,1,1,4,2,3,8,0,94,,,,,,,,,,,,,,,,,,,,
,,,,,94,2020-07-04_14h44.20.843,retriever_ti,2020.1.3,Win32,60,Chrome,1366,768,,,,,,,,,,,,,,,,,2,,,,,,,,,,,,,,,,,,,,,,,,,,,423.473545,89,left,0.602785,parrot      ,6,5,-1,0,0,423.514805,423.514805,425.991575,0,11,11,11,1,89,6,7,parrot      ,wolf          ,html/resources/sequences_IDs/B/05_parrot.jpg,html/resources/sequences_IDs/A/01_wolf.jpg,5,1,2,1,1,1,4,1,0,94,,,,,,,,,,,,,,,,,,,,
,,,,,94,2020-07-04_14h44.20.843,retriever_ti,2020.1.3,Win32,60,Chrome,1366,768,,,,,,,,,,,,,,,,,2,,,,,,,,,,,,,,,,,,,,,,,,,,,427.084875,90,right,0.278425,seaturtle     ,3,2,-5,0,3,427.111995,427.111995,429.60493,0,12,12,12,1,90,8,3,gloves      ,seaturtle     ,html/resources/sequences_IDs/B/06_gloves.jpg,html/resources/sequences_IDs/A/02_seaturtle.jpg,6,2,3,2,2,1,5,2,0,94,,,,,,,,,,,,,,,,,,,,
,,,,,94,2020-07-04_14h44.20.843,retriever_ti,2020.1.3,Win32,60,Chrome,1366,768,,,,,,,,,,,,,,,,,2,,,,,,,,,,,,,,,,,,,,,,,,,,,430.208385,91,right,0.58698,parrot      ,6,5,3,1,3,430.24438,430.24438,432.739095,0,13,13,13,1,91,3,6,seaturtle     ,parrot      ,html/resources/sequences_IDs/A/02_seaturtle.jpg,html/resources/sequences_IDs/B/05_parrot.jpg,2,5,2,1,2,1,2,4,0,94,,,,,,,,,,,,,,,,,,,,
,,,,,94,2020-07-04_14h44.20.843,retriever_ti,2020.1.3,Win32,60,Chrome,1366,768,,,,,,,,,,,,,,,,,2,,,,,,,,,,,,,,,,,,,,,,,,,,,433.344815,92,right,0.406925,calculator    ,5,9,-1,0,0,433.363565,433.363565,435.867465,0,14,14,14,1,92,6,5,parrot      ,calculator    ,html/resources/sequences_IDs/B/05_parrot.jpg,html/resources/sequences_IDs/A/09_calculator.jpg,5,9,2,1,4,2,4,8,0,94,,,,,,,,,,,,,,,,,,,,
,,,,,94,2020-07-04_14h44.20.843,retriever_ti,2020.1.3,Win32,60,Chrome,1366,768,,,,,,,,,,,,,,,,,2,,,,,,,,,,,,,,,,,,,,,,,,,,,436.970265,93,right,0.00692,parrot      ,6,5,-1,0,1,437.00973,437.00973,439.504135,0,15,15,15,1,93,7,6,wolf          ,parrot      ,html/resources/sequences_IDs/A/01_wolf.jpg,html/resources/sequences_IDs/B/05_parrot.jpg,1,5,1,1,2,1,1,4,1,94,,,,,,,,,,,,,,,,,,,,
,,,,,94,2020-07-04_14h44.20.843,retriever_ti,2020.1.3,Win32,60,Chrome,1366,768,,,,,,,,,,,,,,,,,2,,,,,,,,,,,,,,,,,,,,,,,,,,,440.69681,94,left,0.064825,calculator    ,5,9,2,1,3,440.713275,440.713275,443.22123,0,16,16,16,1,94,5,3,calculator    ,seaturtle     ,html/resources/sequences_IDs/A/09_calculator.jpg,html/resources/sequences_IDs/A/02_seaturtle.jpg,9,2,4,2,2,1,8,2,0,94,,,,,,,,,,,,,,,,,,,,
,,,,,94,2020-07-04_14h44.20.843,retriever_ti,2020.1.3,Win32,60,Chrome,1366,768,,,,,,,,,,,,,,,,,2,,,,,,,,,,,,,,,,,,,,,,,,,,,443.83224,95,right,0.476335,calculator    ,5,9,1,1,1,443.853965,443.853965,446.362315,0,17,17,17,1,95,4,5,giraffe     ,calculator    ,html/resources/sequences_IDs/B/03_giraffe.jpg,html/resources/sequences_IDs/A/09_calculator.jpg,3,9,1,1,4,2,3,8,0,94,,,,,,,,,,,,,,,,,,,,
,,,,,94,2020-07-04_14h44.20.843,retriever_ti,2020.1.3,Win32,60,Chrome,1366,768,,,,,,,,,,,,,,,,,2,,,,,,,,,,,,,,,,,,,,,,,,,,,447.466885,96,right,0.51036,wolf          ,7,1,-1,0,0,447.488415,447.488415,449.97876,0,18,18,18,1,96,8,7,gloves      ,wolf          ,html/resources/sequences_IDs/B/06_gloves.jpg,html/resources/sequences_IDs/A/01_wolf.jpg,6,1,3,2,1,1,5,1,0,94,,,,,,,,,,,,,,,,,,,,
,,,,,94,2020-07-04_14h44.20.843,retriever_ti,2020.1.3,Win32,60,Chrome,1366,768,,,,,,,,,,,,,,,,,2,,,,,,,,,,,,,,,,,,,,,,,,,,,451.07392,97,left,0.62884,wolf          ,7,1,1,1,1,451.117765,451.117765,453.609445,0,19,19,19,1,97,7,6,wolf          ,parrot      ,html/resources/sequences_IDs/A/01_wolf.jpg,html/resources/sequences_IDs/B/05_parrot.jpg,1,5,1,1,2,1,1,4,0,94,,,,,,,,,,,,,,,,,,,,
,,,,,94,2020-07-04_14h44.20.843,retriever_ti,2020.1.3,Win32,60,Chrome,1366,768,,,,,,,,,,,,,,,,,2,,,,,,,,,,,,,,,,,,,,,,,,,,,454.70764,98,right,0.53693,gloves      ,8,6,1,1,0,454.73865,454.73865,457.22526,0,20,20,20,1,98,7,8,wolf          ,gloves      ,html/resources/sequences_IDs/A/01_wolf.jpg,html/resources/sequences_IDs/B/06_gloves.jpg,1,6,1,1,3,2,1,5,1,94,,,,,,,,,,,,,,,,,,,,
,,,,,94,2020-07-04_14h44.20.843,retriever_ti,2020.1.3,Win32,60,Chrome,1366,768,,,,,,,,,,,,,,,,,2,,,,,,,,,,,,,,,,,,,,,,,,,,,458.318535,99,left,0.30204,dress         ,1,7,-2,0,3,458.359825,458.359825,460.8469,0,21,21,21,1,99,1,3,dress         ,seaturtle     ,html/resources/sequences_IDs/A/07_dress.jpg,html/resources/sequences_IDs/A/02_seaturtle.jpg,7,2,3,2,2,1,6,2,0,94,,,,,,,,,,,,,,,,,,,,
,,,,,94,2020-07-04_14h44.20.843,retriever_ti,2020.1.3,Win32,60,Chrome,1366,768,,,,,,,,,,,,,,,,,2,,,,,,,,,,,,,,,,,,,,,,,,,,,461.46602,100,right,0.36116,dress         ,1,7,-1,0,0,461.495115,461.495115,463.9871,0,22,22,22,1,100,2,1,slipper     ,dress         ,html/resources/sequences_IDs/B/08_slipper.jpg,html/resources/sequences_IDs/A/07_dress.jpg,8,7,3,2,3,2,7,6,0,94,,,,,,,,,,,,,,,,,,,,
,,,,,94,2020-07-04_14h44.20.843,retriever_ti,2020.1.3,Win32,60,Chrome,1366,768,,,,,,,,,,,,,,,,,2,,,,,,,,,,,,,,,,,,,,,,,,,,,465.080825,101,left,0.44459,slipper     ,2,8,1,1,1,465.115105,465.115105,467.6092,0,23,23,23,1,101,2,1,slipper     ,dress         ,html/resources/sequences_IDs/B/08_slipper.jpg,html/resources/sequences_IDs/A/07_dress.jpg,8,7,3,2,3,2,7,6,0,94,,,,,,,,,,,,,,,,,,,,
,,,,,94,2020-07-04_14h44.20.843,retriever_ti,2020.1.3,Win32,60,Chrome,1366,768,,,,,,,,,,,,,,,,,2,,,,,,,,,,,,,,,,,,,,,,,,,,,468.729815,102,left,0.691505,seaturtle     ,3,2,-1,0,1,468.77469,468.77469,471.26492,0,24,24,24,1,102,3,4,seaturtle     ,giraffe     ,html/resources/sequences_IDs/A/02_seaturtle.jpg,html/resources/sequences_IDs/B/03_giraffe.jpg,2,3,2,1,1,1,2,3,1,94,,,,,,,,,,,,,,,,,,,,
,,,,,94,2020-07-04_14h44.20.843,retriever_ti,2020.1.3,Win32,60,Chrome,1366,768,,,,,,,,,,,,,,,,,2,,,,,,,,,,,,,,,,,,,,,,,,,,,472.35867,103,left,0.480985,seaturtle     ,3,2,-2,0,3,472.39274,472.39274,474.890235,0,25,25,25,1,103,3,5,seaturtle     ,calculator    ,html/resources/sequences_IDs/A/02_seaturtle.jpg,html/resources/sequences_IDs/A/09_calculator.jpg,2,9,2,1,4,2,2,8,0,94,,,,,,,,,,,,,,,,,,,,
,,,,,94,2020-07-04_14h44.20.843,retriever_ti,2020.1.3,Win32,60,Chrome,1366,768,,,,,,,,,,,,,,,,,2,,,,,,,,,,,,,,,,,,,,,,,,,,,475.49281,104,left,0.54634,parrot      ,6,5,2,1,3,475.53143,475.53143,478.02539,0,26,26,26,1,104,6,4,parrot      ,giraffe     ,html/resources/sequences_IDs/B/05_parrot.jpg,html/resources/sequences_IDs/B/03_giraffe.jpg,5,3,2,1,1,1,4,3,0,94,,,,,,,,,,,,,,,,,,,,
,,,,,94,2020-07-04_14h44.20.843,retriever_ti,2020.1.3,Win32,60,Chrome,1366,768,,,,,,,,,,,,,,,,,2,,,,,,,,,,,,,,,,,,,,,,,,,,,478.641575,105,left,0.485975,wolf          ,7,1,1,1,1,478.65897,478.65897,481.162225,0,27,27,27,1,105,7,6,wolf          ,parrot      ,html/resources/sequences_IDs/A/01_wolf.jpg,html/resources/sequences_IDs/B/05_parrot.jpg,1,5,1,1,2,1,1,4,0,94,,,,,,,,,,,,,,,,,,,,
,,,,,94,2020-07-04_14h44.20.843,retriever_ti,2020.1.3,Win32,60,Chrome,1366,768,,,,,,,,,,,,,,,,,2,,,,,,,,,,,,,,,,,,,,,,,,,,,482.266415,106,left,0.602885,dress         ,1,7,-1,0,0,482.2917,482.2917,484.789035,0,28,28,28,1,106,1,2,dress         ,slipper     ,html/resources/sequences_IDs/A/07_dress.jpg,html/resources/sequences_IDs/B/08_slipper.jpg,7,8,3,2,3,2,6,7,0,94,,,,,,,,,,,,,,,,,,,,
,,,,,94,2020-07-04_14h44.20.843,retriever_ti,2020.1.3,Win32,60,Chrome,1366,768,,,,,,,,,,,,,,,,,2,,,,,,,,,,,,,,,,,,,,,,,,,,,485.88032,107,left,0.587505,slipper     ,2,8,-5,0,3,485.90147,485.90147,488.39794,0,29,29,29,1,107,2,7,slipper     ,wolf          ,html/resources/sequences_IDs/B/08_slipper.jpg,html/resources/sequences_IDs/A/01_wolf.jpg,8,1,3,2,1,1,7,1,0,94,,,,,,,,,,,,,,,,,,,,
,,,,,94,2020-07-04_14h44.20.843,retriever_ti,2020.1.3,Win32,60,Chrome,1366,768,,,,,,,,,,,,,,,,,2,,,,,,,,,,,,,,,,,,,,,,,,,,,489.016035,108,left,0.006805,wolf          ,7,1,3,1,3,489.05176,489.05176,491.534155,0,30,30,30,1,108,7,4,wolf          ,giraffe     ,html/resources/sequences_IDs/A/01_wolf.jpg,html/resources/sequences_IDs/B/03_giraffe.jpg,1,3,1,1,1,1,1,3,0,94,,,,,,,,,,,,,,,,,,,,
,,,,,94,2020-07-04_14h44.20.843,retriever_ti,2020.1.3,Win32,60,Chrome,1366,768,,,,,,,,,,,,,,,,,2,,,,,,,,,,,,,,,,,,,,,,,,,,,492.145685,109,left,0.69802,dress         ,1,7,-1,0,1,492.18355,492.18355,494.677155,0,31,31,31,1,109,1,2,dress         ,slipper     ,html/resources/sequences_IDs/A/07_dress.jpg,html/resources/sequences_IDs/B/08_slipper.jpg,7,8,3,2,3,2,6,7,1,94,,,,,,,,,,,,,,,,,,,,
,,,,,94,2020-07-04_14h44.20.843,retriever_ti,2020.1.3,Win32,60,Chrome,1366,768,,,,,,,,,,,,,,,,,2,,,,,,,,,,,,,,,,,,,,,,,,,,,495.7676,110,right,0.453375,parrot      ,6,5,1,1,1,495.7861,495.7861,498.282425,0,32,32,32,1,110,5,6,calculator    ,parrot      ,html/resources/sequences_IDs/A/09_calculator.jpg,html/resources/sequences_IDs/B/05_parrot.jpg,9,5,4,2,2,1,8,4,0,94,,,,,,,,,,,,,,,,,,,,
,,,,,94,2020-07-04_14h44.20.843,retriever_ti,2020.1.3,Win32,60,Chrome,1366,768,,,,,,,,,,,,,,,,,2,,,,,,,,,,,,,,,,,,,,,,,,,,,499.37518,111,right,0.438455,parrot      ,6,5,2,1,3,499.40198,499.40198,502.07775,0,33,33,33,1,111,4,6,giraffe     ,parrot      ,html/resources/sequences_IDs/B/03_giraffe.jpg,html/resources/sequences_IDs/B/05_parrot.jpg,3,5,1,1,2,1,3,4,0,94,,,,,,,,,,,,,,,,,,,,
,,,,,94,2020-07-04_14h44.20.843,retriever_ti,2020.1.3,Win32,60,Chrome,1366,768,,,,,,,,,,,,,,,,,2,,,,,,,,,,,,,,,,,,,,,,,,,,,502.695965,112,left,0.551895,parrot      ,6,5,-2,0,3,502.733385,502.733385,505.22012,0,34,34,34,1,112,6,8,parrot      ,gloves      ,html/resources/sequences_IDs/B/05_parrot.jpg,html/resources/sequences_IDs/B/06_gloves.jpg,5,6,2,1,3,2,4,5,0,94,,,,,,,,,,,,,,,,,,,,
,,,,,94,2020-07-04_14h44.20.843,retriever_ti,2020.1.3,Win32,60,Chrome,1366,768,,,,,,,,,,,,,,,,,2,,,,,,,,,,,,,,,,,,,,,,,,,,,505.84084,113,left,0.63047,gloves      ,8,6,7,1,3,505.87787,505.87787,508.36969,0,35,35,35,1,113,8,1,gloves      ,dress         ,html/resources/sequences_IDs/B/06_gloves.jpg,html/resources/sequences_IDs/A/07_dress.jpg,6,7,3,2,3,2,5,6,0,94,,,,,,,,,,,,,,,,,,,,
,,,,,94,2020-07-04_14h44.20.843,retriever_ti,2020.1.3,Win32,60,Chrome,1366,768,,,,,,,,,,,,,,,,,2,,,,,,,,,,,,,,,,,,,,,,,,,,,509.05651,114,left,0.586085,calculator    ,5,9,-1,0,0,509.176705,509.176705,511.71323,0,36,36,36,1,114,5,6,calculator    ,parrot      ,html/resources/sequences_IDs/A/09_calculator.jpg,html/resources/sequences_IDs/B/05_parrot.jpg,9,5,4,2,2,1,8,4,0,94,,,,,,,,,,,,,,,,,,,,
,,,,,94,2020-07-04_14h44.20.843,retriever_ti,2020.1.3,Win32,60,Chrome,1366,768,,,,,,,,,,,,,,,,,2,,,,,,,,,,,,,,,,,,,,,,,,,,,512.807815,115,right,0.35356,dress         ,1,7,-2,0,3,512.845775,512.845775,515.34425,0,37,37,37,1,115,3,1,seaturtle     ,dress         ,html/resources/sequences_IDs/A/02_seaturtle.jpg,html/resources/sequences_IDs/A/07_dress.jpg,2,7,2,1,3,2,2,6,0,94,,,,,,,,,,,,,,,,,,,,
,,,,,94,2020-07-04_14h44.20.843,retriever_ti,2020.1.3,Win32,60,Chrome,1366,768,,,,,,,,,,,,,,,,,2,,,,,,,,,,,,,,,,,,,,,,,,,,,515.95227,116,left,0.5717,dress         ,1,7,-6,0,3,515.97806,515.97806,518.48121,0,38,38,38,1,116,1,7,dress         ,wolf          ,html/resources/sequences_IDs/A/07_dress.jpg,html/resources/sequences_IDs/A/01_wolf.jpg,7,1,3,2,1,1,6,1,0,94,,,,,,,,,,,,,,,,,,,,
,,,,,94,2020-07-04_14h44.20.843,retriever_ti,2020.1.3,Win32,60,Chrome,1366,768,,,,,,,,,,,,,,,,,2,,,,,,,,,,,,,,,,,,,,,,,,,,,519.220325,117,right,0.00713,giraffe     ,4,3,1,1,1,520.96391,520.96391,523.476475,0,39,39,39,1,117,3,4,seaturtle     ,giraffe     ,html/resources/sequences_IDs/A/02_seaturtle.jpg,html/resources/sequences_IDs/B/03_giraffe.jpg,2,3,2,1,1,1,2,3,0,94,,,,,,,,,,,,,,,,,,,,
,,,,,94,2020-07-04_14h44.20.843,retriever_ti,2020.1.3,Win32,60,Chrome,1366,768,,,,,,,,,,,,,,,,,2,,,,,,,,,,,,,,,,,,,,,,,,,,,524.57482,118,right,0.021975,calculator    ,5,9,-1,0,1,524.60715,524.60715,527.567345,0,40,40,40,1,118,6,5,parrot      ,calculator    ,html/resources/sequences_IDs/B/05_parrot.jpg,html/resources/sequences_IDs/A/09_calculator.jpg,5,9,2,1,4,2,4,8,1,94,,,,,,,,,,,,,,,,,,,,
,,,,,94,2020-07-04_14h44.20.843,retriever_ti,2020.1.3,Win32,60,Chrome,1366,768,,,,,,,,,,,,,,,,,2,,,,,,,,,,,,,,,,,,,,,,,,,,,528.66286,119,right,0.006465,gloves      ,8,6,6,1,3,528.685605,528.685605,531.16584,0,41,41,41,1,119,2,8,slipper     ,gloves      ,html/resources/sequences_IDs/B/08_slipper.jpg,html/resources/sequences_IDs/B/06_gloves.jpg,8,6,3,2,3,2,7,5,0,94,,,,,,,,,,,,,,,,,,,,
,,,,,94,2020-07-04_14h44.20.843,retriever_ti,2020.1.3,Win32,60,Chrome,1366,768,,,,,,,,,,,,,,,,,2,,,,,,,,,,,,,,,,,,,,,,,,,,,531.947705,120,right,1.080965,giraffe     ,4,3,1,1,1,531.965915,531.965915,534.836545,0,42,42,42,1,120,3,4,seaturtle     ,giraffe     ,html/resources/sequences_IDs/A/02_seaturtle.jpg,html/resources/sequences_IDs/B/03_giraffe.jpg,2,3,2,1,1,1,2,3,0,94,,,,,,,,,,,,,,,,,,,,
,,,,,94,2020-07-04_14h44.20.843,retriever_ti,2020.1.3,Win32,60,Chrome,1366,768,,,,,,,,,,,,,,,,,2,,,,,,,,,,,,,,,,,,,,,,,,,,,535.93809,121,right,0.67047,wolf          ,7,1,2,1,3,535.976775,535.976775,538.51457,0,43,43,43,1,121,5,7,calculator    ,wolf          ,html/resources/sequences_IDs/A/09_calculator.jpg,html/resources/sequences_IDs/A/01_wolf.jpg,9,1,4,2,1,1,8,1,0,94,,,,,,,,,,,,,,,,,,,,
,,,,,94,2020-07-04_14h44.20.843,retriever_ti,2020.1.3,Win32,60,Chrome,1366,768,,,,,,,,,,,,,,,,,2,,,,,,,,,,,,,,,,,,,,,,,,,,,541.6825,122,right,0.00383,giraffe     ,4,3,2,1,3,542.14614,542.14614,544.724165,0,44,44,44,1,122,2,4,slipper     ,giraffe     ,html/resources/sequences_IDs/B/08_slipper.jpg,html/resources/sequences_IDs/B/03_giraffe.jpg,8,3,3,2,1,1,7,3,0,94,,,,,,,,,,,,,,,,,,,,
,,,,,94,2020-07-04_14h44.20.843,retriever_ti,2020.1.3,Win32,60,Chrome,1366,768,,,,,,,,,,,,,,,,,2,,,,,,,,,,,,,,,,,,,,,,,,,,,546.446295,123,left,0.549685,giraffe     ,4,3,1,1,1,546.47762,546.47762,548.96169,0,45,45,45,1,123,4,3,giraffe     ,seaturtle     ,html/resources/sequences_IDs/B/03_giraffe.jpg,html/resources/sequences_IDs/A/02_seaturtle.jpg,3,2,1,1,2,1,3,2,0,94,,,,,,,,,,,,,,,,,,,,
,,,,,94,2020-07-04_14h44.20.843,retriever_ti,2020.1.3,Win32,60,Chrome,1366,768,,,,,,,,,,,,,,,,,2,,,,,,,,,,,,,,,,,,,,,,,,,,,550.054675,124,right,0.00316,calculator    ,5,9,4,1,3,550.236765,550.236765,552.57877,0,46,46,46,1,124,1,5,dress         ,calculator    ,html/resources/sequences_IDs/A/07_dress.jpg,html/resources/sequences_IDs/A/09_calculator.jpg,7,9,3,2,4,2,6,8,0,94,,,,,,,,,,,,,,,,,,,,
,,,,,94,2020-07-04_14h44.20.843,retriever_ti,2020.1.3,Win32,60,Chrome,1366,768,,,,,,,,,,,,,,,,,2,,,,,,,,,,,,,,,,,,,,,,,,,,,553.190685,125,right,0.980535,seaturtle     ,3,2,1,1,1,553.2204,553.2204,555.84348,0,47,47,47,1,125,2,3,slipper     ,seaturtle     ,html/resources/sequences_IDs/B/08_slipper.jpg,html/resources/sequences_IDs/A/02_seaturtle.jpg,8,2,3,2,2,1,7,2,0,94,,,,,,,,,,,,,,,,,,,,
,,,,,94,2020-07-04_14h44.20.843,retriever_ti,2020.1.3,Win32,60,Chrome,1366,768,,,,,,,,,,,,,,,,,2,,,,,,,,,,,,,,,,,,,,,,,,,,,557.067145,126,right,0.733975,slipper     ,2,8,1,1,1,557.22533,557.22533,559.90735,0,48,48,48,1,126,1,2,dress         ,slipper     ,html/resources/sequences_IDs/A/07_dress.jpg,html/resources/sequences_IDs/B/08_slipper.jpg,7,8,3,2,3,2,6,7,0,94,,,,,,,,,,,,,,,,,,,,
,,,,,94,2020-07-04_14h44.20.843,retriever_ti,2020.1.3,Win32,60,Chrome,1366,768,,,,,,,,,,,,,,,,,2,,,,,,,,,,,,,,,,,,,,,,,,,,,561.08337,127,NaN,NaN,No_response,NaN,NaN,NaN,2,2,562.03904,562.03904,563.68314,0,49,49,49,1,127,7,8,wolf          ,gloves      ,html/resources/sequences_IDs/A/01_wolf.jpg,html/resources/sequences_IDs/B/06_gloves.jpg,1,6,1,1,3,2,1,5,0,94,,,,,,,,,,,,,,,,,,,,
,,,,,94,2020-07-04_14h44.20.843,retriever_ti,2020.1.3,Win32,60,Chrome,1366,768,,,,,,,,,,,,,,,,,2,,,,,,,,,,,,,,,,,,,,,,,,,,,564.786635,128,NaN,NaN,No_response,NaN,NaN,NaN,2,2,564.836955,564.836955,575.83171,0,50,50,50,1,128,8,5,gloves      ,calculator    ,html/resources/sequences_IDs/B/06_gloves.jpg,html/resources/sequences_IDs/A/09_calculator.jpg,6,9,3,2,4,2,5,8,0,94,,,,,,,,,,,,,,,,,,,,
,,,,,94,2020-07-04_14h44.20.843,retriever_ti,2020.1.3,Win32,60,Chrome,1366,768,,,,,,,,,,,,,,,,,2,,,,,,,,,,,,,,,,,,,,,,,,,,,579.378765,129,NaN,NaN,No_response,NaN,NaN,NaN,2,2,579.45939,579.45939,583.501725,0,51,51,51,1,129,3,2,seaturtle     ,slipper     ,html/resources/sequences_IDs/A/02_seaturtle.jpg,html/resources/sequences_IDs/B/08_slipper.jpg,2,8,2,1,3,2,2,7,0,94,,,,,,,,,,,,,,,,,,,,
,,,,,94,2020-07-04_14h44.20.843,retriever_ti,2020.1.3,Win32,60,Chrome,1366,768,,,,,,,,,,,,,,,,,2,,,,,,,,,,,,,,,,,,,,,,,,,,,634.423735,130,NaN,NaN,No_response,NaN,NaN,NaN,2,2,655.850095,655.850095,658.41253,0,52,52,52,1,130,4,3,giraffe     ,seaturtle     ,html/resources/sequences_IDs/B/03_giraffe.jpg,html/resources/sequences_IDs/A/02_seaturtle.jpg,3,2,1,1,2,1,3,2,0,94,,,,,,,,,,,,,,,,,,,,
,,,,,94,2020-07-04_14h44.20.843,retriever_ti,2020.1.3,Win32,60,Chrome,1366,768,,,,,,,,,,,,,,,,,2,,,,,,,,,,,,,,,,,,,,,,,,,,,660.569935,131,right,0.00887,dress         ,1,7,-4,0,3,660.590705,660.590705,663.089555,0,53,53,53,1,131,5,1,calculator    ,dress         ,html/resources/sequences_IDs/A/09_calculator.jpg,html/resources/sequences_IDs/A/07_dress.jpg,9,7,4,2,3,2,8,6,0,94,,,,,,,,,,,,,,,,,,,,
,,,,,94,2020-07-04_14h44.20.843,retriever_ti,2020.1.3,Win32,60,Chrome,1366,768,,,,,,,,,,,,,,,,,2,,,,,,,,,,,,,,,,,,,,,,,,,,,663.7001,132,right,0.18762,gloves      ,8,6,3,1,3,663.78202,663.78202,666.338065,0,54,54,54,1,132,5,8,calculator    ,gloves      ,html/resources/sequences_IDs/A/09_calculator.jpg,html/resources/sequences_IDs/B/06_gloves.jpg,9,6,4,2,3,2,8,5,0,94,,,,,,,,,,,,,,,,,,,,
,,,,,94,2020-07-04_14h44.20.843,retriever_ti,2020.1.3,Win32,60,Chrome,1366,768,,,,,,,,,,,,,,,,,2,,,,,,,,,,,,,,,,,,,,,,,,,,,666.9542,133,left,0.92684,giraffe     ,4,3,-4,0,3,666.975125,666.975125,669.454425,0,55,55,55,1,133,4,8,giraffe     ,gloves      ,html/resources/sequences_IDs/B/03_giraffe.jpg,html/resources/sequences_IDs/B/06_gloves.jpg,3,6,1,1,3,2,3,5,0,94,,,,,,,,,,,,,,,,,,,,
,,,,,94,2020-07-04_14h44.20.843,retriever_ti,2020.1.3,Win32,60,Chrome,1366,768,,,,,,,,,,,,,,,,,2,,,,,,,,,,,,,,,,,,,,,,,,,,,670.06873,134,left,0.50259,giraffe     ,4,3,3,1,3,670.106855,670.106855,672.59014,0,56,56,56,1,134,4,1,giraffe     ,dress         ,html/resources/sequences_IDs/B/03_giraffe.jpg,html/resources/sequences_IDs/A/07_dress.jpg,3,7,1,1,3,2,3,6,0,94,,,,,,,,,,,,,,,,,,,,
,,,,,94,2020-07-04_14h44.20.843,retriever_ti,2020.1.3,Win32,60,Chrome,1366,768,,,,,,,,,,,,,,,,,2,,,,,,,,,,,,,,,,,,,,,,,,,,,673.227435,135,left,0.006775,seaturtle     ,3,2,-4,0,3,673.32394,673.32394,675.729315,0,57,57,57,1,135,3,7,seaturtle     ,wolf          ,html/resources/sequences_IDs/A/02_seaturtle.jpg,html/resources/sequences_IDs/A/01_wolf.jpg,2,1,2,1,1,1,2,1,0,94,,,,,,,,,,,,,,,,,,,,
,,,,,94,2020-07-04_14h44.20.843,retriever_ti,2020.1.3,Win32,60,Chrome,1366,768,,,,,,,,,,,,,,,,,2,,,,,,,,,,,,,,,,,,,,,,,,,,,676.3387,136,right,0.391835,dress         ,1,7,-6,0,3,676.444365,676.444365,678.847885,0,58,58,58,1,136,7,1,wolf          ,dress         ,html/resources/sequences_IDs/A/01_wolf.jpg,html/resources/sequences_IDs/A/07_dress.jpg,1,7,1,1,3,2,1,6,0,94,,,,,,,,,,,,,,,,,,,,
,,,,,94,2020-07-04_14h44.20.843,retriever_ti,2020.1.3,Win32,60,Chrome,1366,768,,,,,,,,,,,,,,,,,2,,,,,,,,,,,,,,,,,,,,,,,,,,,679.457675,137,right,0.033795,parrot      ,6,5,-2,0,3,679.545985,679.545985,681.96844,0,59,59,59,1,137,8,6,gloves      ,parrot      ,html/resources/sequences_IDs/B/06_gloves.jpg,html/resources/sequences_IDs/B/05_parrot.jpg,6,5,3,2,2,1,5,4,0,94,,,,,,,,,,,,,,,,,,,,
,,,,,94,2020-07-04_14h44.20.843,retriever_ti,2020.1.3,Win32,60,Chrome,1366,768,,,,,,,,,,,,,,,,,2,,,,,,,,,,,,,,,,,,,,,,,,,,,682.58025,138,left,0.961985,gloves      ,8,6,4,1,3,682.604405,682.604405,685.09277,0,60,60,60,1,138,8,4,gloves      ,giraffe     ,html/resources/sequences_IDs/B/06_gloves.jpg,html/resources/sequences_IDs/B/03_giraffe.jpg,6,3,3,2,1,1,5,3,0,94,,,,,,,,,,,,,,,,,,,,
,,,,,94,2020-07-04_14h44.20.843,retriever_ti,2020.1.3,Win32,60,Chrome,1366,768,,,,,,,,,,,,,,,,,2,,,,,,,,,,,,,,,,,,,,,,,,,,,685.70019,139,left,0.954175,slipper     ,2,8,-4,0,3,685.733615,685.733615,688.22488,0,61,61,61,1,139,2,6,slipper     ,parrot      ,html/resources/sequences_IDs/B/08_slipper.jpg,html/resources/sequences_IDs/B/05_parrot.jpg,8,5,3,2,2,1,7,4,0,94,,,,,,,,,,,,,,,,,,,,
,,,,,94,2020-07-04_14h44.20.843,retriever_ti,2020.1.3,Win32,60,Chrome,1366,768,,,,,,,,,,,,,,,,,2,,,,,,,,,,,,,,,,,,,,,,,,,,,688.853255,140,right,0.38331,giraffe     ,4,3,-1,0,0,688.88691,688.88691,691.430995,0,62,62,62,1,140,5,4,calculator    ,giraffe     ,html/resources/sequences_IDs/A/09_calculator.jpg,html/resources/sequences_IDs/B/03_giraffe.jpg,9,3,4,2,1,1,8,3,0,94,,,,,,,,,,,,,,,,,,,,
,,,,,94,2020-07-04_14h44.20.843,retriever_ti,2020.1.3,Win32,60,Chrome,1366,768,,,,,,,,,,,,,,,,,2,,,,,,,,,,,,,,,,,,,,,,,,,,,692.563925,141,right,0.573525,calculator    ,5,9,-2,0,3,692.581295,692.581295,695.07773,0,63,63,63,1,141,7,5,wolf          ,calculator    ,html/resources/sequences_IDs/A/01_wolf.jpg,html/resources/sequences_IDs/A/09_calculator.jpg,1,9,1,1,4,2,1,8,0,94,,,,,,,,,,,,,,,,,,,,
,,,,,94,2020-07-04_14h44.20.843,retriever_ti,2020.1.3,Win32,60,Chrome,1366,768,,,,,,,,,,,,,,,,,2,,,,,,,,,,,,,,,,,,,,,,,,,,,695.71834,142,left,0.535095,giraffe     ,4,3,-3,0,3,695.747515,695.747515,698.238805,0,64,64,64,1,142,4,7,giraffe     ,wolf          ,html/resources/sequences_IDs/B/03_giraffe.jpg,html/resources/sequences_IDs/A/01_wolf.jpg,3,1,1,1,1,1,3,1,0,94,,,,,,,,,,,,,,,,,,,,
,,,,,94,2020-07-04_14h44.20.843,retriever_ti,2020.1.3,Win32,60,Chrome,1366,768,,,,,,,,,,,,,,,,,2,,,,,,,,,,,,,,,,,,,,,,,,,,,698.8622,143,right,0.636805,dress         ,1,7,-5,0,3,698.88027,698.88027,701.369225,0,65,65,65,1,143,6,1,parrot      ,dress         ,html/resources/sequences_IDs/B/05_parrot.jpg,html/resources/sequences_IDs/A/07_dress.jpg,5,7,2,1,3,2,4,6,0,94,,,,,,,,,,,,,,,,,,,,
,,,,,94,2020-07-04_14h44.20.843,retriever_ti,2020.1.3,Win32,60,Chrome,1366,768,,,,,,,,,,,,,,,,,2,,,,,,,,,,,,,,,,,,,,,,,,,,,701.98902,144,left,0.207805,seaturtle     ,3,2,-5,0,3,702.009345,702.009345,704.49901,0,66,66,66,1,144,3,8,seaturtle     ,gloves      ,html/resources/sequences_IDs/A/02_seaturtle.jpg,html/resources/sequences_IDs/B/06_gloves.jpg,2,6,2,1,3,2,2,5,0,94,,,,,,,,,,,,,,,,,,,,
,,,,,94,2020-07-04_14h44.20.843,retriever_ti,2020.1.3,Win32,60,Chrome,1366,768,,,,,,,,,,,,,,,,,2,,,,,,,,,,,,,,,,,,,,,,,,,,,705.10649,145,right,0.56629,calculator    ,5,9,-1,0,0,705.145145,705.145145,707.622755,0,67,67,67,1,145,6,5,parrot      ,calculator    ,html/resources/sequences_IDs/B/05_parrot.jpg,html/resources/sequences_IDs/A/09_calculator.jpg,5,9,2,1,4,2,4,8,0,94,,,,,,,,,,,,,,,,,,,,
,,,,,94,2020-07-04_14h44.20.843,retriever_ti,2020.1.3,Win32,60,Chrome,1366,768,,,,,,,,,,,,,,,,,2,,,,,,,,,,,,,,,,,,,,,,,,,,,708.715005,146,left,0.589175,parrot      ,6,5,4,1,3,708.86264,708.86264,711.237165,0,68,68,68,1,146,6,2,parrot      ,slipper     ,html/resources/sequences_IDs/B/05_parrot.jpg,html/resources/sequences_IDs/B/08_slipper.jpg,5,8,2,1,3,2,4,7,0,94,,,,,,,,,,,,,,,,,,,,
,,,,,94,2020-07-04_14h44.20.843,retriever_ti,2020.1.3,Win32,60,Chrome,1366,768,,,,,,,,,,,,,,,,,2,,,,,,,,,,,,,,,,,,,,,,,,,,,711.89423,147,left,0.95747,dress         ,1,7,-7,0,3,711.92881,711.92881,714.404635,0,69,69,69,1,147,1,8,dress         ,gloves      ,html/resources/sequences_IDs/A/07_dress.jpg,html/resources/sequences_IDs/B/06_gloves.jpg,7,6,3,2,3,2,6,5,0,94,,,,,,,,,,,,,,,,,,,,
,,,,,94,2020-07-04_14h44.20.843,retriever_ti,2020.1.3,Win32,60,Chrome,1366,768,,,,,,,,,,,,,,,,,2,,,,,,,,,,,,,,,,,,,,,,,,,,,715.022625,148,right,1.401095,gloves      ,8,6,1,1,1,715.06045,715.06045,717.545885,0,70,70,70,1,148,7,8,wolf          ,gloves      ,html/resources/sequences_IDs/A/01_wolf.jpg,html/resources/sequences_IDs/B/06_gloves.jpg,1,6,1,1,3,2,1,5,0,94,,,,,,,,,,,,,,,,,,,,
,,,,,94,2020-07-04_14h44.20.843,retriever_ti,2020.1.3,Win32,60,Chrome,1366,768,,,,,,,,,,,,,,,,,2,,,,,,,,,,,,,,,,,,,,,,,,,,,718.63979,149,right,0.485455,slipper     ,2,8,-1,0,1,718.674015,718.674015,721.33421,0,71,71,71,1,149,3,2,seaturtle     ,slipper     ,html/resources/sequences_IDs/A/02_seaturtle.jpg,html/resources/sequences_IDs/B/08_slipper.jpg,2,8,2,1,3,2,2,7,1,94,,,,,,,,,,,,,,,,,,,,
,,,,,94,2020-07-04_14h44.20.843,retriever_ti,2020.1.3,Win32,60,Chrome,1366,768,,,,,,,,,,,,,,,,,2,,,,,,,,,,,,,,,,,,,,,,,,,,,722.437305,150,left,0.49232,slipper     ,2,8,-1,0,0,722.5493,722.5493,724.976175,0,72,72,72,1,150,2,3,slipper     ,seaturtle     ,html/resources/sequences_IDs/B/08_slipper.jpg,html/resources/sequences_IDs/A/02_seaturtle.jpg,8,2,3,2,2,1,7,2,0,94,,,,,,,,,,,,,,,,,,,,
,,,,,94,2020-07-04_14h44.20.843,retriever_ti,2020.1.3,Win32,60,Chrome,1366,768,,,,,,,,,,,,,,,,,2,,,,,,,,,,,,,,,,,,,,,,,,,,,726.0807,151,right,0.006595,calculator    ,5,9,3,1,3,726.10239,726.10239,728.592695,0,73,73,73,1,151,2,5,slipper     ,calculator    ,html/resources/sequences_IDs/B/08_slipper.jpg,html/resources/sequences_IDs/A/09_calculator.jpg,8,9,3,2,4,2,7,8,0,94,,,,,,,,,,,,,,,,,,,,
,,,,,94,2020-07-04_14h44.20.843,retriever_ti,2020.1.3,Win32,60,Chrome,1366,768,,,,,,,,,,,,,,,,,2,,,,,,,,,,,,,,,,,,,,,,,,,,,729.210115,152,right,0.473845,wolf          ,7,1,1,1,1,729.231695,729.231695,731.72502,0,74,74,74,1,152,6,7,parrot      ,wolf          ,html/resources/sequences_IDs/B/05_parrot.jpg,html/resources/sequences_IDs/A/01_wolf.jpg,5,1,2,1,1,1,4,1,0,94,,,,,,,,,,,,,,,,,,,,
,,,,,94,2020-07-04_14h44.20.843,retriever_ti,2020.1.3,Win32,60,Chrome,1366,768,,,,,,,,,,,,,,,,,2,,,,,,,,,,,,,,,,,,,,,,,,,,,732.829185,153,left,0.00776,parrot      ,6,5,3,1,3,732.851465,732.851465,735.344095,0,75,75,75,1,153,6,3,parrot      ,seaturtle     ,html/resources/sequences_IDs/B/05_parrot.jpg,html/resources/sequences_IDs/A/02_seaturtle.jpg,5,2,2,1,2,1,4,2,0,94,,,,,,,,,,,,,,,,,,,,
,,,,,94,2020-07-04_14h44.20.843,retriever_ti,2020.1.3,Win32,60,Chrome,1366,768,,,,,,,,,,,,,,,,,2,,,,,,,,,,,,,,,,,,,,,,,,,,,735.946195,154,right,0.41029,slipper     ,2,8,-1,0,0,736.00138,736.00138,738.49344,0,76,76,76,1,154,3,2,seaturtle     ,slipper     ,html/resources/sequences_IDs/A/02_seaturtle.jpg,html/resources/sequences_IDs/B/08_slipper.jpg,2,8,2,1,3,2,2,7,0,94,,,,,,,,,,,,,,,,,,,,
,,,,,94,2020-07-04_14h44.20.843,retriever_ti,2020.1.3,Win32,60,Chrome,1366,768,,,,,,,,,,,,,,,,,,,,,,,,,,,,,,,,,,,,,0,5.4095,,,,,,,,,,,,,,,,,,,,,,,,,,,,,,,,,,,,,,,,,1,0,1,0,1,,,,,,,,,,,,,,,
,,,,,94,2020-07-04_14h44.20.843,retriever_ti,2020.1.3,Win32,60,Chrome,1366,768,,,,,,,,,,,,,,,,,3,,,,,,,,,,,,,,,,,,,,,,,,,,,759.178455,155,right,0.95288,wolf          ,7,1,2,1,3,759.306645,759.306645,761.762345,0,0,0,0,1,155,5,7,calculator    ,wolf          ,html/resources/sequences_IDs/A/09_calculator.jpg,html/resources/sequences_IDs/A/01_wolf.jpg,9,1,4,2,1,1,8,1,0,94,,,,,,,,,,,,,,,,,,,,
,,,,,94,2020-07-04_14h44.20.843,retriever_ti,2020.1.3,Win32,60,Chrome,1366,768,,,,,,,,,,,,,,,,,3,,,,,,,,,,,,,,,,,,,,,,,,,,,762.380465,156,left,0.542925,wolf          ,7,1,3,1,3,762.4011,762.4011,764.891,0,1,1,1,1,156,7,4,wolf          ,giraffe     ,html/resources/sequences_IDs/A/01_wolf.jpg,html/resources/sequences_IDs/B/03_giraffe.jpg,1,3,1,1,1,1,1,3,0,94,,,,,,,,,,,,,,,,,,,,
,,,,,94,2020-07-04_14h44.20.843,retriever_ti,2020.1.3,Win32,60,Chrome,1366,768,,,,,,,,,,,,,,,,,3,,,,,,,,,,,,,,,,,,,,,,,,,,,765.51016,157,right,0.01139,calculator    ,5,9,3,1,3,765.53159,765.53159,768.024,0,2,2,2,1,157,2,5,slipper     ,calculator    ,html/resources/sequences_IDs/B/08_slipper.jpg,html/resources/sequences_IDs/A/09_calculator.jpg,8,9,3,2,4,2,7,8,0,94,,,,,,,,,,,,,,,,,,,,
,,,,,94,2020-07-04_14h44.20.843,retriever_ti,2020.1.3,Win32,60,Chrome,1366,768,,,,,,,,,,,,,,,,,3,,,,,,,,,,,,,,,,,,,,,,,,,,,768.643615,158,left,0.006595,slipper     ,2,8,-1,0,0,768.70459,768.70459,771.14847,0,3,3,3,1,158,2,3,slipper     ,seaturtle     ,html/resources/sequences_IDs/B/08_slipper.jpg,html/resources/sequences_IDs/A/02_seaturtle.jpg,8,2,3,2,2,1,7,2,0,94,,,,,,,,,,,,,,,,,,,,
,,,,,94,2020-07-04_14h44.20.843,retriever_ti,2020.1.3,Win32,60,Chrome,1366,768,,,,,,,,,,,,,,,,,3,,,,,,,,,,,,,,,,,,,,,,,,,,,772.242655,159,left,0.69769,parrot      ,6,5,-1,0,0,772.26684,772.26684,774.763245,0,4,4,4,1,159,6,7,parrot      ,wolf          ,html/resources/sequences_IDs/B/05_parrot.jpg,html/resources/sequences_IDs/A/01_wolf.jpg,5,1,2,1,1,1,4,1,0,94,,,,,,,,,,,,,,,,,,,,
,,,,,94,2020-07-04_14h44.20.843,retriever_ti,2020.1.3,Win32,60,Chrome,1366,768,,,,,,,,,,,,,,,,,3,,,,,,,,,,,,,,,,,,,,,,,,,,,775.856755,160,left,0.73021,seaturtle     ,3,2,-1,0,0,775.894575,775.894575,778.37697,0,5,5,5,1,160,3,4,seaturtle     ,giraffe     ,html/resources/sequences_IDs/A/02_seaturtle.jpg,html/resources/sequences_IDs/B/03_giraffe.jpg,2,3,2,1,1,1,2,3,0,94,,,,,,,,,,,,,,,,,,,,
,,,,,94,2020-07-04_14h44.20.843,retriever_ti,2020.1.3,Win32,60,Chrome,1366,768,,,,,,,,,,,,,,,,,3,,,,,,,,,,,,,,,,,,,,,,,,,,,779.471525,161,right,0.56006,giraffe     ,4,3,-2,0,3,779.510065,779.510065,781.991815,0,6,6,6,1,161,6,4,parrot      ,giraffe     ,html/resources/sequences_IDs/B/05_parrot.jpg,html/resources/sequences_IDs/B/03_giraffe.jpg,5,3,2,1,1,1,4,3,0,94,,,,,,,,,,,,,,,,,,,,
,,,,,94,2020-07-04_14h44.20.843,retriever_ti,2020.1.3,Win32,60,Chrome,1366,768,,,,,,,,,,,,,,,,,3,,,,,,,,,,,,,,,,,,,,,,,,,,,782.610255,162,left,0.348005,slipper     ,2,8,-5,0,3,782.644325,782.644325,785.128545,0,7,7,7,1,162,2,7,slipper     ,wolf          ,html/resources/sequences_IDs/B/08_slipper.jpg,html/resources/sequences_IDs/A/01_wolf.jpg,8,1,3,2,1,1,7,1,0,94,,,,,,,,,,,,,,,,,,,,
,,,,,94,2020-07-04_14h44.20.843,retriever_ti,2020.1.3,Win32,60,Chrome,1366,768,,,,,,,,,,,,,,,,,3,,,,,,,,,,,,,,,,,,,,,,,,,,,785.740695,163,right,0.65419,parrot      ,6,5,1,1,1,785.76239,785.76239,788.32824,0,8,8,8,1,163,5,6,calculator    ,parrot      ,html/resources/sequences_IDs/A/09_calculator.jpg,html/resources/sequences_IDs/B/05_parrot.jpg,9,5,4,2,2,1,8,4,0,94,,,,,,,,,,,,,,,,,,,,
,,,,,94,2020-07-04_14h44.20.843,retriever_ti,2020.1.3,Win32,60,Chrome,1366,768,,,,,,,,,,,,,,,,,3,,,,,,,,,,,,,,,,,,,,,,,,,,,789.431355,164,right,0.48569,seaturtle     ,3,2,-1,0,0,789.453575,789.453575,791.947925,0,9,9,9,1,164,4,3,giraffe     ,seaturtle     ,html/resources/sequences_IDs/B/03_giraffe.jpg,html/resources/sequences_IDs/A/02_seaturtle.jpg,3,2,1,1,2,1,3,2,0,94,,,,,,,,,,,,,,,,,,,,
,,,,,94,2020-07-04_14h44.20.843,retriever_ti,2020.1.3,Win32,60,Chrome,1366,768,,,,,,,,,,,,,,,,,3,,,,,,,,,,,,,,,,,,,,,,,,,,,793.04633,165,left,0.429625,calculator    ,5,9,3,1,3,793.083455,793.083455,795.579975,0,10,10,10,1,165,5,2,calculator    ,slipper     ,html/resources/sequences_IDs/A/09_calculator.jpg,html/resources/sequences_IDs/B/08_slipper.jpg,9,8,4,2,3,2,8,7,0,94,,,,,,,,,,,,,,,,,,,,
,,,,,94,2020-07-04_14h44.20.843,retriever_ti,2020.1.3,Win32,60,Chrome,1366,768,,,,,,,,,,,,,,,,,3,,,,,,,,,,,,,,,,,,,,,,,,,,,796.18553,166,right,0.352065,calculator    ,5,9,4,1,3,796.20563,796.20563,798.692215,0,11,11,11,1,166,1,5,dress         ,calculator    ,html/resources/sequences_IDs/A/07_dress.jpg,html/resources/sequences_IDs/A/09_calculator.jpg,7,9,3,2,4,2,6,8,0,94,,,,,,,,,,,,,,,,,,,,
,,,,,94,2020-07-04_14h44.20.843,retriever_ti,2020.1.3,Win32,60,Chrome,1366,768,,,,,,,,,,,,,,,,,3,,,,,,,,,,,,,,,,,,,,,,,,,,,799.404745,167,left,0.36381,calculator    ,5,9,-1,0,0,799.42942,799.42942,801.908395,0,12,12,12,1,167,5,6,calculator    ,parrot      ,html/resources/sequences_IDs/A/09_calculator.jpg,html/resources/sequences_IDs/B/05_parrot.jpg,9,5,4,2,2,1,8,4,0,94,,,,,,,,,,,,,,,,,,,,
,,,,,94,2020-07-04_14h44.20.843,retriever_ti,2020.1.3,Win32,60,Chrome,1366,768,,,,,,,,,,,,,,,,,3,,,,,,,,,,,,,,,,,,,,,,,,,,,803.016975,168,right,0.79647,slipper     ,2,8,-5,0,3,803.036645,803.036645,805.539265,0,13,13,13,1,168,7,2,wolf          ,slipper     ,html/resources/sequences_IDs/A/01_wolf.jpg,html/resources/sequences_IDs/B/08_slipper.jpg,1,8,1,1,3,2,1,7,0,94,,,,,,,,,,,,,,,,,,,,
,,,,,94,2020-07-04_14h44.20.843,retriever_ti,2020.1.3,Win32,60,Chrome,1366,768,,,,,,,,,,,,,,,,,3,,,,,,,,,,,,,,,,,,,,,,,,,,,806.149005,169,left,0.547675,gloves      ,8,6,3,1,3,806.168515,806.168515,808.659595,0,14,14,14,1,169,8,5,gloves      ,calculator    ,html/resources/sequences_IDs/B/06_gloves.jpg,html/resources/sequences_IDs/A/09_calculator.jpg,6,9,3,2,4,2,5,8,0,94,,,,,,,,,,,,,,,,,,,,
,,,,,94,2020-07-04_14h44.20.843,retriever_ti,2020.1.3,Win32,60,Chrome,1366,768,,,,,,,,,,,,,,,,,3,,,,,,,,,,,,,,,,,,,,,,,,,,,809.27643,170,left,0.63445,seaturtle     ,3,2,-4,0,3,809.313595,809.313595,811.80528,0,15,15,15,1,170,3,7,seaturtle     ,wolf          ,html/resources/sequences_IDs/A/02_seaturtle.jpg,html/resources/sequences_IDs/A/01_wolf.jpg,2,1,2,1,1,1,2,1,0,94,,,,,,,,,,,,,,,,,,,,
,,,,,94,2020-07-04_14h44.20.843,retriever_ti,2020.1.3,Win32,60,Chrome,1366,768,,,,,,,,,,,,,,,,,3,,,,,,,,,,,,,,,,,,,,,,,,,,,812.42343,171,left,0.68771,slipper     ,2,8,1,1,1,812.4632,812.4632,814.957,0,16,16,16,1,171,2,1,slipper     ,dress         ,html/resources/sequences_IDs/B/08_slipper.jpg,html/resources/sequences_IDs/A/07_dress.jpg,8,7,3,2,3,2,7,6,0,94,,,,,,,,,,,,,,,,,,,,
,,,,,94,2020-07-04_14h44.20.843,retriever_ti,2020.1.3,Win32,60,Chrome,1366,768,,,,,,,,,,,,,,,,,3,,,,,,,,,,,,,,,,,,,,,,,,,,,816.056835,172,left,0.651335,slipper     ,2,8,-2,0,3,816.105285,816.105285,818.57442,0,17,17,17,1,172,2,4,slipper     ,giraffe     ,html/resources/sequences_IDs/B/08_slipper.jpg,html/resources/sequences_IDs/B/03_giraffe.jpg,8,3,3,2,1,1,7,3,0,94,,,,,,,,,,,,,,,,,,,,
,,,,,94,2020-07-04_14h44.20.843,retriever_ti,2020.1.3,Win32,60,Chrome,1366,768,,,,,,,,,,,,,,,,,3,,,,,,,,,,,,,,,,,,,,,,,,,,,819.17968,173,right,0.832995,giraffe     ,4,3,-1,0,0,819.257055,819.257055,821.704845,0,18,18,18,1,173,5,4,calculator    ,giraffe     ,html/resources/sequences_IDs/A/09_calculator.jpg,html/resources/sequences_IDs/B/03_giraffe.jpg,9,3,4,2,1,1,8,3,0,94,,,,,,,,,,,,,,,,,,,,
,,,,,94,2020-07-04_14h44.20.843,retriever_ti,2020.1.3,Win32,60,Chrome,1366,768,,,,,,,,,,,,,,,,,3,,,,,,,,,,,,,,,,,,,,,,,,,,,822.809605,174,left,0.56561,seaturtle     ,3,2,-2,0,3,822.8412,822.8412,825.322835,0,19,19,19,1,174,3,5,seaturtle     ,calculator    ,html/resources/sequences_IDs/A/02_seaturtle.jpg,html/resources/sequences_IDs/A/09_calculator.jpg,2,9,2,1,4,2,2,8,0,94,,,,,,,,,,,,,,,,,,,,
,,,,,94,2020-07-04_14h44.20.843,retriever_ti,2020.1.3,Win32,60,Chrome,1366,768,,,,,,,,,,,,,,,,,3,,,,,,,,,,,,,,,,,,,,,,,,,,,825.962275,175,right,0.375265,parrot      ,6,5,-1,0,0,826.010035,826.010035,828.617485,0,20,20,20,1,175,7,6,wolf          ,parrot      ,html/resources/sequences_IDs/A/01_wolf.jpg,html/resources/sequences_IDs/B/05_parrot.jpg,1,5,1,1,2,1,1,4,0,94,,,,,,,,,,,,,,,,,,,,
,,,,,94,2020-07-04_14h44.20.843,retriever_ti,2020.1.3,Win32,60,Chrome,1366,768,,,,,,,,,,,,,,,,,3,,,,,,,,,,,,,,,,,,,,,,,,,,,829.71881,176,left,0.488275,seaturtle     ,3,2,1,1,0,829.739325,829.739325,832.234015,0,21,21,21,1,176,3,2,seaturtle     ,slipper     ,html/resources/sequences_IDs/A/02_seaturtle.jpg,html/resources/sequences_IDs/B/08_slipper.jpg,2,8,2,1,3,2,2,7,1,94,,,,,,,,,,,,,,,,,,,,
,,,,,94,2020-07-04_14h44.20.843,retriever_ti,2020.1.3,Win32,60,Chrome,1366,768,,,,,,,,,,,,,,,,,3,,,,,,,,,,,,,,,,,,,,,,,,,,,833.330355,177,left,0.6259,gloves      ,8,6,1,1,1,833.43411,833.43411,835.845345,0,22,22,22,1,177,8,7,gloves      ,wolf          ,html/resources/sequences_IDs/B/06_gloves.jpg,html/resources/sequences_IDs/A/01_wolf.jpg,6,1,3,2,1,1,5,1,0,94,,,,,,,,,,,,,,,,,,,,
,,,,,94,2020-07-04_14h44.20.843,retriever_ti,2020.1.3,Win32,60,Chrome,1366,768,,,,,,,,,,,,,,,,,3,,,,,,,,,,,,,,,,,,,,,,,,,,,836.949895,178,left,0.00744,dress         ,1,7,-1,0,0,836.972265,836.972265,839.46206,0,23,23,23,1,178,1,2,dress         ,slipper     ,html/resources/sequences_IDs/A/07_dress.jpg,html/resources/sequences_IDs/B/08_slipper.jpg,7,8,3,2,3,2,6,7,0,94,,,,,,,,,,,,,,,,,,,,
,,,,,94,2020-07-04_14h44.20.843,retriever_ti,2020.1.3,Win32,60,Chrome,1366,768,,,,,,,,,,,,,,,,,3,,,,,,,,,,,,,,,,,,,,,,,,,,,840.609265,179,right,0.530695,parrot      ,6,5,2,1,3,840.635215,840.635215,843.125515,0,24,24,24,1,179,4,6,giraffe     ,parrot      ,html/resources/sequences_IDs/B/03_giraffe.jpg,html/resources/sequences_IDs/B/05_parrot.jpg,3,5,1,1,2,1,3,4,0,94,,,,,,,,,,,,,,,,,,,,
,,,,,94,2020-07-04_14h44.20.843,retriever_ti,2020.1.3,Win32,60,Chrome,1366,768,,,,,,,,,,,,,,,,,3,,,,,,,,,,,,,,,,,,,,,,,,,,,843.745635,180,left,0.432975,slipper     ,2,8,-1,0,0,843.84328,843.84328,846.265995,0,25,25,25,1,180,2,3,slipper     ,seaturtle     ,html/resources/sequences_IDs/B/08_slipper.jpg,html/resources/sequences_IDs/A/02_seaturtle.jpg,8,2,3,2,2,1,7,2,0,94,,,,,,,,,,,,,,,,,,,,
,,,,,94,2020-07-04_14h44.20.843,retriever_ti,2020.1.3,Win32,60,Chrome,1366,768,,,,,,,,,,,,,,,,,3,,,,,,,,,,,,,,,,,,,,,,,,,,,847.398595,181,right,0.00466,seaturtle     ,3,2,2,1,3,847.43112,847.43112,849.926705,0,26,26,26,1,181,1,3,dress         ,seaturtle     ,html/resources/sequences_IDs/A/07_dress.jpg,html/resources/sequences_IDs/A/02_seaturtle.jpg,7,2,3,2,2,1,6,2,0,94,,,,,,,,,,,,,,,,,,,,
,,,,,94,2020-07-04_14h44.20.843,retriever_ti,2020.1.3,Win32,60,Chrome,1366,768,,,,,,,,,,,,,,,,,3,,,,,,,,,,,,,,,,,,,,,,,,,,,850.548105,182,left,0.00589,gloves      ,8,6,1,1,1,850.58018,850.58018,853.06545,0,27,27,27,1,182,8,7,gloves      ,wolf          ,html/resources/sequences_IDs/B/06_gloves.jpg,html/resources/sequences_IDs/A/01_wolf.jpg,6,1,3,2,1,1,5,1,0,94,,,,,,,,,,,,,,,,,,,,
,,,,,94,2020-07-04_14h44.20.843,retriever_ti,2020.1.3,Win32,60,Chrome,1366,768,,,,,,,,,,,,,,,,,3,,,,,,,,,,,,,,,,,,,,,,,,,,,854.166735,183,right,0.47126,calculator    ,5,9,1,1,0,854.21049,854.21049,856.689875,0,28,28,28,1,183,4,5,giraffe     ,calculator    ,html/resources/sequences_IDs/B/03_giraffe.jpg,html/resources/sequences_IDs/A/09_calculator.jpg,3,9,1,1,4,2,3,8,1,94,,,,,,,,,,,,,,,,,,,,
,,,,,94,2020-07-04_14h44.20.843,retriever_ti,2020.1.3,Win32,60,Chrome,1366,768,,,,,,,,,,,,,,,,,3,,,,,,,,,,,,,,,,,,,,,,,,,,,857.78282,184,right,0.28993,seaturtle     ,3,2,-2,0,3,857.81217,857.81217,860.30624,0,29,29,29,1,184,5,3,calculator    ,seaturtle     ,html/resources/sequences_IDs/A/09_calculator.jpg,html/resources/sequences_IDs/A/02_seaturtle.jpg,9,2,4,2,2,1,8,2,0,94,,,,,,,,,,,,,,,,,,,,
,,,,,94,2020-07-04_14h44.20.843,retriever_ti,2020.1.3,Win32,60,Chrome,1366,768,,,,,,,,,,,,,,,,,3,,,,,,,,,,,,,,,,,,,,,,,,,,,860.967695,185,left,0.454375,dress         ,1,7,-7,0,3,860.98807,860.98807,863.47345,0,30,30,30,1,185,1,8,dress         ,gloves      ,html/resources/sequences_IDs/A/07_dress.jpg,html/resources/sequences_IDs/B/06_gloves.jpg,7,6,3,2,3,2,6,5,0,94,,,,,,,,,,,,,,,,,,,,
,,,,,94,2020-07-04_14h44.20.843,retriever_ti,2020.1.3,Win32,60,Chrome,1366,768,,,,,,,,,,,,,,,,,3,,,,,,,,,,,,,,,,,,,,,,,,,,,864.09142,186,left,0.34069,wolf          ,7,1,4,1,3,864.12747,864.12747,866.62759,0,31,31,31,1,186,7,3,wolf          ,seaturtle     ,html/resources/sequences_IDs/A/01_wolf.jpg,html/resources/sequences_IDs/A/02_seaturtle.jpg,1,2,1,1,2,1,1,2,0,94,,,,,,,,,,,,,,,,,,,,
,,,,,94,2020-07-04_14h44.20.843,retriever_ti,2020.1.3,Win32,60,Chrome,1366,768,,,,,,,,,,,,,,,,,3,,,,,,,,,,,,,,,,,,,,,,,,,,,867.233695,187,right,0.540105,giraffe     ,4,3,-1,0,0,867.275005,867.275005,869.767235,0,32,32,32,1,187,5,4,calculator    ,giraffe     ,html/resources/sequences_IDs/A/09_calculator.jpg,html/resources/sequences_IDs/B/03_giraffe.jpg,9,3,4,2,1,1,8,3,0,94,,,,,,,,,,,,,,,,,,,,
,,,,,94,2020-07-04_14h44.20.843,retriever_ti,2020.1.3,Win32,60,Chrome,1366,768,,,,,,,,,,,,,,,,,3,,,,,,,,,,,,,,,,,,,,,,,,,,,870.86304,188,left,0.469315,parrot      ,6,5,-1,0,0,870.90149,870.90149,873.397545,0,33,33,33,1,188,6,7,parrot      ,wolf          ,html/resources/sequences_IDs/B/05_parrot.jpg,html/resources/sequences_IDs/A/01_wolf.jpg,5,1,2,1,1,1,4,1,0,94,,,,,,,,,,,,,,,,,,,,
,,,,,94,2020-07-04_14h44.20.843,retriever_ti,2020.1.3,Win32,60,Chrome,1366,768,,,,,,,,,,,,,,,,,3,,,,,,,,,,,,,,,,,,,,,,,,,,,874.49024,189,right,0.139695,slipper     ,2,8,-1,0,0,874.625015,874.625015,877.017505,0,34,34,34,1,189,3,2,seaturtle     ,slipper     ,html/resources/sequences_IDs/A/02_seaturtle.jpg,html/resources/sequences_IDs/B/08_slipper.jpg,2,8,2,1,3,2,2,7,0,94,,,,,,,,,,,,,,,,,,,,
,,,,,94,2020-07-04_14h44.20.843,retriever_ti,2020.1.3,Win32,60,Chrome,1366,768,,,,,,,,,,,,,,,,,3,,,,,,,,,,,,,,,,,,,,,,,,,,,878.1132,190,left,0.992405,dress         ,1,7,-5,0,3,878.135705,878.135705,880.63065,0,35,35,35,1,190,1,6,dress         ,parrot      ,html/resources/sequences_IDs/A/07_dress.jpg,html/resources/sequences_IDs/B/05_parrot.jpg,7,5,3,2,2,1,6,4,0,94,,,,,,,,,,,,,,,,,,,,
,,,,,94,2020-07-04_14h44.20.843,retriever_ti,2020.1.3,Win32,60,Chrome,1366,768,,,,,,,,,,,,,,,,,3,,,,,,,,,,,,,,,,,,,,,,,,,,,881.23266,191,right,0.597865,seaturtle     ,3,2,-1,0,0,881.26967,881.26967,883.76027,0,36,36,36,1,191,4,3,giraffe     ,seaturtle     ,html/resources/sequences_IDs/B/03_giraffe.jpg,html/resources/sequences_IDs/A/02_seaturtle.jpg,3,2,1,1,2,1,3,2,0,94,,,,,,,,,,,,,,,,,,,,
,,,,,94,2020-07-04_14h44.20.843,retriever_ti,2020.1.3,Win32,60,Chrome,1366,768,,,,,,,,,,,,,,,,,3,,,,,,,,,,,,,,,,,,,,,,,,,,,884.853035,192,left,0.39327,seaturtle     ,3,2,1,1,1,884.88063,884.88063,887.375965,0,37,37,37,1,192,3,2,seaturtle     ,slipper     ,html/resources/sequences_IDs/A/02_seaturtle.jpg,html/resources/sequences_IDs/B/08_slipper.jpg,2,8,2,1,3,2,2,7,0,94,,,,,,,,,,,,,,,,,,,,
,,,,,94,2020-07-04_14h44.20.843,retriever_ti,2020.1.3,Win32,60,Chrome,1366,768,,,,,,,,,,,,,,,,,3,,,,,,,,,,,,,,,,,,,,,,,,,,,888.48397,193,left,0.005835,parrot      ,6,5,5,1,3,888.51876,888.51876,891.02413,0,38,38,38,1,193,6,1,parrot      ,dress         ,html/resources/sequences_IDs/B/05_parrot.jpg,html/resources/sequences_IDs/A/07_dress.jpg,5,7,2,1,3,2,4,6,0,94,,,,,,,,,,,,,,,,,,,,
,,,,,94,2020-07-04_14h44.20.843,retriever_ti,2020.1.3,Win32,60,Chrome,1366,768,,,,,,,,,,,,,,,,,3,,,,,,,,,,,,,,,,,,,,,,,,,,,891.630225,194,left,0.054505,gloves      ,8,6,6,1,3,891.67175,891.67175,894.15958,0,39,39,39,1,194,8,2,gloves      ,slipper     ,html/resources/sequences_IDs/B/06_gloves.jpg,html/resources/sequences_IDs/B/08_slipper.jpg,6,8,3,2,3,2,5,7,0,94,,,,,,,,,,,,,,,,,,,,
,,,,,94,2020-07-04_14h44.20.843,retriever_ti,2020.1.3,Win32,60,Chrome,1366,768,,,,,,,,,,,,,,,,,3,,,,,,,,,,,,,,,,,,,,,,,,,,,894.762145,195,right,0.005675,parrot      ,6,5,3,1,3,894.78168,894.78168,897.284705,0,40,40,40,1,195,3,6,seaturtle     ,parrot      ,html/resources/sequences_IDs/A/02_seaturtle.jpg,html/resources/sequences_IDs/B/05_parrot.jpg,2,5,2,1,2,1,2,4,0,94,,,,,,,,,,,,,,,,,,,,
,,,,,94,2020-07-04_14h44.20.843,retriever_ti,2020.1.3,Win32,60,Chrome,1366,768,,,,,,,,,,,,,,,,,3,,,,,,,,,,,,,,,,,,,,,,,,,,,897.905995,196,right,0.0051,gloves      ,8,6,6,1,3,897.947015,897.947015,900.42249,0,41,41,41,1,196,2,8,slipper     ,gloves      ,html/resources/sequences_IDs/B/08_slipper.jpg,html/resources/sequences_IDs/B/06_gloves.jpg,8,6,3,2,3,2,7,5,0,94,,,,,,,,,,,,,,,,,,,,
,,,,,94,2020-07-04_14h44.20.843,retriever_ti,2020.1.3,Win32,60,Chrome,1366,768,,,,,,,,,,,,,,,,,3,,,,,,,,,,,,,,,,,,,,,,,,,,,901.087325,197,left,0.00613,seaturtle     ,3,2,2,1,3,901.1052,901.1052,903.598615,0,42,42,42,1,197,3,1,seaturtle     ,dress         ,html/resources/sequences_IDs/A/02_seaturtle.jpg,html/resources/sequences_IDs/A/07_dress.jpg,2,7,2,1,3,2,2,6,0,94,,,,,,,,,,,,,,,,,,,,
,,,,,94,2020-07-04_14h44.20.843,retriever_ti,2020.1.3,Win32,60,Chrome,1366,768,,,,,,,,,,,,,,,,,3,,,,,,,,,,,,,,,,,,,,,,,,,,,904.2189,198,right,0.00517,gloves      ,8,6,1,1,1,904.27462,904.27462,906.721095,0,43,43,43,1,198,7,8,wolf          ,gloves      ,html/resources/sequences_IDs/A/01_wolf.jpg,html/resources/sequences_IDs/B/06_gloves.jpg,1,6,1,1,3,2,1,5,0,94,,,,,,,,,,,,,,,,,,,,
,,,,,94,2020-07-04_14h44.20.843,retriever_ti,2020.1.3,Win32,60,Chrome,1366,768,,,,,,,,,,,,,,,,,3,,,,,,,,,,,,,,,,,,,,,,,,,,,907.828215,199,left,0.00599,wolf          ,7,1,-1,0,0,908.12583,908.12583,910.37807,0,44,44,44,1,199,7,8,wolf          ,gloves      ,html/resources/sequences_IDs/A/01_wolf.jpg,html/resources/sequences_IDs/B/06_gloves.jpg,1,6,1,1,3,2,1,5,0,94,,,,,,,,,,,,,,,,,,,,
,,,,,94,2020-07-04_14h44.20.843,retriever_ti,2020.1.3,Win32,60,Chrome,1366,768,,,,,,,,,,,,,,,,,3,,,,,,,,,,,,,,,,,,,,,,,,,,,911.47314,200,right,0.5039,wolf          ,7,1,3,1,3,911.498945,911.498945,913.98285,0,45,45,45,1,200,4,7,giraffe     ,wolf          ,html/resources/sequences_IDs/B/03_giraffe.jpg,html/resources/sequences_IDs/A/01_wolf.jpg,3,1,1,1,1,1,3,1,0,94,,,,,,,,,,,,,,,,,,,,
,,,,,94,2020-07-04_14h44.20.843,retriever_ti,2020.1.3,Win32,60,Chrome,1366,768,,,,,,,,,,,,,,,,,3,,,,,,,,,,,,,,,,,,,,,,,,,,,914.59655,201,left,0.432165,slipper     ,2,8,1,1,1,914.64239,914.64239,917.110755,0,46,46,46,1,201,2,1,slipper     ,dress         ,html/resources/sequences_IDs/B/08_slipper.jpg,html/resources/sequences_IDs/A/07_dress.jpg,8,7,3,2,3,2,7,6,0,94,,,,,,,,,,,,,,,,,,,,
,,,,,94,2020-07-04_14h44.20.843,retriever_ti,2020.1.3,Win32,60,Chrome,1366,768,,,,,,,,,,,,,,,,,3,,,,,,,,,,,,,,,,,,,,,,,,,,,918.202765,202,left,0.007475,dress         ,1,7,-1,0,0,918.23692,918.23692,920.72314,0,47,47,47,1,202,1,2,dress         ,slipper     ,html/resources/sequences_IDs/A/07_dress.jpg,html/resources/sequences_IDs/B/08_slipper.jpg,7,8,3,2,3,2,6,7,0,94,,,,,,,,,,,,,,,,,,,,
,,,,,94,2020-07-04_14h44.20.843,retriever_ti,2020.1.3,Win32,60,Chrome,1366,768,,,,,,,,,,,,,,,,,3,,,,,,,,,,,,,,,,,,,,,,,,,,,921.963035,203,right,0.005885,calculator    ,5,9,-1,0,0,922.07704,922.07704,924.484315,0,48,48,48,1,203,6,5,parrot      ,calculator    ,html/resources/sequences_IDs/B/05_parrot.jpg,html/resources/sequences_IDs/A/09_calculator.jpg,5,9,2,1,4,2,4,8,0,94,,,,,,,,,,,,,,,,,,,,
,,,,,94,2020-07-04_14h44.20.843,retriever_ti,2020.1.3,Win32,60,Chrome,1366,768,,,,,,,,,,,,,,,,,3,,,,,,,,,,,,,,,,,,,,,,,,,,,925.59468,204,left,0.485865,parrot      ,6,5,-2,0,3,925.687455,925.687455,928.102055,0,49,49,49,1,204,6,8,parrot      ,gloves      ,html/resources/sequences_IDs/B/05_parrot.jpg,html/resources/sequences_IDs/B/06_gloves.jpg,5,6,2,1,3,2,4,5,0,94,,,,,,,,,,,,,,,,,,,,
,,,,,94,2020-07-04_14h44.20.843,retriever_ti,2020.1.3,Win32,60,Chrome,1366,768,,,,,,,,,,,,,,,,,3,,,,,,,,,,,,,,,,,,,,,,,,,,,928.71149,205,right,0.989845,slipper     ,2,8,-4,0,3,928.746145,928.746145,931.48242,0,50,50,50,1,205,6,2,parrot      ,slipper     ,html/resources/sequences_IDs/B/05_parrot.jpg,html/resources/sequences_IDs/B/08_slipper.jpg,5,8,2,1,3,2,4,7,0,94,,,,,,,,,,,,,,,,,,,,
,,,,,94,2020-07-04_14h44.20.843,retriever_ti,2020.1.3,Win32,60,Chrome,1366,768,,,,,,,,,,,,,,,,,3,,,,,,,,,,,,,,,,,,,,,,,,,,,932.098625,206,left,0.316885,giraffe     ,4,3,2,1,3,932.127775,932.127775,934.628015,0,51,51,51,1,206,4,2,giraffe     ,slipper     ,html/resources/sequences_IDs/B/03_giraffe.jpg,html/resources/sequences_IDs/B/08_slipper.jpg,3,8,1,1,3,2,3,7,0,94,,,,,,,,,,,,,,,,,,,,
,,,,,94,2020-07-04_14h44.20.843,retriever_ti,2020.1.3,Win32,60,Chrome,1366,768,,,,,,,,,,,,,,,,,3,,,,,,,,,,,,,,,,,,,,,,,,,,,935.246925,207,right,0.006375,gloves      ,8,6,5,1,3,935.269035,935.269035,937.797715,0,52,52,52,1,207,3,8,seaturtle     ,gloves      ,html/resources/sequences_IDs/A/02_seaturtle.jpg,html/resources/sequences_IDs/B/06_gloves.jpg,2,6,2,1,3,2,2,5,0,94,,,,,,,,,,,,,,,,,,,,
,,,,,94,2020-07-04_14h44.20.843,retriever_ti,2020.1.3,Win32,60,Chrome,1366,768,,,,,,,,,,,,,,,,,3,,,,,,,,,,,,,,,,,,,,,,,,,,,938.408485,208,right,0.007295,dress         ,1,7,-6,0,3,938.605825,938.605825,941.034105,0,53,53,53,1,208,7,1,wolf          ,dress         ,html/resources/sequences_IDs/A/01_wolf.jpg,html/resources/sequences_IDs/A/07_dress.jpg,1,7,1,1,3,2,1,6,0,94,,,,,,,,,,,,,,,,,,,,
,,,,,94,2020-07-04_14h44.20.843,retriever_ti,2020.1.3,Win32,60,Chrome,1366,768,,,,,,,,,,,,,,,,,3,,,,,,,,,,,,,,,,,,,,,,,,,,,941.65225,209,right,0.449525,dress         ,1,7,-7,0,3,941.717215,941.717215,944.203445,0,54,54,54,1,209,8,1,gloves      ,dress         ,html/resources/sequences_IDs/B/06_gloves.jpg,html/resources/sequences_IDs/A/07_dress.jpg,6,7,3,2,3,2,5,6,0,94,,,,,,,,,,,,,,,,,,,,
,,,,,94,2020-07-04_14h44.20.843,retriever_ti,2020.1.3,Win32,60,Chrome,1366,768,,,,,,,,,,,,,,,,,3,,,,,,,,,,,,,,,,,,,,,,,,,,,944.80742,210,right,0.0056,calculator    ,5,9,-1,0,1,944.855855,944.855855,947.3424,0,55,55,55,1,210,6,5,parrot      ,calculator    ,html/resources/sequences_IDs/B/05_parrot.jpg,html/resources/sequences_IDs/A/09_calculator.jpg,5,9,2,1,4,2,4,8,1,94,,,,,,,,,,,,,,,,,,,,
,,,,,94,2020-07-04_14h44.20.843,retriever_ti,2020.1.3,Win32,60,Chrome,1366,768,,,,,,,,,,,,,,,,,3,,,,,,,,,,,,,,,,,,,,,,,,,,,948.44476,211,right,0.20388,wolf          ,7,1,6,1,3,948.47226,948.47226,950.970885,0,56,56,56,1,211,1,7,dress         ,wolf          ,html/resources/sequences_IDs/A/07_dress.jpg,html/resources/sequences_IDs/A/01_wolf.jpg,7,1,3,2,1,1,6,1,0,94,,,,,,,,,,,,,,,,,,,,
,,,,,94,2020-07-04_14h44.20.843,retriever_ti,2020.1.3,Win32,60,Chrome,1366,768,,,,,,,,,,,,,,,,,3,,,,,,,,,,,,,,,,,,,,,,,,,,,951.58763,212,right,0.674195,giraffe     ,4,3,3,1,3,951.62356,951.62356,954.876205,0,57,57,57,1,212,1,4,dress         ,giraffe     ,html/resources/sequences_IDs/A/07_dress.jpg,html/resources/sequences_IDs/B/03_giraffe.jpg,7,3,3,2,1,1,6,3,0,94,,,,,,,,,,,,,,,,,,,,
,,,,,94,2020-07-04_14h44.20.843,retriever_ti,2020.1.3,Win32,60,Chrome,1366,768,,,,,,,,,,,,,,,,,3,,,,,,,,,,,,,,,,,,,,,,,,,,,955.48703,213,left,0.76042,wolf          ,7,1,1,1,1,955.524845,955.524845,958.346925,0,58,58,58,1,213,7,6,wolf          ,parrot      ,html/resources/sequences_IDs/A/01_wolf.jpg,html/resources/sequences_IDs/B/05_parrot.jpg,1,5,1,1,2,1,1,4,0,94,,,,,,,,,,,,,,,,,,,,
,,,,,94,2020-07-04_14h44.20.843,retriever_ti,2020.1.3,Win32,60,Chrome,1366,768,,,,,,,,,,,,,,,,,3,,,,,,,,,,,,,,,,,,,,,,,,,,,959.495775,214,right,1.03752,calculator    ,5,9,-2,0,3,959.53343,959.53343,962.01573,0,59,59,59,1,214,7,5,wolf          ,calculator    ,html/resources/sequences_IDs/A/01_wolf.jpg,html/resources/sequences_IDs/A/09_calculator.jpg,1,9,1,1,4,2,1,8,0,94,,,,,,,,,,,,,,,,,,,,
,,,,,94,2020-07-04_14h44.20.843,retriever_ti,2020.1.3,Win32,60,Chrome,1366,768,,,,,,,,,,,,,,,,,3,,,,,,,,,,,,,,,,,,,,,,,,,,,962.711825,215,right,0.16196,dress         ,1,7,-4,0,3,962.763835,962.763835,965.414085,0,60,60,60,1,215,5,1,calculator    ,dress         ,html/resources/sequences_IDs/A/09_calculator.jpg,html/resources/sequences_IDs/A/07_dress.jpg,9,7,4,2,3,2,8,6,0,94,,,,,,,,,,,,,,,,,,,,
,,,,,94,2020-07-04_14h44.20.843,retriever_ti,2020.1.3,Win32,60,Chrome,1366,768,,,,,,,,,,,,,,,,,3,,,,,,,,,,,,,,,,,,,,,,,,,,,966.030195,216,NaN,NaN,No_response,NaN,NaN,NaN,2,2,966.06545,966.06545,968.553205,0,61,61,61,1,216,4,5,giraffe     ,calculator    ,html/resources/sequences_IDs/B/03_giraffe.jpg,html/resources/sequences_IDs/A/09_calculator.jpg,3,9,1,1,4,2,3,8,0,94,,,,,,,,,,,,,,,,,,,,
,,,,,94,2020-07-04_14h44.20.843,retriever_ti,2020.1.3,Win32,60,Chrome,1366,768,,,,,,,,,,,,,,,,,3,,,,,,,,,,,,,,,,,,,,,,,,,,,969.69807,217,right,0.247655,parrot      ,6,5,4,1,3,970.022765,970.022765,972.219755,0,62,62,62,1,217,2,6,slipper     ,parrot      ,html/resources/sequences_IDs/B/08_slipper.jpg,html/resources/sequences_IDs/B/05_parrot.jpg,8,5,3,2,2,1,7,4,0,94,,,,,,,,,,,,,,,,,,,,
,,,,,94,2020-07-04_14h44.20.843,retriever_ti,2020.1.3,Win32,60,Chrome,1366,768,,,,,,,,,,,,,,,,,3,,,,,,,,,,,,,,,,,,,,,,,,,,,972.838975,218,left,0.430525,gloves      ,8,6,5,1,3,973.99073,973.99073,975.36024,0,63,63,63,1,218,8,3,gloves      ,seaturtle     ,html/resources/sequences_IDs/B/06_gloves.jpg,html/resources/sequences_IDs/A/02_seaturtle.jpg,6,2,3,2,2,1,5,2,0,94,,,,,,,,,,,,,,,,,,,,
,,,,,94,2020-07-04_14h44.20.843,retriever_ti,2020.1.3,Win32,60,Chrome,1366,768,,,,,,,,,,,,,,,,,3,,,,,,,,,,,,,,,,,,,,,,,,,,,975.97314,219,left,0.696225,gloves      ,8,6,4,1,3,976.37071,976.37071,978.500145,0,64,64,64,1,219,8,4,gloves      ,giraffe     ,html/resources/sequences_IDs/B/06_gloves.jpg,html/resources/sequences_IDs/B/03_giraffe.jpg,6,3,3,2,1,1,5,3,0,94,,,,,,,,,,,,,,,,,,,,
,,,,,94,2020-07-04_14h44.20.843,retriever_ti,2020.1.3,Win32,60,Chrome,1366,768,,,,,,,,,,,,,,,,,3,,,,,,,,,,,,,,,,,,,,,,,,,,,979.12113,220,left,0.57334,giraffe     ,4,3,-1,0,0,979.15702,979.15702,981.647665,0,65,65,65,1,220,4,5,giraffe     ,calculator    ,html/resources/sequences_IDs/B/03_giraffe.jpg,html/resources/sequences_IDs/A/09_calculator.jpg,3,9,1,1,4,2,3,8,0,94,,,,,,,,,,,,,,,,,,,,
,,,,,94,2020-07-04_14h44.20.843,retriever_ti,2020.1.3,Win32,60,Chrome,1366,768,,,,,,,,,,,,,,,,,3,,,,,,,,,,,,,,,,,,,,,,,,,,,982.7726,221,right,0.00577,calculator    ,5,9,-1,0,0,982.804555,982.804555,985.297915,0,66,66,66,1,221,6,5,parrot      ,calculator    ,html/resources/sequences_IDs/B/05_parrot.jpg,html/resources/sequences_IDs/A/09_calculator.jpg,5,9,2,1,4,2,4,8,0,94,,,,,,,,,,,,,,,,,,,,
,,,,,94,2020-07-04_14h44.20.843,retriever_ti,2020.1.3,Win32,60,Chrome,1366,768,,,,,,,,,,,,,,,,,3,,,,,,,,,,,,,,,,,,,,,,,,,,,986.416045,222,left,0.16016,dress         ,1,7,-1,0,1,986.51768,986.51768,988.927525,0,67,67,67,1,222,1,2,dress         ,slipper     ,html/resources/sequences_IDs/A/07_dress.jpg,html/resources/sequences_IDs/B/08_slipper.jpg,7,8,3,2,3,2,6,7,1,94,,,,,,,,,,,,,,,,,,,,
,,,,,94,2020-07-04_14h44.20.843,retriever_ti,2020.1.3,Win32,60,Chrome,1366,768,,,,,,,,,,,,,,,,,3,,,,,,,,,,,,,,,,,,,,,,,,,,,990.02807,223,right,1.004775,gloves      ,8,6,1,1,0,990.09251,990.09251,992.55338,0,68,68,68,1,223,7,8,wolf          ,gloves      ,html/resources/sequences_IDs/A/01_wolf.jpg,html/resources/sequences_IDs/B/06_gloves.jpg,1,6,1,1,3,2,1,5,1,94,,,,,,,,,,,,,,,,,,,,
,,,,,94,2020-07-04_14h44.20.843,retriever_ti,2020.1.3,Win32,60,Chrome,1366,768,,,,,,,,,,,,,,,,,3,,,,,,,,,,,,,,,,,,,,,,,,,,,993.646755,224,left,0.146935,giraffe     ,4,3,-4,0,3,993.74571,993.74571,996.175115,0,69,69,69,1,224,4,8,giraffe     ,gloves      ,html/resources/sequences_IDs/B/03_giraffe.jpg,html/resources/sequences_IDs/B/06_gloves.jpg,3,6,1,1,3,2,3,5,0,94,,,,,,,,,,,,,,,,,,,,
