instructionsLoop.thisRepN,instructionsLoop.thisTrialN,instructionsLoop.thisN,instructionsLoop.thisIndex,instructionsLoop.ran,participant,date,expName,psychopyVersion,OS,frameRate,browser,xResolution,yResolution,fix_onset,tprac,practiceKey.keys,practiceKey.rt,pracitem_chosen_name,acc_practice,P1_onsetPrac,P2_onsetPrac,onsetFeedbPrac,practiceTrials.thisRepN,practiceTrials.thisTrialN,practiceTrials.thisN,practiceTrials.thisIndex,practiceTrials.ran,P1,P2,Block,LocItem1,LocItem2,NameItem1,NameItem2,key_respAC_prac.keys,key_respAC_prac.corr,key_respAC_prac.rt,AC_acc,Attentions.thisRepN,Attentions.thisTrialN,Attentions.thisN,Attentions.thisIndex,Attentions.ran,Stim,Loc1,Loc2,Loc3,Loc4,CorrAns,keyDisturbed.keys,keyDisturbed.rt,repPractice.thisRepN,repPractice.thisTrialN,repPractice.thisN,repPractice.thisIndex,repPractice.ran,fixcross_onsetMain,trialNumber,key_resp.keys,item_chosen_name,item_chosen_value,item_chosen_ID,diff_chosen_minus_reject,key_resp.rt,acc_real,acc_feedback,P1_onset,P2_onset,feedb_onset,trials.thisRepN,trials.thisTrialN,trials.thisN,trials.thisIndex,trials.ran,Trial,ValueP1,ValueP2,P1name,P2name,P1Loc,P2Loc,P1id,P2id,Micro_categoryP1,Macro_categoryP1,Micro_categoryP2,Macro_categoryP2,ID_sequenceP1,ID_sequenceP2,InverseFb,pNumber,repBlocks.thisRepN,repBlocks.thisTrialN,repBlocks.thisN,repBlocks.thisIndex,repBlocks.ran
0,0,0,0,1,94,2020-07-04_14h18.41.239,retriever_ti,2020.1.3,Win32,60,Chrome,1366,768,,,,,,,,,,,,,,,,,,,,,,,,,,,,,,,,,,,,,,,,,,,,,,,,,,,,,,,,,,,,,,,,,,,,,,,,,,,,,,,,,,,
1,0,1,0,1,94,2020-07-04_14h18.41.239,retriever_ti,2020.1.3,Win32,60,Chrome,1366,768,,,,,,,,,,,,,,,,,,,,,,,,,,,,,,,,,,,,,,,,,,,,,,,,,,,,,,,,,,,,,,,,,,,,,,,,,,,,,,,,,,,
2,0,2,0,1,94,2020-07-04_14h18.41.239,retriever_ti,2020.1.3,Win32,60,Chrome,1366,768,,,,,,,,,,,,,,,,,,,,,,,,,,,,,,,,,,,,,,,,,,,,,,,,,,,,,,,,,,,,,,,,,,,,,,,,,,,,,,,,,,,
3,0,3,0,1,94,2020-07-04_14h18.41.239,retriever_ti,2020.1.3,Win32,60,Chrome,1366,768,,,,,,,,,,,,,,,,,,,,,,,,,,,,,,,,,,,,,,,,,,,,,,,,,,,,,,,,,,,,,,,,,,,,,,,,,,,,,,,,,,,
4,0,4,0,1,94,2020-07-04_14h18.41.239,retriever_ti,2020.1.3,Win32,60,Chrome,1366,768,,,,,,,,,,,,,,,,,,,,,,,,,,,,,,,,,,,,,,,,,,,,,,,,,,,,,,,,,,,,,,,,,,,,,,,,,,,,,,,,,,,
5,0,5,0,1,94,2020-07-04_14h18.41.239,retriever_ti,2020.1.3,Win32,60,Chrome,1366,768,,,,,,,,,,,,,,,,,,,,,,,,,,,,,,,,,,,,,,,,,,,,,,,,,,,,,,,,,,,,,,,,,,,,,,,,,,,,,,,,,,,
6,0,6,0,1,94,2020-07-04_14h18.41.239,retriever_ti,2020.1.3,Win32,60,Chrome,1366,768,,,,,,,,,,,,,,,,,,,,,,,,,,,,,,,,,,,,,,,,,,,,,,,,,,,,,,,,,,,,,,,,,,,,,,,,,,,,,,,,,,,
7,0,7,0,1,94,2020-07-04_14h18.41.239,retriever_ti,2020.1.3,Win32,60,Chrome,1366,768,,,,,,,,,,,,,,,,,,,,,,,,,,,,,,,,,,,,,,,,,,,,,,,,,,,,,,,,,,,,,,,,,,,,,,,,,,,,,,,,,,,
8,0,8,0,1,94,2020-07-04_14h18.41.239,retriever_ti,2020.1.3,Win32,60,Chrome,1366,768,,,,,,,,,,,,,,,,,,,,,,,,,,,,,,,,,,,,,,,,,,,,,,,,,,,,,,,,,,,,,,,,,,,,,,,,,,,,,,,,,,,
9,0,9,0,1,94,2020-07-04_14h18.41.239,retriever_ti,2020.1.3,Win32,60,Chrome,1366,768,,,,,,,,,,,,,,,,,,,,,,,,,,,,,,,,,,,,,,,,,,,,,,,,,,,,,,,,,,,,,,,,,,,,,,,,,,,,,,,,,,,
10,0,10,0,1,94,2020-07-04_14h18.41.239,retriever_ti,2020.1.3,Win32,60,Chrome,1366,768,,,,,,,,,,,,,,,,,,,,,,,,,,,,,,,,,,,,,,,,,,,,,,,,,,,,,,,,,,,,,,,,,,,,,,,,,,,,,,,,,,,
11,0,11,0,1,94,2020-07-04_14h18.41.239,retriever_ti,2020.1.3,Win32,60,Chrome,1366,768,,,,,,,,,,,,,,,,,,,,,,,,,,,,,,,,,,,,,,,,,,,,,,,,,,,,,,,,,,,,,,,,,,,,,,,,,,,,,,,,,,,
12,0,12,0,1,94,2020-07-04_14h18.41.239,retriever_ti,2020.1.3,Win32,60,Chrome,1366,768,,,,,,,,,,,,,,,,,,,,,,,,,,,,,,,,,,,,,,,,,,,,,,,,,,,,,,,,,,,,,,,,,,,,,,,,,,,,,,,,,,,
13,0,13,0,1,94,2020-07-04_14h18.41.239,retriever_ti,2020.1.3,Win32,60,Chrome,1366,768,,,,,,,,,,,,,,,,,,,,,,,,,,,,,,,,,,,,,,,,,,,,,,,,,,,,,,,,,,,,,,,,,,,,,,,,,,,,,,,,,,,
14,0,14,0,1,94,2020-07-04_14h18.41.239,retriever_ti,2020.1.3,Win32,60,Chrome,1366,768,,,,,,,,,,,,,,,,,,,,,,,,,,,,,,,,,,,,,,,,,,,,,,,,,,,,,,,,,,,,,,,,,,,,,,,,,,,,,,,,,,,
15,0,15,0,1,94,2020-07-04_14h18.41.239,retriever_ti,2020.1.3,Win32,60,Chrome,1366,768,,,,,,,,,,,,,,,,,,,,,,,,,,,,,,,,,,,,,,,,,,,,,,,,,,,,,,,,,,,,,,,,,,,,,,,,,,,,,,,,,,,
16,0,16,0,1,94,2020-07-04_14h18.41.239,retriever_ti,2020.1.3,Win32,60,Chrome,1366,768,,,,,,,,,,,,,,,,,,,,,,,,,,,,,,,,,,,,,,,,,,,,,,,,,,,,,,,,,,,,,,,,,,,,,,,,,,,,,,,,,,,
17,0,17,0,1,94,2020-07-04_14h18.41.239,retriever_ti,2020.1.3,Win32,60,Chrome,1366,768,,,,,,,,,,,,,,,,,,,,,,,,,,,,,,,,,,,,,,,,,,,,,,,,,,,,,,,,,,,,,,,,,,,,,,,,,,,,,,,,,,,
18,0,18,0,1,94,2020-07-04_14h18.41.239,retriever_ti,2020.1.3,Win32,60,Chrome,1366,768,,,,,,,,,,,,,,,,,,,,,,,,,,,,,,,,,,,,,,,,,,,,,,,,,,,,,,,,,,,,,,,,,,,,,,,,,,,,,,,,,,,
19,0,19,0,1,94,2020-07-04_14h18.41.239,retriever_ti,2020.1.3,Win32,60,Chrome,1366,768,,,,,,,,,,,,,,,,,,,,,,,,,,,,,,,,,,,,,,,,,,,,,,,,,,,,,,,,,,,,,,,,,,,,,,,,,,,,,,,,,,,
20,0,20,0,1,94,2020-07-04_14h18.41.239,retriever_ti,2020.1.3,Win32,60,Chrome,1366,768,,,,,,,,,,,,,,,,,,,,,,,,,,,,,,,,,,,,,,,,,,,,,,,,,,,,,,,,,,,,,,,,,,,,,,,,,,,,,,,,,,,
,,,,,94,2020-07-04_14h18.41.239,retriever_ti,2020.1.3,Win32,60,Chrome,1366,768,466.33916,1,NaN,NaN,No_response,2,466.41792,466.41792,468.90489,0,0,0,0,1,2,5,1,html/resources/stimuli_practice_decision/04_beetle.jpg,html/resources/stimuli_practice_decision/02_canary.jpg,beetle,canary,,,,,,,,,,,,,,,,,,,,,,,,,,,,,,,,,,,,,,,,,,,,,,,,,,,,,,,,,,,,,,
,,,,,94,2020-07-04_14h18.41.239,retriever_ti,2020.1.3,Win32,60,Chrome,1366,768,469.683365,2,NaN,NaN,No_response,2,469.732555,469.732555,472.22193,0,1,1,1,1,4,3,1,html/resources/stimuli_practice_decision/01_rabbit.jpg,html/resources/stimuli_practice_decision/07_sock.jpg,rabbit,sock,,,,,,,,,,,,,,,,,,,,,,,,,,,,,,,,,,,,,,,,,,,,,,,,,,,,,,,,,,,,,,
,,,,,94,2020-07-04_14h18.41.239,retriever_ti,2020.1.3,Win32,60,Chrome,1366,768,472.73412,3,left,0.99166,pullover,1,472.78835,472.78835,475.28579,0,2,2,2,1,6,2,1,html/resources/stimuli_practice_decision/06_pullover.jpg,html/resources/stimuli_practice_decision/04_beetle.jpg,pullover,beetle,,,,,,,,,,,,,,,,,,,,,,,,,,,,,,,,,,,,,,,,,,,,,,,,,,,,,,,,,,,,,,
,,,,,94,2020-07-04_14h18.41.239,retriever_ti,2020.1.3,Win32,60,Chrome,1366,768,475.793315,4,right,1.04914,handmixer,0,475.814085,475.814085,478.47609,0,3,3,3,1,7,1,1,html/resources/stimuli_practice_decision/05_glasses.jpg,html/resources/stimuli_practice_decision/08_handmixer.jpg,glasses,handmixer,,,,,,,,,,,,,,,,,,,,,,,,,,,,,,,,,,,,,,,,,,,,,,,,,,,,,,,,,,,,,,
,,,,,94,2020-07-04_14h18.41.239,retriever_ti,2020.1.3,Win32,60,Chrome,1366,768,478.991435,5,right,0.98631,pullover,0,479.01566,479.01566,481.491835,0,4,4,4,1,7,6,1,html/resources/stimuli_practice_decision/05_glasses.jpg,html/resources/stimuli_practice_decision/06_pullover.jpg,glasses,pullover,,,,,,,,,,,,,,,,,,,,,,,,,,,,,,,,,,,,,,,,,,,,,,,,,,,,,,,,,,,,,,
,,,,,94,2020-07-04_14h18.41.239,retriever_ti,2020.1.3,Win32,60,Chrome,1366,768,482.50268,6,NaN,NaN,No_response,2,482.53454,482.53454,485.868455,0,5,5,5,1,4,7,1,html/resources/stimuli_practice_decision/01_rabbit.jpg,html/resources/stimuli_practice_decision/05_glasses.jpg,rabbit,glasses,,,,,,,,,,,,,,,,,,,,,,,,,,,,,,,,,,,,,,,,,,,,,,,,,,,,,,,,,,,,,,
,,,,,94,2020-07-04_14h18.41.239,retriever_ti,2020.1.3,Win32,60,Chrome,1366,768,487.992,7,NaN,NaN,No_response,2,488.35298,488.35298,490.5366,0,6,6,6,1,1,2,1,html/resources/stimuli_practice_decision/08_handmixer.jpg,html/resources/stimuli_practice_decision/04_beetle.jpg,handmixer,beetle,,,,,,,,,,,,,,,,,,,,,,,,,,,,,,,,,,,,,,,,,,,,,,,,,,,,,,,,,,,,,,
,,,,,94,2020-07-04_14h18.41.239,retriever_ti,2020.1.3,Win32,60,Chrome,1366,768,491.9959,8,left,0.35922,rabbit,1,492.04437,492.04437,494.59936,0,7,7,7,1,4,3,1,html/resources/stimuli_practice_decision/01_rabbit.jpg,html/resources/stimuli_practice_decision/07_sock.jpg,rabbit,sock,,,,,,,,,,,,,,,,,,,,,,,,,,,,,,,,,,,,,,,,,,,,,,,,,,,,,,,,,,,,,,
,,,,,94,2020-07-04_14h18.41.239,retriever_ti,2020.1.3,Win32,60,Chrome,1366,768,,,,,,,,,,,,,,,,,,,,,,up,1,3.56425,1,0,0,0,0,1,html/resources/sequences_IDs/circle.png,circle ↑,square →,triangle ↓,← star ,up,,,,,,,,,,,,,,,,,,,,,,,,,,,,,,,,,,,,,,,,,,,,,,,
,,,,,94,2020-07-04_14h18.41.239,retriever_ti,2020.1.3,Win32,60,Chrome,1366,768,,,,,,,,,,,,,,,,,,,,,,down,1,2.1192,1,0,1,1,1,1,html/resources/sequences_IDs/star.png,square ↑,circle →,star ↓,← triangle,down,,,,,,,,,,,,,,,,,,,,,,,,,,,,,,,,,,,,,,,,,,,,,,,
,,,,,94,2020-07-04_14h18.41.239,retriever_ti,2020.1.3,Win32,60,Chrome,1366,768,,,,,,,,,,,,,,,,,,,,,,down,1,2.520415,1,0,2,2,3,1,html/resources/sequences_IDs/triangle.png,star ↑,square →,triangle ↓,← circle,down,,,,,,,,,,,,,,,,,,,,,,,,,,,,,,,,,,,,,,,,,,,,,,,
,,,,,94,2020-07-04_14h18.41.239,retriever_ti,2020.1.3,Win32,60,Chrome,1366,768,,,,,,,,,,,,,,,,,,,,,,left,1,2.34663,1,0,3,3,2,1,html/resources/sequences_IDs/square1.png,star ↑,triangle →,circle ↓,← square,left,,,,,,,,,,,,,,,,,,,,,,,,,,,,,,,,,,,,,,,,,,,,,,,
,,,,,94,2020-07-04_14h18.41.239,retriever_ti,2020.1.3,Win32,60,Chrome,1366,768,,,,,,,,,,,,,,,,,,,,,,,,,,,,,,,,,,,,,1,55.661945,0,0,0,0,1,,,,,,,,,,,,,,,,,,,,,,,,,,,,,,,,,,,,,,,,
,,,,,94,2020-07-04_14h18.41.239,retriever_ti,2020.1.3,Win32,60,Chrome,1366,768,580.08933,9,right,1.01684,glasses,1,580.106355,580.106355,582.589395,0,0,0,0,1,6,7,1,html/resources/stimuli_practice_decision/06_pullover.jpg,html/resources/stimuli_practice_decision/05_glasses.jpg,pullover,glasses,,,,,,,,,,,,,,,,,,,,,,,,,,,,,,,,,,,,,,,,,,,,,,,,,,,,,,,,,,,,,,
,,,,,94,2020-07-04_14h18.41.239,retriever_ti,2020.1.3,Win32,60,Chrome,1366,768,583.581865,10,left,0.895335,pullover,1,583.602975,583.602975,586.08699,0,1,1,1,1,6,2,1,html/resources/stimuli_practice_decision/06_pullover.jpg,html/resources/stimuli_practice_decision/04_beetle.jpg,pullover,beetle,,,,,,,,,,,,,,,,,,,,,,,,,,,,,,,,,,,,,,,,,,,,,,,,,,,,,,,,,,,,,,
,,,,,94,2020-07-04_14h18.41.239,retriever_ti,2020.1.3,Win32,60,Chrome,1366,768,586.60142,11,right,1.81232,pullover,1,586.622865,586.622865,589.12649,0,2,2,2,1,5,6,1,html/resources/stimuli_practice_decision/02_canary.jpg,html/resources/stimuli_practice_decision/06_pullover.jpg,canary,pullover,,,,,,,,,,,,,,,,,,,,,,,,,,,,,,,,,,,,,,,,,,,,,,,,,,,,,,,,,,,,,,
,,,,,94,2020-07-04_14h18.41.239,retriever_ti,2020.1.3,Win32,60,Chrome,1366,768,590.129085,12,right,1.155405,glasses,0,590.168835,590.168835,592.650295,0,3,3,3,1,8,7,1,html/resources/stimuli_practice_decision/03_squirrel.jpg,html/resources/stimuli_practice_decision/05_glasses.jpg,squirrel,glasses,,,,,,,,,,,,,,,,,,,,,,,,,,,,,,,,,,,,,,,,,,,,,,,,,,,,,,,,,,,,,,
,,,,,94,2020-07-04_14h18.41.239,retriever_ti,2020.1.3,Win32,60,Chrome,1366,768,593.64361,13,right,1.446215,sock,0,593.666055,593.666055,596.158485,0,4,4,4,1,5,3,1,html/resources/stimuli_practice_decision/02_canary.jpg,html/resources/stimuli_practice_decision/07_sock.jpg,canary,sock,,,,,,,,,,,,,,,,,,,,,,,,,,,,,,,,,,,,,,,,,,,,,,,,,,,,,,,,,,,,,,
,,,,,94,2020-07-04_14h18.41.239,retriever_ti,2020.1.3,Win32,60,Chrome,1366,768,596.673395,14,left,1.21824,glasses,0,596.71546,596.71546,599.2438,0,5,5,5,1,7,8,1,html/resources/stimuli_practice_decision/05_glasses.jpg,html/resources/stimuli_practice_decision/03_squirrel.jpg,glasses,squirrel,,,,,,,,,,,,,,,,,,,,,,,,,,,,,,,,,,,,,,,,,,,,,,,,,,,,,,,,,,,,,,
,,,,,94,2020-07-04_14h18.41.239,retriever_ti,2020.1.3,Win32,60,Chrome,1366,768,600.376045,15,right,1.092165,rabbit,0,600.398885,600.398885,602.879735,0,6,6,6,1,5,4,1,html/resources/stimuli_practice_decision/02_canary.jpg,html/resources/stimuli_practice_decision/01_rabbit.jpg,canary,rabbit,,,,,,,,,,,,,,,,,,,,,,,,,,,,,,,,,,,,,,,,,,,,,,,,,,,,,,,,,,,,,,
,,,,,94,2020-07-04_14h18.41.239,retriever_ti,2020.1.3,Win32,60,Chrome,1366,768,603.8736,16,NaN,NaN,No_response,2,603.9096,603.9096,606.39558,0,7,7,7,1,5,3,1,html/resources/stimuli_practice_decision/02_canary.jpg,html/resources/stimuli_practice_decision/07_sock.jpg,canary,sock,,,,,,,,,,,,,,,,,,,,,,,,,,,,,,,,,,,,,,,,,,,,,,,,,,,,,,,,,,,,,,
,,,,,94,2020-07-04_14h18.41.239,retriever_ti,2020.1.3,Win32,60,Chrome,1366,768,,,,,,,,,,,,,,,,,,,,,,down,1,2.211735,1,0,0,0,3,1,html/resources/sequences_IDs/triangle.png,star ↑,square →,triangle ↓,← circle,down,,,,,,,,,,,,,,,,,,,,,,,,,,,,,,,,,,,,,,,,,,,,,,,
,,,,,94,2020-07-04_14h18.41.239,retriever_ti,2020.1.3,Win32,60,Chrome,1366,768,,,,,,,,,,,,,,,,,,,,,,up,1,1.508035,1,0,1,1,0,1,html/resources/sequences_IDs/circle.png,circle ↑,square →,triangle ↓,← star ,up,,,,,,,,,,,,,,,,,,,,,,,,,,,,,,,,,,,,,,,,,,,,,,,
,,,,,94,2020-07-04_14h18.41.239,retriever_ti,2020.1.3,Win32,60,Chrome,1366,768,,,,,,,,,,,,,,,,,,,,,,down,1,2.18233,1,0,2,2,1,1,html/resources/sequences_IDs/star.png,square ↑,circle →,star ↓,← triangle,down,,,,,,,,,,,,,,,,,,,,,,,,,,,,,,,,,,,,,,,,,,,,,,,
,,,,,94,2020-07-04_14h18.41.239,retriever_ti,2020.1.3,Win32,60,Chrome,1366,768,,,,,,,,,,,,,,,,,,,,,,left,1,1.68458,1,0,3,3,2,1,html/resources/sequences_IDs/square1.png,star ↑,triangle →,circle ↓,← square,left,,,,,,,,,,,,,,,,,,,,,,,,,,,,,,,,,,,,,,,,,,,,,,,
,,,,,94,2020-07-04_14h18.41.239,retriever_ti,2020.1.3,Win32,60,Chrome,1366,768,,,,,,,,,,,,,,,,,,,,,,,,,,,,,,,,,,,,,0,4.922285,1,0,1,0,1,,,,,,,,,,,,,,,,,,,,,,,,,,,,,,,,,,,,,,,,
,,,,,94,2020-07-04_14h18.41.239,retriever_ti,2020.1.3,Win32,60,Chrome,1366,768,,,,,,,,,,,,,,,,,1,,,,,,,,,,,,,,,,,,,,,,,,,,,645.546945,1,NaN,No_response,NaN,NaN,NaN,NaN,2,2,645.595575,645.595575,648.087915,0,0,0,0,1,1,3,8,seaturtle     ,gloves      ,html/resources/sequences_IDs/A/02_seaturtle.jpg,html/resources/sequences_IDs/B/06_gloves.jpg,2,6,2,1,3,2,2,5,0,94,,,,,
,,,,,94,2020-07-04_14h18.41.239,retriever_ti,2020.1.3,Win32,60,Chrome,1366,768,,,,,,,,,,,,,,,,,1,,,,,,,,,,,,,,,,,,,,,,,,,,,649.2349,2,left,wolf          ,7,1,-1,0.671525,0,0,649.25787,649.25787,651.75247,0,1,1,1,1,2,7,8,wolf          ,gloves      ,html/resources/sequences_IDs/A/01_wolf.jpg,html/resources/sequences_IDs/B/06_gloves.jpg,1,6,1,1,3,2,1,5,0,94,,,,,
,,,,,94,2020-07-04_14h18.41.239,retriever_ti,2020.1.3,Win32,60,Chrome,1366,768,,,,,,,,,,,,,,,,,1,,,,,,,,,,,,,,,,,,,,,,,,,,,652.850165,3,left,wolf          ,7,1,4,1.025965,1,3,652.870285,652.870285,655.365765,0,2,2,2,1,3,7,3,wolf          ,seaturtle     ,html/resources/sequences_IDs/A/01_wolf.jpg,html/resources/sequences_IDs/A/02_seaturtle.jpg,1,2,1,1,2,1,1,2,0,94,,,,,
,,,,,94,2020-07-04_14h18.41.239,retriever_ti,2020.1.3,Win32,60,Chrome,1366,768,,,,,,,,,,,,,,,,,1,,,,,,,,,,,,,,,,,,,,,,,,,,,655.975165,4,left,parrot      ,6,5,2,0.792775,1,3,656.00955,656.00955,658.496885,0,3,3,3,1,4,6,4,parrot      ,giraffe     ,html/resources/sequences_IDs/B/05_parrot.jpg,html/resources/sequences_IDs/B/03_giraffe.jpg,5,3,2,1,1,1,4,3,0,94,,,,,
,,,,,94,2020-07-04_14h18.41.239,retriever_ti,2020.1.3,Win32,60,Chrome,1366,768,,,,,,,,,,,,,,,,,1,,,,,,,,,,,,,,,,,,,,,,,,,,,659.11609,5,left,parrot      ,6,5,-1,0.959095,0,0,659.153135,659.153135,661.64906,0,4,4,4,1,5,6,7,parrot      ,wolf          ,html/resources/sequences_IDs/B/05_parrot.jpg,html/resources/sequences_IDs/A/01_wolf.jpg,5,1,2,1,1,1,4,1,0,94,,,,,
,,,,,94,2020-07-04_14h18.41.239,retriever_ti,2020.1.3,Win32,60,Chrome,1366,768,,,,,,,,,,,,,,,,,1,,,,,,,,,,,,,,,,,,,,,,,,,,,662.751685,6,right,seaturtle     ,3,2,-1,1.17724,0,1,662.828275,662.828275,665.316155,0,5,5,5,1,6,4,3,giraffe     ,seaturtle     ,html/resources/sequences_IDs/B/03_giraffe.jpg,html/resources/sequences_IDs/A/02_seaturtle.jpg,3,2,1,1,2,1,3,2,1,94,,,,,
,,,,,94,2020-07-04_14h18.41.239,retriever_ti,2020.1.3,Win32,60,Chrome,1366,768,,,,,,,,,,,,,,,,,1,,,,,,,,,,,,,,,,,,,,,,,,,,,666.412745,7,NaN,No_response,NaN,NaN,NaN,NaN,2,2,666.44251,666.44251,672.589615,0,6,6,6,1,7,4,1,giraffe     ,dress         ,html/resources/sequences_IDs/B/03_giraffe.jpg,html/resources/sequences_IDs/A/07_dress.jpg,3,7,1,1,3,2,3,6,0,94,,,,,
,,,,,94,2020-07-04_14h18.41.239,retriever_ti,2020.1.3,Win32,60,Chrome,1366,768,,,,,,,,,,,,,,,,,1,,,,,,,,,,,,,,,,,,,,,,,,,,,673.692515,8,NaN,No_response,NaN,NaN,NaN,NaN,2,2,673.730135,673.730135,677.274395,0,7,7,7,1,8,3,2,seaturtle     ,slipper     ,html/resources/sequences_IDs/A/02_seaturtle.jpg,html/resources/sequences_IDs/B/08_slipper.jpg,2,8,2,1,3,2,2,7,0,94,,,,,
,,,,,94,2020-07-04_14h18.41.239,retriever_ti,2020.1.3,Win32,60,Chrome,1366,768,,,,,,,,,,,,,,,,,1,,,,,,,,,,,,,,,,,,,,,,,,,,,678.383805,9,NaN,No_response,NaN,NaN,NaN,NaN,2,2,678.41323,678.41323,681.207535,0,8,8,8,1,9,5,2,calculator    ,slipper     ,html/resources/sequences_IDs/A/09_calculator.jpg,html/resources/sequences_IDs/B/08_slipper.jpg,9,8,4,2,3,2,8,7,0,94,,,,,
,,,,,94,2020-07-04_14h18.41.239,retriever_ti,2020.1.3,Win32,60,Chrome,1366,768,,,,,,,,,,,,,,,,,1,,,,,,,,,,,,,,,,,,,,,,,,,,,682.330825,10,NaN,No_response,NaN,NaN,NaN,NaN,2,2,683.69381,683.69381,684.836855,0,9,9,9,1,10,6,5,parrot      ,calculator    ,html/resources/sequences_IDs/B/05_parrot.jpg,html/resources/sequences_IDs/A/09_calculator.jpg,5,9,2,1,4,2,4,8,0,94,,,,,
,,,,,94,2020-07-04_14h18.41.239,retriever_ti,2020.1.3,Win32,60,Chrome,1366,768,,,,,,,,,,,,,,,,,1,,,,,,,,,,,,,,,,,,,,,,,,,,,685.926455,11,left,giraffe     ,4,3,-1,0.32985,0,0,685.962525,685.962525,688.47713,0,10,10,10,1,11,4,5,giraffe     ,calculator    ,html/resources/sequences_IDs/B/03_giraffe.jpg,html/resources/sequences_IDs/A/09_calculator.jpg,3,9,1,1,4,2,3,8,0,94,,,,,
,,,,,94,2020-07-04_14h18.41.239,retriever_ti,2020.1.3,Win32,60,Chrome,1366,768,,,,,,,,,,,,,,,,,1,,,,,,,,,,,,,,,,,,,,,,,,,,,689.577955,12,right,slipper     ,2,8,-2,1.04842,0,3,689.5963,689.5963,692.084005,0,11,11,11,1,12,4,2,giraffe     ,slipper     ,html/resources/sequences_IDs/B/03_giraffe.jpg,html/resources/sequences_IDs/B/08_slipper.jpg,3,8,1,1,3,2,3,7,0,94,,,,,
,,,,,94,2020-07-04_14h18.41.239,retriever_ti,2020.1.3,Win32,60,Chrome,1366,768,,,,,,,,,,,,,,,,,1,,,,,,,,,,,,,,,,,,,,,,,,,,,692.701055,13,left,dress         ,1,7,-5,0.876925,0,3,692.722415,692.722415,695.22928,0,12,12,12,1,13,1,6,dress         ,parrot      ,html/resources/sequences_IDs/A/07_dress.jpg,html/resources/sequences_IDs/B/05_parrot.jpg,7,5,3,2,2,1,6,4,0,94,,,,,
,,,,,94,2020-07-04_14h18.41.239,retriever_ti,2020.1.3,Win32,60,Chrome,1366,768,,,,,,,,,,,,,,,,,1,,,,,,,,,,,,,,,,,,,,,,,,,,,695.86487,14,right,calculator    ,5,9,2,0.785405,1,3,696.089605,696.089605,698.573,0,13,13,13,1,14,3,5,seaturtle     ,calculator    ,html/resources/sequences_IDs/A/02_seaturtle.jpg,html/resources/sequences_IDs/A/09_calculator.jpg,2,9,2,1,4,2,2,8,0,94,,,,,
,,,,,94,2020-07-04_14h18.41.239,retriever_ti,2020.1.3,Win32,60,Chrome,1366,768,,,,,,,,,,,,,,,,,1,,,,,,,,,,,,,,,,,,,,,,,,,,,699.18099,15,left,calculator    ,5,9,1,0.99206,1,0,699.265455,699.265455,701.842155,0,14,14,14,1,15,5,4,calculator    ,giraffe     ,html/resources/sequences_IDs/A/09_calculator.jpg,html/resources/sequences_IDs/B/03_giraffe.jpg,9,3,4,2,1,1,8,3,1,94,,,,,
,,,,,94,2020-07-04_14h18.41.239,retriever_ti,2020.1.3,Win32,60,Chrome,1366,768,,,,,,,,,,,,,,,,,1,,,,,,,,,,,,,,,,,,,,,,,,,,,702.94807,16,right,parrot      ,6,5,1,1.203705,1,1,703.013275,703.013275,705.4665,0,15,15,15,1,16,5,6,calculator    ,parrot      ,html/resources/sequences_IDs/A/09_calculator.jpg,html/resources/sequences_IDs/B/05_parrot.jpg,9,5,4,2,2,1,8,4,0,94,,,,,
,,,,,94,2020-07-04_14h18.41.239,retriever_ti,2020.1.3,Win32,60,Chrome,1366,768,,,,,,,,,,,,,,,,,1,,,,,,,,,,,,,,,,,,,,,,,,,,,706.57436,17,NaN,No_response,NaN,NaN,NaN,NaN,2,2,706.69518,706.69518,709.19594,0,16,16,16,1,17,3,7,seaturtle     ,wolf          ,html/resources/sequences_IDs/A/02_seaturtle.jpg,html/resources/sequences_IDs/A/01_wolf.jpg,2,1,2,1,1,1,2,1,0,94,,,,,
,,,,,94,2020-07-04_14h18.41.239,retriever_ti,2020.1.3,Win32,60,Chrome,1366,768,,,,,,,,,,,,,,,,,1,,,,,,,,,,,,,,,,,,,,,,,,,,,710.82764,18,left,gloves      ,8,6,1,0.759645,1,1,710.84414,710.84414,713.482625,0,17,17,17,1,18,8,7,gloves      ,wolf          ,html/resources/sequences_IDs/B/06_gloves.jpg,html/resources/sequences_IDs/A/01_wolf.jpg,6,1,3,2,1,1,5,1,0,94,,,,,
,,,,,94,2020-07-04_14h18.41.239,retriever_ti,2020.1.3,Win32,60,Chrome,1366,768,,,,,,,,,,,,,,,,,1,,,,,,,,,,,,,,,,,,,,,,,,,,,715.080425,19,left,slipper     ,2,8,-1,1.10625,0,1,715.59535,715.59535,718.110685,0,18,18,18,1,19,2,3,slipper     ,seaturtle     ,html/resources/sequences_IDs/B/08_slipper.jpg,html/resources/sequences_IDs/A/02_seaturtle.jpg,8,2,3,2,2,1,7,2,1,94,,,,,
,,,,,94,2020-07-04_14h18.41.239,retriever_ti,2020.1.3,Win32,60,Chrome,1366,768,,,,,,,,,,,,,,,,,1,,,,,,,,,,,,,,,,,,,,,,,,,,,723.35556,20,NaN,No_response,NaN,NaN,NaN,NaN,2,2,724.21091,724.21091,729.666555,0,19,19,19,1,20,8,2,gloves      ,slipper     ,html/resources/sequences_IDs/B/06_gloves.jpg,html/resources/sequences_IDs/B/08_slipper.jpg,6,8,3,2,3,2,5,7,0,94,,,,,
,,,,,94,2020-07-04_14h18.41.239,retriever_ti,2020.1.3,Win32,60,Chrome,1366,768,,,,,,,,,,,,,,,,,1,,,,,,,,,,,,,,,,,,,,,,,,,,,742.392415,21,left,parrot      ,6,5,1,0.882045,1,1,742.423725,742.423725,744.918985,0,20,20,20,1,21,6,5,parrot      ,calculator    ,html/resources/sequences_IDs/B/05_parrot.jpg,html/resources/sequences_IDs/A/09_calculator.jpg,5,9,2,1,4,2,4,8,0,94,,,,,
,,,,,94,2020-07-04_14h18.41.239,retriever_ti,2020.1.3,Win32,60,Chrome,1366,768,,,,,,,,,,,,,,,,,1,,,,,,,,,,,,,,,,,,,,,,,,,,,746.834545,22,right,calculator    ,5,9,1,0.59204,1,1,747.00279,747.00279,749.49783,0,21,21,21,1,22,4,5,giraffe     ,calculator    ,html/resources/sequences_IDs/B/03_giraffe.jpg,html/resources/sequences_IDs/A/09_calculator.jpg,3,9,1,1,4,2,3,8,0,94,,,,,
,,,,,94,2020-07-04_14h18.41.239,retriever_ti,2020.1.3,Win32,60,Chrome,1366,768,,,,,,,,,,,,,,,,,1,,,,,,,,,,,,,,,,,,,,,,,,,,,751.426805,23,left,slipper     ,2,8,-1,1.004595,0,0,751.44266,751.44266,753.93865,0,22,22,22,1,23,2,3,slipper     ,seaturtle     ,html/resources/sequences_IDs/B/08_slipper.jpg,html/resources/sequences_IDs/A/02_seaturtle.jpg,8,2,3,2,2,1,7,2,0,94,,,,,
,,,,,94,2020-07-04_14h18.41.239,retriever_ti,2020.1.3,Win32,60,Chrome,1366,768,,,,,,,,,,,,,,,,,1,,,,,,,,,,,,,,,,,,,,,,,,,,,755.042425,24,NaN,No_response,NaN,NaN,NaN,NaN,2,2,755.062345,755.062345,757.566965,0,23,23,23,1,24,2,6,slipper     ,parrot      ,html/resources/sequences_IDs/B/08_slipper.jpg,html/resources/sequences_IDs/B/05_parrot.jpg,8,5,3,2,2,1,7,4,0,94,,,,,
,,,,,94,2020-07-04_14h18.41.239,retriever_ti,2020.1.3,Win32,60,Chrome,1366,768,,,,,,,,,,,,,,,,,1,,,,,,,,,,,,,,,,,,,,,,,,,,,758.67437,25,right,dress         ,1,7,-1,0.950445,0,0,758.69274,758.69274,761.185845,0,24,24,24,1,25,2,1,slipper     ,dress         ,html/resources/sequences_IDs/B/08_slipper.jpg,html/resources/sequences_IDs/A/07_dress.jpg,8,7,3,2,3,2,7,6,0,94,,,,,
,,,,,94,2020-07-04_14h18.41.239,retriever_ti,2020.1.3,Win32,60,Chrome,1366,768,,,,,,,,,,,,,,,,,1,,,,,,,,,,,,,,,,,,,,,,,,,,,762.289155,26,right,parrot      ,6,5,1,0.84378,1,1,762.325835,762.325835,764.81419,0,25,25,25,1,26,5,6,calculator    ,parrot      ,html/resources/sequences_IDs/A/09_calculator.jpg,html/resources/sequences_IDs/B/05_parrot.jpg,9,5,4,2,2,1,8,4,0,94,,,,,
,,,,,94,2020-07-04_14h18.41.239,retriever_ti,2020.1.3,Win32,60,Chrome,1366,768,,,,,,,,,,,,,,,,,1,,,,,,,,,,,,,,,,,,,,,,,,,,,765.910615,27,left,wolf          ,7,1,5,1.026525,1,3,765.94504,765.94504,768.439535,0,26,26,26,1,27,7,2,wolf          ,slipper     ,html/resources/sequences_IDs/A/01_wolf.jpg,html/resources/sequences_IDs/B/08_slipper.jpg,1,8,1,1,3,2,1,7,0,94,,,,,
,,,,,94,2020-07-04_14h18.41.239,retriever_ti,2020.1.3,Win32,60,Chrome,1366,768,,,,,,,,,,,,,,,,,1,,,,,,,,,,,,,,,,,,,,,,,,,,,769.052045,28,right,dress         ,1,7,-4,0.713565,0,3,769.150515,769.150515,771.63086,0,27,27,27,1,28,5,1,calculator    ,dress         ,html/resources/sequences_IDs/A/09_calculator.jpg,html/resources/sequences_IDs/A/07_dress.jpg,9,7,4,2,3,2,8,6,0,94,,,,,
,,,,,94,2020-07-04_14h18.41.239,retriever_ti,2020.1.3,Win32,60,Chrome,1366,768,,,,,,,,,,,,,,,,,1,,,,,,,,,,,,,,,,,,,,,,,,,,,772.235095,29,left,dress         ,1,7,-2,1.45068,0,3,772.25536,772.25536,774.75004,0,28,28,28,1,29,1,3,dress         ,seaturtle     ,html/resources/sequences_IDs/A/07_dress.jpg,html/resources/sequences_IDs/A/02_seaturtle.jpg,7,2,3,2,2,1,6,2,0,94,,,,,
,,,,,94,2020-07-04_14h18.41.239,retriever_ti,2020.1.3,Win32,60,Chrome,1366,768,,,,,,,,,,,,,,,,,1,,,,,,,,,,,,,,,,,,,,,,,,,,,775.367875,30,right,wolf          ,7,1,-1,1.04523,0,1,775.38879,775.38879,777.87762,0,29,29,29,1,30,8,7,gloves      ,wolf          ,html/resources/sequences_IDs/B/06_gloves.jpg,html/resources/sequences_IDs/A/01_wolf.jpg,6,1,3,2,1,1,5,1,1,94,,,,,
,,,,,94,2020-07-04_14h18.41.239,retriever_ti,2020.1.3,Win32,60,Chrome,1366,768,,,,,,,,,,,,,,,,,1,,,,,,,,,,,,,,,,,,,,,,,,,,,778.980655,31,right,wolf          ,7,1,6,0.96672,1,3,779.02999,779.02999,781.528035,0,30,30,30,1,31,1,7,dress         ,wolf          ,html/resources/sequences_IDs/A/07_dress.jpg,html/resources/sequences_IDs/A/01_wolf.jpg,7,1,3,2,1,1,6,1,0,94,,,,,
,,,,,94,2020-07-04_14h18.41.239,retriever_ti,2020.1.3,Win32,60,Chrome,1366,768,,,,,,,,,,,,,,,,,1,,,,,,,,,,,,,,,,,,,,,,,,,,,782.132915,32,left,parrot      ,6,5,-1,0.795245,0,1,782.17007,782.17007,785.035645,0,31,31,31,1,32,6,7,parrot      ,wolf          ,html/resources/sequences_IDs/B/05_parrot.jpg,html/resources/sequences_IDs/A/01_wolf.jpg,5,1,2,1,1,1,4,1,1,94,,,,,
,,,,,94,2020-07-04_14h18.41.239,retriever_ti,2020.1.3,Win32,60,Chrome,1366,768,,,,,,,,,,,,,,,,,1,,,,,,,,,,,,,,,,,,,,,,,,,,,786.136375,33,left,slipper     ,2,8,1,0.8743,1,1,786.156435,786.156435,788.651005,0,32,32,32,1,33,2,1,slipper     ,dress         ,html/resources/sequences_IDs/B/08_slipper.jpg,html/resources/sequences_IDs/A/07_dress.jpg,8,7,3,2,3,2,7,6,0,94,,,,,
,,,,,94,2020-07-04_14h18.41.239,retriever_ti,2020.1.3,Win32,60,Chrome,1366,768,,,,,,,,,,,,,,,,,1,,,,,,,,,,,,,,,,,,,,,,,,,,,789.74854,34,right,giraffe     ,4,3,2,1.087425,1,3,789.80175,789.80175,792.290595,0,33,33,33,1,34,2,4,slipper     ,giraffe     ,html/resources/sequences_IDs/B/08_slipper.jpg,html/resources/sequences_IDs/B/03_giraffe.jpg,8,3,3,2,1,1,7,3,0,94,,,,,
,,,,,94,2020-07-04_14h18.41.239,retriever_ti,2020.1.3,Win32,60,Chrome,1366,768,,,,,,,,,,,,,,,,,1,,,,,,,,,,,,,,,,,,,,,,,,,,,792.94596,35,right,slipper     ,2,8,1,1.008,1,1,792.981245,792.981245,795.56984,0,34,34,34,1,35,1,2,dress         ,slipper     ,html/resources/sequences_IDs/A/07_dress.jpg,html/resources/sequences_IDs/B/08_slipper.jpg,7,8,3,2,3,2,6,7,0,94,,,,,
,,,,,94,2020-07-04_14h18.41.239,retriever_ti,2020.1.3,Win32,60,Chrome,1366,768,,,,,,,,,,,,,,,,,1,,,,,,,,,,,,,,,,,,,,,,,,,,,797.045015,36,left,giraffe     ,4,3,1,1.037125,1,1,797.082795,797.082795,799.847985,0,35,35,35,1,36,4,3,giraffe     ,seaturtle     ,html/resources/sequences_IDs/B/03_giraffe.jpg,html/resources/sequences_IDs/A/02_seaturtle.jpg,3,2,1,1,2,1,3,2,0,94,,,,,
,,,,,94,2020-07-04_14h18.41.239,retriever_ti,2020.1.3,Win32,60,Chrome,1366,768,,,,,,,,,,,,,,,,,1,,,,,,,,,,,,,,,,,,,,,,,,,,,800.954405,37,left,dress         ,1,7,-4,0.96475,0,3,801.015595,801.015595,803.51574,0,36,36,36,1,37,1,5,dress         ,calculator    ,html/resources/sequences_IDs/A/07_dress.jpg,html/resources/sequences_IDs/A/09_calculator.jpg,7,9,3,2,4,2,6,8,0,94,,,,,
,,,,,94,2020-07-04_14h18.41.239,retriever_ti,2020.1.3,Win32,60,Chrome,1366,768,,,,,,,,,,,,,,,,,1,,,,,,,,,,,,,,,,,,,,,,,,,,,804.24683,38,right,parrot      ,6,5,-2,0.81717,0,3,804.264215,804.264215,806.745745,0,37,37,37,1,38,8,6,gloves      ,parrot      ,html/resources/sequences_IDs/B/06_gloves.jpg,html/resources/sequences_IDs/B/05_parrot.jpg,6,5,3,2,2,1,5,4,0,94,,,,,
,,,,,94,2020-07-04_14h18.41.239,retriever_ti,2020.1.3,Win32,60,Chrome,1366,768,,,,,,,,,,,,,,,,,1,,,,,,,,,,,,,,,,,,,,,,,,,,,807.351365,39,right,wolf          ,7,1,-1,1.090725,0,0,807.389245,807.389245,810.04376,0,38,38,38,1,39,8,7,gloves      ,wolf          ,html/resources/sequences_IDs/B/06_gloves.jpg,html/resources/sequences_IDs/A/01_wolf.jpg,6,1,3,2,1,1,5,1,0,94,,,,,
,,,,,94,2020-07-04_14h18.41.239,retriever_ti,2020.1.3,Win32,60,Chrome,1366,768,,,,,,,,,,,,,,,,,1,,,,,,,,,,,,,,,,,,,,,,,,,,,811.141135,40,NaN,No_response,NaN,NaN,NaN,NaN,2,2,811.18188,811.18188,814.441715,0,39,39,39,1,40,7,1,wolf          ,dress         ,html/resources/sequences_IDs/A/01_wolf.jpg,html/resources/sequences_IDs/A/07_dress.jpg,1,7,1,1,3,2,1,6,0,94,,,,,
,,,,,94,2020-07-04_14h18.41.239,retriever_ti,2020.1.3,Win32,60,Chrome,1366,768,,,,,,,,,,,,,,,,,1,,,,,,,,,,,,,,,,,,,,,,,,,,,815.73786,41,left,slipper     ,2,8,-1,0.737875,0,0,815.76927,815.76927,818.286075,0,40,40,40,1,41,2,3,slipper     ,seaturtle     ,html/resources/sequences_IDs/B/08_slipper.jpg,html/resources/sequences_IDs/A/02_seaturtle.jpg,8,2,3,2,2,1,7,2,0,94,,,,,
,,,,,94,2020-07-04_14h18.41.239,retriever_ti,2020.1.3,Win32,60,Chrome,1366,768,,,,,,,,,,,,,,,,,1,,,,,,,,,,,,,,,,,,,,,,,,,,,819.39672,42,right,parrot      ,6,5,3,0.86422,1,3,819.45184,819.45184,821.973815,0,41,41,41,1,42,3,6,seaturtle     ,parrot      ,html/resources/sequences_IDs/A/02_seaturtle.jpg,html/resources/sequences_IDs/B/05_parrot.jpg,2,5,2,1,2,1,2,4,0,94,,,,,
,,,,,94,2020-07-04_14h18.41.239,retriever_ti,2020.1.3,Win32,60,Chrome,1366,768,,,,,,,,,,,,,,,,,1,,,,,,,,,,,,,,,,,,,,,,,,,,,822.57764,43,left,gloves      ,8,6,5,1.099655,1,3,822.618655,822.618655,825.121575,0,42,42,42,1,43,8,3,gloves      ,seaturtle     ,html/resources/sequences_IDs/B/06_gloves.jpg,html/resources/sequences_IDs/A/02_seaturtle.jpg,6,2,3,2,2,1,5,2,0,94,,,,,
,,,,,94,2020-07-04_14h18.41.239,retriever_ti,2020.1.3,Win32,60,Chrome,1366,768,,,,,,,,,,,,,,,,,1,,,,,,,,,,,,,,,,,,,,,,,,,,,826.010205,44,left,dress         ,1,7,-3,1.26873,0,3,826.02821,826.02821,828.56039,0,43,43,43,1,44,1,4,dress         ,giraffe     ,html/resources/sequences_IDs/A/07_dress.jpg,html/resources/sequences_IDs/B/03_giraffe.jpg,7,3,3,2,1,1,6,3,0,94,,,,,
,,,,,94,2020-07-04_14h18.41.239,retriever_ti,2020.1.3,Win32,60,Chrome,1366,768,,,,,,,,,,,,,,,,,1,,,,,,,,,,,,,,,,,,,,,,,,,,,829.18856,45,right,seaturtle     ,3,2,-3,1.168055,0,3,829.214155,829.214155,831.98119,0,44,44,44,1,45,6,3,parrot      ,seaturtle     ,html/resources/sequences_IDs/B/05_parrot.jpg,html/resources/sequences_IDs/A/02_seaturtle.jpg,5,2,2,1,2,1,4,2,0,94,,,,,
,,,,,94,2020-07-04_14h18.41.239,retriever_ti,2020.1.3,Win32,60,Chrome,1366,768,,,,,,,,,,,,,,,,,1,,,,,,,,,,,,,,,,,,,,,,,,,,,832.59368,46,NaN,No_response,NaN,NaN,NaN,NaN,2,2,832.610515,832.610515,835.09688,0,45,45,45,1,46,1,8,dress         ,gloves      ,html/resources/sequences_IDs/A/07_dress.jpg,html/resources/sequences_IDs/B/06_gloves.jpg,7,6,3,2,3,2,6,5,0,94,,,,,
,,,,,94,2020-07-04_14h18.41.239,retriever_ti,2020.1.3,Win32,60,Chrome,1366,768,,,,,,,,,,,,,,,,,1,,,,,,,,,,,,,,,,,,,,,,,,,,,836.189475,47,right,parrot      ,6,5,-1,0.724125,0,0,836.227415,836.227415,838.74633,0,46,46,46,1,47,7,6,wolf          ,parrot      ,html/resources/sequences_IDs/A/01_wolf.jpg,html/resources/sequences_IDs/B/05_parrot.jpg,1,5,1,1,2,1,1,4,0,94,,,,,
,,,,,94,2020-07-04_14h18.41.239,retriever_ti,2020.1.3,Win32,60,Chrome,1366,768,,,,,,,,,,,,,,,,,1,,,,,,,,,,,,,,,,,,,,,,,,,,,839.965795,48,left,giraffe     ,4,3,1,1.45057,1,1,839.982225,839.982225,842.594785,0,47,47,47,1,48,4,3,giraffe     ,seaturtle     ,html/resources/sequences_IDs/B/03_giraffe.jpg,html/resources/sequences_IDs/A/02_seaturtle.jpg,3,2,1,1,2,1,3,2,0,94,,,,,
,,,,,94,2020-07-04_14h18.41.239,retriever_ti,2020.1.3,Win32,60,Chrome,1366,768,,,,,,,,,,,,,,,,,1,,,,,,,,,,,,,,,,,,,,,,,,,,,843.692555,49,left,giraffe     ,4,3,-2,1.00197,0,3,843.729025,843.729025,846.243235,0,48,48,48,1,49,4,6,giraffe     ,parrot      ,html/resources/sequences_IDs/B/03_giraffe.jpg,html/resources/sequences_IDs/B/05_parrot.jpg,3,5,1,1,2,1,3,4,0,94,,,,,
,,,,,94,2020-07-04_14h18.41.239,retriever_ti,2020.1.3,Win32,60,Chrome,1366,768,,,,,,,,,,,,,,,,,1,,,,,,,,,,,,,,,,,,,,,,,,,,,846.85555,50,right,giraffe     ,4,3,1,1.358215,1,1,846.875035,846.875035,849.37012,0,49,49,49,1,50,3,4,seaturtle     ,giraffe     ,html/resources/sequences_IDs/A/02_seaturtle.jpg,html/resources/sequences_IDs/B/03_giraffe.jpg,2,3,2,1,1,1,2,3,0,94,,,,,
,,,,,94,2020-07-04_14h18.41.239,retriever_ti,2020.1.3,Win32,60,Chrome,1366,768,,,,,,,,,,,,,,,,,1,,,,,,,,,,,,,,,,,,,,,,,,,,,850.465745,51,right,dress         ,1,7,-2,0.843695,0,3,850.487475,850.487475,852.999055,0,50,50,50,1,51,3,1,seaturtle     ,dress         ,html/resources/sequences_IDs/A/02_seaturtle.jpg,html/resources/sequences_IDs/A/07_dress.jpg,2,7,2,1,3,2,2,6,0,94,,,,,
,,,,,94,2020-07-04_14h18.41.239,retriever_ti,2020.1.3,Win32,60,Chrome,1366,768,,,,,,,,,,,,,,,,,1,,,,,,,,,,,,,,,,,,,,,,,,,,,853.61847,52,right,seaturtle     ,3,2,-2,0.97912,0,3,853.653665,853.653665,856.146275,0,51,51,51,1,52,5,3,calculator    ,seaturtle     ,html/resources/sequences_IDs/A/09_calculator.jpg,html/resources/sequences_IDs/A/02_seaturtle.jpg,9,2,4,2,2,1,8,2,0,94,,,,,
,,,,,94,2020-07-04_14h18.41.239,retriever_ti,2020.1.3,Win32,60,Chrome,1366,768,,,,,,,,,,,,,,,,,1,,,,,,,,,,,,,,,,,,,,,,,,,,,856.76404,53,left,wolf          ,7,1,2,1.383955,1,3,856.801045,856.801045,860.086635,0,52,52,52,1,53,7,5,wolf          ,calculator    ,html/resources/sequences_IDs/A/01_wolf.jpg,html/resources/sequences_IDs/A/09_calculator.jpg,1,9,1,1,4,2,1,8,0,94,,,,,
,,,,,94,2020-07-04_14h18.41.239,retriever_ti,2020.1.3,Win32,60,Chrome,1366,768,,,,,,,,,,,,,,,,,1,,,,,,,,,,,,,,,,,,,,,,,,,,,860.697385,54,right,giraffe     ,4,3,-4,1.29867,0,3,860.73428,860.73428,863.230985,0,53,53,53,1,54,8,4,gloves      ,giraffe     ,html/resources/sequences_IDs/B/06_gloves.jpg,html/resources/sequences_IDs/B/03_giraffe.jpg,6,3,3,2,1,1,5,3,0,94,,,,,
,,,,,94,2020-07-04_14h18.41.239,retriever_ti,2020.1.3,Win32,60,Chrome,1366,768,,,,,,,,,,,,,,,,,1,,,,,,,,,,,,,,,,,,,,,,,,,,,864.10879,55,NaN,No_response,NaN,NaN,NaN,NaN,2,2,864.152655,864.152655,866.9614,0,54,54,54,1,55,7,4,wolf          ,giraffe     ,html/resources/sequences_IDs/A/01_wolf.jpg,html/resources/sequences_IDs/B/03_giraffe.jpg,1,3,1,1,1,1,1,3,0,94,,,,,
,,,,,94,2020-07-04_14h18.41.239,retriever_ti,2020.1.3,Win32,60,Chrome,1366,768,,,,,,,,,,,,,,,,,1,,,,,,,,,,,,,,,,,,,,,,,,,,,868.065625,56,left,slipper     ,2,8,-5,0.67543,0,3,868.087015,868.087015,871.213925,0,55,55,55,1,56,2,7,slipper     ,wolf          ,html/resources/sequences_IDs/B/08_slipper.jpg,html/resources/sequences_IDs/A/01_wolf.jpg,8,1,3,2,1,1,7,1,0,94,,,,,
,,,,,94,2020-07-04_14h18.41.239,retriever_ti,2020.1.3,Win32,60,Chrome,1366,768,,,,,,,,,,,,,,,,,1,,,,,,,,,,,,,,,,,,,,,,,,,,,871.8605,57,left,dress         ,1,7,-1,0.008065,0,0,871.87838,871.87838,876.06123,0,56,56,56,1,57,1,2,dress         ,slipper     ,html/resources/sequences_IDs/A/07_dress.jpg,html/resources/sequences_IDs/B/08_slipper.jpg,7,8,3,2,3,2,6,7,0,94,,,,,
,,,,,94,2020-07-04_14h18.41.239,retriever_ti,2020.1.3,Win32,60,Chrome,1366,768,,,,,,,,,,,,,,,,,1,,,,,,,,,,,,,,,,,,,,,,,,,,,877.256855,58,left,slipper     ,2,8,1,0.781935,1,0,877.47833,877.47833,880.08908,0,57,57,57,1,58,2,1,slipper     ,dress         ,html/resources/sequences_IDs/B/08_slipper.jpg,html/resources/sequences_IDs/A/07_dress.jpg,8,7,3,2,3,2,7,6,1,94,,,,,
,,,,,94,2020-07-04_14h18.41.239,retriever_ti,2020.1.3,Win32,60,Chrome,1366,768,,,,,,,,,,,,,,,,,1,,,,,,,,,,,,,,,,,,,,,,,,,,,881.401705,59,right,gloves      ,8,6,1,0.715015,1,1,881.429045,881.429045,884.165655,0,58,58,58,1,59,7,8,wolf          ,gloves      ,html/resources/sequences_IDs/A/01_wolf.jpg,html/resources/sequences_IDs/B/06_gloves.jpg,1,6,1,1,3,2,1,5,0,94,,,,,
,,,,,94,2020-07-04_14h18.41.239,retriever_ti,2020.1.3,Win32,60,Chrome,1366,768,,,,,,,,,,,,,,,,,1,,,,,,,,,,,,,,,,,,,,,,,,,,,885.352235,60,left,giraffe     ,4,3,-3,0.6835,0,3,885.39373,885.39373,887.94442,0,59,59,59,1,60,4,7,giraffe     ,wolf          ,html/resources/sequences_IDs/B/03_giraffe.jpg,html/resources/sequences_IDs/A/01_wolf.jpg,3,1,1,1,1,1,3,1,0,94,,,,,
,,,,,94,2020-07-04_14h18.41.239,retriever_ti,2020.1.3,Win32,60,Chrome,1366,768,,,,,,,,,,,,,,,,,1,,,,,,,,,,,,,,,,,,,,,,,,,,,889.0404,61,left,slipper     ,2,8,-3,0.556265,0,3,889.071735,889.071735,891.59601,0,60,60,60,1,61,2,5,slipper     ,calculator    ,html/resources/sequences_IDs/B/08_slipper.jpg,html/resources/sequences_IDs/A/09_calculator.jpg,8,9,3,2,4,2,7,8,0,94,,,,,
,,,,,94,2020-07-04_14h18.41.239,retriever_ti,2020.1.3,Win32,60,Chrome,1366,768,,,,,,,,,,,,,,,,,1,,,,,,,,,,,,,,,,,,,,,,,,,,,892.202535,62,NaN,No_response,NaN,NaN,NaN,NaN,2,2,892.223115,892.223115,895.04655,0,61,61,61,1,62,6,1,parrot      ,dress         ,html/resources/sequences_IDs/B/05_parrot.jpg,html/resources/sequences_IDs/A/07_dress.jpg,5,7,2,1,3,2,4,6,0,94,,,,,
,,,,,94,2020-07-04_14h18.41.239,retriever_ti,2020.1.3,Win32,60,Chrome,1366,768,,,,,,,,,,,,,,,,,1,,,,,,,,,,,,,,,,,,,,,,,,,,,896.13981,63,right,giraffe     ,4,3,-1,1.116995,0,0,896.176715,896.176715,898.677615,0,62,62,62,1,63,5,4,calculator    ,giraffe     ,html/resources/sequences_IDs/A/09_calculator.jpg,html/resources/sequences_IDs/B/03_giraffe.jpg,9,3,4,2,1,1,8,3,0,94,,,,,
,,,,,94,2020-07-04_14h18.41.239,retriever_ti,2020.1.3,Win32,60,Chrome,1366,768,,,,,,,,,,,,,,,,,1,,,,,,,,,,,,,,,,,,,,,,,,,,,899.774295,64,left,gloves      ,8,6,3,1.0406,1,3,899.805545,899.805545,902.30136,0,63,63,63,1,64,8,5,gloves      ,calculator    ,html/resources/sequences_IDs/B/06_gloves.jpg,html/resources/sequences_IDs/A/09_calculator.jpg,6,9,3,2,4,2,5,8,0,94,,,,,
,,,,,94,2020-07-04_14h18.41.239,retriever_ti,2020.1.3,Win32,60,Chrome,1366,768,,,,,,,,,,,,,,,,,1,,,,,,,,,,,,,,,,,,,,,,,,,,,903.430865,65,right,gloves      ,8,6,2,1.074435,1,3,903.45592,903.45592,905.967425,0,64,64,64,1,65,6,8,parrot      ,gloves      ,html/resources/sequences_IDs/B/05_parrot.jpg,html/resources/sequences_IDs/B/06_gloves.jpg,5,6,2,1,3,2,4,5,0,94,,,,,
,,,,,94,2020-07-04_14h18.41.239,retriever_ti,2020.1.3,Win32,60,Chrome,1366,768,,,,,,,,,,,,,,,,,1,,,,,,,,,,,,,,,,,,,,,,,,,,,906.57563,66,right,wolf          ,7,1,2,1.14108,1,3,906.596185,906.596185,909.38003,0,65,65,65,1,66,5,7,calculator    ,wolf          ,html/resources/sequences_IDs/A/09_calculator.jpg,html/resources/sequences_IDs/A/01_wolf.jpg,9,1,4,2,1,1,8,1,0,94,,,,,
,,,,,94,2020-07-04_14h18.41.239,retriever_ti,2020.1.3,Win32,60,Chrome,1366,768,,,,,,,,,,,,,,,,,1,,,,,,,,,,,,,,,,,,,,,,,,,,,909.99186,67,right,gloves      ,8,6,3,1.117205,1,3,910.027965,910.027965,912.53207,0,66,66,66,1,67,5,8,calculator    ,gloves      ,html/resources/sequences_IDs/A/09_calculator.jpg,html/resources/sequences_IDs/B/06_gloves.jpg,9,6,4,2,3,2,8,5,0,94,,,,,
,,,,,94,2020-07-04_14h18.41.239,retriever_ti,2020.1.3,Win32,60,Chrome,1366,768,,,,,,,,,,,,,,,,,1,,,,,,,,,,,,,,,,,,,,,,,,,,,913.20945,68,right,giraffe     ,4,3,-1,0.985195,0,0,913.231765,913.231765,915.72301,0,67,67,67,1,68,5,4,calculator    ,giraffe     ,html/resources/sequences_IDs/A/09_calculator.jpg,html/resources/sequences_IDs/B/03_giraffe.jpg,9,3,4,2,1,1,8,3,0,94,,,,,
,,,,,94,2020-07-04_14h18.41.239,retriever_ti,2020.1.3,Win32,60,Chrome,1366,768,,,,,,,,,,,,,,,,,1,,,,,,,,,,,,,,,,,,,,,,,,,,,916.82373,69,left,gloves      ,8,6,7,1.120265,1,3,916.862095,916.862095,919.351985,0,68,68,68,1,69,8,1,gloves      ,dress         ,html/resources/sequences_IDs/B/06_gloves.jpg,html/resources/sequences_IDs/A/07_dress.jpg,6,7,3,2,3,2,5,6,0,94,,,,,
,,,,,94,2020-07-04_14h18.41.239,retriever_ti,2020.1.3,Win32,60,Chrome,1366,768,,,,,,,,,,,,,,,,,1,,,,,,,,,,,,,,,,,,,,,,,,,,,919.970185,70,right,gloves      ,8,6,6,0.93379,1,3,920.03688,920.03688,922.48913,0,69,69,69,1,70,2,8,slipper     ,gloves      ,html/resources/sequences_IDs/B/08_slipper.jpg,html/resources/sequences_IDs/B/06_gloves.jpg,8,6,3,2,3,2,7,5,0,94,,,,,
,,,,,94,2020-07-04_14h18.41.239,retriever_ti,2020.1.3,Win32,60,Chrome,1366,768,,,,,,,,,,,,,,,,,1,,,,,,,,,,,,,,,,,,,,,,,,,,,923.124615,71,NaN,No_response,NaN,NaN,NaN,NaN,2,2,923.14308,923.14308,926.55375,0,70,70,70,1,71,7,6,wolf          ,parrot      ,html/resources/sequences_IDs/A/01_wolf.jpg,html/resources/sequences_IDs/B/05_parrot.jpg,1,5,1,1,2,1,1,4,0,94,,,,,
,,,,,94,2020-07-04_14h18.41.239,retriever_ti,2020.1.3,Win32,60,Chrome,1366,768,,,,,,,,,,,,,,,,,1,,,,,,,,,,,,,,,,,,,,,,,,,,,928.920115,72,right,gloves      ,8,6,4,0.21579,1,3,931.94922,931.94922,934.443805,0,71,71,71,1,72,4,8,giraffe     ,gloves      ,html/resources/sequences_IDs/B/03_giraffe.jpg,html/resources/sequences_IDs/B/06_gloves.jpg,3,6,1,1,3,2,3,5,0,94,,,,,
,,,,,94,2020-07-04_14h18.41.239,retriever_ti,2020.1.3,Win32,60,Chrome,1366,768,,,,,,,,,,,,,,,,,1,,,,,,,,,,,,,,,,,,,,,,,,,,,935.05161,73,right,giraffe     ,4,3,1,0.916775,1,1,935.08766,935.08766,937.59021,0,72,72,72,1,73,3,4,seaturtle     ,giraffe     ,html/resources/sequences_IDs/A/02_seaturtle.jpg,html/resources/sequences_IDs/B/03_giraffe.jpg,2,3,2,1,1,1,2,3,0,94,,,,,
,,,,,94,2020-07-04_14h18.41.239,retriever_ti,2020.1.3,Win32,60,Chrome,1366,768,,,,,,,,,,,,,,,,,1,,,,,,,,,,,,,,,,,,,,,,,,,,,938.69381,74,left,parrot      ,6,5,-1,0.51217,0,0,938.757545,938.757545,941.209785,0,73,73,73,1,74,6,7,parrot      ,wolf          ,html/resources/sequences_IDs/B/05_parrot.jpg,html/resources/sequences_IDs/A/01_wolf.jpg,5,1,2,1,1,1,4,1,0,94,,,,,
,,,,,94,2020-07-04_14h18.41.239,retriever_ti,2020.1.3,Win32,60,Chrome,1366,768,,,,,,,,,,,,,,,,,1,,,,,,,,,,,,,,,,,,,,,,,,,,,942.30219,75,right,slipper     ,2,8,-1,0.95782,0,0,942.31946,942.31946,944.80894,0,74,74,74,1,75,3,2,seaturtle     ,slipper     ,html/resources/sequences_IDs/A/02_seaturtle.jpg,html/resources/sequences_IDs/B/08_slipper.jpg,2,8,2,1,3,2,2,7,0,94,,,,,
,,,,,94,2020-07-04_14h18.41.239,retriever_ti,2020.1.3,Win32,60,Chrome,1366,768,,,,,,,,,,,,,,,,,1,,,,,,,,,,,,,,,,,,,,,,,,,,,945.91122,76,right,slipper     ,2,8,-4,0.61366,0,3,945.948185,945.948185,948.42797,0,75,75,75,1,76,6,2,parrot      ,slipper     ,html/resources/sequences_IDs/B/05_parrot.jpg,html/resources/sequences_IDs/B/08_slipper.jpg,5,8,2,1,3,2,4,7,0,94,,,,,
,,,,,94,2020-07-04_14h18.41.239,retriever_ti,2020.1.3,Win32,60,Chrome,1366,768,,,,,,,,,,,,,,,,,1,,,,,,,,,,,,,,,,,,,,,,,,,,,949.034405,77,right,parrot      ,6,5,1,0.61715,1,0,949.1281,949.1281,951.625025,0,76,76,76,1,77,5,6,calculator    ,parrot      ,html/resources/sequences_IDs/A/09_calculator.jpg,html/resources/sequences_IDs/B/05_parrot.jpg,9,5,4,2,2,1,8,4,1,94,,,,,
,,,,,94,2020-07-04_14h18.41.239,retriever_ti,2020.1.3,Win32,60,Chrome,1366,768,,,,,,,,,,,,,,,,,,,,,,,,,,,,,,,,,,,,,0,46.47573,,,,,,,,,,,,,,,,,,,,,,,,,,,,,,,,,,,,,,,,,0,0,0,0,1
,,,,,94,2020-07-04_14h18.41.239,retriever_ti,2020.1.3,Win32,60,Chrome,1366,768,,,,,,,,,,,,,,,,,2,,,,,,,,,,,,,,,,,,,,,,,,,,,1086.999705,78,right,slipper     ,2,8,-5,1.27887,0,3,1087.070335,1087.070335,1089.56078,0,0,0,0,1,78,7,2,wolf          ,slipper     ,html/resources/sequences_IDs/A/01_wolf.jpg,html/resources/sequences_IDs/B/08_slipper.jpg,1,8,1,1,3,2,1,7,0,94,,,,,
,,,,,94,2020-07-04_14h18.41.239,retriever_ti,2020.1.3,Win32,60,Chrome,1366,768,,,,,,,,,,,,,,,,,2,,,,,,,,,,,,,,,,,,,,,,,,,,,1090.17834,79,left,gloves      ,8,6,1,0.447485,1,1,1090.21424,1090.21424,1092.69944,0,1,1,1,1,79,8,7,gloves      ,wolf          ,html/resources/sequences_IDs/B/06_gloves.jpg,html/resources/sequences_IDs/A/01_wolf.jpg,6,1,3,2,1,1,5,1,0,94,,,,,
,,,,,94,2020-07-04_14h18.41.239,retriever_ti,2020.1.3,Win32,60,Chrome,1366,768,,,,,,,,,,,,,,,,,2,,,,,,,,,,,,,,,,,,,,,,,,,,,1093.796075,80,left,gloves      ,8,6,6,0.435105,1,3,1093.818685,1093.818685,1096.30797,0,2,2,2,1,80,8,2,gloves      ,slipper     ,html/resources/sequences_IDs/B/06_gloves.jpg,html/resources/sequences_IDs/B/08_slipper.jpg,6,8,3,2,3,2,5,7,0,94,,,,,
,,,,,94,2020-07-04_14h18.41.239,retriever_ti,2020.1.3,Win32,60,Chrome,1366,768,,,,,,,,,,,,,,,,,2,,,,,,,,,,,,,,,,,,,,,,,,,,,1096.92633,81,right,parrot      ,6,5,5,0.77736,1,3,1096.97789,1096.97789,1099.468495,0,3,3,3,1,81,1,6,dress         ,parrot      ,html/resources/sequences_IDs/A/07_dress.jpg,html/resources/sequences_IDs/B/05_parrot.jpg,7,5,3,2,2,1,6,4,0,94,,,,,
,,,,,94,2020-07-04_14h18.41.239,retriever_ti,2020.1.3,Win32,60,Chrome,1366,768,,,,,,,,,,,,,,,,,2,,,,,,,,,,,,,,,,,,,,,,,,,,,1100.081155,82,left,giraffe     ,4,3,-1,0.634895,0,1,1100.11702,1100.11702,1102.61084,0,4,4,4,1,82,4,5,giraffe     ,calculator    ,html/resources/sequences_IDs/B/03_giraffe.jpg,html/resources/sequences_IDs/A/09_calculator.jpg,3,9,1,1,4,2,3,8,1,94,,,,,
,,,,,94,2020-07-04_14h18.41.239,retriever_ti,2020.1.3,Win32,60,Chrome,1366,768,,,,,,,,,,,,,,,,,2,,,,,,,,,,,,,,,,,,,,,,,,,,,1103.716685,83,left,wolf          ,7,1,4,0.87996,1,3,1103.761345,1103.761345,1106.24125,0,5,5,5,1,83,7,3,wolf          ,seaturtle     ,html/resources/sequences_IDs/A/01_wolf.jpg,html/resources/sequences_IDs/A/02_seaturtle.jpg,1,2,1,1,2,1,1,2,0,94,,,,,
,,,,,94,2020-07-04_14h18.41.239,retriever_ti,2020.1.3,Win32,60,Chrome,1366,768,,,,,,,,,,,,,,,,,2,,,,,,,,,,,,,,,,,,,,,,,,,,,1106.860655,84,right,giraffe     ,4,3,3,0.649775,1,3,1106.895065,1106.895065,1109.38603,0,6,6,6,1,84,1,4,dress         ,giraffe     ,html/resources/sequences_IDs/A/07_dress.jpg,html/resources/sequences_IDs/B/03_giraffe.jpg,7,3,3,2,1,1,6,3,0,94,,,,,
,,,,,94,2020-07-04_14h18.41.239,retriever_ti,2020.1.3,Win32,60,Chrome,1366,768,,,,,,,,,,,,,,,,,2,,,,,,,,,,,,,,,,,,,,,,,,,,,1109.992475,85,right,slipper     ,2,8,-2,0.604365,0,3,1110.029135,1110.029135,1112.52516,0,7,7,7,1,85,4,2,giraffe     ,slipper     ,html/resources/sequences_IDs/B/03_giraffe.jpg,html/resources/sequences_IDs/B/08_slipper.jpg,3,8,1,1,3,2,3,7,0,94,,,,,
,,,,,94,2020-07-04_14h18.41.239,retriever_ti,2020.1.3,Win32,60,Chrome,1366,768,,,,,,,,,,,,,,,,,2,,,,,,,,,,,,,,,,,,,,,,,,,,,1113.14407,86,right,slipper     ,2,8,-3,0.64561,0,3,1113.181025,1113.181025,1115.667985,0,8,8,8,1,86,5,2,calculator    ,slipper     ,html/resources/sequences_IDs/A/09_calculator.jpg,html/resources/sequences_IDs/B/08_slipper.jpg,9,8,4,2,3,2,8,7,0,94,,,,,
,,,,,94,2020-07-04_14h18.41.239,retriever_ti,2020.1.3,Win32,60,Chrome,1366,768,,,,,,,,,,,,,,,,,2,,,,,,,,,,,,,,,,,,,,,,,,,,,1116.286845,87,right,giraffe     ,4,3,-1,0.492615,0,0,1116.30942,1116.30942,1118.80118,0,9,9,9,1,87,5,4,calculator    ,giraffe     ,html/resources/sequences_IDs/A/09_calculator.jpg,html/resources/sequences_IDs/B/03_giraffe.jpg,9,3,4,2,1,1,8,3,0,94,,,,,
,,,,,94,2020-07-04_14h18.41.239,retriever_ti,2020.1.3,Win32,60,Chrome,1366,768,,,,,,,,,,,,,,,,,2,,,,,,,,,,,,,,,,,,,,,,,,,,,1119.89642,88,left,giraffe     ,4,3,-1,1.93271,0,0,1119.91089,1119.91089,1122.41326,0,10,10,10,1,88,4,5,giraffe     ,calculator    ,html/resources/sequences_IDs/B/03_giraffe.jpg,html/resources/sequences_IDs/A/09_calculator.jpg,3,9,1,1,4,2,3,8,0,94,,,,,
,,,,,94,2020-07-04_14h18.41.239,retriever_ti,2020.1.3,Win32,60,Chrome,1366,768,,,,,,,,,,,,,,,,,2,,,,,,,,,,,,,,,,,,,,,,,,,,,1123.515335,89,left,parrot      ,6,5,-1,0.91423,0,0,1123.53673,1123.53673,1126.029545,0,11,11,11,1,89,6,7,parrot      ,wolf          ,html/resources/sequences_IDs/B/05_parrot.jpg,html/resources/sequences_IDs/A/01_wolf.jpg,5,1,2,1,1,1,4,1,0,94,,,,,
,,,,,94,2020-07-04_14h18.41.239,retriever_ti,2020.1.3,Win32,60,Chrome,1366,768,,,,,,,,,,,,,,,,,2,,,,,,,,,,,,,,,,,,,,,,,,,,,1127.121675,90,left,gloves      ,8,6,5,1.520605,1,3,1127.15564,1127.15564,1129.642525,0,12,12,12,1,90,8,3,gloves      ,seaturtle     ,html/resources/sequences_IDs/B/06_gloves.jpg,html/resources/sequences_IDs/A/02_seaturtle.jpg,6,2,3,2,2,1,5,2,0,94,,,,,
,,,,,94,2020-07-04_14h18.41.239,retriever_ti,2020.1.3,Win32,60,Chrome,1366,768,,,,,,,,,,,,,,,,,2,,,,,,,,,,,,,,,,,,,,,,,,,,,1130.250525,91,left,seaturtle     ,3,2,-3,0.948645,0,3,1130.28672,1130.28672,1132.77573,0,13,13,13,1,91,3,6,seaturtle     ,parrot      ,html/resources/sequences_IDs/A/02_seaturtle.jpg,html/resources/sequences_IDs/B/05_parrot.jpg,2,5,2,1,2,1,2,4,0,94,,,,,
,,,,,94,2020-07-04_14h18.41.239,retriever_ti,2020.1.3,Win32,60,Chrome,1366,768,,,,,,,,,,,,,,,,,2,,,,,,,,,,,,,,,,,,,,,,,,,,,1133.396825,92,left,parrot      ,6,5,1,0.879285,1,1,1133.4164,1133.4164,1135.89763,0,14,14,14,1,92,6,5,parrot      ,calculator    ,html/resources/sequences_IDs/B/05_parrot.jpg,html/resources/sequences_IDs/A/09_calculator.jpg,5,9,2,1,4,2,4,8,0,94,,,,,
,,,,,94,2020-07-04_14h18.41.239,retriever_ti,2020.1.3,Win32,60,Chrome,1366,768,,,,,,,,,,,,,,,,,2,,,,,,,,,,,,,,,,,,,,,,,,,,,1137.00062,93,right,parrot      ,6,5,-1,0.8258,0,1,1137.035355,1137.035355,1139.524685,0,15,15,15,1,93,7,6,wolf          ,parrot      ,html/resources/sequences_IDs/A/01_wolf.jpg,html/resources/sequences_IDs/B/05_parrot.jpg,1,5,1,1,2,1,1,4,1,94,,,,,
,,,,,94,2020-07-04_14h18.41.239,retriever_ti,2020.1.3,Win32,60,Chrome,1366,768,,,,,,,,,,,,,,,,,2,,,,,,,,,,,,,,,,,,,,,,,,,,,1140.62572,94,right,seaturtle     ,3,2,-2,1.73321,0,3,1140.6462,1140.6462,1143.14081,0,16,16,16,1,94,5,3,calculator    ,seaturtle     ,html/resources/sequences_IDs/A/09_calculator.jpg,html/resources/sequences_IDs/A/02_seaturtle.jpg,9,2,4,2,2,1,8,2,0,94,,,,,
,,,,,94,2020-07-04_14h18.41.239,retriever_ti,2020.1.3,Win32,60,Chrome,1366,768,,,,,,,,,,,,,,,,,2,,,,,,,,,,,,,,,,,,,,,,,,,,,1143.745075,95,right,calculator    ,5,9,1,0.9149,1,1,1143.781695,1143.781695,1146.278165,0,17,17,17,1,95,4,5,giraffe     ,calculator    ,html/resources/sequences_IDs/B/03_giraffe.jpg,html/resources/sequences_IDs/A/09_calculator.jpg,3,9,1,1,4,2,3,8,0,94,,,,,
,,,,,94,2020-07-04_14h18.41.239,retriever_ti,2020.1.3,Win32,60,Chrome,1366,768,,,,,,,,,,,,,,,,,2,,,,,,,,,,,,,,,,,,,,,,,,,,,1147.386875,96,NaN,No_response,NaN,NaN,NaN,NaN,2,2,1147.41453,1147.41453,1150.752645,0,18,18,18,1,96,8,7,gloves      ,wolf          ,html/resources/sequences_IDs/B/06_gloves.jpg,html/resources/sequences_IDs/A/01_wolf.jpg,6,1,3,2,1,1,5,1,0,94,,,,,
,,,,,94,2020-07-04_14h18.41.239,retriever_ti,2020.1.3,Win32,60,Chrome,1366,768,,,,,,,,,,,,,,,,,2,,,,,,,,,,,,,,,,,,,,,,,,,,,1151.84293,97,left,wolf          ,7,1,1,0.91896,1,1,1151.86227,1151.86227,1154.35286,0,19,19,19,1,97,7,6,wolf          ,parrot      ,html/resources/sequences_IDs/A/01_wolf.jpg,html/resources/sequences_IDs/B/05_parrot.jpg,1,5,1,1,2,1,1,4,0,94,,,,,
,,,,,94,2020-07-04_14h18.41.239,retriever_ti,2020.1.3,Win32,60,Chrome,1366,768,,,,,,,,,,,,,,,,,2,,,,,,,,,,,,,,,,,,,,,,,,,,,1155.454815,98,right,gloves      ,8,6,1,1.08286,1,0,1155.49065,1155.49065,1157.9865,0,20,20,20,1,98,7,8,wolf          ,gloves      ,html/resources/sequences_IDs/A/01_wolf.jpg,html/resources/sequences_IDs/B/06_gloves.jpg,1,6,1,1,3,2,1,5,1,94,,,,,
,,,,,94,2020-07-04_14h18.41.239,retriever_ti,2020.1.3,Win32,60,Chrome,1366,768,,,,,,,,,,,,,,,,,2,,,,,,,,,,,,,,,,,,,,,,,,,,,1159.0838,99,NaN,No_response,NaN,NaN,NaN,NaN,2,2,1159.125025,1159.125025,1161.61527,0,21,21,21,1,99,1,3,dress         ,seaturtle     ,html/resources/sequences_IDs/A/07_dress.jpg,html/resources/sequences_IDs/A/02_seaturtle.jpg,7,2,3,2,2,1,6,2,0,94,,,,,
,,,,,94,2020-07-04_14h18.41.239,retriever_ti,2020.1.3,Win32,60,Chrome,1366,768,,,,,,,,,,,,,,,,,2,,,,,,,,,,,,,,,,,,,,,,,,,,,1162.730145,100,left,slipper     ,2,8,1,0.715395,1,1,1162.757945,1162.757945,1165.26323,0,22,22,22,1,100,2,1,slipper     ,dress         ,html/resources/sequences_IDs/B/08_slipper.jpg,html/resources/sequences_IDs/A/07_dress.jpg,8,7,3,2,3,2,7,6,0,94,,,,,
,,,,,94,2020-07-04_14h18.41.239,retriever_ti,2020.1.3,Win32,60,Chrome,1366,768,,,,,,,,,,,,,,,,,2,,,,,,,,,,,,,,,,,,,,,,,,,,,1166.363745,101,left,slipper     ,2,8,1,0.484095,1,1,1166.38664,1166.38664,1168.870965,0,23,23,23,1,101,2,1,slipper     ,dress         ,html/resources/sequences_IDs/B/08_slipper.jpg,html/resources/sequences_IDs/A/07_dress.jpg,8,7,3,2,3,2,7,6,0,94,,,,,
,,,,,94,2020-07-04_14h18.41.239,retriever_ti,2020.1.3,Win32,60,Chrome,1366,768,,,,,,,,,,,,,,,,,2,,,,,,,,,,,,,,,,,,,,,,,,,,,1169.97891,102,right,giraffe     ,4,3,1,0.802845,1,0,1169.996135,1169.996135,1172.49622,0,24,24,24,1,102,3,4,seaturtle     ,giraffe     ,html/resources/sequences_IDs/A/02_seaturtle.jpg,html/resources/sequences_IDs/B/03_giraffe.jpg,2,3,2,1,1,1,2,3,1,94,,,,,
,,,,,94,2020-07-04_14h18.41.239,retriever_ti,2020.1.3,Win32,60,Chrome,1366,768,,,,,,,,,,,,,,,,,2,,,,,,,,,,,,,,,,,,,,,,,,,,,1173.91409,103,right,calculator    ,5,9,2,0.86318,1,3,1173.965085,1173.965085,1176.44693,0,25,25,25,1,103,3,5,seaturtle     ,calculator    ,html/resources/sequences_IDs/A/02_seaturtle.jpg,html/resources/sequences_IDs/A/09_calculator.jpg,2,9,2,1,4,2,2,8,0,94,,,,,
,,,,,94,2020-07-04_14h18.41.239,retriever_ti,2020.1.3,Win32,60,Chrome,1366,768,,,,,,,,,,,,,,,,,2,,,,,,,,,,,,,,,,,,,,,,,,,,,1177.060025,104,NaN,No_response,NaN,NaN,NaN,NaN,2,2,1177.084395,1177.084395,1179.89251,0,26,26,26,1,104,6,4,parrot      ,giraffe     ,html/resources/sequences_IDs/B/05_parrot.jpg,html/resources/sequences_IDs/B/03_giraffe.jpg,5,3,2,1,1,1,4,3,0,94,,,,,
,,,,,94,2020-07-04_14h18.41.239,retriever_ti,2020.1.3,Win32,60,Chrome,1366,768,,,,,,,,,,,,,,,,,2,,,,,,,,,,,,,,,,,,,,,,,,,,,1181.33063,105,NaN,No_response,NaN,NaN,NaN,NaN,2,2,1184.02044,1184.02044,1188.81474,0,27,27,27,1,105,7,6,wolf          ,parrot      ,html/resources/sequences_IDs/A/01_wolf.jpg,html/resources/sequences_IDs/B/05_parrot.jpg,1,5,1,1,2,1,1,4,0,94,,,,,
,,,,,94,2020-07-04_14h18.41.239,retriever_ti,2020.1.3,Win32,60,Chrome,1366,768,,,,,,,,,,,,,,,,,2,,,,,,,,,,,,,,,,,,,,,,,,,,,1190.000475,106,NaN,No_response,NaN,NaN,NaN,NaN,2,2,1190.026205,1190.026205,1192.6722,0,28,28,28,1,106,1,2,dress         ,slipper     ,html/resources/sequences_IDs/A/07_dress.jpg,html/resources/sequences_IDs/B/08_slipper.jpg,7,8,3,2,3,2,6,7,0,94,,,,,
,,,,,94,2020-07-04_14h18.41.239,retriever_ti,2020.1.3,Win32,60,Chrome,1366,768,,,,,,,,,,,,,,,,,2,,,,,,,,,,,,,,,,,,,,,,,,,,,1193.771715,107,right,wolf          ,7,1,5,0.689545,1,3,1193.807285,1193.807285,1196.32914,0,29,29,29,1,107,2,7,slipper     ,wolf          ,html/resources/sequences_IDs/B/08_slipper.jpg,html/resources/sequences_IDs/A/01_wolf.jpg,8,1,3,2,1,1,7,1,0,94,,,,,
,,,,,94,2020-07-04_14h18.41.239,retriever_ti,2020.1.3,Win32,60,Chrome,1366,768,,,,,,,,,,,,,,,,,2,,,,,,,,,,,,,,,,,,,,,,,,,,,1196.935765,108,left,wolf          ,7,1,3,0.23752,1,3,1196.975585,1196.975585,1199.48695,0,30,30,30,1,108,7,4,wolf          ,giraffe     ,html/resources/sequences_IDs/A/01_wolf.jpg,html/resources/sequences_IDs/B/03_giraffe.jpg,1,3,1,1,1,1,1,3,0,94,,,,,
,,,,,94,2020-07-04_14h18.41.239,retriever_ti,2020.1.3,Win32,60,Chrome,1366,768,,,,,,,,,,,,,,,,,2,,,,,,,,,,,,,,,,,,,,,,,,,,,1200.097515,109,right,slipper     ,2,8,1,0.756065,1,0,1200.126925,1200.126925,1202.618065,0,31,31,31,1,109,1,2,dress         ,slipper     ,html/resources/sequences_IDs/A/07_dress.jpg,html/resources/sequences_IDs/B/08_slipper.jpg,7,8,3,2,3,2,6,7,1,94,,,,,
,,,,,94,2020-07-04_14h18.41.239,retriever_ti,2020.1.3,Win32,60,Chrome,1366,768,,,,,,,,,,,,,,,,,2,,,,,,,,,,,,,,,,,,,,,,,,,,,1203.713845,110,NaN,No_response,NaN,NaN,NaN,NaN,2,2,1203.75307,1203.75307,1206.237545,0,32,32,32,1,110,5,6,calculator    ,parrot      ,html/resources/sequences_IDs/A/09_calculator.jpg,html/resources/sequences_IDs/B/05_parrot.jpg,9,5,4,2,2,1,8,4,0,94,,,,,
,,,,,94,2020-07-04_14h18.41.239,retriever_ti,2020.1.3,Win32,60,Chrome,1366,768,,,,,,,,,,,,,,,,,2,,,,,,,,,,,,,,,,,,,,,,,,,,,1207.34672,111,right,parrot      ,6,5,2,0.712795,1,3,1207.385075,1207.385075,1209.91178,0,33,33,33,1,111,4,6,giraffe     ,parrot      ,html/resources/sequences_IDs/B/03_giraffe.jpg,html/resources/sequences_IDs/B/05_parrot.jpg,3,5,1,1,2,1,3,4,0,94,,,,,
,,,,,94,2020-07-04_14h18.41.239,retriever_ti,2020.1.3,Win32,60,Chrome,1366,768,,,,,,,,,,,,,,,,,2,,,,,,,,,,,,,,,,,,,,,,,,,,,1210.52267,112,left,parrot      ,6,5,-2,0.763005,0,3,1210.565505,1210.565505,1213.236855,0,34,34,34,1,112,6,8,parrot      ,gloves      ,html/resources/sequences_IDs/B/05_parrot.jpg,html/resources/sequences_IDs/B/06_gloves.jpg,5,6,2,1,3,2,4,5,0,94,,,,,
,,,,,94,2020-07-04_14h18.41.239,retriever_ti,2020.1.3,Win32,60,Chrome,1366,768,,,,,,,,,,,,,,,,,2,,,,,,,,,,,,,,,,,,,,,,,,,,,1213.95762,113,NaN,No_response,NaN,NaN,NaN,NaN,2,2,1213.97839,1213.97839,1216.45934,0,35,35,35,1,113,8,1,gloves      ,dress         ,html/resources/sequences_IDs/B/06_gloves.jpg,html/resources/sequences_IDs/A/07_dress.jpg,6,7,3,2,3,2,5,6,0,94,,,,,
,,,,,94,2020-07-04_14h18.41.239,retriever_ti,2020.1.3,Win32,60,Chrome,1366,768,,,,,,,,,,,,,,,,,2,,,,,,,,,,,,,,,,,,,,,,,,,,,1217.848665,114,NaN,No_response,NaN,NaN,NaN,NaN,2,2,1217.89091,1217.89091,1223.541955,0,36,36,36,1,114,5,6,calculator    ,parrot      ,html/resources/sequences_IDs/A/09_calculator.jpg,html/resources/sequences_IDs/B/05_parrot.jpg,9,5,4,2,2,1,8,4,0,94,,,,,
,,,,,94,2020-07-04_14h18.41.239,retriever_ti,2020.1.3,Win32,60,Chrome,1366,768,,,,,,,,,,,,,,,,,2,,,,,,,,,,,,,,,,,,,,,,,,,,,1225.50956,115,NaN,No_response,NaN,NaN,NaN,NaN,2,2,1231.65973,1231.65973,1235.480175,0,37,37,37,1,115,3,1,seaturtle     ,dress         ,html/resources/sequences_IDs/A/02_seaturtle.jpg,html/resources/sequences_IDs/A/07_dress.jpg,2,7,2,1,3,2,2,6,0,94,,,,,
,,,,,94,2020-07-04_14h18.41.239,retriever_ti,2020.1.3,Win32,60,Chrome,1366,768,,,,,,,,,,,,,,,,,2,,,,,,,,,,,,,,,,,,,,,,,,,,,1236.574455,116,NaN,No_response,NaN,NaN,NaN,NaN,2,2,1237.320995,1237.320995,1239.143685,0,38,38,38,1,116,1,7,dress         ,wolf          ,html/resources/sequences_IDs/A/07_dress.jpg,html/resources/sequences_IDs/A/01_wolf.jpg,7,1,3,2,1,1,6,1,0,94,,,,,
,,,,,94,2020-07-04_14h18.41.239,retriever_ti,2020.1.3,Win32,60,Chrome,1366,768,,,,,,,,,,,,,,,,,2,,,,,,,,,,,,,,,,,,,,,,,,,,,1240.246985,117,left,seaturtle     ,3,2,-1,0.66788,0,0,1240.270905,1240.270905,1242.760815,0,39,39,39,1,117,3,4,seaturtle     ,giraffe     ,html/resources/sequences_IDs/A/02_seaturtle.jpg,html/resources/sequences_IDs/B/03_giraffe.jpg,2,3,2,1,1,1,2,3,0,94,,,,,
,,,,,94,2020-07-04_14h18.41.239,retriever_ti,2020.1.3,Win32,60,Chrome,1366,768,,,,,,,,,,,,,,,,,2,,,,,,,,,,,,,,,,,,,,,,,,,,,1243.854265,118,left,parrot      ,6,5,1,0.474025,1,0,1244.114805,1244.114805,1246.37635,0,40,40,40,1,118,6,5,parrot      ,calculator    ,html/resources/sequences_IDs/B/05_parrot.jpg,html/resources/sequences_IDs/A/09_calculator.jpg,5,9,2,1,4,2,4,8,1,94,,,,,
,,,,,94,2020-07-04_14h18.41.239,retriever_ti,2020.1.3,Win32,60,Chrome,1366,768,,,,,,,,,,,,,,,,,2,,,,,,,,,,,,,,,,,,,,,,,,,,,1247.488245,119,right,gloves      ,8,6,6,0.459465,1,3,1247.5058,1247.5058,1250.00257,0,41,41,41,1,119,2,8,slipper     ,gloves      ,html/resources/sequences_IDs/B/08_slipper.jpg,html/resources/sequences_IDs/B/06_gloves.jpg,8,6,3,2,3,2,7,5,0,94,,,,,
,,,,,94,2020-07-04_14h18.41.239,retriever_ti,2020.1.3,Win32,60,Chrome,1366,768,,,,,,,,,,,,,,,,,2,,,,,,,,,,,,,,,,,,,,,,,,,,,1250.61433,120,right,giraffe     ,4,3,1,0.545375,1,1,1250.7457,1250.7457,1253.142885,0,42,42,42,1,120,3,4,seaturtle     ,giraffe     ,html/resources/sequences_IDs/A/02_seaturtle.jpg,html/resources/sequences_IDs/B/03_giraffe.jpg,2,3,2,1,1,1,2,3,0,94,,,,,
,,,,,94,2020-07-04_14h18.41.239,retriever_ti,2020.1.3,Win32,60,Chrome,1366,768,,,,,,,,,,,,,,,,,2,,,,,,,,,,,,,,,,,,,,,,,,,,,1254.239925,121,right,wolf          ,7,1,2,0.720795,1,3,1254.61995,1254.61995,1256.75524,0,43,43,43,1,121,5,7,calculator    ,wolf          ,html/resources/sequences_IDs/A/09_calculator.jpg,html/resources/sequences_IDs/A/01_wolf.jpg,9,1,4,2,1,1,8,1,0,94,,,,,
,,,,,94,2020-07-04_14h18.41.239,retriever_ti,2020.1.3,Win32,60,Chrome,1366,768,,,,,,,,,,,,,,,,,2,,,,,,,,,,,,,,,,,,,,,,,,,,,1257.367175,122,right,giraffe     ,4,3,2,0.877875,1,3,1257.42445,1257.42445,1259.886495,0,44,44,44,1,122,2,4,slipper     ,giraffe     ,html/resources/sequences_IDs/B/08_slipper.jpg,html/resources/sequences_IDs/B/03_giraffe.jpg,8,3,3,2,1,1,7,3,0,94,,,,,
,,,,,94,2020-07-04_14h18.41.239,retriever_ti,2020.1.3,Win32,60,Chrome,1366,768,,,,,,,,,,,,,,,,,2,,,,,,,,,,,,,,,,,,,,,,,,,,,1260.495295,123,right,seaturtle     ,3,2,-1,0.96264,0,0,1260.514915,1260.514915,1263.01387,0,45,45,45,1,123,4,3,giraffe     ,seaturtle     ,html/resources/sequences_IDs/B/03_giraffe.jpg,html/resources/sequences_IDs/A/02_seaturtle.jpg,3,2,1,1,2,1,3,2,0,94,,,,,
,,,,,94,2020-07-04_14h18.41.239,retriever_ti,2020.1.3,Win32,60,Chrome,1366,768,,,,,,,,,,,,,,,,,2,,,,,,,,,,,,,,,,,,,,,,,,,,,1264.12086,124,left,dress         ,1,7,-4,0.7667,0,3,1264.21828,1264.21828,1266.635545,0,46,46,46,1,124,1,5,dress         ,calculator    ,html/resources/sequences_IDs/A/07_dress.jpg,html/resources/sequences_IDs/A/09_calculator.jpg,7,9,3,2,4,2,6,8,0,94,,,,,
,,,,,94,2020-07-04_14h18.41.239,retriever_ti,2020.1.3,Win32,60,Chrome,1366,768,,,,,,,,,,,,,,,,,2,,,,,,,,,,,,,,,,,,,,,,,,,,,1267.239575,125,left,slipper     ,2,8,-1,1.06196,0,0,1267.376935,1267.376935,1269.76821,0,47,47,47,1,125,2,3,slipper     ,seaturtle     ,html/resources/sequences_IDs/B/08_slipper.jpg,html/resources/sequences_IDs/A/02_seaturtle.jpg,8,2,3,2,2,1,7,2,0,94,,,,,
,,,,,94,2020-07-04_14h18.41.239,retriever_ti,2020.1.3,Win32,60,Chrome,1366,768,,,,,,,,,,,,,,,,,2,,,,,,,,,,,,,,,,,,,,,,,,,,,1271.029455,126,right,slipper     ,2,8,1,0.573905,1,1,1271.460815,1271.460815,1273.5308,0,48,48,48,1,126,1,2,dress         ,slipper     ,html/resources/sequences_IDs/A/07_dress.jpg,html/resources/sequences_IDs/B/08_slipper.jpg,7,8,3,2,3,2,6,7,0,94,,,,,
,,,,,94,2020-07-04_14h18.41.239,retriever_ti,2020.1.3,Win32,60,Chrome,1366,768,,,,,,,,,,,,,,,,,2,,,,,,,,,,,,,,,,,,,,,,,,,,,1274.8562,127,right,gloves      ,8,6,1,0.976995,1,1,1274.88953,1274.88953,1277.373135,0,49,49,49,1,127,7,8,wolf          ,gloves      ,html/resources/sequences_IDs/A/01_wolf.jpg,html/resources/sequences_IDs/B/06_gloves.jpg,1,6,1,1,3,2,1,5,0,94,,,,,
,,,,,94,2020-07-04_14h18.41.239,retriever_ti,2020.1.3,Win32,60,Chrome,1366,768,,,,,,,,,,,,,,,,,2,,,,,,,,,,,,,,,,,,,,,,,,,,,1278.473395,128,left,gloves      ,8,6,3,0.88876,1,3,1278.54015,1278.54015,1280.97817,0,50,50,50,1,128,8,5,gloves      ,calculator    ,html/resources/sequences_IDs/B/06_gloves.jpg,html/resources/sequences_IDs/A/09_calculator.jpg,6,9,3,2,4,2,5,8,0,94,,,,,
,,,,,94,2020-07-04_14h18.41.239,retriever_ti,2020.1.3,Win32,60,Chrome,1366,768,,,,,,,,,,,,,,,,,2,,,,,,,,,,,,,,,,,,,,,,,,,,,1281.59784,129,left,seaturtle     ,3,2,1,1.05871,1,1,1281.67536,1281.67536,1284.126615,0,51,51,51,1,129,3,2,seaturtle     ,slipper     ,html/resources/sequences_IDs/A/02_seaturtle.jpg,html/resources/sequences_IDs/B/08_slipper.jpg,2,8,2,1,3,2,2,7,0,94,,,,,
,,,,,94,2020-07-04_14h18.41.239,retriever_ti,2020.1.3,Win32,60,Chrome,1366,768,,,,,,,,,,,,,,,,,2,,,,,,,,,,,,,,,,,,,,,,,,,,,1285.22679,130,right,seaturtle     ,3,2,-1,1.02044,0,0,1285.25387,1285.25387,1287.72978,0,52,52,52,1,130,4,3,giraffe     ,seaturtle     ,html/resources/sequences_IDs/B/03_giraffe.jpg,html/resources/sequences_IDs/A/02_seaturtle.jpg,3,2,1,1,2,1,3,2,0,94,,,,,
,,,,,94,2020-07-04_14h18.41.239,retriever_ti,2020.1.3,Win32,60,Chrome,1366,768,,,,,,,,,,,,,,,,,2,,,,,,,,,,,,,,,,,,,,,,,,,,,1288.915805,131,left,calculator    ,5,9,4,1.040815,1,3,1288.956025,1288.956025,1291.4242,0,53,53,53,1,131,5,1,calculator    ,dress         ,html/resources/sequences_IDs/A/09_calculator.jpg,html/resources/sequences_IDs/A/07_dress.jpg,9,7,4,2,3,2,8,6,0,94,,,,,
,,,,,94,2020-07-04_14h18.41.239,retriever_ti,2020.1.3,Win32,60,Chrome,1366,768,,,,,,,,,,,,,,,,,2,,,,,,,,,,,,,,,,,,,,,,,,,,,1292.029695,132,right,gloves      ,8,6,3,0.75457,1,3,1292.12174,1292.12174,1294.57167,0,54,54,54,1,132,5,8,calculator    ,gloves      ,html/resources/sequences_IDs/A/09_calculator.jpg,html/resources/sequences_IDs/B/06_gloves.jpg,9,6,4,2,3,2,8,5,0,94,,,,,
,,,,,94,2020-07-04_14h18.41.239,retriever_ti,2020.1.3,Win32,60,Chrome,1366,768,,,,,,,,,,,,,,,,,2,,,,,,,,,,,,,,,,,,,,,,,,,,,1295.1763,133,left,giraffe     ,4,3,-4,0.55806,0,3,1295.212455,1295.212455,1297.710635,0,55,55,55,1,133,4,8,giraffe     ,gloves      ,html/resources/sequences_IDs/B/03_giraffe.jpg,html/resources/sequences_IDs/B/06_gloves.jpg,3,6,1,1,3,2,3,5,0,94,,,,,
,,,,,94,2020-07-04_14h18.41.239,retriever_ti,2020.1.3,Win32,60,Chrome,1366,768,,,,,,,,,,,,,,,,,2,,,,,,,,,,,,,,,,,,,,,,,,,,,1298.31625,134,left,giraffe     ,4,3,3,0.74318,1,3,1298.347615,1298.347615,1300.836445,0,56,56,56,1,134,4,1,giraffe     ,dress         ,html/resources/sequences_IDs/B/03_giraffe.jpg,html/resources/sequences_IDs/A/07_dress.jpg,3,7,1,1,3,2,3,6,0,94,,,,,
,,,,,94,2020-07-04_14h18.41.239,retriever_ti,2020.1.3,Win32,60,Chrome,1366,768,,,,,,,,,,,,,,,,,2,,,,,,,,,,,,,,,,,,,,,,,,,,,1301.44232,135,right,wolf          ,7,1,4,1.182705,1,3,1301.46081,1301.46081,1303.952715,0,57,57,57,1,135,3,7,seaturtle     ,wolf          ,html/resources/sequences_IDs/A/02_seaturtle.jpg,html/resources/sequences_IDs/A/01_wolf.jpg,2,1,2,1,1,1,2,1,0,94,,,,,
,,,,,94,2020-07-04_14h18.41.239,retriever_ti,2020.1.3,Win32,60,Chrome,1366,768,,,,,,,,,,,,,,,,,2,,,,,,,,,,,,,,,,,,,,,,,,,,,1304.558415,136,left,wolf          ,7,1,6,0.8033,1,3,1304.57848,1304.57848,1307.07347,0,58,58,58,1,136,7,1,wolf          ,dress         ,html/resources/sequences_IDs/A/01_wolf.jpg,html/resources/sequences_IDs/A/07_dress.jpg,1,7,1,1,3,2,1,6,0,94,,,,,
,,,,,94,2020-07-04_14h18.41.239,retriever_ti,2020.1.3,Win32,60,Chrome,1366,768,,,,,,,,,,,,,,,,,2,,,,,,,,,,,,,,,,,,,,,,,,,,,1307.67755,137,left,gloves      ,8,6,2,0.597345,1,3,1307.78785,1307.78785,1310.20166,0,59,59,59,1,137,8,6,gloves      ,parrot      ,html/resources/sequences_IDs/B/06_gloves.jpg,html/resources/sequences_IDs/B/05_parrot.jpg,6,5,3,2,2,1,5,4,0,94,,,,,
,,,,,94,2020-07-04_14h18.41.239,retriever_ti,2020.1.3,Win32,60,Chrome,1366,768,,,,,,,,,,,,,,,,,2,,,,,,,,,,,,,,,,,,,,,,,,,,,1310.81719,138,right,giraffe     ,4,3,-4,0.45356,0,3,1310.85829,1310.85829,1313.33975,0,60,60,60,1,138,8,4,gloves      ,giraffe     ,html/resources/sequences_IDs/B/06_gloves.jpg,html/resources/sequences_IDs/B/03_giraffe.jpg,6,3,3,2,1,1,5,3,0,94,,,,,
,,,,,94,2020-07-04_14h18.41.239,retriever_ti,2020.1.3,Win32,60,Chrome,1366,768,,,,,,,,,,,,,,,,,2,,,,,,,,,,,,,,,,,,,,,,,,,,,1314.125105,139,right,parrot      ,6,5,4,0.559235,1,3,1314.1592,1314.1592,1316.646045,0,61,61,61,1,139,2,6,slipper     ,parrot      ,html/resources/sequences_IDs/B/08_slipper.jpg,html/resources/sequences_IDs/B/05_parrot.jpg,8,5,3,2,2,1,7,4,0,94,,,,,
,,,,,94,2020-07-04_14h18.41.239,retriever_ti,2020.1.3,Win32,60,Chrome,1366,768,,,,,,,,,,,,,,,,,2,,,,,,,,,,,,,,,,,,,,,,,,,,,1317.295625,140,right,giraffe     ,4,3,-1,0.55225,0,0,1317.30836,1317.30836,1319.80109,0,62,62,62,1,140,5,4,calculator    ,giraffe     ,html/resources/sequences_IDs/A/09_calculator.jpg,html/resources/sequences_IDs/B/03_giraffe.jpg,9,3,4,2,1,1,8,3,0,94,,,,,
,,,,,94,2020-07-04_14h18.41.239,retriever_ti,2020.1.3,Win32,60,Chrome,1366,768,,,,,,,,,,,,,,,,,2,,,,,,,,,,,,,,,,,,,,,,,,,,,1320.89782,141,right,calculator    ,5,9,-2,0.95772,0,3,1320.919825,1320.919825,1323.417825,0,63,63,63,1,141,7,5,wolf          ,calculator    ,html/resources/sequences_IDs/A/01_wolf.jpg,html/resources/sequences_IDs/A/09_calculator.jpg,1,9,1,1,4,2,1,8,0,94,,,,,
,,,,,94,2020-07-04_14h18.41.239,retriever_ti,2020.1.3,Win32,60,Chrome,1366,768,,,,,,,,,,,,,,,,,2,,,,,,,,,,,,,,,,,,,,,,,,,,,1324.019945,142,left,giraffe     ,4,3,-3,0.85812,0,3,1324.037495,1324.037495,1326.53158,0,64,64,64,1,142,4,7,giraffe     ,wolf          ,html/resources/sequences_IDs/B/03_giraffe.jpg,html/resources/sequences_IDs/A/01_wolf.jpg,3,1,1,1,1,1,3,1,0,94,,,,,
,,,,,94,2020-07-04_14h18.41.239,retriever_ti,2020.1.3,Win32,60,Chrome,1366,768,,,,,,,,,,,,,,,,,2,,,,,,,,,,,,,,,,,,,,,,,,,,,1327.272815,143,left,parrot      ,6,5,5,0.796105,1,3,1327.29664,1327.29664,1329.791385,0,65,65,65,1,143,6,1,parrot      ,dress         ,html/resources/sequences_IDs/B/05_parrot.jpg,html/resources/sequences_IDs/A/07_dress.jpg,5,7,2,1,3,2,4,6,0,94,,,,,
,,,,,94,2020-07-04_14h18.41.239,retriever_ti,2020.1.3,Win32,60,Chrome,1366,768,,,,,,,,,,,,,,,,,2,,,,,,,,,,,,,,,,,,,,,,,,,,,1330.40054,144,right,gloves      ,8,6,5,0.769195,1,3,1330.52943,1330.52943,1332.90489,0,66,66,66,1,144,3,8,seaturtle     ,gloves      ,html/resources/sequences_IDs/A/02_seaturtle.jpg,html/resources/sequences_IDs/B/06_gloves.jpg,2,6,2,1,3,2,2,5,0,94,,,,,
,,,,,94,2020-07-04_14h18.41.239,retriever_ti,2020.1.3,Win32,60,Chrome,1366,768,,,,,,,,,,,,,,,,,2,,,,,,,,,,,,,,,,,,,,,,,,,,,1333.51238,145,right,calculator    ,5,9,-1,0.82548,0,0,1333.53272,1333.53272,1336.021155,0,67,67,67,1,145,6,5,parrot      ,calculator    ,html/resources/sequences_IDs/B/05_parrot.jpg,html/resources/sequences_IDs/A/09_calculator.jpg,5,9,2,1,4,2,4,8,0,94,,,,,
,,,,,94,2020-07-04_14h18.41.239,retriever_ti,2020.1.3,Win32,60,Chrome,1366,768,,,,,,,,,,,,,,,,,2,,,,,,,,,,,,,,,,,,,,,,,,,,,1337.124865,146,right,slipper     ,2,8,-4,0.74364,0,3,1337.56688,1337.56688,1339.648015,0,68,68,68,1,146,6,2,parrot      ,slipper     ,html/resources/sequences_IDs/B/05_parrot.jpg,html/resources/sequences_IDs/B/08_slipper.jpg,5,8,2,1,3,2,4,7,0,94,,,,,
,,,,,94,2020-07-04_14h18.41.239,retriever_ti,2020.1.3,Win32,60,Chrome,1366,768,,,,,,,,,,,,,,,,,2,,,,,,,,,,,,,,,,,,,,,,,,,,,1340.307385,147,NaN,No_response,NaN,NaN,NaN,NaN,2,2,1340.33478,1340.33478,1342.80751,0,69,69,69,1,147,1,8,dress         ,gloves      ,html/resources/sequences_IDs/A/07_dress.jpg,html/resources/sequences_IDs/B/06_gloves.jpg,7,6,3,2,3,2,6,5,0,94,,,,,
,,,,,94,2020-07-04_14h18.41.239,retriever_ti,2020.1.3,Win32,60,Chrome,1366,768,,,,,,,,,,,,,,,,,2,,,,,,,,,,,,,,,,,,,,,,,,,,,1345.26459,148,left,wolf          ,7,1,-1,0.49552,0,0,1345.63758,1345.63758,1347.94389,0,70,70,70,1,148,7,8,wolf          ,gloves      ,html/resources/sequences_IDs/A/01_wolf.jpg,html/resources/sequences_IDs/B/06_gloves.jpg,1,6,1,1,3,2,1,5,0,94,,,,,
,,,,,94,2020-07-04_14h18.41.239,retriever_ti,2020.1.3,Win32,60,Chrome,1366,768,,,,,,,,,,,,,,,,,2,,,,,,,,,,,,,,,,,,,,,,,,,,,1349.05091,149,right,slipper     ,2,8,-1,0.967705,0,1,1349.069265,1349.069265,1351.55023,0,71,71,71,1,149,3,2,seaturtle     ,slipper     ,html/resources/sequences_IDs/A/02_seaturtle.jpg,html/resources/sequences_IDs/B/08_slipper.jpg,2,8,2,1,3,2,2,7,1,94,,,,,
,,,,,94,2020-07-04_14h18.41.239,retriever_ti,2020.1.3,Win32,60,Chrome,1366,768,,,,,,,,,,,,,,,,,2,,,,,,,,,,,,,,,,,,,,,,,,,,,1352.653015,150,left,slipper     ,2,8,-1,0.889705,0,0,1352.691285,1352.691285,1355.389095,0,72,72,72,1,150,2,3,slipper     ,seaturtle     ,html/resources/sequences_IDs/B/08_slipper.jpg,html/resources/sequences_IDs/A/02_seaturtle.jpg,8,2,3,2,2,1,7,2,0,94,,,,,
,,,,,94,2020-07-04_14h18.41.239,retriever_ti,2020.1.3,Win32,60,Chrome,1366,768,,,,,,,,,,,,,,,,,2,,,,,,,,,,,,,,,,,,,,,,,,,,,1356.49261,151,left,slipper     ,2,8,-3,1.17258,0,3,1356.536225,1356.536225,1359.0178,0,73,73,73,1,151,2,5,slipper     ,calculator    ,html/resources/sequences_IDs/B/08_slipper.jpg,html/resources/sequences_IDs/A/09_calculator.jpg,8,9,3,2,4,2,7,8,0,94,,,,,
,,,,,94,2020-07-04_14h18.41.239,retriever_ti,2020.1.3,Win32,60,Chrome,1366,768,,,,,,,,,,,,,,,,,2,,,,,,,,,,,,,,,,,,,,,,,,,,,1359.90217,152,right,wolf          ,7,1,1,1.063055,1,1,1359.969635,1359.969635,1362.491735,0,74,74,74,1,152,6,7,parrot      ,wolf          ,html/resources/sequences_IDs/B/05_parrot.jpg,html/resources/sequences_IDs/A/01_wolf.jpg,5,1,2,1,1,1,4,1,0,94,,,,,
,,,,,94,2020-07-04_14h18.41.239,retriever_ti,2020.1.3,Win32,60,Chrome,1366,768,,,,,,,,,,,,,,,,,2,,,,,,,,,,,,,,,,,,,,,,,,,,,1363.60022,153,right,seaturtle     ,3,2,-3,1.0135,0,3,1363.79742,1363.79742,1366.186305,0,75,75,75,1,153,6,3,parrot      ,seaturtle     ,html/resources/sequences_IDs/B/05_parrot.jpg,html/resources/sequences_IDs/A/02_seaturtle.jpg,5,2,2,1,2,1,4,2,0,94,,,,,
,,,,,94,2020-07-04_14h18.41.239,retriever_ti,2020.1.3,Win32,60,Chrome,1366,768,,,,,,,,,,,,,,,,,2,,,,,,,,,,,,,,,,,,,,,,,,,,,1366.85236,154,right,slipper     ,2,8,-1,0.90312,0,0,1366.899785,1366.899785,1369.380435,0,76,76,76,1,154,3,2,seaturtle     ,slipper     ,html/resources/sequences_IDs/A/02_seaturtle.jpg,html/resources/sequences_IDs/B/08_slipper.jpg,2,8,2,1,3,2,2,7,0,94,,,,,
,,,,,94,2020-07-04_14h18.41.239,retriever_ti,2020.1.3,Win32,60,Chrome,1366,768,,,,,,,,,,,,,,,,,,,,,,,,,,,,,,,,,,,,,0,19.66448,,,,,,,,,,,,,,,,,,,,,,,,,,,,,,,,,,,,,,,,,1,0,1,0,1
