instructionsLoop.thisRepN,instructionsLoop.thisTrialN,instructionsLoop.thisN,instructionsLoop.thisIndex,instructionsLoop.ran,participant,date,expName,psychopyVersion,OS,frameRate,browser,xResolution,yResolution,fix_onset,tprac,practiceKey.keys,practiceKey.rt,pracitem_chosen_name,acc_practice,P1_onsetPrac,P2_onsetPrac,onsetFeedbPrac,practiceTrials.thisRepN,practiceTrials.thisTrialN,practiceTrials.thisN,practiceTrials.thisIndex,practiceTrials.ran,P1,P2,Block,LocItem1,LocItem2,NameItem1,NameItem2,key_respAC_prac.keys,key_respAC_prac.corr,key_respAC_prac.rt,AC_acc,Attentions.thisRepN,Attentions.thisTrialN,Attentions.thisN,Attentions.thisIndex,Attentions.ran,Stim,Loc1,Loc2,Loc3,Loc4,CorrAns,keyDisturbed.keys,keyDisturbed.rt,repPractice.thisRepN,repPractice.thisTrialN,repPractice.thisN,repPractice.thisIndex,repPractice.ran,fixcross_onsetMain,trialNumber,key_resp.keys,key_resp.rt,item_chosen_name,item_chosen_value,item_chosen_ID,diff_chosen_minus_reject,acc_real,acc_feedback,P1_onset,P2_onset,feedb_onset,trials.thisRepN,trials.thisTrialN,trials.thisN,trials.thisIndex,trials.ran,Trial,ValueP1,ValueP2,P1name,P2name,P1Loc,P2Loc,P1id,P2id,Micro_categoryP1,Macro_categoryP1,Micro_categoryP2,Macro_categoryP2,ID_sequenceP1,ID_sequenceP2,InverseFb,pNumber,repBlocks.thisRepN,repBlocks.thisTrialN,repBlocks.thisN,repBlocks.thisIndex,repBlocks.ran,key_respAC.keys,key_respAC.corr,key_respAC.rt,trials_AC.thisRepN,trials_AC.thisTrialN,trials_AC.thisN,trials_AC.thisIndex,trials_AC.ran,Bonus,BonusLoop.thisRepN,BonusLoop.thisTrialN,BonusLoop.thisN,BonusLoop.thisIndex,BonusLoop.ran,comments
0,0,0,0,1,95,2020-07-04_20h36.49.992,retriever_ti,2020.1.3,Win32,60,Firefox,1920,1080,,,,,,,,,,,,,,,,,,,,,,,,,,,,,,,,,,,,,,,,,,,,,,,,,,,,,,,,,,,,,,,,,,,,,,,,,,,,,,,,,,,,,,,,,,,,,,,,,,
1,0,1,0,1,95,2020-07-04_20h36.49.992,retriever_ti,2020.1.3,Win32,60,Firefox,1920,1080,,,,,,,,,,,,,,,,,,,,,,,,,,,,,,,,,,,,,,,,,,,,,,,,,,,,,,,,,,,,,,,,,,,,,,,,,,,,,,,,,,,,,,,,,,,,,,,,,,
2,0,2,0,1,95,2020-07-04_20h36.49.992,retriever_ti,2020.1.3,Win32,60,Firefox,1920,1080,,,,,,,,,,,,,,,,,,,,,,,,,,,,,,,,,,,,,,,,,,,,,,,,,,,,,,,,,,,,,,,,,,,,,,,,,,,,,,,,,,,,,,,,,,,,,,,,,,
3,0,3,0,1,95,2020-07-04_20h36.49.992,retriever_ti,2020.1.3,Win32,60,Firefox,1920,1080,,,,,,,,,,,,,,,,,,,,,,,,,,,,,,,,,,,,,,,,,,,,,,,,,,,,,,,,,,,,,,,,,,,,,,,,,,,,,,,,,,,,,,,,,,,,,,,,,,
4,0,4,0,1,95,2020-07-04_20h36.49.992,retriever_ti,2020.1.3,Win32,60,Firefox,1920,1080,,,,,,,,,,,,,,,,,,,,,,,,,,,,,,,,,,,,,,,,,,,,,,,,,,,,,,,,,,,,,,,,,,,,,,,,,,,,,,,,,,,,,,,,,,,,,,,,,,
5,0,5,0,1,95,2020-07-04_20h36.49.992,retriever_ti,2020.1.3,Win32,60,Firefox,1920,1080,,,,,,,,,,,,,,,,,,,,,,,,,,,,,,,,,,,,,,,,,,,,,,,,,,,,,,,,,,,,,,,,,,,,,,,,,,,,,,,,,,,,,,,,,,,,,,,,,,
6,0,6,0,1,95,2020-07-04_20h36.49.992,retriever_ti,2020.1.3,Win32,60,Firefox,1920,1080,,,,,,,,,,,,,,,,,,,,,,,,,,,,,,,,,,,,,,,,,,,,,,,,,,,,,,,,,,,,,,,,,,,,,,,,,,,,,,,,,,,,,,,,,,,,,,,,,,
7,0,7,0,1,95,2020-07-04_20h36.49.992,retriever_ti,2020.1.3,Win32,60,Firefox,1920,1080,,,,,,,,,,,,,,,,,,,,,,,,,,,,,,,,,,,,,,,,,,,,,,,,,,,,,,,,,,,,,,,,,,,,,,,,,,,,,,,,,,,,,,,,,,,,,,,,,,
8,0,8,0,1,95,2020-07-04_20h36.49.992,retriever_ti,2020.1.3,Win32,60,Firefox,1920,1080,,,,,,,,,,,,,,,,,,,,,,,,,,,,,,,,,,,,,,,,,,,,,,,,,,,,,,,,,,,,,,,,,,,,,,,,,,,,,,,,,,,,,,,,,,,,,,,,,,
9,0,9,0,1,95,2020-07-04_20h36.49.992,retriever_ti,2020.1.3,Win32,60,Firefox,1920,1080,,,,,,,,,,,,,,,,,,,,,,,,,,,,,,,,,,,,,,,,,,,,,,,,,,,,,,,,,,,,,,,,,,,,,,,,,,,,,,,,,,,,,,,,,,,,,,,,,,
10,0,10,0,1,95,2020-07-04_20h36.49.992,retriever_ti,2020.1.3,Win32,60,Firefox,1920,1080,,,,,,,,,,,,,,,,,,,,,,,,,,,,,,,,,,,,,,,,,,,,,,,,,,,,,,,,,,,,,,,,,,,,,,,,,,,,,,,,,,,,,,,,,,,,,,,,,,
11,0,11,0,1,95,2020-07-04_20h36.49.992,retriever_ti,2020.1.3,Win32,60,Firefox,1920,1080,,,,,,,,,,,,,,,,,,,,,,,,,,,,,,,,,,,,,,,,,,,,,,,,,,,,,,,,,,,,,,,,,,,,,,,,,,,,,,,,,,,,,,,,,,,,,,,,,,
12,0,12,0,1,95,2020-07-04_20h36.49.992,retriever_ti,2020.1.3,Win32,60,Firefox,1920,1080,,,,,,,,,,,,,,,,,,,,,,,,,,,,,,,,,,,,,,,,,,,,,,,,,,,,,,,,,,,,,,,,,,,,,,,,,,,,,,,,,,,,,,,,,,,,,,,,,,
13,0,13,0,1,95,2020-07-04_20h36.49.992,retriever_ti,2020.1.3,Win32,60,Firefox,1920,1080,,,,,,,,,,,,,,,,,,,,,,,,,,,,,,,,,,,,,,,,,,,,,,,,,,,,,,,,,,,,,,,,,,,,,,,,,,,,,,,,,,,,,,,,,,,,,,,,,,
14,0,14,0,1,95,2020-07-04_20h36.49.992,retriever_ti,2020.1.3,Win32,60,Firefox,1920,1080,,,,,,,,,,,,,,,,,,,,,,,,,,,,,,,,,,,,,,,,,,,,,,,,,,,,,,,,,,,,,,,,,,,,,,,,,,,,,,,,,,,,,,,,,,,,,,,,,,
15,0,15,0,1,95,2020-07-04_20h36.49.992,retriever_ti,2020.1.3,Win32,60,Firefox,1920,1080,,,,,,,,,,,,,,,,,,,,,,,,,,,,,,,,,,,,,,,,,,,,,,,,,,,,,,,,,,,,,,,,,,,,,,,,,,,,,,,,,,,,,,,,,,,,,,,,,,
16,0,16,0,1,95,2020-07-04_20h36.49.992,retriever_ti,2020.1.3,Win32,60,Firefox,1920,1080,,,,,,,,,,,,,,,,,,,,,,,,,,,,,,,,,,,,,,,,,,,,,,,,,,,,,,,,,,,,,,,,,,,,,,,,,,,,,,,,,,,,,,,,,,,,,,,,,,
17,0,17,0,1,95,2020-07-04_20h36.49.992,retriever_ti,2020.1.3,Win32,60,Firefox,1920,1080,,,,,,,,,,,,,,,,,,,,,,,,,,,,,,,,,,,,,,,,,,,,,,,,,,,,,,,,,,,,,,,,,,,,,,,,,,,,,,,,,,,,,,,,,,,,,,,,,,
,,,,,95,2020-07-04_20h36.49.992,retriever_ti,2020.1.3,Win32,60,Firefox,1920,1080,12.268,1,right,0.783,canary,1,12.415,12.415,14.916,0,0,0,0,1,2,5,1,html/resources/stimuli_practice_decision/04_beetle.jpg,html/resources/stimuli_practice_decision/02_canary.jpg,beetle,canary,,,,,,,,,,,,,,,,,,,,,,,,,,,,,,,,,,,,,,,,,,,,,,,,,,,,,,,,,,,,,,,,,,,,,,,,,,,,,
,,,,,95,2020-07-04_20h36.49.992,retriever_ti,2020.1.3,Win32,60,Firefox,1920,1080,15.43,2,right,1.147,sock,0,15.466,15.466,17.966,0,1,1,1,1,4,3,1,html/resources/stimuli_practice_decision/01_rabbit.jpg,html/resources/stimuli_practice_decision/07_sock.jpg,rabbit,sock,,,,,,,,,,,,,,,,,,,,,,,,,,,,,,,,,,,,,,,,,,,,,,,,,,,,,,,,,,,,,,,,,,,,,,,,,,,,,
,,,,,95,2020-07-04_20h36.49.992,retriever_ti,2020.1.3,Win32,60,Firefox,1920,1080,18.966,3,left,0.7,pullover,1,18.999,18.999,21.499,0,2,2,2,1,6,2,1,html/resources/stimuli_practice_decision/06_pullover.jpg,html/resources/stimuli_practice_decision/04_beetle.jpg,pullover,beetle,,,,,,,,,,,,,,,,,,,,,,,,,,,,,,,,,,,,,,,,,,,,,,,,,,,,,,,,,,,,,,,,,,,,,,,,,,,,,
,,,,,95,2020-07-04_20h36.49.992,retriever_ti,2020.1.3,Win32,60,Firefox,1920,1080,21.999,4,left,0.942,glasses,1,22.018,22.018,24.516,0,3,3,3,1,7,1,1,html/resources/stimuli_practice_decision/05_glasses.jpg,html/resources/stimuli_practice_decision/08_handmixer.jpg,glasses,handmixer,,,,,,,,,,,,,,,,,,,,,,,,,,,,,,,,,,,,,,,,,,,,,,,,,,,,,,,,,,,,,,,,,,,,,,,,,,,,,
,,,,,95,2020-07-04_20h36.49.992,retriever_ti,2020.1.3,Win32,60,Firefox,1920,1080,25.016,5,right,0.571,pullover,0,25.051,25.051,27.549,0,4,4,4,1,7,6,1,html/resources/stimuli_practice_decision/05_glasses.jpg,html/resources/stimuli_practice_decision/06_pullover.jpg,glasses,pullover,,,,,,,,,,,,,,,,,,,,,,,,,,,,,,,,,,,,,,,,,,,,,,,,,,,,,,,,,,,,,,,,,,,,,,,,,,,,,
,,,,,95,2020-07-04_20h36.49.992,retriever_ti,2020.1.3,Win32,60,Firefox,1920,1080,28.586,6,right,1.332,glasses,1,28.69,28.69,31.182,0,5,5,5,1,4,7,1,html/resources/stimuli_practice_decision/01_rabbit.jpg,html/resources/stimuli_practice_decision/05_glasses.jpg,rabbit,glasses,,,,,,,,,,,,,,,,,,,,,,,,,,,,,,,,,,,,,,,,,,,,,,,,,,,,,,,,,,,,,,,,,,,,,,,,,,,,,
,,,,,95,2020-07-04_20h36.49.992,retriever_ti,2020.1.3,Win32,60,Firefox,1920,1080,31.683,7,left,0.921,handmixer,0,31.699,31.699,34.199,0,6,6,6,1,1,2,1,html/resources/stimuli_practice_decision/08_handmixer.jpg,html/resources/stimuli_practice_decision/04_beetle.jpg,handmixer,beetle,,,,,,,,,,,,,,,,,,,,,,,,,,,,,,,,,,,,,,,,,,,,,,,,,,,,,,,,,,,,,,,,,,,,,,,,,,,,,
,,,,,95,2020-07-04_20h36.49.992,retriever_ti,2020.1.3,Win32,60,Firefox,1920,1080,35.2,8,left,0.878,rabbit,1,35.232,35.232,37.733,0,7,7,7,1,4,3,1,html/resources/stimuli_practice_decision/01_rabbit.jpg,html/resources/stimuli_practice_decision/07_sock.jpg,rabbit,sock,,,,,,,,,,,,,,,,,,,,,,,,,,,,,,,,,,,,,,,,,,,,,,,,,,,,,,,,,,,,,,,,,,,,,,,,,,,,,
,,,,,95,2020-07-04_20h36.49.992,retriever_ti,2020.1.3,Win32,60,Firefox,1920,1080,,,,,,,,,,,,,,,,,,,,,,down,1,1.471,1,0,0,0,1,1,html/resources/sequences_IDs/star.png,square ↑,circle →,star ↓,← triangle,down,,,,,,,,,,,,,,,,,,,,,,,,,,,,,,,,,,,,,,,,,,,,,,,,,,,,,,,,,,,,,,
,,,,,95,2020-07-04_20h36.49.992,retriever_ti,2020.1.3,Win32,60,Firefox,1920,1080,,,,,,,,,,,,,,,,,,,,,,left,1,1.441,1,0,1,1,2,1,html/resources/sequences_IDs/square1.png,star ↑,triangle →,circle ↓,← square,left,,,,,,,,,,,,,,,,,,,,,,,,,,,,,,,,,,,,,,,,,,,,,,,,,,,,,,,,,,,,,,
,,,,,95,2020-07-04_20h36.49.992,retriever_ti,2020.1.3,Win32,60,Firefox,1920,1080,,,,,,,,,,,,,,,,,,,,,,up,1,0.881,1,0,2,2,0,1,html/resources/sequences_IDs/circle.png,circle ↑,square →,triangle ↓,← star ,up,,,,,,,,,,,,,,,,,,,,,,,,,,,,,,,,,,,,,,,,,,,,,,,,,,,,,,,,,,,,,,
,,,,,95,2020-07-04_20h36.49.992,retriever_ti,2020.1.3,Win32,60,Firefox,1920,1080,,,,,,,,,,,,,,,,,,,,,,down,1,1.64,1,0,3,3,3,1,html/resources/sequences_IDs/triangle.png,star ↑,square →,triangle ↓,← circle,down,,,,,,,,,,,,,,,,,,,,,,,,,,,,,,,,,,,,,,,,,,,,,,,,,,,,,,,,,,,,,,
,,,,,95,2020-07-04_20h36.49.992,retriever_ti,2020.1.3,Win32,60,Firefox,1920,1080,,,,,,,,,,,,,,,,,,,,,,,,,,,,,,,,,,,,,0,2.341,0,0,0,0,1,,,,,,,,,,,,,,,,,,,,,,,,,,,,,,,,,,,,,,,,,,,,,,,,,,,,,,,
,,,,,95,2020-07-04_20h36.49.992,retriever_ti,2020.1.3,Win32,60,Firefox,1920,1080,47.746,9,right,1.382,glasses,1,47.766,47.766,50.268,0,0,0,0,1,6,7,1,html/resources/stimuli_practice_decision/06_pullover.jpg,html/resources/stimuli_practice_decision/05_glasses.jpg,pullover,glasses,,,,,,,,,,,,,,,,,,,,,,,,,,,,,,,,,,,,,,,,,,,,,,,,,,,,,,,,,,,,,,,,,,,,,,,,,,,,,
,,,,,95,2020-07-04_20h36.49.992,retriever_ti,2020.1.3,Win32,60,Firefox,1920,1080,51.266,10,right,1.171,beetle,0,51.301,51.301,53.8,0,1,1,1,1,6,2,1,html/resources/stimuli_practice_decision/06_pullover.jpg,html/resources/stimuli_practice_decision/04_beetle.jpg,pullover,beetle,,,,,,,,,,,,,,,,,,,,,,,,,,,,,,,,,,,,,,,,,,,,,,,,,,,,,,,,,,,,,,,,,,,,,,,,,,,,,
,,,,,95,2020-07-04_20h36.49.992,retriever_ti,2020.1.3,Win32,60,Firefox,1920,1080,54.316,11,right,0.65,pullover,1,54.334,54.334,56.865,0,2,2,2,1,5,6,1,html/resources/stimuli_practice_decision/02_canary.jpg,html/resources/stimuli_practice_decision/06_pullover.jpg,canary,pullover,,,,,,,,,,,,,,,,,,,,,,,,,,,,,,,,,,,,,,,,,,,,,,,,,,,,,,,,,,,,,,,,,,,,,,,,,,,,,
,,,,,95,2020-07-04_20h36.49.992,retriever_ti,2020.1.3,Win32,60,Firefox,1920,1080,57.867,12,right,0.949,glasses,0,57.901,57.901,60.399,0,3,3,3,1,8,7,1,html/resources/stimuli_practice_decision/03_squirrel.jpg,html/resources/stimuli_practice_decision/05_glasses.jpg,squirrel,glasses,,,,,,,,,,,,,,,,,,,,,,,,,,,,,,,,,,,,,,,,,,,,,,,,,,,,,,,,,,,,,,,,,,,,,,,,,,,,,
,,,,,95,2020-07-04_20h36.49.992,retriever_ti,2020.1.3,Win32,60,Firefox,1920,1080,61.4,13,left,1.169,canary,1,61.418,61.418,63.916,0,4,4,4,1,5,3,1,html/resources/stimuli_practice_decision/02_canary.jpg,html/resources/stimuli_practice_decision/07_sock.jpg,canary,sock,,,,,,,,,,,,,,,,,,,,,,,,,,,,,,,,,,,,,,,,,,,,,,,,,,,,,,,,,,,,,,,,,,,,,,,,,,,,,
,,,,,95,2020-07-04_20h36.49.992,retriever_ti,2020.1.3,Win32,60,Firefox,1920,1080,64.442,14,left,0.668,glasses,0,64.485,64.485,66.982,0,5,5,5,1,7,8,1,html/resources/stimuli_practice_decision/05_glasses.jpg,html/resources/stimuli_practice_decision/03_squirrel.jpg,glasses,squirrel,,,,,,,,,,,,,,,,,,,,,,,,,,,,,,,,,,,,,,,,,,,,,,,,,,,,,,,,,,,,,,,,,,,,,,,,,,,,,
,,,,,95,2020-07-04_20h36.49.992,retriever_ti,2020.1.3,Win32,60,Firefox,1920,1080,67.983,15,left,0.888,canary,1,68.017,68.017,70.516,0,6,6,6,1,5,4,1,html/resources/stimuli_practice_decision/02_canary.jpg,html/resources/stimuli_practice_decision/01_rabbit.jpg,canary,rabbit,,,,,,,,,,,,,,,,,,,,,,,,,,,,,,,,,,,,,,,,,,,,,,,,,,,,,,,,,,,,,,,,,,,,,,,,,,,,,
,,,,,95,2020-07-04_20h36.49.992,retriever_ti,2020.1.3,Win32,60,Firefox,1920,1080,71.517,16,left,1.026,canary,1,71.533,71.533,74.033,0,7,7,7,1,5,3,1,html/resources/stimuli_practice_decision/02_canary.jpg,html/resources/stimuli_practice_decision/07_sock.jpg,canary,sock,,,,,,,,,,,,,,,,,,,,,,,,,,,,,,,,,,,,,,,,,,,,,,,,,,,,,,,,,,,,,,,,,,,,,,,,,,,,,
,,,,,95,2020-07-04_20h36.49.992,retriever_ti,2020.1.3,Win32,60,Firefox,1920,1080,,,,,,,,,,,,,,,,,,,,,,up,1,1.172,1,0,0,0,0,1,html/resources/sequences_IDs/circle.png,circle ↑,square →,triangle ↓,← star ,up,,,,,,,,,,,,,,,,,,,,,,,,,,,,,,,,,,,,,,,,,,,,,,,,,,,,,,,,,,,,,,
,,,,,95,2020-07-04_20h36.49.992,retriever_ti,2020.1.3,Win32,60,Firefox,1920,1080,,,,,,,,,,,,,,,,,,,,,,down,1,1.384,1,0,1,1,3,1,html/resources/sequences_IDs/triangle.png,star ↑,square →,triangle ↓,← circle,down,,,,,,,,,,,,,,,,,,,,,,,,,,,,,,,,,,,,,,,,,,,,,,,,,,,,,,,,,,,,,,
,,,,,95,2020-07-04_20h36.49.992,retriever_ti,2020.1.3,Win32,60,Firefox,1920,1080,,,,,,,,,,,,,,,,,,,,,,left,1,1.38,1,0,2,2,2,1,html/resources/sequences_IDs/square1.png,star ↑,triangle →,circle ↓,← square,left,,,,,,,,,,,,,,,,,,,,,,,,,,,,,,,,,,,,,,,,,,,,,,,,,,,,,,,,,,,,,,
,,,,,95,2020-07-04_20h36.49.992,retriever_ti,2020.1.3,Win32,60,Firefox,1920,1080,,,,,,,,,,,,,,,,,,,,,,down,1,1.198,1,0,3,3,1,1,html/resources/sequences_IDs/star.png,square ↑,circle →,star ↓,← triangle,down,,,,,,,,,,,,,,,,,,,,,,,,,,,,,,,,,,,,,,,,,,,,,,,,,,,,,,,,,,,,,,
,,,,,95,2020-07-04_20h36.49.992,retriever_ti,2020.1.3,Win32,60,Firefox,1920,1080,,,,,,,,,,,,,,,,,,,,,,,,,,,,,,,,,,,,,0,1.728,1,0,1,0,1,,,,,,,,,,,,,,,,,,,,,,,,,,,,,,,,,,,,,,,,,,,,,,,,,,,,,,,
,,,,,95,2020-07-04_20h36.49.992,retriever_ti,2020.1.3,Win32,60,Firefox,1920,1080,,,,,,,,,,,,,,,,,1,,,,,,,,,,,,,,,,,,,,,,,,,,,84.051,1,left,0.751,scarf         ,1,6,-4,0,3,84.085,84.085,86.583,0,0,0,0,1,1,1,5,scarf         ,clownfish     ,html/resources/sequences_IDs/A/06_scarf.jpg,html/resources/sequences_IDs/A/04_clownfish.jpg,6,4,3,2,2,1,5,3,0,95,,,,,,,,,,,,,,,,,,,,
,,,,,95,2020-07-04_20h36.49.992,retriever_ti,2020.1.3,Win32,60,Firefox,1920,1080,,,,,,,,,,,,,,,,,1,,,,,,,,,,,,,,,,,,,,,,,,,,,87.202,2,right,0.703,satellite_dish,3,10,-4,0,3,87.233,87.233,89.733,0,1,1,1,1,2,7,3,dress         ,satellite_dish,html/resources/sequences_IDs/A/07_dress.jpg,html/resources/sequences_IDs/A/10_satellite_dish.jpg,7,10,3,2,4,2,6,8,0,95,,,,,,,,,,,,,,,,,,,,
,,,,,95,2020-07-04_20h36.49.992,retriever_ti,2020.1.3,Win32,60,Firefox,1920,1080,,,,,,,,,,,,,,,,,1,,,,,,,,,,,,,,,,,,,,,,,,,,,90.35,3,right,1.186,scarf         ,1,6,-1,0,0,90.368,90.368,92.866,0,2,2,2,1,3,2,1,parrot      ,scarf         ,html/resources/sequences_IDs/B/05_parrot.jpg,html/resources/sequences_IDs/A/06_scarf.jpg,5,6,2,1,3,2,4,5,0,95,,,,,,,,,,,,,,,,,,,,
,,,,,95,2020-07-04_20h36.49.992,retriever_ti,2020.1.3,Win32,60,Firefox,1920,1080,,,,,,,,,,,,,,,,,1,,,,,,,,,,,,,,,,,,,,,,,,,,,93.968,4,right,0.875,dress         ,7,7,6,1,3,94.001,94.001,96.552,0,3,3,3,1,4,1,7,scarf         ,dress         ,html/resources/sequences_IDs/A/06_scarf.jpg,html/resources/sequences_IDs/A/07_dress.jpg,6,7,3,2,3,2,5,6,0,95,,,,,,,,,,,,,,,,,,,,
,,,,,95,2020-07-04_20h36.49.992,retriever_ti,2020.1.3,Win32,60,Firefox,1920,1080,,,,,,,,,,,,,,,,,1,,,,,,,,,,,,,,,,,,,,,,,,,,,97.167,5,left,0.929,clownfish     ,5,4,3,1,3,97.202,97.202,99.7,0,4,4,4,1,5,5,2,clownfish     ,parrot      ,html/resources/sequences_IDs/A/04_clownfish.jpg,html/resources/sequences_IDs/B/05_parrot.jpg,4,5,2,1,2,1,3,4,0,95,,,,,,,,,,,,,,,,,,,,
,,,,,95,2020-07-04_20h36.49.992,retriever_ti,2020.1.3,Win32,60,Firefox,1920,1080,,,,,,,,,,,,,,,,,1,,,,,,,,,,,,,,,,,,,,,,,,,,,100.317,6,right,0.877,redfox      ,4,1,3,1,3,100.335,100.335,102.833,0,5,5,5,1,6,1,4,scarf         ,redfox      ,html/resources/sequences_IDs/A/06_scarf.jpg,html/resources/sequences_IDs/B/01_redfox.jpg,6,1,3,2,1,1,5,1,0,95,,,,,,,,,,,,,,,,,,,,
,,,,,95,2020-07-04_20h36.49.992,retriever_ti,2020.1.3,Win32,60,Firefox,1920,1080,,,,,,,,,,,,,,,,,1,,,,,,,,,,,,,,,,,,,,,,,,,,,103.451,7,right,0.916,redfox      ,4,1,-2,0,3,103.502,103.502,106,0,6,6,6,1,7,6,4,phone       ,redfox      ,html/resources/sequences_IDs/B/09_phone.jpg,html/resources/sequences_IDs/B/01_redfox.jpg,9,1,4,2,1,1,7,1,0,95,,,,,,,,,,,,,,,,,,,,
,,,,,95,2020-07-04_20h36.49.992,retriever_ti,2020.1.3,Win32,60,Firefox,1920,1080,,,,,,,,,,,,,,,,,1,,,,,,,,,,,,,,,,,,,,,,,,,,,106.617,8,right,0.703,giraffe     ,8,3,2,1,3,106.634,106.634,109.134,0,7,7,7,1,8,6,8,phone       ,giraffe     ,html/resources/sequences_IDs/B/09_phone.jpg,html/resources/sequences_IDs/B/03_giraffe.jpg,9,3,4,2,1,1,7,2,0,95,,,,,,,,,,,,,,,,,,,,
,,,,,95,2020-07-04_20h36.49.992,retriever_ti,2020.1.3,Win32,60,Firefox,1920,1080,,,,,,,,,,,,,,,,,1,,,,,,,,,,,,,,,,,,,,,,,,,,,109.751,9,right,0.86,giraffe     ,8,3,3,1,3,109.768,109.768,112.259,0,8,8,8,1,9,5,8,clownfish     ,giraffe     ,html/resources/sequences_IDs/A/04_clownfish.jpg,html/resources/sequences_IDs/B/03_giraffe.jpg,4,3,2,1,1,1,3,2,0,95,,,,,,,,,,,,,,,,,,,,
,,,,,95,2020-07-04_20h36.49.992,retriever_ti,2020.1.3,Win32,60,Firefox,1920,1080,,,,,,,,,,,,,,,,,1,,,,,,,,,,,,,,,,,,,,,,,,,,,112.867,10,left,0.607,dress         ,7,7,1,1,1,112.884,112.884,115.383,0,9,9,9,1,10,7,6,dress         ,phone       ,html/resources/sequences_IDs/A/07_dress.jpg,html/resources/sequences_IDs/B/09_phone.jpg,7,9,3,2,4,2,6,7,0,95,,,,,,,,,,,,,,,,,,,,
,,,,,95,2020-07-04_20h36.49.992,retriever_ti,2020.1.3,Win32,60,Firefox,1920,1080,,,,,,,,,,,,,,,,,1,,,,,,,,,,,,,,,,,,,,,,,,,,,116.484,11,right,1.255,redfox      ,4,1,-1,0,1,116.502,116.502,119,0,10,10,10,1,11,5,4,clownfish     ,redfox      ,html/resources/sequences_IDs/A/04_clownfish.jpg,html/resources/sequences_IDs/B/01_redfox.jpg,4,1,2,1,1,1,3,1,1,95,,,,,,,,,,,,,,,,,,,,
,,,,,95,2020-07-04_20h36.49.992,retriever_ti,2020.1.3,Win32,60,Firefox,1920,1080,,,,,,,,,,,,,,,,,1,,,,,,,,,,,,,,,,,,,,,,,,,,,120.096,12,left,0.622,redfox      ,4,1,-1,0,0,120.1,120.1,122.6,0,11,11,11,1,12,4,5,redfox      ,clownfish     ,html/resources/sequences_IDs/B/01_redfox.jpg,html/resources/sequences_IDs/A/04_clownfish.jpg,1,4,1,1,2,1,1,3,0,95,,,,,,,,,,,,,,,,,,,,
,,,,,95,2020-07-04_20h36.49.992,retriever_ti,2020.1.3,Win32,60,Firefox,1920,1080,,,,,,,,,,,,,,,,,1,,,,,,,,,,,,,,,,,,,,,,,,,,,123.7,13,left,1.139,parrot      ,2,5,-1,0,0,123.734,123.734,126.234,0,12,12,12,1,13,2,3,parrot      ,satellite_dish,html/resources/sequences_IDs/B/05_parrot.jpg,html/resources/sequences_IDs/A/10_satellite_dish.jpg,5,10,2,1,4,2,4,8,0,95,,,,,,,,,,,,,,,,,,,,
,,,,,95,2020-07-04_20h36.49.992,retriever_ti,2020.1.3,Win32,60,Firefox,1920,1080,,,,,,,,,,,,,,,,,1,,,,,,,,,,,,,,,,,,,,,,,,,,,127.343,14,right,0.847,scarf         ,1,6,-4,0,3,127.426,127.426,129.918,0,13,13,13,1,14,5,1,clownfish     ,scarf         ,html/resources/sequences_IDs/A/04_clownfish.jpg,html/resources/sequences_IDs/A/06_scarf.jpg,4,6,2,1,3,2,3,5,0,95,,,,,,,,,,,,,,,,,,,,
,,,,,95,2020-07-04_20h36.49.992,retriever_ti,2020.1.3,Win32,60,Firefox,1920,1080,,,,,,,,,,,,,,,,,1,,,,,,,,,,,,,,,,,,,,,,,,,,,130.534,15,right,0.686,redfox      ,4,1,-1,0,0,130.567,130.567,133.067,0,14,14,14,1,15,5,4,clownfish     ,redfox      ,html/resources/sequences_IDs/A/04_clownfish.jpg,html/resources/sequences_IDs/B/01_redfox.jpg,4,1,2,1,1,1,3,1,0,95,,,,,,,,,,,,,,,,,,,,
,,,,,95,2020-07-04_20h36.49.992,retriever_ti,2020.1.3,Win32,60,Firefox,1920,1080,,,,,,,,,,,,,,,,,1,,,,,,,,,,,,,,,,,,,,,,,,,,,134.167,16,left,0.965,giraffe     ,8,3,3,1,3,134.202,134.202,136.7,0,15,15,15,1,16,8,5,giraffe     ,clownfish     ,html/resources/sequences_IDs/B/03_giraffe.jpg,html/resources/sequences_IDs/A/04_clownfish.jpg,3,4,1,1,2,1,2,3,0,95,,,,,,,,,,,,,,,,,,,,
,,,,,95,2020-07-04_20h36.49.992,retriever_ti,2020.1.3,Win32,60,Firefox,1920,1080,,,,,,,,,,,,,,,,,1,,,,,,,,,,,,,,,,,,,,,,,,,,,137.318,17,left,1.121,redfox      ,4,1,3,1,3,137.351,137.351,139.851,0,16,16,16,1,17,4,1,redfox      ,scarf         ,html/resources/sequences_IDs/B/01_redfox.jpg,html/resources/sequences_IDs/A/06_scarf.jpg,1,6,1,1,3,2,1,5,0,95,,,,,,,,,,,,,,,,,,,,
,,,,,95,2020-07-04_20h36.49.992,retriever_ti,2020.1.3,Win32,60,Firefox,1920,1080,,,,,,,,,,,,,,,,,1,,,,,,,,,,,,,,,,,,,,,,,,,,,140.468,18,right,1.114,dress         ,7,7,5,1,3,140.484,140.484,142.999,0,17,17,17,1,18,2,7,parrot      ,dress         ,html/resources/sequences_IDs/B/05_parrot.jpg,html/resources/sequences_IDs/A/07_dress.jpg,5,7,2,1,3,2,4,6,0,95,,,,,,,,,,,,,,,,,,,,
,,,,,95,2020-07-04_20h36.49.992,retriever_ti,2020.1.3,Win32,60,Firefox,1920,1080,,,,,,,,,,,,,,,,,1,,,,,,,,,,,,,,,,,,,,,,,,,,,143.685,19,left,0.865,scarf         ,1,6,-1,0,0,143.857,143.857,146.351,0,18,18,18,1,19,1,2,scarf         ,parrot      ,html/resources/sequences_IDs/A/06_scarf.jpg,html/resources/sequences_IDs/B/05_parrot.jpg,6,5,3,2,2,1,5,4,0,95,,,,,,,,,,,,,,,,,,,,
,,,,,95,2020-07-04_20h36.49.992,retriever_ti,2020.1.3,Win32,60,Firefox,1920,1080,,,,,,,,,,,,,,,,,1,,,,,,,,,,,,,,,,,,,,,,,,,,,147.451,20,right,0.949,parrot      ,2,5,-1,0,1,147.467,147.467,149.967,0,19,19,19,1,20,3,2,satellite_dish,parrot      ,html/resources/sequences_IDs/A/10_satellite_dish.jpg,html/resources/sequences_IDs/B/05_parrot.jpg,10,5,4,2,2,1,8,4,1,95,,,,,,,,,,,,,,,,,,,,
,,,,,95,2020-07-04_20h36.49.992,retriever_ti,2020.1.3,Win32,60,Firefox,1920,1080,,,,,,,,,,,,,,,,,1,,,,,,,,,,,,,,,,,,,,,,,,,,,151.087,21,right,1.212,clownfish     ,5,4,-1,0,0,151.189,151.189,153.683,0,20,20,20,1,21,6,5,phone       ,clownfish     ,html/resources/sequences_IDs/B/09_phone.jpg,html/resources/sequences_IDs/A/04_clownfish.jpg,9,4,4,2,2,1,7,3,0,95,,,,,,,,,,,,,,,,,,,,
,,,,,95,2020-07-04_20h36.49.992,retriever_ti,2020.1.3,Win32,60,Firefox,1920,1080,,,,,,,,,,,,,,,,,1,,,,,,,,,,,,,,,,,,,,,,,,,,,154.784,22,left,0.863,phone       ,6,9,5,1,3,154.802,154.802,157.3,0,21,21,21,1,22,6,1,phone       ,scarf         ,html/resources/sequences_IDs/B/09_phone.jpg,html/resources/sequences_IDs/A/06_scarf.jpg,9,6,4,2,3,2,7,5,0,95,,,,,,,,,,,,,,,,,,,,
,,,,,95,2020-07-04_20h36.49.992,retriever_ti,2020.1.3,Win32,60,Firefox,1920,1080,,,,,,,,,,,,,,,,,1,,,,,,,,,,,,,,,,,,,,,,,,,,,157.9,23,left,1.216,giraffe     ,8,3,1,1,1,157.917,157.917,160.418,0,22,22,22,1,23,8,7,giraffe     ,dress         ,html/resources/sequences_IDs/B/03_giraffe.jpg,html/resources/sequences_IDs/A/07_dress.jpg,3,7,1,1,3,2,2,6,0,95,,,,,,,,,,,,,,,,,,,,
,,,,,95,2020-07-04_20h36.49.992,retriever_ti,2020.1.3,Win32,60,Firefox,1920,1080,,,,,,,,,,,,,,,,,1,,,,,,,,,,,,,,,,,,,,,,,,,,,161.518,24,right,0.921,satellite_dish,3,10,2,1,3,161.535,161.535,164.034,0,23,23,23,1,24,1,3,scarf         ,satellite_dish,html/resources/sequences_IDs/A/06_scarf.jpg,html/resources/sequences_IDs/A/10_satellite_dish.jpg,6,10,3,2,4,2,5,8,0,95,,,,,,,,,,,,,,,,,,,,
,,,,,95,2020-07-04_20h36.49.992,retriever_ti,2020.1.3,Win32,60,Firefox,1920,1080,,,,,,,,,,,,,,,,,1,,,,,,,,,,,,,,,,,,,,,,,,,,,164.651,25,left,1.22,giraffe     ,8,3,2,1,3,164.669,164.669,167.286,0,24,24,24,1,25,8,6,giraffe     ,phone       ,html/resources/sequences_IDs/B/03_giraffe.jpg,html/resources/sequences_IDs/B/09_phone.jpg,3,9,1,1,4,2,2,7,0,95,,,,,,,,,,,,,,,,,,,,
,,,,,95,2020-07-04_20h36.49.992,retriever_ti,2020.1.3,Win32,60,Firefox,1920,1080,,,,,,,,,,,,,,,,,1,,,,,,,,,,,,,,,,,,,,,,,,,,,167.9,26,left,1.129,clownfish     ,5,4,-1,0,0,167.934,167.934,170.434,0,25,25,25,1,26,5,6,clownfish     ,phone       ,html/resources/sequences_IDs/A/04_clownfish.jpg,html/resources/sequences_IDs/B/09_phone.jpg,4,9,2,1,4,2,3,7,0,95,,,,,,,,,,,,,,,,,,,,
,,,,,95,2020-07-04_20h36.49.992,retriever_ti,2020.1.3,Win32,60,Firefox,1920,1080,,,,,,,,,,,,,,,,,1,,,,,,,,,,,,,,,,,,,,,,,,,,,171.534,27,left,1.028,dress         ,7,7,2,1,3,171.568,171.568,174.072,0,26,26,26,1,27,7,5,dress         ,clownfish     ,html/resources/sequences_IDs/A/07_dress.jpg,html/resources/sequences_IDs/A/04_clownfish.jpg,7,4,3,2,2,1,6,3,0,95,,,,,,,,,,,,,,,,,,,,
,,,,,95,2020-07-04_20h36.49.992,retriever_ti,2020.1.3,Win32,60,Firefox,1920,1080,,,,,,,,,,,,,,,,,1,,,,,,,,,,,,,,,,,,,,,,,,,,,174.708,28,right,0.752,parrot      ,2,5,-1,0,0,174.76,174.76,177.251,0,27,27,27,1,28,3,2,satellite_dish,parrot      ,html/resources/sequences_IDs/A/10_satellite_dish.jpg,html/resources/sequences_IDs/B/05_parrot.jpg,10,5,4,2,2,1,8,4,0,95,,,,,,,,,,,,,,,,,,,,
,,,,,95,2020-07-04_20h36.49.992,retriever_ti,2020.1.3,Win32,60,Firefox,1920,1080,,,,,,,,,,,,,,,,,1,,,,,,,,,,,,,,,,,,,,,,,,,,,178.351,29,right,1.227,redfox      ,4,1,-1,0,0,178.369,178.369,180.868,0,28,28,28,1,29,5,4,clownfish     ,redfox      ,html/resources/sequences_IDs/A/04_clownfish.jpg,html/resources/sequences_IDs/B/01_redfox.jpg,4,1,2,1,1,1,3,1,0,95,,,,,,,,,,,,,,,,,,,,
,,,,,95,2020-07-04_20h36.49.992,retriever_ti,2020.1.3,Win32,60,Firefox,1920,1080,,,,,,,,,,,,,,,,,1,,,,,,,,,,,,,,,,,,,,,,,,,,,181.977,30,left,1.106,redfox      ,4,1,-4,0,3,182.064,182.064,184.551,0,29,29,29,1,30,4,8,redfox      ,giraffe     ,html/resources/sequences_IDs/B/01_redfox.jpg,html/resources/sequences_IDs/B/03_giraffe.jpg,1,3,1,1,1,1,1,2,0,95,,,,,,,,,,,,,,,,,,,,
,,,,,95,2020-07-04_20h36.49.992,retriever_ti,2020.1.3,Win32,60,Firefox,1920,1080,,,,,,,,,,,,,,,,,1,,,,,,,,,,,,,,,,,,,,,,,,,,,185.168,31,left,1.335,satellite_dish,3,10,-1,0,1,185.201,185.201,187.701,0,30,30,30,1,31,3,4,satellite_dish,redfox      ,html/resources/sequences_IDs/A/10_satellite_dish.jpg,html/resources/sequences_IDs/B/01_redfox.jpg,10,1,4,2,1,1,8,1,1,95,,,,,,,,,,,,,,,,,,,,
,,,,,95,2020-07-04_20h36.49.992,retriever_ti,2020.1.3,Win32,60,Firefox,1920,1080,,,,,,,,,,,,,,,,,1,,,,,,,,,,,,,,,,,,,,,,,,,,,188.802,32,right,1.079,parrot      ,2,5,-2,0,3,188.836,188.836,191.334,0,31,31,31,1,32,4,2,redfox      ,parrot      ,html/resources/sequences_IDs/B/01_redfox.jpg,html/resources/sequences_IDs/B/05_parrot.jpg,1,5,1,1,2,1,1,4,0,95,,,,,,,,,,,,,,,,,,,,
,,,,,95,2020-07-04_20h36.49.992,retriever_ti,2020.1.3,Win32,60,Firefox,1920,1080,,,,,,,,,,,,,,,,,1,,,,,,,,,,,,,,,,,,,,,,,,,,,191.951,33,right,1.273,giraffe     ,8,3,7,1,3,191.986,191.986,194.484,0,32,32,32,1,33,1,8,scarf         ,giraffe     ,html/resources/sequences_IDs/A/06_scarf.jpg,html/resources/sequences_IDs/B/03_giraffe.jpg,6,3,3,2,1,1,5,2,0,95,,,,,,,,,,,,,,,,,,,,
,,,,,95,2020-07-04_20h36.49.992,retriever_ti,2020.1.3,Win32,60,Firefox,1920,1080,,,,,,,,,,,,,,,,,1,,,,,,,,,,,,,,,,,,,,,,,,,,,195.084,34,left,1.009,parrot      ,2,5,-1,0,0,195.101,195.101,197.592,0,33,33,33,1,34,2,3,parrot      ,satellite_dish,html/resources/sequences_IDs/B/05_parrot.jpg,html/resources/sequences_IDs/A/10_satellite_dish.jpg,5,10,2,1,4,2,4,8,0,95,,,,,,,,,,,,,,,,,,,,
,,,,,95,2020-07-04_20h36.49.992,retriever_ti,2020.1.3,Win32,60,Firefox,1920,1080,,,,,,,,,,,,,,,,,1,,,,,,,,,,,,,,,,,,,,,,,,,,,198.685,35,left,1.011,redfox      ,4,1,1,1,1,198.701,198.701,201.201,0,34,34,34,1,35,4,3,redfox      ,satellite_dish,html/resources/sequences_IDs/B/01_redfox.jpg,html/resources/sequences_IDs/A/10_satellite_dish.jpg,1,10,1,1,4,2,1,8,0,95,,,,,,,,,,,,,,,,,,,,
,,,,,95,2020-07-04_20h36.49.992,retriever_ti,2020.1.3,Win32,60,Firefox,1920,1080,,,,,,,,,,,,,,,,,1,,,,,,,,,,,,,,,,,,,,,,,,,,,202.301,36,right,0.63,dress         ,7,7,4,1,3,202.318,202.318,204.834,0,35,35,35,1,36,3,7,satellite_dish,dress         ,html/resources/sequences_IDs/A/10_satellite_dish.jpg,html/resources/sequences_IDs/A/07_dress.jpg,10,7,4,2,3,2,8,6,0,95,,,,,,,,,,,,,,,,,,,,
,,,,,95,2020-07-04_20h36.49.992,retriever_ti,2020.1.3,Win32,60,Firefox,1920,1080,,,,,,,,,,,,,,,,,1,,,,,,,,,,,,,,,,,,,,,,,,,,,205.458,37,right,1.65,phone       ,6,9,1,1,1,205.498,205.498,208.001,0,36,36,36,1,37,5,6,clownfish     ,phone       ,html/resources/sequences_IDs/A/04_clownfish.jpg,html/resources/sequences_IDs/B/09_phone.jpg,4,9,2,1,4,2,3,7,0,95,,,,,,,,,,,,,,,,,,,,
,,,,,95,2020-07-04_20h36.49.992,retriever_ti,2020.1.3,Win32,60,Firefox,1920,1080,,,,,,,,,,,,,,,,,1,,,,,,,,,,,,,,,,,,,,,,,,,,,209.101,38,right,1.077,parrot      ,2,5,1,1,0,209.12,209.12,211.618,0,37,37,37,1,38,1,2,scarf         ,parrot      ,html/resources/sequences_IDs/A/06_scarf.jpg,html/resources/sequences_IDs/B/05_parrot.jpg,6,5,3,2,2,1,5,4,1,95,,,,,,,,,,,,,,,,,,,,
,,,,,95,2020-07-04_20h36.49.992,retriever_ti,2020.1.3,Win32,60,Firefox,1920,1080,,,,,,,,,,,,,,,,,1,,,,,,,,,,,,,,,,,,,,,,,,,,,212.718,39,left,0.849,satellite_dish,3,10,1,1,1,212.752,212.752,215.251,0,38,38,38,1,39,3,2,satellite_dish,parrot      ,html/resources/sequences_IDs/A/10_satellite_dish.jpg,html/resources/sequences_IDs/B/05_parrot.jpg,10,5,4,2,2,1,8,4,0,95,,,,,,,,,,,,,,,,,,,,
,,,,,95,2020-07-04_20h36.49.992,retriever_ti,2020.1.3,Win32,60,Firefox,1920,1080,,,,,,,,,,,,,,,,,1,,,,,,,,,,,,,,,,,,,,,,,,,,,216.352,40,right,1.149,scarf         ,1,6,-2,0,3,216.386,216.386,218.885,0,39,39,39,1,40,3,1,satellite_dish,scarf         ,html/resources/sequences_IDs/A/10_satellite_dish.jpg,html/resources/sequences_IDs/A/06_scarf.jpg,10,6,4,2,3,2,8,5,0,95,,,,,,,,,,,,,,,,,,,,
,,,,,95,2020-07-04_20h36.49.992,retriever_ti,2020.1.3,Win32,60,Firefox,1920,1080,,,,,,,,,,,,,,,,,1,,,,,,,,,,,,,,,,,,,,,,,,,,,219.502,41,left,0.875,redfox      ,4,1,-2,0,3,219.519,219.519,222.072,0,40,40,40,1,41,4,6,redfox      ,phone       ,html/resources/sequences_IDs/B/01_redfox.jpg,html/resources/sequences_IDs/B/09_phone.jpg,1,9,1,1,4,2,1,7,0,95,,,,,,,,,,,,,,,,,,,,
,,,,,95,2020-07-04_20h36.49.992,retriever_ti,2020.1.3,Win32,60,Firefox,1920,1080,,,,,,,,,,,,,,,,,1,,,,,,,,,,,,,,,,,,,,,,,,,,,222.684,42,right,0.889,redfox      ,4,1,-4,0,3,222.718,222.718,225.218,0,41,41,41,1,42,8,4,giraffe     ,redfox      ,html/resources/sequences_IDs/B/03_giraffe.jpg,html/resources/sequences_IDs/B/01_redfox.jpg,3,1,1,1,1,1,2,1,0,95,,,,,,,,,,,,,,,,,,,,
,,,,,95,2020-07-04_20h36.49.992,retriever_ti,2020.1.3,Win32,60,Firefox,1920,1080,,,,,,,,,,,,,,,,,1,,,,,,,,,,,,,,,,,,,,,,,,,,,225.835,43,right,0.81,satellite_dish,3,10,-3,0,3,225.851,225.851,228.351,0,42,42,42,1,43,6,3,phone       ,satellite_dish,html/resources/sequences_IDs/B/09_phone.jpg,html/resources/sequences_IDs/A/10_satellite_dish.jpg,9,10,4,2,4,2,7,8,0,95,,,,,,,,,,,,,,,,,,,,
,,,,,95,2020-07-04_20h36.49.992,retriever_ti,2020.1.3,Win32,60,Firefox,1920,1080,,,,,,,,,,,,,,,,,1,,,,,,,,,,,,,,,,,,,,,,,,,,,228.952,44,right,1.415,phone       ,6,9,4,1,3,229.047,229.047,231.534,0,43,43,43,1,44,2,6,parrot      ,phone       ,html/resources/sequences_IDs/B/05_parrot.jpg,html/resources/sequences_IDs/B/09_phone.jpg,5,9,2,1,4,2,4,7,0,95,,,,,,,,,,,,,,,,,,,,
,,,,,95,2020-07-04_20h36.49.992,retriever_ti,2020.1.3,Win32,60,Firefox,1920,1080,,,,,,,,,,,,,,,,,1,,,,,,,,,,,,,,,,,,,,,,,,,,,232.152,45,left,1.297,scarf         ,1,6,-1,0,0,232.17,232.17,234.669,0,44,44,44,1,45,1,2,scarf         ,parrot      ,html/resources/sequences_IDs/A/06_scarf.jpg,html/resources/sequences_IDs/B/05_parrot.jpg,6,5,3,2,2,1,5,4,0,95,,,,,,,,,,,,,,,,,,,,
,,,,,95,2020-07-04_20h36.49.992,retriever_ti,2020.1.3,Win32,60,Firefox,1920,1080,,,,,,,,,,,,,,,,,1,,,,,,,,,,,,,,,,,,,,,,,,,,,235.768,46,right,0.924,dress         ,7,7,1,1,1,235.785,235.785,238.285,0,45,45,45,1,46,6,7,phone       ,dress         ,html/resources/sequences_IDs/B/09_phone.jpg,html/resources/sequences_IDs/A/07_dress.jpg,9,7,4,2,3,2,7,6,0,95,,,,,,,,,,,,,,,,,,,,
,,,,,95,2020-07-04_20h36.49.992,retriever_ti,2020.1.3,Win32,60,Firefox,1920,1080,,,,,,,,,,,,,,,,,1,,,,,,,,,,,,,,,,,,,,,,,,,,,239.385,47,right,0.825,satellite_dish,3,10,-5,0,3,239.42,239.42,241.918,0,46,46,46,1,47,8,3,giraffe     ,satellite_dish,html/resources/sequences_IDs/B/03_giraffe.jpg,html/resources/sequences_IDs/A/10_satellite_dish.jpg,3,10,1,1,4,2,2,8,0,95,,,,,,,,,,,,,,,,,,,,
,,,,,95,2020-07-04_20h36.49.992,retriever_ti,2020.1.3,Win32,60,Firefox,1920,1080,,,,,,,,,,,,,,,,,1,,,,,,,,,,,,,,,,,,,,,,,,,,,242.518,48,left,1.119,satellite_dish,3,10,-1,0,0,242.535,242.535,245.06,0,47,47,47,1,48,3,4,satellite_dish,redfox      ,html/resources/sequences_IDs/A/10_satellite_dish.jpg,html/resources/sequences_IDs/B/01_redfox.jpg,10,1,4,2,1,1,8,1,0,95,,,,,,,,,,,,,,,,,,,,
,,,,,95,2020-07-04_20h36.49.992,retriever_ti,2020.1.3,Win32,60,Firefox,1920,1080,,,,,,,,,,,,,,,,,1,,,,,,,,,,,,,,,,,,,,,,,,,,,246.151,49,right,1.257,dress         ,7,7,3,1,3,246.186,246.186,248.685,0,48,48,48,1,49,4,7,redfox      ,dress         ,html/resources/sequences_IDs/B/01_redfox.jpg,html/resources/sequences_IDs/A/07_dress.jpg,1,7,1,1,3,2,1,6,0,95,,,,,,,,,,,,,,,,,,,,
,,,,,95,2020-07-04_20h36.49.992,retriever_ti,2020.1.3,Win32,60,Firefox,1920,1080,,,,,,,,,,,,,,,,,1,,,,,,,,,,,,,,,,,,,,,,,,,,,249.285,50,right,0.977,parrot      ,2,5,-6,0,3,249.302,249.302,251.802,0,49,49,49,1,50,8,2,giraffe     ,parrot      ,html/resources/sequences_IDs/B/03_giraffe.jpg,html/resources/sequences_IDs/B/05_parrot.jpg,3,5,1,1,2,1,2,4,0,95,,,,,,,,,,,,,,,,,,,,
,,,,,95,2020-07-04_20h36.49.992,retriever_ti,2020.1.3,Win32,60,Firefox,1920,1080,,,,,,,,,,,,,,,,,1,,,,,,,,,,,,,,,,,,,,,,,,,,,252.402,51,left,0.859,dress         ,7,7,-1,0,0,252.437,252.437,254.935,0,50,50,50,1,51,7,8,dress         ,giraffe     ,html/resources/sequences_IDs/A/07_dress.jpg,html/resources/sequences_IDs/B/03_giraffe.jpg,7,3,3,2,1,1,6,2,0,95,,,,,,,,,,,,,,,,,,,,
,,,,,95,2020-07-04_20h36.49.992,retriever_ti,2020.1.3,Win32,60,Firefox,1920,1080,,,,,,,,,,,,,,,,,1,,,,,,,,,,,,,,,,,,,,,,,,,,,256.035,52,left,0.82,dress         ,7,7,6,1,3,256.07,256.07,258.568,0,51,51,51,1,52,7,1,dress         ,scarf         ,html/resources/sequences_IDs/A/07_dress.jpg,html/resources/sequences_IDs/A/06_scarf.jpg,7,6,3,2,3,2,6,5,0,95,,,,,,,,,,,,,,,,,,,,
,,,,,95,2020-07-04_20h36.49.992,retriever_ti,2020.1.3,Win32,60,Firefox,1920,1080,,,,,,,,,,,,,,,,,1,,,,,,,,,,,,,,,,,,,,,,,,,,,259.185,53,right,1.373,giraffe     ,8,3,6,1,3,259.22,259.22,261.718,0,52,52,52,1,53,2,8,parrot      ,giraffe     ,html/resources/sequences_IDs/B/05_parrot.jpg,html/resources/sequences_IDs/B/03_giraffe.jpg,5,3,2,1,1,1,4,2,0,95,,,,,,,,,,,,,,,,,,,,
,,,,,95,2020-07-04_20h36.49.992,retriever_ti,2020.1.3,Win32,60,Firefox,1920,1080,,,,,,,,,,,,,,,,,1,,,,,,,,,,,,,,,,,,,,,,,,,,,262.319,54,left,0.912,satellite_dish,3,10,-5,0,3,262.352,262.352,264.852,0,53,53,53,1,54,3,8,satellite_dish,giraffe     ,html/resources/sequences_IDs/A/10_satellite_dish.jpg,html/resources/sequences_IDs/B/03_giraffe.jpg,10,3,4,2,1,1,8,2,0,95,,,,,,,,,,,,,,,,,,,,
,,,,,95,2020-07-04_20h36.49.992,retriever_ti,2020.1.3,Win32,60,Firefox,1920,1080,,,,,,,,,,,,,,,,,1,,,,,,,,,,,,,,,,,,,,,,,,,,,265.469,55,left,1.086,phone       ,6,9,4,1,3,265.502,265.502,268.02,0,54,54,54,1,55,6,2,phone       ,parrot      ,html/resources/sequences_IDs/B/09_phone.jpg,html/resources/sequences_IDs/B/05_parrot.jpg,9,5,4,2,2,1,7,4,0,95,,,,,,,,,,,,,,,,,,,,
,,,,,95,2020-07-04_20h36.49.992,retriever_ti,2020.1.3,Win32,60,Firefox,1920,1080,,,,,,,,,,,,,,,,,1,,,,,,,,,,,,,,,,,,,,,,,,,,,268.657,56,left,0.961,phone       ,6,9,1,1,1,268.709,268.709,271.202,0,55,55,55,1,56,6,5,phone       ,clownfish     ,html/resources/sequences_IDs/B/09_phone.jpg,html/resources/sequences_IDs/A/04_clownfish.jpg,9,4,4,2,2,1,7,3,0,95,,,,,,,,,,,,,,,,,,,,
,,,,,95,2020-07-04_20h36.49.992,retriever_ti,2020.1.3,Win32,60,Firefox,1920,1080,,,,,,,,,,,,,,,,,1,,,,,,,,,,,,,,,,,,,,,,,,,,,272.302,57,right,0.835,redfox      ,4,1,2,1,3,272.336,272.336,274.835,0,56,56,56,1,57,2,4,parrot      ,redfox      ,html/resources/sequences_IDs/B/05_parrot.jpg,html/resources/sequences_IDs/B/01_redfox.jpg,5,1,2,1,1,1,4,1,0,95,,,,,,,,,,,,,,,,,,,,
,,,,,95,2020-07-04_20h36.49.992,retriever_ti,2020.1.3,Win32,60,Firefox,1920,1080,,,,,,,,,,,,,,,,,1,,,,,,,,,,,,,,,,,,,,,,,,,,,275.453,58,right,1.064,clownfish     ,5,4,3,1,3,275.47,275.47,277.969,0,57,57,57,1,58,2,5,parrot      ,clownfish     ,html/resources/sequences_IDs/B/05_parrot.jpg,html/resources/sequences_IDs/A/04_clownfish.jpg,5,4,2,1,2,1,4,3,0,95,,,,,,,,,,,,,,,,,,,,
,,,,,95,2020-07-04_20h36.49.992,retriever_ti,2020.1.3,Win32,60,Firefox,1920,1080,,,,,,,,,,,,,,,,,1,,,,,,,,,,,,,,,,,,,,,,,,,,,278.569,59,right,0.675,satellite_dish,3,10,-1,0,0,278.585,278.585,281.085,0,58,58,58,1,59,4,3,redfox      ,satellite_dish,html/resources/sequences_IDs/B/01_redfox.jpg,html/resources/sequences_IDs/A/10_satellite_dish.jpg,1,10,1,1,4,2,1,8,0,95,,,,,,,,,,,,,,,,,,,,
,,,,,95,2020-07-04_20h36.49.992,retriever_ti,2020.1.3,Win32,60,Firefox,1920,1080,,,,,,,,,,,,,,,,,1,,,,,,,,,,,,,,,,,,,,,,,,,,,282.185,60,right,1.375,satellite_dish,3,10,-2,0,3,282.22,282.22,284.787,0,59,59,59,1,60,5,3,clownfish     ,satellite_dish,html/resources/sequences_IDs/A/04_clownfish.jpg,html/resources/sequences_IDs/A/10_satellite_dish.jpg,4,10,2,1,4,2,3,8,0,95,,,,,,,,,,,,,,,,,,,,
,,,,,95,2020-07-04_20h36.49.992,retriever_ti,2020.1.3,Win32,60,Firefox,1920,1080,,,,,,,,,,,,,,,,,1,,,,,,,,,,,,,,,,,,,,,,,,,,,285.402,61,left,0.829,scarf         ,1,6,-5,0,3,285.436,285.436,287.935,0,60,60,60,1,61,1,6,scarf         ,phone       ,html/resources/sequences_IDs/A/06_scarf.jpg,html/resources/sequences_IDs/B/09_phone.jpg,6,9,3,2,4,2,5,7,0,95,,,,,,,,,,,,,,,,,,,,
,,,,,95,2020-07-04_20h36.49.992,retriever_ti,2020.1.3,Win32,60,Firefox,1920,1080,,,,,,,,,,,,,,,,,1,,,,,,,,,,,,,,,,,,,,,,,,,,,288.536,62,left,1.23,dress         ,7,7,1,1,1,288.57,288.57,291.069,0,61,61,61,1,62,7,6,dress         ,phone       ,html/resources/sequences_IDs/A/07_dress.jpg,html/resources/sequences_IDs/B/09_phone.jpg,7,9,3,2,4,2,6,7,0,95,,,,,,,,,,,,,,,,,,,,
,,,,,95,2020-07-04_20h36.49.992,retriever_ti,2020.1.3,Win32,60,Firefox,1920,1080,,,,,,,,,,,,,,,,,1,,,,,,,,,,,,,,,,,,,,,,,,,,,292.253,63,left,1.17,redfox      ,4,1,-1,0,0,292.357,292.357,294.852,0,62,62,62,1,63,4,5,redfox      ,clownfish     ,html/resources/sequences_IDs/B/01_redfox.jpg,html/resources/sequences_IDs/A/04_clownfish.jpg,1,4,1,1,2,1,1,3,0,95,,,,,,,,,,,,,,,,,,,,
,,,,,95,2020-07-04_20h36.49.992,retriever_ti,2020.1.3,Win32,60,Firefox,1920,1080,,,,,,,,,,,,,,,,,1,,,,,,,,,,,,,,,,,,,,,,,,,,,295.953,64,right,1.432,scarf         ,1,6,-1,0,0,295.969,295.969,298.469,0,63,63,63,1,64,2,1,parrot      ,scarf         ,html/resources/sequences_IDs/B/05_parrot.jpg,html/resources/sequences_IDs/A/06_scarf.jpg,5,6,2,1,3,2,4,5,0,95,,,,,,,,,,,,,,,,,,,,
,,,,,95,2020-07-04_20h36.49.992,retriever_ti,2020.1.3,Win32,60,Firefox,1920,1080,,,,,,,,,,,,,,,,,1,,,,,,,,,,,,,,,,,,,,,,,,,,,299.571,65,right,0.932,dress         ,7,7,2,1,3,299.65,299.65,302.152,0,64,64,64,1,65,5,7,clownfish     ,dress         ,html/resources/sequences_IDs/A/04_clownfish.jpg,html/resources/sequences_IDs/A/07_dress.jpg,4,7,2,1,3,2,3,6,0,95,,,,,,,,,,,,,,,,,,,,
,,,,,95,2020-07-04_20h36.49.992,retriever_ti,2020.1.3,Win32,60,Firefox,1920,1080,,,,,,,,,,,,,,,,,1,,,,,,,,,,,,,,,,,,,,,,,,,,,302.77,66,left,1.152,satellite_dish,3,10,-2,0,3,302.785,302.785,305.286,0,65,65,65,1,66,3,5,satellite_dish,clownfish     ,html/resources/sequences_IDs/A/10_satellite_dish.jpg,html/resources/sequences_IDs/A/04_clownfish.jpg,10,4,4,2,2,1,8,3,0,95,,,,,,,,,,,,,,,,,,,,
,,,,,95,2020-07-04_20h36.49.992,retriever_ti,2020.1.3,Win32,60,Firefox,1920,1080,,,,,,,,,,,,,,,,,1,,,,,,,,,,,,,,,,,,,,,,,,,,,305.886,67,right,0.577,dress         ,7,7,-1,0,0,305.902,305.902,308.403,0,66,66,66,1,67,8,7,giraffe     ,dress         ,html/resources/sequences_IDs/B/03_giraffe.jpg,html/resources/sequences_IDs/A/07_dress.jpg,3,7,1,1,3,2,2,6,0,95,,,,,,,,,,,,,,,,,,,,
,,,,,95,2020-07-04_20h36.49.992,retriever_ti,2020.1.3,Win32,60,Firefox,1920,1080,,,,,,,,,,,,,,,,,1,,,,,,,,,,,,,,,,,,,,,,,,,,,309.503,68,right,1.036,dress         ,7,7,1,1,0,309.536,309.536,312.036,0,67,67,67,1,68,6,7,phone       ,dress         ,html/resources/sequences_IDs/B/09_phone.jpg,html/resources/sequences_IDs/A/07_dress.jpg,9,7,4,2,3,2,7,6,1,95,,,,,,,,,,,,,,,,,,,,
,,,,,95,2020-07-04_20h36.49.992,retriever_ti,2020.1.3,Win32,60,Firefox,1920,1080,,,,,,,,,,,,,,,,,1,,,,,,,,,,,,,,,,,,,,,,,,,,,313.135,69,right,1.175,redfox      ,4,1,-3,0,3,313.152,313.152,315.663,0,68,68,68,1,69,7,4,dress         ,redfox      ,html/resources/sequences_IDs/A/07_dress.jpg,html/resources/sequences_IDs/B/01_redfox.jpg,7,1,3,2,1,1,6,1,0,95,,,,,,,,,,,,,,,,,,,,
,,,,,95,2020-07-04_20h36.49.992,retriever_ti,2020.1.3,Win32,60,Firefox,1920,1080,,,,,,,,,,,,,,,,,1,,,,,,,,,,,,,,,,,,,,,,,,,,,316.269,70,right,0.696,dress         ,7,7,1,1,1,316.304,316.304,318.802,0,69,69,69,1,70,6,7,phone       ,dress         ,html/resources/sequences_IDs/B/09_phone.jpg,html/resources/sequences_IDs/A/07_dress.jpg,9,7,4,2,3,2,7,6,0,95,,,,,,,,,,,,,,,,,,,,
,,,,,95,2020-07-04_20h36.49.992,retriever_ti,2020.1.3,Win32,60,Firefox,1920,1080,,,,,,,,,,,,,,,,,1,,,,,,,,,,,,,,,,,,,,,,,,,,,319.902,71,right,1.815,redfox      ,4,1,1,1,1,319.919,319.919,322.419,0,70,70,70,1,71,3,4,satellite_dish,redfox      ,html/resources/sequences_IDs/A/10_satellite_dish.jpg,html/resources/sequences_IDs/B/01_redfox.jpg,10,1,4,2,1,1,8,1,0,95,,,,,,,,,,,,,,,,,,,,
,,,,,95,2020-07-04_20h36.49.992,retriever_ti,2020.1.3,Win32,60,Firefox,1920,1080,,,,,,,,,,,,,,,,,1,,,,,,,,,,,,,,,,,,,,,,,,,,,323.556,72,left,1.649,giraffe     ,8,3,7,1,3,323.608,323.608,326.102,0,71,71,71,1,72,8,1,giraffe     ,scarf         ,html/resources/sequences_IDs/B/03_giraffe.jpg,html/resources/sequences_IDs/A/06_scarf.jpg,3,6,1,1,3,2,2,5,0,95,,,,,,,,,,,,,,,,,,,,
,,,,,95,2020-07-04_20h36.49.992,retriever_ti,2020.1.3,Win32,60,Firefox,1920,1080,,,,,,,,,,,,,,,,,1,,,,,,,,,,,,,,,,,,,,,,,,,,,326.719,73,left,1.402,satellite_dish,3,10,-3,0,3,326.736,326.736,329.236,0,72,72,72,1,73,3,6,satellite_dish,phone       ,html/resources/sequences_IDs/A/10_satellite_dish.jpg,html/resources/sequences_IDs/B/09_phone.jpg,10,9,4,2,4,2,8,7,0,95,,,,,,,,,,,,,,,,,,,,
,,,,,95,2020-07-04_20h36.49.992,retriever_ti,2020.1.3,Win32,60,Firefox,1920,1080,,,,,,,,,,,,,,,,,1,,,,,,,,,,,,,,,,,,,,,,,,,,,329.853,74,right,0.958,giraffe     ,8,3,1,1,0,329.87,329.87,332.369,0,73,73,73,1,74,7,8,dress         ,giraffe     ,html/resources/sequences_IDs/A/07_dress.jpg,html/resources/sequences_IDs/B/03_giraffe.jpg,7,3,3,2,1,1,6,2,1,95,,,,,,,,,,,,,,,,,,,,
,,,,,95,2020-07-04_20h36.49.992,retriever_ti,2020.1.3,Win32,60,Firefox,1920,1080,,,,,,,,,,,,,,,,,1,,,,,,,,,,,,,,,,,,,,,,,,,,,333.47,75,right,1.601,clownfish     ,5,4,-1,0,1,333.502,333.502,336.002,0,74,74,74,1,75,6,5,phone       ,clownfish     ,html/resources/sequences_IDs/B/09_phone.jpg,html/resources/sequences_IDs/A/04_clownfish.jpg,9,4,4,2,2,1,7,3,1,95,,,,,,,,,,,,,,,,,,,,
,,,,,95,2020-07-04_20h36.49.992,retriever_ti,2020.1.3,Win32,60,Firefox,1920,1080,,,,,,,,,,,,,,,,,1,,,,,,,,,,,,,,,,,,,,,,,,,,,337.103,76,right,1.26,giraffe     ,8,3,1,1,1,337.138,337.138,339.636,0,75,75,75,1,76,7,8,dress         ,giraffe     ,html/resources/sequences_IDs/A/07_dress.jpg,html/resources/sequences_IDs/B/03_giraffe.jpg,7,3,3,2,1,1,6,2,0,95,,,,,,,,,,,,,,,,,,,,
,,,,,95,2020-07-04_20h36.49.992,retriever_ti,2020.1.3,Win32,60,Firefox,1920,1080,,,,,,,,,,,,,,,,,1,,,,,,,,,,,,,,,,,,,,,,,,,,,340.736,77,left,1.189,dress         ,7,7,5,1,3,340.77,340.77,343.269,0,76,76,76,1,77,7,2,dress         ,parrot      ,html/resources/sequences_IDs/A/07_dress.jpg,html/resources/sequences_IDs/B/05_parrot.jpg,7,5,3,2,2,1,6,4,0,95,,,,,,,,,,,,,,,,,,,,
,,,,,95,2020-07-04_20h36.49.992,retriever_ti,2020.1.3,Win32,60,Firefox,1920,1080,,,,,,,,,,,,,,,,,,,,,,,,,,,,,,,,,,,,,0,2.229,,,,,,,,,,,,,,,,,,,,,,,,,,,,,,,,,,,,,,,,,0,0,0,0,1,,,,,,,,,,,,,,,
,,,,,95,2020-07-04_20h36.49.992,retriever_ti,2020.1.3,Win32,60,Firefox,1920,1080,,,,,,,,,,,,,,,,,2,,,,,,,,,,,,,,,,,,,,,,,,,,,350.957,78,left,0.853,scarf         ,1,6,-7,0,3,350.958,350.958,353.494,0,0,0,0,1,78,1,8,scarf         ,giraffe     ,html/resources/sequences_IDs/A/06_scarf.jpg,html/resources/sequences_IDs/B/03_giraffe.jpg,6,3,3,2,1,1,5,2,0,95,,,,,,,,,,,,,,,,,,,,
,,,,,95,2020-07-04_20h36.49.992,retriever_ti,2020.1.3,Win32,60,Firefox,1920,1080,,,,,,,,,,,,,,,,,2,,,,,,,,,,,,,,,,,,,,,,,,,,,354.103,79,left,1.175,phone       ,6,9,4,1,3,354.119,354.119,356.621,0,1,1,1,1,79,6,2,phone       ,parrot      ,html/resources/sequences_IDs/B/09_phone.jpg,html/resources/sequences_IDs/B/05_parrot.jpg,9,5,4,2,2,1,7,4,0,95,,,,,,,,,,,,,,,,,,,,
,,,,,95,2020-07-04_20h36.49.992,retriever_ti,2020.1.3,Win32,60,Firefox,1920,1080,,,,,,,,,,,,,,,,,2,,,,,,,,,,,,,,,,,,,,,,,,,,,357.236,80,right,1.543,dress         ,7,7,1,1,1,357.253,357.253,359.753,0,2,2,2,1,80,6,7,phone       ,dress         ,html/resources/sequences_IDs/B/09_phone.jpg,html/resources/sequences_IDs/A/07_dress.jpg,9,7,4,2,3,2,7,6,0,95,,,,,,,,,,,,,,,,,,,,
,,,,,95,2020-07-04_20h36.49.992,retriever_ti,2020.1.3,Win32,60,Firefox,1920,1080,,,,,,,,,,,,,,,,,2,,,,,,,,,,,,,,,,,,,,,,,,,,,360.87,81,right,1.05,clownfish     ,5,4,1,1,1,360.992,360.992,363.486,0,3,3,3,1,81,4,5,redfox      ,clownfish     ,html/resources/sequences_IDs/B/01_redfox.jpg,html/resources/sequences_IDs/A/04_clownfish.jpg,1,4,1,1,2,1,1,3,0,95,,,,,,,,,,,,,,,,,,,,
,,,,,95,2020-07-04_20h36.49.992,retriever_ti,2020.1.3,Win32,60,Firefox,1920,1080,,,,,,,,,,,,,,,,,2,,,,,,,,,,,,,,,,,,,,,,,,,,,364.586,82,left,1.035,giraffe     ,8,3,2,1,3,364.604,364.604,367.103,0,4,4,4,1,82,8,6,giraffe     ,phone       ,html/resources/sequences_IDs/B/03_giraffe.jpg,html/resources/sequences_IDs/B/09_phone.jpg,3,9,1,1,4,2,2,7,0,95,,,,,,,,,,,,,,,,,,,,
,,,,,95,2020-07-04_20h36.49.992,retriever_ti,2020.1.3,Win32,60,Firefox,1920,1080,,,,,,,,,,,,,,,,,2,,,,,,,,,,,,,,,,,,,,,,,,,,,367.72,83,right,1.212,scarf         ,1,6,-1,0,0,367.753,367.753,370.253,0,5,5,5,1,83,2,1,parrot      ,scarf         ,html/resources/sequences_IDs/B/05_parrot.jpg,html/resources/sequences_IDs/A/06_scarf.jpg,5,6,2,1,3,2,4,5,0,95,,,,,,,,,,,,,,,,,,,,
,,,,,95,2020-07-04_20h36.49.992,retriever_ti,2020.1.3,Win32,60,Firefox,1920,1080,,,,,,,,,,,,,,,,,2,,,,,,,,,,,,,,,,,,,,,,,,,,,371.353,84,right,1.342,dress         ,7,7,2,1,3,371.387,371.387,373.886,0,6,6,6,1,84,5,7,clownfish     ,dress         ,html/resources/sequences_IDs/A/04_clownfish.jpg,html/resources/sequences_IDs/A/07_dress.jpg,4,7,2,1,3,2,3,6,0,95,,,,,,,,,,,,,,,,,,,,
,,,,,95,2020-07-04_20h36.49.992,retriever_ti,2020.1.3,Win32,60,Firefox,1920,1080,,,,,,,,,,,,,,,,,2,,,,,,,,,,,,,,,,,,,,,,,,,,,374.487,85,right,1.242,parrot      ,2,5,1,1,1,374.521,374.521,377.03,0,7,7,7,1,85,1,2,scarf         ,parrot      ,html/resources/sequences_IDs/A/06_scarf.jpg,html/resources/sequences_IDs/B/05_parrot.jpg,6,5,3,2,2,1,5,4,0,95,,,,,,,,,,,,,,,,,,,,
,,,,,95,2020-07-04_20h36.49.992,retriever_ti,2020.1.3,Win32,60,Firefox,1920,1080,,,,,,,,,,,,,,,,,2,,,,,,,,,,,,,,,,,,,,,,,,,,,378.12,86,right,1.31,dress         ,7,7,3,1,3,378.155,378.155,380.653,0,8,8,8,1,86,4,7,redfox      ,dress         ,html/resources/sequences_IDs/B/01_redfox.jpg,html/resources/sequences_IDs/A/07_dress.jpg,1,7,1,1,3,2,1,6,0,95,,,,,,,,,,,,,,,,,,,,
,,,,,95,2020-07-04_20h36.49.992,retriever_ti,2020.1.3,Win32,60,Firefox,1920,1080,,,,,,,,,,,,,,,,,2,,,,,,,,,,,,,,,,,,,,,,,,,,,381.253,87,right,1.199,satellite_dish,3,10,2,1,3,381.288,381.288,383.78,0,9,9,9,1,87,1,3,scarf         ,satellite_dish,html/resources/sequences_IDs/A/06_scarf.jpg,html/resources/sequences_IDs/A/10_satellite_dish.jpg,6,10,3,2,4,2,5,8,0,95,,,,,,,,,,,,,,,,,,,,
,,,,,95,2020-07-04_20h36.49.992,retriever_ti,2020.1.3,Win32,60,Firefox,1920,1080,,,,,,,,,,,,,,,,,2,,,,,,,,,,,,,,,,,,,,,,,,,,,384.399,88,left,1.16,satellite_dish,3,10,-3,0,3,384.403,384.403,386.903,0,10,10,10,1,88,3,6,satellite_dish,phone       ,html/resources/sequences_IDs/A/10_satellite_dish.jpg,html/resources/sequences_IDs/B/09_phone.jpg,10,9,4,2,4,2,8,7,0,95,,,,,,,,,,,,,,,,,,,,
,,,,,95,2020-07-04_20h36.49.992,retriever_ti,2020.1.3,Win32,60,Firefox,1920,1080,,,,,,,,,,,,,,,,,2,,,,,,,,,,,,,,,,,,,,,,,,,,,387.504,89,left,0.832,dress         ,7,7,1,1,1,387.52,387.52,390.02,0,11,11,11,1,89,7,6,dress         ,phone       ,html/resources/sequences_IDs/A/07_dress.jpg,html/resources/sequences_IDs/B/09_phone.jpg,7,9,3,2,4,2,6,7,0,95,,,,,,,,,,,,,,,,,,,,
,,,,,95,2020-07-04_20h36.49.992,retriever_ti,2020.1.3,Win32,60,Firefox,1920,1080,,,,,,,,,,,,,,,,,2,,,,,,,,,,,,,,,,,,,,,,,,,,,391.12,90,left,1.288,satellite_dish,3,10,-2,0,3,391.155,391.155,393.654,0,12,12,12,1,90,3,5,satellite_dish,clownfish     ,html/resources/sequences_IDs/A/10_satellite_dish.jpg,html/resources/sequences_IDs/A/04_clownfish.jpg,10,4,4,2,2,1,8,3,0,95,,,,,,,,,,,,,,,,,,,,
,,,,,95,2020-07-04_20h36.49.992,retriever_ti,2020.1.3,Win32,60,Firefox,1920,1080,,,,,,,,,,,,,,,,,2,,,,,,,,,,,,,,,,,,,,,,,,,,,394.27,91,right,1.7,phone       ,6,9,1,1,0,394.304,394.304,396.804,0,13,13,13,1,91,5,6,clownfish     ,phone       ,html/resources/sequences_IDs/A/04_clownfish.jpg,html/resources/sequences_IDs/B/09_phone.jpg,4,9,2,1,4,2,3,7,1,95,,,,,,,,,,,,,,,,,,,,
,,,,,95,2020-07-04_20h36.49.992,retriever_ti,2020.1.3,Win32,60,Firefox,1920,1080,,,,,,,,,,,,,,,,,2,,,,,,,,,,,,,,,,,,,,,,,,,,,397.904,92,right,1.16,redfox      ,4,1,-2,0,3,397.922,397.922,400.43,0,14,14,14,1,92,6,4,phone       ,redfox      ,html/resources/sequences_IDs/B/09_phone.jpg,html/resources/sequences_IDs/B/01_redfox.jpg,9,1,4,2,1,1,7,1,0,95,,,,,,,,,,,,,,,,,,,,
,,,,,95,2020-07-04_20h36.49.992,retriever_ti,2020.1.3,Win32,60,Firefox,1920,1080,,,,,,,,,,,,,,,,,2,,,,,,,,,,,,,,,,,,,,,,,,,,,401.037,93,left,0.884,giraffe     ,8,3,1,1,1,401.071,401.071,403.57,0,15,15,15,1,93,8,7,giraffe     ,dress         ,html/resources/sequences_IDs/B/03_giraffe.jpg,html/resources/sequences_IDs/A/07_dress.jpg,3,7,1,1,3,2,2,6,0,95,,,,,,,,,,,,,,,,,,,,
,,,,,95,2020-07-04_20h36.49.992,retriever_ti,2020.1.3,Win32,60,Firefox,1920,1080,,,,,,,,,,,,,,,,,2,,,,,,,,,,,,,,,,,,,,,,,,,,,404.67,94,right,1.399,phone       ,6,9,5,1,3,404.703,404.703,407.203,0,16,16,16,1,94,1,6,scarf         ,phone       ,html/resources/sequences_IDs/A/06_scarf.jpg,html/resources/sequences_IDs/B/09_phone.jpg,6,9,3,2,4,2,5,7,0,95,,,,,,,,,,,,,,,,,,,,
,,,,,95,2020-07-04_20h36.49.992,retriever_ti,2020.1.3,Win32,60,Firefox,1920,1080,,,,,,,,,,,,,,,,,2,,,,,,,,,,,,,,,,,,,,,,,,,,,407.82,95,left,1.133,satellite_dish,3,10,-5,0,3,407.838,407.838,410.337,0,17,17,17,1,95,3,8,satellite_dish,giraffe     ,html/resources/sequences_IDs/A/10_satellite_dish.jpg,html/resources/sequences_IDs/B/03_giraffe.jpg,10,3,4,2,1,1,8,2,0,95,,,,,,,,,,,,,,,,,,,,
,,,,,95,2020-07-04_20h36.49.992,retriever_ti,2020.1.3,Win32,60,Firefox,1920,1080,,,,,,,,,,,,,,,,,2,,,,,,,,,,,,,,,,,,,,,,,,,,,410.954,96,right,1.097,giraffe     ,8,3,2,1,3,410.97,410.97,413.473,0,18,18,18,1,96,6,8,phone       ,giraffe     ,html/resources/sequences_IDs/B/09_phone.jpg,html/resources/sequences_IDs/B/03_giraffe.jpg,9,3,4,2,1,1,7,2,0,95,,,,,,,,,,,,,,,,,,,,
,,,,,95,2020-07-04_20h36.49.992,retriever_ti,2020.1.3,Win32,60,Firefox,1920,1080,,,,,,,,,,,,,,,,,2,,,,,,,,,,,,,,,,,,,,,,,,,,,414.125,97,right,1.093,giraffe     ,8,3,6,1,3,414.229,414.229,416.72,0,19,19,19,1,97,2,8,parrot      ,giraffe     ,html/resources/sequences_IDs/B/05_parrot.jpg,html/resources/sequences_IDs/B/03_giraffe.jpg,5,3,2,1,1,1,4,2,0,95,,,,,,,,,,,,,,,,,,,,
,,,,,95,2020-07-04_20h36.49.992,retriever_ti,2020.1.3,Win32,60,Firefox,1920,1080,,,,,,,,,,,,,,,,,2,,,,,,,,,,,,,,,,,,,,,,,,,,,417.321,98,left,0.848,giraffe     ,8,3,1,1,1,417.355,417.355,419.854,0,20,20,20,1,98,8,7,giraffe     ,dress         ,html/resources/sequences_IDs/B/03_giraffe.jpg,html/resources/sequences_IDs/A/07_dress.jpg,3,7,1,1,3,2,2,6,0,95,,,,,,,,,,,,,,,,,,,,
,,,,,95,2020-07-04_20h36.49.992,retriever_ti,2020.1.3,Win32,60,Firefox,1920,1080,,,,,,,,,,,,,,,,,2,,,,,,,,,,,,,,,,,,,,,,,,,,,420.97,99,right,1.432,redfox      ,4,1,3,1,3,421.011,421.011,423.503,0,21,21,21,1,99,1,4,scarf         ,redfox      ,html/resources/sequences_IDs/A/06_scarf.jpg,html/resources/sequences_IDs/B/01_redfox.jpg,6,1,3,2,1,1,5,1,0,95,,,,,,,,,,,,,,,,,,,,
,,,,,95,2020-07-04_20h36.49.992,retriever_ti,2020.1.3,Win32,60,Firefox,1920,1080,,,,,,,,,,,,,,,,,2,,,,,,,,,,,,,,,,,,,,,,,,,,,424.12,100,left,0.709,giraffe     ,8,3,1,1,0,424.155,424.155,426.654,0,22,22,22,1,100,8,7,giraffe     ,dress         ,html/resources/sequences_IDs/B/03_giraffe.jpg,html/resources/sequences_IDs/A/07_dress.jpg,3,7,1,1,3,2,2,6,1,95,,,,,,,,,,,,,,,,,,,,
,,,,,95,2020-07-04_20h36.49.992,retriever_ti,2020.1.3,Win32,60,Firefox,1920,1080,,,,,,,,,,,,,,,,,2,,,,,,,,,,,,,,,,,,,,,,,,,,,427.754,101,right,1.346,clownfish     ,5,4,4,1,3,427.787,427.787,430.287,0,23,23,23,1,101,1,5,scarf         ,clownfish     ,html/resources/sequences_IDs/A/06_scarf.jpg,html/resources/sequences_IDs/A/04_clownfish.jpg,6,4,3,2,2,1,5,3,0,95,,,,,,,,,,,,,,,,,,,,
,,,,,95,2020-07-04_20h36.49.992,retriever_ti,2020.1.3,Win32,60,Firefox,1920,1080,,,,,,,,,,,,,,,,,2,,,,,,,,,,,,,,,,,,,,,,,,,,,430.904,102,right,1.208,satellite_dish,3,10,-1,0,1,430.922,430.922,433.421,0,24,24,24,1,102,4,3,redfox      ,satellite_dish,html/resources/sequences_IDs/B/01_redfox.jpg,html/resources/sequences_IDs/A/10_satellite_dish.jpg,1,10,1,1,4,2,1,8,1,95,,,,,,,,,,,,,,,,,,,,
,,,,,95,2020-07-04_20h36.49.992,retriever_ti,2020.1.3,Win32,60,Firefox,1920,1080,,,,,,,,,,,,,,,,,2,,,,,,,,,,,,,,,,,,,,,,,,,,,434.521,103,right,0.791,parrot      ,2,5,1,1,1,434.554,434.554,437.065,0,25,25,25,1,103,1,2,scarf         ,parrot      ,html/resources/sequences_IDs/A/06_scarf.jpg,html/resources/sequences_IDs/B/05_parrot.jpg,6,5,3,2,2,1,5,4,0,95,,,,,,,,,,,,,,,,,,,,
,,,,,95,2020-07-04_20h36.49.992,retriever_ti,2020.1.3,Win32,60,Firefox,1920,1080,,,,,,,,,,,,,,,,,2,,,,,,,,,,,,,,,,,,,,,,,,,,,438.154,104,left,0.832,dress         ,7,7,1,1,1,438.17,438.17,440.67,0,26,26,26,1,104,7,6,dress         ,phone       ,html/resources/sequences_IDs/A/07_dress.jpg,html/resources/sequences_IDs/B/09_phone.jpg,7,9,3,2,4,2,6,7,0,95,,,,,,,,,,,,,,,,,,,,
,,,,,95,2020-07-04_20h36.49.992,retriever_ti,2020.1.3,Win32,60,Firefox,1920,1080,,,,,,,,,,,,,,,,,2,,,,,,,,,,,,,,,,,,,,,,,,,,,441.771,105,right,1.334,redfox      ,4,1,-1,0,0,441.787,441.787,444.287,0,27,27,27,1,105,5,4,clownfish     ,redfox      ,html/resources/sequences_IDs/A/04_clownfish.jpg,html/resources/sequences_IDs/B/01_redfox.jpg,4,1,2,1,1,1,3,1,0,95,,,,,,,,,,,,,,,,,,,,
,,,,,95,2020-07-04_20h36.49.992,retriever_ti,2020.1.3,Win32,60,Firefox,1920,1080,,,,,,,,,,,,,,,,,2,,,,,,,,,,,,,,,,,,,,,,,,,,,445.384,106,right,1.675,phone       ,6,9,4,1,3,445.488,445.488,447.987,0,28,28,28,1,106,2,6,parrot      ,phone       ,html/resources/sequences_IDs/B/05_parrot.jpg,html/resources/sequences_IDs/B/09_phone.jpg,5,9,2,1,4,2,4,7,0,95,,,,,,,,,,,,,,,,,,,,
,,,,,95,2020-07-04_20h36.49.992,retriever_ti,2020.1.3,Win32,60,Firefox,1920,1080,,,,,,,,,,,,,,,,,2,,,,,,,,,,,,,,,,,,,,,,,,,,,448.587,107,left,1.047,parrot      ,2,5,1,1,0,448.621,448.621,451.12,0,29,29,29,1,107,2,1,parrot      ,scarf         ,html/resources/sequences_IDs/B/05_parrot.jpg,html/resources/sequences_IDs/A/06_scarf.jpg,5,6,2,1,3,2,4,5,1,95,,,,,,,,,,,,,,,,,,,,
,,,,,95,2020-07-04_20h36.49.992,retriever_ti,2020.1.3,Win32,60,Firefox,1920,1080,,,,,,,,,,,,,,,,,2,,,,,,,,,,,,,,,,,,,,,,,,,,,452.221,108,right,1.585,giraffe     ,8,3,4,1,3,452.255,452.255,454.753,0,30,30,30,1,108,4,8,redfox      ,giraffe     ,html/resources/sequences_IDs/B/01_redfox.jpg,html/resources/sequences_IDs/B/03_giraffe.jpg,1,3,1,1,1,1,1,2,0,95,,,,,,,,,,,,,,,,,,,,
,,,,,95,2020-07-04_20h36.49.992,retriever_ti,2020.1.3,Win32,60,Firefox,1920,1080,,,,,,,,,,,,,,,,,2,,,,,,,,,,,,,,,,,,,,,,,,,,,455.37,109,left,1.937,redfox      ,4,1,2,1,3,455.404,455.404,457.904,0,31,31,31,1,109,4,2,redfox      ,parrot      ,html/resources/sequences_IDs/B/01_redfox.jpg,html/resources/sequences_IDs/B/05_parrot.jpg,1,5,1,1,2,1,1,4,0,95,,,,,,,,,,,,,,,,,,,,
,,,,,95,2020-07-04_20h36.49.992,retriever_ti,2020.1.3,Win32,60,Firefox,1920,1080,,,,,,,,,,,,,,,,,2,,,,,,,,,,,,,,,,,,,,,,,,,,,458.504,110,left,1.158,clownfish     ,5,4,4,1,3,458.539,458.539,461.046,0,32,32,32,1,110,5,1,clownfish     ,scarf         ,html/resources/sequences_IDs/A/04_clownfish.jpg,html/resources/sequences_IDs/A/06_scarf.jpg,4,6,2,1,3,2,3,5,0,95,,,,,,,,,,,,,,,,,,,,
,,,,,95,2020-07-04_20h36.49.992,retriever_ti,2020.1.3,Win32,60,Firefox,1920,1080,,,,,,,,,,,,,,,,,2,,,,,,,,,,,,,,,,,,,,,,,,,,,461.654,111,left,0.792,dress         ,7,7,1,1,0,461.689,461.689,464.187,0,33,33,33,1,111,7,6,dress         ,phone       ,html/resources/sequences_IDs/A/07_dress.jpg,html/resources/sequences_IDs/B/09_phone.jpg,7,9,3,2,4,2,6,7,1,95,,,,,,,,,,,,,,,,,,,,
,,,,,95,2020-07-04_20h36.49.992,retriever_ti,2020.1.3,Win32,60,Firefox,1920,1080,,,,,,,,,,,,,,,,,2,,,,,,,,,,,,,,,,,,,,,,,,,,,465.288,112,left,1.024,satellite_dish,3,10,-4,0,3,465.304,465.304,467.804,0,34,34,34,1,112,3,7,satellite_dish,dress         ,html/resources/sequences_IDs/A/10_satellite_dish.jpg,html/resources/sequences_IDs/A/07_dress.jpg,10,7,4,2,3,2,8,6,0,95,,,,,,,,,,,,,,,,,,,,
,,,,,95,2020-07-04_20h36.49.992,retriever_ti,2020.1.3,Win32,60,Firefox,1920,1080,,,,,,,,,,,,,,,,,2,,,,,,,,,,,,,,,,,,,,,,,,,,,468.409,113,right,0.906,satellite_dish,3,10,-3,0,3,468.447,468.447,470.938,0,35,35,35,1,113,6,3,phone       ,satellite_dish,html/resources/sequences_IDs/B/09_phone.jpg,html/resources/sequences_IDs/A/10_satellite_dish.jpg,9,10,4,2,4,2,7,8,0,95,,,,,,,,,,,,,,,,,,,,
,,,,,95,2020-07-04_20h36.49.992,retriever_ti,2020.1.3,Win32,60,Firefox,1920,1080,,,,,,,,,,,,,,,,,2,,,,,,,,,,,,,,,,,,,,,,,,,,,471.554,114,left,1.657,giraffe     ,8,3,6,1,3,471.571,471.571,474.07,0,36,36,36,1,114,8,2,giraffe     ,parrot      ,html/resources/sequences_IDs/B/03_giraffe.jpg,html/resources/sequences_IDs/B/05_parrot.jpg,3,5,1,1,2,1,2,4,0,95,,,,,,,,,,,,,,,,,,,,
,,,,,95,2020-07-04_20h36.49.992,retriever_ti,2020.1.3,Win32,60,Firefox,1920,1080,,,,,,,,,,,,,,,,,2,,,,,,,,,,,,,,,,,,,,,,,,,,,474.671,115,right,1.339,satellite_dish,3,10,-5,0,3,474.704,474.704,477.204,0,37,37,37,1,115,8,3,giraffe     ,satellite_dish,html/resources/sequences_IDs/B/03_giraffe.jpg,html/resources/sequences_IDs/A/10_satellite_dish.jpg,3,10,1,1,4,2,2,8,0,95,,,,,,,,,,,,,,,,,,,,
,,,,,95,2020-07-04_20h36.49.992,retriever_ti,2020.1.3,Win32,60,Firefox,1920,1080,,,,,,,,,,,,,,,,,2,,,,,,,,,,,,,,,,,,,,,,,,,,,477.806,116,right,1.108,giraffe     ,8,3,1,1,1,477.822,477.822,480.321,0,38,38,38,1,116,7,8,dress         ,giraffe     ,html/resources/sequences_IDs/A/07_dress.jpg,html/resources/sequences_IDs/B/03_giraffe.jpg,7,3,3,2,1,1,6,2,0,95,,,,,,,,,,,,,,,,,,,,
,,,,,95,2020-07-04_20h36.49.992,retriever_ti,2020.1.3,Win32,60,Firefox,1920,1080,,,,,,,,,,,,,,,,,2,,,,,,,,,,,,,,,,,,,,,,,,,,,481.423,117,right,1.673,parrot      ,2,5,-5,0,3,481.438,481.438,483.96,0,39,39,39,1,117,7,2,dress         ,parrot      ,html/resources/sequences_IDs/A/07_dress.jpg,html/resources/sequences_IDs/B/05_parrot.jpg,7,5,3,2,2,1,6,4,0,95,,,,,,,,,,,,,,,,,,,,
,,,,,95,2020-07-04_20h36.49.992,retriever_ti,2020.1.3,Win32,60,Firefox,1920,1080,,,,,,,,,,,,,,,,,2,,,,,,,,,,,,,,,,,,,,,,,,,,,484.655,118,right,0.794,satellite_dish,3,10,-4,0,3,484.707,484.707,487.204,0,40,40,40,1,118,7,3,dress         ,satellite_dish,html/resources/sequences_IDs/A/07_dress.jpg,html/resources/sequences_IDs/A/10_satellite_dish.jpg,7,10,3,2,4,2,6,8,0,95,,,,,,,,,,,,,,,,,,,,
,,,,,95,2020-07-04_20h36.49.992,retriever_ti,2020.1.3,Win32,60,Firefox,1920,1080,,,,,,,,,,,,,,,,,2,,,,,,,,,,,,,,,,,,,,,,,,,,,487.805,119,right,1.244,satellite_dish,3,10,-1,0,0,487.826,487.826,490.321,0,41,41,41,1,119,4,3,redfox      ,satellite_dish,html/resources/sequences_IDs/B/01_redfox.jpg,html/resources/sequences_IDs/A/10_satellite_dish.jpg,1,10,1,1,4,2,1,8,0,95,,,,,,,,,,,,,,,,,,,,
,,,,,95,2020-07-04_20h36.49.992,retriever_ti,2020.1.3,Win32,60,Firefox,1920,1080,,,,,,,,,,,,,,,,,2,,,,,,,,,,,,,,,,,,,,,,,,,,,491.422,120,right,1.615,satellite_dish,3,10,1,1,0,491.46,491.46,493.954,0,42,42,42,1,120,2,3,parrot      ,satellite_dish,html/resources/sequences_IDs/B/05_parrot.jpg,html/resources/sequences_IDs/A/10_satellite_dish.jpg,5,10,2,1,4,2,4,8,1,95,,,,,,,,,,,,,,,,,,,,
,,,,,95,2020-07-04_20h36.49.992,retriever_ti,2020.1.3,Win32,60,Firefox,1920,1080,,,,,,,,,,,,,,,,,2,,,,,,,,,,,,,,,,,,,,,,,,,,,495.055,121,left,2.145,clownfish     ,5,4,-1,0,0,495.087,495.087,497.588,0,43,43,43,1,121,5,6,clownfish     ,phone       ,html/resources/sequences_IDs/A/04_clownfish.jpg,html/resources/sequences_IDs/B/09_phone.jpg,4,9,2,1,4,2,3,7,0,95,,,,,,,,,,,,,,,,,,,,
,,,,,95,2020-07-04_20h36.49.992,retriever_ti,2020.1.3,Win32,60,Firefox,1920,1080,,,,,,,,,,,,,,,,,2,,,,,,,,,,,,,,,,,,,,,,,,,,,498.688,122,right,0.93,giraffe     ,8,3,3,1,3,498.706,498.706,501.204,0,44,44,44,1,122,5,8,clownfish     ,giraffe     ,html/resources/sequences_IDs/A/04_clownfish.jpg,html/resources/sequences_IDs/B/03_giraffe.jpg,4,3,2,1,1,1,3,2,0,95,,,,,,,,,,,,,,,,,,,,
,,,,,95,2020-07-04_20h36.49.992,retriever_ti,2020.1.3,Win32,60,Firefox,1920,1080,,,,,,,,,,,,,,,,,2,,,,,,,,,,,,,,,,,,,,,,,,,,,501.805,123,left,1.143,satellite_dish,3,10,2,1,3,501.823,501.823,504.321,0,45,45,45,1,123,3,1,satellite_dish,scarf         ,html/resources/sequences_IDs/A/10_satellite_dish.jpg,html/resources/sequences_IDs/A/06_scarf.jpg,10,6,4,2,3,2,8,5,0,95,,,,,,,,,,,,,,,,,,,,
,,,,,95,2020-07-04_20h36.49.992,retriever_ti,2020.1.3,Win32,60,Firefox,1920,1080,,,,,,,,,,,,,,,,,2,,,,,,,,,,,,,,,,,,,,,,,,,,,504.938,124,left,1.939,clownfish     ,5,4,3,1,3,504.956,504.956,507.443,0,46,46,46,1,124,5,2,clownfish     ,parrot      ,html/resources/sequences_IDs/A/04_clownfish.jpg,html/resources/sequences_IDs/B/05_parrot.jpg,4,5,2,1,2,1,3,4,0,95,,,,,,,,,,,,,,,,,,,,
,,,,,95,2020-07-04_20h36.49.992,retriever_ti,2020.1.3,Win32,60,Firefox,1920,1080,,,,,,,,,,,,,,,,,2,,,,,,,,,,,,,,,,,,,,,,,,,,,508.064,125,left,0.718,parrot      ,2,5,-1,0,0,508.118,508.118,510.604,0,47,47,47,1,125,2,3,parrot      ,satellite_dish,html/resources/sequences_IDs/B/05_parrot.jpg,html/resources/sequences_IDs/A/10_satellite_dish.jpg,5,10,2,1,4,2,4,8,0,95,,,,,,,,,,,,,,,,,,,,
,,,,,95,2020-07-04_20h36.49.992,retriever_ti,2020.1.3,Win32,60,Firefox,1920,1080,,,,,,,,,,,,,,,,,2,,,,,,,,,,,,,,,,,,,,,,,,,,,511.705,126,right,1.438,satellite_dish,3,10,-2,0,3,511.721,511.721,514.221,0,48,48,48,1,126,5,3,clownfish     ,satellite_dish,html/resources/sequences_IDs/A/04_clownfish.jpg,html/resources/sequences_IDs/A/10_satellite_dish.jpg,4,10,2,1,4,2,3,8,0,95,,,,,,,,,,,,,,,,,,,,
,,,,,95,2020-07-04_20h36.49.992,retriever_ti,2020.1.3,Win32,60,Firefox,1920,1080,,,,,,,,,,,,,,,,,2,,,,,,,,,,,,,,,,,,,,,,,,,,,514.823,127,left,0.991,giraffe     ,8,3,3,1,3,514.857,514.857,517.354,0,49,49,49,1,127,8,5,giraffe     ,clownfish     ,html/resources/sequences_IDs/B/03_giraffe.jpg,html/resources/sequences_IDs/A/04_clownfish.jpg,3,4,1,1,2,1,2,3,0,95,,,,,,,,,,,,,,,,,,,,
,,,,,95,2020-07-04_20h36.49.992,retriever_ti,2020.1.3,Win32,60,Firefox,1920,1080,,,,,,,,,,,,,,,,,2,,,,,,,,,,,,,,,,,,,,,,,,,,,517.955,128,right,1.652,scarf         ,1,6,-1,0,0,517.988,517.988,520.488,0,50,50,50,1,128,2,1,parrot      ,scarf         ,html/resources/sequences_IDs/B/05_parrot.jpg,html/resources/sequences_IDs/A/06_scarf.jpg,5,6,2,1,3,2,4,5,0,95,,,,,,,,,,,,,,,,,,,,
,,,,,95,2020-07-04_20h36.49.992,retriever_ti,2020.1.3,Win32,60,Firefox,1920,1080,,,,,,,,,,,,,,,,,2,,,,,,,,,,,,,,,,,,,,,,,,,,,521.588,129,left,1.402,dress         ,7,7,3,1,3,521.605,521.605,524.104,0,51,51,51,1,129,7,4,dress         ,redfox      ,html/resources/sequences_IDs/A/07_dress.jpg,html/resources/sequences_IDs/B/01_redfox.jpg,7,1,3,2,1,1,6,1,0,95,,,,,,,,,,,,,,,,,,,,
,,,,,95,2020-07-04_20h36.49.992,retriever_ti,2020.1.3,Win32,60,Firefox,1920,1080,,,,,,,,,,,,,,,,,2,,,,,,,,,,,,,,,,,,,,,,,,,,,524.705,130,right,0.884,scarf         ,1,6,-5,0,3,524.74,524.74,527.238,0,52,52,52,1,130,6,1,phone       ,scarf         ,html/resources/sequences_IDs/B/09_phone.jpg,html/resources/sequences_IDs/A/06_scarf.jpg,9,6,4,2,3,2,7,5,0,95,,,,,,,,,,,,,,,,,,,,
,,,,,95,2020-07-04_20h36.49.992,retriever_ti,2020.1.3,Win32,60,Firefox,1920,1080,,,,,,,,,,,,,,,,,2,,,,,,,,,,,,,,,,,,,,,,,,,,,527.855,131,left,0.775,satellite_dish,3,10,1,1,1,527.888,527.888,530.388,0,53,53,53,1,131,3,2,satellite_dish,parrot      ,html/resources/sequences_IDs/A/10_satellite_dish.jpg,html/resources/sequences_IDs/B/05_parrot.jpg,10,5,4,2,2,1,8,4,0,95,,,,,,,,,,,,,,,,,,,,
,,,,,95,2020-07-04_20h36.49.992,retriever_ti,2020.1.3,Win32,60,Firefox,1920,1080,,,,,,,,,,,,,,,,,2,,,,,,,,,,,,,,,,,,,,,,,,,,,531.514,132,left,1.908,redfox      ,4,1,-1,0,1,531.567,531.567,534.055,0,54,54,54,1,132,4,5,redfox      ,clownfish     ,html/resources/sequences_IDs/B/01_redfox.jpg,html/resources/sequences_IDs/A/04_clownfish.jpg,1,4,1,1,2,1,1,3,1,95,,,,,,,,,,,,,,,,,,,,
,,,,,95,2020-07-04_20h36.49.992,retriever_ti,2020.1.3,Win32,60,Firefox,1920,1080,,,,,,,,,,,,,,,,,2,,,,,,,,,,,,,,,,,,,,,,,,,,,535.155,133,left,1.682,dress         ,7,7,6,1,3,535.172,535.172,537.671,0,55,55,55,1,133,7,1,dress         ,scarf         ,html/resources/sequences_IDs/A/07_dress.jpg,html/resources/sequences_IDs/A/06_scarf.jpg,7,6,3,2,3,2,6,5,0,95,,,,,,,,,,,,,,,,,,,,
,,,,,95,2020-07-04_20h36.49.992,retriever_ti,2020.1.3,Win32,60,Firefox,1920,1080,,,,,,,,,,,,,,,,,2,,,,,,,,,,,,,,,,,,,,,,,,,,,538.273,134,left,0.849,satellite_dish,3,10,-1,0,0,538.309,538.309,540.805,0,56,56,56,1,134,3,4,satellite_dish,redfox      ,html/resources/sequences_IDs/A/10_satellite_dish.jpg,html/resources/sequences_IDs/B/01_redfox.jpg,10,1,4,2,1,1,8,1,0,95,,,,,,,,,,,,,,,,,,,,
,,,,,95,2020-07-04_20h36.49.992,retriever_ti,2020.1.3,Win32,60,Firefox,1920,1080,,,,,,,,,,,,,,,,,2,,,,,,,,,,,,,,,,,,,,,,,,,,,541.905,135,left,1.263,satellite_dish,3,10,1,1,1,541.923,541.923,544.422,0,57,57,57,1,135,3,2,satellite_dish,parrot      ,html/resources/sequences_IDs/A/10_satellite_dish.jpg,html/resources/sequences_IDs/B/05_parrot.jpg,10,5,4,2,2,1,8,4,0,95,,,,,,,,,,,,,,,,,,,,
,,,,,95,2020-07-04_20h36.49.992,retriever_ti,2020.1.3,Win32,60,Firefox,1920,1080,,,,,,,,,,,,,,,,,2,,,,,,,,,,,,,,,,,,,,,,,,,,,545.521,136,right,0.74,redfox      ,4,1,1,1,1,545.555,545.555,548.055,0,58,58,58,1,136,3,4,satellite_dish,redfox      ,html/resources/sequences_IDs/A/10_satellite_dish.jpg,html/resources/sequences_IDs/B/01_redfox.jpg,10,1,4,2,1,1,8,1,0,95,,,,,,,,,,,,,,,,,,,,
,,,,,95,2020-07-04_20h36.49.992,retriever_ti,2020.1.3,Win32,60,Firefox,1920,1080,,,,,,,,,,,,,,,,,2,,,,,,,,,,,,,,,,,,,,,,,,,,,549.155,137,left,1.213,redfox      ,4,1,3,1,3,549.173,549.173,551.671,0,59,59,59,1,137,4,1,redfox      ,scarf         ,html/resources/sequences_IDs/B/01_redfox.jpg,html/resources/sequences_IDs/A/06_scarf.jpg,1,6,1,1,3,2,1,5,0,95,,,,,,,,,,,,,,,,,,,,
,,,,,95,2020-07-04_20h36.49.992,retriever_ti,2020.1.3,Win32,60,Firefox,1920,1080,,,,,,,,,,,,,,,,,2,,,,,,,,,,,,,,,,,,,,,,,,,,,552.272,138,left,1.643,phone       ,6,9,1,1,1,552.288,552.288,554.81,0,60,60,60,1,138,6,5,phone       ,clownfish     ,html/resources/sequences_IDs/B/09_phone.jpg,html/resources/sequences_IDs/A/04_clownfish.jpg,9,4,4,2,2,1,7,3,0,95,,,,,,,,,,,,,,,,,,,,
,,,,,95,2020-07-04_20h36.49.992,retriever_ti,2020.1.3,Win32,60,Firefox,1920,1080,,,,,,,,,,,,,,,,,2,,,,,,,,,,,,,,,,,,,,,,,,,,,555.905,139,right,1.242,satellite_dish,3,10,1,1,1,555.923,555.923,558.422,0,61,61,61,1,139,2,3,parrot      ,satellite_dish,html/resources/sequences_IDs/B/05_parrot.jpg,html/resources/sequences_IDs/A/10_satellite_dish.jpg,5,10,2,1,4,2,4,8,0,95,,,,,,,,,,,,,,,,,,,,
,,,,,95,2020-07-04_20h36.49.992,retriever_ti,2020.1.3,Win32,60,Firefox,1920,1080,,,,,,,,,,,,,,,,,2,,,,,,,,,,,,,,,,,,,,,,,,,,,559.522,140,left,1.122,clownfish     ,5,4,1,1,1,559.539,559.539,562.039,0,62,62,62,1,140,5,4,clownfish     ,redfox      ,html/resources/sequences_IDs/A/04_clownfish.jpg,html/resources/sequences_IDs/B/01_redfox.jpg,4,1,2,1,1,1,3,1,0,95,,,,,,,,,,,,,,,,,,,,
,,,,,95,2020-07-04_20h36.49.992,retriever_ti,2020.1.3,Win32,60,Firefox,1920,1080,,,,,,,,,,,,,,,,,2,,,,,,,,,,,,,,,,,,,,,,,,,,,563.139,141,right,0.796,giraffe     ,8,3,1,1,1,563.172,563.172,565.672,0,63,63,63,1,141,7,8,dress         ,giraffe     ,html/resources/sequences_IDs/A/07_dress.jpg,html/resources/sequences_IDs/B/03_giraffe.jpg,7,3,3,2,1,1,6,2,0,95,,,,,,,,,,,,,,,,,,,,
,,,,,95,2020-07-04_20h36.49.992,retriever_ti,2020.1.3,Win32,60,Firefox,1920,1080,,,,,,,,,,,,,,,,,2,,,,,,,,,,,,,,,,,,,,,,,,,,,566.772,142,right,1.132,clownfish     ,5,4,1,1,1,566.807,566.807,569.305,0,64,64,64,1,142,4,5,redfox      ,clownfish     ,html/resources/sequences_IDs/B/01_redfox.jpg,html/resources/sequences_IDs/A/04_clownfish.jpg,1,4,1,1,2,1,1,3,0,95,,,,,,,,,,,,,,,,,,,,
,,,,,95,2020-07-04_20h36.49.992,retriever_ti,2020.1.3,Win32,60,Firefox,1920,1080,,,,,,,,,,,,,,,,,2,,,,,,,,,,,,,,,,,,,,,,,,,,,570.441,143,right,1.109,dress         ,7,7,5,1,3,570.493,570.493,572.989,0,65,65,65,1,143,2,7,parrot      ,dress         ,html/resources/sequences_IDs/B/05_parrot.jpg,html/resources/sequences_IDs/A/07_dress.jpg,5,7,2,1,3,2,4,6,0,95,,,,,,,,,,,,,,,,,,,,
,,,,,95,2020-07-04_20h36.49.992,retriever_ti,2020.1.3,Win32,60,Firefox,1920,1080,,,,,,,,,,,,,,,,,2,,,,,,,,,,,,,,,,,,,,,,,,,,,573.589,144,left,1.83,redfox      ,4,1,-2,0,3,573.622,573.622,576.122,0,66,66,66,1,144,4,6,redfox      ,phone       ,html/resources/sequences_IDs/B/01_redfox.jpg,html/resources/sequences_IDs/B/09_phone.jpg,1,9,1,1,4,2,1,7,0,95,,,,,,,,,,,,,,,,,,,,
,,,,,95,2020-07-04_20h36.49.992,retriever_ti,2020.1.3,Win32,60,Firefox,1920,1080,,,,,,,,,,,,,,,,,2,,,,,,,,,,,,,,,,,,,,,,,,,,,576.723,145,left,1.578,parrot      ,2,5,-3,0,3,576.74,576.74,579.239,0,67,67,67,1,145,2,5,parrot      ,clownfish     ,html/resources/sequences_IDs/B/05_parrot.jpg,html/resources/sequences_IDs/A/04_clownfish.jpg,5,4,2,1,2,1,4,3,0,95,,,,,,,,,,,,,,,,,,,,
,,,,,95,2020-07-04_20h36.49.992,retriever_ti,2020.1.3,Win32,60,Firefox,1920,1080,,,,,,,,,,,,,,,,,2,,,,,,,,,,,,,,,,,,,,,,,,,,,579.839,146,right,1.242,phone       ,6,9,1,1,1,579.857,579.857,582.356,0,68,68,68,1,146,5,6,clownfish     ,phone       ,html/resources/sequences_IDs/A/04_clownfish.jpg,html/resources/sequences_IDs/B/09_phone.jpg,4,9,2,1,4,2,3,7,0,95,,,,,,,,,,,,,,,,,,,,
,,,,,95,2020-07-04_20h36.49.992,retriever_ti,2020.1.3,Win32,60,Firefox,1920,1080,,,,,,,,,,,,,,,,,2,,,,,,,,,,,,,,,,,,,,,,,,,,,583.456,147,right,1.24,dress         ,7,7,1,1,1,583.472,583.472,585.966,0,69,69,69,1,147,6,7,phone       ,dress         ,html/resources/sequences_IDs/B/09_phone.jpg,html/resources/sequences_IDs/A/07_dress.jpg,9,7,4,2,3,2,7,6,0,95,,,,,,,,,,,,,,,,,,,,
,,,,,95,2020-07-04_20h36.49.992,retriever_ti,2020.1.3,Win32,60,Firefox,1920,1080,,,,,,,,,,,,,,,,,2,,,,,,,,,,,,,,,,,,,,,,,,,,,587.055,148,right,1.453,satellite_dish,3,10,-1,0,0,587.074,587.074,589.572,0,70,70,70,1,148,4,3,redfox      ,satellite_dish,html/resources/sequences_IDs/B/01_redfox.jpg,html/resources/sequences_IDs/A/10_satellite_dish.jpg,1,10,1,1,4,2,1,8,0,95,,,,,,,,,,,,,,,,,,,,
,,,,,95,2020-07-04_20h36.49.992,retriever_ti,2020.1.3,Win32,60,Firefox,1920,1080,,,,,,,,,,,,,,,,,2,,,,,,,,,,,,,,,,,,,,,,,,,,,590.672,149,left,1.024,dress         ,7,7,2,1,3,590.707,590.707,593.205,0,71,71,71,1,149,7,5,dress         ,clownfish     ,html/resources/sequences_IDs/A/07_dress.jpg,html/resources/sequences_IDs/A/04_clownfish.jpg,7,4,3,2,2,1,6,3,0,95,,,,,,,,,,,,,,,,,,,,
,,,,,95,2020-07-04_20h36.49.992,retriever_ti,2020.1.3,Win32,60,Firefox,1920,1080,,,,,,,,,,,,,,,,,2,,,,,,,,,,,,,,,,,,,,,,,,,,,593.812,150,left,1.277,phone       ,6,9,1,1,1,593.933,593.933,596.422,0,72,72,72,1,150,6,5,phone       ,clownfish     ,html/resources/sequences_IDs/B/09_phone.jpg,html/resources/sequences_IDs/A/04_clownfish.jpg,9,4,4,2,2,1,7,3,0,95,,,,,,,,,,,,,,,,,,,,
,,,,,95,2020-07-04_20h36.49.992,retriever_ti,2020.1.3,Win32,60,Firefox,1920,1080,,,,,,,,,,,,,,,,,2,,,,,,,,,,,,,,,,,,,,,,,,,,,597.522,151,left,1.247,giraffe     ,8,3,7,1,3,597.555,597.555,600.056,0,73,73,73,1,151,8,1,giraffe     ,scarf         ,html/resources/sequences_IDs/B/03_giraffe.jpg,html/resources/sequences_IDs/A/06_scarf.jpg,3,6,1,1,3,2,2,5,0,95,,,,,,,,,,,,,,,,,,,,
,,,,,95,2020-07-04_20h36.49.992,retriever_ti,2020.1.3,Win32,60,Firefox,1920,1080,,,,,,,,,,,,,,,,,2,,,,,,,,,,,,,,,,,,,,,,,,,,,600.656,152,right,1.793,redfox      ,4,1,2,1,3,600.689,600.689,603.189,0,74,74,74,1,152,2,4,parrot      ,redfox      ,html/resources/sequences_IDs/B/05_parrot.jpg,html/resources/sequences_IDs/B/01_redfox.jpg,5,1,2,1,1,1,4,1,0,95,,,,,,,,,,,,,,,,,,,,
,,,,,95,2020-07-04_20h36.49.992,retriever_ti,2020.1.3,Win32,60,Firefox,1920,1080,,,,,,,,,,,,,,,,,2,,,,,,,,,,,,,,,,,,,,,,,,,,,603.806,153,right,0.858,dress         ,7,7,6,1,3,603.824,603.824,606.322,0,75,75,75,1,153,1,7,scarf         ,dress         ,html/resources/sequences_IDs/A/06_scarf.jpg,html/resources/sequences_IDs/A/07_dress.jpg,6,7,3,2,3,2,5,6,0,95,,,,,,,,,,,,,,,,,,,,
,,,,,95,2020-07-04_20h36.49.992,retriever_ti,2020.1.3,Win32,60,Firefox,1920,1080,,,,,,,,,,,,,,,,,2,,,,,,,,,,,,,,,,,,,,,,,,,,,606.939,154,left,1.089,giraffe     ,8,3,4,1,3,606.955,606.955,609.48,0,76,76,76,1,154,8,4,giraffe     ,redfox      ,html/resources/sequences_IDs/B/03_giraffe.jpg,html/resources/sequences_IDs/B/01_redfox.jpg,3,1,1,1,1,1,2,1,0,95,,,,,,,,,,,,,,,,,,,,
,,,,,95,2020-07-04_20h36.49.992,retriever_ti,2020.1.3,Win32,60,Firefox,1920,1080,,,,,,,,,,,,,,,,,,,,,,,,,,,,,,,,,,,,,0,2.328,,,,,,,,,,,,,,,,,,,,,,,,,,,,,,,,,,,,,,,,,1,0,1,0,1,,,,,,,,,,,,,,,
,,,,,95,2020-07-04_20h36.49.992,retriever_ti,2020.1.3,Win32,60,Firefox,1920,1080,,,,,,,,,,,,,,,,,3,,,,,,,,,,,,,,,,,,,,,,,,,,,616.751,155,left,0.942,giraffe     ,8,3,2,1,3,616.777,616.777,619.272,0,0,0,0,1,155,8,6,giraffe     ,phone       ,html/resources/sequences_IDs/B/03_giraffe.jpg,html/resources/sequences_IDs/B/09_phone.jpg,3,9,1,1,4,2,2,7,0,95,,,,,,,,,,,,,,,,,,,,
,,,,,95,2020-07-04_20h36.49.992,retriever_ti,2020.1.3,Win32,60,Firefox,1920,1080,,,,,,,,,,,,,,,,,3,,,,,,,,,,,,,,,,,,,,,,,,,,,619.872,156,right,0.805,giraffe     ,8,3,2,1,3,619.907,619.907,622.406,0,1,1,1,1,156,6,8,phone       ,giraffe     ,html/resources/sequences_IDs/B/09_phone.jpg,html/resources/sequences_IDs/B/03_giraffe.jpg,9,3,4,2,1,1,7,2,0,95,,,,,,,,,,,,,,,,,,,,
,,,,,95,2020-07-04_20h36.49.992,retriever_ti,2020.1.3,Win32,60,Firefox,1920,1080,,,,,,,,,,,,,,,,,3,,,,,,,,,,,,,,,,,,,,,,,,,,,623.023,157,left,1.761,clownfish     ,5,4,1,1,1,623.057,623.057,625.624,0,2,2,2,1,157,5,4,clownfish     ,redfox      ,html/resources/sequences_IDs/A/04_clownfish.jpg,html/resources/sequences_IDs/B/01_redfox.jpg,4,1,2,1,1,1,3,1,0,95,,,,,,,,,,,,,,,,,,,,
,,,,,95,2020-07-04_20h36.49.992,retriever_ti,2020.1.3,Win32,60,Firefox,1920,1080,,,,,,,,,,,,,,,,,3,,,,,,,,,,,,,,,,,,,,,,,,,,,626.723,158,right,0.803,dress         ,7,7,2,1,3,626.757,626.757,629.256,0,3,3,3,1,158,5,7,clownfish     ,dress         ,html/resources/sequences_IDs/A/04_clownfish.jpg,html/resources/sequences_IDs/A/07_dress.jpg,4,7,2,1,3,2,3,6,0,95,,,,,,,,,,,,,,,,,,,,
,,,,,95,2020-07-04_20h36.49.992,retriever_ti,2020.1.3,Win32,60,Firefox,1920,1080,,,,,,,,,,,,,,,,,3,,,,,,,,,,,,,,,,,,,,,,,,,,,629.856,159,right,0.796,dress         ,7,7,-1,0,1,629.889,629.889,632.381,0,4,4,4,1,159,8,7,giraffe     ,dress         ,html/resources/sequences_IDs/B/03_giraffe.jpg,html/resources/sequences_IDs/A/07_dress.jpg,3,7,1,1,3,2,2,6,1,95,,,,,,,,,,,,,,,,,,,,
,,,,,95,2020-07-04_20h36.49.992,retriever_ti,2020.1.3,Win32,60,Firefox,1920,1080,,,,,,,,,,,,,,,,,3,,,,,,,,,,,,,,,,,,,,,,,,,,,633.508,160,left,1.175,dress         ,7,7,5,1,3,633.529,633.529,636.022,0,5,5,5,1,160,7,2,dress         ,parrot      ,html/resources/sequences_IDs/A/07_dress.jpg,html/resources/sequences_IDs/B/05_parrot.jpg,7,5,3,2,2,1,6,4,0,95,,,,,,,,,,,,,,,,,,,,
,,,,,95,2020-07-04_20h36.49.992,retriever_ti,2020.1.3,Win32,60,Firefox,1920,1080,,,,,,,,,,,,,,,,,3,,,,,,,,,,,,,,,,,,,,,,,,,,,636.622,161,right,1.273,redfox      ,4,1,1,1,1,636.64,636.64,639.139,0,6,6,6,1,161,3,4,satellite_dish,redfox      ,html/resources/sequences_IDs/A/10_satellite_dish.jpg,html/resources/sequences_IDs/B/01_redfox.jpg,10,1,4,2,1,1,8,1,0,95,,,,,,,,,,,,,,,,,,,,
,,,,,95,2020-07-04_20h36.49.992,retriever_ti,2020.1.3,Win32,60,Firefox,1920,1080,,,,,,,,,,,,,,,,,3,,,,,,,,,,,,,,,,,,,,,,,,,,,640.237,162,right,1.279,giraffe     ,8,3,6,1,3,640.239,640.239,642.739,0,7,7,7,1,162,2,8,parrot      ,giraffe     ,html/resources/sequences_IDs/B/05_parrot.jpg,html/resources/sequences_IDs/B/03_giraffe.jpg,5,3,2,1,1,1,4,2,0,95,,,,,,,,,,,,,,,,,,,,
,,,,,95,2020-07-04_20h36.49.992,retriever_ti,2020.1.3,Win32,60,Firefox,1920,1080,,,,,,,,,,,,,,,,,3,,,,,,,,,,,,,,,,,,,,,,,,,,,643.34,163,right,1.511,parrot      ,2,5,-4,0,3,643.356,643.356,645.856,0,8,8,8,1,163,6,2,phone       ,parrot      ,html/resources/sequences_IDs/B/09_phone.jpg,html/resources/sequences_IDs/B/05_parrot.jpg,9,5,4,2,2,1,7,4,0,95,,,,,,,,,,,,,,,,,,,,
,,,,,95,2020-07-04_20h36.49.992,retriever_ti,2020.1.3,Win32,60,Firefox,1920,1080,,,,,,,,,,,,,,,,,3,,,,,,,,,,,,,,,,,,,,,,,,,,,646.457,164,right,1.292,phone       ,6,9,1,1,1,646.491,646.491,648.992,0,9,9,9,1,164,5,6,clownfish     ,phone       ,html/resources/sequences_IDs/A/04_clownfish.jpg,html/resources/sequences_IDs/B/09_phone.jpg,4,9,2,1,4,2,3,7,0,95,,,,,,,,,,,,,,,,,,,,
,,,,,95,2020-07-04_20h36.49.992,retriever_ti,2020.1.3,Win32,60,Firefox,1920,1080,,,,,,,,,,,,,,,,,3,,,,,,,,,,,,,,,,,,,,,,,,,,,650.089,165,left,1.732,parrot      ,2,5,1,1,1,650.106,650.106,652.606,0,10,10,10,1,165,2,1,parrot      ,scarf         ,html/resources/sequences_IDs/B/05_parrot.jpg,html/resources/sequences_IDs/A/06_scarf.jpg,5,6,2,1,3,2,4,5,0,95,,,,,,,,,,,,,,,,,,,,
,,,,,95,2020-07-04_20h36.49.992,retriever_ti,2020.1.3,Win32,60,Firefox,1920,1080,,,,,,,,,,,,,,,,,3,,,,,,,,,,,,,,,,,,,,,,,,,,,653.706,166,right,1.506,phone       ,6,9,4,1,3,653.741,653.741,656.265,0,11,11,11,1,166,2,6,parrot      ,phone       ,html/resources/sequences_IDs/B/05_parrot.jpg,html/resources/sequences_IDs/B/09_phone.jpg,5,9,2,1,4,2,4,7,0,95,,,,,,,,,,,,,,,,,,,,
,,,,,95,2020-07-04_20h36.49.992,retriever_ti,2020.1.3,Win32,60,Firefox,1920,1080,,,,,,,,,,,,,,,,,3,,,,,,,,,,,,,,,,,,,,,,,,,,,656.908,167,left,0.886,giraffe     ,8,3,6,1,3,656.96,656.96,659.457,0,12,12,12,1,167,8,2,giraffe     ,parrot      ,html/resources/sequences_IDs/B/03_giraffe.jpg,html/resources/sequences_IDs/B/05_parrot.jpg,3,5,1,1,2,1,2,4,0,95,,,,,,,,,,,,,,,,,,,,
,,,,,95,2020-07-04_20h36.49.992,retriever_ti,2020.1.3,Win32,60,Firefox,1920,1080,,,,,,,,,,,,,,,,,3,,,,,,,,,,,,,,,,,,,,,,,,,,,660.074,168,right,0.944,dress         ,7,7,3,1,3,660.106,660.106,662.606,0,13,13,13,1,168,4,7,redfox      ,dress         ,html/resources/sequences_IDs/B/01_redfox.jpg,html/resources/sequences_IDs/A/07_dress.jpg,1,7,1,1,3,2,1,6,0,95,,,,,,,,,,,,,,,,,,,,
,,,,,95,2020-07-04_20h36.49.992,retriever_ti,2020.1.3,Win32,60,Firefox,1920,1080,,,,,,,,,,,,,,,,,3,,,,,,,,,,,,,,,,,,,,,,,,,,,663.206,169,left,1.274,dress         ,7,7,1,1,1,663.223,663.223,665.724,0,14,14,14,1,169,7,6,dress         ,phone       ,html/resources/sequences_IDs/A/07_dress.jpg,html/resources/sequences_IDs/B/09_phone.jpg,7,9,3,2,4,2,6,7,0,95,,,,,,,,,,,,,,,,,,,,
,,,,,95,2020-07-04_20h36.49.992,retriever_ti,2020.1.3,Win32,60,Firefox,1920,1080,,,,,,,,,,,,,,,,,3,,,,,,,,,,,,,,,,,,,,,,,,,,,666.824,170,right,0.775,dress         ,7,7,1,1,1,666.856,666.856,669.356,0,15,15,15,1,170,6,7,phone       ,dress         ,html/resources/sequences_IDs/B/09_phone.jpg,html/resources/sequences_IDs/A/07_dress.jpg,9,7,4,2,3,2,7,6,0,95,,,,,,,,,,,,,,,,,,,,
,,,,,95,2020-07-04_20h36.49.992,retriever_ti,2020.1.3,Win32,60,Firefox,1920,1080,,,,,,,,,,,,,,,,,3,,,,,,,,,,,,,,,,,,,,,,,,,,,670.457,171,right,1.503,satellite_dish,3,10,-2,0,3,670.475,670.475,672.973,0,16,16,16,1,171,5,3,clownfish     ,satellite_dish,html/resources/sequences_IDs/A/04_clownfish.jpg,html/resources/sequences_IDs/A/10_satellite_dish.jpg,4,10,2,1,4,2,3,8,0,95,,,,,,,,,,,,,,,,,,,,
,,,,,95,2020-07-04_20h36.49.992,retriever_ti,2020.1.3,Win32,60,Firefox,1920,1080,,,,,,,,,,,,,,,,,3,,,,,,,,,,,,,,,,,,,,,,,,,,,673.573,172,left,1.152,satellite_dish,3,10,1,1,1,673.608,673.608,676.121,0,17,17,17,1,172,3,2,satellite_dish,parrot      ,html/resources/sequences_IDs/A/10_satellite_dish.jpg,html/resources/sequences_IDs/B/05_parrot.jpg,10,5,4,2,2,1,8,4,0,95,,,,,,,,,,,,,,,,,,,,
,,,,,95,2020-07-04_20h36.49.992,retriever_ti,2020.1.3,Win32,60,Firefox,1920,1080,,,,,,,,,,,,,,,,,3,,,,,,,,,,,,,,,,,,,,,,,,,,,677.223,173,right,1.143,clownfish     ,5,4,1,1,1,677.257,677.257,679.757,0,18,18,18,1,173,4,5,redfox      ,clownfish     ,html/resources/sequences_IDs/B/01_redfox.jpg,html/resources/sequences_IDs/A/04_clownfish.jpg,1,4,1,1,2,1,1,3,0,95,,,,,,,,,,,,,,,,,,,,
,,,,,95,2020-07-04_20h36.49.992,retriever_ti,2020.1.3,Win32,60,Firefox,1920,1080,,,,,,,,,,,,,,,,,3,,,,,,,,,,,,,,,,,,,,,,,,,,,680.857,174,right,0.931,satellite_dish,3,10,-1,0,1,680.89,680.89,683.399,0,19,19,19,1,174,4,3,redfox      ,satellite_dish,html/resources/sequences_IDs/B/01_redfox.jpg,html/resources/sequences_IDs/A/10_satellite_dish.jpg,1,10,1,1,4,2,1,8,1,95,,,,,,,,,,,,,,,,,,,,
,,,,,95,2020-07-04_20h36.49.992,retriever_ti,2020.1.3,Win32,60,Firefox,1920,1080,,,,,,,,,,,,,,,,,3,,,,,,,,,,,,,,,,,,,,,,,,,,,684.636,175,right,1.212,satellite_dish,3,10,1,1,1,684.642,684.642,687.14,0,20,20,20,1,175,2,3,parrot      ,satellite_dish,html/resources/sequences_IDs/B/05_parrot.jpg,html/resources/sequences_IDs/A/10_satellite_dish.jpg,5,10,2,1,4,2,4,8,0,95,,,,,,,,,,,,,,,,,,,,
,,,,,95,2020-07-04_20h36.49.992,retriever_ti,2020.1.3,Win32,60,Firefox,1920,1080,,,,,,,,,,,,,,,,,3,,,,,,,,,,,,,,,,,,,,,,,,,,,688.24,176,right,1.179,redfox      ,4,1,3,1,3,688.274,688.274,690.773,0,21,21,21,1,176,1,4,scarf         ,redfox      ,html/resources/sequences_IDs/A/06_scarf.jpg,html/resources/sequences_IDs/B/01_redfox.jpg,6,1,3,2,1,1,5,1,0,95,,,,,,,,,,,,,,,,,,,,
,,,,,95,2020-07-04_20h36.49.992,retriever_ti,2020.1.3,Win32,60,Firefox,1920,1080,,,,,,,,,,,,,,,,,3,,,,,,,,,,,,,,,,,,,,,,,,,,,691.373,177,right,0.715,dress         ,7,7,6,1,3,691.443,691.443,693.94,0,22,22,22,1,177,1,7,scarf         ,dress         ,html/resources/sequences_IDs/A/06_scarf.jpg,html/resources/sequences_IDs/A/07_dress.jpg,6,7,3,2,3,2,5,6,0,95,,,,,,,,,,,,,,,,,,,,
,,,,,95,2020-07-04_20h36.49.992,retriever_ti,2020.1.3,Win32,60,Firefox,1920,1080,,,,,,,,,,,,,,,,,3,,,,,,,,,,,,,,,,,,,,,,,,,,,694.558,178,left,1.154,redfox      ,4,1,3,1,3,694.575,694.575,697.073,0,23,23,23,1,178,4,1,redfox      ,scarf         ,html/resources/sequences_IDs/B/01_redfox.jpg,html/resources/sequences_IDs/A/06_scarf.jpg,1,6,1,1,3,2,1,5,0,95,,,,,,,,,,,,,,,,,,,,
,,,,,95,2020-07-04_20h36.49.992,retriever_ti,2020.1.3,Win32,60,Firefox,1920,1080,,,,,,,,,,,,,,,,,3,,,,,,,,,,,,,,,,,,,,,,,,,,,697.674,179,right,0.996,satellite_dish,3,10,1,1,1,697.708,697.708,700.279,0,24,24,24,1,179,2,3,parrot      ,satellite_dish,html/resources/sequences_IDs/B/05_parrot.jpg,html/resources/sequences_IDs/A/10_satellite_dish.jpg,5,10,2,1,4,2,4,8,0,95,,,,,,,,,,,,,,,,,,,,
,,,,,95,2020-07-04_20h36.49.992,retriever_ti,2020.1.3,Win32,60,Firefox,1920,1080,,,,,,,,,,,,,,,,,3,,,,,,,,,,,,,,,,,,,,,,,,,,,701.374,180,left,1.292,giraffe     ,8,3,3,1,3,701.39,701.39,703.89,0,25,25,25,1,180,8,5,giraffe     ,clownfish     ,html/resources/sequences_IDs/B/03_giraffe.jpg,html/resources/sequences_IDs/A/04_clownfish.jpg,3,4,1,1,2,1,2,3,0,95,,,,,,,,,,,,,,,,,,,,
,,,,,95,2020-07-04_20h36.49.992,retriever_ti,2020.1.3,Win32,60,Firefox,1920,1080,,,,,,,,,,,,,,,,,3,,,,,,,,,,,,,,,,,,,,,,,,,,,704.49,181,left,0.919,clownfish     ,5,4,1,1,1,704.523,704.523,707.046,0,26,26,26,1,181,5,4,clownfish     ,redfox      ,html/resources/sequences_IDs/A/04_clownfish.jpg,html/resources/sequences_IDs/B/01_redfox.jpg,4,1,2,1,1,1,3,1,0,95,,,,,,,,,,,,,,,,,,,,
,,,,,95,2020-07-04_20h36.49.992,retriever_ti,2020.1.3,Win32,60,Firefox,1920,1080,,,,,,,,,,,,,,,,,3,,,,,,,,,,,,,,,,,,,,,,,,,,,708.141,182,left,0.938,satellite_dish,3,10,-5,0,3,708.158,708.158,710.657,0,27,27,27,1,182,3,8,satellite_dish,giraffe     ,html/resources/sequences_IDs/A/10_satellite_dish.jpg,html/resources/sequences_IDs/B/03_giraffe.jpg,10,3,4,2,1,1,8,2,0,95,,,,,,,,,,,,,,,,,,,,
,,,,,95,2020-07-04_20h36.49.992,retriever_ti,2020.1.3,Win32,60,Firefox,1920,1080,,,,,,,,,,,,,,,,,3,,,,,,,,,,,,,,,,,,,,,,,,,,,711.257,183,right,0.695,satellite_dish,3,10,-5,0,3,711.29,711.29,713.79,0,28,28,28,1,183,8,3,giraffe     ,satellite_dish,html/resources/sequences_IDs/B/03_giraffe.jpg,html/resources/sequences_IDs/A/10_satellite_dish.jpg,3,10,1,1,4,2,2,8,0,95,,,,,,,,,,,,,,,,,,,,
,,,,,95,2020-07-04_20h36.49.992,retriever_ti,2020.1.3,Win32,60,Firefox,1920,1080,,,,,,,,,,,,,,,,,3,,,,,,,,,,,,,,,,,,,,,,,,,,,714.391,184,right,0.799,parrot      ,2,5,1,1,1,714.407,714.407,716.907,0,29,29,29,1,184,1,2,scarf         ,parrot      ,html/resources/sequences_IDs/A/06_scarf.jpg,html/resources/sequences_IDs/B/05_parrot.jpg,6,5,3,2,2,1,5,4,0,95,,,,,,,,,,,,,,,,,,,,
,,,,,95,2020-07-04_20h36.49.992,retriever_ti,2020.1.3,Win32,60,Firefox,1920,1080,,,,,,,,,,,,,,,,,3,,,,,,,,,,,,,,,,,,,,,,,,,,,718.007,185,right,0.87,giraffe     ,8,3,1,1,1,718.042,718.042,720.54,0,30,30,30,1,185,7,8,dress         ,giraffe     ,html/resources/sequences_IDs/A/07_dress.jpg,html/resources/sequences_IDs/B/03_giraffe.jpg,7,3,3,2,1,1,6,2,0,95,,,,,,,,,,,,,,,,,,,,
,,,,,95,2020-07-04_20h36.49.992,retriever_ti,2020.1.3,Win32,60,Firefox,1920,1080,,,,,,,,,,,,,,,,,3,,,,,,,,,,,,,,,,,,,,,,,,,,,721.641,186,right,1.058,parrot      ,2,5,1,1,1,721.674,721.674,724.173,0,31,31,31,1,186,1,2,scarf         ,parrot      ,html/resources/sequences_IDs/A/06_scarf.jpg,html/resources/sequences_IDs/B/05_parrot.jpg,6,5,3,2,2,1,5,4,0,95,,,,,,,,,,,,,,,,,,,,
,,,,,95,2020-07-04_20h36.49.992,retriever_ti,2020.1.3,Win32,60,Firefox,1920,1080,,,,,,,,,,,,,,,,,3,,,,,,,,,,,,,,,,,,,,,,,,,,,725.274,187,left,0.89,dress         ,7,7,6,1,3,725.307,725.307,727.807,0,32,32,32,1,187,7,1,dress         ,scarf         ,html/resources/sequences_IDs/A/07_dress.jpg,html/resources/sequences_IDs/A/06_scarf.jpg,7,6,3,2,3,2,6,5,0,95,,,,,,,,,,,,,,,,,,,,
,,,,,95,2020-07-04_20h36.49.992,retriever_ti,2020.1.3,Win32,60,Firefox,1920,1080,,,,,,,,,,,,,,,,,3,,,,,,,,,,,,,,,,,,,,,,,,,,,728.424,188,left,1.266,giraffe     ,8,3,7,1,3,728.443,728.443,730.941,0,33,33,33,1,188,8,1,giraffe     ,scarf         ,html/resources/sequences_IDs/B/03_giraffe.jpg,html/resources/sequences_IDs/A/06_scarf.jpg,3,6,1,1,3,2,2,5,0,95,,,,,,,,,,,,,,,,,,,,
,,,,,95,2020-07-04_20h36.49.992,retriever_ti,2020.1.3,Win32,60,Firefox,1920,1080,,,,,,,,,,,,,,,,,3,,,,,,,,,,,,,,,,,,,,,,,,,,,731.558,189,left,1.11,phone       ,6,9,5,1,3,731.59,731.59,734.091,0,34,34,34,1,189,6,1,phone       ,scarf         ,html/resources/sequences_IDs/B/09_phone.jpg,html/resources/sequences_IDs/A/06_scarf.jpg,9,6,4,2,3,2,7,5,0,95,,,,,,,,,,,,,,,,,,,,
,,,,,95,2020-07-04_20h36.49.992,retriever_ti,2020.1.3,Win32,60,Firefox,1920,1080,,,,,,,,,,,,,,,,,3,,,,,,,,,,,,,,,,,,,,,,,,,,,734.707,190,right,0.838,satellite_dish,3,10,-3,0,3,734.742,734.742,737.308,0,35,35,35,1,190,6,3,phone       ,satellite_dish,html/resources/sequences_IDs/B/09_phone.jpg,html/resources/sequences_IDs/A/10_satellite_dish.jpg,9,10,4,2,4,2,7,8,0,95,,,,,,,,,,,,,,,,,,,,
,,,,,95,2020-07-04_20h36.49.992,retriever_ti,2020.1.3,Win32,60,Firefox,1920,1080,,,,,,,,,,,,,,,,,3,,,,,,,,,,,,,,,,,,,,,,,,,,,737.924,191,left,1.548,redfox      ,4,1,1,1,1,737.941,737.941,740.44,0,36,36,36,1,191,4,3,redfox      ,satellite_dish,html/resources/sequences_IDs/B/01_redfox.jpg,html/resources/sequences_IDs/A/10_satellite_dish.jpg,1,10,1,1,4,2,1,8,0,95,,,,,,,,,,,,,,,,,,,,
,,,,,95,2020-07-04_20h36.49.992,retriever_ti,2020.1.3,Win32,60,Firefox,1920,1080,,,,,,,,,,,,,,,,,3,,,,,,,,,,,,,,,,,,,,,,,,,,,741.541,192,right,0.826,dress         ,7,7,5,1,3,741.574,741.574,744.079,0,37,37,37,1,192,2,7,parrot      ,dress         ,html/resources/sequences_IDs/B/05_parrot.jpg,html/resources/sequences_IDs/A/07_dress.jpg,5,7,2,1,3,2,4,6,0,95,,,,,,,,,,,,,,,,,,,,
,,,,,95,2020-07-04_20h36.49.992,retriever_ti,2020.1.3,Win32,60,Firefox,1920,1080,,,,,,,,,,,,,,,,,3,,,,,,,,,,,,,,,,,,,,,,,,,,,744.725,193,left,1.034,giraffe     ,8,3,4,1,3,744.777,744.777,747.274,0,38,38,38,1,193,8,4,giraffe     ,redfox      ,html/resources/sequences_IDs/B/03_giraffe.jpg,html/resources/sequences_IDs/B/01_redfox.jpg,3,1,1,1,1,1,2,1,0,95,,,,,,,,,,,,,,,,,,,,
,,,,,95,2020-07-04_20h36.49.992,retriever_ti,2020.1.3,Win32,60,Firefox,1920,1080,,,,,,,,,,,,,,,,,3,,,,,,,,,,,,,,,,,,,,,,,,,,,747.891,194,left,1.239,phone       ,6,9,1,1,1,747.925,747.925,750.423,0,39,39,39,1,194,6,5,phone       ,clownfish     ,html/resources/sequences_IDs/B/09_phone.jpg,html/resources/sequences_IDs/A/04_clownfish.jpg,9,4,4,2,2,1,7,3,0,95,,,,,,,,,,,,,,,,,,,,
,,,,,95,2020-07-04_20h36.49.992,retriever_ti,2020.1.3,Win32,60,Firefox,1920,1080,,,,,,,,,,,,,,,,,3,,,,,,,,,,,,,,,,,,,,,,,,,,,751.524,195,left,1.285,dress         ,7,7,1,1,0,751.541,751.541,754.04,0,40,40,40,1,195,7,6,dress         ,phone       ,html/resources/sequences_IDs/A/07_dress.jpg,html/resources/sequences_IDs/B/09_phone.jpg,7,9,3,2,4,2,6,7,1,95,,,,,,,,,,,,,,,,,,,,
,,,,,95,2020-07-04_20h36.49.992,retriever_ti,2020.1.3,Win32,60,Firefox,1920,1080,,,,,,,,,,,,,,,,,3,,,,,,,,,,,,,,,,,,,,,,,,,,,755.141,196,right,1.252,phone       ,6,9,5,1,3,755.174,755.174,757.674,0,41,41,41,1,196,1,6,scarf         ,phone       ,html/resources/sequences_IDs/A/06_scarf.jpg,html/resources/sequences_IDs/B/09_phone.jpg,6,9,3,2,4,2,5,7,0,95,,,,,,,,,,,,,,,,,,,,
,,,,,95,2020-07-04_20h36.49.992,retriever_ti,2020.1.3,Win32,60,Firefox,1920,1080,,,,,,,,,,,,,,,,,3,,,,,,,,,,,,,,,,,,,,,,,,,,,758.274,197,left,1.415,redfox      ,4,1,2,1,3,758.308,758.308,760.83,0,42,42,42,1,197,4,2,redfox      ,parrot      ,html/resources/sequences_IDs/B/01_redfox.jpg,html/resources/sequences_IDs/B/05_parrot.jpg,1,5,1,1,2,1,1,4,0,95,,,,,,,,,,,,,,,,,,,,
,,,,,95,2020-07-04_20h36.49.992,retriever_ti,2020.1.3,Win32,60,Firefox,1920,1080,,,,,,,,,,,,,,,,,3,,,,,,,,,,,,,,,,,,,,,,,,,,,761.441,198,left,1.56,satellite_dish,3,10,-2,0,3,761.474,761.474,763.974,0,43,43,43,1,198,3,5,satellite_dish,clownfish     ,html/resources/sequences_IDs/A/10_satellite_dish.jpg,html/resources/sequences_IDs/A/04_clownfish.jpg,10,4,4,2,2,1,8,3,0,95,,,,,,,,,,,,,,,,,,,,
,,,,,95,2020-07-04_20h36.49.992,retriever_ti,2020.1.3,Win32,60,Firefox,1920,1080,,,,,,,,,,,,,,,,,3,,,,,,,,,,,,,,,,,,,,,,,,,,,764.575,199,right,1.012,phone       ,6,9,1,1,0,764.591,764.591,767.09,0,44,44,44,1,199,5,6,clownfish     ,phone       ,html/resources/sequences_IDs/A/04_clownfish.jpg,html/resources/sequences_IDs/B/09_phone.jpg,4,9,2,1,4,2,3,7,1,95,,,,,,,,,,,,,,,,,,,,
,,,,,95,2020-07-04_20h36.49.992,retriever_ti,2020.1.3,Win32,60,Firefox,1920,1080,,,,,,,,,,,,,,,,,3,,,,,,,,,,,,,,,,,,,,,,,,,,,768.228,200,right,1.204,satellite_dish,3,10,1,1,0,768.279,768.279,770.774,0,45,45,45,1,200,2,3,parrot      ,satellite_dish,html/resources/sequences_IDs/B/05_parrot.jpg,html/resources/sequences_IDs/A/10_satellite_dish.jpg,5,10,2,1,4,2,4,8,1,95,,,,,,,,,,,,,,,,,,,,
,,,,,95,2020-07-04_20h36.49.992,retriever_ti,2020.1.3,Win32,60,Firefox,1920,1080,,,,,,,,,,,,,,,,,3,,,,,,,,,,,,,,,,,,,,,,,,,,,771.875,201,right,0.862,giraffe     ,8,3,1,1,1,771.909,771.909,774.408,0,46,46,46,1,201,7,8,dress         ,giraffe     ,html/resources/sequences_IDs/A/07_dress.jpg,html/resources/sequences_IDs/B/03_giraffe.jpg,7,3,3,2,1,1,6,2,0,95,,,,,,,,,,,,,,,,,,,,
,,,,,95,2020-07-04_20h36.49.992,retriever_ti,2020.1.3,Win32,60,Firefox,1920,1080,,,,,,,,,,,,,,,,,3,,,,,,,,,,,,,,,,,,,,,,,,,,,775.498,202,right,0.782,giraffe     ,8,3,7,1,3,775.524,775.524,778.024,0,47,47,47,1,202,1,8,scarf         ,giraffe     ,html/resources/sequences_IDs/A/06_scarf.jpg,html/resources/sequences_IDs/B/03_giraffe.jpg,6,3,3,2,1,1,5,2,0,95,,,,,,,,,,,,,,,,,,,,
,,,,,95,2020-07-04_20h36.49.992,retriever_ti,2020.1.3,Win32,60,Firefox,1920,1080,,,,,,,,,,,,,,,,,3,,,,,,,,,,,,,,,,,,,,,,,,,,,778.641,203,left,1.22,dress         ,7,7,3,1,3,778.659,778.659,781.157,0,48,48,48,1,203,7,4,dress         ,redfox      ,html/resources/sequences_IDs/A/07_dress.jpg,html/resources/sequences_IDs/B/01_redfox.jpg,7,1,3,2,1,1,6,1,0,95,,,,,,,,,,,,,,,,,,,,
,,,,,95,2020-07-04_20h36.49.992,retriever_ti,2020.1.3,Win32,60,Firefox,1920,1080,,,,,,,,,,,,,,,,,3,,,,,,,,,,,,,,,,,,,,,,,,,,,781.757,204,right,1.908,redfox      ,4,1,2,1,3,781.791,781.791,784.315,0,49,49,49,1,204,2,4,parrot      ,redfox      ,html/resources/sequences_IDs/B/05_parrot.jpg,html/resources/sequences_IDs/B/01_redfox.jpg,5,1,2,1,1,1,4,1,0,95,,,,,,,,,,,,,,,,,,,,
,,,,,95,2020-07-04_20h36.49.992,retriever_ti,2020.1.3,Win32,60,Firefox,1920,1080,,,,,,,,,,,,,,,,,3,,,,,,,,,,,,,,,,,,,,,,,,,,,784.924,205,left,1.001,dress         ,7,7,2,1,3,784.958,784.958,787.458,0,50,50,50,1,205,7,5,dress         ,clownfish     ,html/resources/sequences_IDs/A/07_dress.jpg,html/resources/sequences_IDs/A/04_clownfish.jpg,7,4,3,2,2,1,6,3,0,95,,,,,,,,,,,,,,,,,,,,
,,,,,95,2020-07-04_20h36.49.992,retriever_ti,2020.1.3,Win32,60,Firefox,1920,1080,,,,,,,,,,,,,,,,,3,,,,,,,,,,,,,,,,,,,,,,,,,,,788.074,206,left,1.074,satellite_dish,3,10,-3,0,3,788.092,788.092,790.591,0,51,51,51,1,206,3,6,satellite_dish,phone       ,html/resources/sequences_IDs/A/10_satellite_dish.jpg,html/resources/sequences_IDs/B/09_phone.jpg,10,9,4,2,4,2,8,7,0,95,,,,,,,,,,,,,,,,,,,,
,,,,,95,2020-07-04_20h36.49.992,retriever_ti,2020.1.3,Win32,60,Firefox,1920,1080,,,,,,,,,,,,,,,,,3,,,,,,,,,,,,,,,,,,,,,,,,,,,791.207,207,right,1.066,giraffe     ,8,3,3,1,3,791.241,791.241,793.741,0,52,52,52,1,207,5,8,clownfish     ,giraffe     ,html/resources/sequences_IDs/A/04_clownfish.jpg,html/resources/sequences_IDs/B/03_giraffe.jpg,4,3,2,1,1,1,3,2,0,95,,,,,,,,,,,,,,,,,,,,
,,,,,95,2020-07-04_20h36.49.992,retriever_ti,2020.1.3,Win32,60,Firefox,1920,1080,,,,,,,,,,,,,,,,,3,,,,,,,,,,,,,,,,,,,,,,,,,,,794.341,208,left,0.853,clownfish     ,5,4,4,1,3,794.374,794.374,796.875,0,53,53,53,1,208,5,1,clownfish     ,scarf         ,html/resources/sequences_IDs/A/04_clownfish.jpg,html/resources/sequences_IDs/A/06_scarf.jpg,4,6,2,1,3,2,3,5,0,95,,,,,,,,,,,,,,,,,,,,
,,,,,95,2020-07-04_20h36.49.992,retriever_ti,2020.1.3,Win32,60,Firefox,1920,1080,,,,,,,,,,,,,,,,,3,,,,,,,,,,,,,,,,,,,,,,,,,,,797.491,209,left,2.117,satellite_dish,3,10,-1,0,0,797.509,797.509,800.008,0,54,54,54,1,209,3,4,satellite_dish,redfox      ,html/resources/sequences_IDs/A/10_satellite_dish.jpg,html/resources/sequences_IDs/B/01_redfox.jpg,10,1,4,2,1,1,8,1,0,95,,,,,,,,,,,,,,,,,,,,
,,,,,95,2020-07-04_20h36.49.992,retriever_ti,2020.1.3,Win32,60,Firefox,1920,1080,,,,,,,,,,,,,,,,,3,,,,,,,,,,,,,,,,,,,,,,,,,,,801.109,210,right,0.625,clownfish     ,5,4,4,1,3,801.125,801.125,803.625,0,55,55,55,1,210,1,5,scarf         ,clownfish     ,html/resources/sequences_IDs/A/06_scarf.jpg,html/resources/sequences_IDs/A/04_clownfish.jpg,6,4,3,2,2,1,5,3,0,95,,,,,,,,,,,,,,,,,,,,
,,,,,95,2020-07-04_20h36.49.992,retriever_ti,2020.1.3,Win32,60,Firefox,1920,1080,,,,,,,,,,,,,,,,,3,,,,,,,,,,,,,,,,,,,,,,,,,,,804.242,211,right,0.677,dress         ,7,7,1,1,1,804.275,804.275,806.792,0,56,56,56,1,211,6,7,phone       ,dress         ,html/resources/sequences_IDs/B/09_phone.jpg,html/resources/sequences_IDs/A/07_dress.jpg,9,7,4,2,3,2,7,6,0,95,,,,,,,,,,,,,,,,,,,,
,,,,,95,2020-07-04_20h36.49.992,retriever_ti,2020.1.3,Win32,60,Firefox,1920,1080,,,,,,,,,,,,,,,,,3,,,,,,,,,,,,,,,,,,,,,,,,,,,807.944,212,right,1.003,redfox      ,4,1,-2,0,3,807.991,807.991,810.491,0,57,57,57,1,212,6,4,phone       ,redfox      ,html/resources/sequences_IDs/B/09_phone.jpg,html/resources/sequences_IDs/B/01_redfox.jpg,9,1,4,2,1,1,7,1,0,95,,,,,,,,,,,,,,,,,,,,
,,,,,95,2020-07-04_20h36.49.992,retriever_ti,2020.1.3,Win32,60,Firefox,1920,1080,,,,,,,,,,,,,,,,,3,,,,,,,,,,,,,,,,,,,,,,,,,,,811.092,213,left,1.34,phone       ,6,9,1,1,1,811.11,811.11,813.608,0,58,58,58,1,213,6,5,phone       ,clownfish     ,html/resources/sequences_IDs/B/09_phone.jpg,html/resources/sequences_IDs/A/04_clownfish.jpg,9,4,4,2,2,1,7,3,0,95,,,,,,,,,,,,,,,,,,,,
,,,,,95,2020-07-04_20h36.49.992,retriever_ti,2020.1.3,Win32,60,Firefox,1920,1080,,,,,,,,,,,,,,,,,3,,,,,,,,,,,,,,,,,,,,,,,,,,,814.732,214,right,1.356,clownfish     ,5,4,3,1,3,814.775,814.775,817.274,0,59,59,59,1,214,2,5,parrot      ,clownfish     ,html/resources/sequences_IDs/B/05_parrot.jpg,html/resources/sequences_IDs/A/04_clownfish.jpg,5,4,2,1,2,1,4,3,0,95,,,,,,,,,,,,,,,,,,,,
,,,,,95,2020-07-04_20h36.49.992,retriever_ti,2020.1.3,Win32,60,Firefox,1920,1080,,,,,,,,,,,,,,,,,3,,,,,,,,,,,,,,,,,,,,,,,,,,,817.891,215,right,1.789,phone       ,6,9,1,1,1,817.926,817.926,820.425,0,60,60,60,1,215,5,6,clownfish     ,phone       ,html/resources/sequences_IDs/A/04_clownfish.jpg,html/resources/sequences_IDs/B/09_phone.jpg,4,9,2,1,4,2,3,7,0,95,,,,,,,,,,,,,,,,,,,,
,,,,,95,2020-07-04_20h36.49.992,retriever_ti,2020.1.3,Win32,60,Firefox,1920,1080,,,,,,,,,,,,,,,,,3,,,,,,,,,,,,,,,,,,,,,,,,,,,821.525,216,left,0.929,giraffe     ,8,3,1,1,1,821.558,821.558,824.058,0,61,61,61,1,216,8,7,giraffe     ,dress         ,html/resources/sequences_IDs/B/03_giraffe.jpg,html/resources/sequences_IDs/A/07_dress.jpg,3,7,1,1,3,2,2,6,0,95,,,,,,,,,,,,,,,,,,,,
,,,,,95,2020-07-04_20h36.49.992,retriever_ti,2020.1.3,Win32,60,Firefox,1920,1080,,,,,,,,,,,,,,,,,3,,,,,,,,,,,,,,,,,,,,,,,,,,,825.159,217,left,0.777,giraffe     ,8,3,1,1,1,825.193,825.193,827.692,0,62,62,62,1,217,8,7,giraffe     ,dress         ,html/resources/sequences_IDs/B/03_giraffe.jpg,html/resources/sequences_IDs/A/07_dress.jpg,3,7,1,1,3,2,2,6,0,95,,,,,,,,,,,,,,,,,,,,
,,,,,95,2020-07-04_20h36.49.992,retriever_ti,2020.1.3,Win32,60,Firefox,1920,1080,,,,,,,,,,,,,,,,,3,,,,,,,,,,,,,,,,,,,,,,,,,,,828.791,218,right,1.518,phone       ,6,9,2,1,3,828.826,828.826,831.41,0,63,63,63,1,218,4,6,redfox      ,phone       ,html/resources/sequences_IDs/B/01_redfox.jpg,html/resources/sequences_IDs/B/09_phone.jpg,1,9,1,1,4,2,1,7,0,95,,,,,,,,,,,,,,,,,,,,
,,,,,95,2020-07-04_20h36.49.992,retriever_ti,2020.1.3,Win32,60,Firefox,1920,1080,,,,,,,,,,,,,,,,,3,,,,,,,,,,,,,,,,,,,,,,,,,,,832.025,219,left,0.748,parrot      ,2,5,1,1,1,832.041,832.041,834.541,0,64,64,64,1,219,2,1,parrot      ,scarf         ,html/resources/sequences_IDs/B/05_parrot.jpg,html/resources/sequences_IDs/A/06_scarf.jpg,5,6,2,1,3,2,4,5,0,95,,,,,,,,,,,,,,,,,,,,
,,,,,95,2020-07-04_20h36.49.992,retriever_ti,2020.1.3,Win32,60,Firefox,1920,1080,,,,,,,,,,,,,,,,,3,,,,,,,,,,,,,,,,,,,,,,,,,,,835.641,220,left,0.887,dress         ,7,7,1,1,1,835.677,835.677,838.195,0,65,65,65,1,220,7,6,dress         ,phone       ,html/resources/sequences_IDs/A/07_dress.jpg,html/resources/sequences_IDs/B/09_phone.jpg,7,9,3,2,4,2,6,7,0,95,,,,,,,,,,,,,,,,,,,,
,,,,,95,2020-07-04_20h36.49.992,retriever_ti,2020.1.3,Win32,60,Firefox,1920,1080,,,,,,,,,,,,,,,,,3,,,,,,,,,,,,,,,,,,,,,,,,,,,839.292,221,right,0.764,satellite_dish,3,10,2,1,3,839.327,839.327,841.825,0,66,66,66,1,221,1,3,scarf         ,satellite_dish,html/resources/sequences_IDs/A/06_scarf.jpg,html/resources/sequences_IDs/A/10_satellite_dish.jpg,6,10,3,2,4,2,5,8,0,95,,,,,,,,,,,,,,,,,,,,
,,,,,95,2020-07-04_20h36.49.992,retriever_ti,2020.1.3,Win32,60,Firefox,1920,1080,,,,,,,,,,,,,,,,,3,,,,,,,,,,,,,,,,,,,,,,,,,,,842.425,222,left,1.003,redfox      ,4,1,1,1,1,842.458,842.458,844.958,0,67,67,67,1,222,4,3,redfox      ,satellite_dish,html/resources/sequences_IDs/B/01_redfox.jpg,html/resources/sequences_IDs/A/10_satellite_dish.jpg,1,10,1,1,4,2,1,8,0,95,,,,,,,,,,,,,,,,,,,,
,,,,,95,2020-07-04_20h36.49.992,retriever_ti,2020.1.3,Win32,60,Firefox,1920,1080,,,,,,,,,,,,,,,,,3,,,,,,,,,,,,,,,,,,,,,,,,,,,846.056,223,right,1.394,clownfish     ,5,4,1,1,0,846.058,846.058,848.558,0,68,68,68,1,223,4,5,redfox      ,clownfish     ,html/resources/sequences_IDs/B/01_redfox.jpg,html/resources/sequences_IDs/A/04_clownfish.jpg,1,4,1,1,2,1,1,3,1,95,,,,,,,,,,,,,,,,,,,,
,,,,,95,2020-07-04_20h36.49.992,retriever_ti,2020.1.3,Win32,60,Firefox,1920,1080,,,,,,,,,,,,,,,,,3,,,,,,,,,,,,,,,,,,,,,,,,,,,849.659,224,left,1.391,clownfish     ,5,4,3,1,3,849.693,849.693,852.192,0,69,69,69,1,224,5,2,clownfish     ,parrot      ,html/resources/sequences_IDs/A/04_clownfish.jpg,html/resources/sequences_IDs/B/05_parrot.jpg,4,5,2,1,2,1,3,4,0,95,,,,,,,,,,,,,,,,,,,,
,,,,,95,2020-07-04_20h36.49.992,retriever_ti,2020.1.3,Win32,60,Firefox,1920,1080,,,,,,,,,,,,,,,,,3,,,,,,,,,,,,,,,,,,,,,,,,,,,852.809,225,left,1.219,redfox      ,4,1,-1,0,0,852.842,852.842,855.341,0,70,70,70,1,225,4,5,redfox      ,clownfish     ,html/resources/sequences_IDs/B/01_redfox.jpg,html/resources/sequences_IDs/A/04_clownfish.jpg,1,4,1,1,2,1,1,3,0,95,,,,,,,,,,,,,,,,,,,,
,,,,,95,2020-07-04_20h36.49.992,retriever_ti,2020.1.3,Win32,60,Firefox,1920,1080,,,,,,,,,,,,,,,,,3,,,,,,,,,,,,,,,,,,,,,,,,,,,856.442,226,right,0.962,giraffe     ,8,3,4,1,3,856.458,856.458,858.958,0,71,71,71,1,226,4,8,redfox      ,giraffe     ,html/resources/sequences_IDs/B/01_redfox.jpg,html/resources/sequences_IDs/B/03_giraffe.jpg,1,3,1,1,1,1,1,2,0,95,,,,,,,,,,,,,,,,,,,,
,,,,,95,2020-07-04_20h36.49.992,retriever_ti,2020.1.3,Win32,60,Firefox,1920,1080,,,,,,,,,,,,,,,,,3,,,,,,,,,,,,,,,,,,,,,,,,,,,859.559,227,left,1.792,satellite_dish,3,10,-4,0,3,859.575,859.575,862.068,0,72,72,72,1,227,3,7,satellite_dish,dress         ,html/resources/sequences_IDs/A/10_satellite_dish.jpg,html/resources/sequences_IDs/A/07_dress.jpg,10,7,4,2,3,2,8,6,0,95,,,,,,,,,,,,,,,,,,,,
,,,,,95,2020-07-04_20h36.49.992,retriever_ti,2020.1.3,Win32,60,Firefox,1920,1080,,,,,,,,,,,,,,,,,3,,,,,,,,,,,,,,,,,,,,,,,,,,,862.676,228,left,0.754,parrot      ,2,5,1,1,0,862.71,862.71,865.208,0,73,73,73,1,228,2,1,parrot      ,scarf         ,html/resources/sequences_IDs/B/05_parrot.jpg,html/resources/sequences_IDs/A/06_scarf.jpg,5,6,2,1,3,2,4,5,1,95,,,,,,,,,,,,,,,,,,,,
